Time,header.seq,header.stamp.secs,header.stamp.nsecs,header.frame_id,orientation.x,orientation.y,orientation.z,orientation.w,orientation_covariance_0,orientation_covariance_1,orientation_covariance_2,orientation_covariance_3,orientation_covariance_4,orientation_covariance_5,orientation_covariance_6,orientation_covariance_7,orientation_covariance_8,angular_velocity.x,angular_velocity.y,angular_velocity.z,angular_velocity_covariance_0,angular_velocity_covariance_1,angular_velocity_covariance_2,angular_velocity_covariance_3,angular_velocity_covariance_4,angular_velocity_covariance_5,angular_velocity_covariance_6,angular_velocity_covariance_7,angular_velocity_covariance_8,linear_acceleration.x,linear_acceleration.y,linear_acceleration.z,linear_acceleration_covariance_0,linear_acceleration_covariance_1,linear_acceleration_covariance_2,linear_acceleration_covariance_3,linear_acceleration_covariance_4,linear_acceleration_covariance_5,linear_acceleration_covariance_6,linear_acceleration_covariance_7,linear_acceleration_covariance_8
0.277,0,0,277000000,base_footprint,0.0002577166261044134,0.00030589148105820545,-0.7079541628450889,0.706258269560684,0.0,0.0,0.0,0.0,0.0,0.0,0.0,0.0,0.0,0.00027350684539177716,-0.06769419181682598,-0.00012731911188098357,0.0,0.0,0.0,0.0,0.0,0.0,0.0,0.0,0.0,1.9290021115303347e-05,7.197265656903759e-05,-0.03722012891501841,0.0,0.0,0.0,0.0,0.0,0.0,0.0,0.0,0.0
0.311,1,0,311000000,base_footprint,0.0010679680075815685,0.0011290553116406333,-0.7079536538104221,0.7062571831386292,0.0,0.0,0.0,0.0,0.0,0.0,0.0,0.0,0.0,0.0002798127408885631,-0.06776654995304149,-0.0002188895305052138,0.0,0.0,0.0,0.0,0.0,0.0,0.0,0.0,0.0,0.00026703970520348247,-0.00012570998883592723,0.00018874512840976184,0.0,0.0,0.0,0.0,0.0,0.0,0.0,0.0,0.0
0.34500000000000003,2,0,345000000,base_footprint,0.0018774011330941682,0.00195134308397635,-0.7079519030068939,0.7062554570791448,0.0,0.0,0.0,0.0,0.0,0.0,0.0,0.0,0.0,0.0002788391159575243,-0.06768979179023085,-0.00036378786981616703,0.0,0.0,0.0,0.0,0.0,0.0,0.0,0.0,0.0,0.00023337347679096472,-2.1003641137852337e-05,0.0001513203434883964,0.0,0.0,0.0,0.0,0.0,0.0,0.0,0.0,0.0
0.379,3,0,379000000,base_footprint,0.0026946628803391666,0.0027326514596260937,-0.7079507052003368,0.7062514215308225,0.0,0.0,0.0,0.0,0.0,0.0,0.0,0.0,0.0,-0.02524254102224972,-0.048729943142942406,-0.002082448500257792,0.0,0.0,0.0,0.0,0.0,0.0,0.0,0.0,0.0,-0.006458552664169786,-0.02322891386620296,0.06008561092184707,0.0,0.0,0.0,0.0,0.0,0.0,0.0,0.0,0.0
0.41300000000000003,4,0,413000000,base_footprint,0.0027261940638305675,0.002729857000943016,-0.7079567789969745,0.7062452228644875,0.0,0.0,0.0,0.0,0.0,0.0,0.0,0.0,0.0,-0.00025578128543404864,0.0022756165295401195,-0.00029535365336051504,0.0,0.0,0.0,0.0,0.0,0.0,0.0,0.0,0.0,0.005734016296505913,0.022804146330233505,0.07427736077702354,0.0,0.0,0.0,0.0,0.0,0.0,0.0,0.0,0.0
0.447,5,0,447000000,base_footprint,0.0027281945348855436,0.0027319371472556155,-0.7079560883745781,0.7062458993915434,0.0,0.0,0.0,0.0,0.0,0.0,0.0,0.0,0.0,-2.3624251168914188e-05,0.00014297537916811313,0.00022969761307220418,0.0,0.0,0.0,0.0,0.0,0.0,0.0,0.0,0.0,0.00021441640558640576,-0.0010309510353600437,-0.002314217149676178,0.0,0.0,0.0,0.0,0.0,0.0,0.0,0.0,0.0
0.48100000000000004,6,0,481000000,base_footprint,0.0027279655481817163,0.0027318238959226867,-0.707952926171018,0.706249070560849,0.0,0.0,0.0,0.0,0.0,0.0,0.0,0.0,0.0,-3.046352539272108e-05,0.0001823620427915711,0.00031604783556542687,0.0,0.0,0.0,0.0,0.0,0.0,0.0,0.0,0.0,2.2710743906397845e-05,-0.00016893868220427749,3.0546165622708814e-05,0.0,0.0,0.0,0.0,0.0,0.0,0.0,0.0,0.0
0.515,7,0,515000000,base_footprint,0.0027279036403863636,0.002731823890671248,-0.7079492176605355,0.7062527882378907,0.0,0.0,0.0,0.0,0.0,0.0,0.0,0.0,0.0,-3.143489506202162e-05,0.00017717730112717033,0.00033759739126029546,0.0,0.0,0.0,0.0,0.0,0.0,0.0,0.0,0.0,6.080784732401767e-06,-4.2417281751420396e-05,-8.441632545750504e-06,0.0,0.0,0.0,0.0,0.0,0.0,0.0,0.0,0.0
0.549,8,0,549000000,base_footprint,0.0027278732676293905,0.0027318378295131634,-0.7079453692978805,0.7062566458867461,0.0,0.0,0.0,0.0,0.0,0.0,0.0,0.0,0.0,-3.178201672409889e-05,0.0001762114516800069,0.00034326687526247605,0.0,0.0,0.0,0.0,0.0,0.0,0.0,0.0,0.0,1.5946332600534816e-06,-1.115521469787488e-05,-1.7593981304117644e-06,0.0,0.0,0.0,0.0,0.0,0.0,0.0,0.0,0.0
0.5830000000000001,9,0,583000000,base_footprint,0.0027278517456318847,0.0027318553233828197,-0.707941483871978,0.7062605405970858,0.0,0.0,0.0,0.0,0.0,0.0,0.0,0.0,0.0,-3.1900075428108424e-05,0.0001759466058563337,0.00034477844032303033,0.0,0.0,0.0,0.0,0.0,0.0,0.0,0.0,0.0,4.3264103472364214e-07,-2.9701941458867306e-06,-4.7033055726638727e-07,0.0,0.0,0.0,0.0,0.0,0.0,0.0,0.0,0.0
0.617,10,0,617000000,base_footprint,0.002727832807974702,0.002731873510815765,-0.7079375885049792,0.7062644452165544,0.0,0.0,0.0,0.0,0.0,0.0,0.0,0.0,0.0,-3.195598272342457e-05,0.0001758760497938888,0.00034519077701244613,0.0,0.0,0.0,0.0,0.0,0.0,0.0,0.0,0.0,1.2511366520443002e-07,-8.062221114510913e-07,-1.2038356516209358e-07,0.0,0.0,0.0,0.0,0.0,0.0,0.0,0.0,0.0
0.651,11,0,651000000,base_footprint,0.002727814777879744,0.002731891660494357,-0.7079336903689982,0.7062683525651028,0.0,0.0,0.0,0.0,0.0,0.0,0.0,0.0,0.0,-3.1993630134971454e-05,0.00017585668175309837,0.00034531245140834025,0.0,0.0,0.0,0.0,0.0,0.0,0.0,0.0,0.0,4.3784124511361364e-08,-2.3397703195019265e-07,-2.8557101444596323e-08,0.0,0.0,0.0,0.0,0.0,0.0,0.0,0.0,0.0
0.685,12,0,685000000,base_footprint,0.0027277971910715402,0.0027319095996123093,-0.7079297913605361,0.7062722607441495,0.0,0.0,0.0,0.0,0.0,0.0,0.0,0.0,0.0,-3.202479864330407e-05,0.0001758508570155679,0.0003453572722419949,0.0,0.0,0.0,0.0,0.0,0.0,0.0,0.0,0.0,2.227156359012363e-08,-8.263276182048958e-08,-4.725130012653639e-09,0.0,0.0,0.0,0.0,0.0,0.0,0.0,0.0,0.0
0.7190000000000001,13,0,719000000,base_footprint,0.0027277799058554896,0.0027319273011510133,-0.7079258919811044,0.706276169251635,0.0,0.0,0.0,0.0,0.0,0.0,0.0,0.0,0.0,-3.205275643280104e-05,0.00017584861744554883,0.0003453817744500159,0.0,0.0,0.0,0.0,0.0,0.0,0.0,0.0,0.0,1.657880973310167e-08,-4.25855365464365e-08,1.1661329289095741e-09,0.0,0.0,0.0,0.0,0.0,0.0,0.0,0.0,0.0
0.753,14,0,753000000,base_footprint,0.0027277628675897157,0.0027319447749047914,-0.7079219923633477,0.7062800779547682,0.0,0.0,0.0,0.0,0.0,0.0,0.0,0.0,0.0,-3.207850689899988e-05,0.0001758473296727163,0.00034540090671337435,0.0,0.0,0.0,0.0,0.0,0.0,0.0,0.0,0.0,1.50702119827853e-08,-3.196999463020259e-08,2.351605702919501e-09,0.0,0.0,0.0,0.0,0.0,0.0,0.0,0.0,0.0
0.787,15,0,787000000,base_footprint,0.0027277460462457256,0.002731962038828509,-0.7079180925423707,0.7062839868184022,0.0,0.0,0.0,0.0,0.0,0.0,0.0,0.0,0.0,-3.210244135008991e-05,0.00017584629708130146,0.0003454186213980413,0.0,0.0,0.0,0.0,0.0,0.0,0.0,0.0,0.0,1.4668533605260426e-08,-2.913891782049597e-08,2.327541607003792e-09,0.0,0.0,0.0,0.0,0.0,0.0,0.0,0.0,0.0
0.8210000000000001,16,0,821000000,base_footprint,0.0027277294197502124,0.0027319791116069644,-0.7079141925274841,0.7062878958332124,0.0,0.0,0.0,0.0,0.0,0.0,0.0,0.0,0.0,-3.2124777891172313e-05,0.00017584533511327328,0.00034543596343124673,0.0,0.0,0.0,0.0,0.0,0.0,0.0,0.0,0.0,1.4559984265619478e-08,-2.8368511611198464e-08,2.0148327081523834e-09,0.0,0.0,0.0,0.0,0.0,0.0,0.0,0.0,0.0
0.8550000000000001,17,0,855000000,base_footprint,0.0027277129694459486,0.002731996010823453,-0.7079102923211738,0.7062918049967051,0.0,0.0,0.0,0.0,0.0,0.0,0.0,0.0,0.0,-3.214567790062287e-05,0.00017584439470873947,0.0003454532089709935,0.0,0.0,0.0,0.0,0.0,0.0,0.0,0.0,0.0,1.4529310981348947e-08,-2.814507421942828e-08,1.6544009776499288e-09,0.0,0.0,0.0,0.0,0.0,0.0,0.0,0.0,0.0
0.889,18,0,889000000,base_footprint,0.0027276966787701607,0.002732012752595359,-0.7079063919241191,0.7062957143081954,0.0,0.0,0.0,0.0,0.0,0.0,0.0,0.0,0.0,-3.216527846370709e-05,0.0001758434626027592,0.0003454704309280572,0.0,0.0,0.0,0.0,0.0,0.0,0.0,0.0,0.0,1.4519560223180717e-08,-2.806820683843603e-08,1.3071282449111163e-09,0.0,0.0,0.0,0.0,0.0,0.0,0.0,0.0,0.0
0.923,19,0,923000000,base_footprint,0.0027276805327938387,0.002732029351587072,-0.7079024913365181,0.7062996237674802,0.0,0.0,0.0,0.0,0.0,0.0,0.0,0.0,0.0,-3.2183701160934326e-05,0.00017584253508776945,0.00034548764850867125,0.0,0.0,0.0,0.0,0.0,0.0,0.0,0.0,0.0,1.4515645959951803e-08,-2.8031897647434265e-08,9.866260310250714e-10,0.0,0.0,0.0,0.0,0.0,0.0,0.0,0.0,0.0
0.9570000000000001,20,0,957000000,base_footprint,0.0027276645180001496,0.0027320458211125107,-0.7078985905584398,0.7063035333744856,0.0,0.0,0.0,0.0,0.0,0.0,0.0,0.0,0.0,-3.220105556640655e-05,0.00017584161098719637,0.0003455048666208602,0.0,0.0,0.0,0.0,0.0,0.0,0.0,0.0,0.0,1.4513521461957025e-08,-2.8007745596401407e-08,6.944763786617948e-10,0.0,0.0,0.0,0.0,0.0,0.0,0.0,0.0,0.0
0.9910000000000001,21,0,991000000,base_footprint,0.0027276486221344074,0.002732062173251777,-0.7078946895899159,0.7063074431291747,0.0,0.0,0.0,0.0,0.0,0.0,0.0,0.0,0.0,-3.221744114820985e-05,0.00017584068971836938,0.0003455220864306388,0.0,0.0,0.0,0.0,0.0,0.0,0.0,0.0,0.0,1.4512101842730761e-08,-2.7988163975843935e-08,4.2911028253194933e-10,0.0,0.0,0.0,0.0,0.0,0.0,0.0,0.0,0.0
1.025,22,1,25000000,base_footprint,0.0027276328340819413,0.0027320784189636144,-0.7078907884309669,0.7063113530315219,0.0,0.0,0.0,0.0,0.0,0.0,0.0,0.0,0.0,-3.2232947901125796e-05,0.0001758397709484702,0.000345539308304819,0.0,0.0,0.0,0.0,0.0,0.0,0.0,0.0,0.0,1.4511127517832071e-08,-2.7971355808748732e-08,1.881436629209732e-10,0.0,0.0,0.0,0.0,0.0,0.0,0.0,0.0,0.0
1.059,23,1,59000000,base_footprint,0.0027276171437609635,0.0027320945681887396,-0.7078868870816077,0.7063152630815073,0.0,0.0,0.0,0.0,0.0,0.0,0.0,0.0,0.0,-3.22476575109564e-05,0.00017583885450905,0.00034555653211751944,0.0,0.0,0.0,0.0,0.0,0.0,0.0,0.0,0.0,1.4510424892066825e-08,-2.7956168105846123e-08,-3.036402048772165e-11,0.0,0.0,0.0,0.0,0.0,0.0,0.0,0.0,0.0
1.093,24,1,93000000,base_footprint,0.0027276015420265886,0.0027321106299447624,-0.7078829855418509,0.7063191732791129,0.0,0.0,0.0,0.0,0.0,0.0,0.0,0.0,0.0,-3.2261644013041756e-05,0.0001758379400566253,0.0003455737578878064,0.0,0.0,0.0,0.0,0.0,0.0,0.0,0.0,0.0,1.4510012798855936e-08,-2.7942708439006887e-08,-2.286468399317787e-10,0.0,0.0,0.0,0.0,0.0,0.0,0.0,0.0,0.0
1.127,25,1,127000000,base_footprint,0.0027275860205830537,0.002732126612411385,-0.7078790838117057,0.7063230836243244,0.0,0.0,0.0,0.0,0.0,0.0,0.0,0.0,0.0,-3.2274974650439576e-05,0.00017583702747923731,0.0003455909854971989,0.0,0.0,0.0,0.0,0.0,0.0,0.0,0.0,0.0,1.4509819233430729e-08,-2.7930551504203786e-08,-4.086434328206635e-10,0.0,0.0,0.0,0.0,0.0,0.0,0.0,0.0,0.0
1.161,26,1,161000000,base_footprint,0.0027275705719053407,0.0027321425230083804,-0.70787518189118,0.7063269941171286,0.0,0.0,0.0,0.0,0.0,0.0,0.0,0.0,0.0,-3.228771032394383e-05,0.00017583611666922567,0.00034560821483875775,0.0,0.0,0.0,0.0,0.0,0.0,0.0,0.0,0.0,1.4509824474728862e-08,-2.791957566257445e-08,-5.717889829342055e-10,0.0,0.0,0.0,0.0,0.0,0.0,0.0,0.0,0.0
1.195,27,1,195000000,base_footprint,0.0027275551891674816,0.0027321583684664923,-0.7078712797802795,0.7063309047575144,0.0,0.0,0.0,0.0,0.0,0.0,0.0,0.0,0.0,-3.2299906400917765e-05,0.0001758352072396742,0.00034562544586238934,0.0,0.0,0.0,0.0,0.0,0.0,0.0,0.0,0.0,1.4510032088851138e-08,-2.7909768919770362e-08,-7.199613646699862e-10,0.0,0.0,0.0,0.0,0.0,0.0,0.0,0.0,0.0
1.229,28,1,229000000,base_footprint,0.0027275398661774364,0.0027321741548908406,-0.7078673774790086,0.7063348155454725,0.0,0.0,0.0,0.0,0.0,0.0,0.0,0.0,0.0,-3.2311612958375025e-05,0.0001758342991514823,0.0003456426785211743,0.0,0.0,0.0,0.0,0.0,0.0,0.0,0.0,0.0,1.4510412977309524e-08,-2.790101216772561e-08,-8.543440389959812e-10,0.0,0.0,0.0,0.0,0.0,0.0,0.0,0.0,0.0
1.263,29,1,263000000,base_footprint,0.0027275245973183183,0.002732189887819624,-0.7078634749873697,0.7063387264809947,0.0,0.0,0.0,0.0,0.0,0.0,0.0,0.0,0.0,-3.2322875581049254e-05,0.00017583339238561708,0.0003456599127613105,0.0,0.0,0.0,0.0,0.0,0.0,0.0,0.0,0.0,1.4510947576489902e-08,-2.7893189468293505e-08,-9.76249608287396e-10,0.0,0.0,0.0,0.0,0.0,0.0,0.0,0.0,0.0
1.2970000000000002,30,1,297000000,base_footprint,0.0027275093774950824,0.0027322055722764464,-0.707859572305364,0.7063426375640746,0.0,0.0,0.0,0.0,0.0,0.0,0.0,0.0,0.0,-3.2333735452488464e-05,0.00017583248668443538,0.0003456771484757639,0.0,0.0,0.0,0.0,0.0,0.0,0.0,0.0,0.0,1.4511611938643938e-08,-2.7886101676877016e-08,-1.08675964874431e-09,0.0,0.0,0.0,0.0,0.0,0.0,0.0,0.0,0.0
1.331,31,1,331000000,base_footprint,0.0027227670661042753,0.002727153134570004,-0.7078558175423232,0.706346438192176,0.0,0.0,0.0,0.0,0.0,0.0,0.0,0.0,0.0,-6.45614839291412e-05,-0.002346941360599448,0.00013116441106589694,0.0,0.0,0.0,0.0,0.0,0.0,0.0,0.0,0.0,-0.15461574279917284,0.0007334337977091265,-0.0029145936481315424,0.0,0.0,0.0,0.0,0.0,0.0,0.0,0.0,0.0
1.365,32,1,365000000,base_footprint,0.002724827861574945,0.002729231517933142,-0.7078588613865197,0.706343371856087,0.0,0.0,0.0,0.0,0.0,0.0,0.0,0.0,0.0,6.181003189375265e-06,-0.0009288693715044029,-0.0007826132487684814,0.0,0.0,0.0,0.0,0.0,0.0,0.0,0.0,0.0,-0.7872285426162164,0.003471555357042022,0.0017052119682454993,0.0,0.0,0.0,0.0,0.0,0.0,0.0,0.0,0.0
1.399,33,1,399000000,base_footprint,0.002725253018560003,0.0027296237110370804,-0.7078730763461154,0.7063291229552041,0.0,0.0,0.0,0.0,0.0,0.0,0.0,0.0,0.0,8.03010567255796e-06,-0.001009754270483559,-0.001713131078809865,0.0,0.0,0.0,0.0,0.0,0.0,0.0,0.0,0.0,-0.7864727128458175,0.0035236154666544728,-9.002458195098281e-05,0.0,0.0,0.0,0.0,0.0,0.0,0.0,0.0,0.0
1.433,34,1,433000000,base_footprint,0.002726036227440149,0.0027303505237044625,-0.7078989746186023,0.7063031612887175,0.0,0.0,0.0,0.0,0.0,0.0,0.0,0.0,0.0,7.590763359772122e-06,-0.0002574618100581811,-0.002640470827616744,0.0,0.0,0.0,0.0,0.0,0.0,0.0,0.0,0.0,-0.7845361510278297,0.003575860052706048,0.0008609051224402462,0.0,0.0,0.0,0.0,0.0,0.0,0.0,0.0,0.0
1.467,35,1,467000000,base_footprint,0.002726926934286238,0.002731107395789493,-0.7079378894509579,0.7062641500186818,0.0,0.0,0.0,0.0,0.0,0.0,0.0,0.0,0.0,-6.042343062599183e-06,0.00037984446878128056,-0.0037306420405198324,0.0,0.0,0.0,0.0,0.0,0.0,0.0,0.0,0.0,-0.767540358159996,0.003937393610834894,0.0007165048747569262,0.0,0.0,0.0,0.0,0.0,0.0,0.0,0.0,0.0
1.501,36,1,501000000,base_footprint,0.002728337762356758,0.0027322800382354757,-0.7079917231559375,0.7062101746375039,0.0,0.0,0.0,0.0,0.0,0.0,0.0,0.0,0.0,-2.9150146644372078e-06,0.0003282444510928781,-0.005085545506345023,0.0,0.0,0.0,0.0,0.0,0.0,0.0,0.0,0.0,-0.7240520885079225,0.004455072925906911,-4.057146575101207e-05,0.0,0.0,0.0,0.0,0.0,0.0,0.0,0.0,0.0
1.5350000000000001,37,1,535000000,base_footprint,0.002729577536226086,0.0027331900542151913,-0.7080623882097002,0.706139315915335,0.0,0.0,0.0,0.0,0.0,0.0,0.0,0.0,0.0,-2.0332572696959782e-05,0.0004649155000599859,-0.006555358415452047,0.0,0.0,0.0,0.0,0.0,0.0,0.0,0.0,0.0,-0.6434244688018154,0.00460487348758104,0.00015922244576762321,0.0,0.0,0.0,0.0,0.0,0.0,0.0,0.0,0.0
1.569,38,1,569000000,base_footprint,0.0027312353332945996,0.002734489293854781,-0.7081505323639462,0.7060509092370858,0.0,0.0,0.0,0.0,0.0,0.0,0.0,0.0,0.0,-2.5256914363479223e-05,0.00010505818478615465,-0.008024032378461379,0.0,0.0,0.0,0.0,0.0,0.0,0.0,0.0,0.0,-0.5139307247386683,0.004376406224447571,-0.00039003737874423485,0.0,0.0,0.0,0.0,0.0,0.0,0.0,0.0,0.0
1.6030000000000002,39,1,603000000,base_footprint,0.002733215741891345,0.00273602101064642,-0.7082571469373099,0.7059439478690638,0.0,0.0,0.0,0.0,0.0,0.0,0.0,0.0,0.0,-2.3734739741618967e-05,0.00019304534774464984,-0.010080676814848805,0.0,0.0,0.0,0.0,0.0,0.0,0.0,0.0,0.0,-0.3442348325287462,0.005120792128759821,0.0001849905758770688,0.0,0.0,0.0,0.0,0.0,0.0,0.0,0.0,0.0
1.637,40,1,637000000,base_footprint,0.00273241992517476,0.002734814108280983,-0.7084071176519057,0.7057934615262915,0.0,0.0,0.0,0.0,0.0,0.0,0.0,0.0,0.0,4.053365338439074e-05,0.00047904650873902867,-0.014932066417392259,0.0,0.0,0.0,0.0,0.0,0.0,0.0,0.0,0.0,-0.14456702499981022,0.009954469020025752,0.0005387581944266453,0.0,0.0,0.0,0.0,0.0,0.0,0.0,0.0,0.0
1.671,41,1,671000000,base_footprint,0.0027215083384340383,0.0027120143850962912,-0.7085987426048017,0.7056012048949696,0.0,0.0,0.0,0.0,0.0,0.0,0.0,0.0,0.0,0.0045483692994974356,0.004069203723539878,-0.014027879754044889,0.0,0.0,0.0,0.0,0.0,0.0,0.0,0.0,0.0,0.006076516406228116,-0.001633292046792034,0.0057770244348156075,0.0,0.0,0.0,0.0,0.0,0.0,0.0,0.0,0.0
1.705,42,1,705000000,base_footprint,0.0027261731109163075,0.002721786931381388,-0.7087105352817056,0.7054888638644751,0.0,0.0,0.0,0.0,0.0,0.0,0.0,0.0,0.0,-3.940125017515968e-05,0.0002144768342328947,-0.01152555770917034,0.0,0.0,0.0,0.0,0.0,0.0,0.0,0.0,0.0,-0.12950895281923866,-0.004411867164448968,-0.006551254978341383,0.0,0.0,0.0,0.0,0.0,0.0,0.0,0.0,0.0
1.739,43,1,739000000,base_footprint,0.002726931727072355,0.002721466539694348,-0.7088729692137732,0.7053256488894178,0.0,0.0,0.0,0.0,0.0,0.0,0.0,0.0,0.0,-2.1523651034902383e-05,0.00035955322425935304,-0.015221895331227083,0.0,0.0,0.0,0.0,0.0,0.0,0.0,0.0,0.0,-0.3023872678887925,0.008698342279839483,0.00038877216857271764,0.0,0.0,0.0,0.0,0.0,0.0,0.0,0.0,0.0
1.7730000000000001,44,1,773000000,base_footprint,0.0027358479461053594,0.0027226297924342158,-0.7091675490114187,0.7050294248130119,0.0,0.0,0.0,0.0,0.0,0.0,0.0,0.0,0.0,0.001694631091632129,-0.0012511299042734026,-0.057496526675685965,0.0,0.0,0.0,0.0,0.0,0.0,0.0,0.0,0.0,-0.37399465880519506,0.009454951647612564,-0.004071473748069856,0.0,0.0,0.0,0.0,0.0,0.0,0.0,0.0,0.0
1.807,45,1,807000000,base_footprint,0.0027389178184882013,0.0027272124435919914,-0.7099230977742034,0.7042685964091754,0.0,0.0,0.0,0.0,0.0,0.0,0.0,0.0,0.0,-6.461100068915371e-05,0.0008982514627571083,-0.06347407836770219,0.0,0.0,0.0,0.0,0.0,0.0,0.0,0.0,0.0,-0.025063438430580835,0.013744928896310748,0.004636578358161735,0.0,0.0,0.0,0.0,0.0,0.0,0.0,0.0,0.0
1.8410000000000002,46,1,841000000,base_footprint,0.002736264791425819,0.0027187538821949013,-0.7106836316753149,0.7035011705044311,0.0,0.0,0.0,0.0,0.0,0.0,0.0,0.0,0.0,2.1320861318341214e-05,0.0019392417216664213,-0.06720190778010082,0.0,0.0,0.0,0.0,0.0,0.0,0.0,0.0,0.0,0.33438799281468834,0.012226511638184723,0.0005160710838058647,0.0,0.0,0.0,0.0,0.0,0.0,0.0,0.0,0.0
1.875,47,1,875000000,base_footprint,0.0027423357495157306,0.0027179941394777783,-0.7115104798882372,0.7026648768166125,0.0,0.0,0.0,0.0,0.0,0.0,0.0,0.0,0.0,-3.358611254352479e-05,0.0007485099622991692,-0.07097713175456392,0.0,0.0,0.0,0.0,0.0,0.0,0.0,0.0,0.0,-0.006308432274674781,0.009525830228257634,-0.0007035128203327209,0.0,0.0,0.0,0.0,0.0,0.0,0.0,0.0,0.0
1.909,48,1,909000000,base_footprint,0.002745508131660648,0.002715018190984869,-0.7123604357896111,0.7018031778091042,0.0,0.0,0.0,0.0,0.0,0.0,0.0,0.0,0.0,-1.0844170193128125e-05,0.0006973081605592839,-0.07146718144472244,0.0,0.0,0.0,0.0,0.0,0.0,0.0,0.0,0.0,-0.005176927448281602,0.01501794320207337,-2.951549938678666e-05,0.0,0.0,0.0,0.0,0.0,0.0,0.0,0.0,0.0
1.943,49,1,943000000,base_footprint,0.0027500159285394313,0.0027156230433950535,-0.7130460027675579,0.7011065972739714,0.0,0.0,0.0,0.0,0.0,0.0,0.0,0.0,0.0,-1.9510220375768396e-05,0.0005575988482125872,-0.04483185900804537,0.0,0.0,0.0,0.0,0.0,0.0,0.0,0.0,0.0,0.0023664840401754076,0.013536864836744468,0.0001858907586778736,0.0,0.0,0.0,0.0,0.0,0.0,0.0,0.0,0.0
1.977,50,1,977000000,base_footprint,0.0027534135507528605,0.0027163471369560706,-0.7135845584178178,0.700558433080138,0.0,0.0,0.0,0.0,0.0,0.0,0.0,0.0,0.0,5.712547382579857e-05,0.00031721853232892245,-0.04538905877915901,0.0,0.0,0.0,0.0,0.0,0.0,0.0,0.0,0.0,-0.004889344116616317,0.008640791159288322,-0.00042378661622710255,0.0,0.0,0.0,0.0,0.0,0.0,0.0,0.0,0.0
2.011,51,2,11000000,base_footprint,0.0027581487671910643,0.0027177303480583653,-0.7141255485516059,0.7000069338678021,0.0,0.0,0.0,0.0,0.0,0.0,0.0,0.0,0.0,4.900351977448595e-05,0.00029948036225250585,-0.045350601414091814,0.0,0.0,0.0,0.0,0.0,0.0,0.0,0.0,0.0,-0.003366661326397527,0.01019721474232979,-7.969357698577698e-05,0.0,0.0,0.0,0.0,0.0,0.0,0.0,0.0,0.0
2.045,52,2,45000000,base_footprint,0.0027558058485657026,0.002710773986713788,-0.7147158546662258,0.6994042495776277,0.0,0.0,0.0,0.0,0.0,0.0,0.0,0.0,0.0,0.0006993184267656075,0.0014529821612905142,-0.059939006066573,0.0,0.0,0.0,0.0,0.0,0.0,0.0,0.0,0.0,-0.30696593686758306,0.023215142903996094,0.002109236647054127,0.0,0.0,0.0,0.0,0.0,0.0,0.0,0.0,0.0
2.079,53,2,79000000,base_footprint,0.0027681622977601575,0.002717792558615056,-0.7153932467765128,0.698711280392453,0.0,0.0,0.0,0.0,0.0,0.0,0.0,0.0,0.0,-0.00027207719722028266,0.0010290942951281434,-0.046949322619413335,0.0,0.0,0.0,0.0,0.0,0.0,0.0,0.0,0.0,-0.02351032823492738,0.014520261329388991,-0.0006938342284851188,0.0,0.0,0.0,0.0,0.0,0.0,0.0,0.0,0.0
2.113,54,2,113000000,base_footprint,0.0027699594308865584,0.002712818611611571,-0.7159715803342572,0.6981186604679737,0.0,0.0,0.0,0.0,0.0,0.0,0.0,0.0,0.0,-0.00020555175302555776,0.0006491781768655354,-0.049506798633427274,0.0,0.0,0.0,0.0,0.0,0.0,0.0,0.0,0.0,0.0011767417488077335,0.008433607202558325,-0.0005762076326236983,0.0,0.0,0.0,0.0,0.0,0.0,0.0,0.0,0.0
2.1470000000000002,55,2,147000000,base_footprint,0.0027670527346367896,0.002708217172727104,-0.7165996401480529,0.6974739885605701,0.0,0.0,0.0,0.0,0.0,0.0,0.0,0.0,0.0,0.0005071883305234856,0.0010118042810742032,-0.05774007490508922,0.0,0.0,0.0,0.0,0.0,0.0,0.0,0.0,0.0,0.03892582851101733,0.002875117566719626,0.0005043070729996915,0.0,0.0,0.0,0.0,0.0,0.0,0.0,0.0,0.0
2.181,56,2,181000000,base_footprint,0.002768212032836615,0.0027080121828759523,-0.7174343312183813,0.6966153774224285,0.0,0.0,0.0,0.0,0.0,0.0,0.0,0.0,0.0,0.0006830116831968236,0.001059581380516086,-0.07317491687955671,0.0,0.0,0.0,0.0,0.0,0.0,0.0,0.0,0.0,0.048543027761525345,0.020094695553103135,0.0004187929061967162,0.0,0.0,0.0,0.0,0.0,0.0,0.0,0.0,0.0
2.215,57,2,215000000,base_footprint,0.002774825156566815,0.002703221612750828,-0.7181891869790136,0.6958371107124758,0.0,0.0,0.0,0.0,0.0,0.0,0.0,0.0,0.0,-0.0007860147743008665,-0.00034957464066204063,-0.05020572472493009,0.0,0.0,0.0,0.0,0.0,0.0,0.0,0.0,0.0,-0.05884946692537961,0.01936163620092195,-0.0020033901715740604,0.0,0.0,0.0,0.0,0.0,0.0,0.0,0.0,0.0
2.249,58,2,249000000,base_footprint,0.0027744491313470353,0.00269858005953366,-0.7187361772718457,0.6952721248391409,0.0,0.0,0.0,0.0,0.0,0.0,0.0,0.0,0.0,-5.868969954111967e-05,0.000553236440597752,-0.04406853840183019,0.0,0.0,0.0,0.0,0.0,0.0,0.0,0.0,0.0,0.0017114773852394943,0.008492746208044317,0.0014094857775171694,0.0,0.0,0.0,0.0,0.0,0.0,0.0,0.0,0.0
2.283,59,2,283000000,base_footprint,0.0027749938525295573,0.0026933362659071224,-0.7192506920810022,0.6947398702319283,0.0,0.0,0.0,0.0,0.0,0.0,0.0,0.0,0.0,-6.839989530983351e-05,0.000694220363625184,-0.043643279926937784,0.0,0.0,0.0,0.0,0.0,0.0,0.0,0.0,0.0,-0.005176901366522737,0.00996800745936946,0.0005899742799691085,0.0,0.0,0.0,0.0,0.0,0.0,0.0,0.0,0.0
2.317,60,2,317000000,base_footprint,0.002774633109887904,0.0026891434555016023,-0.7197681353659408,0.6942037894094343,0.0,0.0,0.0,0.0,0.0,0.0,0.0,0.0,0.0,-4.2577131110443055e-06,0.0006499199334522802,-0.043980148868969324,0.0,0.0,0.0,0.0,0.0,0.0,0.0,0.0,0.0,-0.004776625201859464,0.010038937810508653,-8.539755088393285e-06,0.0,0.0,0.0,0.0,0.0,0.0,0.0,0.0,0.0
2.351,61,2,351000000,base_footprint,0.0027751920533395876,0.0026865639107032653,-0.7202194466008347,0.6937355615949122,0.0,0.0,0.0,0.0,0.0,0.0,0.0,0.0,0.0,3.408207075610123e-06,0.0005207649671177951,-0.03665292684961597,0.0,0.0,0.0,0.0,0.0,0.0,0.0,0.0,0.0,-0.0029987450614617803,0.00876597404813303,-8.697251942461861e-05,0.0,0.0,0.0,0.0,0.0,0.0,0.0,0.0,0.0
2.385,62,2,385000000,base_footprint,0.0027767374681277953,0.002685319642487525,-0.7206536023542693,0.6932845477877505,0.0,0.0,0.0,0.0,0.0,0.0,0.0,0.0,0.0,1.4043016615724842e-05,0.00042783698215550017,-0.03699611239682202,0.0,0.0,0.0,0.0,0.0,0.0,0.0,0.0,0.0,-0.0049763235055423575,0.008639309536500125,-0.00011627572357484114,0.0,0.0,0.0,0.0,0.0,0.0,0.0,0.0,0.0
2.419,63,2,419000000,base_footprint,0.0027792120338874823,0.0026853580621736214,-0.7210914559285337,0.6928291109786137,0.0,0.0,0.0,0.0,0.0,0.0,0.0,0.0,0.0,3.667133504563933e-05,0.00033916086593899556,-0.037327912087535525,0.0,0.0,0.0,0.0,0.0,0.0,0.0,0.0,0.0,-0.004853779174387329,0.008735269948551328,-0.00013324426611924413,0.0,0.0,0.0,0.0,0.0,0.0,0.0,0.0,0.0
2.453,64,2,453000000,base_footprint,0.0027819975961829017,0.002687492290387643,-0.7213775879406616,0.6925311642745596,0.0,0.0,0.0,0.0,0.0,0.0,0.0,0.0,0.0,6.331087984021386e-05,8.955547021011793e-05,-0.021685110942606736,0.0,0.0,0.0,0.0,0.0,0.0,0.0,0.0,0.0,-0.0005181716031503005,0.005679366953116236,-0.00024168554300705507,0.0,0.0,0.0,0.0,0.0,0.0,0.0,0.0,0.0
2.487,65,2,487000000,base_footprint,0.0027860546874718954,0.0026903411299156496,-0.7216322712075826,0.6922657474667293,0.0,0.0,0.0,0.0,0.0,0.0,0.0,0.0,0.0,3.542046990321016e-05,9.195907466999835e-05,-0.021431282412693597,0.0,0.0,0.0,0.0,0.0,0.0,0.0,0.0,0.0,-0.0032390329505274894,0.005788504046767795,-6.911630038869621e-05,0.0,0.0,0.0,0.0,0.0,0.0,0.0,0.0,0.0
2.521,66,2,521000000,base_footprint,0.0027897076898118598,0.0026915077922283924,-0.7218779344034957,0.6920095527795497,0.0,0.0,0.0,0.0,0.0,0.0,0.0,0.0,0.0,-6.008305625728105e-06,0.00013937303330101332,-0.020182416263998477,0.0,0.0,0.0,0.0,0.0,0.0,0.0,0.0,0.0,0.0011094988571951304,0.005026535721660929,3.504159781537345e-05,0.0,0.0,0.0,0.0,0.0,0.0,0.0,0.0,0.0
2.555,67,2,555000000,base_footprint,0.0027977692914316244,0.0026888093182160875,-0.7225380529325358,0.6913202621476549,0.0,0.0,0.0,0.0,0.0,0.0,0.0,0.0,0.0,-0.001090009985817028,-0.0012307053727063021,-0.09300298101244397,0.0,0.0,0.0,0.0,0.0,0.0,0.0,0.0,0.0,0.3319587926669415,-0.012934677761428426,-0.0033280739713204676,0.0,0.0,0.0,0.0,0.0,0.0,0.0,0.0,0.0
2.589,68,2,589000000,base_footprint,0.00280198571482015,0.0026900465497040086,-0.7231392123885567,0.6906913869679224,0.0,0.0,0.0,0.0,0.0,0.0,0.0,0.0,0.0,-0.00028454198159300547,0.0001554711850581367,-0.03839132425642601,0.0,0.0,0.0,0.0,0.0,0.0,0.0,0.0,0.0,0.0003109284481751925,0.008864364896585666,0.0031496568026096873,0.0,0.0,0.0,0.0,0.0,0.0,0.0,0.0,0.0
2.623,69,2,623000000,base_footprint,0.002793752351356319,0.002679324312696638,-0.7235905609609682,0.6902186003413833,0.0,0.0,0.0,0.0,0.0,0.0,0.0,0.0,0.0,0.0003889749594734544,0.0012349979241261058,-0.028606897700686165,0.0,0.0,0.0,0.0,0.0,0.0,0.0,0.0,0.0,0.044698576942471424,-0.008752221072392541,0.0021989368415771503,0.0,0.0,0.0,0.0,0.0,0.0,0.0,0.0,0.0
2.657,70,2,657000000,base_footprint,0.0027950005454748916,0.0026812238811432625,-0.7240190779921849,0.6897690727437674,0.0,0.0,0.0,0.0,0.0,0.0,0.0,0.0,0.0,-0.0012141697697496943,0.0013936014467550051,-0.04582236861711267,0.0,0.0,0.0,0.0,0.0,0.0,0.0,0.0,0.0,0.06881421710138039,0.009020245522411666,-0.0015462172240578154,0.0,0.0,0.0,0.0,0.0,0.0,0.0,0.0,0.0
2.691,71,2,691000000,base_footprint,0.002790413679650663,0.0026738885666709794,-0.7244975258447498,0.689266565964334,0.0,0.0,0.0,0.0,0.0,0.0,0.0,0.0,0.0,-0.0012317236531712433,-6.980690153142661e-05,-0.030565419397619656,0.0,0.0,0.0,0.0,0.0,0.0,0.0,0.0,0.0,-0.034391612416594,0.013337458146206635,-0.0016139142883907034,0.0,0.0,0.0,0.0,0.0,0.0,0.0,0.0,0.0
2.725,72,2,725000000,base_footprint,0.002794570075800144,0.002670135208489503,-0.7247383193428696,0.6890133737687048,0.0,0.0,0.0,0.0,0.0,0.0,0.0,0.0,0.0,-0.00014890810320746916,0.003518179395503958,-0.02169005539244718,0.0,0.0,0.0,0.0,0.0,0.0,0.0,0.0,0.0,-0.0482911888701988,0.007985978730691557,0.005643490892199949,0.0,0.0,0.0,0.0,0.0,0.0,0.0,0.0,0.0
2.759,73,2,759000000,base_footprint,0.002796659893401356,0.0026700078881454715,-0.7254900238419096,0.6882218211137914,0.0,0.0,0.0,0.0,0.0,0.0,0.0,0.0,0.0,0.002384748186932484,0.0007025108382531396,-0.057436771292586855,0.0,0.0,0.0,0.0,0.0,0.0,0.0,0.0,0.0,-0.31800886312121746,0.04673846022061051,-0.0015882298924819085,0.0,0.0,0.0,0.0,0.0,0.0,0.0,0.0,0.0
2.793,74,2,793000000,base_footprint,0.0027969402752659736,0.002665606352253692,-0.7257552760187334,0.6879421131162445,0.0,0.0,0.0,0.0,0.0,0.0,0.0,0.0,0.0,0.00010785729553426437,0.0004457784883652114,-0.02136341678009595,0.0,0.0,0.0,0.0,0.0,0.0,0.0,0.0,0.0,-0.012190440377636703,0.007313674734927875,-0.0016629936319921385,0.0,0.0,0.0,0.0,0.0,0.0,0.0,0.0,0.0
2.827,75,2,827000000,base_footprint,0.002796285728816258,0.0026641768164226594,-0.7259980178041653,0.6876859465573196,0.0,0.0,0.0,0.0,0.0,0.0,0.0,0.0,0.0,-0.00011080402216907524,0.0003045016756686664,-0.011915190235417056,0.0,0.0,0.0,0.0,0.0,0.0,0.0,0.0,0.0,-0.003600728035094982,0.004371163735740967,-0.000394119843542528,0.0,0.0,0.0,0.0,0.0,0.0,0.0,0.0,0.0
2.861,76,2,861000000,base_footprint,0.002796575753074988,0.002664065814921384,-0.7261146738933943,0.6875627696974879,0.0,0.0,0.0,0.0,0.0,0.0,0.0,0.0,0.0,0.00011122024460070943,0.00019016652326722517,-0.010159281448075753,0.0,0.0,0.0,0.0,0.0,0.0,0.0,0.0,0.0,-0.003575955506808541,0.0034144060291036132,0.00017238528202585026,0.0,0.0,0.0,0.0,0.0,0.0,0.0,0.0,0.0
2.891,77,2,895000000,base_footprint,0.002797691787883648,0.0026649296081609005,-0.7262340345651059,0.6874366866193078,0.0,0.0,0.0,0.0,0.0,0.0,0.0,0.0,0.0,0.00011338531333172016,0.00011287245703190257,-0.010295764578271822,0.0,0.0,0.0,0.0,0.0,0.0,0.0,0.0,0.0,-0.005148540150874709,0.002958681025540153,-0.00014344161239971163,0.0,0.0,0.0,0.0,0.0,0.0,0.0,0.0,0.0
2.9290000000000003,78,2,929000000,base_footprint,0.0027996072479099508,0.0026675806755792554,-0.7263440311321486,0.6873204453901376,0.0,0.0,0.0,0.0,0.0,0.0,0.0,0.0,0.0,0.0003210316759968845,-0.00029836574226509654,-0.0019554417009993936,0.0,0.0,0.0,0.0,0.0,0.0,0.0,0.0,0.0,-0.0031504575086965013,0.002490402902419441,-0.0004543659329046161,0.0,0.0,0.0,0.0,0.0,0.0,0.0,0.0,0.0
2.963,79,2,963000000,base_footprint,0.0028026285615581426,0.0026708173782588763,-0.7263655067223604,0.6872977248992219,0.0,0.0,0.0,0.0,0.0,0.0,0.0,0.0,0.0,0.0001209343018711961,-0.00016917049348204988,-0.0018239340391777961,0.0,0.0,0.0,0.0,0.0,0.0,0.0,0.0,0.0,-0.0035603197326830953,0.0013048311623629475,6.124041328724491e-06,0.0,0.0,0.0,0.0,0.0,0.0,0.0,0.0,0.0
2.997,80,2,997000000,base_footprint,0.002805476786132063,0.00267407946574059,-0.7263814121665064,0.6872808906538909,0.0,0.0,0.0,0.0,0.0,0.0,0.0,0.0,0.0,-2.3193862329647792e-05,-5.249984778942692e-06,-0.0006178225096312604,0.0,0.0,0.0,0.0,0.0,0.0,0.0,0.0,0.0,-4.5077070017355116e-05,0.001128163571833934,0.00023652631394328614,0.0,0.0,0.0,0.0,0.0,0.0,0.0,0.0,0.0
3.031,81,3,31000000,base_footprint,0.002807639188408509,0.0026748540116700243,-0.7263790447420618,0.6872833809119888,0.0,0.0,0.0,0.0,0.0,0.0,0.0,0.0,0.0,-4.8569607763927396e-05,6.17335954980125e-05,0.0008766121714983154,0.0,0.0,0.0,0.0,0.0,0.0,0.0,0.0,0.0,0.004909975539396998,0.00031904949053914366,0.0001471982230316362,0.0,0.0,0.0,0.0,0.0,0.0,0.0,0.0,0.0
3.065,82,3,65000000,base_footprint,0.002811169544507477,0.002668667620829895,-0.7263889644216922,0.6872729064245899,0.0,0.0,0.0,0.0,0.0,0.0,0.0,0.0,0.0,-0.00023451356603183278,-6.345902075748403e-06,-0.0022626645746570816,0.0,0.0,0.0,0.0,0.0,0.0,0.0,0.0,0.0,0.002956032284359154,-0.006465751010458604,-0.00017676677119197854,0.0,0.0,0.0,0.0,0.0,0.0,0.0,0.0,0.0
3.099,83,3,99000000,base_footprint,0.0028073830132668586,0.002666906000758537,-0.7263684129525766,0.6872946492427795,0.0,0.0,0.0,0.0,0.0,0.0,0.0,0.0,0.0,0.0007408523824768095,0.0002151734766859582,0.004540413152687685,0.0,0.0,0.0,0.0,0.0,0.0,0.0,0.0,0.0,0.03851403026084514,-0.007730819009048928,0.0003453311365490408,0.0,0.0,0.0,0.0,0.0,0.0,0.0,0.0,0.0
3.133,84,3,133000000,base_footprint,0.0028059227520674766,0.002670076008839492,-0.7265512762694245,0.6871013320048849,0.0,0.0,0.0,0.0,0.0,0.0,0.0,0.0,0.0,-0.0010912357012914497,0.0004895412586477685,-0.024733190039267362,0.0,0.0,0.0,0.0,0.0,0.0,0.0,0.0,0.0,0.05211094850759642,0.004795051369826043,-0.0011477599420764044,0.0,0.0,0.0,0.0,0.0,0.0,0.0,0.0,0.0
3.167,85,3,167000000,base_footprint,0.002802267072137473,0.00266714553636794,-0.7267974845507708,0.6868409205082474,0.0,0.0,0.0,0.0,0.0,0.0,0.0,0.0,0.0,-0.00040716390843337235,9.449857911534416e-05,-0.01050229919843497,0.0,0.0,0.0,0.0,0.0,0.0,0.0,0.0,0.0,-0.03768300538290783,0.009200222236052994,0.0007431457180424694,0.0,0.0,0.0,0.0,0.0,0.0,0.0,0.0,0.0
3.202,86,3,201000000,base_footprint,0.00280562876567574,0.0026650912826141665,-0.7268170601452455,0.6868201997739344,0.0,0.0,0.0,0.0,0.0,0.0,0.0,0.0,0.0,-7.868435376297267e-05,0.00016112834944854914,-0.0007361020032746418,0.0,0.0,0.0,0.0,0.0,0.0,0.0,0.0,0.0,-0.025725111353500557,0.0027844091267121337,0.0006259252720215013,0.0,0.0,0.0,0.0,0.0,0.0,0.0,0.0,0.0
3.235,87,3,235000000,base_footprint,0.0028034966966251763,0.0026626905126487872,-0.7268297853217722,0.6868067513170006,0.0,0.0,0.0,0.0,0.0,0.0,0.0,0.0,0.0,-8.165569912863593e-06,0.00022571838494606035,-0.0013015080574016792,0.0,0.0,0.0,0.0,0.0,0.0,0.0,0.0,0.0,-0.00420848535490227,0.0003311011004057281,3.537331960476747e-05,0.0,0.0,0.0,0.0,0.0,0.0,0.0,0.0,0.0
3.269,88,3,269000000,base_footprint,0.002801903389002487,0.0026612868923972946,-0.7268469611533331,0.6867885860668044,0.0,0.0,0.0,0.0,0.0,0.0,0.0,0.0,0.0,8.531700925744706e-05,0.00029419163188704975,-0.0015567967867232589,0.0,0.0,0.0,0.0,0.0,0.0,0.0,0.0,0.0,-0.0052055343589374175,0.0013043201655751888,0.00027061129584687426,0.0,0.0,0.0,0.0,0.0,0.0,0.0,0.0,0.0
3.303,89,3,303000000,base_footprint,0.002800462295045702,0.0026601907414725307,-0.726866155324695,0.6867682819114824,0.0,0.0,0.0,0.0,0.0,0.0,0.0,0.0,0.0,6.836593610058461e-06,0.0002407217132109651,-0.0017544860164648134,0.0,0.0,0.0,0.0,0.0,0.0,0.0,0.0,0.0,-0.005531978577466382,0.0009904416068218427,-3.5216854279847454e-05,0.0,0.0,0.0,0.0,0.0,0.0,0.0,0.0,0.0
3.337,90,3,337000000,base_footprint,0.0028030422753200454,0.0026624833701043124,-0.726980279253111,0.6866474551859749,0.0,0.0,0.0,0.0,0.0,0.0,0.0,0.0,0.0,-0.00022070543803926027,0.0007417365086074615,-0.0585385456493515,0.0,0.0,0.0,0.0,0.0,0.0,0.0,0.0,0.0,0.27545066955427033,-0.029768060492561324,9.808354519650952e-05,0.0,0.0,0.0,0.0,0.0,0.0,0.0,0.0,0.0
3.371,91,3,371000000,base_footprint,0.0028043159148551317,0.002660328323391853,-0.7275987305314816,0.685992088725838,0.0,0.0,0.0,0.0,0.0,0.0,0.0,0.0,0.0,0.00026202810727176036,0.0006427650596136941,-0.0009734177367735521,0.0,0.0,0.0,0.0,0.0,0.0,0.0,0.0,0.0,0.05441026320614778,0.008380001679105308,0.0001452883900187255,0.0,0.0,0.0,0.0,0.0,0.0,0.0,0.0,0.0
3.4050000000000002,92,3,405000000,base_footprint,0.0028053766983987256,0.0026624309724339566,-0.7276241549398889,0.6859651087853593,0.0,0.0,0.0,0.0,0.0,0.0,0.0,0.0,0.0,0.00013136933356011485,-3.860221445102632e-05,-0.0023296810795217747,0.0,0.0,0.0,0.0,0.0,0.0,0.0,0.0,0.0,-0.005222163261209087,-0.0016802025677782918,-0.000992218275955758,0.0,0.0,0.0,0.0,0.0,0.0,0.0,0.0,0.0
3.439,93,3,439000000,base_footprint,0.0028078157973791032,0.0026660899579021933,-0.7276221466396098,0.685967214853852,0.0,0.0,0.0,0.0,0.0,0.0,0.0,0.0,0.0,0.00013204361469294144,-6.945918425597583e-05,0.003815033657328787,0.0,0.0,0.0,0.0,0.0,0.0,0.0,0.0,0.0,-0.0021921855700764757,0.0009147655868933424,-5.282816652800042e-05,0.0,0.0,0.0,0.0,0.0,0.0,0.0,0.0,0.0
3.473,94,3,473000000,base_footprint,0.0028104112727234147,0.002668714541635101,-0.7275725193129202,0.6860198311213925,0.0,0.0,0.0,0.0,0.0,0.0,0.0,0.0,0.0,-1.213246280891832e-05,-5.293131341899762e-05,0.005024320242739305,0.0,0.0,0.0,0.0,0.0,0.0,0.0,0.0,0.0,-0.0007438226737499071,-0.0002819750313525789,-7.301519684975812e-06,0.0,0.0,0.0,0.0,0.0,0.0,0.0,0.0,0.0
3.507,95,3,507000000,base_footprint,0.002812094263123665,0.00266992047878528,-0.7275046098021322,0.6860918352284481,0.0,0.0,0.0,0.0,0.0,0.0,0.0,0.0,0.0,-4.421924294446884e-05,1.3117324336288719e-06,0.006553327927544225,0.0,0.0,0.0,0.0,0.0,0.0,0.0,0.0,0.0,0.003737713106193738,-0.0007943566025515373,0.00012169503798302624,0.0,0.0,0.0,0.0,0.0,0.0,0.0,0.0,0.0
3.541,96,3,541000000,base_footprint,0.0028051368704521628,0.0026562671587941292,-0.7273524727351077,0.6862532009820018,0.0,0.0,0.0,0.0,0.0,0.0,0.0,0.0,0.0,-0.000579181474546474,-0.00033034977255001785,0.030203683345328178,0.0,0.0,0.0,0.0,0.0,0.0,0.0,0.0,0.0,-0.0677904875082897,-0.002709812200212783,0.0004632525434221937,0.0,0.0,0.0,0.0,0.0,0.0,0.0,0.0,0.0
3.575,97,3,575000000,base_footprint,0.0028051388858104202,0.002653922242143484,-0.7270129059763198,0.6866129349469253,0.0,0.0,0.0,0.0,0.0,0.0,0.0,0.0,0.0,0.00026849868305165055,0.0009982614819905988,0.022271272305906,0.0,0.0,0.0,0.0,0.0,0.0,0.0,0.0,0.0,-0.0350794484080298,-0.005303840081189689,0.002191703554226198,0.0,0.0,0.0,0.0,0.0,0.0,0.0,0.0,0.0
3.609,98,3,609000000,base_footprint,0.0028047069159785614,0.002670059075577713,-0.7272498048615688,0.6863619495080264,0.0,0.0,0.0,0.0,0.0,0.0,0.0,0.0,0.0,-6.222688201989108e-05,7.318386505706993e-05,-0.06338653351373266,0.0,0.0,0.0,0.0,0.0,0.0,0.0,0.0,0.0,-0.06130465432438287,0.020252837747713293,-0.004659510793396481,0.0,0.0,0.0,0.0,0.0,0.0,0.0,0.0,0.0
3.643,99,3,643000000,base_footprint,0.0027966385681083474,0.002660152693653742,-0.7278808751433687,0.6856927402276398,0.0,0.0,0.0,0.0,0.0,0.0,0.0,0.0,0.0,-0.00024433309959628907,0.0002041908757971257,-0.04450189893542725,0.0,0.0,0.0,0.0,0.0,0.0,0.0,0.0,0.0,-0.020638681929113327,0.01308216731403777,0.002148072990208099,0.0,0.0,0.0,0.0,0.0,0.0,0.0,0.0,0.0
3.677,100,3,677000000,base_footprint,0.002804136629188855,0.00265716132301561,-0.7281079376421783,0.6854516083969183,0.0,0.0,0.0,0.0,0.0,0.0,0.0,0.0,0.0,-0.0012510993152073852,-0.0016739172675131718,0.006507850586472045,0.0,0.0,0.0,0.0,0.0,0.0,0.0,0.0,0.0,-0.11139468094953875,0.02110413539116006,-0.002787086290909551,0.0,0.0,0.0,0.0,0.0,0.0,0.0,0.0,0.0
3.7110000000000003,101,3,711000000,base_footprint,0.0028064196575228267,0.0026572989837427676,-0.7279905947111124,0.6855762224457451,0.0,0.0,0.0,0.0,0.0,0.0,0.0,0.0,0.0,4.083131831320429e-05,0.00018890472826685786,0.009852700972852055,0.0,0.0,0.0,0.0,0.0,0.0,0.0,0.0,0.0,-0.012469370766576119,-0.0036182780299667157,0.0033250156264184776,0.0,0.0,0.0,0.0,0.0,0.0,0.0,0.0,0.0
3.745,102,3,745000000,base_footprint,0.002804878622603388,0.002656903639725952,-0.7278477663696551,0.685727863302685,0.0,0.0,0.0,0.0,0.0,0.0,0.0,0.0,0.0,-2.3562400219767462e-05,1.567030628639798e-05,0.013878737121773687,0.0,0.0,0.0,0.0,0.0,0.0,0.0,0.0,0.0,-0.004095385372515043,-0.0022217597429296417,-0.0002542711283020951,0.0,0.0,0.0,0.0,0.0,0.0,0.0,0.0,0.0
3.779,103,3,779000000,base_footprint,0.002802970846958868,0.0026572076729915344,-0.7276861372587047,0.6858993863849999,0.0,0.0,0.0,0.0,0.0,0.0,0.0,0.0,0.0,0.00011443638575774728,6.75986676864092e-05,0.013882493517393485,0.0,0.0,0.0,0.0,0.0,0.0,0.0,0.0,0.0,-0.005755077131419185,-0.0019001733520381365,0.00016992022689753326,0.0,0.0,0.0,0.0,0.0,0.0,0.0,0.0,0.0
3.813,104,3,813000000,base_footprint,0.0028018730564335448,0.0026581829634851487,-0.7275235588186945,0.6860718292821022,0.0,0.0,0.0,0.0,0.0,0.0,0.0,0.0,0.0,9.133012724223183e-05,2.9158858903625178e-05,0.01399383549419226,0.0,0.0,0.0,0.0,0.0,0.0,0.0,0.0,0.0,-0.005356710858821094,-0.002158720883895884,-9.640837108674278e-05,0.0,0.0,0.0,0.0,0.0,0.0,0.0,0.0,0.0
3.847,105,3,847000000,base_footprint,0.0028013132692636133,0.0026597207855950287,-0.7273130182241395,0.686295018232686,0.0,0.0,0.0,0.0,0.0,0.0,0.0,0.0,0.0,4.5844478576425813e-05,-1.2793224706326752e-05,0.020208688254080523,0.0,0.0,0.0,0.0,0.0,0.0,0.0,0.0,0.0,-0.004178924945764854,-0.0029265793698144598,-1.8959690375485233e-05,0.0,0.0,0.0,0.0,0.0,0.0,0.0,0.0,0.0
3.8810000000000002,106,3,881000000,base_footprint,0.002801308725142406,0.0026618670418147227,-0.727076925927424,0.6865451266429653,0.0,0.0,0.0,0.0,0.0,0.0,0.0,0.0,0.0,8.126371187614322e-05,-0.00013108697818618557,0.020358680478845165,0.0,0.0,0.0,0.0,0.0,0.0,0.0,0.0,0.0,-0.0056196015191527825,-0.0032020177980953855,-0.00027955217957053414,0.0,0.0,0.0,0.0,0.0,0.0,0.0,0.0,0.0
3.915,107,3,915000000,base_footprint,0.0028022778715495076,0.0026653952104702784,-0.726837151215669,0.6867989505814591,0.0,0.0,0.0,0.0,0.0,0.0,0.0,0.0,0.0,5.502259301645901e-05,-0.00021284125182566518,0.020705830187661506,0.0,0.0,0.0,0.0,0.0,0.0,0.0,0.0,0.0,-0.004720816574783562,-0.003607405006304936,-0.00033004316709295397,0.0,0.0,0.0,0.0,0.0,0.0,0.0,0.0,0.0
3.949,108,3,949000000,base_footprint,0.0028039239832359946,0.002671174597282973,-0.7266732268193022,0.6869723606234751,0.0,0.0,0.0,0.0,0.0,0.0,0.0,0.0,0.0,2.448030578699144e-05,-0.0002314961640551483,0.01181493270209755,0.0,0.0,0.0,0.0,0.0,0.0,0.0,0.0,0.0,-0.003984088044922232,-0.002763008213346764,-0.00019852858234807802,0.0,0.0,0.0,0.0,0.0,0.0,0.0,0.0,0.0
3.983,109,3,983000000,base_footprint,0.002806456325614988,0.002674518454889789,-0.7265279656208524,0.6871259607413712,0.0,0.0,0.0,0.0,0.0,0.0,0.0,0.0,0.0,-0.0003115803478267291,4.797142396250107e-05,0.012351335290399511,0.0,0.0,0.0,0.0,0.0,0.0,0.0,0.0,0.0,0.0022113989599332317,-0.005941119717534122,0.0004787299561806314,0.0,0.0,0.0,0.0,0.0,0.0,0.0,0.0,0.0
4.017,110,4,17000000,base_footprint,0.0028111366939666213,0.002669125276103649,-0.7264132617747715,0.6872472236382521,0.0,0.0,0.0,0.0,0.0,0.0,0.0,0.0,0.0,-0.00021815568510508447,-9.291055167074608e-05,0.008357594636868531,0.0,0.0,0.0,0.0,0.0,0.0,0.0,0.0,0.0,0.0017447721091686996,-0.0047714422898960055,-0.0003209328142962013,0.0,0.0,0.0,0.0,0.0,0.0,0.0,0.0,0.0
4.051,111,4,51000000,base_footprint,0.0027997253539837393,0.002663709625750387,-0.7264880245351518,0.6871682591592723,0.0,0.0,0.0,0.0,0.0,0.0,0.0,0.0,0.0,-0.0015284726126626263,-0.0004739874869089243,-0.015261416150356064,0.0,0.0,0.0,0.0,0.0,0.0,0.0,0.0,0.0,0.15058402319201547,-0.021800130691791306,-0.0022874225884110875,0.0,0.0,0.0,0.0,0.0,0.0,0.0,0.0,0.0
4.085,112,4,85000000,base_footprint,0.002810233758103061,0.002665319999913485,-0.7263510391002043,0.687313004862833,0.0,0.0,0.0,0.0,0.0,0.0,0.0,0.0,0.0,0.0013087628562872045,0.000232171107743519,0.038067415563102114,0.0,0.0,0.0,0.0,0.0,0.0,0.0,0.0,0.0,0.21525599862511174,-0.014185688345336636,0.002949054109384905,0.0,0.0,0.0,0.0,0.0,0.0,0.0,0.0,0.0
4.119,113,4,119000000,base_footprint,0.002808587657802112,0.0026695634301424193,-0.7261610827965124,0.6875136850261657,0.0,0.0,0.0,0.0,0.0,0.0,0.0,0.0,0.0,-0.0005793443464961728,-0.0005357135638952268,0.01988344768562402,0.0,0.0,0.0,0.0,0.0,0.0,0.0,0.0,0.0,0.007586199160916731,-0.006062575496583603,-0.0013097230301283294,0.0,0.0,0.0,0.0,0.0,0.0,0.0,0.0,0.0
4.153,114,4,153000000,base_footprint,0.002804668377001635,0.00266900643059231,-0.7259722571335293,0.6877130885132384,0.0,0.0,0.0,0.0,0.0,0.0,0.0,0.0,0.0,-6.239509272984813e-05,0.00040863794838225283,0.01477744020626288,0.0,0.0,0.0,0.0,0.0,0.0,0.0,0.0,0.0,-0.0034956246734278696,-0.0035021923346741186,0.0016350828973255751,0.0,0.0,0.0,0.0,0.0,0.0,0.0,0.0,0.0
4.187,115,4,187000000,base_footprint,0.002801456888680155,0.0026665182964963102,-0.7258042625691056,0.6878904083907497,0.0,0.0,0.0,0.0,0.0,0.0,0.0,0.0,0.0,-0.0001358440834949077,0.0001823963562903394,0.014111877415338252,0.0,0.0,0.0,0.0,0.0,0.0,0.0,0.0,0.0,-0.0040885236296459475,-0.0029786244099902917,-0.0004193619314873544,0.0,0.0,0.0,0.0,0.0,0.0,0.0,0.0,0.0
4.221,116,4,221000000,base_footprint,0.0027987273471672546,0.002665147904550813,-0.7256416459025689,0.6880619636658416,0.0,0.0,0.0,0.0,0.0,0.0,0.0,0.0,0.0,2.735724089934625e-06,0.00022643357547334026,0.013745153751520776,0.0,0.0,0.0,0.0,0.0,0.0,0.0,0.0,0.0,-0.005283374715622345,-0.0019332774449608203,0.00016268876833172878,0.0,0.0,0.0,0.0,0.0,0.0,0.0,0.0,0.0
4.255,117,4,255000000,base_footprint,0.002799003415568589,0.002662948850588224,-0.7260569126223051,0.6876237589820943,0.0,0.0,0.0,0.0,0.0,0.0,0.0,0.0,0.0,0.0001905612589195813,0.0015505175435156725,-0.06996464921050516,0.0,0.0,0.0,0.0,0.0,0.0,0.0,0.0,0.0,-0.3505468182882372,0.04435989174399463,0.0009629658270635524,0.0,0.0,0.0,0.0,0.0,0.0,0.0,0.0,0.0
4.289,118,4,289000000,base_footprint,0.002797885348896076,0.00266274303877107,-0.7260468247750862,0.6876344158570739,0.0,0.0,0.0,0.0,0.0,0.0,0.0,0.0,0.0,2.6020475736394775e-05,0.00013091679883814469,0.011591362132396529,0.0,0.0,0.0,0.0,0.0,0.0,0.0,0.0,0.0,0.0009476197832683891,0.0008359460924196257,-0.0010385883415175636,0.0,0.0,0.0,0.0,0.0,0.0,0.0,0.0,0.0
4.323,119,4,323000000,base_footprint,0.002797664217665728,0.0026647651164165994,-0.7259131804326695,0.6877754914039365,0.0,0.0,0.0,0.0,0.0,0.0,0.0,0.0,0.0,2.8826074664698074e-05,-5.7974733296839775e-06,0.011261147522684475,0.0,0.0,0.0,0.0,0.0,0.0,0.0,0.0,0.0,-0.005658894491360077,-0.0015323632270965002,-0.00023736567167737316,0.0,0.0,0.0,0.0,0.0,0.0,0.0,0.0,0.0
4.357,120,4,357000000,base_footprint,0.0027981126553401664,0.0026685211058047283,-0.7257073513473541,0.6879926524034135,0.0,0.0,0.0,0.0,0.0,0.0,0.0,0.0,0.0,5.1948143176846624e-05,-0.00017304309201718256,0.01784289543104537,0.0,0.0,0.0,0.0,0.0,0.0,0.0,0.0,0.0,-0.0038977231712944843,-0.00326654300200747,-0.00027663563389123216,0.0,0.0,0.0,0.0,0.0,0.0,0.0,0.0,0.0
4.391,121,4,391000000,base_footprint,0.0027997019781931154,0.0026734794986657657,-0.7254989731662037,0.6882123612018224,0.0,0.0,0.0,0.0,0.0,0.0,0.0,0.0,0.0,9.225247142227582e-05,-0.0001953552273566634,0.017742914580169074,0.0,0.0,0.0,0.0,0.0,0.0,0.0,0.0,0.0,-0.0050611912071753815,-0.002707890363250246,-0.00021469803937056463,0.0,0.0,0.0,0.0,0.0,0.0,0.0,0.0,0.0
4.425,122,4,425000000,base_footprint,0.0028018403835393365,0.002677200516193704,-0.7252875067558289,0.6884351929061839,0.0,0.0,0.0,0.0,0.0,0.0,0.0,0.0,0.0,-0.00039966145044191515,-0.00013218008521074886,0.01994685749334884,0.0,0.0,0.0,0.0,0.0,0.0,0.0,0.0,0.0,-0.003043432708369604,-0.003348570226856385,-5.669473122987321e-05,0.0,0.0,0.0,0.0,0.0,0.0,0.0,0.0,0.0
4.459,123,4,459000000,base_footprint,0.002802484879656331,0.002680160581428433,-0.7249919572595146,0.6887464154003093,0.0,0.0,0.0,0.0,0.0,0.0,0.0,0.0,0.0,-5.2401360245725186e-05,-0.0002122102322955983,0.02592569365050769,0.0,0.0,0.0,0.0,0.0,0.0,0.0,0.0,0.0,0.002813515954225049,-0.003831043343146251,-1.7996856899160585e-05,0.0,0.0,0.0,0.0,0.0,0.0,0.0,0.0,0.0
4.493,124,4,493000000,base_footprint,0.002803264381493379,0.002677025085351252,-0.7246910605337838,0.6890630174577066,0.0,0.0,0.0,0.0,0.0,0.0,0.0,0.0,0.0,-0.00045773301795628093,3.872834286705503e-05,0.024019984066030495,0.0,0.0,0.0,0.0,0.0,0.0,0.0,0.0,0.0,0.0029332492551000762,-0.012073307539530832,0.0004162003371781066,0.0,0.0,0.0,0.0,0.0,0.0,0.0,0.0,0.0
4.527,125,4,527000000,base_footprint,0.0028016099668621212,0.002673776526401166,-0.7243937162675844,0.6893756202047756,0.0,0.0,0.0,0.0,0.0,0.0,0.0,0.0,0.0,0.0002392927436704759,0.0007066498067964883,0.030008057196652713,0.0,0.0,0.0,0.0,0.0,0.0,0.0,0.0,0.0,0.032875455767511136,-0.009266318346688401,0.0009155629380771891,0.0,0.0,0.0,0.0,0.0,0.0,0.0,0.0,0.0
4.561,126,4,561000000,base_footprint,0.002797315298064326,0.0026802456484766213,-0.7242753246237541,0.6894999967016263,0.0,0.0,0.0,0.0,0.0,0.0,0.0,0.0,0.0,-0.0007909391389515257,0.0002849627798197573,-0.006378528637522948,0.0,0.0,0.0,0.0,0.0,0.0,0.0,0.0,0.0,0.04685692770361809,-0.006036321204059902,-0.0011759715609697646,0.0,0.0,0.0,0.0,0.0,0.0,0.0,0.0,0.0
4.596,127,4,595000000,base_footprint,0.002794401549074239,0.002677882827019299,-0.724311109111277,0.6894624264465317,0.0,0.0,0.0,0.0,0.0,0.0,0.0,0.0,0.0,-0.0008972379064336925,-0.00022998794879855797,0.0058251076567135875,0.0,0.0,0.0,0.0,0.0,0.0,0.0,0.0,0.0,-0.02215712734655912,0.003709685091863141,-0.0015117039554872317,0.0,0.0,0.0,0.0,0.0,0.0,0.0,0.0,0.0
4.629,128,4,629000000,base_footprint,0.002796530025654911,0.0026766921868752115,-0.7241245617301582,0.6896583457320435,0.0,0.0,0.0,0.0,0.0,0.0,0.0,0.0,0.0,-0.00017920585764160608,2.0725442798231217e-05,0.01736623628022714,0.0,0.0,0.0,0.0,0.0,0.0,0.0,0.0,0.0,-0.027490331659720518,0.00031267351850623563,0.0018120795963666,0.0,0.0,0.0,0.0,0.0,0.0,0.0,0.0,0.0
4.663,129,4,663000000,base_footprint,0.0027936463751388214,0.0026743277280835997,-0.7239241063280217,0.6898687786733856,0.0,0.0,0.0,0.0,0.0,0.0,0.0,0.0,0.0,-0.00014277611410266872,0.000170042235599006,0.016808914108836483,0.0,0.0,0.0,0.0,0.0,0.0,0.0,0.0,0.0,-0.0050036106693131886,-0.003505313810779568,0.00015125121924941973,0.0,0.0,0.0,0.0,0.0,0.0,0.0,0.0,0.0
4.697,130,4,697000000,base_footprint,0.0027906957271225763,0.0026729899574696224,-0.7237290928986425,0.6900733781520295,0.0,0.0,0.0,0.0,0.0,0.0,0.0,0.0,0.0,-3.083754230719598e-06,0.00020497576343202456,0.016481584837743004,0.0,0.0,0.0,0.0,0.0,0.0,0.0,0.0,0.0,-0.005711022436351026,-0.0026793324134437996,0.00014047774767607797,0.0,0.0,0.0,0.0,0.0,0.0,0.0,0.0,0.0
4.731,131,4,731000000,base_footprint,0.00278860692534484,0.00267294715716001,-0.7235229189305766,0.6902895514254068,0.0,0.0,0.0,0.0,0.0,0.0,0.0,0.0,0.0,-3.706653716394907e-05,-5.116686011627029e-05,0.023639543729269255,0.0,0.0,0.0,0.0,0.0,0.0,0.0,0.0,0.0,-0.004260616365024581,-0.0031830797884547265,-0.00029204092323835033,0.0,0.0,0.0,0.0,0.0,0.0,0.0,0.0,0.0
4.765,132,4,765000000,base_footprint,0.002786781971269325,0.002674248146781425,-0.7232503792607854,0.6905751017392854,0.0,0.0,0.0,0.0,0.0,0.0,0.0,0.0,0.0,2.3231255388612054e-07,-1.3500490314523821e-05,0.02300241943253405,0.0,0.0,0.0,0.0,0.0,0.0,0.0,0.0,0.0,-0.005972259622502385,-0.004671309318140541,-0.00010500196190422583,0.0,0.0,0.0,0.0,0.0,0.0,0.0,0.0,0.0
4.798,133,4,799000000,base_footprint,0.002786262065274471,0.0026768479418762666,-0.7229820113643698,0.6908560504709576,0.0,0.0,0.0,0.0,0.0,0.0,0.0,0.0,0.0,1.6502995440144436e-05,-0.00010159992907830954,0.02269935630432242,0.0,0.0,0.0,0.0,0.0,0.0,0.0,0.0,0.0,-0.006008253226511492,-0.004385410931235233,-0.00022715908887825024,0.0,0.0,0.0,0.0,0.0,0.0,0.0,0.0,0.0
4.833,134,4,833000000,base_footprint,0.0027862395471140756,0.0026820639444797285,-0.7227489869840796,0.6910998084326682,0.0,0.0,0.0,0.0,0.0,0.0,0.0,0.0,0.0,0.0014924148764480416,-0.0008352262461608887,-0.002601815480766714,0.0,0.0,0.0,0.0,0.0,0.0,0.0,0.0,0.0,0.19167980766128695,-0.019801002618424962,-0.0024642698411187257,0.0,0.0,0.0,0.0,0.0,0.0,0.0,0.0,0.0
4.867,135,4,867000000,base_footprint,0.0027888060942058836,0.0026815423160705663,-0.7232429344460337,0.6905828622730702,0.0,0.0,0.0,0.0,0.0,0.0,0.0,0.0,0.0,0.0017755040747605031,-0.003160342199142123,0.024422932584122443,0.0,0.0,0.0,0.0,0.0,0.0,0.0,0.0,0.0,0.1467062974879679,-0.002927209439938752,-0.0014791487990054501,0.0,0.0,0.0,0.0,0.0,0.0,0.0,0.0,0.0
4.9,136,4,901000000,base_footprint,0.0027926539807182752,0.0026869948299353096,-0.7229747977224833,0.6908635342820335,0.0,0.0,0.0,0.0,0.0,0.0,0.0,0.0,0.0,3.132337087046983e-05,-0.00020716454505576107,0.0227231174550521,0.0,0.0,0.0,0.0,0.0,0.0,0.0,0.0,0.0,-0.011134252761883304,-0.005303797615879664,0.0033393531609063947,0.0,0.0,0.0,0.0,0.0,0.0,0.0,0.0,0.0
4.9350000000000005,137,4,935000000,base_footprint,0.0027856544224022024,0.0026799689826150414,-0.7226854400130079,0.6911662699299616,0.0,0.0,0.0,0.0,0.0,0.0,0.0,0.0,0.0,0.000260422061262448,0.0005449449273918882,0.029694388271847387,0.0,0.0,0.0,0.0,0.0,0.0,0.0,0.0,0.0,-0.11006475998371826,0.0025804305185992554,0.0024418040243844056,0.0,0.0,0.0,0.0,0.0,0.0,0.0,0.0,0.0
4.969,138,4,969000000,base_footprint,0.002791633023451584,0.0026777173870705024,-0.7226090114660119,0.6912461596007392,0.0,0.0,0.0,0.0,0.0,0.0,0.0,0.0,0.0,-0.0005008724509141113,0.00037241837357552437,-0.010355948217512052,0.0,0.0,0.0,0.0,0.0,0.0,0.0,0.0,0.0,-0.10699035816338262,0.0039349952888563244,-0.0016001894250297194,0.0,0.0,0.0,0.0,0.0,0.0,0.0,0.0,0.0
5.003,139,5,3000000,base_footprint,0.002794511206139877,0.002676220705745586,-0.7227650367268262,0.6910830125499559,0.0,0.0,0.0,0.0,0.0,0.0,0.0,0.0,0.0,0.00030187248407150604,0.0011856120076833196,-0.021249524399978008,0.0,0.0,0.0,0.0,0.0,0.0,0.0,0.0,0.0,-0.0022113020361589856,0.0011189688960240548,0.0015876917784528586,0.0,0.0,0.0,0.0,0.0,0.0,0.0,0.0,0.0
5.037,140,5,37000000,base_footprint,0.0027930711870817098,0.002686759688716063,-0.7234726646926725,0.6903421496027915,0.0,0.0,0.0,0.0,0.0,0.0,0.0,0.0,0.0,-8.928231527935296e-05,-0.00010155805119259039,-0.09818128907418962,0.0,0.0,0.0,0.0,0.0,0.0,0.0,0.0,0.0,-0.031396873636786914,0.021489339994100475,-0.0034766351750154974,0.0,0.0,0.0,0.0,0.0,0.0,0.0,0.0,0.0
5.071,141,5,71000000,base_footprint,0.0027914342092381335,0.00267804020966923,-0.7245445616796148,0.6892171023242138,0.0,0.0,0.0,0.0,0.0,0.0,0.0,0.0,0.0,-0.0011205393925160616,0.0005983763975135994,-0.08158724268912657,0.0,0.0,0.0,0.0,0.0,0.0,0.0,0.0,0.0,-0.018796179693126535,0.020015479759609888,0.0004573088915747279,0.0,0.0,0.0,0.0,0.0,0.0,0.0,0.0,0.0
5.105,142,5,105000000,base_footprint,0.002800694956087307,0.0026723782080208423,-0.7253210221907282,0.6883999050484199,0.0,0.0,0.0,0.0,0.0,0.0,0.0,0.0,0.0,0.00018282633723415794,0.001204857357339123,-0.06111821585594572,0.0,0.0,0.0,0.0,0.0,0.0,0.0,0.0,0.0,-0.045461585372990825,0.019932111496394553,0.002339305010082138,0.0,0.0,0.0,0.0,0.0,0.0,0.0,0.0,0.0
5.139,143,5,139000000,base_footprint,0.002802253955715605,0.002666378603724106,-0.7259826471282631,0.6877021403678698,0.0,0.0,0.0,0.0,0.0,0.0,0.0,0.0,0.0,-7.206620543617496e-05,0.0007489921962379475,-0.05155784199899146,0.0,0.0,0.0,0.0,0.0,0.0,0.0,0.0,0.0,-0.004594280853548055,0.014064951731926434,-0.00027369769347653563,0.0,0.0,0.0,0.0,0.0,0.0,0.0,0.0,0.0
5.173,144,5,173000000,base_footprint,0.002802105244188364,0.002661721650806752,-0.7265894130649424,0.6870610513382321,0.0,0.0,0.0,0.0,0.0,0.0,0.0,0.0,0.0,3.412173843390294e-05,0.0007328434300969699,-0.052126423833935454,0.0,0.0,0.0,0.0,0.0,0.0,0.0,0.0,0.0,-0.003924117043148226,0.011965868284643612,0.00016378169487612566,0.0,0.0,0.0,0.0,0.0,0.0,0.0,0.0,0.0
5.207,145,5,207000000,base_footprint,0.002802760646133558,0.0026584057492726764,-0.7271998706791435,0.6864149076876681,0.0,0.0,0.0,0.0,0.0,0.0,0.0,0.0,0.0,3.5307757272128596e-05,0.0006460695815626456,-0.052466258181300254,0.0,0.0,0.0,0.0,0.0,0.0,0.0,0.0,0.0,-0.004292023600733484,0.01211803270486308,-8.040170914125061e-05,0.0,0.0,0.0,0.0,0.0,0.0,0.0,0.0,0.0
5.241,146,5,241000000,base_footprint,0.002804370726834377,0.002656408507108734,-0.7277772258058961,0.6858027330048662,0.0,0.0,0.0,0.0,0.0,0.0,0.0,0.0,0.0,4.234226612808014e-05,0.0005161147568263655,-0.046178155449459836,0.0,0.0,0.0,0.0,0.0,0.0,0.0,0.0,0.0,-0.0023961077059269434,0.011539824213169455,-6.456629308312102e-05,0.0,0.0,0.0,0.0,0.0,0.0,0.0,0.0,0.0
5.275,147,5,275000000,base_footprint,0.0028069140741702726,0.002655977572982198,-0.7283176755470008,0.6852287431962597,0.0,0.0,0.0,0.0,0.0,0.0,0.0,0.0,0.0,6.438059370419039e-05,0.0004251670790664341,-0.04655567384120671,0.0,0.0,0.0,0.0,0.0,0.0,0.0,0.0,0.0,-0.00444576556050799,0.010850398146091175,-0.00013045186603347965,0.0,0.0,0.0,0.0,0.0,0.0,0.0,0.0,0.0
5.309,148,5,309000000,base_footprint,0.0028103744975538276,0.0026570514803414933,-0.7288610774615034,0.6846506931525527,0.0,0.0,0.0,0.0,0.0,0.0,0.0,0.0,0.0,9.700559212572661e-05,0.0003104994116277318,-0.046782221355679984,0.0,0.0,0.0,0.0,0.0,0.0,0.0,0.0,0.0,-0.003852345131351363,0.011029885077199073,-0.00017285391357674983,0.0,0.0,0.0,0.0,0.0,0.0,0.0,0.0,0.0
5.343,149,5,343000000,base_footprint,0.002814387818297859,0.0026589854600880185,-0.7293040424571949,0.6841787943755093,0.0,0.0,0.0,0.0,0.0,0.0,0.0,0.0,0.0,2.0395165189031606e-05,0.00024382799911704423,-0.03047399836017823,0.0,0.0,0.0,0.0,0.0,0.0,0.0,0.0,0.0,0.0015303842038305346,0.008895880600651008,7.865366205951395e-05,0.0,0.0,0.0,0.0,0.0,0.0,0.0,0.0,0.0
5.377,150,5,377000000,base_footprint,0.002818983957002028,0.0026600593347883687,-0.7296499212480126,0.6838098930525607,0.0,0.0,0.0,0.0,0.0,0.0,0.0,0.0,0.0,5.968565585200969e-06,0.00016760627629430769,-0.028841110396231037,0.0,0.0,0.0,0.0,0.0,0.0,0.0,0.0,0.0,0.0009688169126929784,0.006945466457435561,-0.00020355558178623132,0.0,0.0,0.0,0.0,0.0,0.0,0.0,0.0,0.0
5.411,151,5,411000000,base_footprint,0.0028220109699860453,0.002659664164530265,-0.7299740564390232,0.6834638537381292,0.0,0.0,0.0,0.0,0.0,0.0,0.0,0.0,0.0,-2.7505527289216605e-05,0.00029121320645599,-0.026992753424524365,0.0,0.0,0.0,0.0,0.0,0.0,0.0,0.0,0.0,0.005329073421402149,0.0069433285381350785,0.00031559020558867676,0.0,0.0,0.0,0.0,0.0,0.0,0.0,0.0,0.0
5.445,152,5,445000000,base_footprint,0.002827135214152374,0.0026543329819268507,-0.7302681347503376,0.6831496272348868,0.0,0.0,0.0,0.0,0.0,0.0,0.0,0.0,0.0,-0.00025662499482308383,-9.132162555624377e-06,-0.023910545224246307,0.0,0.0,0.0,0.0,0.0,0.0,0.0,0.0,0.0,0.003110701185875921,-0.00019584247981716115,-0.000517287894523279,0.0,0.0,0.0,0.0,0.0,0.0,0.0,0.0,0.0
5.479,153,5,479000000,base_footprint,0.0028257251808003793,0.0026504311564791118,-0.7304976988413363,0.6829041678591511,0.0,0.0,0.0,0.0,0.0,0.0,0.0,0.0,0.0,0.0004752290562737372,0.0003851797573868036,-0.01602012628414128,0.0,0.0,0.0,0.0,0.0,0.0,0.0,0.0,0.0,0.036797238656268605,-0.0010019276755462436,0.0007512715021013607,0.0,0.0,0.0,0.0,0.0,0.0,0.0,0.0,0.0
5.513,154,5,513000000,base_footprint,0.0028203239062882138,0.002653101680339199,-0.7308639752166773,0.6825121658659379,0.0,0.0,0.0,0.0,0.0,0.0,0.0,0.0,0.0,-0.000690170511915339,0.0006419924589133528,-0.045724556251417706,0.0,0.0,0.0,0.0,0.0,0.0,0.0,0.0,0.0,0.05246289314255812,0.003049031845499265,6.21391308419439e-05,0.0,0.0,0.0,0.0,0.0,0.0,0.0,0.0,0.0
5.547,155,5,547000000,base_footprint,0.002822698481455974,0.0026469588704615596,-0.7311795642539853,0.6821740766104889,0.0,0.0,0.0,0.0,0.0,0.0,0.0,0.0,0.0,0.0001991534657407185,0.0005325608749976081,0.010088431413065948,0.0,0.0,0.0,0.0,0.0,0.0,0.0,0.0,0.0,0.329153955952206,-0.039418838654533994,0.0004890980572869804,0.0,0.0,0.0,0.0,0.0,0.0,0.0,0.0,0.0
5.581,156,5,581000000,base_footprint,0.002819372131999684,0.002645238157841736,-0.7312974255539963,0.682047747033862,0.0,0.0,0.0,0.0,0.0,0.0,0.0,0.0,0.0,-0.0015639254218593017,-0.0003881472844496502,-0.02378505725702813,0.0,0.0,0.0,0.0,0.0,0.0,0.0,0.0,0.0,-0.04080776744788523,0.008887142533247027,-0.0026269092817506954,0.0,0.0,0.0,0.0,0.0,0.0,0.0,0.0,0.0
5.615,157,5,615000000,base_footprint,0.002823038006751401,0.0026431179862858676,-0.7315345430359182,0.6817934120603932,0.0,0.0,0.0,0.0,0.0,0.0,0.0,0.0,0.0,-8.629933356889597e-05,0.0005389037031777349,-0.020907183428873016,0.0,0.0,0.0,0.0,0.0,0.0,0.0,0.0,0.0,-0.01004845357540346,0.004022424189025108,0.002550570300703497,0.0,0.0,0.0,0.0,0.0,0.0,0.0,0.0,0.0
5.648,158,5,649000000,base_footprint,0.0028228748698563844,0.0026402232193533963,-0.7318169428758274,0.6814902953958326,0.0,0.0,0.0,0.0,0.0,0.0,0.0,0.0,0.0,5.030900624561306e-05,0.0005672476557981633,-0.0259272188516553,0.0,0.0,0.0,0.0,0.0,0.0,0.0,0.0,0.0,-0.006373326004727073,0.00610063759141471,0.00015876814070832416,0.0,0.0,0.0,0.0,0.0,0.0,0.0,0.0,0.0
5.683,159,5,683000000,base_footprint,0.0028220627987636266,0.002638187319646059,-0.7321187707778306,0.6811660453986125,0.0,0.0,0.0,0.0,0.0,0.0,0.0,0.0,0.0,4.226661687710043e-05,0.0004521460916638613,-0.026220455401109823,0.0,0.0,0.0,0.0,0.0,0.0,0.0,0.0,0.0,-0.00446888405363326,0.006112664053399921,-0.00015377027499791248,0.0,0.0,0.0,0.0,0.0,0.0,0.0,0.0,0.0
5.7170000000000005,160,5,717000000,base_footprint,0.0028224209947465915,0.0026372772028670083,-0.732423800971657,0.680838053048531,0.0,0.0,0.0,0.0,0.0,0.0,0.0,0.0,0.0,4.645197575605863e-05,0.00037596695573882693,-0.026516199617551587,0.0,0.0,0.0,0.0,0.0,0.0,0.0,0.0,0.0,-0.0045109082299949555,0.006278380280526325,-0.00010979249471535918,0.0,0.0,0.0,0.0,0.0,0.0,0.0,0.0,0.0
5.751,161,5,751000000,base_footprint,0.002824994558593319,0.00263638382515205,-0.7330336357518855,0.6801814153168567,0.0,0.0,0.0,0.0,0.0,0.0,0.0,0.0,0.0,6.46834891433865e-05,0.000476588280831753,-0.060872904947421494,0.0,0.0,0.0,0.0,0.0,0.0,0.0,0.0,0.0,0.011958378742754279,0.009216641296261274,-0.0001754348728359003,0.0,0.0,0.0,0.0,0.0,0.0,0.0,0.0,0.0
5.785,162,5,785000000,base_footprint,0.0028281671784455356,0.0026364684467167767,-0.7336139589433196,0.6795554500907558,0.0,0.0,0.0,0.0,0.0,0.0,0.0,0.0,0.0,9.913460490500753e-05,-0.00014124532799412792,-0.02054046919429872,0.0,0.0,0.0,0.0,0.0,0.0,0.0,0.0,0.0,-0.3567735519397959,0.06743522850740805,-0.0003127220335050332,0.0,0.0,0.0,0.0,0.0,0.0,0.0,0.0,0.0
5.819,163,5,819000000,base_footprint,0.0028312501567639204,0.002639788828156494,-0.7338524844320897,0.6792978335239573,0.0,0.0,0.0,0.0,0.0,0.0,0.0,0.0,0.0,9.53222216172033e-05,0.00012015686127795106,-0.020528514212943966,0.0,0.0,0.0,0.0,0.0,0.0,0.0,0.0,0.0,-0.0006093456272285968,0.0038140931975355415,0.00034310220780327423,0.0,0.0,0.0,0.0,0.0,0.0,0.0,0.0,0.0
5.853,164,5,853000000,base_footprint,0.002834284204427082,0.0026418563334161802,-0.7339118986238198,0.6792336214341441,0.0,0.0,0.0,0.0,0.0,0.0,0.0,0.0,0.0,4.202227685990653e-05,-8.970352728185466e-05,-0.0012674267866882789,0.0,0.0,0.0,0.0,0.0,0.0,0.0,0.0,0.0,0.003957843644085217,0.0010338817491938137,-0.00014290462692355304,0.0,0.0,0.0,0.0,0.0,0.0,0.0,0.0,0.0
5.8870000000000005,165,5,887000000,base_footprint,0.0028364495746934326,0.0026432924008325115,-0.7339137814471778,0.6792315724117941,0.0,0.0,0.0,0.0,0.0,0.0,0.0,0.0,0.0,-2.5995305748731425e-05,5.265844722873184e-05,0.0008960859423329998,0.0,0.0,0.0,0.0,0.0,0.0,0.0,0.0,0.0,0.0037418050926260773,0.0007013591101712208,0.0002147378153652772,0.0,0.0,0.0,0.0,0.0,0.0,0.0,0.0,0.0
5.921,166,5,921000000,base_footprint,0.0028393357251679983,0.0026376509133387263,-0.7339070946468562,0.679238807340474,0.0,0.0,0.0,0.0,0.0,0.0,0.0,0.0,0.0,-0.00038252093961672304,5.1551628449682236e-05,-0.00036921802697423517,0.0,0.0,0.0,0.0,0.0,0.0,0.0,0.0,0.0,0.0020196335355392027,-0.007468606043016475,-4.900185472209594e-05,0.0,0.0,0.0,0.0,0.0,0.0,0.0,0.0,0.0
5.955,167,5,955000000,base_footprint,0.0028407761541214185,0.0026360646258862326,-0.7338645760564539,0.6792847452752133,0.0,0.0,0.0,0.0,0.0,0.0,0.0,0.0,0.0,1.9396706603158846e-05,-0.00012127550290124913,0.00841549826785452,0.0,0.0,0.0,0.0,0.0,0.0,0.0,0.0,0.0,0.03410010126619405,-0.0010126376998085482,-0.0003042473734757384,0.0,0.0,0.0,0.0,0.0,0.0,0.0,0.0,0.0
5.989,168,5,989000000,base_footprint,0.0028300356084495436,0.002639507470902059,-0.733883086080135,0.6792647789075061,0.0,0.0,0.0,0.0,0.0,0.0,0.0,0.0,0.0,0.00035444054239270077,-0.00016554146741516355,-0.011580392209567556,0.0,0.0,0.0,0.0,0.0,0.0,0.0,0.0,0.0,0.018599408622159513,-0.011545136620671002,8.635676876366762e-06,0.0,0.0,0.0,0.0,0.0,0.0,0.0,0.0,0.0
6.023,169,6,23000000,base_footprint,0.002830676668340632,0.0026365013835529007,-0.7341600543057472,0.6789654268015687,0.0,0.0,0.0,0.0,0.0,0.0,0.0,0.0,0.0,0.0007115107359199731,0.000655437770255153,-0.0261195956379024,0.0,0.0,0.0,0.0,0.0,0.0,0.0,0.0,0.0,0.0354551926792183,0.007801371779574491,0.00222960988807484,0.0,0.0,0.0,0.0,0.0,0.0,0.0,0.0,0.0
6.057,170,6,57000000,base_footprint,0.002835032445131921,0.002633022502423591,-0.7343400396455267,0.678770753610483,0.0,0.0,0.0,0.0,0.0,0.0,0.0,0.0,0.0,-0.0007924561613639329,-0.00094961634854244,-0.0008523410007066281,0.0,0.0,0.0,0.0,0.0,0.0,0.0,0.0,0.0,-0.05874792109508083,0.014231091097724302,-0.0034394254464511984,0.0,0.0,0.0,0.0,0.0,0.0,0.0,0.0,0.0
6.091,171,6,91000000,base_footprint,0.0028326305634226705,0.0026312510793042934,-0.7343592109378826,0.6787500291215752,0.0,0.0,0.0,0.0,0.0,0.0,0.0,0.0,0.0,8.465328490153958e-05,0.00031031528900993027,-0.0022492655250063885,0.0,0.0,0.0,0.0,0.0,0.0,0.0,0.0,0.0,-0.003210556860792147,-0.0005778133787847318,0.0021062904741937644,0.0,0.0,0.0,0.0,0.0,0.0,0.0,0.0,0.0
6.125,172,6,125000000,base_footprint,0.002831269001108148,0.0026301362869429043,-0.7343867908894602,0.6787201983630925,0.0,0.0,0.0,0.0,0.0,0.0,0.0,0.0,0.0,-2.0312385547591457e-05,0.0001709412751837584,-0.00270325613411669,0.0,0.0,0.0,0.0,0.0,0.0,0.0,0.0,0.0,-0.0046868025257446825,0.001280974109611853,-0.00027382216268883,0.0,0.0,0.0,0.0,0.0,0.0,0.0,0.0,0.0
6.159,173,6,159000000,base_footprint,0.0028300824973170346,0.0026297160164125764,-0.7344220318709722,0.6786820716132439,0.0,0.0,0.0,0.0,0.0,0.0,0.0,0.0,0.0,0.00014232658520565826,0.00021967748858678975,-0.0031211906495081524,0.0,0.0,0.0,0.0,0.0,0.0,0.0,0.0,0.0,-0.0051830496966444595,0.00190325730455077,0.0002319798756245895,0.0,0.0,0.0,0.0,0.0,0.0,0.0,0.0,0.0
6.193,174,6,193000000,base_footprint,0.0028293614994082373,0.0026299171527657083,-0.7344583627813984,0.6786427569714002,0.0,0.0,0.0,0.0,0.0,0.0,0.0,0.0,0.0,0.0001328288834180598,0.00014552656178780322,-0.0032477141392652613,0.0,0.0,0.0,0.0,0.0,0.0,0.0,0.0,0.0,-0.005368408691865799,0.0016429418432327427,-0.0001408105971328975,0.0,0.0,0.0,0.0,0.0,0.0,0.0,0.0,0.0
6.227,175,6,227000000,base_footprint,0.0028295074270068194,0.0026303914983116417,-0.7344687437333044,0.6786315196092116,0.0,0.0,0.0,0.0,0.0,0.0,0.0,0.0,0.0,0.00034469384271173023,0.0003660799497453117,0.03570411316998775,0.0,0.0,0.0,0.0,0.0,0.0,0.0,0.0,0.0,0.0009125798519102604,-0.0016799782467223363,-0.00058576278254749,0.0,0.0,0.0,0.0,0.0,0.0,0.0,0.0,0.0
6.261,176,6,261000000,base_footprint,0.002828294623366218,0.002635999776628483,-0.7338726770842159,0.6792760455690656,0.0,0.0,0.0,0.0,0.0,0.0,0.0,0.0,0.0,7.790431279051969e-05,-0.00039012234651381175,0.05173251455765987,0.0,0.0,0.0,0.0,0.0,0.0,0.0,0.0,0.0,0.001290668130437014,-0.008859994027962038,0.0002509418851595976,0.0,0.0,0.0,0.0,0.0,0.0,0.0,0.0,0.0
6.295,177,6,295000000,base_footprint,0.0028277890249980447,0.0026404841946153024,-0.7332731008512742,0.6799232243572837,0.0,0.0,0.0,0.0,0.0,0.0,0.0,0.0,0.0,3.771341958043979e-05,-0.0003955217172886083,0.05195339685855804,0.0,0.0,0.0,0.0,0.0,0.0,0.0,0.0,0.0,-0.006147395500754861,-0.009568147785332274,-0.00010070321354525368,0.0,0.0,0.0,0.0,0.0,0.0,0.0,0.0,0.0
6.329,178,6,329000000,base_footprint,0.0028248081927812235,0.0026357709338427,-0.73268860447414,0.6805530707035239,0.0,0.0,0.0,0.0,0.0,0.0,0.0,0.0,0.0,-0.0011921379916863405,0.007860326881793396,0.03760323447658185,0.0,0.0,0.0,0.0,0.0,0.0,0.0,0.0,0.0,0.06603439636892082,-0.02203217611546311,0.012036908249480519,0.0,0.0,0.0,0.0,0.0,0.0,0.0,0.0,0.0
6.363,179,6,363000000,base_footprint,0.0028306692271332498,0.002651279320829514,-0.7326296277905919,0.6806164753465114,0.0,0.0,0.0,0.0,0.0,0.0,0.0,0.0,0.0,-0.00025164569752325356,0.0004366031616155452,0.0054910437259364795,0.0,0.0,0.0,0.0,0.0,0.0,0.0,0.0,0.0,0.2695474544200025,-0.0428948887076019,-0.01172983983814192,0.0,0.0,0.0,0.0,0.0,0.0,0.0,0.0,0.0
6.396,180,6,397000000,base_footprint,0.0028338667236269,0.002641707671910713,-0.7326239902114504,0.680622567614843,0.0,0.0,0.0,0.0,0.0,0.0,0.0,0.0,0.0,-0.00043833917594447724,0.00014309241730965387,-0.0029057136858869417,0.0,0.0,0.0,0.0,0.0,0.0,0.0,0.0,0.0,-0.01520670743170428,-0.0013298648359622751,-0.0005258934527047535,0.0,0.0,0.0,0.0,0.0,0.0,0.0,0.0,0.0
6.431,181,6,431000000,base_footprint,0.002835690131115079,0.0026398814759248704,-0.7325991918781282,0.6806492591245413,0.0,0.0,0.0,0.0,0.0,0.0,0.0,0.0,0.0,2.0185626123242606e-05,-0.00012712838144683354,0.010034308376956562,0.0,0.0,0.0,0.0,0.0,0.0,0.0,0.0,0.0,0.04371159714271454,-0.0027653900796362936,-0.00041214694974976826,0.0,0.0,0.0,0.0,0.0,0.0,0.0,0.0,0.0
6.465,182,6,465000000,base_footprint,0.00282518552505919,0.0026447707504710185,-0.7326136599002078,0.6806337112148129,0.0,0.0,0.0,0.0,0.0,0.0,0.0,0.0,0.0,0.00030837732614836513,2.8515049164152574e-05,-0.012246803681646153,0.0,0.0,0.0,0.0,0.0,0.0,0.0,0.0,0.0,0.014358042040518338,-0.012685700037378225,0.0003353905898209592,0.0,0.0,0.0,0.0,0.0,0.0,0.0,0.0,0.0
6.499,183,6,499000000,base_footprint,0.0028247666836712913,0.002642520164324519,-0.732900944835768,0.6803243659014445,0.0,0.0,0.0,0.0,0.0,0.0,0.0,0.0,0.0,0.00041246940371500354,0.001347131212314001,-0.027848307630182145,0.0,0.0,0.0,0.0,0.0,0.0,0.0,0.0,0.0,0.04010320818691715,0.008503079808377015,0.001799597255093072,0.0,0.0,0.0,0.0,0.0,0.0,0.0,0.0,0.0
6.533,184,6,533000000,base_footprint,0.002816118638479676,0.002629654694193985,-0.7331854702058592,0.6800178090837155,0.0,0.0,0.0,0.0,0.0,0.0,0.0,0.0,0.0,0.0001222795558149477,0.0009962991976902413,-0.04704379004805734,0.0,0.0,0.0,0.0,0.0,0.0,0.0,0.0,0.0,-0.1400964447148824,0.023227285085125768,-0.00034741104225468255,0.0,0.0,0.0,0.0,0.0,0.0,0.0,0.0,0.0
6.567,185,6,567000000,base_footprint,0.0028191952448404544,0.002629451127841883,-0.7338825654802777,0.679265425447979,0.0,0.0,0.0,0.0,0.0,0.0,0.0,0.0,0.0,0.001224958646970167,0.0013668562098648415,-0.004906172661760206,0.0,0.0,0.0,0.0,0.0,0.0,0.0,0.0,0.0,-0.20936285375907104,0.050798741665137745,0.0005008475760331216,0.0,0.0,0.0,0.0,0.0,0.0,0.0,0.0,0.0
6.601,186,6,601000000,base_footprint,0.002828841159303521,0.0026329942150219742,-0.733752339291332,0.6794060417626983,0.0,0.0,0.0,0.0,0.0,0.0,0.0,0.0,0.0,1.3184765497458337e-05,9.766833524951835e-05,0.01308802739152461,0.0,0.0,0.0,0.0,0.0,0.0,0.0,0.0,0.0,-0.05155988663824263,0.004697190624358298,-0.001315047844824697,0.0,0.0,0.0,0.0,0.0,0.0,0.0,0.0,0.0
6.635,187,6,635000000,base_footprint,0.0028271115066753907,0.002633287452906811,-0.7335710300293915,0.6796018077810982,0.0,0.0,0.0,0.0,0.0,0.0,0.0,0.0,0.0,0.0002472462037788371,0.00023014888533824272,0.022376423061852065,0.0,0.0,0.0,0.0,0.0,0.0,0.0,0.0,0.0,-0.0030747183913318065,-0.0022705598216666858,0.0003874570521225655,0.0,0.0,0.0,0.0,0.0,0.0,0.0,0.0,0.0
6.6690000000000005,188,6,669000000,base_footprint,0.0028247823366391363,0.0026344828392442505,-0.733315749196128,0.6798772625157,0.0,0.0,0.0,0.0,0.0,0.0,0.0,0.0,0.0,0.0001156462318479113,-4.219059573413056e-05,0.02202808500939047,0.0,0.0,0.0,0.0,0.0,0.0,0.0,0.0,0.0,-0.006160321756555008,-0.004367693613464868,-0.00044385558944904426,0.0,0.0,0.0,0.0,0.0,0.0,0.0,0.0,0.0
6.703,189,6,703000000,base_footprint,0.0028237915421086505,0.00263630065327837,-0.7330605326908638,0.6801524325702138,0.0,0.0,0.0,0.0,0.0,0.0,0.0,0.0,0.0,8.979285695525257e-05,-6.105723500635356e-05,0.022118649851762498,0.0,0.0,0.0,0.0,0.0,0.0,0.0,0.0,0.0,-0.005600339109290288,-0.0036249049090705207,-7.994924237943892e-05,0.0,0.0,0.0,0.0,0.0,0.0,0.0,0.0,0.0
6.737,190,6,737000000,base_footprint,0.0028235196125125403,0.0026384371193425215,-0.7328486487929304,0.6803807201478753,0.0,0.0,0.0,0.0,0.0,0.0,0.0,0.0,0.0,0.00010239462776052627,-0.00024437563907225173,0.011344655386269099,0.0,0.0,0.0,0.0,0.0,0.0,0.0,0.0,0.0,-0.008945338984362313,-0.003044650946575298,-0.00047282736538097265,0.0,0.0,0.0,0.0,0.0,0.0,0.0,0.0,0.0
6.771,191,6,771000000,base_footprint,0.002824816567677173,0.002641956374719412,-0.732713641180459,0.6805260909810489,0.0,0.0,0.0,0.0,0.0,0.0,0.0,0.0,0.0,0.00011265142798285871,-0.00018671563660802246,0.011837771355541175,0.0,0.0,0.0,0.0,0.0,0.0,0.0,0.0,0.0,-0.004656545690583533,-0.0010266841935247751,-8.877604592640285e-06,0.0,0.0,0.0,0.0,0.0,0.0,0.0,0.0,0.0
6.805,192,6,805000000,base_footprint,0.0028266940487954345,0.0026466768955520385,-0.7325717759659919,0.6806787773687364,0.0,0.0,0.0,0.0,0.0,0.0,0.0,0.0,0.0,5.782327015091461e-05,-0.0002363938723653351,0.012939661339099353,0.0,0.0,0.0,0.0,0.0,0.0,0.0,0.0,0.0,-0.00257503742082398,-0.0017596308758651307,-0.0002255695355850827,0.0,0.0,0.0,0.0,0.0,0.0,0.0,0.0,0.0
6.839,193,6,839000000,base_footprint,0.002828677132257342,0.002651755301367947,-0.7323833666221642,0.6808814662440797,0.0,0.0,0.0,0.0,0.0,0.0,0.0,0.0,0.0,-0.00019689329272468828,-0.0001373116261962686,0.021618861010471682,0.0,0.0,0.0,0.0,0.0,0.0,0.0,0.0,0.0,0.004679697607361584,-0.003341943759497955,0.000313505155273558,0.0,0.0,0.0,0.0,0.0,0.0,0.0,0.0,0.0
6.873,194,6,873000000,base_footprint,0.0028319705099460893,0.0026455432908634494,-0.7321599558308511,0.6811217072752073,0.0,0.0,0.0,0.0,0.0,0.0,0.0,0.0,0.0,-0.0004720173139479383,-1.667658063328898e-05,0.016969100782564618,0.0,0.0,0.0,0.0,0.0,0.0,0.0,0.0,0.0,-0.005519768039015367,-0.009558389030981418,8.141948299017681e-05,0.0,0.0,0.0,0.0,0.0,0.0,0.0,0.0,0.0
6.907,195,6,907000000,base_footprint,0.00283286876630739,0.0026432255646756083,-0.731925356019671,0.6813738044778689,0.0,0.0,0.0,0.0,0.0,0.0,0.0,0.0,0.0,-0.00017261263895328781,-0.0001003715020830289,0.027890776881998976,0.0,0.0,0.0,0.0,0.0,0.0,0.0,0.0,0.0,0.03477683726469117,-0.0061216622832784215,-2.6933315990908266e-05,0.0,0.0,0.0,0.0,0.0,0.0,0.0,0.0,0.0
6.941,196,6,941000000,base_footprint,0.0028217425794230143,0.0026486866837553604,-0.7316868959419928,0.681629891168542,0.0,0.0,0.0,0.0,0.0,0.0,0.0,0.0,0.0,0.0002741507055132092,8.768652429062003e-05,0.010090462470392286,0.0,0.0,0.0,0.0,0.0,0.0,0.0,0.0,0.0,0.03785711897930634,-0.018951842752505423,4.448801951939615e-05,0.0,0.0,0.0,0.0,0.0,0.0,0.0,0.0,0.0
6.975,197,6,975000000,base_footprint,0.0028205519623447687,0.002647943520240003,-0.7316909827394045,0.6816255120369146,0.0,0.0,0.0,0.0,0.0,0.0,0.0,0.0,0.0,0.0008797652618974098,0.0002572099148982933,-0.00014804469419269878,0.0,0.0,0.0,0.0,0.0,0.0,0.0,0.0,0.0,0.023359749385535956,0.0036011849998040246,0.0009728348381446481,0.0,0.0,0.0,0.0,0.0,0.0,0.0,0.0,0.0
7.009,198,7,9000000,base_footprint,0.00282695724287224,0.002646930685331954,-0.7315269706011047,0.6818015058313266,0.0,0.0,0.0,0.0,0.0,0.0,0.0,0.0,0.0,-0.00047156343138615096,-0.00033146286343940486,0.028558259446927317,0.0,0.0,0.0,0.0,0.0,0.0,0.0,0.0,0.0,-0.06274602827711714,0.009403826045429903,-0.0010518208741767733,0.0,0.0,0.0,0.0,0.0,0.0,0.0,0.0,0.0
7.043,199,7,43000000,base_footprint,0.002824263372487262,0.0026463045778339395,-0.7313271902964728,0.6820158072519662,0.0,0.0,0.0,0.0,0.0,0.0,0.0,0.0,0.0,-1.8002863336737178e-05,-0.0001547065845923532,-0.033972436527077425,0.0,0.0,0.0,0.0,0.0,0.0,0.0,0.0,0.0,0.2771484461871821,-0.04567728783377127,-0.0005427401662584133,0.0,0.0,0.0,0.0,0.0,0.0,0.0,0.0,0.0
7.077,200,7,77000000,base_footprint,0.0028215090816060616,0.0026419145239012696,-0.7314892413450003,0.6818420265506278,0.0,0.0,0.0,0.0,0.0,0.0,0.0,0.0,0.0,0.0002982731505644237,0.0010903677825601578,0.02061380851061337,0.0,0.0,0.0,0.0,0.0,0.0,0.0,0.0,0.0,0.05442164971408432,-0.0032846888448045224,0.0021661302816801866,0.0,0.0,0.0,0.0,0.0,0.0,0.0,0.0,0.0
7.111,201,7,111000000,base_footprint,0.0028184209976869403,0.0026418916211231147,-0.7312531276851792,0.6820952573961977,0.0,0.0,0.0,0.0,0.0,0.0,0.0,0.0,0.0,1.3629488115838914e-05,0.0001150596242373941,0.020244000842654705,0.0,0.0,0.0,0.0,0.0,0.0,0.0,0.0,0.0,-0.005656161874958963,-0.003500709817102513,-0.0012943766696467537,0.0,0.0,0.0,0.0,0.0,0.0,0.0,0.0,0.0
7.145,202,7,145000000,base_footprint,0.0028164189688634645,0.00264308886264927,-0.7309749477136148,0.682393367260068,0.0,0.0,0.0,0.0,0.0,0.0,0.0,0.0,0.0,1.515161491166666e-06,-5.568525830055529e-05,0.026503006085886995,0.0,0.0,0.0,0.0,0.0,0.0,0.0,0.0,0.0,-0.004268577966676415,-0.004314902072081582,-0.00023423013693944273,0.0,0.0,0.0,0.0,0.0,0.0,0.0,0.0,0.0
7.179,203,7,179000000,base_footprint,0.002815278468247136,0.002645498573178597,-0.7306688225692043,0.6827211343365447,0.0,0.0,0.0,0.0,0.0,0.0,0.0,0.0,0.0,1.7925685900983978e-05,-9.168291797397766e-05,0.026244487185648105,0.0,0.0,0.0,0.0,0.0,0.0,0.0,0.0,0.0,-0.0060691520425593766,-0.00462737103539319,-0.00016046073120729688,0.0,0.0,0.0,0.0,0.0,0.0,0.0,0.0,0.0
7.213,204,7,213000000,base_footprint,0.0028150348756452587,0.0026491298285899636,-0.7303651409067078,0.683045985741901,0.0,0.0,0.0,0.0,0.0,0.0,0.0,0.0,0.0,3.762465076417149e-05,-0.00018286999373816934,0.026048698910094294,0.0,0.0,0.0,0.0,0.0,0.0,0.0,0.0,0.0,-0.005800640336765168,-0.004586967899568728,-0.00024010310260398109,0.0,0.0,0.0,0.0,0.0,0.0,0.0,0.0,0.0
7.247,205,7,247000000,base_footprint,0.0028138368845496515,0.002646823936720969,-0.730339829515202,0.6830730634922891,0.0,0.0,0.0,0.0,0.0,0.0,0.0,0.0,0.0,-0.000603806046857246,0.0005223384532134272,-0.057436020930240916,0.0,0.0,0.0,0.0,0.0,0.0,0.0,0.0,0.0,-0.3433900948237348,0.04333883612443151,0.00131446046321724,0.0,0.0,0.0,0.0,0.0,0.0,0.0,0.0,0.0
7.281,206,7,281000000,base_footprint,0.0028201938663201067,0.002655166554361952,-0.7304910164201253,0.6829113203971781,0.0,0.0,0.0,0.0,0.0,0.0,0.0,0.0,0.0,-8.966530055398581e-05,-0.00046162106561625923,0.015761176430520506,0.0,0.0,0.0,0.0,0.0,0.0,0.0,0.0,0.0,-0.004274725469400949,0.006425921000117956,-0.00159883326924662,0.0,0.0,0.0,0.0,0.0,0.0,0.0,0.0,0.0
7.315,207,7,315000000,base_footprint,0.0028218621842130477,0.0026584341849573284,-0.7302922767047838,0.6831238250909137,0.0,0.0,0.0,0.0,0.0,0.0,0.0,0.0,0.0,-4.399007782380326e-05,-0.00015445924954983264,0.018125316373838508,0.0,0.0,0.0,0.0,0.0,0.0,0.0,0.0,0.0,0.0008200598078874527,-0.0024647935442496465,0.00014739789699988958,0.0,0.0,0.0,0.0,0.0,0.0,0.0,0.0,0.0
7.349,208,7,349000000,base_footprint,0.0028230185307016676,0.0026571958522788814,-0.7300242181184655,0.6834102800200631,0.0,0.0,0.0,0.0,0.0,0.0,0.0,0.0,0.0,-0.0004923396146024954,0.0002542677840859444,0.025332661736141307,0.0,0.0,0.0,0.0,0.0,0.0,0.0,0.0,0.0,0.00502032303266776,-0.009492322724516937,0.0008133543898784924,0.0,0.0,0.0,0.0,0.0,0.0,0.0,0.0,0.0
7.383,209,7,383000000,base_footprint,0.002824474425999365,0.0026535308682181513,-0.7297286437525984,0.6837258863061583,0.0,0.0,0.0,0.0,0.0,0.0,0.0,0.0,0.0,-0.00014328133280797845,0.00013858275839012373,0.029176937721466796,0.0,0.0,0.0,0.0,0.0,0.0,0.0,0.0,0.0,0.019463470506214414,-0.004895637513552875,-0.00017445757708374563,0.0,0.0,0.0,0.0,0.0,0.0,0.0,0.0,0.0
7.417,210,7,417000000,base_footprint,0.0028159085151062612,0.0026588793613558175,-0.7294269558574733,0.6840477447432132,0.0,0.0,0.0,0.0,0.0,0.0,0.0,0.0,0.0,0.00071242750204928,8.453259765241737e-05,0.010862968138901391,0.0,0.0,0.0,0.0,0.0,0.0,0.0,0.0,0.0,0.026336036773681473,-0.019879342100175834,-0.0003763984699992613,0.0,0.0,0.0,0.0,0.0,0.0,0.0,0.0,0.0
7.451,211,7,451000000,base_footprint,0.0028119540548933674,0.0026572513013819934,-0.7294070539464467,0.6840689889061483,0.0,0.0,0.0,0.0,0.0,0.0,0.0,0.0,0.0,0.000674680937089121,0.000828212970654024,9.978205089562264e-05,0.0,0.0,0.0,0.0,0.0,0.0,0.0,0.0,0.0,0.04174169917547165,0.0003329469126204035,0.0009687131222273868,0.0,0.0,0.0,0.0,0.0,0.0,0.0,0.0,0.0
7.485,212,7,485000000,base_footprint,0.002816127184055834,0.002656667832647736,-0.7292731495183818,0.6842117252249118,0.0,0.0,0.0,0.0,0.0,0.0,0.0,0.0,0.0,-0.0012841467398494112,-0.0005142234321698376,0.026167530018607624,0.0,0.0,0.0,0.0,0.0,0.0,0.0,0.0,0.0,-0.0542862642441924,0.00852404880178868,-0.0017447290042578326,0.0,0.0,0.0,0.0,0.0,0.0,0.0,0.0,0.0
7.519,213,7,519000000,base_footprint,0.0028134141223743244,0.0026544758963282992,-0.7289657805161811,0.6845392094651166,0.0,0.0,0.0,0.0,0.0,0.0,0.0,0.0,0.0,-8.657067323796163e-05,0.00021390150888248092,0.025841100161008178,0.0,0.0,0.0,0.0,0.0,0.0,0.0,0.0,0.0,-0.006369685686285699,-0.006763277478957627,0.0012715104237105497,0.0,0.0,0.0,0.0,0.0,0.0,0.0,0.0,0.0
7.553,214,7,553000000,base_footprint,0.0028105879773010502,0.002653684241263396,-0.7286636183146113,0.6848608544075417,0.0,0.0,0.0,0.0,0.0,0.0,0.0,0.0,0.0,-4.283684484059033e-05,0.00013363750880457343,0.025828950075216538,0.0,0.0,0.0,0.0,0.0,0.0,0.0,0.0,0.0,-0.005529375428935185,-0.0048249795564531545,-7.886955193934229e-05,0.0,0.0,0.0,0.0,0.0,0.0,0.0,0.0,0.0
7.587,215,7,587000000,base_footprint,0.0028072986196990314,0.002653653077271442,-0.7283640832943254,0.6851794212953438,0.0,0.0,0.0,0.0,0.0,0.0,0.0,0.0,0.0,4.3923683465313715e-06,7.615416774097266e-05,0.025587592391905757,0.0,0.0,0.0,0.0,0.0,0.0,0.0,0.0,0.0,-0.006277960915501576,-0.00476536692292478,-0.00012816371491117956,0.0,0.0,0.0,0.0,0.0,0.0,0.0,0.0,0.0
7.621,216,7,621000000,base_footprint,0.0028052252227084825,0.002654829168839762,-0.7280673408279974,0.685494733614477,0.0,0.0,0.0,0.0,0.0,0.0,0.0,0.0,0.0,4.406749689175578e-06,-6.797445761847467e-06,0.02532639029212498,0.0,0.0,0.0,0.0,0.0,0.0,0.0,0.0,0.0,-0.006309941918007678,-0.004810321384732417,-0.00020765015690985797,0.0,0.0,0.0,0.0,0.0,0.0,0.0,0.0,0.0
7.655,217,7,655000000,base_footprint,0.00280464826235879,0.0026568292828681042,-0.727873592569355,0.6857004509597954,0.0,0.0,0.0,0.0,0.0,0.0,0.0,0.0,0.0,2.0852651401228703e-05,-6.126997341142339e-06,0.015387490485397956,0.0,0.0,0.0,0.0,0.0,0.0,0.0,0.0,0.0,-0.008556719986634211,-0.002621807434215807,-0.00018978328882678655,0.0,0.0,0.0,0.0,0.0,0.0,0.0,0.0,0.0
7.689,218,7,689000000,base_footprint,0.002805048163784444,0.002660099416324484,-0.7276954903640867,0.6858894436275177,0.0,0.0,0.0,0.0,0.0,0.0,0.0,0.0,0.0,4.302863110374065e-05,-0.00011775195787629653,0.015154258422656438,0.0,0.0,0.0,0.0,0.0,0.0,0.0,0.0,0.0,-0.005743501134520603,-0.002592460504853243,-0.0002629547322967932,0.0,0.0,0.0,0.0,0.0,0.0,0.0,0.0,0.0
7.723,219,7,723000000,base_footprint,0.0028065931930485446,0.0026650265194570495,-0.727519159699928,0.6860764483188518,0.0,0.0,0.0,0.0,0.0,0.0,0.0,0.0,0.0,0.0001075877275343623,-0.00027019034053621003,0.015132199140803847,0.0,0.0,0.0,0.0,0.0,0.0,0.0,0.0,0.0,-0.004992943840839372,-0.0025157178122547953,-0.0004046799826298707,0.0,0.0,0.0,0.0,0.0,0.0,0.0,0.0,0.0
7.757,220,7,757000000,base_footprint,0.002808969287975361,0.002669351736351764,-0.726892582548445,0.686740240330286,0.0,0.0,0.0,0.0,0.0,0.0,0.0,0.0,0.0,0.0012648423282976236,-0.0024358800712852295,0.10394959202167191,0.0,0.0,0.0,0.0,0.0,0.0,0.0,0.0,0.0,0.35600518029109773,-0.04807731862726178,-0.0037275401223299956,0.0,0.0,0.0,0.0,0.0,0.0,0.0,0.0,0.0
7.791,221,7,791000000,base_footprint,0.002804713082318431,0.0026775525401693066,-0.7256714349323445,0.6880304737583596,0.0,0.0,0.0,0.0,0.0,0.0,0.0,0.0,0.0,-3.936349085016322e-05,-0.0008718616074260421,0.10478133349533228,0.0,0.0,0.0,0.0,0.0,0.0,0.0,0.0,0.0,-0.000880219023978928,-0.02388351461585659,0.0033198390819339243,0.0,0.0,0.0,0.0,0.0,0.0,0.0,0.0,0.0
7.825,222,7,825000000,base_footprint,0.002800941604775822,0.0026822283068632926,-0.7244571286115624,0.6893089504578673,0.0,0.0,0.0,0.0,0.0,0.0,0.0,0.0,0.0,0.0005890551004595203,-0.00048746063987380823,0.10125642606131452,0.0,0.0,0.0,0.0,0.0,0.0,0.0,0.0,0.0,-0.005070361043035104,-0.021635467268672742,0.0010365075170134538,0.0,0.0,0.0,0.0,0.0,0.0,0.0,0.0,0.0
7.859,223,7,859000000,base_footprint,0.002798345794988517,0.002678625767681858,-0.7233730701133043,0.6904465190437714,0.0,0.0,0.0,0.0,0.0,0.0,0.0,0.0,0.0,-0.0001557352514893756,-0.00020231796226038445,0.09154084496190261,0.0,0.0,0.0,0.0,0.0,0.0,0.0,0.0,0.0,0.009832690025168421,-0.020026085091578348,-0.00020780486236071194,0.0,0.0,0.0,0.0,0.0,0.0,0.0,0.0,0.0
7.893,224,7,893000000,base_footprint,0.0027873786159422396,0.002686250079398899,-0.722241534788343,0.6916300889981156,0.0,0.0,0.0,0.0,0.0,0.0,0.0,0.0,0.0,0.0008138726075120832,-0.0013299805679219336,0.08439326712467796,0.0,0.0,0.0,0.0,0.0,0.0,0.0,0.0,0.0,0.06077926919033695,-0.029487870337274846,-0.0026843772769507236,0.0,0.0,0.0,0.0,0.0,0.0,0.0,0.0,0.0
7.927,225,7,927000000,base_footprint,0.002782042449194236,0.002685331023408235,-0.7214215144143297,0.692485413403951,0.0,0.0,0.0,0.0,0.0,0.0,0.0,0.0,0.0,-0.0020795420673425324,0.001728325040540659,0.06353765977243248,0.0,0.0,0.0,0.0,0.0,0.0,0.0,0.0,0.0,-0.0039668928247996475,-0.016720841732412617,0.009862432965941838,0.0,0.0,0.0,0.0,0.0,0.0,0.0,0.0,0.0
7.961,226,7,961000000,base_footprint,0.002777259821799378,0.0026864847156011346,-0.7211789703549975,0.6927380185506358,0.0,0.0,0.0,0.0,0.0,0.0,0.0,0.0,0.0,-0.0016901072630303297,-0.003218005424301916,0.01324824843119991,0.0,0.0,0.0,0.0,0.0,0.0,0.0,0.0,0.0,-0.24545196670905783,0.016663225891420053,-0.00948209503017357,0.0,0.0,0.0,0.0,0.0,0.0,0.0,0.0,0.0
7.995,227,7,995000000,base_footprint,0.002782005481673423,0.0026910359370220203,-0.7204996759115604,0.6934444720252821,0.0,0.0,0.0,0.0,0.0,0.0,0.0,0.0,0.0,-0.00035704729865144666,-0.000312482900065803,0.08328805295768463,0.0,0.0,0.0,0.0,0.0,0.0,0.0,0.0,0.0,-0.1382729824502824,0.003971710432627923,0.0019508528885714914,0.0,0.0,0.0,0.0,0.0,0.0,0.0,0.0,0.0
8.029,228,8,29000000,base_footprint,0.0027751382167019657,0.0026909675480779978,-0.7195184405240805,0.6944625771395668,0.0,0.0,0.0,0.0,0.0,0.0,0.0,0.0,0.0,-0.0008289685680038898,-0.00037888313761156537,0.09130155893893203,0.0,0.0,0.0,0.0,0.0,0.0,0.0,0.0,0.0,-0.0006899381307317962,-0.02086050143736519,-0.00010294301246931892,0.0,0.0,0.0,0.0,0.0,0.0,0.0,0.0,0.0
8.063,229,8,63000000,base_footprint,0.0027685702827994806,0.002693597735567612,-0.718441770287249,0.6955763813244036,0.0,0.0,0.0,0.0,0.0,0.0,0.0,0.0,0.0,-3.892942102371509e-05,-0.00041501886237111876,0.09091526352574467,0.0,0.0,0.0,0.0,0.0,0.0,0.0,0.0,0.0,-0.006129975864630034,-0.018905229946134434,-0.00030372200704413343,0.0,0.0,0.0,0.0,0.0,0.0,0.0,0.0,0.0
8.097,230,8,97000000,base_footprint,0.0027636021169378583,0.0026973596069583576,-0.7173671963613223,0.6966845716241935,0.0,0.0,0.0,0.0,0.0,0.0,0.0,0.0,0.0,-3.668399183284162e-05,-0.0004965932449865927,0.09069168026550385,0.0,0.0,0.0,0.0,0.0,0.0,0.0,0.0,0.0,-0.006866515824708613,-0.019470377578419018,-0.0003145579530625447,0.0,0.0,0.0,0.0,0.0,0.0,0.0,0.0,0.0
8.131,231,8,131000000,base_footprint,0.002760105934127706,0.002701069652426236,-0.7164593342863456,0.6976181680202515,0.0,0.0,0.0,0.0,0.0,0.0,0.0,0.0,0.0,-5.647285794770128e-07,0.0009650476893387607,-0.02826701719839051,0.0,0.0,0.0,0.0,0.0,0.0,0.0,0.0,0.0,-0.01341837853787567,-0.014832708257033091,0.0007083881624712463,0.0,0.0,0.0,0.0,0.0,0.0,0.0,0.0,0.0
8.165,232,8,165000000,base_footprint,0.002767438827092425,0.0026989761213241144,-0.7173776297224085,0.696673806873844,0.0,0.0,0.0,0.0,0.0,0.0,0.0,0.0,0.0,-0.0004136275833149033,0.0014179403672143947,-0.029869111223288853,0.0,0.0,0.0,0.0,0.0,0.0,0.0,0.0,0.0,0.06104741733895032,0.01315529526783098,0.0005817340093853776,0.0,0.0,0.0,0.0,0.0,0.0,0.0,0.0,0.0
8.199,233,8,199000000,base_footprint,0.002765080005540926,0.002705371797661294,-0.7168302447718283,0.6972370009375292,0.0,0.0,0.0,0.0,0.0,0.0,0.0,0.0,0.0,1.2402504994237678e-05,-0.0008125749949374947,0.0720575418555196,0.0,0.0,0.0,0.0,0.0,0.0,0.0,0.0,0.0,0.27266858963756013,-0.02566939874184483,-0.002093477774990256,0.0,0.0,0.0,0.0,0.0,0.0,0.0,0.0,0.0
8.233,234,8,233000000,base_footprint,0.0027596948306368723,0.0027060053874349292,-0.7159902104488658,0.6980996205132001,0.0,0.0,0.0,0.0,0.0,0.0,0.0,0.0,0.0,9.619651196231499e-05,0.0007514527016077897,0.06448309213166273,0.0,0.0,0.0,0.0,0.0,0.0,0.0,0.0,0.0,-0.15665286711809656,-0.006925281427845931,0.002253097952782553,0.0,0.0,0.0,0.0,0.0,0.0,0.0,0.0,0.0
8.267,235,8,267000000,base_footprint,0.0027622995252030787,0.0027020015004073942,-0.715421942544436,0.6986819827469223,0.0,0.0,0.0,0.0,0.0,0.0,0.0,0.0,0.0,0.000826519710226984,-0.005238750760966932,0.061200956678423735,0.0,0.0,0.0,0.0,0.0,0.0,0.0,0.0,0.0,-0.24980978603019946,0.0023855666921486496,-0.008378170432120045,0.0,0.0,0.0,0.0,0.0,0.0,0.0,0.0,0.0
8.301,236,8,301000000,base_footprint,0.002763466526530483,0.0027212219885672313,-0.7144794347288386,0.6996456928711884,0.0,0.0,0.0,0.0,0.0,0.0,0.0,0.0,0.0,1.10110625257904e-06,-0.0003496745923012227,0.07920492173441548,0.0,0.0,0.0,0.0,0.0,0.0,0.0,0.0,0.0,0.06128873155080042,-0.01852021980951772,0.006352462312229919,0.0,0.0,0.0,0.0,0.0,0.0,0.0,0.0,0.0
8.335,237,8,335000000,base_footprint,0.002748823090802751,0.00271316814260115,-0.7136005138570367,0.7005422109432227,0.0,0.0,0.0,0.0,0.0,0.0,0.0,0.0,0.0,-0.0022883493791765143,0.0016541146705308732,0.05408061037986808,0.0,0.0,0.0,0.0,0.0,0.0,0.0,0.0,0.0,0.02621569679226546,-0.02636386704519564,0.005018876009212353,0.0,0.0,0.0,0.0,0.0,0.0,0.0,0.0,0.0
8.369,238,8,369000000,base_footprint,0.0027607020754933293,0.002719297719519453,-0.7132029802203873,0.7009468545822293,0.0,0.0,0.0,0.0,0.0,0.0,0.0,0.0,0.0,0.0010198177214325768,0.0016492378004154752,0.029204654297270705,0.0,0.0,0.0,0.0,0.0,0.0,0.0,0.0,0.0,0.09339636002694808,-0.01088157021442604,-0.002467402071006916,0.0,0.0,0.0,0.0,0.0,0.0,0.0,0.0,0.0
8.403,239,8,403000000,base_footprint,0.002755340925559733,0.0027204079299223555,-0.7127024947201362,0.7014557445033671,0.0,0.0,0.0,0.0,0.0,0.0,0.0,0.0,0.0,-0.001481340973062358,-0.0005334915165113885,0.0777901561064567,0.0,0.0,0.0,0.0,0.0,0.0,0.0,0.0,0.0,0.2666873588246834,-0.009344031315533574,-0.0032231942162848208,0.0,0.0,0.0,0.0,0.0,0.0,0.0,0.0,0.0
8.437,240,8,437000000,base_footprint,0.002746613397763159,0.00271197643804877,-0.7120824587854049,0.7020852321397844,0.0,0.0,0.0,0.0,0.0,0.0,0.0,0.0,0.0,-0.0007403044585026103,0.0002684974905364759,-0.04643205263486759,0.0,0.0,0.0,0.0,0.0,0.0,0.0,0.0,0.0,-0.009584646437518812,-0.014354956780212258,0.001600388650854186,0.0,0.0,0.0,0.0,0.0,0.0,0.0,0.0,0.0
8.471,241,8,471000000,base_footprint,0.0027540507704540175,0.002722260866877864,-0.7127811324985688,0.701375834809116,0.0,0.0,0.0,0.0,0.0,0.0,0.0,0.0,0.0,6.0745357042215036e-05,0.0005452436001403104,0.006166880271616949,0.0,0.0,0.0,0.0,0.0,0.0,0.0,0.0,0.0,0.14411859402629512,0.008068041872735549,-0.0005636174895748303,0.0,0.0,0.0,0.0,0.0,0.0,0.0,0.0,0.0
8.505,242,8,505000000,base_footprint,0.002746263869738791,0.0027209501088366938,-0.7119957566666598,0.7021731246309086,0.0,0.0,0.0,0.0,0.0,0.0,0.0,0.0,0.0,-3.219910156225915e-05,0.00023360172997784036,0.07765198241859633,0.0,0.0,0.0,0.0,0.0,0.0,0.0,0.0,0.0,0.19003128173464906,-0.017126308226851933,0.00023733274523145707,0.0,0.0,0.0,0.0,0.0,0.0,0.0,0.0,0.0
8.539,243,8,539000000,base_footprint,0.0027352501305972434,0.002716463852013046,-0.7111572839897055,0.7030223728013563,0.0,0.0,0.0,0.0,0.0,0.0,0.0,0.0,0.0,1.4701453710366471e-05,0.0008878289618462291,0.046535890326951254,0.0,0.0,0.0,0.0,0.0,0.0,0.0,0.0,0.0,-0.30920955413816187,-0.0071618673654126885,0.0002123310526010514,0.0,0.0,0.0,0.0,0.0,0.0,0.0,0.0,0.0
8.573,244,8,573000000,base_footprint,0.0027412628615368696,0.002724042111155245,-0.710980905587464,0.7032006946544709,0.0,0.0,0.0,0.0,0.0,0.0,0.0,0.0,0.0,-0.0005607268929377141,0.000785502478562473,0.067329468321387,0.0,0.0,0.0,0.0,0.0,0.0,0.0,0.0,0.0,-0.05412306574232102,-0.0005122545743246991,0.0003520100035127983,0.0,0.0,0.0,0.0,0.0,0.0,0.0,0.0,0.0
8.607,245,8,607000000,base_footprint,0.002736393977179667,0.002725414552680688,-0.7101486785439834,0.7040411483896035,0.0,0.0,0.0,0.0,0.0,0.0,0.0,0.0,0.0,-2.6607108333332564e-05,-0.00037399700397311024,0.06931210777197247,0.0,0.0,0.0,0.0,0.0,0.0,0.0,0.0,0.0,0.0036263162685312563,-0.015297853589620762,-0.0017397553230915394,0.0,0.0,0.0,0.0,0.0,0.0,0.0,0.0,0.0
8.641,246,8,641000000,base_footprint,0.0027348921276692025,0.0027237915538157105,-0.7100298302654896,0.7041610195529013,0.0,0.0,0.0,0.0,0.0,0.0,0.0,0.0,0.0,0.0005010591656571303,-0.00020673465645564774,-0.0953021257959358,0.0,0.0,0.0,0.0,0.0,0.0,0.0,0.0,0.0,-0.05203348943112907,-0.0046628320235360295,-0.001735369855450592,0.0,0.0,0.0,0.0,0.0,0.0,0.0,0.0,0.0
8.675,247,8,675000000,base_footprint,0.002743856544691352,0.0027236173293261772,-0.7107459709863491,0.7034381407675998,0.0,0.0,0.0,0.0,0.0,0.0,0.0,0.0,0.0,-0.0002570095140981831,0.00013034402066927303,0.020243260079613447,0.0,0.0,0.0,0.0,0.0,0.0,0.0,0.0,0.0,0.2620760311032607,0.01008661274753031,0.001958802311842192,0.0,0.0,0.0,0.0,0.0,0.0,0.0,0.0,0.0
8.709,248,8,709000000,base_footprint,0.0027410479368288236,0.0027334083598040833,-0.7100469963658952,0.704143648758346,0.0,0.0,0.0,0.0,0.0,0.0,0.0,0.0,0.0,7.535306430152605e-05,-0.0006535791552746754,0.06299901522628423,0.0,0.0,0.0,0.0,0.0,0.0,0.0,0.0,0.0,0.11470208509092644,-0.012796785526538658,-0.0010413924634900703,0.0,0.0,0.0,0.0,0.0,0.0,0.0,0.0,0.0
8.743,249,8,743000000,base_footprint,0.0027349787630046893,0.002731638948562676,-0.7093668134332514,0.704828902670269,0.0,0.0,0.0,0.0,0.0,0.0,0.0,0.0,0.0,5.401880675769715e-05,-0.00026214556565159244,0.04308461263382583,0.0,0.0,0.0,0.0,0.0,0.0,0.0,0.0,0.0,-0.2960823617835323,-0.007567987994154812,0.00055778795795142,0.0,0.0,0.0,0.0,0.0,0.0,0.0,0.0,0.0
8.777,250,8,777000000,base_footprint,0.0027363156720359686,0.0027366522995603405,-0.70898145178511,0.7052165088364084,0.0,0.0,0.0,0.0,0.0,0.0,0.0,0.0,0.0,0.0006044972528220899,-0.001998063115807387,0.03666397626743304,0.0,0.0,0.0,0.0,0.0,0.0,0.0,0.0,0.0,-0.3689494558763532,-0.0033770436852393615,-0.0031312571072786327,0.0,0.0,0.0,0.0,0.0,0.0,0.0,0.0,0.0
8.811,251,8,811000000,base_footprint,0.0027391149984045088,0.0027448389234969854,-0.7083476550938396,0.7058530743939341,0.0,0.0,0.0,0.0,0.0,0.0,0.0,0.0,0.0,-1.1222641787699985e-05,-0.00010783203519494698,0.05231176083874943,0.0,0.0,0.0,0.0,0.0,0.0,0.0,0.0,0.0,-0.02016797528064455,-0.005786716081442805,0.0031417621977341582,0.0,0.0,0.0,0.0,0.0,0.0,0.0,0.0,0.0
8.845,252,8,845000000,base_footprint,0.002739450046435043,0.0027378679162230984,-0.7078586277917983,0.7063435159704016,0.0,0.0,0.0,0.0,0.0,0.0,0.0,0.0,0.0,-0.001426727458464087,-0.0020539048134703614,0.020793059741680206,0.0,0.0,0.0,0.0,0.0,0.0,0.0,0.0,0.0,0.04717828217289778,-0.025086781436042593,-0.00204014338103252,0.0,0.0,0.0,0.0,0.0,0.0,0.0,0.0,0.0
8.879,253,8,879000000,base_footprint,0.002731553314696439,0.0027409329582534984,-0.7078393950312296,0.7063628081551508,0.0,0.0,0.0,0.0,0.0,0.0,0.0,0.0,0.0,0.0006024196873810245,0.0013460584317293118,-0.0015144107926587601,0.0,0.0,0.0,0.0,0.0,0.0,0.0,0.0,0.0,0.16932691327346433,0.008736897805363242,0.0034581790925093314,0.0,0.0,0.0,0.0,0.0,0.0,0.0,0.0,0.0
8.913,254,8,913000000,base_footprint,0.002733429047689042,0.0027428577536579117,-0.7073970243517557,0.7068058114045654,0.0,0.0,0.0,0.0,0.0,0.0,0.0,0.0,0.0,0.0008597540874328888,-0.000732670184584133,0.05528194688606973,0.0,0.0,0.0,0.0,0.0,0.0,0.0,0.0,0.0,0.17335765818038185,-0.006447188465290368,-0.003098147360130376,0.0,0.0,0.0,0.0,0.0,0.0,0.0,0.0,0.0
8.947,255,8,947000000,base_footprint,0.002718180783592147,0.0027316275730080264,-0.7069003930772462,0.7073026113137608,0.0,0.0,0.0,0.0,0.0,0.0,0.0,0.0,0.0,-6.999815988577506e-06,-6.129770147183584e-05,0.012436838088754945,0.0,0.0,0.0,0.0,0.0,0.0,0.0,0.0,0.0,-0.2942264257198438,-0.010493852355373118,0.001427279352739735,0.0,0.0,0.0,0.0,0.0,0.0,0.0,0.0,0.0
8.981,256,8,981000000,base_footprint,0.002727201424459076,0.002744624260978348,-0.706437296777753,0.7077650564498063,0.0,0.0,0.0,0.0,0.0,0.0,0.0,0.0,0.0,-0.0001159184317093405,-0.00043757838481153164,0.05893577196515298,0.0,0.0,0.0,0.0,0.0,0.0,0.0,0.0,0.0,-0.06326732002056436,-0.008166096079335168,-2.007267327086814e-05,0.0,0.0,0.0,0.0,0.0,0.0,0.0,0.0,0.0
9.015,257,9,15000000,base_footprint,0.002720968706220255,0.0027434716706641158,-0.7057343028643822,0.708466063727132,0.0,0.0,0.0,0.0,0.0,0.0,0.0,0.0,0.0,-5.369830771306564e-05,-9.391531366897815e-05,0.05824944014648427,0.0,0.0,0.0,0.0,0.0,0.0,0.0,0.0,0.0,-0.003636433600017513,-0.012619746173617098,0.0003047206486517924,0.0,0.0,0.0,0.0,0.0,0.0,0.0,0.0,0.0
9.049,258,9,49000000,base_footprint,0.0027209736970044344,0.002740138892922778,-0.7061609814151704,0.7080407871498304,0.0,0.0,0.0,0.0,0.0,0.0,0.0,0.0,0.0,-6.787919097821856e-05,0.0014498236037606988,-0.1003745026855038,0.0,0.0,0.0,0.0,0.0,0.0,0.0,0.0,0.0,-0.0554226917116564,0.003322693393725113,0.00015877252858540754,0.0,0.0,0.0,0.0,0.0,0.0,0.0,0.0,0.0
9.083,259,9,83000000,base_footprint,0.002722570889378025,0.0027397860853444426,-0.7064537538270138,0.7077486664654903,0.0,0.0,0.0,0.0,0.0,0.0,0.0,0.0,0.0,-0.00010310868352541094,0.0008978149173676882,0.05604850833218389,0.0,0.0,0.0,0.0,0.0,0.0,0.0,0.0,0.0,0.38606250695215083,0.01243669999729402,0.0009390236503401215,0.0,0.0,0.0,0.0,0.0,0.0,0.0,0.0,0.0
9.117,260,9,117000000,base_footprint,0.0027204119162592966,0.002742995696743324,-0.7057795192816658,0.7084210227655262,0.0,0.0,0.0,0.0,0.0,0.0,0.0,0.0,0.0,-9.135964039913165e-06,-0.00033880957215489115,0.0557634435558008,0.0,0.0,0.0,0.0,0.0,0.0,0.0,0.0,0.0,-0.006904473034678293,-0.013011586900825324,-0.0016029981878504973,0.0,0.0,0.0,0.0,0.0,0.0,0.0,0.0,0.0
9.151,261,9,151000000,base_footprint,0.0027239566402295656,0.00274243605757261,-0.7063885611156004,0.7078137183113393,0.0,0.0,0.0,0.0,0.0,0.0,0.0,0.0,0.0,0.0001123696562636002,0.0006427522225673892,-0.10903566199901285,0.0,0.0,0.0,0.0,0.0,0.0,0.0,0.0,0.0,-0.047688477117794545,0.007023609129080555,-0.0006541705061949901,0.0,0.0,0.0,0.0,0.0,0.0,0.0,0.0,0.0
9.185,262,9,185000000,base_footprint,0.0027299516662061566,0.0027414981113645432,-0.7068176453113778,0.7073852188365861,0.0,0.0,0.0,0.0,0.0,0.0,0.0,0.0,0.0,0.0021774142578400804,-0.003232130613693285,0.043488486653268876,0.0,0.0,0.0,0.0,0.0,0.0,0.0,0.0,0.0,0.36827395855061695,0.013176582352190103,-0.005254752770052245,0.0,0.0,0.0,0.0,0.0,0.0,0.0,0.0,0.0
9.219,263,9,219000000,base_footprint,0.0027291290269776895,0.002750422820248444,-0.7062627942783141,0.7079391587186372,0.0,0.0,0.0,0.0,0.0,0.0,0.0,0.0,0.0,4.737197461377004e-05,-0.00043213609899540146,0.04583639621156392,0.0,0.0,0.0,0.0,0.0,0.0,0.0,0.0,0.0,0.0044949747125756275,-0.009588206792036742,0.005360488672518474,0.0,0.0,0.0,0.0,0.0,0.0,0.0,0.0,0.0
9.253,264,9,253000000,base_footprint,0.002722511153240791,0.0027459738020527663,-0.7058652377495228,0.708335593979089,0.0,0.0,0.0,0.0,0.0,0.0,0.0,0.0,0.0,3.544561118109734e-05,-0.0001255971781900134,0.019547586836713184,0.0,0.0,0.0,0.0,0.0,0.0,0.0,0.0,0.0,-0.36622852030352754,-0.010152260221805931,0.0004714907488385168,0.0,0.0,0.0,0.0,0.0,0.0,0.0,0.0,0.0
9.287,265,9,287000000,base_footprint,0.002722831589415716,0.00274545666961547,-0.7057056145210883,0.7084946254483686,0.0,0.0,0.0,0.0,0.0,0.0,0.0,0.0,0.0,0.0008150553591289733,-0.0011611206335624684,0.012740905937388254,0.0,0.0,0.0,0.0,0.0,0.0,0.0,0.0,0.0,-0.24975916115632998,-0.004290597573819971,-0.002196446474081266,0.0,0.0,0.0,0.0,0.0,0.0,0.0,0.0,0.0
9.321,266,9,321000000,base_footprint,0.002721726838546595,0.0027517110856872615,-0.7054887692179919,0.7087105310325227,0.0,0.0,0.0,0.0,0.0,0.0,0.0,0.0,0.0,0.0005375594547113473,0.0008300931587003584,0.017415642961335673,0.0,0.0,0.0,0.0,0.0,0.0,0.0,0.0,0.0,-0.02284973896323582,-0.008590775814471072,0.003542725728162342,0.0,0.0,0.0,0.0,0.0,0.0,0.0,0.0,0.0
9.355,267,9,355000000,base_footprint,0.0027187425483969742,0.0027497092798835204,-0.705199810602617,0.7089980780396127,0.0,0.0,0.0,0.0,0.0,0.0,0.0,0.0,0.0,0.0005980529590181877,0.0001232017532356597,0.045650488934655654,0.0,0.0,0.0,0.0,0.0,0.0,0.0,0.0,0.0,0.11573279436143866,-0.0016938644511612783,-0.000824671178399697,0.0,0.0,0.0,0.0,0.0,0.0,0.0,0.0,0.0
9.389,268,9,389000000,base_footprint,0.002721915915484568,0.0027563709284452583,-0.7039316108581689,0.7102571934360661,0.0,0.0,0.0,0.0,0.0,0.0,0.0,0.0,0.0,-0.000417945899176134,-0.00221684283880222,0.17141455094353672,0.0,0.0,0.0,0.0,0.0,0.0,0.0,0.0,0.0,0.15953506474496038,-0.015901921885998746,-0.0020887703894738874,0.0,0.0,0.0,0.0,0.0,0.0,0.0,0.0,0.0
9.423,269,9,423000000,base_footprint,0.0027080957702148357,0.002767841644646301,-0.7014978421483804,0.7126610573976213,0.0,0.0,0.0,0.0,0.0,0.0,0.0,0.0,0.0,0.00011405794894113042,-0.0010725264565680274,0.20586834663452241,0.0,0.0,0.0,0.0,0.0,0.0,0.0,0.0,0.0,0.10513506075797666,-0.040660771791151296,0.00155400553979609,0.0,0.0,0.0,0.0,0.0,0.0,0.0,0.0,0.0
9.457,270,9,457000000,base_footprint,0.002687367707443501,0.002774722296911872,-0.6987699861750293,0.7153359947548632,0.0,0.0,0.0,0.0,0.0,0.0,0.0,0.0,0.0,0.00030503317049398115,-0.0014211561209514197,0.27670781243189696,0.0,0.0,0.0,0.0,0.0,0.0,0.0,0.0,0.0,-0.2886996912111933,-0.05721653167636777,0.00046531643026320534,0.0,0.0,0.0,0.0,0.0,0.0,0.0,0.0,0.0
9.491,271,9,491000000,base_footprint,0.0026785511063092777,0.0027849899269779075,-0.6952529312530752,0.7187547779173954,0.0,0.0,0.0,0.0,0.0,0.0,0.0,0.0,0.0,-2.8961773868030512e-05,-0.0017817936054717327,0.289268888694919,0.0,0.0,0.0,0.0,0.0,0.0,0.0,0.0,0.0,-0.030347872053433186,-0.06521544203070889,-0.0011373259334826007,0.0,0.0,0.0,0.0,0.0,0.0,0.0,0.0,0.0
9.525,272,9,525000000,base_footprint,0.0026651269857342584,0.002797799305208392,-0.6917098872238147,0.7221651482410483,0.0,0.0,0.0,0.0,0.0,0.0,0.0,0.0,0.0,0.0008834313192712371,-0.006593492777262936,0.28986586571384443,0.0,0.0,0.0,0.0,0.0,0.0,0.0,0.0,0.0,0.02897299359284685,-0.05984523751887034,-0.006717796126506218,0.0,0.0,0.0,0.0,0.0,0.0,0.0,0.0,0.0
9.559,273,9,559000000,base_footprint,0.002645907064689429,0.002811451329720606,-0.6871460283227259,0.7265090712974818,0.0,0.0,0.0,0.0,0.0,0.0,0.0,0.0,0.0,6.50431433452637e-05,-0.0026665605709258874,0.4008403491451074,0.0,0.0,0.0,0.0,0.0,0.0,0.0,0.0,0.0,0.34134386216660745,-0.042136295301373944,0.00557390540542837,0.0,0.0,0.0,0.0,0.0,0.0,0.0,0.0,0.0
9.593,274,9,593000000,base_footprint,0.0026276199701737875,0.0028291504530763697,-0.6821817531399743,0.7311724469671141,0.0,0.0,0.0,0.0,0.0,0.0,0.0,0.0,0.0,0.00011122277760510716,-0.002979708363882152,0.40069004002065567,0.0,0.0,0.0,0.0,0.0,0.0,0.0,0.0,0.0,0.005185461189047287,-0.08193206542714013,-0.0010261864614824145,0.0,0.0,0.0,0.0,0.0,0.0,0.0,0.0,0.0
9.627,275,9,627000000,base_footprint,0.002607135651630355,0.0028468445430822496,-0.6772203849263837,0.7357701057803329,0.0,0.0,0.0,0.0,0.0,0.0,0.0,0.0,0.0,0.0009940082644945072,-0.0004974233034497501,0.3541947397197455,0.0,0.0,0.0,0.0,0.0,0.0,0.0,0.0,0.0,-0.0036956419281786446,-0.08097525837258931,0.002483782723100827,0.0,0.0,0.0,0.0,0.0,0.0,0.0,0.0,0.0
9.661,276,9,661000000,base_footprint,0.0026091047980355943,0.002852730587817974,-0.6755663023562469,0.7372891058608247,0.0,0.0,0.0,0.0,0.0,0.0,0.0,0.0,0.0,0.00022387136017829986,-0.0005116219436379034,0.047786631506639615,0.0,0.0,0.0,0.0,0.0,0.0,0.0,0.0,0.0,-0.12152314340206162,-0.061917780286821225,-0.004206358394267753,0.0,0.0,0.0,0.0,0.0,0.0,0.0,0.0,0.0
9.695,277,9,695000000,base_footprint,0.0026035049574264658,0.0028638375155321293,-0.6732845217271424,0.7393733650864592,0.0,0.0,0.0,0.0,0.0,0.0,0.0,0.0,0.0,-0.0016593625362261641,-0.0004028792949899757,0.23278488353610216,0.0,0.0,0.0,0.0,0.0,0.0,0.0,0.0,0.0,0.047962138683586335,-0.02364995921104389,0.0028998661631300573,0.0,0.0,0.0,0.0,0.0,0.0,0.0,0.0,0.0
9.729,278,9,729000000,base_footprint,0.002582586339477161,0.002878588649264452,-0.6693108795993156,0.7429724021961907,0.0,0.0,0.0,0.0,0.0,0.0,0.0,0.0,0.0,0.003623784172402463,0.0003121490839624308,0.3466328748520685,0.0,0.0,0.0,0.0,0.0,0.0,0.0,0.0,0.0,0.384087802714129,0.018885828825124573,0.0008903235986244837,0.0,0.0,0.0,0.0,0.0,0.0,0.0,0.0,0.0
9.763,279,9,763000000,base_footprint,0.002560959643720783,0.0028873863268552356,-0.6653176169352849,0.7465504491201223,0.0,0.0,0.0,0.0,0.0,0.0,0.0,0.0,0.0,-0.0035512318315535714,0.00018694523774473665,0.32039529202264594,0.0,0.0,0.0,0.0,0.0,0.0,0.0,0.0,0.0,0.17576381722466738,-0.026593946306861904,0.00048462041678721813,0.0,0.0,0.0,0.0,0.0,0.0,0.0,0.0,0.0
9.797,280,9,797000000,base_footprint,0.002547264349520018,0.0028984341969708694,-0.6605707857986861,0.7507538527858821,0.0,0.0,0.0,0.0,0.0,0.0,0.0,0.0,0.0,-0.00011489794114419755,-0.0015172950055711422,0.4098792284932764,0.0,0.0,0.0,0.0,0.0,0.0,0.0,0.0,0.0,0.29960738857320485,0.00597488802576121,-0.0017189274706374035,0.0,0.0,0.0,0.0,0.0,0.0,0.0,0.0,0.0
9.831,281,9,831000000,base_footprint,0.0025285460851140265,0.002933933358326749,-0.6554036329022522,0.7552688769360711,0.0,0.0,0.0,0.0,0.0,0.0,0.0,0.0,0.0,-0.002899212716097302,0.0007869229566878262,0.35782294131921344,0.0,0.0,0.0,0.0,0.0,0.0,0.0,0.0,0.0,0.2275625009842294,-0.004203714675010781,0.003061311358686835,0.0,0.0,0.0,0.0,0.0,0.0,0.0,0.0,0.0
9.865,282,9,865000000,base_footprint,0.0025117008923067883,0.0029287887488758596,-0.6517660405046629,0.7584102728734403,0.0,0.0,0.0,0.0,0.0,0.0,0.0,0.0,0.0,-0.0012912467328451062,-0.004035311369549198,0.25407550656818684,0.0,0.0,0.0,0.0,0.0,0.0,0.0,0.0,0.0,0.12195772647058853,-0.017443736870809246,-0.005955059678603772,0.0,0.0,0.0,0.0,0.0,0.0,0.0,0.0,0.0
9.899000000000001,283,9,899000000,base_footprint,0.00250210158223561,0.002958870058801154,-0.6481999499568639,0.761460313773191,0.0,0.0,0.0,0.0,0.0,0.0,0.0,0.0,0.0,0.001789065670042189,-0.0031093516105660268,0.28960490676142403,0.0,0.0,0.0,0.0,0.0,0.0,0.0,0.0,0.0,0.09030088412748885,-0.019769635303449766,-0.003927871407570516,0.0,0.0,0.0,0.0,0.0,0.0,0.0,0.0,0.0
9.933,284,9,933000000,base_footprint,0.002485457657535543,0.0029635345962337597,-0.6443305490771735,0.7647373297340975,0.0,0.0,0.0,0.0,0.0,0.0,0.0,0.0,0.0,-4.8902176912055616e-05,0.00012770959930085725,0.2688053107396208,0.0,0.0,0.0,0.0,0.0,0.0,0.0,0.0,0.0,0.19316456361457918,0.0151128735996032,0.005420803025526529,0.0,0.0,0.0,0.0,0.0,0.0,0.0,0.0,0.0
9.967,285,9,967000000,base_footprint,0.0024691100777872368,0.0029753633383187736,-0.6407968516018744,0.7677007526931012,0.0,0.0,0.0,0.0,0.0,0.0,0.0,0.0,0.0,0.00035545605539047723,-0.002107497862710847,0.30789868263956693,0.0,0.0,0.0,0.0,0.0,0.0,0.0,0.0,0.0,0.2399542478485348,0.045172301491624794,-0.00220639290663024,0.0,0.0,0.0,0.0,0.0,0.0,0.0,0.0,0.0
10.001,286,10,1000000,base_footprint,0.0024498024982748143,0.0029913674787629702,-0.6362124039064713,0.7715042626608589,0.0,0.0,0.0,0.0,0.0,0.0,0.0,0.0,0.0,0.0017143813458255532,-0.003010440612138254,0.3648887640775999,0.0,0.0,0.0,0.0,0.0,0.0,0.0,0.0,0.0,0.15716402301864757,0.01272885325140366,-0.0023144989554061343,0.0,0.0,0.0,0.0,0.0,0.0,0.0,0.0,0.0
10.035,287,10,35000000,base_footprint,0.002433067196500493,0.0030075854609367555,-0.6315411322630711,0.775332723979577,0.0,0.0,0.0,0.0,0.0,0.0,0.0,0.0,0.0,-0.00027394867275619243,0.0003214943318207243,0.32360685833470054,0.0,0.0,0.0,0.0,0.0,0.0,0.0,0.0,0.0,0.22946709257027287,0.03497608799423428,0.005106244643714295,0.0,0.0,0.0,0.0,0.0,0.0,0.0,0.0,0.0
10.069,288,10,69000000,base_footprint,0.0024135168054158175,0.003019762880661704,-0.6269867953508028,0.7790202914074223,0.0,0.0,0.0,0.0,0.0,0.0,0.0,0.0,0.0,0.0004435642466933113,-0.0024162669851439007,0.34671298794011135,0.0,0.0,0.0,0.0,0.0,0.0,0.0,0.0,0.0,0.10925248259290468,-0.0018930733291197335,-0.003376533677428473,0.0,0.0,0.0,0.0,0.0,0.0,0.0,0.0,0.0
10.103,289,10,103000000,base_footprint,0.0023961112177096804,0.0030329843083363776,-0.6223823845199243,0.7827037926933221,0.0,0.0,0.0,0.0,0.0,0.0,0.0,0.0,0.0,0.0005698270757584368,-0.002467335499544564,0.3471340957347149,0.0,0.0,0.0,0.0,0.0,0.0,0.0,0.0,0.0,0.01762695340462864,-0.04254020237971291,-0.0004930905569482671,0.0,0.0,0.0,0.0,0.0,0.0,0.0,0.0,0.0
10.137,290,10,137000000,base_footprint,0.002376089296441825,0.0030347423958348055,-0.6176555642283647,0.7864392846977998,0.0,0.0,0.0,0.0,0.0,0.0,0.0,0.0,0.0,0.0002459263620874355,-0.002443634162523854,0.381881331708659,0.0,0.0,0.0,0.0,0.0,0.0,0.0,0.0,0.0,-0.1885457455604134,-0.15139443308292783,0.0001137761996021382,0.0,0.0,0.0,0.0,0.0,0.0,0.0,0.0,0.0
10.171,291,10,171000000,base_footprint,0.0023609588929523868,0.0030617019860930527,-0.6130618733301915,0.7900254371366345,0.0,0.0,0.0,0.0,0.0,0.0,0.0,0.0,0.0,0.0009792693501720219,-0.0031428218701100973,0.3296248258400474,0.0,0.0,0.0,0.0,0.0,0.0,0.0,0.0,0.0,0.12765676788193936,0.01290311247392955,-0.0020276129892914277,0.0,0.0,0.0,0.0,0.0,0.0,0.0,0.0,0.0
10.205,292,10,205000000,base_footprint,0.002352970885349405,0.0030722666183924355,-0.6090980171690727,0.7930855125309895,0.0,0.0,0.0,0.0,0.0,0.0,0.0,0.0,0.0,-0.0017221607067652903,-0.0020745606997731917,0.3409774183682811,0.0,0.0,0.0,0.0,0.0,0.0,0.0,0.0,0.0,0.39998194668329956,0.18325703180322062,0.004802379837752991,0.0,0.0,0.0,0.0,0.0,0.0,0.0,0.0,0.0
10.239,293,10,239000000,base_footprint,0.0023280064478716582,0.0030800027211398827,-0.6047824455639409,0.7963813706428067,0.0,0.0,0.0,0.0,0.0,0.0,0.0,0.0,0.0,-0.0010221494157400227,-0.0034706688059442264,0.25815341274470455,0.0,0.0,0.0,0.0,0.0,0.0,0.0,0.0,0.0,0.10692450668171198,0.015418531445486341,-0.005145030335583769,0.0,0.0,0.0,0.0,0.0,0.0,0.0,0.0,0.0
10.273,294,10,273000000,base_footprint,0.002325370038003985,0.0030926997260702126,-0.6009623772745325,0.7992679456622375,0.0,0.0,0.0,0.0,0.0,0.0,0.0,0.0,0.0,-0.0012065848878997443,-0.001605717385756821,0.34777293855994074,0.0,0.0,0.0,0.0,0.0,0.0,0.0,0.0,0.0,0.22492299990095788,0.10948368843720706,0.003911958509508106,0.0,0.0,0.0,0.0,0.0,0.0,0.0,0.0,0.0
10.307,295,10,307000000,base_footprint,0.0023053419308823046,0.0031049282983779784,-0.5962282328768057,0.8028056671072056,0.0,0.0,0.0,0.0,0.0,0.0,0.0,0.0,0.0,0.0005097966751566809,-0.0025816922223451818,0.3469719717455336,0.0,0.0,0.0,0.0,0.0,0.0,0.0,0.0,0.0,0.02304063481216903,-0.03672897722304272,-0.0021076452129524794,0.0,0.0,0.0,0.0,0.0,0.0,0.0,0.0,0.0
10.341,296,10,341000000,base_footprint,0.0022922748188120043,0.003117433672377751,-0.591768247311643,0.8060988578066338,0.0,0.0,0.0,0.0,0.0,0.0,0.0,0.0,0.0,0.00023540873288997244,-0.002764705010599773,0.2930872203881408,0.0,0.0,0.0,0.0,0.0,0.0,0.0,0.0,0.0,0.010250756290610114,-0.03821492614183499,-0.0011178645329911515,0.0,0.0,0.0,0.0,0.0,0.0,0.0,0.0,0.0
10.375,297,10,375000000,base_footprint,0.002270480084106638,0.00312758950415635,-0.5877738178679206,0.8090160703799707,0.0,0.0,0.0,0.0,0.0,0.0,0.0,0.0,0.0,0.0006313365380834465,-0.0017591833736173112,0.29167050063485345,0.0,0.0,0.0,0.0,0.0,0.0,0.0,0.0,0.0,0.023894555908110418,-0.02728674391548757,0.0008422320378302598,0.0,0.0,0.0,0.0,0.0,0.0,0.0,0.0,0.0
10.409,298,10,409000000,base_footprint,0.0022500666588495164,0.0031393033636514345,-0.5838034077263845,0.811885868273049,0.0,0.0,0.0,0.0,0.0,0.0,0.0,0.0,0.0,0.0005088257061453599,-0.0019686594920158983,0.28065383459233006,0.0,0.0,0.0,0.0,0.0,0.0,0.0,0.0,0.0,0.034047518886120065,-0.012771490879231125,-0.0003956493663188028,0.0,0.0,0.0,0.0,0.0,0.0,0.0,0.0,0.0
10.443,299,10,443000000,base_footprint,0.0022388959683736893,0.0031503307459924902,-0.5799589397888792,0.8146365391510455,0.0,0.0,0.0,0.0,0.0,0.0,0.0,0.0,0.0,0.00020478349105802144,-0.0023976868100570713,0.2845886299453275,0.0,0.0,0.0,0.0,0.0,0.0,0.0,0.0,0.0,0.02415224101787794,-0.02140251424443367,-0.0006478168120031889,0.0,0.0,0.0,0.0,0.0,0.0,0.0,0.0,0.0
10.477,300,10,477000000,base_footprint,0.002222846008525452,0.003163534735286446,-0.5758972538740432,0.8175129381140931,0.0,0.0,0.0,0.0,0.0,0.0,0.0,0.0,0.0,0.0006565345454226117,-0.0018054149644465911,0.2913655447804281,0.0,0.0,0.0,0.0,0.0,0.0,0.0,0.0,0.0,0.007595519907679819,-0.03765435762681546,0.00021102904065098686,0.0,0.0,0.0,0.0,0.0,0.0,0.0,0.0,0.0
10.511,301,10,511000000,base_footprint,0.0022065061246890672,0.0031756444028534624,-0.5718280184746877,0.8203644092113337,0.0,0.0,0.0,0.0,0.0,0.0,0.0,0.0,0.0,0.0006642257097112825,-0.002064961095070808,0.29205734765622504,0.0,0.0,0.0,0.0,0.0,0.0,0.0,0.0,0.0,0.017562431506921848,-0.0263819940979172,-0.0004529952588305824,0.0,0.0,0.0,0.0,0.0,0.0,0.0,0.0,0.0
10.545,302,10,545000000,base_footprint,0.00218727984595094,0.003188228069783699,-0.5673435400715438,0.8234721358660166,0.0,0.0,0.0,0.0,0.0,0.0,0.0,0.0,0.0,0.0006811642443137039,-0.001649285167360588,0.3428213894979205,0.0,0.0,0.0,0.0,0.0,0.0,0.0,0.0,0.0,0.03406385162429233,-0.01866157626616168,0.0006554933539356259,0.0,0.0,0.0,0.0,0.0,0.0,0.0,0.0,0.0
10.579,303,10,579000000,base_footprint,0.002167492607266372,0.003202291783453462,-0.5625237732118522,0.8267720676671605,0.0,0.0,0.0,0.0,0.0,0.0,0.0,0.0,0.0,0.0008784382467381035,-0.0024063937710667098,0.34348466369254926,0.0,0.0,0.0,0.0,0.0,0.0,0.0,0.0,0.0,0.02308021637300755,-0.030155769080002108,-0.0011975051166876185,0.0,0.0,0.0,0.0,0.0,0.0,0.0,0.0,0.0
10.613,304,10,613000000,base_footprint,0.0021477730277608023,0.0032163865486636123,-0.5576834611859833,0.8300446970183069,0.0,0.0,0.0,0.0,0.0,0.0,0.0,0.0,0.0,0.0009407842847681015,-0.0023127891549324844,0.34362784660272516,0.0,0.0,0.0,0.0,0.0,0.0,0.0,0.0,0.0,0.025155171181294168,-0.0292075510436176,-0.00013191446207290697,0.0,0.0,0.0,0.0,0.0,0.0,0.0,0.0,0.0
10.647,305,10,647000000,base_footprint,0.0021289270123559276,0.0032287861107593427,-0.5532530700897664,0.8330042515175269,0.0,0.0,0.0,0.0,0.0,0.0,0.0,0.0,0.0,0.0008251623937990823,-0.0016056988167560283,0.2960491026413005,0.0,0.0,0.0,0.0,0.0,0.0,0.0,0.0,0.0,0.015294224112731968,-0.03626326226199984,-0.0003801513512618905,0.0,0.0,0.0,0.0,0.0,0.0,0.0,0.0,0.0
10.681000000000001,306,10,681000000,base_footprint,0.0021118710165351274,0.003240714984976823,-0.5490458158963114,0.835783303143793,0.0,0.0,0.0,0.0,0.0,0.0,0.0,0.0,0.0,0.0009183454160916623,-0.0019124663573755227,0.29668454659423654,0.0,0.0,0.0,0.0,0.0,0.0,0.0,0.0,0.0,0.022453613455383898,-0.024087218229215113,-0.00032105464626752835,0.0,0.0,0.0,0.0,0.0,0.0,0.0,0.0,0.0
10.715,307,10,715000000,base_footprint,0.002094720299928555,0.0032524543002554226,-0.5448177956449013,0.8385455284219936,0.0,0.0,0.0,0.0,0.0,0.0,0.0,0.0,0.0,0.0009473450676470718,-0.0019182679422115355,0.2973211026294463,0.0,0.0,0.0,0.0,0.0,0.0,0.0,0.0,0.0,0.02382579107619088,-0.023770034936948316,-0.0002724241957316574,0.0,0.0,0.0,0.0,0.0,0.0,0.0,0.0,0.0
10.749,308,10,749000000,base_footprint,0.0020829312033731583,0.0032529616130018892,-0.5420516405474102,0.8403363009047079,0.0,0.0,0.0,0.0,0.0,0.0,0.0,0.0,0.0,0.0006807952506432874,-0.0011410288777426241,0.08341738741310506,0.0,0.0,0.0,0.0,0.0,0.0,0.0,0.0,0.0,0.032587991825856436,-0.0011957302874443087,-0.0008422511778634397,0.0,0.0,0.0,0.0,0.0,0.0,0.0,0.0,0.0
10.783,309,10,783000000,base_footprint,0.00208244021091073,0.003261831018601532,-0.54151752564664,0.8406805536698913,0.0,0.0,0.0,0.0,0.0,0.0,0.0,0.0,0.0,0.0008121041816381339,4.6355258468841964e-05,0.022299485198920815,0.0,0.0,0.0,0.0,0.0,0.0,0.0,0.0,0.0,-0.061397093776182896,-0.07466635865292036,-0.0009240640866387516,0.0,0.0,0.0,0.0,0.0,0.0,0.0,0.0,0.0
10.817,310,10,817000000,base_footprint,0.002080153067584605,0.0032630809642122897,-0.5411688594441546,0.8409050426973009,0.0,0.0,0.0,0.0,0.0,0.0,0.0,0.0,0.0,0.00015953000756858333,1.1672904097386125e-05,0.024539313098603167,0.0,0.0,0.0,0.0,0.0,0.0,0.0,0.0,0.0,0.004543800374433535,0.0015950559210988785,0.0011890923088149392,0.0,0.0,0.0,0.0,0.0,0.0,0.0,0.0,0.0
10.851,311,10,851000000,base_footprint,0.0020803663694141552,0.0032547685690217094,-0.5411035916300494,0.8409470742456936,0.0,0.0,0.0,0.0,0.0,0.0,0.0,0.0,0.0,0.00038039889322897765,-6.378522991271648e-05,-0.005191698762075037,0.0,0.0,0.0,0.0,0.0,0.0,0.0,0.0,0.0,-0.0004916759126878177,-0.005575784343451637,-0.0006420752205536587,0.0,0.0,0.0,0.0,0.0,0.0,0.0,0.0,0.0
10.885,312,10,885000000,base_footprint,0.0020839545344877495,0.003255058237349731,-0.5411332647745076,0.840927970449225,0.0,0.0,0.0,0.0,0.0,0.0,0.0,0.0,0.0,-0.00040288042473512906,-1.6859717400909114e-05,0.004761402561579012,0.0,0.0,0.0,0.0,0.0,0.0,0.0,0.0,0.0,0.015708032175974485,0.017445875844551883,0.0013336651897064042,0.0,0.0,0.0,0.0,0.0,0.0,0.0,0.0,0.0
10.919,313,10,919000000,base_footprint,0.002085658114053238,0.0032591246145808736,-0.540867543913349,0.8410988812726595,0.0,0.0,0.0,0.0,0.0,0.0,0.0,0.0,0.0,0.0002363746398466108,-0.00015645405333066198,0.028054125490738845,0.0,0.0,0.0,0.0,0.0,0.0,0.0,0.0,0.0,0.038509254892898415,0.04421100212613757,-0.00044910270178852914,0.0,0.0,0.0,0.0,0.0,0.0,0.0,0.0,0.0
10.953,314,10,953000000,base_footprint,0.002077499891535768,0.003262166510746445,-0.5391775989042443,0.8421832099393282,0.0,0.0,0.0,0.0,0.0,0.0,0.0,0.0,0.0,0.0007602454537545102,-0.002106820292762212,0.1962308526336085,0.0,0.0,0.0,0.0,0.0,0.0,0.0,0.0,0.0,-0.1146490855981975,-0.1494624240284213,-0.002391630346518405,0.0,0.0,0.0,0.0,0.0,0.0,0.0,0.0,0.0
10.987,315,10,987000000,base_footprint,0.002072025952988101,0.0032687602065212787,-0.5363502960268324,0.8439866005257973,0.0,0.0,0.0,0.0,0.0,0.0,0.0,0.0,0.0,0.0011780887654487158,-0.0013083273796792923,0.217437158309428,0.0,0.0,0.0,0.0,0.0,0.0,0.0,0.0,0.0,0.14286709087934196,0.13877757138741786,0.0011825911872200689,0.0,0.0,0.0,0.0,0.0,0.0,0.0,0.0,0.0
11.021,316,11,21000000,base_footprint,0.002060987719889153,0.003280128980585899,-0.5333508140113935,0.845885277255062,0.0,0.0,0.0,0.0,0.0,0.0,0.0,0.0,0.0,0.0006190073080879537,-0.0014657616947335982,0.20933267280942758,0.0,0.0,0.0,0.0,0.0,0.0,0.0,0.0,0.0,0.006185829595239297,-0.03575682897970573,0.0006695223375735089,0.0,0.0,0.0,0.0,0.0,0.0,0.0,0.0,0.0
11.055,317,11,55000000,base_footprint,0.002054205177297787,0.0032700683158626252,-0.5313236382960089,0.8471601255265685,0.0,0.0,0.0,0.0,0.0,0.0,0.0,0.0,0.0,-2.4704051398066317e-05,-0.0007228354028180628,0.0942874498049804,0.0,0.0,0.0,0.0,0.0,0.0,0.0,0.0,0.0,-0.0532268186492913,-0.09668436113234494,-5.621033885627597e-05,0.0,0.0,0.0,0.0,0.0,0.0,0.0,0.0,0.0
11.089,318,11,89000000,base_footprint,0.0020509375598770593,0.003285113228380806,-0.5301630871021094,0.8478868454932907,0.0,0.0,0.0,0.0,0.0,0.0,0.0,0.0,0.0,0.00020625733116404625,-0.0006416042701695028,0.07698649742360296,0.0,0.0,0.0,0.0,0.0,0.0,0.0,0.0,0.0,0.05173005883652794,0.051394524934224466,-0.0003022878461747403,0.0,0.0,0.0,0.0,0.0,0.0,0.0,0.0,0.0
11.123,319,11,123000000,base_footprint,0.0020473583812227387,0.0032865075380481977,-0.5290680087739384,0.8485705918094506,0.0,0.0,0.0,0.0,0.0,0.0,0.0,0.0,0.0,8.971205649705872e-05,-0.00047517224033377225,0.07535605029604607,0.0,0.0,0.0,0.0,0.0,0.0,0.0,0.0,0.0,0.007679805957168903,-0.003248362755906101,0.0002208214648122526,0.0,0.0,0.0,0.0,0.0,0.0,0.0,0.0,0.0
11.157,320,11,157000000,base_footprint,0.0020225780687766533,0.0032834503213201296,-0.5268446549648177,0.8499528443784075,0.0,0.0,0.0,0.0,0.0,0.0,0.0,0.0,0.0,0.0010081902304666908,-0.000321957180468078,0.20575214826054763,0.0,0.0,0.0,0.0,0.0,0.0,0.0,0.0,0.0,0.2833266637482986,0.352097014562349,0.0011098331964006039,0.0,0.0,0.0,0.0,0.0,0.0,0.0,0.0,0.0
11.191,321,11,191000000,base_footprint,0.0020030716699053095,0.003298691717271238,-0.5223432331310558,0.8527265992913761,0.0,0.0,0.0,0.0,0.0,0.0,0.0,0.0,0.0,-0.0009305532957397633,-0.002530129456865857,0.40817314825544676,0.0,0.0,0.0,0.0,0.0,0.0,0.0,0.0,0.0,0.33742616746303167,0.4033478498873063,0.005841053538438567,0.0,0.0,0.0,0.0,0.0,0.0,0.0,0.0,0.0
11.225,322,11,225000000,base_footprint,0.001973625016974944,0.0033188672637386833,-0.514747059662931,0.8573333975139107,0.0,0.0,0.0,0.0,0.0,0.0,0.0,0.0,0.0,0.00437980769334256,-0.0055282351096743705,0.625478556009878,0.0,0.0,0.0,0.0,0.0,0.0,0.0,0.0,0.0,0.32917069957686396,0.41425226073240756,-0.0038384481542159945,0.0,0.0,0.0,0.0,0.0,0.0,0.0,0.0,0.0
11.259,323,11,259000000,base_footprint,0.0019314006387521423,0.0033400210842699438,-0.5043571224147735,0.8634865413080963,0.0,0.0,0.0,0.0,0.0,0.0,0.0,0.0,0.0,0.003654862663596029,-0.00522850608752406,0.7374267960843723,0.0,0.0,0.0,0.0,0.0,0.0,0.0,0.0,0.0,0.2161408790804042,0.2749171814672203,0.0012632367516983772,0.0,0.0,0.0,0.0,0.0,0.0,0.0,0.0,0.0
11.293,324,11,293000000,base_footprint,0.0018905486409280688,0.0033632826295203716,-0.4938031514985,0.8695651566880653,0.0,0.0,0.0,0.0,0.0,0.0,0.0,0.0,0.0,0.0026850027698783023,-0.0044768453237237224,0.6970457092171867,0.0,0.0,0.0,0.0,0.0,0.0,0.0,0.0,0.0,0.07036304503262056,0.05489128215483542,0.0014396874743690276,0.0,0.0,0.0,0.0,0.0,0.0,0.0,0.0,0.0
11.327,325,11,327000000,base_footprint,0.0018525594027146302,0.003387785644636735,-0.48375382381133225,0.8751955946415635,0.0,0.0,0.0,0.0,0.0,0.0,0.0,0.0,0.0,0.004343745200109222,-0.005739980057384053,0.6776074840219708,0.0,0.0,0.0,0.0,0.0,0.0,0.0,0.0,0.0,0.08195581922655201,0.09450222344906534,-0.0003314628024325091,0.0,0.0,0.0,0.0,0.0,0.0,0.0,0.0,0.0
11.361,326,11,361000000,base_footprint,0.0018021354574785096,0.0034071068796612436,-0.4721096136696768,0.8815314268993318,0.0,0.0,0.0,0.0,0.0,0.0,0.0,0.0,0.0,0.0029298941194628404,-0.0036193785057436335,0.8710648798814709,0.0,0.0,0.0,0.0,0.0,0.0,0.0,0.0,0.0,0.21042692686755485,0.41857600616229157,0.004791729488376261,0.0,0.0,0.0,0.0,0.0,0.0,0.0,0.0,0.0
11.395,327,11,395000000,base_footprint,0.001770533765537673,0.003441912891538619,-0.4590906943801881,0.8883809727697621,0.0,0.0,0.0,0.0,0.0,0.0,0.0,0.0,0.0,0.004718928147140884,-0.006984947885272288,0.8522714059714497,0.0,0.0,0.0,0.0,0.0,0.0,0.0,0.0,0.0,0.0504185742240853,0.06487134489994792,-0.004615791687134881,0.0,0.0,0.0,0.0,0.0,0.0,0.0,0.0,0.0
11.429,328,11,429000000,base_footprint,0.0017144447256529573,0.0034547816289947743,-0.4464049807184409,0.894822730127564,0.0,0.0,0.0,0.0,0.0,0.0,0.0,0.0,0.0,-0.00012461262975355916,-0.0033389011814526485,0.7940811787019075,0.0,0.0,0.0,0.0,0.0,0.0,0.0,0.0,0.0,0.017112123276131756,-0.012107449584332528,0.005335511291081541,0.0,0.0,0.0,0.0,0.0,0.0,0.0,0.0,0.0
11.463,329,11,463000000,base_footprint,0.0016691330780400414,0.0034869570123839282,-0.4348042871372027,0.9005166778092845,0.0,0.0,0.0,0.0,0.0,0.0,0.0,0.0,0.0,0.0034481521370412593,-0.004394109783346632,0.7434987507956761,0.0,0.0,0.0,0.0,0.0,0.0,0.0,0.0,0.0,0.03341652523111312,0.04076569277738949,-0.00285711421384821,0.0,0.0,0.0,0.0,0.0,0.0,0.0,0.0,0.0
