Time,header.seq,header.stamp.secs,header.stamp.nsecs,header.frame_id,orientation.x,orientation.y,orientation.z,orientation.w,orientation_covariance_0,orientation_covariance_1,orientation_covariance_2,orientation_covariance_3,orientation_covariance_4,orientation_covariance_5,orientation_covariance_6,orientation_covariance_7,orientation_covariance_8,angular_velocity.x,angular_velocity.y,angular_velocity.z,angular_velocity_covariance_0,angular_velocity_covariance_1,angular_velocity_covariance_2,angular_velocity_covariance_3,angular_velocity_covariance_4,angular_velocity_covariance_5,angular_velocity_covariance_6,angular_velocity_covariance_7,angular_velocity_covariance_8,linear_acceleration.x,linear_acceleration.y,linear_acceleration.z,linear_acceleration_covariance_0,linear_acceleration_covariance_1,linear_acceleration_covariance_2,linear_acceleration_covariance_3,linear_acceleration_covariance_4,linear_acceleration_covariance_5,linear_acceleration_covariance_6,linear_acceleration_covariance_7,linear_acceleration_covariance_8
0.275,0,0,275000000,base_footprint,-0.00010450866507190308,0.000166098811200948,0.38249697072240557,0.9239567245695587,0.0,0.0,0.0,0.0,0.0,0.0,0.0,0.0,0.0,-0.06960041232762045,-0.000632557187329897,-0.00017109080614114675,0.0,0.0,0.0,0.0,0.0,0.0,0.0,0.0,0.0,6.513532220342143e-05,-0.00027237247520419723,-0.0388006883943116,0.0,0.0,0.0,0.0,0.0,0.0,0.0,0.0,0.0
0.309,1,0,309000000,base_footprint,-0.0005564475867463225,0.001229774124387224,0.3824930588839087,0.9239573788478107,0.0,0.0,0.0,0.0,0.0,0.0,0.0,0.0,0.0,-0.06776674318513372,-0.000563933598002369,-0.00011239294175535976,0.0,0.0,0.0,0.0,0.0,0.0,0.0,0.0,0.0,-0.000300562053308388,0.00013639690316357764,-0.0010828154855976626,0.0,0.0,0.0,0.0,0.0,0.0,0.0,0.0,0.0
0.343,2,0,343000000,base_footprint,-0.0010077092344725619,0.002291662348828287,0.38248875375583963,0.923956755511903,0.0,0.0,0.0,0.0,0.0,0.0,0.0,0.0,0.0,-0.0676904126076136,-0.0005636650077411251,-1.3155429061355383e-05,0.0,0.0,0.0,0.0,0.0,0.0,0.0,0.0,0.0,-9.487235935606609e-06,-0.0002643989887900932,0.00015230682138643278,0.0,0.0,0.0,0.0,0.0,0.0,0.0,0.0,0.0
0.377,3,0,377000000,base_footprint,-0.001458477108924445,0.0033523501373899944,0.3824837529268921,0.9239549844770791,0.0,0.0,0.0,0.0,0.0,0.0,0.0,0.0,0.0,-0.0676143462784897,-0.0005634591126826051,8.420547784287701e-05,0.0,0.0,0.0,0.0,0.0,0.0,0.0,0.0,0.0,-1.083224407705461e-06,-0.00026790159036907727,0.00015258010085771555,0.0,0.0,0.0,0.0,0.0,0.0,0.0,0.0,0.0
0.41100000000000003,4,0,411000000,base_footprint,-0.0014870160612328544,0.003572498723022811,0.3824758141155622,0.9239574003452463,0.0,0.0,0.0,0.0,0.0,0.0,0.0,0.0,0.0,0.0004456796219274712,-0.00020384493979668474,-0.0005732180347164091,0.0,0.0,0.0,0.0,0.0,0.0,0.0,0.0,0.0,-0.0009238059048812569,0.007745674278218778,0.13234787151397542,0.0,0.0,0.0,0.0,0.0,0.0,0.0,0.0,0.0
0.445,5,0,445000000,base_footprint,-0.0014833098688990219,0.003564448192250842,0.38247481358785324,0.9239578515667555,0.0,0.0,0.0,0.0,0.0,0.0,0.0,0.0,0.0,0.00024484062983698033,3.928879341162263e-05,0.00017391694588732897,0.0,0.0,0.0,0.0,0.0,0.0,0.0,0.0,0.0,0.0013678553528370767,-0.005793846775373332,-0.00033591735804384574,0.0,0.0,0.0,0.0,0.0,0.0,0.0,0.0,0.0
0.47900000000000004,6,0,479000000,base_footprint,-0.0014833278770874899,0.0035643375007179848,0.3824785056627238,0.9239563236119984,0.0,0.0,0.0,0.0,0.0,0.0,0.0,0.0,0.0,0.00018252129381998467,3.3597533977434146e-05,0.00029658938299072734,0.0,0.0,0.0,0.0,0.0,0.0,0.0,0.0,0.0,-0.0002382618911989541,-3.4130482671582e-05,-8.1159191353981e-05,0.0,0.0,0.0,0.0,0.0,0.0,0.0,0.0,0.0
0.513,7,0,513000000,base_footprint,-0.0014833402180537494,0.0035642707471204398,0.3824831878724473,0.9239543856007012,0.0,0.0,0.0,0.0,0.0,0.0,0.0,0.0,0.0,0.00017951770870719265,3.448493998837734e-05,0.00032583345143397607,0.0,0.0,0.0,0.0,0.0,0.0,0.0,0.0,0.0,-5.696493317199969e-05,-7.653443026101254e-06,-5.908845356973795e-06,0.0,0.0,0.0,0.0,0.0,0.0,0.0,0.0,0.0
0.547,8,0,547000000,base_footprint,-0.0014833620135618062,0.0035642471723327193,0.3824881121816664,0.923952347158086,0.0,0.0,0.0,0.0,0.0,0.0,0.0,0.0,0.0,0.0001783081982510835,3.470953434057731e-05,0.00033309664201210067,0.0,0.0,0.0,0.0,0.0,0.0,0.0,0.0,0.0,-1.415202710703911e-05,-1.879645323335176e-06,-1.871248014914e-06,0.0,0.0,0.0,0.0,0.0,0.0,0.0,0.0,0.0
0.5810000000000001,9,0,581000000,base_footprint,-0.0014833855082187531,0.003564234022368771,0.3824930967089382,0.9239502837129684,0.0,0.0,0.0,0.0,0.0,0.0,0.0,0.0,0.0,0.00017801985117741362,3.479151334186521e-05,0.00033490922799823627,0.0,0.0,0.0,0.0,0.0,0.0,0.0,0.0,0.0,-3.5323840850614353e-06,-4.723926173790463e-07,-4.328393071971787e-07,0.0,0.0,0.0,0.0,0.0,0.0,0.0,0.0,0.0
0.615,10,0,615000000,base_footprint,-0.0014834090856372128,0.0035642235940796865,0.3824980963061135,0.9239482139870476,0.0,0.0,0.0,0.0,0.0,0.0,0.0,0.0,0.0,0.0001779491842885214,3.483772494699874e-05,0.00033537002485753225,0.0,0.0,0.0,0.0,0.0,0.0,0.0,0.0,0.0,-8.966253026990778e-07,-1.3558126166648255e-07,-1.1214589948610716e-07,0.0,0.0,0.0,0.0,0.0,0.0,0.0,0.0,0.0
0.649,11,0,649000000,base_footprint,-0.0014834323866659324,0.0035642139663745426,0.3825030997807737,0.9239461426215577,0.0,0.0,0.0,0.0,0.0,0.0,0.0,0.0,0.0,0.0001779328114190148,3.4873204754005414e-05,0.00033549562275782605,0.0,0.0,0.0,0.0,0.0,0.0,0.0,0.0,0.0,-2.4298171331628754e-07,-5.200206129805746e-08,-3.277008546622341e-08,0.0,0.0,0.0,0.0,0.0,0.0,0.0,0.0,0.0
0.683,12,0,683000000,base_footprint,-0.0014834553498665611,0.0035642046511734377,0.3825081043573685,0.9239440707674692,0.0,0.0,0.0,0.0,0.0,0.0,0.0,0.0,0.0,0.00017792990145089143,3.4904330763354196e-05,0.0003355381131782234,0.0,0.0,0.0,0.0,0.0,0.0,0.0,0.0,0.0,-8.086140341501179e-08,-3.124057090944071e-08,-1.3521315016904942e-08,0.0,0.0,0.0,0.0,0.0,0.0,0.0,0.0,0.0
0.7170000000000001,13,0,717000000,base_footprint,-0.001483477985057466,0.003564195516838292,0.3825131093476015,0.9239419987102088,0.0,0.0,0.0,0.0,0.0,0.0,0.0,0.0,0.0,0.00017793033406583568,3.493284174600012e-05,0.00033556000906064746,0.0,0.0,0.0,0.0,0.0,0.0,0.0,0.0,0.0,-4.0632832968510737e-08,-2.6062392525006404e-08,-9.13727247953871e-09,0.0,0.0,0.0,0.0,0.0,0.0,0.0,0.0,0.0
0.751,14,0,751000000,base_footprint,-0.0014835003173996272,0.0035641865211017364,0.38251811458077606,0.923939926520561,0.0,0.0,0.0,0.0,0.0,0.0,0.0,0.0,0.0,0.00017793159939447523,3.495931140830905e-05,0.0003355768110925755,0.0,0.0,0.0,0.0,0.0,0.0,0.0,0.0,0.0,-3.063339823163973e-08,-2.4752105674699977e-08,-8.402956194169957e-09,0.0,0.0,0.0,0.0,0.0,0.0,0.0,0.0,0.0
0.785,15,0,785000000,base_footprint,-0.0014835223737486196,0.003564177644751805,0.3825231200145503,0.9239378542160815,0.0,0.0,0.0,0.0,0.0,0.0,0.0,0.0,0.0,0.0001779330746663821,3.498401130705618e-05,0.0003355923618840711,0.0,0.0,0.0,0.0,0.0,0.0,0.0,0.0,0.0,-2.81322585965601e-08,-2.4403723475823477e-08,-8.541318126145403e-09,0.0,0.0,0.0,0.0,0.0,0.0,0.0,0.0,0.0
0.8180000000000001,16,0,819000000,base_footprint,-0.0014835441794661304,0.0035641688751037086,0.38252812563841376,0.9239357818011268,0.0,0.0,0.0,0.0,0.0,0.0,0.0,0.0,0.0,0.00017793460522254483,3.5007126193645796e-05,0.0003356076132344278,0.0,0.0,0.0,0.0,0.0,0.0,0.0,0.0,0.0,-2.7492532366725333e-08,-2.4296247183317988e-08,-8.866204726824665e-09,0.0,0.0,0.0,0.0,0.0,0.0,0.0,0.0,0.0
0.8530000000000001,17,0,853000000,base_footprint,-0.001483565757807127,0.003564160201826688,0.38253313144975015,0.9239337092767782,0.0,0.0,0.0,0.0,0.0,0.0,0.0,0.0,0.0,0.00017793615229595066,3.5028808322198764e-05,0.00033562280024619764,0.0,0.0,0.0,0.0,0.0,0.0,0.0,0.0,0.0,-2.731632845755941e-08,-2.4250662991532567e-08,-9.210640721925718e-09,0.0,0.0,0.0,0.0,0.0,0.0,0.0,0.0,0.0
0.887,18,0,887000000,base_footprint,-0.0014835871299290213,0.003564151615840703,0.38253813744790277,0.9239316366433054,0.0,0.0,0.0,0.0,0.0,0.0,0.0,0.0,0.0,0.0001779377061911945,3.504919205092112e-05,0.0003356379802949384,0.0,0.0,0.0,0.0,0.0,0.0,0.0,0.0,0.0,-2.7256655670594363e-08,-2.4222326280123872e-08,-9.535187752926559e-09,0.0,0.0,0.0,0.0,0.0,0.0,0.0,0.0,0.0
0.921,19,0,921000000,base_footprint,-0.0014836083150402296,0.0035641431089809762,0.3825431436327013,0.9239295639007752,0.0,0.0,0.0,0.0,0.0,0.0,0.0,0.0,0.0,0.00017793926419006135,3.506839819378794e-05,0.0003356531668878517,0.0,0.0,0.0,0.0,0.0,0.0,0.0,0.0,0.0,-2.7227546419569642e-08,-2.4200025447866252e-08,-9.833011357808786e-09,0.0,0.0,0.0,0.0,0.0,0.0,0.0,0.0,0.0
0.9550000000000001,20,0,955000000,base_footprint,-0.0014836293305695017,0.003564134673858376,0.38254815000409825,0.9239274910492046,0.0,0.0,0.0,0.0,0.0,0.0,0.0,0.0,0.0,0.00017794082532063168,3.5086536257342794e-05,0.0003356683625876681,0.0,0.0,0.0,0.0,0.0,0.0,0.0,0.0,0.0,-2.7207274176303573e-08,-2.4180779338767302e-08,-1.010407009374832e-08,0.0,0.0,0.0,0.0,0.0,0.0,0.0,0.0,0.0
0.9890000000000001,21,0,989000000,base_footprint,-0.0014836501923285758,0.0035641263037745775,0.38255315656207683,0.9239254180885971,0.0,0.0,0.0,0.0,0.0,0.0,0.0,0.0,0.0,0.00017794238935873915,3.510370546903741e-05,0.00033568356747537103,0.0,0.0,0.0,0.0,0.0,0.0,0.0,0.0,0.0,-2.7190643145160983e-08,-2.416372833845669e-08,-1.0349949243698026e-08,0.0,0.0,0.0,0.0,0.0,0.0,0.0,0.0,0.0
1.023,22,1,23000000,base_footprint,-0.0014836709146611351,0.003564117992653687,0.3825581633066291,0.9239233450189523,0.0,0.0,0.0,0.0,0.0,0.0,0.0,0.0,0.0,0.00017794395585785447,3.511999586696787e-05,0.0003356987808737378,0.0,0.0,0.0,0.0,0.0,0.0,0.0,0.0,0.0,-2.717585455406832e-08,-2.414848856993254e-08,-1.0573537574442418e-08,0.0,0.0,0.0,0.0,0.0,0.0,0.0,0.0,0.0
1.057,23,1,57000000,base_footprint,-0.0014836915105795442,0.003564109734984427,0.3825631702377502,0.9239212718402693,0.0,0.0,0.0,0.0,0.0,0.0,0.0,0.0,0.0,0.00017794552464919428,3.513548899861248e-05,0.0003357140021404745,0.0,0.0,0.0,0.0,0.0,0.0,0.0,0.0,0.0,-2.716267614970234e-08,-2.4134875173158463e-08,-1.0776235028748833e-08,0.0,0.0,0.0,0.0,0.0,0.0,0.0,0.0,0.0
1.091,24,1,91000000,base_footprint,-0.0014837119918879231,0.003564101525767055,0.3825681773554367,0.9239191985525457,0.0,0.0,0.0,0.0,0.0,0.0,0.0,0.0,0.0,0.0001779470955475438,3.515025906018426e-05,0.0003357292306449459,0.0,0.0,0.0,0.0,0.0,0.0,0.0,0.0,0.0,-2.7150875647472007e-08,-2.4122717411759547e-08,-1.0960127187034881e-08,0.0,0.0,0.0,0.0,0.0,0.0,0.0,0.0,0.0
1.125,25,1,125000000,base_footprint,-0.0014837323692946745,0.003564093360466062,0.3825731846596864,0.9239171251557793,0.0,0.0,0.0,0.0,0.0,0.0,0.0,0.0,0.0,0.00017794866832296312,3.516437308425665e-05,0.00033574446578967817,0.0,0.0,0.0,0.0,0.0,0.0,0.0,0.0,0.0,-2.7140264755509484e-08,-2.4111875801785775e-08,-1.1127119525855986e-08,0.0,0.0,0.0,0.0,0.0,0.0,0.0,0.0,0.0
1.159,26,1,159000000,base_footprint,-0.0014837526525136862,0.0035640852349669116,0.382578192150498,0.9239150516499667,0.0,0.0,0.0,0.0,0.0,0.0,0.0,0.0,0.0,0.00017795024284188022,3.5177892120469416e-05,0.00033575970697971575,0.0,0.0,0.0,0.0,0.0,0.0,0.0,0.0,0.0,-2.7130640451985242e-08,-2.4102211167007932e-08,-1.1278748227774537e-08,0.0,0.0,0.0,0.0,0.0,0.0,0.0,0.0,0.0
1.193,27,1,193000000,base_footprint,-0.001483772850357293,0.0035640771455370816,0.3825831998278712,0.9239129780351051,0.0,0.0,0.0,0.0,0.0,0.0,0.0,0.0,0.0,0.00017795181890761173,3.5190871423603565e-05,0.0003357749537736154,0.0,0.0,0.0,0.0,0.0,0.0,0.0,0.0,0.0,-2.7122097389017253e-08,-2.4093632430301716e-08,-1.1416384571725231e-08,0.0,0.0,0.0,0.0,0.0,0.0,0.0,0.0,0.0
1.227,28,1,227000000,base_footprint,-0.0014837929708195665,0.003564069088790419,0.3825882076918061,0.9239109043111903,0.0,0.0,0.0,0.0,0.0,0.0,0.0,0.0,0.0,0.00017795339635491483,3.5203361143783256e-05,0.00033579020567113375,0.0,0.0,0.0,0.0,0.0,0.0,0.0,0.0,0.0,-2.711434151963573e-08,-2.408601441343526e-08,-1.154127953482425e-08,0.0,0.0,0.0,0.0,0.0,0.0,0.0,0.0,0.0
1.2610000000000001,29,1,261000000,base_footprint,-0.001483813021152457,0.0035640610616552,0.38259321574230387,0.9239088304782189,0.0,0.0,0.0,0.0,0.0,0.0,0.0,0.0,0.0,0.00017795497517660187,3.521540674560404e-05,0.00033580546228193376,0.0,0.0,0.0,0.0,0.0,0.0,0.0,0.0,0.0,-2.7107423499189393e-08,-2.40792721156403e-08,-1.1654415622908901e-08,0.0,0.0,0.0,0.0,0.0,0.0,0.0,0.0,0.0
1.295,30,1,295000000,base_footprint,-0.0014838330079344853,0.0035640530613448265,0.38259822397936566,0.9239067565361863,0.0,0.0,0.0,0.0,0.0,0.0,0.0,0.0,0.0,0.00017795655510866357,3.522704956133087e-05,0.0003358207232764275,0.0,0.0,0.0,0.0,0.0,0.0,0.0,0.0,0.0,-2.7101316185670747e-08,-2.4073347448505806e-08,-1.1757453331613491e-08,0.0,0.0,0.0,0.0,0.0,0.0,0.0,0.0,0.0
1.329,31,1,329000000,base_footprint,-0.0014838529371335833,0.003564045085331378,0.3826032324029939,0.9239046824850882,0.0,0.0,0.0,0.0,0.0,0.0,0.0,0.0,0.0,0.00017795813610165903,3.523832701485175e-05,0.0003358359882468384,0.0,0.0,0.0,0.0,0.0,0.0,0.0,0.0,0.0,-2.70957307227167e-08,-2.4068116660025382e-08,-1.185083522040282e-08,0.0,0.0,0.0,0.0,0.0,0.0,0.0,0.0,0.0
1.363,32,1,363000000,base_footprint,-0.0014838728143604287,0.00356403713145487,0.3826082410132063,0.9239026083249126,0.0,0.0,0.0,0.0,0.0,0.0,0.0,0.0,0.0,0.00017795943141104775,3.524902145800075e-05,0.0003358512946474656,0.0,0.0,0.0,0.0,0.0,0.0,0.0,0.0,0.0,-2.7236203213701636e-08,-2.3575275985686807e-08,-1.11385385784767e-08,0.0,0.0,0.0,0.0,0.0,0.0,0.0,0.0,0.0
1.397,33,1,397000000,base_footprint,-0.001483892646531314,0.0035640291990638178,0.38261324981098715,0.9239005340552396,0.0,0.0,0.0,0.0,0.0,0.0,0.0,0.0,0.0,0.00017796013714759678,3.525861474465397e-05,0.0003358667466591853,0.0,0.0,0.0,0.0,0.0,0.0,0.0,0.0,0.0,-2.7904149832535456e-08,-2.1015234605947328e-08,-6.594329114365502e-09,0.0,0.0,0.0,0.0,0.0,0.0,0.0,0.0,0.0
1.431,34,1,431000000,base_footprint,-0.001481032124392145,0.0035566095694291723,0.3826169614392031,0.9238990301387097,0.0,0.0,0.0,0.0,0.0,0.0,0.0,0.0,0.0,0.0040181375038840965,-7.931842616101478e-05,-0.0012163263378286114,0.0,0.0,0.0,0.0,0.0,0.0,0.0,0.0,0.0,-0.0010375091695016964,0.06872551346674739,0.0045837356243486164,0.0,0.0,0.0,0.0,0.0,0.0,0.0,0.0,0.0
1.465,35,1,465000000,base_footprint,-0.0014809869222225359,0.003557637050576531,0.382456077382921,0.9239656372231718,0.0,0.0,0.0,0.0,0.0,0.0,0.0,0.0,0.0,-0.0011277376060054023,2.2919033915201202e-05,-0.018898752435873637,0.0,0.0,0.0,0.0,0.0,0.0,0.0,0.0,0.0,0.0020654816280848975,0.7392235155740873,-0.010025620115935144,0.0,0.0,0.0,0.0,0.0,0.0,0.0,0.0,0.0
1.499,36,1,499000000,base_footprint,-0.0014795368902374563,0.0035587121302128365,0.38202234573788674,0.9241450502467062,0.0,0.0,0.0,0.0,0.0,0.0,0.0,0.0,0.0,-0.0012474541984684015,-6.809971736985044e-05,-0.03628843420363783,0.0,0.0,0.0,0.0,0.0,0.0,0.0,0.0,0.0,0.0028127290652064096,0.7495141235724562,-0.004139163290064011,0.0,0.0,0.0,0.0,0.0,0.0,0.0,0.0,0.0
1.533,37,1,533000000,base_footprint,-0.0014775656280149186,0.0035615509992582427,0.38131487043692847,0.9244371810663845,0.0,0.0,0.0,0.0,0.0,0.0,0.0,0.0,0.0,-0.0021181409759315948,-0.00017564367313134543,-0.053702984898173,0.0,0.0,0.0,0.0,0.0,0.0,0.0,0.0,0.0,0.006687598250424254,0.7459481897061662,-0.005363403948196981,0.0,0.0,0.0,0.0,0.0,0.0,0.0,0.0,0.0
1.5670000000000002,38,1,567000000,base_footprint,-0.001474746190359506,0.003565233024690872,0.38033468634461354,0.924840873123749,0.0,0.0,0.0,0.0,0.0,0.0,0.0,0.0,0.0,-0.002404979178448691,-0.0003051828389583584,-0.07089654511028237,0.0,0.0,0.0,0.0,0.0,0.0,0.0,0.0,0.0,0.012211908695826168,0.7325182498307256,-0.0043738707556493514,0.0,0.0,0.0,0.0,0.0,0.0,0.0,0.0,0.0
1.601,39,1,601000000,base_footprint,-0.0014706534374858992,0.0035687463303882743,0.37908724519634873,0.92535288498904,0.0,0.0,0.0,0.0,0.0,0.0,0.0,0.0,0.0,-0.0025889695655727575,-0.00037740375119063216,-0.08755708018178958,0.0,0.0,0.0,0.0,0.0,0.0,0.0,0.0,0.0,0.019177918338782962,0.6945224640808052,-0.0040058513884881995,0.0,0.0,0.0,0.0,0.0,0.0,0.0,0.0,0.0
1.635,40,1,635000000,base_footprint,-0.001466045643352493,0.003573815380832492,0.37758555997454224,0.9259666427320732,0.0,0.0,0.0,0.0,0.0,0.0,0.0,0.0,0.0,-0.0015079970015589538,-0.0004998113242024565,-0.10285194246984466,0.0,0.0,0.0,0.0,0.0,0.0,0.0,0.0,0.0,0.0257785264463318,0.6224443068946058,-0.0021000837487429344,0.0,0.0,0.0,0.0,0.0,0.0,0.0,0.0,0.0
1.669,41,1,669000000,base_footprint,-0.0014601802623277003,0.003578624654537086,0.37585438747846023,0.9266706754464473,0.0,0.0,0.0,0.0,0.0,0.0,0.0,0.0,0.0,-0.0005753838771272906,-0.0005771116282352149,-0.11634366999686682,0.0,0.0,0.0,0.0,0.0,0.0,0.0,0.0,0.0,0.031056210350078828,0.5012334767239449,-0.001670516018156521,0.0,0.0,0.0,0.0,0.0,0.0,0.0,0.0,0.0
1.703,42,1,703000000,base_footprint,-0.0014534337970616346,0.0035839543798885445,0.373924472587992,0.9274510939133086,0.0,0.0,0.0,0.0,0.0,0.0,0.0,0.0,0.0,-0.0006188959523738089,-0.0006280816085075348,-0.12788523737940605,0.0,0.0,0.0,0.0,0.0,0.0,0.0,0.0,0.0,0.03396904453908138,0.3364084703739829,-0.0019253631677483604,0.0,0.0,0.0,0.0,0.0,0.0,0.0,0.0,0.0
1.737,43,1,737000000,base_footprint,-0.0014441316784003645,0.0035865796729765346,0.371828017993594,0.9282935828523757,0.0,0.0,0.0,0.0,0.0,0.0,0.0,0.0,0.0,-0.00035135894105975667,-0.0006980528873910834,-0.1372187897435251,0.0,0.0,0.0,0.0,0.0,0.0,0.0,0.0,0.0,0.03705241375274216,0.1433923777381955,-0.00024637873048837916,0.0,0.0,0.0,0.0,0.0,0.0,0.0,0.0,0.0
1.771,44,1,771000000,base_footprint,-0.0014318146172015399,0.003574379875769843,0.3696134853207018,0.9291776176730093,0.0,0.0,0.0,0.0,0.0,0.0,0.0,0.0,0.0,0.002270103869944953,-0.0003371630057474106,-0.14179470623084003,0.0,0.0,0.0,0.0,0.0,0.0,0.0,0.0,0.0,0.0008674321879473743,-0.02845403078467109,0.0029858333635462775,0.0,0.0,0.0,0.0,0.0,0.0,0.0,0.0,0.0
1.8050000000000002,45,1,805000000,base_footprint,-0.0014238464832145678,0.0035795490238104293,0.36732070424614927,0.9300863721838373,0.0,0.0,0.0,0.0,0.0,0.0,0.0,0.0,0.0,-0.0008314751857639497,-0.0008129915134923724,-0.14846784990758918,0.0,0.0,0.0,0.0,0.0,0.0,0.0,0.0,0.0,0.0407624525932309,0.07885453050497747,-0.004559218458336911,0.0,0.0,0.0,0.0,0.0,0.0,0.0,0.0,0.0
1.839,46,1,839000000,base_footprint,-0.0014105382105098422,0.0035814914620953993,0.36490629009372477,0.9310362950771028,0.0,0.0,0.0,0.0,0.0,0.0,0.0,0.0,0.0,-0.000565460038131742,-0.0007713416172943582,-0.1565174252682971,0.0,0.0,0.0,0.0,0.0,0.0,0.0,0.0,0.0,0.05075408477070127,0.24991367282348076,-0.0015243343609902338,0.0,0.0,0.0,0.0,0.0,0.0,0.0,0.0,0.0
1.8730000000000002,47,1,873000000,base_footprint,-0.0014185066666990876,0.003595047391379848,0.36278916261889843,0.9318632340420825,0.0,0.0,0.0,0.0,0.0,0.0,0.0,0.0,0.0,-0.00015545197499040306,-0.0003156040131047197,-0.08924208397647207,0.0,0.0,0.0,0.0,0.0,0.0,0.0,0.0,0.0,0.04980483161404216,0.2659299054166391,-0.0010204229058866396,0.0,0.0,0.0,0.0,0.0,0.0,0.0,0.0,0.0
1.907,48,1,907000000,base_footprint,-0.0014054754936300238,0.003587795452804377,0.36226252774421036,0.9320681377210579,0.0,0.0,0.0,0.0,0.0,0.0,0.0,0.0,0.0,0.000590475523510426,0.0004957904102701479,-0.009808688271268047,0.0,0.0,0.0,0.0,0.0,0.0,0.0,0.0,0.0,0.040199638213294,0.36828034342536015,-0.0012180922503402867,0.0,0.0,0.0,0.0,0.0,0.0,0.0,0.0,0.0
1.941,49,1,941000000,base_footprint,-0.0014104019410005847,0.0035952709847653585,0.36260435305099326,0.9319351736796834,0.0,0.0,0.0,0.0,0.0,0.0,0.0,0.0,0.0,-0.00035274806384953867,0.0002917628521221519,0.0312315350062044,0.0,0.0,0.0,0.0,0.0,0.0,0.0,0.0,0.0,0.010413183278885713,0.16949336570805676,-0.0030342414528509217,0.0,0.0,0.0,0.0,0.0,0.0,0.0,0.0,0.0
1.975,50,1,975000000,base_footprint,-0.0014116312775805568,0.0035940613434436984,0.363097493179827,0.9317431515534318,0.0,0.0,0.0,0.0,0.0,0.0,0.0,0.0,0.0,0.000420234068343985,0.00020943703320967425,0.031025394924845563,0.0,0.0,0.0,0.0,0.0,0.0,0.0,0.0,0.0,-0.00628742603289496,0.008122065333260103,0.0009556624880586005,0.0,0.0,0.0,0.0,0.0,0.0,0.0,0.0,0.0
2.009,51,2,9000000,base_footprint,-0.0014136638058458715,0.003594112593422802,0.36358369434648224,0.9315535309979097,0.0,0.0,0.0,0.0,0.0,0.0,0.0,0.0,0.0,0.0016942866753007798,0.0002912929392253573,0.02933284695351227,0.0,0.0,0.0,0.0,0.0,0.0,0.0,0.0,0.0,-0.03150176170983873,-0.31141064303556776,0.002791188220356122,0.0,0.0,0.0,0.0,0.0,0.0,0.0,0.0,0.0
2.043,52,2,43000000,base_footprint,-0.0014151889970021752,0.0035941421849711515,0.36400535475616236,0.9313888452686652,0.0,0.0,0.0,0.0,0.0,0.0,0.0,0.0,0.0,0.00013658526243443572,0.00016000618589973864,0.022563057875439878,0.0,0.0,0.0,0.0,0.0,0.0,0.0,0.0,0.0,-0.007639596995270897,-0.014667453585044735,-0.0012319555127632321,0.0,0.0,0.0,0.0,0.0,0.0,0.0,0.0,0.0
2.077,53,2,77000000,base_footprint,-0.0014176573557547142,0.003596367324914527,0.36436101736445287,0.9312497545851096,0.0,0.0,0.0,0.0,0.0,0.0,0.0,0.0,0.0,0.00011830269125932,0.00015624709490556738,0.022332344590738094,0.0,0.0,0.0,0.0,0.0,0.0,0.0,0.0,0.0,-0.004064749719253989,0.006229223173441224,-0.00017530094585631306,0.0,0.0,0.0,0.0,0.0,0.0,0.0,0.0,0.0
2.111,54,2,111000000,base_footprint,-0.0014218708938707168,0.003599770918754532,0.3648825841132044,0.9310454982133602,0.0,0.0,0.0,0.0,0.0,0.0,0.0,0.0,0.0,0.0004152019949461483,0.00039088635788218126,0.046492249285806225,0.0,0.0,0.0,0.0,0.0,0.0,0.0,0.0,0.0,-0.005486907429446064,-0.0018174471855501462,0.00010088866901421566,0.0,0.0,0.0,0.0,0.0,0.0,0.0,0.0,0.0
2.145,55,2,145000000,base_footprint,-0.0014262688866295676,0.0036023672618093723,0.36561264681719413,0.9307590349787102,0.0,0.0,0.0,0.0,0.0,0.0,0.0,0.0,0.0,0.00020115071083047612,0.00025628358794063444,0.046117448107633005,0.0,0.0,0.0,0.0,0.0,0.0,0.0,0.0,0.0,-0.008901278757479357,0.003962135043231545,-0.0003913900519078786,0.0,0.0,0.0,0.0,0.0,0.0,0.0,0.0,0.0
2.179,56,2,179000000,base_footprint,-0.0014300658371703796,0.003603583442447683,0.3663399538268572,0.9304730019340759,0.0,0.0,0.0,0.0,0.0,0.0,0.0,0.0,0.0,0.0002633450854342435,0.00025649563446973665,0.04602428507498236,0.0,0.0,0.0,0.0,0.0,0.0,0.0,0.0,0.0,-0.007641838504949739,0.0020494238309638384,0.0001372251622424219,0.0,0.0,0.0,0.0,0.0,0.0,0.0,0.0,0.0
2.213,57,2,213000000,base_footprint,-0.0014321726646934453,0.0036013066642252276,0.3670685569101153,0.9301858169203046,0.0,0.0,0.0,0.0,0.0,0.0,0.0,0.0,0.0,0.0006133782919682902,0.0002616661460086875,0.045898295379522974,0.0,0.0,0.0,0.0,0.0,0.0,0.0,0.0,0.0,-0.00802510291126911,-0.005834916595274896,0.0007526410509749558,0.0,0.0,0.0,0.0,0.0,0.0,0.0,0.0,0.0
2.247,58,2,247000000,base_footprint,-0.0014282784444713216,0.0035881034363810615,0.36771358861193615,0.9299310739428739,0.0,0.0,0.0,0.0,0.0,0.0,0.0,0.0,0.0,0.0005484838390679956,0.0012723524964476575,0.03262037620049975,0.0,0.0,0.0,0.0,0.0,0.0,0.0,0.0,0.0,-0.007511270905036949,-0.02906218213319042,0.0005836136818946884,0.0,0.0,0.0,0.0,0.0,0.0,0.0,0.0,0.0
2.281,59,2,281000000,base_footprint,-0.0014289492138172748,0.0035794385825370554,0.3684139322467878,0.9296538712069334,0.0,0.0,0.0,0.0,0.0,0.0,0.0,0.0,0.0,0.0017252939001595122,0.001488274032166021,0.053187449361045726,0.0,0.0,0.0,0.0,0.0,0.0,0.0,0.0,0.0,-0.022225918921473443,0.01934890314081448,0.0020891950361664135,0.0,0.0,0.0,0.0,0.0,0.0,0.0,0.0,0.0
2.315,60,2,315000000,base_footprint,-0.0014382564366081463,0.003596861454545927,0.369254845031187,0.9293201027778821,0.0,0.0,0.0,0.0,0.0,0.0,0.0,0.0,0.0,0.0003763690056387204,9.061005708739512e-05,0.04369597069720482,0.0,0.0,0.0,0.0,0.0,0.0,0.0,0.0,0.0,-0.018438667089828678,-0.2107827953801194,-0.0015095006637418447,0.0,0.0,0.0,0.0,0.0,0.0,0.0,0.0,0.0
2.349,61,2,349000000,base_footprint,-0.0014332659756388431,0.003579839923996796,0.3695993142119939,0.9291832313536366,0.0,0.0,0.0,0.0,0.0,0.0,0.0,0.0,0.0,-0.001892429857177476,-0.0007578731407538599,0.02122016050046584,0.0,0.0,0.0,0.0,0.0,0.0,0.0,0.0,0.0,0.00041053755487843735,0.0701079374158869,-0.004016376502312349,0.0,0.0,0.0,0.0,0.0,0.0,0.0,0.0,0.0
2.383,62,2,383000000,base_footprint,-0.0014413305149012423,0.003589908381039741,0.3703301795073362,0.9288921322038564,0.0,0.0,0.0,0.0,0.0,0.0,0.0,0.0,0.0,0.0003109402161630187,0.0001836271697472809,0.05420516965213673,0.0,0.0,0.0,0.0,0.0,0.0,0.0,0.0,0.0,-0.0033928313299699323,0.11958509300018581,0.002982067195294944,0.0,0.0,0.0,0.0,0.0,0.0,0.0,0.0,0.0
2.417,63,2,417000000,base_footprint,-0.0014373603274658365,0.0035813695856379796,0.3711421085318589,0.9285680605436017,0.0,0.0,0.0,0.0,0.0,0.0,0.0,0.0,0.0,-0.001332636013776394,-0.0015166271087958551,0.030118270132330614,0.0,0.0,0.0,0.0,0.0,0.0,0.0,0.0,0.0,0.007136646151300052,0.33606366935264376,-0.0054726273816771065,0.0,0.0,0.0,0.0,0.0,0.0,0.0,0.0,0.0
2.451,64,2,451000000,base_footprint,-0.0014424919985422148,0.003582488478811427,0.37152599070915543,0.9284145212246059,0.0,0.0,0.0,0.0,0.0,0.0,0.0,0.0,0.0,0.00036967128534061644,0.00019211936825696028,0.023987297923671626,0.0,0.0,0.0,0.0,0.0,0.0,0.0,0.0,0.0,-0.005484080674448563,0.023434823531366243,0.004013495878493387,0.0,0.0,0.0,0.0,0.0,0.0,0.0,0.0,0.0
2.485,65,2,485000000,base_footprint,-0.0014432220205492388,0.0035814124046043175,0.3719009232712916,0.928264398684636,0.0,0.0,0.0,0.0,0.0,0.0,0.0,0.0,0.0,0.00033055371751939105,0.00018101295378216613,0.02355996273345961,0.0,0.0,0.0,0.0,0.0,0.0,0.0,0.0,0.0,-0.004887847078088919,0.006069729368265569,-0.00011529295894118178,0.0,0.0,0.0,0.0,0.0,0.0,0.0,0.0,0.0
2.519,66,2,519000000,base_footprint,-0.0014471086446545705,0.0035859287169036436,0.372299739664354,0.928104493490718,0.0,0.0,0.0,0.0,0.0,0.0,0.0,0.0,0.0,0.0011258080431814006,0.00016831856901121378,0.02886115978673074,0.0,0.0,0.0,0.0,0.0,0.0,0.0,0.0,0.0,-0.03606606629610093,-0.6766698913189374,0.004686818711405133,0.0,0.0,0.0,0.0,0.0,0.0,0.0,0.0,0.0
2.553,67,2,553000000,base_footprint,-0.0014445804255586961,0.0035783935682485203,0.37260940125590364,0.9279802489183603,0.0,0.0,0.0,0.0,0.0,0.0,0.0,0.0,0.0,0.0001348853757796644,0.0008539250304214784,0.011951278591396825,0.0,0.0,0.0,0.0,0.0,0.0,0.0,0.0,0.0,0.007537658983894982,0.28972467298369253,-0.0013779815757377356,0.0,0.0,0.0,0.0,0.0,0.0,0.0,0.0,0.0
2.587,68,2,587000000,base_footprint,-0.001449269930600087,0.0035859708449601166,0.3728677918623266,0.9278764196925581,0.0,0.0,0.0,0.0,0.0,0.0,0.0,0.0,0.0,1.7930998480932578e-05,0.00011835690610439912,0.01495743825633284,0.0,0.0,0.0,0.0,0.0,0.0,0.0,0.0,0.0,0.0010386424175771666,0.0644479245367028,-0.0019917416121168095,0.0,0.0,0.0,0.0,0.0,0.0,0.0,0.0,0.0
2.621,69,2,621000000,base_footprint,-0.0014523899177559326,0.003589960006585509,0.37310006964498676,0.927783024624607,0.0,0.0,0.0,0.0,0.0,0.0,0.0,0.0,0.0,3.234773894494297e-05,7.801736966246348e-05,0.01447737660993707,0.0,0.0,0.0,0.0,0.0,0.0,0.0,0.0,0.0,-0.002017561933651317,0.0043109895848246526,-0.0002425019400779836,0.0,0.0,0.0,0.0,0.0,0.0,0.0,0.0,0.0
2.6550000000000002,70,2,655000000,base_footprint,-0.0014491391741995967,0.0035828498120387773,0.37313005417603184,0.9277709986055125,0.0,0.0,0.0,0.0,0.0,0.0,0.0,0.0,0.0,-0.00015041796916320137,-0.000541745988760463,-0.011345078939845842,0.0,0.0,0.0,0.0,0.0,0.0,0.0,0.0,0.0,0.011559205061515782,0.3395575951723798,-0.0013481161490622494,0.0,0.0,0.0,0.0,0.0,0.0,0.0,0.0,0.0
2.689,71,2,689000000,base_footprint,-0.0014537294313120203,0.0035940318969122104,0.3730513773674794,0.9278025864642172,0.0,0.0,0.0,0.0,0.0,0.0,0.0,0.0,0.0,0.00021421471650811738,-0.0001609543571448857,-0.005657892347864565,0.0,0.0,0.0,0.0,0.0,0.0,0.0,0.0,0.0,0.003202302702821428,-0.005926312588388325,1.1924586415759862e-05,0.0,0.0,0.0,0.0,0.0,0.0,0.0,0.0,0.0
2.723,72,2,723000000,base_footprint,-0.001456329282859187,0.003584804057123443,0.37319809211142757,0.9277436134672566,0.0,0.0,0.0,0.0,0.0,0.0,0.0,0.0,0.0,0.001146572927219757,0.00023037988838176522,0.015772689124764327,0.0,0.0,0.0,0.0,0.0,0.0,0.0,0.0,0.0,-0.0008456397807045171,-0.04710292052294307,0.002075086715049992,0.0,0.0,0.0,0.0,0.0,0.0,0.0,0.0,0.0
2.757,73,2,757000000,base_footprint,-0.0014503992400999148,0.003585135545633491,0.37334725287929404,0.9276836054995519,0.0,0.0,0.0,0.0,0.0,0.0,0.0,0.0,0.0,3.3897299798012225e-05,0.00027456940946862855,0.022476227848323097,0.0,0.0,0.0,0.0,0.0,0.0,0.0,0.0,0.0,-0.012734431183960695,-0.058116877752003776,-0.0025436331292817563,0.0,0.0,0.0,0.0,0.0,0.0,0.0,0.0,0.0
2.791,74,2,791000000,base_footprint,-0.0014558488781597132,0.0035900994507206815,0.37385618237234336,0.9274785962985642,0.0,0.0,0.0,0.0,0.0,0.0,0.0,0.0,0.0,-2.693173800696701e-05,-0.0008984940616613165,0.024035251901367634,0.0,0.0,0.0,0.0,0.0,0.0,0.0,0.0,0.0,-0.0027671054551171095,0.06321248824321239,-0.00037806784920520485,0.0,0.0,0.0,0.0,0.0,0.0,0.0,0.0,0.0
2.825,75,2,825000000,base_footprint,-0.0014566210026994905,0.0035891504312090257,0.37393415604493285,0.9274471646392588,0.0,0.0,0.0,0.0,0.0,0.0,0.0,0.0,0.0,-0.00016712419561781198,-8.921926522929449e-05,-0.013155433652696008,0.0,0.0,0.0,0.0,0.0,0.0,0.0,0.0,0.0,-0.017306554050960238,-0.4727881616351776,0.0037007148607439417,0.0,0.0,0.0,0.0,0.0,0.0,0.0,0.0,0.0
2.859,76,2,859000000,base_footprint,-0.0014568737774798843,0.0035855745476850364,0.3739992709773191,0.9274209219563646,0.0,0.0,0.0,0.0,0.0,0.0,0.0,0.0,0.0,0.001365180897541131,-0.00025333438643368423,0.020757181391892716,0.0,0.0,0.0,0.0,0.0,0.0,0.0,0.0,0.0,0.003218393117394261,0.1446646586719367,0.000777106406741645,0.0,0.0,0.0,0.0,0.0,0.0,0.0,0.0,0.0
2.893,77,2,893000000,base_footprint,-0.001456458300322995,0.003581266032073572,0.3743334212164421,0.927286117130641,0.0,0.0,0.0,0.0,0.0,0.0,0.0,0.0,0.0,0.0005220415293943774,0.00020232783847493882,0.021164075877435597,0.0,0.0,0.0,0.0,0.0,0.0,0.0,0.0,0.0,-0.0026854403677705856,0.003021017661878956,-0.000809822292855041,0.0,0.0,0.0,0.0,0.0,0.0,0.0,0.0,0.0
2.927,78,2,927000000,base_footprint,-0.0014549986960878598,0.003580719592384401,0.3742502351046606,0.9273196983511681,0.0,0.0,0.0,0.0,0.0,0.0,0.0,0.0,0.0,0.0004930279315504978,-9.921814692438866e-06,-0.03998660777769657,0.0,0.0,0.0,0.0,0.0,0.0,0.0,0.0,0.0,0.010834687103669277,0.3663243436983751,-0.0016290060887985496,0.0,0.0,0.0,0.0,0.0,0.0,0.0,0.0,0.0
2.9610000000000003,79,2,961000000,base_footprint,-0.001450453826951657,0.003578940807392811,0.3736200455805847,0.9275737970138845,0.0,0.0,0.0,0.0,0.0,0.0,0.0,0.0,0.0,7.908871363414555e-06,-0.00015043963761265464,-0.04014086360578818,0.0,0.0,0.0,0.0,0.0,0.0,0.0,0.0,0.0,0.011680361410735293,0.0011297387408148976,-0.0008090598742862537,0.0,0.0,0.0,0.0,0.0,0.0,0.0,0.0,0.0
2.995,80,2,995000000,base_footprint,-0.0014477258484306911,0.003580285878316274,0.37298301647123505,0.9278301326573286,0.0,0.0,0.0,0.0,0.0,0.0,0.0,0.0,0.0,-7.662943203139218e-05,-0.00016478536740818276,-0.04060711650856791,0.0,0.0,0.0,0.0,0.0,0.0,0.0,0.0,0.0,0.009228551059856214,0.005393918008519813,-0.00024636223348019066,0.0,0.0,0.0,0.0,0.0,0.0,0.0,0.0,0.0
3.029,81,3,29000000,base_footprint,-0.0014444320475173042,0.0035836599473036434,0.3719705991006407,0.928236470088389,0.0,0.0,0.0,0.0,0.0,0.0,0.0,0.0,0.0,-0.000296021207678344,-0.00030659120836245895,-0.06498033660582613,0.0,0.0,0.0,0.0,0.0,0.0,0.0,0.0,0.0,0.014609852824961965,0.011302865491997372,-0.0003241815475139022,0.0,0.0,0.0,0.0,0.0,0.0,0.0,0.0,0.0
3.063,82,3,63000000,base_footprint,-0.0014419769768373727,0.0035885224461496066,0.3709407457106527,0.9286484837551164,0.0,0.0,0.0,0.0,0.0,0.0,0.0,0.0,0.0,-0.00042551065718344437,-0.0003211252315874462,-0.0654781473897935,0.0,0.0,0.0,0.0,0.0,0.0,0.0,0.0,0.0,0.014763500094039287,0.004603167384631927,-0.00038518696160995245,0.0,0.0,0.0,0.0,0.0,0.0,0.0,0.0,0.0
3.097,83,3,97000000,base_footprint,-0.0014410490182672256,0.003595485945787768,0.3699043591746386,0.9290617637822259,0.0,0.0,0.0,0.0,0.0,0.0,0.0,0.0,0.0,9.25537898835791e-05,-0.0003312473433166365,-0.06333116129292757,0.0,0.0,0.0,0.0,0.0,0.0,0.0,0.0,0.0,0.012054156209047276,-0.03302896355136131,0.006451901658302292,0.0,0.0,0.0,0.0,0.0,0.0,0.0,0.0,0.0
3.1310000000000002,84,3,131000000,base_footprint,-0.0014412302509398658,0.0035987111318764764,0.3698796475524779,0.9290715895236534,0.0,0.0,0.0,0.0,0.0,0.0,0.0,0.0,0.0,0.0011068436029256627,8.949615821933677e-05,0.041168765503135515,0.0,0.0,0.0,0.0,0.0,0.0,0.0,0.0,0.0,-0.014888904204864231,-0.3329864069609674,-0.0037448701581582746,0.0,0.0,0.0,0.0,0.0,0.0,0.0,0.0,0.0
3.165,85,3,165000000,base_footprint,-0.0014442871005392532,0.00359806078789669,0.3705033688088085,0.92882303034252,0.0,0.0,0.0,0.0,0.0,0.0,0.0,0.0,0.0,0.0003378870922107195,0.00020071965955401164,0.0395390452365144,0.0,0.0,0.0,0.0,0.0,0.0,0.0,0.0,0.0,-0.0058392511924586395,0.0017530816362795658,-0.0006569089152585691,0.0,0.0,0.0,0.0,0.0,0.0,0.0,0.0,0.0
3.199,86,3,199000000,base_footprint,-0.0014458210968026064,0.0035938688562555075,0.37111561170290974,0.9285785892741525,0.0,0.0,0.0,0.0,0.0,0.0,0.0,0.0,0.0,0.0006852982936163803,0.0001224820307288947,0.03655384893012812,0.0,0.0,0.0,0.0,0.0,0.0,0.0,0.0,0.0,-0.00669735425687309,-0.013113710819917867,0.000851634627308926,0.0,0.0,0.0,0.0,0.0,0.0,0.0,0.0,0.0
3.233,87,3,233000000,base_footprint,-0.0014439470709035269,0.0035837376406005314,0.37155097700813305,0.9284045149209915,0.0,0.0,0.0,0.0,0.0,0.0,0.0,0.0,0.0,0.0027870799108210753,-0.0005982673777784137,0.026887810535982704,0.0,0.0,0.0,0.0,0.0,0.0,0.0,0.0,0.0,-0.02142641103730114,-0.05847302788653312,0.0036237452599219527,0.0,0.0,0.0,0.0,0.0,0.0,0.0,0.0,0.0
3.267,88,3,267000000,base_footprint,-0.0014397851993336193,0.0035652755857437306,0.3721690008221668,0.9281570183194261,0.0,0.0,0.0,0.0,0.0,0.0,0.0,0.0,0.0,-0.0006889843086971484,0.000847855236615413,0.04959216668713012,0.0,0.0,0.0,0.0,0.0,0.0,0.0,0.0,0.0,-4.70581207927534e-05,0.08198273656166957,-0.006277599469609317,0.0,0.0,0.0,0.0,0.0,0.0,0.0,0.0,0.0
3.301,89,3,301000000,base_footprint,-0.0014377314509273348,0.0035816970023775153,0.37292035402955226,0.9278553302780188,0.0,0.0,0.0,0.0,0.0,0.0,0.0,0.0,0.0,0.0008150626408980684,0.00017905755393160479,0.023291134380820117,0.0,0.0,0.0,0.0,0.0,0.0,0.0,0.0,0.0,-0.0017727489233810706,0.19539390247898744,0.0020799890063250134,0.0,0.0,0.0,0.0,0.0,0.0,0.0,0.0,0.0
3.335,90,3,335000000,base_footprint,-0.0014500303414628115,0.003587804071836479,0.37279722922804287,0.9279047639460879,0.0,0.0,0.0,0.0,0.0,0.0,0.0,0.0,0.0,0.00038434037905524536,-0.00019445205009767738,-0.017199807623102033,0.0,0.0,0.0,0.0,0.0,0.0,0.0,0.0,0.0,0.007575542932526859,0.11310526363008266,-0.0011127722512951866,0.0,0.0,0.0,0.0,0.0,0.0,0.0,0.0,0.0
3.369,91,3,369000000,base_footprint,-0.00144854292316109,0.0035849290911220797,0.3725194017541395,0.9280163497070241,0.0,0.0,0.0,0.0,0.0,0.0,0.0,0.0,0.0,0.00038973793588385715,-1.795733491366202e-05,-0.01785644425728585,0.0,0.0,0.0,0.0,0.0,0.0,0.0,0.0,0.0,0.005000916386930863,0.0060246071057907385,0.0002155262901343149,0.0,0.0,0.0,0.0,0.0,0.0,0.0,0.0,0.0
3.403,92,3,403000000,base_footprint,-0.0014440521593985598,0.003582594434791848,0.3723664387766289,0.9280777526712339,0.0,0.0,0.0,0.0,0.0,0.0,0.0,0.0,0.0,0.0008356421366351589,-0.00015091728710703767,0.026321652066589277,0.0,0.0,0.0,0.0,0.0,0.0,0.0,0.0,0.0,0.004279062578827615,-0.007423297538803693,-4.188462483946585e-05,0.0,0.0,0.0,0.0,0.0,0.0,0.0,0.0,0.0
3.438,93,3,437000000,base_footprint,-0.0014461040514659176,0.0035804055211344304,0.37275154934775373,0.9279231498018712,0.0,0.0,0.0,0.0,0.0,0.0,0.0,0.0,0.0,0.0003664138461095148,0.00018496514945645428,0.023913257340970582,0.0,0.0,0.0,0.0,0.0,0.0,0.0,0.0,0.0,-0.007112174632618843,0.007664319216302225,-0.00038526855655577366,0.0,0.0,0.0,0.0,0.0,0.0,0.0,0.0,0.0
3.471,94,3,471000000,base_footprint,-0.0014473371046147508,0.003580036418813257,0.373124769709724,0.9277731375630635,0.0,0.0,0.0,0.0,0.0,0.0,0.0,0.0,0.0,0.00028428387159534345,0.00017223353659377683,0.02344179751448807,0.0,0.0,0.0,0.0,0.0,0.0,0.0,0.0,0.0,-0.00490951033062049,0.006005082999099529,-0.00017072756593205368,0.0,0.0,0.0,0.0,0.0,0.0,0.0,0.0,0.0
3.505,95,3,505000000,base_footprint,-0.0014502758513473106,0.0035822592335695647,0.3735006408509937,0.9276218709165042,0.0,0.0,0.0,0.0,0.0,0.0,0.0,0.0,0.0,0.0014730126919266448,0.00014992323621618978,0.026975079525578628,0.0,0.0,0.0,0.0,0.0,0.0,0.0,0.0,0.0,-0.016503086067825717,-0.26232688336012955,0.002820845140350735,0.0,0.0,0.0,0.0,0.0,0.0,0.0,0.0,0.0
3.539,96,3,539000000,base_footprint,-0.001449793560745652,0.0035779235832740287,0.37378939759709595,0.9275055702288066,0.0,0.0,0.0,0.0,0.0,0.0,0.0,0.0,0.0,-0.00022783210731087196,2.400699033364224e-05,0.0030374623706448745,0.0,0.0,0.0,0.0,0.0,0.0,0.0,0.0,0.0,-0.010118709810472887,-0.196287226122056,-0.0004025135511982627,0.0,0.0,0.0,0.0,0.0,0.0,0.0,0.0,0.0
3.573,97,3,573000000,base_footprint,-0.0014545571333146607,0.0035870150320458953,0.37399508218314353,0.9274226092184348,0.0,0.0,0.0,0.0,0.0,0.0,0.0,0.0,0.0,-0.0005850309313890829,8.68675868118274e-05,0.014710570059179088,0.0,0.0,0.0,0.0,0.0,0.0,0.0,0.0,0.0,0.0024570338421117527,0.1356805600118206,-0.0019886528837397706,0.0,0.0,0.0,0.0,0.0,0.0,0.0,0.0,0.0
3.607,98,3,607000000,base_footprint,-0.001453069270242815,0.0035801064777362303,0.37418314588126445,0.9273467769748837,0.0,0.0,0.0,0.0,0.0,0.0,0.0,0.0,0.0,0.00010583862125964906,1.5781352792773094e-05,0.0006909277293549379,0.0,0.0,0.0,0.0,0.0,0.0,0.0,0.0,0.0,0.003505535531276527,0.16413352049882296,0.0009433850106097234,0.0,0.0,0.0,0.0,0.0,0.0,0.0,0.0,0.0
3.641,99,3,641000000,base_footprint,-0.0014590565517468626,0.0035890946603023884,0.37437741484535725,0.9272683219042941,0.0,0.0,0.0,0.0,0.0,0.0,0.0,0.0,0.0,-0.00040636916602990875,0.0006012589748640309,0.02112338415086191,0.0,0.0,0.0,0.0,0.0,0.0,0.0,0.0,0.0,0.006274771609259856,0.18139769029059824,-0.002787445919610733,0.0,0.0,0.0,0.0,0.0,0.0,0.0,0.0,0.0
3.675,100,3,675000000,base_footprint,-0.0014600045138892528,0.0035888812990774845,0.37470724063506433,0.9271350883951577,0.0,0.0,0.0,0.0,0.0,0.0,0.0,0.0,0.0,0.0005297046209038318,3.698922716579092e-05,0.01866126024186304,0.0,0.0,0.0,0.0,0.0,0.0,0.0,0.0,0.0,-0.003336563170395634,-0.023100306355288244,0.0017223101500708177,0.0,0.0,0.0,0.0,0.0,0.0,0.0,0.0,0.0
3.709,101,3,709000000,base_footprint,-0.0014581401179070742,0.0035851791010639614,0.37486467003222684,0.9270714640629597,0.0,0.0,0.0,0.0,0.0,0.0,0.0,0.0,0.0,-0.00017294401371842658,0.0007436046747650258,0.0079981194065247,0.0,0.0,0.0,0.0,0.0,0.0,0.0,0.0,0.0,-0.012790961122860264,-0.05708232123912228,-0.0010678735889335144,0.0,0.0,0.0,0.0,0.0,0.0,0.0,0.0,0.0
3.743,102,3,743000000,base_footprint,-0.0014605427534202667,0.0035902246651848373,0.3753311846550778,0.9268826672924328,0.0,0.0,0.0,0.0,0.0,0.0,0.0,0.0,0.0,0.00017384634829543044,0.00028590684301825286,0.04271348101739925,0.0,0.0,0.0,0.0,0.0,0.0,0.0,0.0,0.0,-0.0020507648194430473,0.018634649847687423,0.00046308555174884585,0.0,0.0,0.0,0.0,0.0,0.0,0.0,0.0,0.0
3.777,103,3,777000000,base_footprint,-0.0014649300579535611,0.0035858873606474106,0.37586375461591254,0.9266668405407584,0.0,0.0,0.0,0.0,0.0,0.0,0.0,0.0,0.0,0.0004896408032812843,0.00013787743560164057,0.03513716339386843,0.0,0.0,0.0,0.0,0.0,0.0,0.0,0.0,0.0,-0.007020705498886993,0.010975709687649491,0.0006144833890871198,0.0,0.0,0.0,0.0,0.0,0.0,0.0,0.0,0.0
3.811,104,3,811000000,base_footprint,-0.001465857496428804,0.0035832283892964644,0.3761197597102156,0.9265629703866004,0.0,0.0,0.0,0.0,0.0,0.0,0.0,0.0,0.0,-0.0008081276138773111,0.00034684351372108146,-0.009077622318130247,0.0,0.0,0.0,0.0,0.0,0.0,0.0,0.0,0.0,-0.00523950964536751,0.021380352079047153,-0.0015237732477787252,0.0,0.0,0.0,0.0,0.0,0.0,0.0,0.0,0.0
3.845,105,3,845000000,base_footprint,-0.0014636830925985162,0.0035792347417838676,0.3759892513888413,0.9266159558039817,0.0,0.0,0.0,0.0,0.0,0.0,0.0,0.0,0.0,0.0003802063113816002,4.814521345957213e-05,-0.008333944847535699,0.0,0.0,0.0,0.0,0.0,0.0,0.0,0.0,0.0,0.0035951576287491615,-0.0008372641302779908,0.002004465386084906,0.0,0.0,0.0,0.0,0.0,0.0,0.0,0.0,0.0
3.879,106,3,879000000,base_footprint,-0.0014607183323461154,0.0035765027607084195,0.3758550831459312,0.9266704006297608,0.0,0.0,0.0,0.0,0.0,0.0,0.0,0.0,0.0,0.00028332951289695394,3.8236552134667106e-05,-0.008677733006859487,0.0,0.0,0.0,0.0,0.0,0.0,0.0,0.0,0.0,0.0019448953354712487,0.005534184121756543,-0.0002208901986812717,0.0,0.0,0.0,0.0,0.0,0.0,0.0,0.0,0.0
3.9130000000000003,107,3,913000000,base_footprint,-0.0014582354688983633,0.003575910914259341,0.37553083226315853,0.9268018560783043,0.0,0.0,0.0,0.0,0.0,0.0,0.0,0.0,0.0,8.363517702980455e-05,-6.536588821904501e-05,-0.032405286356512575,0.0,0.0,0.0,0.0,0.0,0.0,0.0,0.0,0.0,0.004344304140352064,0.01202441908891839,-0.00024051495993357587,0.0,0.0,0.0,0.0,0.0,0.0,0.0,0.0,0.0
3.947,108,3,947000000,base_footprint,-0.0014557538422843653,0.0035768662916389683,0.37501873054056917,0.9270091901119548,0.0,0.0,0.0,0.0,0.0,0.0,0.0,0.0,0.0,-2.076012851403741e-05,-0.00011683193115413231,-0.03268894075982954,0.0,0.0,0.0,0.0,0.0,0.0,0.0,0.0,0.0,0.007710574051396579,0.0052519790379814,-0.0002600562343569391,0.0,0.0,0.0,0.0,0.0,0.0,0.0,0.0,0.0
3.981,109,3,981000000,base_footprint,-0.001454127136220121,0.0035791954130313247,0.3744996424357457,0.9272190100995373,0.0,0.0,0.0,0.0,0.0,0.0,0.0,0.0,0.0,-0.00011109175676723451,-0.0001288217603997515,-0.033142942549817936,0.0,0.0,0.0,0.0,0.0,0.0,0.0,0.0,0.0,0.007569070086738673,0.005425922983037266,-0.00026070442881276996,0.0,0.0,0.0,0.0,0.0,0.0,0.0,0.0,0.0
4.015,110,4,15000000,base_footprint,-0.0014529879068141034,0.003580435476665677,0.3740290388263936,0.9274089429278457,0.0,0.0,0.0,0.0,0.0,0.0,0.0,0.0,0.0,0.000830997438792531,-0.00026348870197047847,-0.02188473097431133,0.0,0.0,0.0,0.0,0.0,0.0,0.0,0.0,0.0,-0.011460467127428764,-0.49070008569862306,0.00404454364673674,0.0,0.0,0.0,0.0,0.0,0.0,0.0,0.0,0.0
4.049,111,4,49000000,base_footprint,-0.0014544588051105126,0.0035873076199947887,0.37383271146306746,0.9274880697959379,0.0,0.0,0.0,0.0,0.0,0.0,0.0,0.0,0.0,-0.00039800782204442046,-9.370980862228127e-05,-0.025428016860432195,0.0,0.0,0.0,0.0,0.0,0.0,0.0,0.0,0.0,-0.005588034599606412,-0.18255067685545245,-0.001240917764502953,0.0,0.0,0.0,0.0,0.0,0.0,0.0,0.0,0.0
4.083,112,4,83000000,base_footprint,-0.0014541264982088633,0.0035909706289396865,0.3734318524694997,0.9276495254174754,0.0,0.0,0.0,0.0,0.0,0.0,0.0,0.0,0.0,-0.0001619091789476788,-0.00011131269012367047,-0.02570325140757969,0.0,0.0,0.0,0.0,0.0,0.0,0.0,0.0,0.0,0.007087764562833985,0.0001892428725531847,0.0004173765361405634,0.0,0.0,0.0,0.0,0.0,0.0,0.0,0.0,0.0
4.117,113,4,117000000,base_footprint,-0.0014535978080820776,0.003593747143736038,0.3730221218789361,0.9278143503006491,0.0,0.0,0.0,0.0,0.0,0.0,0.0,0.0,0.0,-0.0001347447918279005,-0.00014701244905299392,-0.026140664530768486,0.0,0.0,0.0,0.0,0.0,0.0,0.0,0.0,0.0,0.0051953534948301,-0.004237242941724903,2.7846054858164277e-05,0.0,0.0,0.0,0.0,0.0,0.0,0.0,0.0,0.0
4.151,114,4,151000000,base_footprint,-0.001447654027005547,0.003585404331717543,0.37244231105648784,0.9280472908793488,0.0,0.0,0.0,0.0,0.0,0.0,0.0,0.0,0.0,0.0006185931346416472,-0.00020208754017027108,-0.05633366698134312,0.0,0.0,0.0,0.0,0.0,0.0,0.0,0.0,0.0,0.015674984773673697,0.11907632273398071,0.0010651369141946713,0.0,0.0,0.0,0.0,0.0,0.0,0.0,0.0,0.0
4.185,115,4,185000000,base_footprint,-0.0014436311237512743,0.003579074642276132,0.37120627608397555,0.9285424097744545,0.0,0.0,0.0,0.0,0.0,0.0,0.0,0.0,0.0,0.0012693578702817436,0.001413986781608808,-0.09261255008199791,0.0,0.0,0.0,0.0,0.0,0.0,0.0,0.0,0.0,0.011051994922373867,0.020575081972513287,-0.0021205674052752433,0.0,0.0,0.0,0.0,0.0,0.0,0.0,0.0,0.0
4.219,116,4,219000000,base_footprint,-0.0014319354882043822,0.003578303375711069,0.36997221220608256,0.9290348257740646,0.0,0.0,0.0,0.0,0.0,0.0,0.0,0.0,0.0,0.001278170036960428,0.0020883491950753146,-0.06521727124503322,0.0,0.0,0.0,0.0,0.0,0.0,0.0,0.0,0.0,0.011383852401538663,0.01948038825343563,0.005229182448694618,0.0,0.0,0.0,0.0,0.0,0.0,0.0,0.0,0.0
4.253,117,4,253000000,base_footprint,-0.0014249849702249666,0.0035779034031910495,0.3691148467841022,0.9293758109121524,0.0,0.0,0.0,0.0,0.0,0.0,0.0,0.0,0.0,-3.114740859963374e-05,-8.75935539268485e-05,-0.04487495738232483,0.0,0.0,0.0,0.0,0.0,0.0,0.0,0.0,0.0,0.027739973678895816,0.19251320725389492,-0.005631905371908314,0.0,0.0,0.0,0.0,0.0,0.0,0.0,0.0,0.0
4.287,118,4,287000000,base_footprint,-0.0014351138686797096,0.0035941709224108663,0.3685815196655413,0.929587373916301,0.0,0.0,0.0,0.0,0.0,0.0,0.0,0.0,0.0,-0.003126539746779257,0.0013153576771928678,-0.017467765288222716,0.0,0.0,0.0,0.0,0.0,0.0,0.0,0.0,0.0,0.027659564904233727,0.29292151050035053,-0.006621961457727199,0.0,0.0,0.0,0.0,0.0,0.0,0.0,0.0,0.0
4.321,119,4,321000000,base_footprint,-0.0014334972651926597,0.0035923734035869332,0.3685344240274209,0.9296060554050286,0.0,0.0,0.0,0.0,0.0,0.0,0.0,0.0,0.0,0.00035447093966073167,-0.00016114545707928538,0.0016659814145527385,0.0,0.0,0.0,0.0,0.0,0.0,0.0,0.0,0.0,-0.0010599311749338665,-0.00420464425095065,0.004933353019558705,0.0,0.0,0.0,0.0,0.0,0.0,0.0,0.0,0.0
4.355,120,4,355000000,base_footprint,-0.0014316937828717457,0.003588979345759307,0.36855973737749465,0.9295960356328979,0.0,0.0,0.0,0.0,0.0,0.0,0.0,0.0,0.0,0.0003721898533509822,7.961936493574952e-05,0.0014040016328286228,0.0,0.0,0.0,0.0,0.0,0.0,0.0,0.0,0.0,0.0001869702158312928,0.004967990996703168,0.0001997772321807635,0.0,0.0,0.0,0.0,0.0,0.0,0.0,0.0,0.0
4.389,121,4,389000000,base_footprint,-0.0014302928091799467,0.0035872363156036068,0.3685778288941381,0.9295888715156715,0.0,0.0,0.0,0.0,0.0,0.0,0.0,0.0,0.0,0.0002709825613782156,6.266413473133997e-05,0.000914954142801044,0.0,0.0,0.0,0.0,0.0,0.0,0.0,0.0,0.0,0.00010339800604795661,0.005787815694101323,-0.0002170763413361502,0.0,0.0,0.0,0.0,0.0,0.0,0.0,0.0,0.0
4.423,122,4,423000000,base_footprint,-0.0014298103985666637,0.003586949740895329,0.368588087184083,0.9295848059320673,0.0,0.0,0.0,0.0,0.0,0.0,0.0,0.0,0.0,0.00018673000985079254,4.906653819635572e-05,0.0004178730907896396,0.0,0.0,0.0,0.0,0.0,0.0,0.0,0.0,0.0,0.00026226643236366086,0.00579983670924706,-0.00019657317448969625,0.0,0.0,0.0,0.0,0.0,0.0,0.0,0.0,0.0
4.457,123,4,457000000,base_footprint,-0.0014290264002135632,0.0035885914122494884,0.36829060904215805,0.9297026982786378,0.0,0.0,0.0,0.0,0.0,0.0,0.0,0.0,0.0,-1.3518187383587337e-05,-8.366409612683702e-05,-0.0229883453164828,0.0,0.0,0.0,0.0,0.0,0.0,0.0,0.0,0.0,0.004833281761884637,0.01150946546415695,-0.0002414651669972347,0.0,0.0,0.0,0.0,0.0,0.0,0.0,0.0,0.0
4.491,124,4,491000000,base_footprint,-0.001428784109132659,0.0035916485004240896,0.36792303069798266,0.9298482145592528,0.0,0.0,0.0,0.0,0.0,0.0,0.0,0.0,0.0,-0.00013657177776232974,-9.63243120555017e-05,-0.02348988205298567,0.0,0.0,0.0,0.0,0.0,0.0,0.0,0.0,0.0,0.0054909822306748995,0.005214531656292504,-0.00031563143350837853,0.0,0.0,0.0,0.0,0.0,0.0,0.0,0.0,0.0
4.525,125,4,525000000,base_footprint,-0.001430667849677262,0.0035959668409874836,0.36785816405157085,0.929873858839246,0.0,0.0,0.0,0.0,0.0,0.0,0.0,0.0,0.0,-0.0001604435859670013,1.6280342904173507e-05,-0.0010770538177241572,0.0,0.0,0.0,0.0,0.0,0.0,0.0,0.0,0.0,0.0011278699884815116,-0.0011901944675077923,-0.0003359744434767943,0.0,0.0,0.0,0.0,0.0,0.0,0.0,0.0,0.0
4.559,126,4,559000000,base_footprint,-0.0014318520195520143,0.0035997056287836015,0.3678387012598852,0.9298815417969223,0.0,0.0,0.0,0.0,0.0,0.0,0.0,0.0,0.0,-4.467806768186101e-05,1.678609569035369e-05,-0.001490965250942782,0.0,0.0,0.0,0.0,0.0,0.0,0.0,0.0,0.0,0.0014688054974088547,0.0017595395655349486,7.532427902804774e-06,0.0,0.0,0.0,0.0,0.0,0.0,0.0,0.0,0.0
4.593,127,4,593000000,base_footprint,-0.0014329950610281784,0.003602074805294223,0.36781093112568086,0.9298925155773176,0.0,0.0,0.0,0.0,0.0,0.0,0.0,0.0,0.0,-6.946773067521288e-06,-2.1620948652308912e-05,-0.0018987578920544122,0.0,0.0,0.0,0.0,0.0,0.0,0.0,0.0,0.0,0.0002749200443614133,-0.004947633337017876,7.788836081355343e-05,0.0,0.0,0.0,0.0,0.0,0.0,0.0,0.0,0.0
4.627,128,4,627000000,base_footprint,-0.0014351936598899172,0.0035987858594220485,0.36834820710373467,0.9296798305239073,0.0,0.0,0.0,0.0,0.0,0.0,0.0,0.0,0.0,0.00042402845329140383,0.0004058802037832499,0.03520545040776995,0.0,0.0,0.0,0.0,0.0,0.0,0.0,0.0,0.0,-0.003008324161270939,-0.007319947622576879,0.0005807697446591814,0.0,0.0,0.0,0.0,0.0,0.0,0.0,0.0,0.0
4.661,129,4,661000000,base_footprint,-0.0014356452825932068,0.0035930241083649657,0.36878924867011487,0.9295049860897527,0.0,0.0,0.0,0.0,0.0,0.0,0.0,0.0,0.0,0.00017851187768002578,0.0004432759657823787,0.01940082546834447,0.0,0.0,0.0,0.0,0.0,0.0,0.0,0.0,0.0,-0.01726147718114811,-0.05913695794360233,1.3474352611757731e-05,0.0,0.0,0.0,0.0,0.0,0.0,0.0,0.0,0.0
4.695,130,4,695000000,base_footprint,-0.0014373398361872299,0.0035976759883586326,0.3693398502874406,0.9292863206629748,0.0,0.0,0.0,0.0,0.0,0.0,0.0,0.0,0.0,-0.00010256089583737444,0.0007861349818710506,0.04849206900884504,0.0,0.0,0.0,0.0,0.0,0.0,0.0,0.0,0.0,-0.006183918511603534,-0.0030520073700182546,-0.0010844552512016211,0.0,0.0,0.0,0.0,0.0,0.0,0.0,0.0,0.0
4.729,131,4,729000000,base_footprint,-0.0014425582727386494,0.0035956706336847982,0.3700480840966191,0.9290045240119907,0.0,0.0,0.0,0.0,0.0,0.0,0.0,0.0,0.0,0.0006458867611124136,0.00020205447569245175,0.04579253349082521,0.0,0.0,0.0,0.0,0.0,0.0,0.0,0.0,0.0,-0.009248700035941021,0.022651145097120205,0.0016563842996874239,0.0,0.0,0.0,0.0,0.0,0.0,0.0,0.0,0.0
4.763,132,4,763000000,base_footprint,-0.0014445095889194547,0.0035912771195074256,0.37076243146254595,0.9287196754331629,0.0,0.0,0.0,0.0,0.0,0.0,0.0,0.0,0.0,0.00046301112572268605,0.00024380334878594672,0.04538171163303306,0.0,0.0,0.0,0.0,0.0,0.0,0.0,0.0,0.0,-0.009737209585964315,0.004334720493728452,-0.00020034511730584092,0.0,0.0,0.0,0.0,0.0,0.0,0.0,0.0,0.0
4.797,133,4,797000000,base_footprint,-0.0014465428147495544,0.003586807660294366,0.3714815549121011,0.9284322789976557,0.0,0.0,0.0,0.0,0.0,0.0,0.0,0.0,0.0,0.0007068846615436538,0.00032683852427551333,0.04572923421412901,0.0,0.0,0.0,0.0,0.0,0.0,0.0,0.0,0.0,-0.009284220121963588,0.004400595648695337,0.0007240443576743624,0.0,0.0,0.0,0.0,0.0,0.0,0.0,0.0,0.0
4.831,134,4,831000000,base_footprint,-0.0014509343919981614,0.003591206684030273,0.3721993521212177,0.9281447302573498,0.0,0.0,0.0,0.0,0.0,0.0,0.0,0.0,0.0,-0.006391180141315533,0.0002846054581176795,0.04421558380136657,0.0,0.0,0.0,0.0,0.0,0.0,0.0,0.0,0.0,-0.014368130120709803,-0.08390907654159882,-0.007753372562084306,0.0,0.0,0.0,0.0,0.0,0.0,0.0,0.0,0.0
4.865,135,4,865000000,base_footprint,-0.0014464987926844062,0.0035775714525241005,0.37268258310072794,0.927950861240569,0.0,0.0,0.0,0.0,0.0,0.0,0.0,0.0,0.0,0.0008472512062126548,0.0004704808932758283,0.037680632922061176,0.0,0.0,0.0,0.0,0.0,0.0,0.0,0.0,0.0,-0.01727341890534427,-0.25153247063497736,0.00953704941787735,0.0,0.0,0.0,0.0,0.0,0.0,0.0,0.0,0.0
4.899,136,4,899000000,base_footprint,-0.0014458683923611133,0.0035727775984036995,0.37328825453038217,0.9277074020155736,0.0,0.0,0.0,0.0,0.0,0.0,0.0,0.0,0.0,0.002850837976748082,0.00019873658883704111,0.03675747731917653,0.0,0.0,0.0,0.0,0.0,0.0,0.0,0.0,0.0,-0.0017764019531189695,0.1043863940004356,0.002150195368133447,0.0,0.0,0.0,0.0,0.0,0.0,0.0,0.0,0.0
4.933,137,4,933000000,base_footprint,-0.0014529609567194605,0.003578520660381848,0.3743652384630078,0.9272732883701962,0.0,0.0,0.0,0.0,0.0,0.0,0.0,0.0,0.0,0.0005275539820400858,0.000507008788548637,0.08191591281343032,0.0,0.0,0.0,0.0,0.0,0.0,0.0,0.0,0.0,-0.006464666287757728,0.24507506955879615,-0.004506092098750237,0.0,0.0,0.0,0.0,0.0,0.0,0.0,0.0,0.0
4.9670000000000005,138,4,967000000,base_footprint,-0.001458680502965175,0.0035792342994731084,0.3756525911888613,0.9267524977393446,0.0,0.0,0.0,0.0,0.0,0.0,0.0,0.0,0.0,0.00044239633613003544,0.0005061612845807558,0.08150340915329012,0.0,0.0,0.0,0.0,0.0,0.0,0.0,0.0,0.0,-0.017705445905366796,0.005949628367252566,-0.00014121645986532835,0.0,0.0,0.0,0.0,0.0,0.0,0.0,0.0,0.0
5.001,139,5,1000000,base_footprint,-0.001462327539127289,0.0035796420316410132,0.37684848151587225,0.9262668458604544,0.0,0.0,0.0,0.0,0.0,0.0,0.0,0.0,0.0,0.0009269318122293898,0.002838884168011596,0.03861235538568172,0.0,0.0,0.0,0.0,0.0,0.0,0.0,0.0,0.0,-0.015768515811412455,0.01540042728041922,0.0014398651604377358,0.0,0.0,0.0,0.0,0.0,0.0,0.0,0.0,0.0
5.035,140,5,35000000,base_footprint,-0.0014692472894892654,0.0035847925814425923,0.37747040381739455,0.9260135446182651,0.0,0.0,0.0,0.0,0.0,0.0,0.0,0.0,0.0,0.00019063227762097635,0.0002135698393128622,0.03943874564050236,0.0,0.0,0.0,0.0,0.0,0.0,0.0,0.0,0.0,-0.007916811869066367,0.003419362622749893,-0.0017295548760494104,0.0,0.0,0.0,0.0,0.0,0.0,0.0,0.0,0.0
5.069,141,5,69000000,base_footprint,-0.0014732092413944123,0.003585604135506359,0.37808262502692314,0.9257637397037463,0.0,0.0,0.0,0.0,0.0,0.0,0.0,0.0,0.0,0.0002903819195400388,0.00018849229190268752,0.038674114861427994,0.0,0.0,0.0,0.0,0.0,0.0,0.0,0.0,0.0,-0.0064514319348245395,0.0009103135408387152,0.00021606554547783335,0.0,0.0,0.0,0.0,0.0,0.0,0.0,0.0,0.0
5.103,142,5,103000000,base_footprint,-0.0014727470669625177,0.003580743851903512,0.37863768805745446,0.925536876883925,0.0,0.0,0.0,0.0,0.0,0.0,0.0,0.0,0.0,0.0032572424711277076,0.0026154430683987583,0.01679602604928819,0.0,0.0,0.0,0.0,0.0,0.0,0.0,0.0,0.0,-0.010873880708362135,0.014101344033660746,0.005505498296277465,0.0,0.0,0.0,0.0,0.0,0.0,0.0,0.0,0.0
5.1370000000000005,143,5,137000000,base_footprint,-0.0014743021178385712,0.0035823834422409094,0.3785154282361089,0.9255868752037127,0.0,0.0,0.0,0.0,0.0,0.0,0.0,0.0,0.0,-5.8776219234734575e-05,7.112226265030384e-05,-0.0172387935429062,0.0,0.0,0.0,0.0,0.0,0.0,0.0,0.0,0.0,0.0011527677705757931,-0.03858245563010925,-0.005445395736378952,0.0,0.0,0.0,0.0,0.0,0.0,0.0,0.0,0.0
5.171,144,5,171000000,base_footprint,-0.0014743002711635888,0.003583288598599624,0.3785000947185207,0.9255931421416218,0.0,0.0,0.0,0.0,0.0,0.0,0.0,0.0,0.0,0.0002071071333044345,-0.0005256608629772473,0.003508047819011632,0.0,0.0,0.0,0.0,0.0,0.0,0.0,0.0,0.0,-0.0037494210380833934,-0.02562782283229595,0.0001948315584890299,0.0,0.0,0.0,0.0,0.0,0.0,0.0,0.0,0.0
5.205,145,5,205000000,base_footprint,-0.0014753996859617037,0.003573014602610016,0.37863622768250726,0.9255374999689514,0.0,0.0,0.0,0.0,0.0,0.0,0.0,0.0,0.0,0.0004019468047611602,0.003025477541958962,0.06558569104854489,0.0,0.0,0.0,0.0,0.0,0.0,0.0,0.0,0.0,-0.003630588036132635,0.0042265117028183405,0.0012243079455765142,0.0,0.0,0.0,0.0,0.0,0.0,0.0,0.0,0.0
5.239,146,5,239000000,base_footprint,-0.00147985538490934,0.0035766391413835567,0.37985664515788575,0.9250372677951348,0.0,0.0,0.0,0.0,0.0,0.0,0.0,0.0,0.0,0.0008053412727772411,0.00036702037608175327,0.07628207274645535,0.0,0.0,0.0,0.0,0.0,0.0,0.0,0.0,0.0,-0.013063635877024983,-0.002898723216903595,-0.00034553870038673905,0.0,0.0,0.0,0.0,0.0,0.0,0.0,0.0,0.0
5.273,147,5,273000000,base_footprint,-0.0014836818924277738,0.003571327795203608,0.3810578625036882,0.9245431032298828,0.0,0.0,0.0,0.0,0.0,0.0,0.0,0.0,0.0,0.0006999634722399324,0.0003083153840504152,0.0765986449384662,0.0,0.0,0.0,0.0,0.0,0.0,0.0,0.0,0.0,-0.015982099621820567,0.004587066722213485,-6.247661220466254e-05,0.0,0.0,0.0,0.0,0.0,0.0,0.0,0.0,0.0
5.307,148,5,307000000,base_footprint,-0.001481470033773488,0.003561147265369124,0.38180799607973614,0.9242336163580449,0.0,0.0,0.0,0.0,0.0,0.0,0.0,0.0,0.0,-0.0017663364119188455,-0.0014780968007263378,-0.044392935977884365,0.0,0.0,0.0,0.0,0.0,0.0,0.0,0.0,0.0,-0.013221832222670921,0.02458949468600399,-0.0036541770172480656,0.0,0.0,0.0,0.0,0.0,0.0,0.0,0.0,0.0
5.341,149,5,341000000,base_footprint,-0.0014798984690311324,0.0035673887995740497,0.3810969370395135,0.9245270186515779,0.0,0.0,0.0,0.0,0.0,0.0,0.0,0.0,0.0,-3.572788276612583e-05,-0.0001565040446513502,-0.04514530945960592,0.0,0.0,0.0,0.0,0.0,0.0,0.0,0.0,0.0,0.011720316618373156,0.01851477039441097,0.003495207787753204,0.0,0.0,0.0,0.0,0.0,0.0,0.0,0.0,0.0
5.375,150,5,375000000,base_footprint,-0.0014763024616498183,0.0035685551680151887,0.3803830668979984,0.9248209601659814,0.0,0.0,0.0,0.0,0.0,0.0,0.0,0.0,0.0,-7.64927829655645e-05,-0.00016923702909480754,-0.04561655362146698,0.0,0.0,0.0,0.0,0.0,0.0,0.0,0.0,0.0,0.01017474515924991,0.005666636845775642,-0.00020128079233769044,0.0,0.0,0.0,0.0,0.0,0.0,0.0,0.0,0.0
5.409,151,5,409000000,base_footprint,-0.0014746769793150226,0.0035705340138939942,0.37993712950030234,0.9250042455263289,0.0,0.0,0.0,0.0,0.0,0.0,0.0,0.0,0.0,-1.7847411762279472e-05,0.00014511147860948854,0.0012944981374433866,0.0,0.0,0.0,0.0,0.0,0.0,0.0,0.0,0.0,0.008656312203757004,-0.008074762646735211,-0.00016017264626870588,0.0,0.0,0.0,0.0,0.0,0.0,0.0,0.0,0.0
5.443,152,5,443000000,base_footprint,-0.001475306968201188,0.0035734161534601763,0.379942189495624,0.925002155028633,0.0,0.0,0.0,0.0,0.0,0.0,0.0,0.0,0.0,-2.0887498893961172e-05,7.147648131405985e-05,1.2422626438991816e-05,0.0,0.0,0.0,0.0,0.0,0.0,0.0,0.0,0.0,-0.0016963255639658118,0.006876623432556994,-0.0002940532472252214,0.0,0.0,0.0,0.0,0.0,0.0,0.0,0.0,0.0
5.477,153,5,477000000,base_footprint,-0.001477167758284673,0.0035777141022803943,0.37993707672319654,0.9250042354866534,0.0,0.0,0.0,0.0,0.0,0.0,0.0,0.0,0.0,-8.64122830557264e-05,5.714933966500767e-05,-0.0007180429285298248,0.0,0.0,0.0,0.0,0.0,0.0,0.0,0.0,0.0,0.0004556984934940792,0.004479796813487026,-0.0002836810407292204,0.0,0.0,0.0,0.0,0.0,0.0,0.0,0.0,0.0
5.511,154,5,511000000,base_footprint,-0.0014772654405885654,0.0035811886326847803,0.37974115795653246,0.9250846694917321,0.0,0.0,0.0,0.0,0.0,0.0,0.0,0.0,0.0,4.9140073158197904e-05,-0.0006069165048259044,-0.026985059027020506,0.0,0.0,0.0,0.0,0.0,0.0,0.0,0.0,0.0,0.0014014020207832665,0.00733170177258522,-8.16655612504296e-06,0.0,0.0,0.0,0.0,0.0,0.0,0.0,0.0,0.0
5.545,155,5,545000000,base_footprint,-0.0014775404603166937,0.003583799539169551,0.37931000329043113,0.925261527709255,0.0,0.0,0.0,0.0,0.0,0.0,0.0,0.0,0.0,-7.553533049436335e-05,-0.00018039884227545006,-0.0280036924875154,0.0,0.0,0.0,0.0,0.0,0.0,0.0,0.0,0.0,0.008564469081374478,-0.005535974689878398,0.00010606599347815152,0.0,0.0,0.0,0.0,0.0,0.0,0.0,0.0,0.0
5.579,156,5,579000000,base_footprint,-0.0014769572689537751,0.003581104240003334,0.3788374896198445,0.9254551046637446,0.0,0.0,0.0,0.0,0.0,0.0,0.0,0.0,0.0,0.00037301584371375796,-0.0005268414374575597,-0.03435509074995646,0.0,0.0,0.0,0.0,0.0,0.0,0.0,0.0,0.0,0.005496778077905101,-0.02092241857261677,0.0009390987532335889,0.0,0.0,0.0,0.0,0.0,0.0,0.0,0.0,0.0
5.6129999999999995,157,5,613000000,base_footprint,-0.0014669506022813661,0.0035769604391132767,0.37809974582386735,0.9257567907489929,0.0,0.0,0.0,0.0,0.0,0.0,0.0,0.0,0.0,-0.0016793263415400708,-0.0012402381501173806,-0.06288739603456109,0.0,0.0,0.0,0.0,0.0,0.0,0.0,0.0,0.0,0.0007048670888332859,-0.12496386953568367,-0.0026097978693919374,0.0,0.0,0.0,0.0,0.0,0.0,0.0,0.0,0.0
5.647,158,5,647000000,base_footprint,-0.0014616901562954784,0.00358592951484008,0.37678916576277416,0.926290952743896,0.0,0.0,0.0,0.0,0.0,0.0,0.0,0.0,0.0,-0.0008592554141440593,0.0001142268488925372,-0.06381205825425981,0.0,0.0,0.0,0.0,0.0,0.0,0.0,0.0,0.0,0.020129216728209838,-0.14486150714240464,0.0025091247377070193,0.0,0.0,0.0,0.0,0.0,0.0,0.0,0.0,0.0
5.681,159,5,681000000,base_footprint,-0.001464888292231702,0.003587515335702792,0.3761757252046561,0.9265402352854184,0.0,0.0,0.0,0.0,0.0,0.0,0.0,0.0,0.0,-0.0008314587767936164,-0.0007640045451292087,-0.03790139835729996,0.0,0.0,0.0,0.0,0.0,0.0,0.0,0.0,0.0,0.008928423525256024,-0.08049377522184811,-0.0001853574038352088,0.0,0.0,0.0,0.0,0.0,0.0,0.0,0.0,0.0
5.715,160,5,715000000,base_footprint,-0.001450409288200336,0.0035749301341941983,0.3757005900275074,0.9267330698968368,0.0,0.0,0.0,0.0,0.0,0.0,0.0,0.0,0.0,-0.002842107811076644,0.0012886109190151907,-0.023308597850926024,0.0,0.0,0.0,0.0,0.0,0.0,0.0,0.0,0.0,0.01106395166967683,0.21231651971226295,-0.00327701715600402,0.0,0.0,0.0,0.0,0.0,0.0,0.0,0.0,0.0
5.749,161,5,749000000,base_footprint,-0.0014571613805512047,0.003582802854148449,0.374705547402409,0.9271358007057438,0.0,0.0,0.0,0.0,0.0,0.0,0.0,0.0,0.0,-0.0002668303131917954,-0.0004366132539362822,-0.07533164632911475,0.0,0.0,0.0,0.0,0.0,0.0,0.0,0.0,0.0,0.016408080258401535,0.1429394729005249,0.0028213244026276912,0.0,0.0,0.0,0.0,0.0,0.0,0.0,0.0,0.0
5.783,162,5,783000000,base_footprint,-0.0014505505325825524,0.0035817671624154956,0.37351309023586915,0.9276168596298788,0.0,0.0,0.0,0.0,0.0,0.0,0.0,0.0,0.0,-5.2201739075842034e-05,-0.0003145557070906101,-0.07586841051620469,0.0,0.0,0.0,0.0,0.0,0.0,0.0,0.0,0.0,0.017028609061727353,0.004884741189341915,0.0003255385703000253,0.0,0.0,0.0,0.0,0.0,0.0,0.0,0.0,0.0
5.817,163,5,817000000,base_footprint,-0.0014442851336462174,0.0035820419667211482,0.37231113268456123,0.9280999426219896,0.0,0.0,0.0,0.0,0.0,0.0,0.0,0.0,0.0,-0.00016416295040318357,-0.00034138698164392923,-0.07648191397966546,0.0,0.0,0.0,0.0,0.0,0.0,0.0,0.0,0.0,0.017023483598683033,0.00504006724982421,-0.00032466936197884835,0.0,0.0,0.0,0.0,0.0,0.0,0.0,0.0,0.0
5.851,164,5,851000000,base_footprint,-0.0014414783674065682,0.0035821381163707736,0.37179919453737725,0.9283051488427656,0.0,0.0,0.0,0.0,0.0,0.0,0.0,0.0,0.0,0.00020855250213375044,1.1517615034268297e-05,-0.005506423580776925,0.0,0.0,0.0,0.0,0.0,0.0,0.0,0.0,0.0,0.0074132577722198535,-0.01362655537431024,-6.8589340540493e-05,0.0,0.0,0.0,0.0,0.0,0.0,0.0,0.0,0.0
5.885,165,5,885000000,base_footprint,-0.001441561337302988,0.0035836685075965936,0.37170589198526394,0.9283425063436327,0.0,0.0,0.0,0.0,0.0,0.0,0.0,0.0,0.0,5.858999100005472e-05,9.28329778414906e-06,-0.006165929910711133,0.0,0.0,0.0,0.0,0.0,0.0,0.0,0.0,0.0,0.001633511328877302,0.005884517808403189,-0.00029412233947040487,0.0,0.0,0.0,0.0,0.0,0.0,0.0,0.0,0.0
5.9190000000000005,166,5,919000000,base_footprint,-0.001443899016842987,0.0035854941048036946,0.37204646982071315,0.9282060566930163,0.0,0.0,0.0,0.0,0.0,0.0,0.0,0.0,0.0,0.00015011577687195187,0.00022732096972912823,0.03484840233592384,0.0,0.0,0.0,0.0,0.0,0.0,0.0,0.0,0.0,-0.004439432310198661,-0.005287954427310586,-0.0002085407934492,0.0,0.0,0.0,0.0,0.0,0.0,0.0,0.0,0.0
5.953,167,5,953000000,base_footprint,-0.0014481590873276324,0.0035893982842595557,0.3725907255055556,0.9279876994456653,0.0,0.0,0.0,0.0,0.0,0.0,0.0,0.0,0.0,-8.64108733274052e-06,0.000156458757983056,0.034252751571235474,0.0,0.0,0.0,0.0,0.0,0.0,0.0,0.0,0.0,-0.007088323136740112,0.005081963310855779,-0.00042333665162985816,0.0,0.0,0.0,0.0,0.0,0.0,0.0,0.0,0.0
5.987,168,5,987000000,base_footprint,-0.0014519487925748645,0.0035919911550567835,0.3731239627870435,0.9277734086717181,0.0,0.0,0.0,0.0,0.0,0.0,0.0,0.0,0.0,0.00013195159241036523,0.00013869535620980746,0.033096048079158016,0.0,0.0,0.0,0.0,0.0,0.0,0.0,0.0,0.0,-0.005565241930033004,0.003908595538161824,0.00012167210077011374,0.0,0.0,0.0,0.0,0.0,0.0,0.0,0.0,0.0
6.021,169,6,21000000,base_footprint,-0.0014556170697514878,0.003592997012701368,0.3736464841696353,0.9275630848729824,0.0,0.0,0.0,0.0,0.0,0.0,0.0,0.0,0.0,0.00026189284326373944,0.00015625618457629006,0.03297834345212929,0.0,0.0,0.0,0.0,0.0,0.0,0.0,0.0,0.0,-0.005977091261870714,-0.001653740889223747,0.00028047182559463716,0.0,0.0,0.0,0.0,0.0,0.0,0.0,0.0,0.0
6.055,170,6,55000000,base_footprint,-0.0014516761754175495,0.003596584234781414,0.37353815420421754,0.9276067079165772,0.0,0.0,0.0,0.0,0.0,0.0,0.0,0.0,0.0,-0.0006791762342119979,-0.0009203982118990168,-0.038262935684832564,0.0,0.0,0.0,0.0,0.0,0.0,0.0,0.0,0.0,-3.429489069516306e-05,-0.005132260235444162,-0.0011271849744426124,0.0,0.0,0.0,0.0,0.0,0.0,0.0,0.0,0.0
6.089,171,6,89000000,base_footprint,-0.0014509336067645697,0.003590191520999739,0.37293437084122066,0.9278496431867473,0.0,0.0,0.0,0.0,0.0,0.0,0.0,0.0,0.0,0.0007978262953390325,-0.0004865097484951343,-0.03526857186779074,0.0,0.0,0.0,0.0,0.0,0.0,0.0,0.0,0.0,0.0013902261058140394,-0.061063391364133954,0.003011119255335081,0.0,0.0,0.0,0.0,0.0,0.0,0.0,0.0,0.0
6.123,172,6,123000000,base_footprint,-0.0014488242279278134,0.003594119858289246,0.37267781145251294,0.9279527100352507,0.0,0.0,0.0,0.0,0.0,0.0,0.0,0.0,0.0,0.00045479896022949663,-0.0002875934547284598,-0.0075294802348964416,0.0,0.0,0.0,0.0,0.0,0.0,0.0,0.0,0.0,0.0037350495780672506,0.011690095811947455,-0.0004805680078022732,0.0,0.0,0.0,0.0,0.0,0.0,0.0,0.0,0.0
6.157,173,6,157000000,base_footprint,-0.0014523723416392145,0.003591345713549775,0.3726290841531469,0.9279722832572824,0.0,0.0,0.0,0.0,0.0,0.0,0.0,0.0,0.0,0.00010771790328885658,5.118789532885803e-05,0.0016579633903641632,0.0,0.0,0.0,0.0,0.0,0.0,0.0,0.0,0.0,0.0031621854545350915,0.021354390999180448,-0.001110860858995567,0.0,0.0,0.0,0.0,0.0,0.0,0.0,0.0,0.0
6.191,174,6,191000000,base_footprint,-0.001451504319147896,0.0035885493263686963,0.3726504518187888,0.9279637149200373,0.0,0.0,0.0,0.0,0.0,0.0,0.0,0.0,0.0,0.0003429810042736738,-8.120474076898526e-05,0.0015480050463277562,0.0,0.0,0.0,0.0,0.0,0.0,0.0,0.0,0.0,0.00014899307324507498,0.004092157207346531,0.00048608865397750423,0.0,0.0,0.0,0.0,0.0,0.0,0.0,0.0,0.0
6.225,175,6,225000000,base_footprint,-0.0014508439159770848,0.003584900018422537,0.37267770101625136,0.9279527868965269,0.0,0.0,0.0,0.0,0.0,0.0,0.0,0.0,0.0,0.00042212291350011706,8.712703732148724e-05,0.0018632834635788484,0.0,0.0,0.0,0.0,0.0,0.0,0.0,0.0,0.0,-0.0001032503324193139,0.004026460787298601,0.00030275179093913523,0.0,0.0,0.0,0.0,0.0,0.0,0.0,0.0,0.0
6.259,176,6,259000000,base_footprint,-0.0014506406475501771,0.003589688642070598,0.37255855541391975,0.9280006102180419,0.0,0.0,0.0,0.0,0.0,0.0,0.0,0.0,0.0,-0.00010282213413542702,-2.0138700902647837e-05,-0.01677231004294874,0.0,0.0,0.0,0.0,0.0,0.0,0.0,0.0,0.0,-0.034605222116022405,-0.8303349418293147,0.004096412809526174,0.0,0.0,0.0,0.0,0.0,0.0,0.0,0.0,0.0
6.293,177,6,293000000,base_footprint,-0.0014463583197542697,0.0035819015132734096,0.37232780618057915,0.9280932511196907,0.0,0.0,0.0,0.0,0.0,0.0,0.0,0.0,0.0,-0.0019461894902059493,0.0004122383413392325,-0.00534423518481611,0.0,0.0,0.0,0.0,0.0,0.0,0.0,0.0,0.0,0.023821156125317516,0.5024092591893176,-0.004914003944447962,0.0,0.0,0.0,0.0,0.0,0.0,0.0,0.0,0.0
6.327,178,6,327000000,base_footprint,-0.0014465025590899877,0.0035799565009554655,0.372765755827681,0.9279174439701064,0.0,0.0,0.0,0.0,0.0,0.0,0.0,0.0,0.0,0.0008554940051627464,0.00039435851711887055,0.056965896543729244,0.0,0.0,0.0,0.0,0.0,0.0,0.0,0.0,0.0,0.011006174110359979,0.3301728984304069,0.0007834665497126773,0.0,0.0,0.0,0.0,0.0,0.0,0.0,0.0,0.0
6.361,179,6,361000000,base_footprint,-0.0014499845436492349,0.003579827061850907,0.3736602002355132,0.9275576193115912,0.0,0.0,0.0,0.0,0.0,0.0,0.0,0.0,0.0,0.000412184077486871,0.00036537051434313775,0.056525426282661266,0.0,0.0,0.0,0.0,0.0,0.0,0.0,0.0,0.0,-0.012594230834857261,0.004941529318064105,-0.0005524640275022383,0.0,0.0,0.0,0.0,0.0,0.0,0.0,0.0,0.0
6.395,180,6,395000000,base_footprint,-0.001454194829202259,0.0035811541142647917,0.3745475782276988,0.9271996399354212,0.0,0.0,0.0,0.0,0.0,0.0,0.0,0.0,0.0,0.00030420825856722344,0.00036511837480098495,0.05608543370070849,0.0,0.0,0.0,0.0,0.0,0.0,0.0,0.0,0.0,-0.012026379910125975,0.005970495257320435,-0.00019543247838219857,0.0,0.0,0.0,0.0,0.0,0.0,0.0,0.0,0.0
6.429,181,6,429000000,base_footprint,-0.0014605715709641754,0.00358334322145356,0.3754217469054752,0.9268460165164896,0.0,0.0,0.0,0.0,0.0,0.0,0.0,0.0,0.0,0.000612823763022455,-0.002831117985462055,0.04410581916690126,0.0,0.0,0.0,0.0,0.0,0.0,0.0,0.0,0.0,-0.008305687310386653,0.007796076474575915,0.0005913601215864623,0.0,0.0,0.0,0.0,0.0,0.0,0.0,0.0,0.0
6.463,182,6,463000000,base_footprint,-0.0014619478672280744,0.003587596237606887,0.3756571564766598,0.926750609737884,0.0,0.0,0.0,0.0,0.0,0.0,0.0,0.0,0.0,5.96693226540717e-05,9.890254006104976e-05,0.01389380415275219,0.0,0.0,0.0,0.0,0.0,0.0,0.0,0.0,0.0,-0.005125326413230014,0.011084903139928921,-0.0009032263323317632,0.0,0.0,0.0,0.0,0.0,0.0,0.0,0.0,0.0
6.497,183,6,497000000,base_footprint,-0.001463849478242229,0.0035891924502596565,0.37586721936701584,0.9266654241135619,0.0,0.0,0.0,0.0,0.0,0.0,0.0,0.0,0.0,0.0001288502810038231,5.3043290699402294e-05,0.012911966835330956,0.0,0.0,0.0,0.0,0.0,0.0,0.0,0.0,0.0,-0.0026476938028917782,-0.0038052772777320094,0.00015661083744164476,0.0,0.0,0.0,0.0,0.0,0.0,0.0,0.0,0.0
6.531,184,6,531000000,base_footprint,-0.001461741960309372,0.003587295826208703,0.3760603960182458,0.9265870564419174,0.0,0.0,0.0,0.0,0.0,0.0,0.0,0.0,0.0,0.002137261698651399,0.0015819971922050513,0.0169182598195393,0.0,0.0,0.0,0.0,0.0,0.0,0.0,0.0,0.0,-0.005327500495825572,-0.024907531239599868,0.005647935412178028,0.0,0.0,0.0,0.0,0.0,0.0,0.0,0.0,0.0
6.565,185,6,565000000,base_footprint,-0.0014727927975061138,0.0035807395788772407,0.3766918034003703,0.9263305535479334,0.0,0.0,0.0,0.0,0.0,0.0,0.0,0.0,0.0,0.0007155674483169775,-0.00013866905553720158,0.06015369222966073,0.0,0.0,0.0,0.0,0.0,0.0,0.0,0.0,0.0,-0.009689650559303264,-0.1199202868174336,-0.0029081605593150005,0.0,0.0,0.0,0.0,0.0,0.0,0.0,0.0,0.0
6.599,186,6,599000000,base_footprint,-0.0014720421199513826,0.0035851132365883544,0.3780354226463157,0.9257830195459946,0.0,0.0,0.0,0.0,0.0,0.0,0.0,0.0,0.0,-0.00033932083886537815,0.0034940897770443812,0.09381849404421463,0.0,0.0,0.0,0.0,0.0,0.0,0.0,0.0,0.0,-0.017978466402431878,0.011646934522701243,0.000279856285795777,0.0,0.0,0.0,0.0,0.0,0.0,0.0,0.0,0.0
6.633,187,6,633000000,base_footprint,-0.0014730766870230886,0.0035773052775193216,0.3791697985369509,0.9253190243421312,0.0,0.0,0.0,0.0,0.0,0.0,0.0,0.0,0.0,-0.0003540476730919302,-0.0003834637119149551,0.055931666120678625,0.0,0.0,0.0,0.0,0.0,0.0,0.0,0.0,0.0,-0.017453829574255127,0.06530810223669314,-0.003906607621113932,0.0,0.0,0.0,0.0,0.0,0.0,0.0,0.0,0.0
6.667,188,6,667000000,base_footprint,-0.001480154779569026,0.0035770211478505973,0.3799237729827567,0.925009697670291,0.0,0.0,0.0,0.0,0.0,0.0,0.0,0.0,0.0,0.0005355151479937765,0.00014563149885440713,0.04830940894185216,0.0,0.0,0.0,0.0,0.0,0.0,0.0,0.0,0.0,-0.009527195910204797,0.02589384419620916,0.00207415695045477,0.0,0.0,0.0,0.0,0.0,0.0,0.0,0.0,0.0
6.7010000000000005,189,6,701000000,base_footprint,-0.001479749715198043,0.003569244815930509,0.3806045316126581,0.9247298315443996,0.0,0.0,0.0,0.0,0.0,0.0,0.0,0.0,0.0,0.0021229765481279718,-0.002433300863302866,0.006778227152842508,0.0,0.0,0.0,0.0,0.0,0.0,0.0,0.0,0.0,-0.007002376452895749,0.008996274360451962,0.0009755762250159781,0.0,0.0,0.0,0.0,0.0,0.0,0.0,0.0,0.0
6.735,190,6,735000000,base_footprint,-0.0014799315505714774,0.0035692739280550182,0.38070641850020437,0.9246878895059563,0.0,0.0,0.0,0.0,0.0,0.0,0.0,0.0,0.0,0.0003781585238349678,0.00014899297538413563,0.006841303163638666,0.0,0.0,0.0,0.0,0.0,0.0,0.0,0.0,0.0,-0.004644848502858234,0.010889866304437489,-0.000752270717257988,0.0,0.0,0.0,0.0,0.0,0.0,0.0,0.0,0.0
6.769,191,6,769000000,base_footprint,-0.001478487383147137,0.0035677683933953205,0.3808101628644167,0.9246451778725314,0.0,0.0,0.0,0.0,0.0,0.0,0.0,0.0,0.0,0.0002912382390766351,0.00012974934969068417,0.006421423664948477,0.0,0.0,0.0,0.0,0.0,0.0,0.0,0.0,0.0,-0.001453826575908223,0.005835689523192665,-0.00019449905972629037,0.0,0.0,0.0,0.0,0.0,0.0,0.0,0.0,0.0
6.803,192,6,803000000,base_footprint,-0.0014776481524727486,0.003567862156237692,0.3808336044822399,0.9246355242000149,0.0,0.0,0.0,0.0,0.0,0.0,0.0,0.0,0.0,-0.0001482840458801061,-0.00011140812682940767,-0.01789848050900438,0.0,0.0,0.0,0.0,0.0,0.0,0.0,0.0,0.0,-0.0009081641995612516,0.011866245986010035,-0.00037413976689388255,0.0,0.0,0.0,0.0,0.0,0.0,0.0,0.0,0.0
6.837,193,6,837000000,base_footprint,-0.0014765819990018338,0.003569709216702035,0.38056016738866305,0.9247480932009652,0.0,0.0,0.0,0.0,0.0,0.0,0.0,0.0,0.0,-9.627191048222406e-06,-1.8434158969572074e-05,-0.017445016838539166,0.0,0.0,0.0,0.0,0.0,0.0,0.0,0.0,0.0,0.004448179241532156,0.00562581158437569,-9.596825565694929e-05,0.0,0.0,0.0,0.0,0.0,0.0,0.0,0.0,0.0
6.871,194,6,871000000,base_footprint,-0.0014762396684242253,0.003573115512256564,0.38028113988207707,0.9248628591374862,0.0,0.0,0.0,0.0,0.0,0.0,0.0,0.0,0.0,-0.00012106442879612617,-2.3086645638692936e-05,-0.01799452485894856,0.0,0.0,0.0,0.0,0.0,0.0,0.0,0.0,0.0,0.004125938620444835,0.0054028524653011445,-0.0002899574679063992,0.0,0.0,0.0,0.0,0.0,0.0,0.0,0.0,0.0
6.904,195,6,905000000,base_footprint,-0.0014769521836104976,0.0035778670178278978,0.37999231328060745,0.9249815453983409,0.0,0.0,0.0,0.0,0.0,0.0,0.0,0.0,0.0,-0.00018509429168967248,-3.9726168681012374e-05,-0.01879113930499038,0.0,0.0,0.0,0.0,0.0,0.0,0.0,0.0,0.0,0.00442979362494705,0.004398101473493915,-0.00030079355076239787,0.0,0.0,0.0,0.0,0.0,0.0,0.0,0.0,0.0
6.939,196,6,939000000,base_footprint,-0.0014788388596553089,0.0035804924824996294,0.37976983672495845,0.925072896707664,0.0,0.0,0.0,0.0,0.0,0.0,0.0,0.0,0.0,0.00010026623397856804,2.8673753488070977e-05,0.0007680669885085451,0.0,0.0,0.0,0.0,0.0,0.0,0.0,0.0,0.0,0.003732653761680268,-0.0031755412156277817,0.00018070576163967735,0.0,0.0,0.0,0.0,0.0,0.0,0.0,0.0,0.0
6.973,197,6,973000000,base_footprint,-0.001478801817324955,0.0035828639087672723,0.37972867151078005,0.9250897860554156,0.0,0.0,0.0,0.0,0.0,0.0,0.0,0.0,0.0,5.6553974593031913e-05,-4.7857284141837445e-05,-0.0033952025811970535,0.0,0.0,0.0,0.0,0.0,0.0,0.0,0.0,0.0,0.0015769589472420138,-0.00604807836357903,-4.843068105687918e-06,0.0,0.0,0.0,0.0,0.0,0.0,0.0,0.0,0.0
7.009,198,7,7000000,base_footprint,-0.0014804020917865333,0.003579112891490755,0.37963674056855173,0.9251275282743687,0.0,0.0,0.0,0.0,0.0,0.0,0.0,0.0,0.0,0.00038697411934333285,-0.0004615267226715375,-0.010990325951076846,0.0,0.0,0.0,0.0,0.0,0.0,0.0,0.0,0.0,-0.0015137653710702841,-0.023380601180783667,0.0007821624158446173,0.0,0.0,0.0,0.0,0.0,0.0,0.0,0.0,0.0
7.041,199,7,41000000,base_footprint,-0.0014750884129998917,0.0035823366871430115,0.3793213471143186,0.9252568868165275,0.0,0.0,0.0,0.0,0.0,0.0,0.0,0.0,0.0,0.0008303761076246035,0.000872073565038447,-0.01651461076225253,0.0,0.0,0.0,0.0,0.0,0.0,0.0,0.0,0.0,0.003994913072265361,-0.03307648708199493,0.001461279802911331,0.0,0.0,0.0,0.0,0.0,0.0,0.0,0.0,0.0
7.075,200,7,75000000,base_footprint,-0.0014734317620061054,0.0035809690015073206,0.37923578201881797,0.9252919686760652,0.0,0.0,0.0,0.0,0.0,0.0,0.0,0.0,0.0,0.0004229290955511018,0.00016752363261253412,-0.004055426529644668,0.0,0.0,0.0,0.0,0.0,0.0,0.0,0.0,0.0,0.0006296027069491519,-0.030043629763730824,-0.0014257544675215594,0.0,0.0,0.0,0.0,0.0,0.0,0.0,0.0,0.0
7.109,201,7,109000000,base_footprint,-0.0014783867888471065,0.0035827648731069136,0.3790238413275851,0.9253787904818482,0.0,0.0,0.0,0.0,0.0,0.0,0.0,0.0,0.0,0.0003748424463619056,-0.00018184229848804235,-0.016677516073435497,0.0,0.0,0.0,0.0,0.0,0.0,0.0,0.0,0.0,0.001393884008666628,0.0640088248337337,1.938233124371487e-05,0.0,0.0,0.0,0.0,0.0,0.0,0.0,0.0,0.0
7.143,202,7,143000000,base_footprint,-0.0014752371803593788,0.0035783946023581815,0.3787989223451843,0.9254709045655939,0.0,0.0,0.0,0.0,0.0,0.0,0.0,0.0,0.0,0.0002920993782151971,-0.00018295082361220632,-0.013877654305533735,0.0,0.0,0.0,0.0,0.0,0.0,0.0,0.0,0.0,0.0057908396010539894,-0.005424347925935244,-1.5807952637113928e-05,0.0,0.0,0.0,0.0,0.0,0.0,0.0,0.0,0.0
7.177,203,7,177000000,base_footprint,-0.0014740092718576424,0.0035754083777429693,0.37858156576306007,0.9255598531785986,0.0,0.0,0.0,0.0,0.0,0.0,0.0,0.0,0.0,0.00026816509336479827,-4.239003072882997e-05,-0.013907884333289162,0.0,0.0,0.0,0.0,0.0,0.0,0.0,0.0,0.0,0.0032544484525593885,0.004645151287760525,7.028717004033317e-05,0.0,0.0,0.0,0.0,0.0,0.0,0.0,0.0,0.0
7.211,204,7,211000000,base_footprint,-0.00147213871486845,0.0035781274450116017,0.3783157496671661,0.9256685278032097,0.0,0.0,0.0,0.0,0.0,0.0,0.0,0.0,0.0,-0.0009473951847803078,0.00014354883192598965,-0.024906888006674,0.0,0.0,0.0,0.0,0.0,0.0,0.0,0.0,0.0,-0.004516315888243583,-0.4374924892281101,0.0010721948278421742,0.0,0.0,0.0,0.0,0.0,0.0,0.0,0.0,0.0
7.245,205,7,245000000,base_footprint,-0.0014648844562171102,0.0035673114965507364,0.37807235956361934,0.925768015939314,0.0,0.0,0.0,0.0,0.0,0.0,0.0,0.0,0.0,-0.0016352185818416052,-0.0009213944074195908,-0.01888325936825279,0.0,0.0,0.0,0.0,0.0,0.0,0.0,0.0,0.0,0.0054027165811773165,0.09654472192790943,-0.0027619896476679473,0.0,0.0,0.0,0.0,0.0,0.0,0.0,0.0,0.0
7.279,206,7,279000000,base_footprint,-0.0014657579044097036,0.003572788308760511,0.3777243471577143,0.9259100411496493,0.0,0.0,0.0,0.0,0.0,0.0,0.0,0.0,0.0,3.6159297396972714e-05,-5.0065133769714946e-05,-0.02143126178935149,0.0,0.0,0.0,0.0,0.0,0.0,0.0,0.0,0.0,0.004536614313390825,0.017734959030532918,0.003086280669913544,0.0,0.0,0.0,0.0,0.0,0.0,0.0,0.0,0.0
7.313,207,7,313000000,base_footprint,-0.0014644126314752315,0.0035745160490511284,0.37738246259867175,0.926049434562552,0.0,0.0,0.0,0.0,0.0,0.0,0.0,0.0,0.0,-2.0494373737172e-05,-5.139545065084271e-05,-0.021920999538600383,0.0,0.0,0.0,0.0,0.0,0.0,0.0,0.0,0.0,0.004711111903458603,0.005439772980746318,-0.00020110012713619383,0.0,0.0,0.0,0.0,0.0,0.0,0.0,0.0,0.0
7.347,208,7,347000000,base_footprint,-0.0014615342125870409,0.0035723168083691102,0.37695420239175503,0.9262238561868086,0.0,0.0,0.0,0.0,0.0,0.0,0.0,0.0,0.0,-0.00019653751933336656,-0.0006990470727286391,-0.03324753951051622,0.0,0.0,0.0,0.0,0.0,0.0,0.0,0.0,0.0,0.013332793117890776,0.34796255998795833,-0.0016490388036670932,0.0,0.0,0.0,0.0,0.0,0.0,0.0,0.0,0.0
7.381,209,7,381000000,base_footprint,-0.0014633280160849607,0.0035830904838355863,0.3764397038389665,0.9264330356303866,0.0,0.0,0.0,0.0,0.0,0.0,0.0,0.0,0.0,-0.0002651619249844267,-9.998835354985361e-05,-0.03199181057245672,0.0,0.0,0.0,0.0,0.0,0.0,0.0,0.0,0.0,0.008519542464766761,0.004659406561140207,-0.0009010331057346093,0.0,0.0,0.0,0.0,0.0,0.0,0.0,0.0,0.0
7.415,210,7,415000000,base_footprint,-0.0014642172451412203,0.0035867960862399715,0.3762054110329007,0.9265281861180809,0.0,0.0,0.0,0.0,0.0,0.0,0.0,0.0,0.0,0.00015763321949473916,0.00010974151619693942,-0.0019846178440669758,0.0,0.0,0.0,0.0,0.0,0.0,0.0,0.0,0.0,0.004777156146940792,-0.006841788756381277,0.0002700804944890179,0.0,0.0,0.0,0.0,0.0,0.0,0.0,0.0,0.0
7.449,211,7,449000000,base_footprint,-0.0014652023795997614,0.0035886562266559388,0.37616864627012053,0.9265431043895254,0.0,0.0,0.0,0.0,0.0,0.0,0.0,0.0,0.0,4.17187367891154e-05,-3.39197760283224e-05,-0.0028229827578987294,0.0,0.0,0.0,0.0,0.0,0.0,0.0,0.0,0.0,0.000664605945639757,-0.004714950562359176,-0.00010808912959195688,0.0,0.0,0.0,0.0,0.0,0.0,0.0,0.0,0.0
7.483,212,7,483000000,base_footprint,-0.0014659130914497463,0.0035867255307791687,0.3761020265670486,0.9265701549860833,0.0,0.0,0.0,0.0,0.0,0.0,0.0,0.0,0.0,0.0004419316902030388,-0.00026835336112628527,-0.007270034780638739,0.0,0.0,0.0,0.0,0.0,0.0,0.0,0.0,0.0,0.0015499410493939915,-0.016483597403575707,0.0008637129005830442,0.0,0.0,0.0,0.0,0.0,0.0,0.0,0.0,0.0
7.517,213,7,517000000,base_footprint,-0.001465528188478941,0.0035822808709858405,0.3758948670760095,0.9266542334640249,0.0,0.0,0.0,0.0,0.0,0.0,0.0,0.0,0.0,-0.0005277240267062755,-0.0006692775605703131,-0.022877391743141108,0.0,0.0,0.0,0.0,0.0,0.0,0.0,0.0,0.0,-0.005236573848273182,-0.12681682722786117,-0.0013199509943410458,0.0,0.0,0.0,0.0,0.0,0.0,0.0,0.0,0.0
7.551,214,7,551000000,base_footprint,-0.0014565271472293127,0.00358750684475326,0.37517057016636784,0.9269477070495136,0.0,0.0,0.0,0.0,0.0,0.0,0.0,0.0,0.0,-0.0010325302335286288,0.0006725458002031329,-0.03204779354107283,0.0,0.0,0.0,0.0,0.0,0.0,0.0,0.0,0.0,0.008752671180364165,-0.14070011662158075,0.0014581325400927206,0.0,0.0,0.0,0.0,0.0,0.0,0.0,0.0,0.0
7.585,215,7,585000000,base_footprint,-0.0014602967913984657,0.003587794642352543,0.37511474454326493,0.9269702927759479,0.0,0.0,0.0,0.0,0.0,0.0,0.0,0.0,0.0,-0.0007312694249160121,-0.00076472185514752,0.0014250017843902185,0.0,0.0,0.0,0.0,0.0,0.0,0.0,0.0,0.0,-0.0002600912654475013,-0.09609027844722652,-0.0005223059680048358,0.0,0.0,0.0,0.0,0.0,0.0,0.0,0.0,0.0
7.619,216,7,619000000,base_footprint,-0.0014603649393573146,0.0035859464209247647,0.3751273968726589,0.9269651797333343,0.0,0.0,0.0,0.0,0.0,0.0,0.0,0.0,0.0,0.0004001989189488164,-0.0001025281645397864,0.0016608245252119783,0.0,0.0,0.0,0.0,0.0,0.0,0.0,0.0,0.0,-0.004036870161802993,0.006365879940632161,0.0023479489329680243,0.0,0.0,0.0,0.0,0.0,0.0,0.0,0.0,0.0
7.6530000000000005,217,7,653000000,base_footprint,-0.001460442004662572,0.0035757751724587498,0.3753203068578116,0.9268871280804505,0.0,0.0,0.0,0.0,0.0,0.0,0.0,0.0,0.0,-0.0006051567002215249,0.0005465322405708397,0.041214894949497934,0.0,0.0,0.0,0.0,0.0,0.0,0.0,0.0,0.0,0.006533688865038134,0.32107563890417884,-0.004904486970443013,0.0,0.0,0.0,0.0,0.0,0.0,0.0,0.0,0.0
7.687,218,7,687000000,base_footprint,-0.0014612644468805103,0.003577292282388356,0.3760678229979347,0.9265840815553313,0.0,0.0,0.0,0.0,0.0,0.0,0.0,0.0,0.0,0.0005979518573164957,0.00035483860525454517,0.04765958776532683,0.0,0.0,0.0,0.0,0.0,0.0,0.0,0.0,0.0,-0.008435464107663736,0.015652856812061616,0.0031808802329200197,0.0,0.0,0.0,0.0,0.0,0.0,0.0,0.0,0.0
7.721,219,7,721000000,base_footprint,-0.0014622730657458546,0.0035743967105182324,0.37681444791687985,0.9262807119263221,0.0,0.0,0.0,0.0,0.0,0.0,0.0,0.0,0.0,0.0005328892696526757,0.000338346606325428,0.047206593062538056,0.0,0.0,0.0,0.0,0.0,0.0,0.0,0.0,0.0,-0.010315495852954432,0.006083304878113098,-0.00011989054512907902,0.0,0.0,0.0,0.0,0.0,0.0,0.0,0.0,0.0
7.755,220,7,755000000,base_footprint,-0.0014632214968674545,0.0035735390599537452,0.37727641871053036,0.9260926480036404,0.0,0.0,0.0,0.0,0.0,0.0,0.0,0.0,0.0,0.00034875643355666993,0.00020501358460542747,0.02385487937153016,0.0,0.0,0.0,0.0,0.0,0.0,0.0,0.0,0.0,-0.0062585388341351855,0.012025610026070449,-0.00015745412413552113,0.0,0.0,0.0,0.0,0.0,0.0,0.0,0.0,0.0
7.789,221,7,789000000,base_footprint,-0.001464571501621854,0.0035740170660194287,0.3776476940480966,0.9259413051659829,0.0,0.0,0.0,0.0,0.0,0.0,0.0,0.0,0.0,0.0002330637864227545,0.00019282450895726066,0.023366519478898763,0.0,0.0,0.0,0.0,0.0,0.0,0.0,0.0,0.0,-0.005074828382483524,0.005845376668500105,-0.00022356700681317243,0.0,0.0,0.0,0.0,0.0,0.0,0.0,0.0,0.0
7.823,222,7,823000000,base_footprint,-0.0014666982871593165,0.0035760424246606103,0.37801088311747955,0.9257930832326707,0.0,0.0,0.0,0.0,0.0,0.0,0.0,0.0,0.0,0.00012574175635855873,0.00018900548103511998,0.022836641395608145,0.0,0.0,0.0,0.0,0.0,0.0,0.0,0.0,0.0,-0.004827289036390089,0.005647284628482711,-0.00023177857046693294,0.0,0.0,0.0,0.0,0.0,0.0,0.0,0.0,0.0
7.857,223,7,857000000,base_footprint,-0.0014678250462002184,0.003580891185260056,0.37784767166483324,0.9258596868453759,0.0,0.0,0.0,0.0,0.0,0.0,0.0,0.0,0.0,-0.00018098077126173077,-3.816363115223175e-05,-0.01794029421046387,0.0,0.0,0.0,0.0,0.0,0.0,0.0,0.0,0.0,0.002602766490737705,0.015264616923631649,-0.0003242373290464036,0.0,0.0,0.0,0.0,0.0,0.0,0.0,0.0,0.0
7.891,224,7,891000000,base_footprint,-0.001468443301040505,0.003584751562117618,0.3775574566388844,0.9259780559856085,0.0,0.0,0.0,0.0,0.0,0.0,0.0,0.0,0.0,-0.00011970069450710174,-8.35236921782307e-05,-0.019047101694411147,0.0,0.0,0.0,0.0,0.0,0.0,0.0,0.0,0.0,0.004611418212486492,0.0014076985261909868,-0.000103031482378696,0.0,0.0,0.0,0.0,0.0,0.0,0.0,0.0,0.0
7.925,225,7,925000000,base_footprint,-0.0014610405970089098,0.003568134954445122,0.3775994835824017,0.9259609947355366,0.0,0.0,0.0,0.0,0.0,0.0,0.0,0.0,0.0,0.0006713194013783551,-0.0017835868300527114,0.028574846684114,0.0,0.0,0.0,0.0,0.0,0.0,0.0,0.0,0.0,-0.008233168740806984,-0.42307724625445187,-0.0009354284440331477,0.0,0.0,0.0,0.0,0.0,0.0,0.0,0.0,0.0
7.959,226,7,959000000,base_footprint,-0.00147079004942438,0.003583935501838449,0.37742281395770017,0.9260329430896077,0.0,0.0,0.0,0.0,0.0,0.0,0.0,0.0,0.0,-9.973141177607568e-05,-0.0012897913722001056,-0.027089111308543315,0.0,0.0,0.0,0.0,0.0,0.0,0.0,0.0,0.0,0.003519581166790048,0.04954060844329821,0.002847029694807454,0.0,0.0,0.0,0.0,0.0,0.0,0.0,0.0,0.0
7.993,227,7,993000000,base_footprint,-0.0014696920478489734,0.003581952745688687,0.3767688260223611,0.9262992288442995,0.0,0.0,0.0,0.0,0.0,0.0,0.0,0.0,0.0,-0.0007902687401218588,0.00020198459543007983,-0.05678728806025185,0.0,0.0,0.0,0.0,0.0,0.0,0.0,0.0,0.0,0.0076406345245989046,-0.03201760981044577,-0.0006641067462458525,0.0,0.0,0.0,0.0,0.0,0.0,0.0,0.0,0.0
8.027,228,8,27000000,base_footprint,-0.0014624928927498807,0.0035857675374271663,0.3761262415198161,0.9265603346927189,0.0,0.0,0.0,0.0,0.0,0.0,0.0,0.0,0.0,-0.0008055547864246947,0.0004544308687055972,-0.016072906941597312,0.0,0.0,0.0,0.0,0.0,0.0,0.0,0.0,0.0,0.005610613609042604,-0.010364860735985817,-0.0002783113426168006,0.0,0.0,0.0,0.0,0.0,0.0,0.0,0.0,0.0
8.061,229,8,61000000,base_footprint,-0.0014575111779868747,0.003568408444062804,0.3762866193723581,0.926495289898262,0.0,0.0,0.0,0.0,0.0,0.0,0.0,0.0,0.0,-8.28486942920588e-06,-0.0011547753548299194,0.033053023381637646,0.0,0.0,0.0,0.0,0.0,0.0,0.0,0.0,0.0,0.003702712419078699,0.16094592472114055,-0.0012188081592594978,0.0,0.0,0.0,0.0,0.0,0.0,0.0,0.0,0.0
8.095,230,8,95000000,base_footprint,-0.0014676362830250594,0.003582630139323193,0.37690440984341406,0.926244069695247,0.0,0.0,0.0,0.0,0.0,0.0,0.0,0.0,0.0,-0.0012128969654114055,-0.0005209711375104265,0.022637155177693186,0.0,0.0,0.0,0.0,0.0,0.0,0.0,0.0,0.0,-0.0040109499832993445,0.212882584076199,-0.0015213076565531696,0.0,0.0,0.0,0.0,0.0,0.0,0.0,0.0,0.0
8.129,231,8,129000000,base_footprint,-0.0014665908922699836,0.003579593813767824,0.376817402523244,0.926279483079982,0.0,0.0,0.0,0.0,0.0,0.0,0.0,0.0,0.0,0.0003120319883559363,-0.00016557204980624513,-0.005838546189872979,0.0,0.0,0.0,0.0,0.0,0.0,0.0,0.0,0.0,0.0010472790752553936,0.004805414246953391,0.0027396516990741563,0.0,0.0,0.0,0.0,0.0,0.0,0.0,0.0,0.0
8.163,232,8,163000000,base_footprint,-0.0014646998808455411,0.0035766441145154435,0.3767253685828951,0.9263169322306589,0.0,0.0,0.0,0.0,0.0,0.0,0.0,0.0,0.0,0.0003513704298989039,7.297542378982765e-05,-0.005988102188488289,0.0,0.0,0.0,0.0,0.0,0.0,0.0,0.0,0.0,0.0012724948114773273,0.004853548311233156,0.00023270427355681452,0.0,0.0,0.0,0.0,0.0,0.0,0.0,0.0,0.0
8.197,233,8,197000000,base_footprint,-0.001462240155930213,0.0035748630656651935,0.3766271259269387,0.9263568913889517,0.0,0.0,0.0,0.0,0.0,0.0,0.0,0.0,0.0,0.000247972526089084,5.249568317899775e-05,-0.0064401861768566245,0.0,0.0,0.0,0.0,0.0,0.0,0.0,0.0,0.0,0.0014650106370221138,0.00566973336174594,-0.000232144968091374,0.0,0.0,0.0,0.0,0.0,0.0,0.0,0.0,0.0
8.231,234,8,231000000,base_footprint,-0.0014619314329678294,0.0035752562058030814,0.3765568422485679,0.926385462351032,0.0,0.0,0.0,0.0,0.0,0.0,0.0,0.0,0.0,-0.0001820665353216288,0.00022633810906183912,0.027796205024175378,0.0,0.0,0.0,0.0,0.0,0.0,0.0,0.0,0.0,-0.0010193030616272693,-0.0016938168964122616,-0.0001586586189533014,0.0,0.0,0.0,0.0,0.0,0.0,0.0,0.0,0.0
8.265,235,8,265000000,base_footprint,-0.0014628963079610748,0.0035744096333195957,0.37712768981120287,0.9261532211830993,0.0,0.0,0.0,0.0,0.0,0.0,0.0,0.0,0.0,0.00030740099354894455,0.00026248797383030356,0.03580527960386934,0.0,0.0,0.0,0.0,0.0,0.0,0.0,0.0,0.0,-0.005398065435890383,0.0020018133755048267,-0.0001636023341961429,0.0,0.0,0.0,0.0,0.0,0.0,0.0,0.0,0.0
8.299,236,8,299000000,base_footprint,-0.0014653363932879567,0.0035759268381978446,0.37767752483311146,0.9259291294545371,0.0,0.0,0.0,0.0,0.0,0.0,0.0,0.0,0.0,0.0001689434571270296,0.0007386773205289141,0.02816520418203656,0.0,0.0,0.0,0.0,0.0,0.0,0.0,0.0,0.0,-0.007470054844200902,0.006846493398990487,-0.00017856199514936822,0.0,0.0,0.0,0.0,0.0,0.0,0.0,0.0,0.0
8.333,237,8,333000000,base_footprint,-0.0014687237889938714,0.003579555408537364,0.37810850105354266,0.9257532020277068,0.0,0.0,0.0,0.0,0.0,0.0,0.0,0.0,0.0,3.380298561320532e-05,0.00021624970952080903,0.027186477073469516,0.0,0.0,0.0,0.0,0.0,0.0,0.0,0.0,0.0,-0.005697634730809739,0.005981654965331135,-0.0003173439430362053,0.0,0.0,0.0,0.0,0.0,0.0,0.0,0.0,0.0
8.367,238,8,367000000,base_footprint,-0.0014724554602302481,0.0035827556317967846,0.37852965645794023,0.925581057994833,0.0,0.0,0.0,0.0,0.0,0.0,0.0,0.0,0.0,0.00011354310302068418,0.0001540084475295638,0.026301823651671594,0.0,0.0,0.0,0.0,0.0,0.0,0.0,0.0,0.0,-0.004444707783866018,0.003596207268041984,-7.613907878824559e-05,0.0,0.0,0.0,0.0,0.0,0.0,0.0,0.0,0.0
8.401,239,8,401000000,base_footprint,-0.0014751417040475545,0.0035835200468817743,0.3788920357087566,0.9254327677457186,0.0,0.0,0.0,0.0,0.0,0.0,0.0,0.0,0.0,0.00017235681380898464,0.0018003024404735228,0.0004408347039237076,0.0,0.0,0.0,0.0,0.0,0.0,0.0,0.0,0.0,-0.003629212353697552,0.010463221397974747,0.0010486152984237032,0.0,0.0,0.0,0.0,0.0,0.0,0.0,0.0,0.0
8.435,240,8,435000000,base_footprint,-0.0014761648222374755,0.0035824287190028125,0.37878982129632377,0.9254746125227802,0.0,0.0,0.0,0.0,0.0,0.0,0.0,0.0,0.0,0.00042280395602013277,-0.0003404477131480077,-0.00658295267498836,0.0,0.0,0.0,0.0,0.0,0.0,0.0,0.0,0.0,-0.0011550165955824124,-0.021335820503782917,-6.204714131618263e-05,0.0,0.0,0.0,0.0,0.0,0.0,0.0,0.0,0.0
8.469,241,8,469000000,base_footprint,-0.0014762444874242768,0.003580532983961955,0.3785337007818091,0.9255794065655263,0.0,0.0,0.0,0.0,0.0,0.0,0.0,0.0,0.0,-0.0003480805591282058,8.621244244129974e-05,-0.023673437657052373,0.0,0.0,0.0,0.0,0.0,0.0,0.0,0.0,0.0,0.003985807510862319,-0.05320210674441203,-0.00033564216676820063,0.0,0.0,0.0,0.0,0.0,0.0,0.0,0.0,0.0
8.503,242,8,503000000,base_footprint,-0.0014725452208920239,0.0035837786425679573,0.3783908726600482,0.9256377993733731,0.0,0.0,0.0,0.0,0.0,0.0,0.0,0.0,0.0,0.006968833867604183,-0.0014306301969659384,-0.011012313154354244,0.0,0.0,0.0,0.0,0.0,0.0,0.0,0.0,0.0,-0.006436619300058743,-0.06221660572372005,0.010198251619651615,0.0,0.0,0.0,0.0,0.0,0.0,0.0,0.0,0.0
8.537,243,8,537000000,base_footprint,-0.0014684839870628915,0.003568190442395083,0.37776664612471733,0.9258927975999321,0.0,0.0,0.0,0.0,0.0,0.0,0.0,0.0,0.0,-0.0016669066774515355,0.0004920969580137752,-0.015840887746467493,0.0,0.0,0.0,0.0,0.0,0.0,0.0,0.0,0.0,0.0054046265216821515,-0.29479416438019207,-0.012449045916632828,0.0,0.0,0.0,0.0,0.0,0.0,0.0,0.0,0.0
8.571,244,8,571000000,base_footprint,-0.0014711013716949455,0.0035823450759365797,0.3775692408886664,0.9259732560928893,0.0,0.0,0.0,0.0,0.0,0.0,0.0,0.0,0.0,0.0002671762830066033,-9.666089542936134e-05,-0.013158594393206819,0.0,0.0,0.0,0.0,0.0,0.0,0.0,0.0,0.0,0.0055083627341787934,0.05044283479607483,0.004410301300740866,0.0,0.0,0.0,0.0,0.0,0.0,0.0,0.0,0.0
8.605,245,8,605000000,base_footprint,-0.0014590699923792314,0.0035652801950731734,0.3773831832933159,0.9260491849028817,0.0,0.0,0.0,0.0,0.0,0.0,0.0,0.0,0.0,-0.00015715847912472087,0.0009761886808122678,-0.003996031050580034,0.0,0.0,0.0,0.0,0.0,0.0,0.0,0.0,0.0,0.0062231685206856485,0.14788495761582482,0.0002474346731992617,0.0,0.0,0.0,0.0,0.0,0.0,0.0,0.0,0.0
8.639,246,8,639000000,base_footprint,-0.001469593026202928,0.0035744912646825193,0.3778765101862586,0.9258479391120286,0.0,0.0,0.0,0.0,0.0,0.0,0.0,0.0,0.0,0.00030575803328120775,0.0002964107044664343,0.044800655097098775,0.0,0.0,0.0,0.0,0.0,0.0,0.0,0.0,0.0,-0.002559452883418134,0.18645598976118824,-0.0021894386944728474,0.0,0.0,0.0,0.0,0.0,0.0,0.0,0.0,0.0
8.673,247,8,673000000,base_footprint,-0.001470204152616545,0.0035715268737120925,0.3785775879452731,0.9255615012526607,0.0,0.0,0.0,0.0,0.0,0.0,0.0,0.0,0.0,0.0005330968277031878,0.00033521226787498753,0.0443873344818016,0.0,0.0,0.0,0.0,0.0,0.0,0.0,0.0,0.0,-0.009986470733394771,0.006272787294146374,0.0002621928874748842,0.0,0.0,0.0,0.0,0.0,0.0,0.0,0.0,0.0
8.707,248,8,707000000,base_footprint,-0.001474880177983184,0.0035751039948077284,0.37927590730960187,0.9252755424706551,0.0,0.0,0.0,0.0,0.0,0.0,0.0,0.0,0.0,0.0029525983931220677,0.00017755305450158055,0.04549544667606907,0.0,0.0,0.0,0.0,0.0,0.0,0.0,0.0,0.0,-0.015129601165005752,-0.3396049161666509,0.004782485536868097,0.0,0.0,0.0,0.0,0.0,0.0,0.0,0.0,0.0
8.741,249,8,741000000,base_footprint,-0.0014705187471958682,0.003569025583623981,0.37925655375827483,0.925283505776686,0.0,0.0,0.0,0.0,0.0,0.0,0.0,0.0,0.0,-0.00013336687471625982,-2.6353473477773895e-05,-0.003306220672464073,0.0,0.0,0.0,0.0,0.0,0.0,0.0,0.0,0.0,-0.0025984987419593805,-0.07811244149463657,-0.003011176493587651,0.0,0.0,0.0,0.0,0.0,0.0,0.0,0.0,0.0
8.775,250,8,775000000,base_footprint,-0.0014736494814554725,0.00357192677081766,0.37977518519023534,0.9250707423813989,0.0,0.0,0.0,0.0,0.0,0.0,0.0,0.0,0.0,0.0002534263587728269,0.0002754315008389937,0.03676010153679509,0.0,0.0,0.0,0.0,0.0,0.0,0.0,0.0,0.0,-0.00340812375515551,0.09528954249133698,-0.0004028282051160326,0.0,0.0,0.0,0.0,0.0,0.0,0.0,0.0,0.0
8.81,251,8,809000000,base_footprint,-0.0014768547324676678,0.003574614724897201,0.3803486478933089,0.9248350918274023,0.0,0.0,0.0,0.0,0.0,0.0,0.0,0.0,0.0,0.00013509169164541525,0.00027783745288155535,0.036224150432517185,0.0,0.0,0.0,0.0,0.0,0.0,0.0,0.0,0.0,-0.007328824215147498,0.005008050475513353,-0.0002342712568720307,0.0,0.0,0.0,0.0,0.0,0.0,0.0,0.0,0.0
8.843,252,8,843000000,base_footprint,-0.0014782863667976483,0.003570578302844562,0.38085573420160945,0.9246263977227527,0.0,0.0,0.0,0.0,0.0,0.0,0.0,0.0,0.0,-0.0015733084979738835,-0.0007496008974837135,0.03563522209744806,0.0,0.0,0.0,0.0,0.0,0.0,0.0,0.0,0.0,-0.006226830578063364,0.19316873149852845,-0.003622236664910715,0.0,0.0,0.0,0.0,0.0,0.0,0.0,0.0,0.0
8.877,253,8,877000000,base_footprint,-0.0014882031489557937,0.003576762250108198,0.3821204389342997,0.9241044108605109,0.0,0.0,0.0,0.0,0.0,0.0,0.0,0.0,0.0,-0.0006307377026636206,0.0012972311480200383,0.1002093109821927,0.0,0.0,0.0,0.0,0.0,0.0,0.0,0.0,0.0,-0.012333654728342816,0.13999954445300383,-7.116005989607661e-05,0.0,0.0,0.0,0.0,0.0,0.0,0.0,0.0,0.0
8.911,254,8,911000000,base_footprint,-0.0014878520117260715,0.0035767571483912254,0.38335966516773773,0.923591013504989,0.0,0.0,0.0,0.0,0.0,0.0,0.0,0.0,0.0,-0.0019108906612115947,0.00041112184389446524,0.03626330983246972,0.0,0.0,0.0,0.0,0.0,0.0,0.0,0.0,0.0,-0.01988963036351335,0.01670126554485921,-0.0013020109948892482,0.0,0.0,0.0,0.0,0.0,0.0,0.0,0.0,0.0
8.945,255,8,945000000,base_footprint,-0.0014944530559570083,0.0035762458515674264,0.3838333909170148,0.923394230593206,0.0,0.0,0.0,0.0,0.0,0.0,0.0,0.0,0.0,0.00043330940539451916,0.000366006567466146,0.02301315705215651,0.0,0.0,0.0,0.0,0.0,0.0,0.0,0.0,0.0,-0.003564590193275624,-0.0570415908661324,0.0040290968435788945,0.0,0.0,0.0,0.0,0.0,0.0,0.0,0.0,0.0
8.979,256,8,979000000,base_footprint,-0.0014927767003133398,0.0035738548042481173,0.3843398662055886,0.9231835496934676,0.0,0.0,0.0,0.0,0.0,0.0,0.0,0.0,0.0,-0.00010482565608861306,0.0009808315906692205,0.05152821240261259,0.0,0.0,0.0,0.0,0.0,0.0,0.0,0.0,0.0,-0.015771583723118605,0.00533037219168435,-0.0006815923916558099,0.0,0.0,0.0,0.0,0.0,0.0,0.0,0.0,0.0
9.013,257,9,13000000,base_footprint,-0.0014994089901596839,0.00357074720814177,0.3852320722428962,0.9228116016026782,0.0,0.0,0.0,0.0,0.0,0.0,0.0,0.0,0.0,0.0007354136737970266,8.66364754902523e-05,0.05424085909762902,0.0,0.0,0.0,0.0,0.0,0.0,0.0,0.0,0.0,-0.008274017683131837,-0.021329245181568618,0.0006504206840642438,0.0,0.0,0.0,0.0,0.0,0.0,0.0,0.0,0.0
9.047,258,9,47000000,base_footprint,-0.0015047606753241295,0.0035710683941270497,0.38561764146695904,0.9226505393459077,0.0,0.0,0.0,0.0,0.0,0.0,0.0,0.0,0.0,-0.0005813424049888455,-3.977827519367706e-07,-0.0011576288350575487,0.0,0.0,0.0,0.0,0.0,0.0,0.0,0.0,0.0,-0.006584918879616562,0.04967766676756131,-0.0012031884038090782,0.0,0.0,0.0,0.0,0.0,0.0,0.0,0.0,0.0
9.081,259,9,81000000,base_footprint,-0.0015018257245591957,0.0035656415146052985,0.38564566458554655,0.9226388524804571,0.0,0.0,0.0,0.0,0.0,0.0,0.0,0.0,0.0,0.00036619417785626923,-4.4592088799851366e-05,0.002344510908245733,0.0,0.0,0.0,0.0,0.0,0.0,0.0,0.0,0.0,5.750397268374169e-05,-0.008460573513442149,0.0015591206844726107,0.0,0.0,0.0,0.0,0.0,0.0,0.0,0.0,0.0
9.115,260,9,115000000,base_footprint,-0.0015017292670915592,0.0035706146000125992,0.3855409329058685,0.9226826022932585,0.0,0.0,0.0,0.0,0.0,0.0,0.0,0.0,0.0,-0.0006317622637841498,-0.0002174991140468347,-0.025872406186196874,0.0,0.0,0.0,0.0,0.0,0.0,0.0,0.0,0.0,0.007508169725467695,-0.5060246026605683,0.0017714264507689103,0.0,0.0,0.0,0.0,0.0,0.0,0.0,0.0,0.0
9.149000000000001,261,9,149000000,base_footprint,-0.001489496357411556,0.003554206785892862,0.3850115955678048,0.9229036896085405,0.0,0.0,0.0,0.0,0.0,0.0,0.0,0.0,0.0,-0.0007343863660215115,0.0003004615201430106,-0.02794557777179478,0.0,0.0,0.0,0.0,0.0,0.0,0.0,0.0,0.0,0.005931204937646553,0.055940835277181154,0.000153739571229658,0.0,0.0,0.0,0.0,0.0,0.0,0.0,0.0,0.0
9.183,262,9,183000000,base_footprint,-0.0014938791008805312,0.0035612380925872248,0.38490600573619627,0.922947697682099,0.0,0.0,0.0,0.0,0.0,0.0,0.0,0.0,0.0,0.00021271618837837526,7.821845671138803e-05,-0.003650413429037293,0.0,0.0,0.0,0.0,0.0,0.0,0.0,0.0,0.0,0.0009261410051287639,0.1252929601203847,-0.00026649621451911104,0.0,0.0,0.0,0.0,0.0,0.0,0.0,0.0,0.0
9.217,263,9,217000000,base_footprint,-0.0014935663436483379,0.0035599025773472718,0.38498536302106356,0.9229146041821839,0.0,0.0,0.0,0.0,0.0,0.0,0.0,0.0,0.0,-0.00023531744367724557,0.00012011128593377088,0.03852001313789974,0.0,0.0,0.0,0.0,0.0,0.0,0.0,0.0,0.0,-0.003955643243831478,0.3357106515472964,-0.002543837646489802,0.0,0.0,0.0,0.0,0.0,0.0,0.0,0.0,0.0
9.251,264,9,251000000,base_footprint,-0.0014955593035949242,0.003562279028778736,0.3855865766739105,0.922663571059021,0.0,0.0,0.0,0.0,0.0,0.0,0.0,0.0,0.0,0.0002671558538146927,0.0003035456062335675,0.03806769375184512,0.0,0.0,0.0,0.0,0.0,0.0,0.0,0.0,0.0,-0.008248816023398095,0.004839538141236074,0.00038226526196752456,0.0,0.0,0.0,0.0,0.0,0.0,0.0,0.0,0.0
9.285,265,9,285000000,base_footprint,-0.0014985231714503828,0.0035648471634287743,0.3861784895153394,0.922415969359083,0.0,0.0,0.0,0.0,0.0,0.0,0.0,0.0,0.0,0.00014398367418741977,0.00030574548648461464,0.03746875399536321,0.0,0.0,0.0,0.0,0.0,0.0,0.0,0.0,0.0,-0.008216394062071655,0.0051476894778560815,-0.00024215322224184585,0.0,0.0,0.0,0.0,0.0,0.0,0.0,0.0,0.0
9.319,266,9,319000000,base_footprint,-0.00150232091809446,0.0035681244627366986,0.3866782186273228,0.9222065748837825,0.0,0.0,0.0,0.0,0.0,0.0,0.0,0.0,0.0,3.631830764934957e-05,0.00023718663357303013,0.02892483009063523,0.0,0.0,0.0,0.0,0.0,0.0,0.0,0.0,0.0,-0.006594452416613775,0.0058261288862133396,-0.0002379795176295113,0.0,0.0,0.0,0.0,0.0,0.0,0.0,0.0,0.0
9.353,267,9,353000000,base_footprint,-0.0015055754807697817,0.0035702578585890695,0.3871202408369773,0.922021098259479,0.0,0.0,0.0,0.0,0.0,0.0,0.0,0.0,0.0,0.00010591377552001111,0.00013697893460010732,0.02716608907051042,0.0,0.0,0.0,0.0,0.0,0.0,0.0,0.0,0.0,-0.004591354383401665,0.0021120861721249523,1.0433860611754922e-05,0.0,0.0,0.0,0.0,0.0,0.0,0.0,0.0,0.0
9.387,268,9,387000000,base_footprint,-0.0015085370797265965,0.003569734855272097,0.38753037259324846,0.921848790001202,0.0,0.0,0.0,0.0,0.0,0.0,0.0,0.0,0.0,0.00029913736402593634,3.763521681495269e-05,0.02471015300492528,0.0,0.0,0.0,0.0,0.0,0.0,0.0,0.0,0.0,-0.00516662674793086,-0.006477094912520095,0.0004790490549390623,0.0,0.0,0.0,0.0,0.0,0.0,0.0,0.0,0.0
9.421,269,9,421000000,base_footprint,-0.00151700067079628,0.0035660792736771467,0.388268426710059,0.9215381764244356,0.0,0.0,0.0,0.0,0.0,0.0,0.0,0.0,0.0,0.0021797950271903142,-0.0018796184434014675,0.07245037600050108,0.0,0.0,0.0,0.0,0.0,0.0,0.0,0.0,0.0,-0.00023249525477316013,-0.17747612614434302,0.002401034916281443,0.0,0.0,0.0,0.0,0.0,0.0,0.0,0.0,0.0
9.455,270,9,455000000,base_footprint,-0.001516231965529973,0.0035612907428853716,0.38890945962325346,0.9212678494685573,0.0,0.0,0.0,0.0,0.0,0.0,0.0,0.0,0.0,0.00037517805491453065,0.00028055248803869913,-0.004430184830591947,0.0,0.0,0.0,0.0,0.0,0.0,0.0,0.0,0.0,-0.02048965801806888,-0.15883382296825976,0.0005162937412654518,0.0,0.0,0.0,0.0,0.0,0.0,0.0,0.0,0.0
9.489,271,9,489000000,base_footprint,-0.0015106940904545674,0.0035643917008988993,0.38890847983873167,0.9212682601852159,0.0,0.0,0.0,0.0,0.0,0.0,0.0,0.0,0.0,-5.296026446837638e-05,-0.00017981443678267915,0.012184561087361061,0.0,0.0,0.0,0.0,0.0,0.0,0.0,0.0,0.0,0.0067470854493405265,-0.06394167551229651,-0.001376395364555149,0.0,0.0,0.0,0.0,0.0,0.0,0.0,0.0,0.0
9.523,272,9,523000000,base_footprint,-0.0015017185759163723,0.00354810053981418,0.3894880061721956,0.9210234790014238,0.0,0.0,0.0,0.0,0.0,0.0,0.0,0.0,0.0,-0.0021385153793308694,0.0025809826038968695,0.0675487951464423,0.0,0.0,0.0,0.0,0.0,0.0,0.0,0.0,0.0,-0.012150593765764925,0.21331182666949275,-0.0042220872734158145,0.0,0.0,0.0,0.0,0.0,0.0,0.0,0.0,0.0
9.557,273,9,557000000,base_footprint,-0.0015175244606099466,0.0035608018524719647,0.390054776167045,0.9207835192915624,0.0,0.0,0.0,0.0,0.0,0.0,0.0,0.0,0.0,-0.0004694625078772828,-0.00045224463810303,0.010057331226954111,0.0,0.0,0.0,0.0,0.0,0.0,0.0,0.0,0.0,-0.013869036960517826,0.16721974268542744,0.0021990578893802955,0.0,0.0,0.0,0.0,0.0,0.0,0.0,0.0,0.0
9.591,274,9,591000000,base_footprint,-0.001516548673775436,0.0035563805573389576,0.39024801043005414,0.9207016577550168,0.0,0.0,0.0,0.0,0.0,0.0,0.0,0.0,0.0,0.00032047052643471516,4.736447015957565e-06,0.012575328568747738,0.0,0.0,0.0,0.0,0.0,0.0,0.0,0.0,0.0,-0.002000989622138496,-0.003798044109796073,0.0011754916839288275,0.0,0.0,0.0,0.0,0.0,0.0,0.0,0.0,0.0
9.625,275,9,625000000,base_footprint,-0.0015125323338220328,0.0035559887354649554,0.38951930605515017,0.921010193972014,0.0,0.0,0.0,0.0,0.0,0.0,0.0,0.0,0.0,-0.00015129156040087863,-0.00022482650441475567,-0.05994099970654881,0.0,0.0,0.0,0.0,0.0,0.0,0.0,0.0,0.0,0.00940724083659843,0.02441915265205117,-4.528608064566075e-05,0.0,0.0,0.0,0.0,0.0,0.0,0.0,0.0,0.0
9.659,276,9,659000000,base_footprint,-0.0015069483833610848,0.003556249620084308,0.3885751602034178,0.9214089358520992,0.0,0.0,0.0,0.0,0.0,0.0,0.0,0.0,0.0,-8.118699658725092e-05,-0.00023078322113594417,-0.06055281035450295,0.0,0.0,0.0,0.0,0.0,0.0,0.0,0.0,0.0,0.01267773486163316,0.00616484668832946,-0.00010105412152982009,0.0,0.0,0.0,0.0,0.0,0.0,0.0,0.0,0.0
9.693,277,9,693000000,base_footprint,-0.0015024811038279438,0.003558061416234364,0.38762080377985214,0.9218108239907755,0.0,0.0,0.0,0.0,0.0,0.0,0.0,0.0,0.0,-0.00017204631470022405,-0.00025287726402222887,-0.06118018755130721,0.0,0.0,0.0,0.0,0.0,0.0,0.0,0.0,0.0,0.01335358731115171,0.00610341429618968,-0.000285671153727205,0.0,0.0,0.0,0.0,0.0,0.0,0.0,0.0,0.0
9.727,278,9,727000000,base_footprint,-0.001501180278852023,0.0035600904536077158,0.3872771919083117,0.9219552314734948,0.0,0.0,0.0,0.0,0.0,0.0,0.0,0.0,0.0,-3.0007547511426505e-05,-2.448579458160418e-05,-0.01830310360859102,0.0,0.0,0.0,0.0,0.0,0.0,0.0,0.0,0.0,0.0053609547799844184,-0.005598658829360392,-0.0002110386891619436,0.0,0.0,0.0,0.0,0.0,0.0,0.0,0.0,0.0
9.761,279,9,761000000,base_footprint,-0.0015010045341543109,0.0035638842041556085,0.38698441742344586,0.9220781454877912,0.0,0.0,0.0,0.0,0.0,0.0,0.0,0.0,0.0,-0.00015546370320687467,-2.967219311463436e-05,-0.018989423675486092,0.0,0.0,0.0,0.0,0.0,0.0,0.0,0.0,0.0,0.004345942182380685,0.005348103930960812,-0.0002989453161660815,0.0,0.0,0.0,0.0,0.0,0.0,0.0,0.0,0.0
9.795,280,9,795000000,base_footprint,-0.0015019952105481149,0.0035687343632327577,0.3866786417245696,0.9222063956509271,0.0,0.0,0.0,0.0,0.0,0.0,0.0,0.0,0.0,-0.00024203150387075868,-0.00014508533822609444,-0.020058412081443218,0.0,0.0,0.0,0.0,0.0,0.0,0.0,0.0,0.0,0.004672607006666853,0.003809725557840135,-0.0004248882222208038,0.0,0.0,0.0,0.0,0.0,0.0,0.0,0.0,0.0
9.829,281,9,829000000,base_footprint,-0.0015007630990162338,0.0035727073599250377,0.3863539588498464,0.9223424537303334,0.0,0.0,0.0,0.0,0.0,0.0,0.0,0.0,0.0,-0.000974918595244145,0.0031075376940291914,-0.014317279090088786,0.0,0.0,0.0,0.0,0.0,0.0,0.0,0.0,0.0,0.0014724838398275176,-0.009221968299887707,0.000540885839339115,0.0,0.0,0.0,0.0,0.0,0.0,0.0,0.0,0.0
9.863,282,9,863000000,base_footprint,-0.0015066316821124622,0.0035708784146034575,0.3868508027522028,0.9221341742383798,0.0,0.0,0.0,0.0,0.0,0.0,0.0,0.0,0.0,0.0001883763238988711,0.00023344213991313275,0.03486383776057057,0.0,0.0,0.0,0.0,0.0,0.0,0.0,0.0,0.0,0.0010363179611262677,-0.005133247833788852,-0.0002990454104143881,0.0,0.0,0.0,0.0,0.0,0.0,0.0,0.0,0.0
9.897,283,9,897000000,base_footprint,-0.0015117712586191962,0.0035658594864863423,0.38729294117348395,0.9219485760664619,0.0,0.0,0.0,0.0,0.0,0.0,0.0,0.0,0.0,-5.8138144892773626e-05,8.913385396386136e-05,0.015998159342501626,0.0,0.0,0.0,0.0,0.0,0.0,0.0,0.0,0.0,-0.0078057172929663285,-0.048810963138273225,-5.220411802103937e-05,0.0,0.0,0.0,0.0,0.0,0.0,0.0,0.0,0.0
9.931000000000001,284,9,931000000,base_footprint,-0.001506865941689806,0.00356569422239552,0.38748904200091944,0.9218661819965823,0.0,0.0,0.0,0.0,0.0,0.0,0.0,0.0,0.0,0.00010081587455328345,0.0009138965981360757,0.024550543597852678,0.0,0.0,0.0,0.0,0.0,0.0,0.0,0.0,0.0,-0.010824303556062894,0.009966997383455547,0.000549124242071394,0.0,0.0,0.0,0.0,0.0,0.0,0.0,0.0,0.0
9.965,285,9,965000000,base_footprint,-0.0015101754844622673,0.0035666404936056995,0.3880891981160083,0.9216136786914945,0.0,0.0,0.0,0.0,0.0,0.0,0.0,0.0,0.0,0.0001997029738411842,-0.00010170639016012772,0.04036864588642527,0.0,0.0,0.0,0.0,0.0,0.0,0.0,0.0,0.0,-0.0006091775571867575,-0.03195633331031401,-0.0002623893996859723,0.0,0.0,0.0,0.0,0.0,0.0,0.0,0.0,0.0
9.999,286,9,999000000,base_footprint,-0.0015120132898456197,0.003566840173714361,0.38852384084337743,0.9214305272581849,0.0,0.0,0.0,0.0,0.0,0.0,0.0,0.0,0.0,0.0016886635142460051,-0.0008343551085556468,-0.001037749446554347,0.0,0.0,0.0,0.0,0.0,0.0,0.0,0.0,0.0,-0.008928932930508693,0.026899462547562557,0.005196473443632528,0.0,0.0,0.0,0.0,0.0,0.0,0.0,0.0,0.0
10.033,287,10,33000000,base_footprint,-0.0015124307282795004,0.0035618852457075774,0.3883225978978866,0.9215153745264508,0.0,0.0,0.0,0.0,0.0,0.0,0.0,0.0,0.0,0.00023094751635279766,-0.00019266793205136327,-0.012335932384326722,0.0,0.0,0.0,0.0,0.0,0.0,0.0,0.0,0.0,0.0030739020090249872,0.02152663757783866,-0.004393550062867146,0.0,0.0,0.0,0.0,0.0,0.0,0.0,0.0,0.0
10.067,288,10,67000000,base_footprint,-0.0015109772922244527,0.003559308116635418,0.38813237806484063,0.9215955215663132,0.0,0.0,0.0,0.0,0.0,0.0,0.0,0.0,0.0,0.0002889463741414937,2.3508877783047765e-05,-0.012179372894421711,0.0,0.0,0.0,0.0,0.0,0.0,0.0,0.0,0.0,0.0021112382754156084,0.0043663944469330505,0.00023551261400102773,0.0,0.0,0.0,0.0,0.0,0.0,0.0,0.0,0.0
10.101,289,10,101000000,base_footprint,-0.0015073764970153403,0.003557171798140801,0.3879381068131428,0.9216773294527373,0.0,0.0,0.0,0.0,0.0,0.0,0.0,0.0,0.0,0.0002484221118501357,5.7370046685477066e-05,-0.012558919520970916,0.0,0.0,0.0,0.0,0.0,0.0,0.0,0.0,0.0,0.002484596776602257,0.005572161567824578,-0.0001081827247888052,0.0,0.0,0.0,0.0,0.0,0.0,0.0,0.0,0.0
10.135,290,10,135000000,base_footprint,-0.0015055293444447423,0.0035577036264292476,0.3879070812707955,0.9216903885938446,0.0,0.0,0.0,0.0,0.0,0.0,0.0,0.0,0.0,0.002363931074499512,0.0015486952122819079,0.06255616615949064,0.0,0.0,0.0,0.0,0.0,0.0,0.0,0.0,0.0,0.0006390208025906655,-0.01383515142352942,0.0025878458240747534,0.0,0.0,0.0,0.0,0.0,0.0,0.0,0.0,0.0
10.169,291,10,169000000,base_footprint,-0.0015084464167587446,0.0035550751745397884,0.38890610367322037,0.9212693029487228,0.0,0.0,0.0,0.0,0.0,0.0,0.0,0.0,0.0,0.0004673488307335129,0.00045066512865751167,0.06320403056554026,0.0,0.0,0.0,0.0,0.0,0.0,0.0,0.0,0.0,-0.013064996425763805,0.0047409189349301925,-0.0028394763391072736,0.0,0.0,0.0,0.0,0.0,0.0,0.0,0.0,0.0
10.203,292,10,203000000,base_footprint,-0.001512195049007132,0.0035555451903476268,0.3898915858562972,0.9208526606591279,0.0,0.0,0.0,0.0,0.0,0.0,0.0,0.0,0.0,0.00037936276068480405,0.0004508349457956096,0.06274071086378169,0.0,0.0,0.0,0.0,0.0,0.0,0.0,0.0,0.0,-0.013893151045649327,0.005220794627754788,-0.00014690113202637175,0.0,0.0,0.0,0.0,0.0,0.0,0.0,0.0,0.0
10.237,293,10,237000000,base_footprint,-0.001514371985374343,0.0035578975959238454,0.3907267512083306,0.9204985898589798,0.0,0.0,0.0,0.0,0.0,0.0,0.0,0.0,0.0,-0.0007280227153172999,-0.0003833886613550036,0.02068091768181225,0.0,0.0,0.0,0.0,0.0,0.0,0.0,0.0,0.0,-0.011873198660726555,0.013737484087984253,-0.0015894444220027654,0.0,0.0,0.0,0.0,0.0,0.0,0.0,0.0,0.0
10.271,294,10,271000000,base_footprint,-0.0015194257193089904,0.0035613225810310328,0.3910676290629408,0.9203538003539985,0.0,0.0,0.0,0.0,0.0,0.0,0.0,0.0,0.0,1.5716606529238912e-05,0.00016960701989896773,0.021502200736897046,0.0,0.0,0.0,0.0,0.0,0.0,0.0,0.0,0.0,-0.004852394445112587,0.00514618687355684,0.001111427252157795,0.0,0.0,0.0,0.0,0.0,0.0,0.0,0.0,0.0
10.305,295,10,305000000,base_footprint,-0.0015149122704832584,0.003545822297142538,0.3914524178426001,0.9201902720362959,0.0,0.0,0.0,0.0,0.0,0.0,0.0,0.0,0.0,0.0008046047727270555,-0.0007351718279346749,0.04445487111798364,0.0,0.0,0.0,0.0,0.0,0.0,0.0,0.0,0.0,0.0006359960512150528,-0.14480138469531903,0.00018831249368545197,0.0,0.0,0.0,0.0,0.0,0.0,0.0,0.0,0.0
10.339,296,10,339000000,base_footprint,-0.001525426847037179,0.0035671383401626577,0.3919359262671945,0.9199843358982112,0.0,0.0,0.0,0.0,0.0,0.0,0.0,0.0,0.0,-0.0005538201602258724,0.0006613386409822391,0.01752486871830289,0.0,0.0,0.0,0.0,0.0,0.0,0.0,0.0,0.0,0.0034971986793902315,-0.18800726996265135,0.0005802306761328888,0.0,0.0,0.0,0.0,0.0,0.0,0.0,0.0,0.0
10.373,297,10,373000000,base_footprint,-0.001526006389692269,0.003566347816194261,0.3920053792059706,0.9199547462464314,0.0,0.0,0.0,0.0,0.0,0.0,0.0,0.0,0.0,0.0006844073651514514,-3.096479881895995e-05,-0.0008685037784821469,0.0,0.0,0.0,0.0,0.0,0.0,0.0,0.0,0.0,0.0031628035562776702,-0.04388862338200733,0.002556711211267835,0.0,0.0,0.0,0.0,0.0,0.0,0.0,0.0,0.0
10.407,298,10,407000000,base_footprint,-0.001522978809208241,0.0035423690511919882,0.39212183213402113,0.9199052130088787,0.0,0.0,0.0,0.0,0.0,0.0,0.0,0.0,0.0,0.0019200965732009345,0.0010976378221502383,0.023808478491467992,0.0,0.0,0.0,0.0,0.0,0.0,0.0,0.0,0.0,-0.019089127706795356,0.0324770493863008,0.002830409352140938,0.0,0.0,0.0,0.0,0.0,0.0,0.0,0.0,0.0
10.441,299,10,441000000,base_footprint,-0.0015240040565899537,0.00354134426857436,0.39321148582392573,0.919439972868565,0.0,0.0,0.0,0.0,0.0,0.0,0.0,0.0,0.0,0.002384933625243535,0.0004865008204576062,0.115250336083014,0.0,0.0,0.0,0.0,0.0,0.0,0.0,0.0,0.0,-0.008795811743114668,0.09492451019824563,0.0002495952947194622,0.0,0.0,0.0,0.0,0.0,0.0,0.0,0.0,0.0
10.475,300,10,475000000,base_footprint,-0.0015257882883828215,0.003547931053530908,0.395102839109194,0.9186287774085856,0.0,0.0,0.0,0.0,0.0,0.0,0.0,0.0,0.0,0.00024240965789581103,-0.00099754016910991,0.10274270530304132,0.0,0.0,0.0,0.0,0.0,0.0,0.0,0.0,0.0,-0.032060245097146195,0.12474411226277413,-0.007834167144619928,0.0,0.0,0.0,0.0,0.0,0.0,0.0,0.0,0.0
10.509,301,10,509000000,base_footprint,-0.0015396828094950544,0.003550386600419139,0.39625571560801015,0.9181320340668969,0.0,0.0,0.0,0.0,0.0,0.0,0.0,0.0,0.0,6.837807039021204e-05,-0.0005836065400008928,0.04282329229242414,0.0,0.0,0.0,0.0,0.0,0.0,0.0,0.0,0.0,-0.004387587597940182,-0.2160400180866976,0.0050969900158479445,0.0,0.0,0.0,0.0,0.0,0.0,0.0,0.0,0.0
10.543,302,10,543000000,base_footprint,-0.0015417566943230418,0.003544952383523159,0.39705633045179184,0.91778610075935,0.0,0.0,0.0,0.0,0.0,0.0,0.0,0.0,0.0,0.0004503948179998532,0.000215389368335819,0.05088017789958053,0.0,0.0,0.0,0.0,0.0,0.0,0.0,0.0,0.0,-0.00783101700131496,-0.042624328401146175,-0.0005512882505033495,0.0,0.0,0.0,0.0,0.0,0.0,0.0,0.0,0.0
10.577,303,10,577000000,base_footprint,-0.0015442445659153423,0.003542303602834504,0.3978483842474285,0.9174430394011481,0.0,0.0,0.0,0.0,0.0,0.0,0.0,0.0,0.0,0.0005608242853376653,0.0004020737478387759,0.05074946784915137,0.0,0.0,0.0,0.0,0.0,0.0,0.0,0.0,0.0,-0.010637004975927544,0.003845449521165692,0.00041114099522960104,0.0,0.0,0.0,0.0,0.0,0.0,0.0,0.0,0.0
10.611,304,10,611000000,base_footprint,-0.001540709129602883,0.0035350453923964397,0.39856227470353117,0.9171331652778667,0.0,0.0,0.0,0.0,0.0,0.0,0.0,0.0,0.0,0.0010979415294689334,0.00016603031840374094,0.011520322411452696,0.0,0.0,0.0,0.0,0.0,0.0,0.0,0.0,0.0,-0.028672166913016994,0.27354116116853106,-0.0007162166409867202,0.0,0.0,0.0,0.0,0.0,0.0,0.0,0.0,0.0
10.645,305,10,645000000,base_footprint,-0.001542832773302917,0.0035407188549211486,0.3982677176428344,0.917261090453853,0.0,0.0,0.0,0.0,0.0,0.0,0.0,0.0,0.0,4.581738160087224e-05,-2.002867546487985e-05,-0.02203893210284554,0.0,0.0,0.0,0.0,0.0,0.0,0.0,0.0,0.0,-0.002635572523740956,0.09598086554595653,-0.001473801689050902,0.0,0.0,0.0,0.0,0.0,0.0,0.0,0.0,0.0
10.679,306,10,679000000,base_footprint,-0.0015413926382483766,0.0035429829831720347,0.39791784292919735,0.9174129177523555,0.0,0.0,0.0,0.0,0.0,0.0,0.0,0.0,0.0,-5.323964822013609e-05,-3.297046620174733e-05,-0.02271977027332141,0.0,0.0,0.0,0.0,0.0,0.0,0.0,0.0,0.0,0.004522390509357333,0.006097918548887157,-0.000270929670813479,0.0,0.0,0.0,0.0,0.0,0.0,0.0,0.0,0.0
10.713000000000001,307,10,713000000,base_footprint,-0.0015432417992568314,0.0035435118016974923,0.39770839909283945,0.9175037281776414,0.0,0.0,0.0,0.0,0.0,0.0,0.0,0.0,0.0,0.0007860172837203009,0.0001436242194983043,0.011776636625395883,0.0,0.0,0.0,0.0,0.0,0.0,0.0,0.0,0.0,0.031172712287855314,-0.43001550033936864,0.0031713446769141168,0.0,0.0,0.0,0.0,0.0,0.0,0.0,0.0,0.0
10.747,308,10,747000000,base_footprint,-0.0015436315928496753,0.003548776428991657,0.397960268295235,0.9173944888900016,0.0,0.0,0.0,0.0,0.0,0.0,0.0,0.0,0.0,-0.0009856873844553001,-5.6977912360002916e-05,-0.0010133360218262065,0.0,0.0,0.0,0.0,0.0,0.0,0.0,0.0,0.0,0.01202823336918861,-0.24532211077788557,-0.0015089254202558843,0.0,0.0,0.0,0.0,0.0,0.0,0.0,0.0,0.0
10.781,309,10,781000000,base_footprint,-0.00154543481304361,0.003551874599010667,0.3979343938269505,0.9174056976210957,0.0,0.0,0.0,0.0,0.0,0.0,0.0,0.0,0.0,-1.1941987722075639e-06,-1.3902784391011169e-05,-0.0025218936162340762,0.0,0.0,0.0,0.0,0.0,0.0,0.0,0.0,0.0,0.0022899910881886967,-0.002265252080032763,0.001510495023268344,0.0,0.0,0.0,0.0,0.0,0.0,0.0,0.0,0.0
10.815,310,10,815000000,base_footprint,-0.0015427289325496815,0.0035442461650289814,0.39753700184934926,0.917578002388458,0.0,0.0,0.0,0.0,0.0,0.0,0.0,0.0,0.0,0.0006680425127457324,-0.0006791712195732101,-0.07626535045897039,0.0,0.0,0.0,0.0,0.0,0.0,0.0,0.0,0.0,-0.0096978724758231,0.19710462557635214,0.000839520456981305,0.0,0.0,0.0,0.0,0.0,0.0,0.0,0.0,0.0
10.849,311,10,849000000,base_footprint,-0.0015450484625269283,0.0035490545452371287,0.39544817879407035,0.9184801331142315,0.0,0.0,0.0,0.0,0.0,0.0,0.0,0.0,0.0,-0.0021203929566245157,-0.001787054785546977,-0.1589560177095773,0.0,0.0,0.0,0.0,0.0,0.0,0.0,0.0,0.0,0.022060451750277953,0.10968071402473398,-0.0031545034179076927,0.0,0.0,0.0,0.0,0.0,0.0,0.0,0.0,0.0
10.883,312,10,883000000,base_footprint,-0.0015382878624066016,0.0035450672493820444,0.3930599030553553,0.919504746468861,0.0,0.0,0.0,0.0,0.0,0.0,0.0,0.0,0.0,-0.0006802163165427831,-0.0005322045699090815,-0.14215062085808386,0.0,0.0,0.0,0.0,0.0,0.0,0.0,0.0,0.0,0.023761641032344485,0.01482928607621755,0.0007461328372037288,0.0,0.0,0.0,0.0,0.0,0.0,0.0,0.0,0.0
10.917,313,10,917000000,base_footprint,-0.0015281827867508412,0.0035699531633611946,0.39132004887218486,0.9202464558162952,0.0,0.0,0.0,0.0,0.0,0.0,0.0,0.0,0.0,-0.0005091832922398487,-0.0007825023559926069,-0.08506488478969762,0.0,0.0,0.0,0.0,0.0,0.0,0.0,0.0,0.0,0.03608166873749958,0.023985808357718505,0.00020422661071343095,0.0,0.0,0.0,0.0,0.0,0.0,0.0,0.0,0.0
10.95,314,10,951000000,base_footprint,-0.001517207216102383,0.0035609965466800457,0.3903568553117229,0.9206554963160761,0.0,0.0,0.0,0.0,0.0,0.0,0.0,0.0,0.0,-4.127218626131522e-05,-0.00022278665064911303,-0.030410954939063636,0.0,0.0,0.0,0.0,0.0,0.0,0.0,0.0,0.0,0.009860468256378943,-0.1364648278479821,0.00023999427368151673,0.0,0.0,0.0,0.0,0.0,0.0,0.0,0.0,0.0
10.985,315,10,985000000,base_footprint,-0.0015189485979038135,0.0035587957555087246,0.3906339077303359,0.9205379828661363,0.0,0.0,0.0,0.0,0.0,0.0,0.0,0.0,0.0,0.0013702908067772216,0.0011823729039745802,0.06909397205960763,0.0,0.0,0.0,0.0,0.0,0.0,0.0,0.0,0.0,0.006818385991135614,-0.2554084092882282,0.003373704314340826,0.0,0.0,0.0,0.0,0.0,0.0,0.0,0.0,0.0
11.019,316,11,19000000,base_footprint,-0.00152181853916907,0.003553037575875154,0.39163281018925356,0.9201134723367476,0.0,0.0,0.0,0.0,0.0,0.0,0.0,0.0,0.0,0.002070592231165811,-0.0003743361582233442,0.07591454829867415,0.0,0.0,0.0,0.0,0.0,0.0,0.0,0.0,0.0,0.0037246474023305137,-0.3502915940471987,0.0007349392439904116,0.0,0.0,0.0,0.0,0.0,0.0,0.0,0.0,0.0
11.053,317,11,53000000,base_footprint,-0.001528286721377805,0.003551361864311108,0.3927542063840775,0.9196353546576053,0.0,0.0,0.0,0.0,0.0,0.0,0.0,0.0,0.0,0.0006349917769549227,0.00033864067154121253,0.0715340165932042,0.0,0.0,0.0,0.0,0.0,0.0,0.0,0.0,0.0,-0.015784936574460957,0.012047108386606505,-0.0006537840604259135,0.0,0.0,0.0,0.0,0.0,0.0,0.0,0.0,0.0
11.087,318,11,87000000,base_footprint,-0.0015309638421155825,0.0035479227836256724,0.39387219878370744,0.919157091806903,0.0,0.0,0.0,0.0,0.0,0.0,0.0,0.0,0.0,0.0006891812216992864,0.0005364399683450048,0.07149738563691867,0.0,0.0,0.0,0.0,0.0,0.0,0.0,0.0,0.0,-0.013223253753137083,0.0034139525564933406,0.0003499946136423086,0.0,0.0,0.0,0.0,0.0,0.0,0.0,0.0,0.0
11.121,319,11,121000000,base_footprint,-0.0015284000224476055,0.003539053638537416,0.3950866216749371,0.9186357822696655,0.0,0.0,0.0,0.0,0.0,0.0,0.0,0.0,0.0,0.000743393043776573,0.0005384072723868177,0.08534619705024746,0.0,0.0,0.0,0.0,0.0,0.0,0.0,0.0,0.0,-0.042574039980424444,0.5239690388963746,-0.002921611952760953,0.0,0.0,0.0,0.0,0.0,0.0,0.0,0.0,0.0
11.155,320,11,155000000,base_footprint,-0.0015370056349348674,0.003543712596344348,0.3962369690673661,0.918140154910469,0.0,0.0,0.0,0.0,0.0,0.0,0.0,0.0,0.0,0.00039534982410128523,0.0006000107006674651,0.04905818754414829,0.0,0.0,0.0,0.0,0.0,0.0,0.0,0.0,0.0,-0.04766611423838024,0.5149535275219483,-0.002867045048659899,0.0,0.0,0.0,0.0,0.0,0.0,0.0,0.0,0.0
11.189,321,11,189000000,base_footprint,-0.0015387893204253913,0.003544140547679667,0.3970000891200683,0.9178104381809261,0.0,0.0,0.0,0.0,0.0,0.0,0.0,0.0,0.0,0.0003080123873698566,0.00040930180034933714,0.048732691069754114,0.0,0.0,0.0,0.0,0.0,0.0,0.0,0.0,0.0,-0.008618393607896471,0.001283421931670501,-4.492452457845823e-05,0.0,0.0,0.0,0.0,0.0,0.0,0.0,0.0,0.0
11.223,322,11,223000000,base_footprint,-0.0015421974856006965,0.0035461832189705145,0.39790987931516464,0.9174163581247524,0.0,0.0,0.0,0.0,0.0,0.0,0.0,0.0,0.0,0.0012379792936948054,0.0004365379051338195,0.05585484988998621,0.0,0.0,0.0,0.0,0.0,0.0,0.0,0.0,0.0,0.012658788851199754,-0.37877069892606036,0.003130215348101343,0.0,0.0,0.0,0.0,0.0,0.0,0.0,0.0,0.0
11.257,323,11,257000000,base_footprint,-0.0015461370674130495,0.0035482126104456452,0.39858966491322667,0.9171212017349732,0.0,0.0,0.0,0.0,0.0,0.0,0.0,0.0,0.0,0.0002077018379109256,0.0003617616897536761,0.04030451524369641,0.0,0.0,0.0,0.0,0.0,0.0,0.0,0.0,0.0,-0.011916113287302028,0.04693351344885813,-0.0015478967708824987,0.0,0.0,0.0,0.0,0.0,0.0,0.0,0.0,0.0
11.287,324,11,291000000,base_footprint,-0.0015504556639925101,0.0035499513476162036,0.3992011737403439,0.9168551776682048,0.0,0.0,0.0,0.0,0.0,0.0,0.0,0.0,0.0,0.00020943336026931189,0.00022756408308717704,0.03795528863486594,0.0,0.0,0.0,0.0,0.0,0.0,0.0,0.0,0.0,-0.007287682247692115,-0.0007672691369313167,-8.34056394556231e-05,0.0,0.0,0.0,0.0,0.0,0.0,0.0,0.0,0.0
11.325,325,11,325000000,base_footprint,-0.001555106466737902,0.0035467809751286044,0.3997514548071169,0.9166153917364608,0.0,0.0,0.0,0.0,0.0,0.0,0.0,0.0,0.0,0.0005499040387513638,-0.0003005192637819475,0.03217520788124705,0.0,0.0,0.0,0.0,0.0,0.0,0.0,0.0,0.0,-0.00893460190380161,-0.0078404210788651,0.0006505356884129549,0.0,0.0,0.0,0.0,0.0,0.0,0.0,0.0,0.0
11.359,326,11,359000000,base_footprint,-0.0015638183839794158,0.003528111603291121,0.3994028083761451,0.9167674206481298,0.0,0.0,0.0,0.0,0.0,0.0,0.0,0.0,0.0,0.0018180538986827246,-0.0014558641960141006,-0.04141022383915254,0.0,0.0,0.0,0.0,0.0,0.0,0.0,0.0,0.0,-0.003934628699393112,0.0835987562621966,0.00012048753190062087,0.0,0.0,0.0,0.0,0.0,0.0,0.0,0.0,0.0
11.393,327,11,393000000,base_footprint,-0.0015603453070461932,0.0035347348865180797,0.39897388016535423,0.9169541503900872,0.0,0.0,0.0,0.0,0.0,0.0,0.0,0.0,0.0,2.3817462778736196e-05,-0.00011296726605519782,-0.0063469286114938685,0.0,0.0,0.0,0.0,0.0,0.0,0.0,0.0,0.0,0.0024404740555039606,0.05595549386984229,-0.001242370958251799,0.0,0.0,0.0,0.0,0.0,0.0,0.0,0.0,0.0
11.427,328,11,427000000,base_footprint,-0.0015484157518591728,0.003539799996258171,0.399431610654827,0.9167548530737848,0.0,0.0,0.0,0.0,0.0,0.0,0.0,0.0,0.0,-0.0019449262140506115,0.001701769628082166,0.07216292143707002,0.0,0.0,0.0,0.0,0.0,0.0,0.0,0.0,0.0,-0.011369237560022658,0.11357465866874436,-0.004111160261704818,0.0,0.0,0.0,0.0,0.0,0.0,0.0,0.0,0.0
