Time,header.seq,header.stamp.secs,header.stamp.nsecs,header.frame_id,orientation.x,orientation.y,orientation.z,orientation.w,orientation_covariance_0,orientation_covariance_1,orientation_covariance_2,orientation_covariance_3,orientation_covariance_4,orientation_covariance_5,orientation_covariance_6,orientation_covariance_7,orientation_covariance_8,angular_velocity.x,angular_velocity.y,angular_velocity.z,angular_velocity_covariance_0,angular_velocity_covariance_1,angular_velocity_covariance_2,angular_velocity_covariance_3,angular_velocity_covariance_4,angular_velocity_covariance_5,angular_velocity_covariance_6,angular_velocity_covariance_7,angular_velocity_covariance_8,linear_acceleration.x,linear_acceleration.y,linear_acceleration.z,linear_acceleration_covariance_0,linear_acceleration_covariance_1,linear_acceleration_covariance_2,linear_acceleration_covariance_3,linear_acceleration_covariance_4,linear_acceleration_covariance_5,linear_acceleration_covariance_6,linear_acceleration_covariance_7,linear_acceleration_covariance_8
0.117,0,0,115000000,base_footprint,0.0013143384656014807,-6.267174880511466e-06,0.9999991351692779,4.6214898487392426e-05,0.0,0.0,0.0,0.0,0.0,0.0,0.0,0.0,0.0,-1.6980355118362776e-05,-0.1569133548914,5.901202903403473e-06,0.0,0.0,0.0,0.0,0.0,0.0,0.0,0.0,0.0,0.00021882259904275998,-2.0359837566418727e-06,-0.13918362111694219,0.0,0.0,0.0,0.0,0.0,0.0,0.0,0.0,0.0
0.17,1,0,149000000,base_footprint,0.0009554417895071302,-1.7732122100784638e-05,0.9999995423200252,4.665081889743661e-05,0.0,0.0,0.0,0.0,0.0,0.0,0.0,0.0,0.0,-0.00028337632992349624,0.04758799142272875,2.6468244875220054e-06,0.0,0.0,0.0,0.0,0.0,0.0,0.0,0.0,0.0,-0.00034089175992873025,2.3265465853180558e-06,0.005131748679945537,0.0,0.0,0.0,0.0,0.0,0.0,0.0,0.0,0.0
0.19,2,0,183000000,base_footprint,0.0001442680945152505,-2.2781257577155877e-05,0.9999999882474448,4.661374986343369e-05,0.0,0.0,0.0,0.0,0.0,0.0,0.0,0.0,0.0,-0.0002837837375476409,0.04756041008294899,3.2315359380251014e-06,0.0,0.0,0.0,0.0,0.0,0.0,0.0,0.0,0.0,-0.00021497684774632783,2.99874722134231e-07,7.846402313990012e-05,0.0,0.0,0.0,0.0,0.0,0.0,0.0,0.0,0.0
0.21800000000000003,3,0,217000000,base_footprint,-0.0009389499799981795,-3.0715217152883674e-05,0.9999995576302639,4.657023893846026e-05,0.0,0.0,0.0,0.0,0.0,0.0,0.0,0.0,0.0,-0.0004203212577189502,0.06777050692349584,6.819772988770117e-06,0.0,0.0,0.0,0.0,0.0,0.0,0.0,0.0,0.0,-0.00036733097277300675,3.4448620411662384e-08,0.0028139967223474852,0.0,0.0,0.0,0.0,0.0,0.0,0.0,0.0,0.0
0.259,4,0,251000000,base_footprint,-0.002092468497588257,-3.817498468482086e-05,0.9999978089770054,4.646983662155763e-05,0.0,0.0,0.0,0.0,0.0,0.0,0.0,0.0,0.0,-0.0004207755261393115,0.06769334313062904,8.03064481510863e-06,0.0,0.0,0.0,0.0,0.0,0.0,0.0,0.0,0.0,-0.0002958506533429006,3.970697042179586e-07,0.0001509395746004907,0.0,0.0,0.0,0.0,0.0,0.0,0.0,0.0,0.0
0.28200000000000003,5,0,285000000,base_footprint,-0.0032446826301795045,-4.5641898063222704e-05,0.999994733887676,4.635043474905583e-05,0.0,0.0,0.0,0.0,0.0,0.0,0.0,0.0,0.0,-0.0004212576839605158,0.06761697244587432,9.061244986367185e-06,0.0,0.0,0.0,0.0,0.0,0.0,0.0,0.0,0.0,-0.000294711323579689,4.589119685188194e-08,0.0001497907256323983,0.0,0.0,0.0,0.0,0.0,0.0,0.0,0.0,0.0
0.33,6,0,319000000,base_footprint,-0.003936843275214827,-6.8278122561128905e-06,0.9999922494422285,4.7685211079760545e-05,0.0,0.0,0.0,0.0,0.0,0.0,0.0,0.0,0.0,-4.566823077494664e-05,-0.024601802989128712,-0.0001274772500912432,0.0,0.0,0.0,0.0,0.0,0.0,0.0,0.0,0.0,0.000936220786891887,0.00015259720156454758,0.13220735442215284,0.0,0.0,0.0,0.0,0.0,0.0,0.0,0.0,0.0
0.35300000000000004,7,0,353000000,base_footprint,-0.003852785283229284,-6.878840237996296e-06,0.9999925768028257,4.8347573084518076e-05,0.0,0.0,0.0,0.0,0.0,0.0,0.0,0.0,0.0,8.267225892068879e-05,-0.000947393252781674,9.497934361464165e-06,0.0,0.0,0.0,0.0,0.0,0.0,0.0,0.0,0.0,-0.0010244578957106499,-0.00013511091398164408,0.0005630172074973087,0.0,0.0,0.0,0.0,0.0,0.0,0.0,0.0,0.0
0.387,8,0,387000000,base_footprint,-0.0038531032113110213,-6.875268870228815e-06,0.9999925755838447,4.822408793604715e-05,0.0,0.0,0.0,0.0,0.0,0.0,0.0,0.0,0.0,3.850280044278241e-05,-0.0001628401448581696,9.087462230120563e-06,0.0,0.0,0.0,0.0,0.0,0.0,0.0,0.0,0.0,-1.631523876731155e-05,-1.4120513855794736e-06,-0.0008733597945344655,0.0,0.0,0.0,0.0,0.0,0.0,0.0,0.0,0.0
0.41800000000000004,9,0,421000000,base_footprint,-0.0038531018079711933,-6.875956101648118e-06,0.9999925755963621,4.8076322566680484e-05,0.0,0.0,0.0,0.0,0.0,0.0,0.0,0.0,0.0,3.871533685997682e-05,-0.0001807850359416175,9.762092612639765e-06,0.0,0.0,0.0,0.0,0.0,0.0,0.0,0.0,0.0,1.809658338789782e-07,1.315632557691578e-06,1.9514691703173132e-05,0.0,0.0,0.0,0.0,0.0,0.0,0.0,0.0,0.0
0.456,10,0,455000000,base_footprint,-0.0038531016370920127,-6.876598599275118e-06,0.9999925756043501,4.792353382888699e-05,0.0,0.0,0.0,0.0,0.0,0.0,0.0,0.0,0.0,3.871122221711987e-05,-0.00018040491969233485,9.859188774456866e-06,0.0,0.0,0.0,0.0,0.0,0.0,0.0,0.0,0.0,-3.633651353095868e-08,1.888075577859935e-07,-4.2472268148805646e-07,0.0,0.0,0.0,0.0,0.0,0.0,0.0,0.0,0.0
0.49000000000000005,11,0,489000000,base_footprint,-0.003853101627857904,-6.87723253474501e-06,0.9999925756117262,4.7770025482364684e-05,0.0,0.0,0.0,0.0,0.0,0.0,0.0,0.0,0.0,3.871155771984309e-05,-0.00018041050900687852,9.87315584602501e-06,0.0,0.0,0.0,0.0,0.0,0.0,0.0,0.0,0.0,-3.96638695618146e-09,2.7169805790397646e-08,4.964167748010605e-09,0.0,0.0,0.0,0.0,0.0,0.0,0.0,0.0,0.0
0.527,12,0,523000000,base_footprint,-0.0038531016253237206,-6.87786278403665e-06,0.999992575619058,4.7616411692306825e-05,0.0,0.0,0.0,0.0,0.0,0.0,0.0,0.0,0.0,3.8711811665699207e-05,-0.00018041015314971897,9.875075665826072e-06,0.0,0.0,0.0,0.0,0.0,0.0,0.0,0.0,0.0,-5.740592540649275e-10,3.7340369970227635e-09,-5.20604007701272e-10,0.0,0.0,0.0,0.0,0.0,0.0,0.0,0.0,0.0
0.562,13,0,557000000,base_footprint,-0.0038531016244440974,-6.878490439300146e-06,0.9999925756263607,4.7462782124459694e-05,0.0,0.0,0.0,0.0,0.0,0.0,0.0,0.0,0.0,3.871205515063708e-05,-0.00018041010119536238,9.875251814902946e-06,0.0,0.0,0.0,0.0,0.0,0.0,0.0,0.0,0.0,-5.865270505152856e-11,3.420534913466363e-10,-3.4992687448993016e-11,0.0,0.0,0.0,0.0,0.0,0.0,0.0,0.0,0.0
0.5910000000000001,14,0,591000000,base_footprint,-0.0038531016237758915,-6.879115800192219e-06,0.9999925756336389,4.730914987530147e-05,0.0,0.0,0.0,0.0,0.0,0.0,0.0,0.0,0.0,3.871229081129911e-05,-0.00018041007300015008,9.875189761031286e-06,0.0,0.0,0.0,0.0,0.0,0.0,0.0,0.0,0.0,1.1367439517237267e-11,-1.2144743034658755e-10,1.1396991622869409e-11,0.0,0.0,0.0,0.0,0.0,0.0,0.0,0.0,0.0
0.625,15,0,625000000,base_footprint,-0.0038531016231300196,-6.8797390316605385e-06,0.9999925756408937,4.7155516866463744e-05,0.0,0.0,0.0,0.0,0.0,0.0,0.0,0.0,0.0,3.8712519661295614e-05,-0.0001804100481212602,9.875107445689469e-06,0.0,0.0,0.0,0.0,0.0,0.0,0.0,0.0,0.0,1.733053283559492e-11,-1.609914516412662e-10,1.649490810213192e-11,0.0,0.0,0.0,0.0,0.0,0.0,0.0,0.0,0.0
0.659,16,0,659000000,base_footprint,-0.0038531016224789545,-6.880360272161518e-06,0.9999925756481247,4.700188338203065e-05,0.0,0.0,0.0,0.0,0.0,0.0,0.0,0.0,0.0,3.8712742090639486e-05,-0.00018041002332995417,9.875036658672528e-06,0.0,0.0,0.0,0.0,0.0,0.0,0.0,0.0,0.0,1.3947458655781085e-11,-1.3868975739594023e-10,1.53444117432752e-11,0.0,0.0,0.0,0.0,0.0,0.0,0.0,0.0,0.0
0.7070000000000001,17,0,693000000,base_footprint,-0.003853101621818812,-6.880979648386592e-06,0.9999925756553323,4.684824946414197e-05,0.0,0.0,0.0,0.0,0.0,0.0,0.0,0.0,0.0,3.871295856504348e-05,-0.00018040999810470487,9.874981251310202e-06,0.0,0.0,0.0,0.0,0.0,0.0,0.0,0.0,0.0,9.428073276988778e-12,-1.0888838700315747e-10,1.3483908205694624e-11,0.0,0.0,0.0,0.0,0.0,0.0,0.0,0.0,0.0
0.7280000000000001,18,0,727000000,base_footprint,-0.00385310162114975,-6.88159727870321e-06,0.9999925756625164,4.66946151203081e-05,0.0,0.0,0.0,0.0,0.0,0.0,0.0,0.0,0.0,3.8713169473633464e-05,-0.0001804099725300439,9.874940675923078e-06,0.0,0.0,0.0,0.0,0.0,0.0,0.0,0.0,0.0,5.073103203490705e-12,-8.014558153548717e-11,1.149503246905339e-11,0.0,0.0,0.0,0.0,0.0,0.0,0.0,0.0,0.0
0.761,19,0,761000000,base_footprint,-0.0038531016204726163,-6.882213273703895e-06,0.9999925756696769,4.6540980360277216e-05,0.0,0.0,0.0,0.0,0.0,0.0,0.0,0.0,0.0,3.8713375189271294e-05,-0.00018040994645528353,9.87491368852855e-06,0.0,0.0,0.0,0.0,0.0,0.0,0.0,0.0,0.0,1.0787805604383635e-12,-5.381380096846455e-11,9.60741290388522e-12,0.0,0.0,0.0,0.0,0.0,0.0,0.0,0.0,0.0
0.795,20,0,795000000,base_footprint,-0.0038531016197875453,-6.882827738562633e-06,0.9999925756768141,4.6387345186186805e-05,0.0,0.0,0.0,0.0,0.0,0.0,0.0,0.0,0.0,3.8713575827302995e-05,-0.0001804099200696897,9.874899745196849e-06,0.0,0.0,0.0,0.0,0.0,0.0,0.0,0.0,0.0,-2.751804486453801e-12,-2.8538812703901183e-11,7.90587238557397e-12,0.0,0.0,0.0,0.0,0.0,0.0,0.0,0.0,0.0
0.8290000000000001,21,0,829000000,base_footprint,-0.0038531016190949787,-6.883440778154074e-06,0.9999925756839274,4.62337096086907e-05,0.0,0.0,0.0,0.0,0.0,0.0,0.0,0.0,0.0,3.871377345758381e-05,-0.00018040989335300675,9.874899103749481e-06,0.0,0.0,0.0,0.0,0.0,0.0,0.0,0.0,0.0,-6.656685009566083e-12,-2.7300211631271576e-12,6.6505263664785245e-12,0.0,0.0,0.0,0.0,0.0,0.0,0.0,0.0,0.0
0.8640000000000001,22,0,863000000,base_footprint,-0.0038531016183954384,-6.884052474840068e-06,0.9999925756910174,4.608007362307235e-05,0.0,0.0,0.0,0.0,0.0,0.0,0.0,0.0,0.0,3.871396697598993e-05,-0.00018040986625281693,9.874909852293192e-06,0.0,0.0,0.0,0.0,0.0,0.0,0.0,0.0,0.0,-1.0004478386098818e-11,1.934483204439056e-11,5.1862690128236826e-12,0.0,0.0,0.0,0.0,0.0,0.0,0.0,0.0,0.0
0.897,23,0,897000000,base_footprint,-0.003853101617689624,-6.884662913204665e-06,0.9999925756980836,4.5926437235686534e-05,0.0,0.0,0.0,0.0,0.0,0.0,0.0,0.0,0.0,3.8714156424945834e-05,-0.00018040983885828416,9.874931373275227e-06,0.0,0.0,0.0,0.0,0.0,0.0,0.0,0.0,0.0,-1.3168175716967192e-11,4.0220497727809693e-11,3.659920310746678e-12,0.0,0.0,0.0,0.0,0.0,0.0,0.0,0.0,0.0
0.932,24,0,931000000,base_footprint,-0.003853101616977305,-6.885272173195812e-06,0.9999925757051266,4.57728004460592e-05,0.0,0.0,0.0,0.0,0.0,0.0,0.0,0.0,0.0,3.871434202571209e-05,-0.0001804098112312068,9.874963506019317e-06,0.0,0.0,0.0,0.0,0.0,0.0,0.0,0.0,0.0,-1.62837931534086e-11,6.078759031108043e-11,2.3995707266196266e-12,0.0,0.0,0.0,0.0,0.0,0.0,0.0,0.0,0.0
0.9650000000000001,25,0,965000000,base_footprint,-0.0038531016162593906,-6.885880329715583e-06,0.9999925757121458,4.561916325260613e-05,0.0,0.0,0.0,0.0,0.0,0.0,0.0,0.0,0.0,3.871452409470527e-05,-0.0001804097831019944,9.875004159297225e-06,0.0,0.0,0.0,0.0,0.0,0.0,0.0,0.0,0.0,-1.8792676409216764e-11,7.72959770737168e-11,9.305939221806674e-13,0.0,0.0,0.0,0.0,0.0,0.0,0.0,0.0,0.0
0.9980000000000001,26,0,999000000,base_footprint,-0.003853101615536528,-6.886487452704722e-06,0.9999925757191414,4.546552566384955e-05,0.0,0.0,0.0,0.0,0.0,0.0,0.0,0.0,0.0,3.871470298750416e-05,-0.00018040975484942816,9.875053512114547e-06,0.0,0.0,0.0,0.0,0.0,0.0,0.0,0.0,0.0,-2.1345240361783976e-11,9.415624283213074e-11,-1.0474590843735639e-13,0.0,0.0,0.0,0.0,0.0,0.0,0.0,0.0,0.0
1.034,27,1,33000000,base_footprint,-0.0038531016148084527,-6.887093607574266e-06,0.9999925757261136,4.531188767848249e-05,0.0,0.0,0.0,0.0,0.0,0.0,0.0,0.0,0.0,3.871487866179129e-05,-0.0001804097264435538,9.8751121047321e-06,0.0,0.0,0.0,0.0,0.0,0.0,0.0,0.0,0.0,-2.4059419509673974e-11,1.1206597393900278e-10,-8.819506368108456e-13,0.0,0.0,0.0,0.0,0.0,0.0,0.0,0.0,0.0
1.067,28,1,67000000,base_footprint,-0.0038531016140753815,-6.887698855925778e-06,0.9999925757330621,4.5158249297406236e-05,0.0,0.0,0.0,0.0,0.0,0.0,0.0,0.0,0.0,3.871505144841111e-05,-0.00018040969781326174,9.875178613389639e-06,0.0,0.0,0.0,0.0,0.0,0.0,0.0,0.0,0.0,-2.6383533273729582e-11,1.2740724113053865e-10,-2.083805413355882e-12,0.0,0.0,0.0,0.0,0.0,0.0,0.0,0.0,0.0
1.101,29,1,101000000,base_footprint,-0.0038531016133384983,-6.8883032555049776e-06,0.999992575739987,4.500461053086259e-05,0.0,0.0,0.0,0.0,0.0,0.0,0.0,0.0,0.0,3.87152215994427e-05,-0.00018040966880520162,9.875250543789565e-06,0.0,0.0,0.0,0.0,0.0,0.0,0.0,0.0,0.0,-2.7979975641073636e-11,1.3790642858564147e-10,-3.34466007542913e-12,0.0,0.0,0.0,0.0,0.0,0.0,0.0,0.0,0.0
1.135,30,1,135000000,base_footprint,-0.003853101612597116,-6.888906859956377e-06,0.9999925757468885,4.485097136690258e-05,0.0,0.0,0.0,0.0,0.0,0.0,0.0,0.0,0.0,3.871538919610171e-05,-0.0001804096396916823,9.87533129137701e-06,0.0,0.0,0.0,0.0,0.0,0.0,0.0,0.0,0.0,-3.056942224670987e-11,1.5500381243951602e-10,-3.899367496828377e-12,0.0,0.0,0.0,0.0,0.0,0.0,0.0,0.0,0.0
1.17,31,1,169000000,base_footprint,-0.0038531016118519934,-6.8895097199289445e-06,0.9999925757537662,4.4697331815018864e-05,0.0,0.0,0.0,0.0,0.0,0.0,0.0,0.0,0.0,3.8715554318051886e-05,-0.00018040961040395812,9.875416812019542e-06,0.0,0.0,0.0,0.0,0.0,0.0,0.0,0.0,0.0,-3.197183348950347e-11,1.642440806107697e-10,-4.8614715300143725e-12,0.0,0.0,0.0,0.0,0.0,0.0,0.0,0.0,0.0
1.201,32,1,203000000,base_footprint,-0.0038531016111036697,-6.890111882331984e-06,0.9999925757606206,4.454369189244035e-05,0.0,0.0,0.0,0.0,0.0,0.0,0.0,0.0,0.0,3.871571726409185e-05,-0.00018040958080168415,9.875507201662463e-06,0.0,0.0,0.0,0.0,0.0,0.0,0.0,0.0,0.0,-3.340594901749229e-11,1.7367485022048952e-10,-5.8168656282395236e-12,0.0,0.0,0.0,0.0,0.0,0.0,0.0,0.0,0.0
1.238,33,1,237000000,base_footprint,-0.0038531016103514927,-6.890713391655923e-06,0.9999925757674513,4.439005160134508e-05,0.0,0.0,0.0,0.0,0.0,0.0,0.0,0.0,0.0,3.8715878035449006e-05,-0.00018040955137428708,9.875605149744679e-06,0.0,0.0,0.0,0.0,0.0,0.0,0.0,0.0,0.0,-3.561803048986467e-11,1.883321919636046e-10,-6.167446479286754e-12,0.0,0.0,0.0,0.0,0.0,0.0,0.0,0.0,0.0
1.271,34,1,271000000,base_footprint,-0.0038531016095963554,-6.891314288975741e-06,0.9999925757742585,4.423641092659535e-05,0.0,0.0,0.0,0.0,0.0,0.0,0.0,0.0,0.0,3.871603690098138e-05,-0.00018040952155816734,9.87570781555868e-06,0.0,0.0,0.0,0.0,0.0,0.0,0.0,0.0,0.0,-3.7010745027694104e-11,1.9747303888140122e-10,-7.0000835710774504e-12,0.0,0.0,0.0,0.0,0.0,0.0,0.0,0.0,0.0
1.305,35,1,305000000,base_footprint,-0.0038531016088378415,-6.891914614442075e-06,0.999992575781042,4.408276987007039e-05,0.0,0.0,0.0,0.0,0.0,0.0,0.0,0.0,0.0,3.8716194005942726e-05,-0.00018040949138283527,9.875815227726042e-06,0.0,0.0,0.0,0.0,0.0,0.0,0.0,0.0,0.0,-3.840827382488234e-11,2.0667181488096384e-10,-8.040599287896502e-12,0.0,0.0,0.0,0.0,0.0,0.0,0.0,0.0,0.0
1.339,36,1,339000000,base_footprint,-0.0038531016080767273,-6.892514403223684e-06,0.999992575787802,4.392912843249295e-05,0.0,0.0,0.0,0.0,0.0,0.0,0.0,0.0,0.0,3.871634929147144e-05,-0.00018040946148787434,9.87592767632572e-06,0.0,0.0,0.0,0.0,0.0,0.0,0.0,0.0,0.0,-3.988099498246684e-11,2.1643309699661072e-10,-7.964351852381316e-12,0.0,0.0,0.0,0.0,0.0,0.0,0.0,0.0,0.0
1.373,37,1,373000000,base_footprint,-0.0038531016073129767,-6.893113689728158e-06,0.9999925757945384,4.377548661940793e-05,0.0,0.0,0.0,0.0,0.0,0.0,0.0,0.0,0.0,3.8716503036852685e-05,-0.00018040943129405275,9.87604449446366e-06,0.0,0.0,0.0,0.0,0.0,0.0,0.0,0.0,0.0,-4.1166306195526994e-11,2.2490127407589387e-10,-9.044385297763908e-12,0.0,0.0,0.0,0.0,0.0,0.0,0.0,0.0,0.0
1.407,38,1,407000000,base_footprint,-0.003853101606546811,-6.893712505956846e-06,0.9999925758012513,4.362184443122215e-05,0.0,0.0,0.0,0.0,0.0,0.0,0.0,0.0,0.0,3.871665524659471e-05,-0.00018040940103669815,9.876164881390584e-06,0.0,0.0,0.0,0.0,0.0,0.0,0.0,0.0,0.0,-4.221617649492835e-11,2.3181588112359373e-10,-9.242152358145755e-12,0.0,0.0,0.0,0.0,0.0,0.0,0.0,0.0,0.0
1.441,39,1,441000000,base_footprint,-0.003853101605778012,-6.8943108819400645e-06,0.9999925758079404,4.346820186381389e-05,0.0,0.0,0.0,0.0,0.0,0.0,0.0,0.0,0.0,3.871680602205782e-05,-0.00018040937056236907,9.876288469226086e-06,0.0,0.0,0.0,0.0,0.0,0.0,0.0,0.0,0.0,-4.3157928299822026e-11,2.380159060901221e-10,-1.0031004252190694e-11,0.0,0.0,0.0,0.0,0.0,0.0,0.0,0.0,0.0
1.475,40,1,475000000,base_footprint,-0.0038531016050072915,-6.8949088452647355e-06,0.9999925758146062,4.3314558922932526e-05,0.0,0.0,0.0,0.0,0.0,0.0,0.0,0.0,0.0,3.871695545597918e-05,-0.00018040934001861063,9.876416799711847e-06,0.0,0.0,0.0,0.0,0.0,0.0,0.0,0.0,0.0,-4.4550745299660666e-11,2.472122572697834e-10,-1.0413010814343742e-11,0.0,0.0,0.0,0.0,0.0,0.0,0.0,0.0,0.0
1.509,41,1,509000000,base_footprint,-0.0038531016042344136,-6.895506422400773e-06,0.9999925758212482,4.316091560802328e-05,0.0,0.0,0.0,0.0,0.0,0.0,0.0,0.0,0.0,3.871710373457632e-05,-0.0001804093094098236,9.87654742869003e-06,0.0,0.0,0.0,0.0,0.0,0.0,0.0,0.0,0.0,-4.522598843911347e-11,2.516627137856652e-10,-1.0834002928890577e-11,0.0,0.0,0.0,0.0,0.0,0.0,0.0,0.0,0.0
1.5430000000000001,42,1,543000000,base_footprint,-0.0038531016034596176,-6.8961036378426964e-06,0.9999925758278667,4.3007271916572846e-05,0.0,0.0,0.0,0.0,0.0,0.0,0.0,0.0,0.0,3.8717250783048816e-05,-0.00018040927876435866,9.87668217875374e-06,0.0,0.0,0.0,0.0,0.0,0.0,0.0,0.0,0.0,-4.6435043555800216e-11,2.596531564177593e-10,-1.1214242384997885e-11,0.0,0.0,0.0,0.0,0.0,0.0,0.0,0.0,0.0
1.577,43,1,577000000,base_footprint,-0.003853101602683099,-6.896700514523617e-06,0.9999925758344618,4.285362785245546e-05,0.0,0.0,0.0,0.0,0.0,0.0,0.0,0.0,0.0,3.871739680061802e-05,-0.0001804092478536124,9.876818523538995e-06,0.0,0.0,0.0,0.0,0.0,0.0,0.0,0.0,0.0,-4.6909707196937036e-11,2.627380159081107e-10,-1.1670440914351047e-11,0.0,0.0,0.0,0.0,0.0,0.0,0.0,0.0,0.0
1.611,44,1,611000000,base_footprint,-0.0038531016019047208,-6.8972970743523185e-06,0.9999925758410331,4.269998341568569e-05,0.0,0.0,0.0,0.0,0.0,0.0,0.0,0.0,0.0,3.871754178708785e-05,-0.00018040921699968374,9.876958755384822e-06,0.0,0.0,0.0,0.0,0.0,0.0,0.0,0.0,0.0,-4.804725265155727e-11,2.702764205025242e-10,-1.1996979926168418e-11,0.0,0.0,0.0,0.0,0.0,0.0,0.0,0.0,0.0
1.645,45,1,645000000,base_footprint,-0.0038531016011248147,-6.897893337222981e-06,0.9999925758475808,4.254633860514708e-05,0.0,0.0,0.0,0.0,0.0,0.0,0.0,0.0,0.0,3.871768570119375e-05,-0.0001804091860478929,9.87710121202773e-06,0.0,0.0,0.0,0.0,0.0,0.0,0.0,0.0,0.0,-4.870247726689986e-11,2.7458548880101923e-10,-1.223897392358024e-11,0.0,0.0,0.0,0.0,0.0,0.0,0.0,0.0,0.0
1.6800000000000002,46,1,679000000,base_footprint,-0.0038531016003432576,-6.898489321809726e-06,0.9999925758541051,4.239269341980563e-05,0.0,0.0,0.0,0.0,0.0,0.0,0.0,0.0,0.0,3.8717828886697935e-05,-0.00018040915510369657,9.877246132332815e-06,0.0,0.0,0.0,0.0,0.0,0.0,0.0,0.0,0.0,-4.942454216246053e-11,2.7936250207128515e-10,-1.2522509582918861e-11,0.0,0.0,0.0,0.0,0.0,0.0,0.0,0.0,0.0
1.711,47,1,713000000,base_footprint,-0.0038531015995605287,-6.899085046623432e-06,0.9999925758606056,4.2239047865780194e-05,0.0,0.0,0.0,0.0,0.0,0.0,0.0,0.0,0.0,3.871797109560673e-05,-0.0001804091239923223,9.877392775562866e-06,0.0,0.0,0.0,0.0,0.0,0.0,0.0,0.0,0.0,-4.993262947899759e-11,2.8269586890801207e-10,-1.3040470839716195e-11,0.0,0.0,0.0,0.0,0.0,0.0,0.0,0.0,0.0
1.7469999999999999,48,1,747000000,base_footprint,-0.0038531015987765494,-6.899680527811367e-06,0.9999925758670827,4.208540194576432e-05,0.0,0.0,0.0,0.0,0.0,0.0,0.0,0.0,0.0,3.871811263958841e-05,-0.00018040909286206718,9.87754166133451e-06,0.0,0.0,0.0,0.0,0.0,0.0,0.0,0.0,0.0,-5.0591529259762585e-11,2.870447131847653e-10,-1.3153629714613754e-11,0.0,0.0,0.0,0.0,0.0,0.0,0.0,0.0,0.0
1.7810000000000001,49,1,781000000,base_footprint,-0.0038478501733154335,-6.963294983514862e-06,0.9999925961284664,4.109508936539668e-05,0.0,0.0,0.0,0.0,0.0,0.0,0.0,0.0,0.0,3.642940201092225e-05,-0.00012042753161340804,-2.8637561624451058e-05,0.0,0.0,0.0,0.0,0.0,0.0,0.0,0.0,0.0,0.7611327716169938,-0.00013761582550880362,0.005774827687953782,0.0,0.0,0.0,0.0,0.0,0.0,0.0,0.0,0.0
1.815,50,1,815000000,base_footprint,-0.0038483639725825102,-7.007189743704898e-06,0.9999925941077763,4.21335269560582e-05,0.0,0.0,0.0,0.0,0.0,0.0,0.0,0.0,0.0,3.65525139336218e-05,-0.0001335082490687861,-7.372896731705535e-05,0.0,0.0,0.0,0.0,0.0,0.0,0.0,0.0,0.0,0.786420428535416,-0.00015385051344129255,0.006059258266220943,0.0,0.0,0.0,0.0,0.0,0.0,0.0,0.0,0.0
1.8490000000000002,51,1,849000000,base_footprint,-0.0038470608773708247,-7.1056480372157044e-06,0.9999925990150825,4.4577751075455956e-05,0.0,0.0,0.0,0.0,0.0,0.0,0.0,0.0,0.0,-3.5135816136316306e-05,-0.004165128016836118,-0.00020559229815123872,0.0,0.0,0.0,0.0,0.0,0.0,0.0,0.0,0.0,0.7876374420824285,-0.0003272237233798449,0.008956495410328238,0.0,0.0,0.0,0.0,0.0,0.0,0.0,0.0,0.0
1.881,52,1,883000000,base_footprint,-0.00384716585632671,-7.202413517052498e-06,0.9999925983939564,4.919657283080249e-05,0.0,0.0,0.0,0.0,0.0,0.0,0.0,0.0,0.0,3.60432165672096e-06,-0.0021026153448650223,-0.00040858575557875776,0.0,0.0,0.0,0.0,0.0,0.0,0.0,0.0,0.0,0.7691892348265594,-0.0004692736149078638,0.00587705937419701,0.0,0.0,0.0,0.0,0.0,0.0,0.0,0.0,0.0
1.917,53,1,917000000,base_footprint,-0.0038487604283364446,-7.2912112928064275e-06,0.9999925918366753,5.711192728762435e-05,0.0,0.0,0.0,0.0,0.0,0.0,0.0,0.0,0.0,1.411151422158491e-06,-0.0020413613375977295,-0.000669695679311472,0.0,0.0,0.0,0.0,0.0,0.0,0.0,0.0,0.0,0.7371801517873432,-0.0005911689309513195,0.005598110647951243,0.0,0.0,0.0,0.0,0.0,0.0,0.0,0.0,0.0
1.951,54,1,951000000,base_footprint,-0.0038517388919500316,-7.3808605481730255e-06,0.9999925795271504,7.031121606178879e-05,0.0,0.0,0.0,0.0,0.0,0.0,0.0,0.0,0.0,4.474917213916631e-05,-0.00021921624939375418,-0.0010214981518189615,0.0,0.0,0.0,0.0,0.0,0.0,0.0,0.0,0.0,0.6643926334253866,-0.00077580199842119,0.002937751212061584,0.0,0.0,0.0,0.0,0.0,0.0,0.0,0.0,0.0
1.985,55,1,985000000,base_footprint,-0.0038558971121000654,-7.962008597730183e-06,0.9999925619595486,8.955247573189528e-05,0.0,0.0,0.0,0.0,0.0,0.0,0.0,0.0,0.0,3.18314565972073e-05,-5.234945258606172e-05,-0.00124870757010779,0.0,0.0,0.0,0.0,0.0,0.0,0.0,0.0,0.0,0.5490559006100162,-0.000539749208821918,0.0034892201258736964,0.0,0.0,0.0,0.0,0.0,0.0,0.0,0.0,0.0
2.019,56,2,19000000,base_footprint,-0.0038578725242372678,-7.902179579645897e-06,0.9999925524978932,0.00010819376506821706,0.0,0.0,0.0,0.0,0.0,0.0,0.0,0.0,0.0,0.00015972742335792171,-5.319826170450806e-05,-0.00047180666002789374,0.0,0.0,0.0,0.0,0.0,0.0,0.0,0.0,0.0,0.38518656628473064,0.0014264737903484286,0.003040393921468588,0.0,0.0,0.0,0.0,0.0,0.0,0.0,0.0,0.0
2.053,57,2,53000000,base_footprint,-0.003859929964942632,-7.383570919638364e-06,0.9999925441718903,0.00011174425530109123,0.0,0.0,0.0,0.0,0.0,0.0,0.0,0.0,0.0,1.8548595136827246e-05,-9.721130965327202e-05,0.001277942603206871,0.0,0.0,0.0,0.0,0.0,0.0,0.0,0.0,0.0,0.18898785162694834,-0.00042932554817918443,0.001517615934382801,0.0,0.0,0.0,0.0,0.0,0.0,0.0,0.0,0.0
2.087,58,2,87000000,base_footprint,-0.0038524715532709374,-1.2758465455165996e-06,0.9999925784782275,3.807583941070228e-05,0.0,0.0,0.0,0.0,0.0,0.0,0.0,0.0,0.0,-3.4148846545748352e-06,4.817901805774664e-05,0.0033689438133742114,0.0,0.0,0.0,0.0,0.0,0.0,0.0,0.0,0.0,0.03343419599991062,0.007964744845810215,5.251274466348818e-05,0.0,0.0,0.0,0.0,0.0,0.0,0.0,0.0,0.0
2.119,59,2,121000000,base_footprint,-0.0038465062385607215,-4.863879616150513e-06,0.9999925593921087,0.00029244917416934926,0.0,0.0,0.0,0.0,0.0,0.0,0.0,0.0,0.0,0.00038002710391010395,-0.000301948997267787,-0.03446757077895452,0.0,0.0,0.0,0.0,0.0,0.0,0.0,0.0,0.0,0.09073225786814774,-0.007643711936588553,0.0006138900334242098,0.0,0.0,0.0,0.0,0.0,0.0,0.0,0.0,0.0
2.155,60,2,155000000,base_footprint,-0.0038687026911850236,-1.526930661850183e-06,0.9999917033394102,0.0012752997689989736,0.0,0.0,0.0,0.0,0.0,0.0,0.0,0.0,0.0,-0.00026718545566792676,-0.0015993871720170936,-0.06355637402440485,0.0,0.0,0.0,0.0,0.0,0.0,0.0,0.0,0.0,0.06729056671191697,-0.013950728850320424,0.0016248725156939674,0.0,0.0,0.0,0.0,0.0,0.0,0.0,0.0,0.0
2.189,61,2,189000000,base_footprint,-0.003850288526842618,5.112875768659491e-06,0.9999909686267182,0.0017994213281890884,0.0,0.0,0.0,0.0,0.0,0.0,0.0,0.0,0.0,0.0003429631925836038,0.002939290197371134,-0.07134520261160236,0.0,0.0,0.0,0.0,0.0,0.0,0.0,0.0,0.0,-0.4570860220952787,-0.0017908454291502714,-0.007669511392336208,0.0,0.0,0.0,0.0,0.0,0.0,0.0,0.0,0.0
2.223,62,2,223000000,base_footprint,-0.0038490807239772626,1.302686333075336e-05,0.9999818415301677,0.004636919000376154,0.0,0.0,0.0,0.0,0.0,0.0,0.0,0.0,0.0,0.0018575883958658157,-1.202577854107871e-06,-0.23898597584972184,0.0,0.0,0.0,0.0,0.0,0.0,0.0,0.0,0.0,0.3426699755045166,-0.035361390275565285,0.005506098614183002,0.0,0.0,0.0,0.0,0.0,0.0,0.0,0.0,0.0
2.257,63,2,257000000,base_footprint,-0.0038553226839798827,2.5776482322333716e-05,0.9999500362275975,0.00922284506006822,0.0,0.0,0.0,0.0,0.0,0.0,0.0,0.0,0.0,0.001430368510170801,-0.00024507288977169414,-0.16931479889940132,0.0,0.0,0.0,0.0,0.0,0.0,0.0,0.0,0.0,0.08330908357388118,-0.056432518540401,0.0013960273933760808,0.0,0.0,0.0,0.0,0.0,0.0,0.0,0.0,0.0
2.291,64,2,291000000,base_footprint,-0.0038475144562006482,3.324371937912438e-05,0.9999386196201864,0.01039002018480583,0.0,0.0,0.0,0.0,0.0,0.0,0.0,0.0,0.0,0.0012101484714359928,-0.0005780765966584791,-0.10828074945668953,0.0,0.0,0.0,0.0,0.0,0.0,0.0,0.0,0.0,0.20627020080311614,-0.0226249472439434,0.0017907174880566748,0.0,0.0,0.0,0.0,0.0,0.0,0.0,0.0,0.0
2.325,65,2,325000000,base_footprint,-0.0038503606578891344,4.6055878291545603e-05,0.9998965419211545,0.013859222769593053,0.0,0.0,0.0,0.0,0.0,0.0,0.0,0.0,0.0,0.0022131854864308707,-0.000137598624312809,-0.29536508394440164,0.0,0.0,0.0,0.0,0.0,0.0,0.0,0.0,0.0,0.487927323555435,-0.06663100289003322,0.003125533227994433,0.0,0.0,0.0,0.0,0.0,0.0,0.0,0.0,0.0
2.359,66,2,359000000,base_footprint,-0.003855891658338133,6.868899799186137e-05,0.9998062940906215,0.019300302539559507,0.0,0.0,0.0,0.0,0.0,0.0,0.0,0.0,0.0,0.0019332220470963937,-0.002667476923955412,-0.3190328104707733,0.0,0.0,0.0,0.0,0.0,0.0,0.0,0.0,0.0,-0.2148984141268243,-0.05398460218915579,0.0011022327340322554,0.0,0.0,0.0,0.0,0.0,0.0,0.0,0.0,0.0
2.392,67,2,393000000,base_footprint,-0.003853563505920023,8.593725231741578e-05,0.9996974283851793,0.024293915764117813,0.0,0.0,0.0,0.0,0.0,0.0,0.0,0.0,0.0,0.0021550592364783516,-0.00023581155259122443,-0.2926698479941434,0.0,0.0,0.0,0.0,0.0,0.0,0.0,0.0,0.0,-0.07448490671892055,-0.056118867367188775,-0.0033020787684842575,0.0,0.0,0.0,0.0,0.0,0.0,0.0,0.0,0.0
2.427,68,2,427000000,base_footprint,-0.0038540673284560164,0.00010459173710194205,0.999564206862707,0.029266560859177646,0.0,0.0,0.0,0.0,0.0,0.0,0.0,0.0,0.0,0.0021313518876518965,-0.00023624803514508722,-0.29262195374393024,0.0,0.0,0.0,0.0,0.0,0.0,0.0,0.0,0.0,-0.006273918847988676,-0.061494916079206846,-0.0001031379281325831,0.0,0.0,0.0,0.0,0.0,0.0,0.0,0.0,0.0
2.461,69,2,461000000,base_footprint,-0.003850271056715293,0.00012753449124619366,0.9994069028469041,0.03421990195342717,0.0,0.0,0.0,0.0,0.0,0.0,0.0,0.0,0.0,0.002343999812444048,0.0002991250385387887,-0.27338012891010693,0.0,0.0,0.0,0.0,0.0,0.0,0.0,0.0,0.0,-0.14557679738899007,-0.04206483378054019,-0.0015512109086789324,0.0,0.0,0.0,0.0,0.0,0.0,0.0,0.0,0.0
2.494,70,2,495000000,base_footprint,-0.003854323617097326,0.00013691450069386942,0.9992459151242412,0.03863581953824502,0.0,0.0,0.0,0.0,0.0,0.0,0.0,0.0,0.0,0.0024633416487438017,-0.00040809812184485373,-0.3267522821200795,0.0,0.0,0.0,0.0,0.0,0.0,0.0,0.0,0.0,-0.22935983168120946,-0.020255909964349963,-0.0008279339726908575,0.0,0.0,0.0,0.0,0.0,0.0,0.0,0.0,0.0
2.529,71,2,529000000,base_footprint,-0.0038475303175484086,0.00016670287160012952,0.9990108074535006,0.04430096287568928,0.0,0.0,0.0,0.0,0.0,0.0,0.0,0.0,0.0,0.0027788246853192155,0.0005213970721730961,-0.32739751677223133,0.0,0.0,0.0,0.0,0.0,0.0,0.0,0.0,0.0,-0.04074209699608954,-0.057825860474443026,-0.0016340208530266807,0.0,0.0,0.0,0.0,0.0,0.0,0.0,0.0,0.0
2.563,72,2,563000000,base_footprint,-0.0038460424662271685,0.0001896342722609385,0.9987555459549066,0.04972455550839322,0.0,0.0,0.0,0.0,0.0,0.0,0.0,0.0,0.0,0.002147722506837895,-0.00039714723638256097,-0.29221274671274844,0.0,0.0,0.0,0.0,0.0,0.0,0.0,0.0,0.0,0.13304328713066058,-0.09075262838011029,0.0023440141974279865,0.0,0.0,0.0,0.0,0.0,0.0,0.0,0.0,0.0
2.597,73,2,597000000,base_footprint,-0.0038456323159395235,0.00020916382615476117,0.9984869812453537,0.054853583712690064,0.0,0.0,0.0,0.0,0.0,0.0,0.0,0.0,0.0,0.002487123051176922,-0.0004298966507808005,-0.3289991301351939,0.0,0.0,0.0,0.0,0.0,0.0,0.0,0.0,0.0,0.2953324279488769,-0.1286333684207483,0.0022428261786921946,0.0,0.0,0.0,0.0,0.0,0.0,0.0,0.0,0.0
2.6310000000000002,74,2,631000000,base_footprint,-0.0038479048221388146,0.00023032128209006308,0.9981145883698692,0.06125691033535104,0.0,0.0,0.0,0.0,0.0,0.0,0.0,0.0,0.0,0.0025202139200352137,0.0011883838162169093,-0.4080119945977217,0.0,0.0,0.0,0.0,0.0,0.0,0.0,0.0,0.0,0.2774350370539925,-0.15171993494791977,-3.163897941333002e-05,0.0,0.0,0.0,0.0,0.0,0.0,0.0,0.0,0.0
2.665,75,2,665000000,base_footprint,-0.003844710447883588,0.0002532511824812455,0.9976737785823733,0.06806016158209036,0.0,0.0,0.0,0.0,0.0,0.0,0.0,0.0,0.0,0.0011443009375984856,-0.0007832628081694114,-0.3890474823200886,0.0,0.0,0.0,0.0,0.0,0.0,0.0,0.0,0.0,-0.15108736613673837,-0.05180062725268001,0.00246940586557641,0.0,0.0,0.0,0.0,0.0,0.0,0.0,0.0,0.0
2.699,76,2,699000000,base_footprint,-0.003840565502014204,0.0002775455749217467,0.9971968676648929,0.0747233574219241,0.0,0.0,0.0,0.0,0.0,0.0,0.0,0.0,0.0,0.0029401777394504527,-0.0006573005834363374,-0.3901341563839045,0.0,0.0,0.0,0.0,0.0,0.0,0.0,0.0,0.0,-0.026723600854758327,-0.08175641363151526,-0.0012585554411327822,0.0,0.0,0.0,0.0,0.0,0.0,0.0,0.0,0.0
2.733,77,2,733000000,base_footprint,-0.0038383442043067604,0.0003019894313048987,0.9967012490200164,0.08106661531167961,0.0,0.0,0.0,0.0,0.0,0.0,0.0,0.0,0.0,0.0026797855862154625,-0.0006449923464226586,-0.3531289643505402,0.0,0.0,0.0,0.0,0.0,0.0,0.0,0.0,0.0,0.04846396089780028,-0.1037291493434181,0.0004546383847318749,0.0,0.0,0.0,0.0,0.0,0.0,0.0,0.0,0.0
2.767,78,2,767000000,base_footprint,-0.0038411941590778486,0.0003256112694612446,0.9962520452278412,0.08641181391497929,0.0,0.0,0.0,0.0,0.0,0.0,0.0,0.0,0.0,0.0021134479198253323,-0.0010266493676195343,-0.2890134111753786,0.0,0.0,0.0,0.0,0.0,0.0,0.0,0.0,0.0,-0.009435219602649519,-0.07182555570636402,0.00035050277984396944,0.0,0.0,0.0,0.0,0.0,0.0,0.0,0.0,0.0
2.801,79,2,801000000,base_footprint,-0.003838776312314805,0.0003436163965298573,0.9958158017192608,0.09130188809888914,0.0,0.0,0.0,0.0,0.0,0.0,0.0,0.0,0.0,0.0022152421733348266,-0.0005505193424483446,-0.2890206006260655,0.0,0.0,0.0,0.0,0.0,0.0,0.0,0.0,0.0,-0.02153746239166041,-0.060508361749676914,-0.0006334938859619037,0.0,0.0,0.0,0.0,0.0,0.0,0.0,0.0,0.0
2.8360000000000003,80,2,835000000,base_footprint,-0.003837621821362275,0.0003619948240159588,0.9953554073401293,0.09619124023147323,0.0,0.0,0.0,0.0,0.0,0.0,0.0,0.0,0.0,0.002121286166242981,-0.0004901315526235317,-0.2891261193689586,0.0,0.0,0.0,0.0,0.0,0.0,0.0,0.0,0.0,-0.02276956020205173,-0.06019126731048622,-0.00027815552593099166,0.0,0.0,0.0,0.0,0.0,0.0,0.0,0.0,0.0
2.869,81,2,869000000,base_footprint,-0.0038364879145612375,0.0003772447370441637,0.9949484275875619,0.1003133365407014,0.0,0.0,0.0,0.0,0.0,0.0,0.0,0.0,0.0,0.0013175807062428065,-0.0007954462713185919,-0.2001000938607971,0.0,0.0,0.0,0.0,0.0,0.0,0.0,0.0,0.0,-0.04249373654522214,-0.041994027901648114,0.0004014396942891913,0.0,0.0,0.0,0.0,0.0,0.0,0.0,0.0,0.0
2.903,82,2,903000000,base_footprint,-0.003835877159601159,0.0003904836829701647,0.9946027175457399,0.10368494499945004,0.0,0.0,0.0,0.0,0.0,0.0,0.0,0.0,0.0,0.00135399139828983,-0.0003435681543670552,-0.19916567526846693,0.0,0.0,0.0,0.0,0.0,0.0,0.0,0.0,0.0,-0.018818049735100848,-0.03951503920039323,-0.0007452337352057909,0.0,0.0,0.0,0.0,0.0,0.0,0.0,0.0,0.0
2.9370000000000003,83,2,937000000,base_footprint,-0.003835304331112067,0.0004036244299887056,0.9942475856645783,0.10703675036250163,0.0,0.0,0.0,0.0,0.0,0.0,0.0,0.0,0.0,0.0013238782690088236,-0.00034702253337771005,-0.19677356947890018,0.0,0.0,0.0,0.0,0.0,0.0,0.0,0.0,0.0,-0.02324287148103267,-0.03762609701140718,-0.00010719443832920552,0.0,0.0,0.0,0.0,0.0,0.0,0.0,0.0,0.0
2.971,84,2,971000000,base_footprint,-0.0038364706571040923,0.0004132751613684004,0.9939515094696226,0.10975202740540652,0.0,0.0,0.0,0.0,0.0,0.0,0.0,0.0,0.0,0.0010731993545501728,-0.0004918609781567048,-0.122997756342294,0.0,0.0,0.0,0.0,0.0,0.0,0.0,0.0,0.0,-0.03413655948580441,-0.02463109746581007,0.0005652326214539723,0.0,0.0,0.0,0.0,0.0,0.0,0.0,0.0,0.0
3.005,85,3,5000000,base_footprint,-0.003831660824429779,0.00042342220591486357,0.9937192113555242,0.11183589795730677,0.0,0.0,0.0,0.0,0.0,0.0,0.0,0.0,0.0,0.0008248374031320391,-0.0007011132317365884,-0.12367928025466884,0.0,0.0,0.0,0.0,0.0,0.0,0.0,0.0,0.0,-0.010058478462723145,-0.025624975756578527,-9.024894382265914e-05,0.0,0.0,0.0,0.0,0.0,0.0,0.0,0.0,0.0
3.039,86,3,39000000,base_footprint,-0.0038308686287755597,0.0004321310067384387,0.9934804092824567,0.11393776406575792,0.0,0.0,0.0,0.0,0.0,0.0,0.0,0.0,0.0,0.0009174365258042289,-0.0003312456733532388,-0.12419402565249414,0.0,0.0,0.0,0.0,0.0,0.0,0.0,0.0,0.0,-0.010037887373890114,-0.025675977760201973,-0.0006861247147101005,0.0,0.0,0.0,0.0,0.0,0.0,0.0,0.0,0.0
3.074,87,3,73000000,base_footprint,-0.0038278361059016107,0.0004427678230878911,0.9930799353874323,0.11737714240129765,0.0,0.0,0.0,0.0,0.0,0.0,0.0,0.0,0.0,0.0021970802191139316,-0.00035385082514575615,-0.2958443604826762,0.0,0.0,0.0,0.0,0.0,0.0,0.0,0.0,0.0,-0.15900745601312122,0.03321053408853115,-0.0013598326124317649,0.0,0.0,0.0,0.0,0.0,0.0,0.0,0.0,0.0
3.107,88,3,107000000,base_footprint,-0.003826903538185825,0.0004626828193553003,0.9925898235261226,0.12145197802546916,0.0,0.0,0.0,0.0,0.0,0.0,0.0,0.0,0.0,0.0012581828597147983,0.0006174361752247392,-0.17881493469741916,0.0,0.0,0.0,0.0,0.0,0.0,0.0,0.0,0.0,-0.27858025717259205,0.08653570607122052,-0.002883443670911371,0.0,0.0,0.0,0.0,0.0,0.0,0.0,0.0,0.0
3.141,89,3,141000000,base_footprint,-0.0038268667672886727,0.00047425590665615947,0.992248063650075,0.12421316498164507,0.0,0.0,0.0,0.0,0.0,0.0,0.0,0.0,0.0,0.0010243897455011032,-0.0004758399675676369,-0.14478167675481543,0.0,0.0,0.0,0.0,0.0,0.0,0.0,0.0,0.0,0.04505618236510009,-0.06365341531913282,0.001618444981629478,0.0,0.0,0.0,0.0,0.0,0.0,0.0,0.0,0.0
3.175,90,3,175000000,base_footprint,-0.0038266279921804047,0.0004860593922376417,0.9918701089956089,0.12719594154498698,0.0,0.0,0.0,0.0,0.0,0.0,0.0,0.0,0.0,0.0014599304316971354,-0.0004770555137588794,-0.1955654666071837,0.0,0.0,0.0,0.0,0.0,0.0,0.0,0.0,0.0,0.06269826487234738,-0.07596942693469916,0.00044963948438006736,0.0,0.0,0.0,0.0,0.0,0.0,0.0,0.0,0.0
3.209,91,3,209000000,base_footprint,-0.0038191370490660167,0.0004932184038893324,0.9914194837048992,0.13066207658734685,0.0,0.0,0.0,0.0,0.0,0.0,0.0,0.0,0.0,0.0014121743929587623,-0.000667605193108739,-0.2085243210066708,0.0,0.0,0.0,0.0,0.0,0.0,0.0,0.0,0.0,-0.043934338341380275,-0.024652658782443822,-6.711028490212731e-05,0.0,0.0,0.0,0.0,0.0,0.0,0.0,0.0,0.0
3.244,92,3,243000000,base_footprint,-0.0038173237207408013,0.0005054742209304235,0.9909769965545893,0.13397673243913902,0.0,0.0,0.0,0.0,0.0,0.0,0.0,0.0,0.0,0.0012500529341618349,-0.000536895900059635,-0.1788248403329209,0.0,0.0,0.0,0.0,0.0,0.0,0.0,0.0,0.0,0.032994808130943895,-0.06836116662138196,0.00017589641891468643,0.0,0.0,0.0,0.0,0.0,0.0,0.0,0.0,0.0
3.279,93,3,277000000,base_footprint,-0.0038231893584658185,0.0005214761071484648,0.9906271147378841,0.1365394845159969,0.0,0.0,0.0,0.0,0.0,0.0,0.0,0.0,0.0,0.0009684851569160244,0.00031563624037764005,-0.15838557743170406,0.0,0.0,0.0,0.0,0.0,0.0,0.0,0.0,0.0,-0.44979305949328086,0.23587198744882482,-0.0049864306429853456,0.0,0.0,0.0,0.0,0.0,0.0,0.0,0.0,0.0
3.311,94,3,311000000,base_footprint,-0.0038153994693350523,0.0005263565364735285,0.9902128135279004,0.13951254280832898,0.0,0.0,0.0,0.0,0.0,0.0,0.0,0.0,0.0,0.000853598037131827,-0.00041537693413489624,-0.1390061007558198,0.0,0.0,0.0,0.0,0.0,0.0,0.0,0.0,0.0,0.18232688001430802,-0.15528092438682284,0.002669053361871886,0.0,0.0,0.0,0.0,0.0,0.0,0.0,0.0,0.0
3.345,95,3,345000000,base_footprint,-0.003817806436871247,0.0005340911086468593,0.9900102952763201,0.14094237953004762,0.0,0.0,0.0,0.0,0.0,0.0,0.0,0.0,0.0,0.00018776352261981705,-0.0002600285248008253,-0.062118391544398355,0.0,0.0,0.0,0.0,0.0,0.0,0.0,0.0,0.0,0.12525930813197078,-0.10070558271403361,0.001047876348161687,0.0,0.0,0.0,0.0,0.0,0.0,0.0,0.0,0.0
3.379,96,3,379000000,base_footprint,-0.003818139667386391,0.0005385720070471228,0.9898427301502859,0.14211439518325364,0.0,0.0,0.0,0.0,0.0,0.0,0.0,0.0,0.0,0.00036166613103969604,-0.00010781748138349574,-0.06983020806831532,0.0,0.0,0.0,0.0,0.0,0.0,0.0,0.0,0.0,-0.007326742474668351,-0.012191544919075216,-0.00021689945081338654,0.0,0.0,0.0,0.0,0.0,0.0,0.0,0.0,0.0
3.4130000000000003,97,3,413000000,base_footprint,-0.003817948705826895,0.0005433122634124823,0.9896765139186314,0.14326732313172208,0.0,0.0,0.0,0.0,0.0,0.0,0.0,0.0,0.0,0.0003280237034723836,-0.00029188479011480004,-0.06532546603818482,0.0,0.0,0.0,0.0,0.0,0.0,0.0,0.0,0.0,-0.017514024603082386,-0.006758254220036035,0.000278591709111238,0.0,0.0,0.0,0.0,0.0,0.0,0.0,0.0,0.0
3.447,98,3,447000000,base_footprint,-0.0038159887480584244,0.0005483251135318143,0.989517021490556,0.14436482171880854,0.0,0.0,0.0,0.0,0.0,0.0,0.0,0.0,0.0,0.00032583991660646604,0.0006063476349393919,-0.06955284840077493,0.0,0.0,0.0,0.0,0.0,0.0,0.0,0.0,0.0,0.002345716895499793,-0.017830894017870236,-0.0012995508276289276,0.0,0.0,0.0,0.0,0.0,0.0,0.0,0.0,0.0
3.482,99,3,481000000,base_footprint,-0.003813806280383176,0.0005588111309874028,0.9891273133217768,0.14701122628091776,0.0,0.0,0.0,0.0,0.0,0.0,0.0,0.0,0.0,0.0011641475605336778,-0.00040121467530993536,-0.17293626078151222,0.0,0.0,0.0,0.0,0.0,0.0,0.0,0.0,0.0,-0.09566026857281898,0.026215386235113894,0.0004297999622160805,0.0,0.0,0.0,0.0,0.0,0.0,0.0,0.0,0.0
3.515,100,3,515000000,base_footprint,-0.0038117320099158173,0.0005672147321225693,0.9888179292466964,0.1490780056440505,0.0,0.0,0.0,0.0,0.0,0.0,0.0,0.0,0.0,0.00010309662068769222,0.0002402855229027617,-0.06877327254726154,0.0,0.0,0.0,0.0,0.0,0.0,0.0,0.0,0.0,0.344129784451559,-0.26698668332675357,0.003428227265961988,0.0,0.0,0.0,0.0,0.0,0.0,0.0,0.0,0.0
3.549,101,3,549000000,base_footprint,-0.003810929981688612,0.0005723892610326104,0.9886412268869631,0.1502453782405603,0.0,0.0,0.0,0.0,0.0,0.0,0.0,0.0,0.0,-0.00014029928620011488,-0.0016435867286567047,-0.0818761314544196,0.0,0.0,0.0,0.0,0.0,0.0,0.0,0.0,0.0,-0.006412849408083798,-0.013861147020560167,0.006120022560592948,0.0,0.0,0.0,0.0,0.0,0.0,0.0,0.0,0.0
3.585,102,3,583000000,base_footprint,-0.0038106412968338353,0.0005804633852339303,0.9883486123522006,0.15215834691742955,0.0,0.0,0.0,0.0,0.0,0.0,0.0,0.0,0.0,0.0008615752272041465,-0.00044132890565636246,-0.1144938245083549,0.0,0.0,0.0,0.0,0.0,0.0,0.0,0.0,0.0,-0.005729917868823731,-0.02597065034374197,-0.006323421819988478,0.0,0.0,0.0,0.0,0.0,0.0,0.0,0.0,0.0
3.618,103,3,617000000,base_footprint,-0.003809836766950197,0.0005884892312847189,0.9880494385848121,0.15408908376803232,0.0,0.0,0.0,0.0,0.0,0.0,0.0,0.0,0.0,0.0009171694889997849,-0.00046311040033228086,-0.11500031769154193,0.0,0.0,0.0,0.0,0.0,0.0,0.0,0.0,0.0,-0.014344863581033273,-0.02091671792695735,-7.189998343697631e-05,0.0,0.0,0.0,0.0,0.0,0.0,0.0,0.0,0.0
3.651,104,3,651000000,base_footprint,-0.0038104827918919297,0.0005927633520798208,0.9877478165957215,0.15601083187678413,0.0,0.0,0.0,0.0,0.0,0.0,0.0,0.0,0.0,-0.0016278422172070661,3.0075798888161908e-05,-0.09620538226941548,0.0,0.0,0.0,0.0,0.0,0.0,0.0,0.0,0.0,-0.05947745493343052,0.012558641470208175,0.0006274957100036618,0.0,0.0,0.0,0.0,0.0,0.0,0.0,0.0,0.0
3.6870000000000003,105,3,685000000,base_footprint,-0.003806832472020232,0.0005972342348860918,0.9875958022589921,0.15697032425976684,0.0,0.0,0.0,0.0,0.0,0.0,0.0,0.0,0.0,0.0015031743102949175,-0.000129598829792674,-0.06850176279354867,0.0,0.0,0.0,0.0,0.0,0.0,0.0,0.0,0.0,-0.1992309686259783,0.12820741432761606,-0.004099973682000543,0.0,0.0,0.0,0.0,0.0,0.0,0.0,0.0,0.0
3.7190000000000003,106,3,719000000,base_footprint,-0.003803975006044482,0.0006010413223094254,0.9873578517499679,0.15846021933334162,0.0,0.0,0.0,0.0,0.0,0.0,0.0,0.0,0.0,0.0004981720723309812,-0.0006669195170695069,-0.10394693515465664,0.0,0.0,0.0,0.0,0.0,0.0,0.0,0.0,0.0,-0.0693619402951241,0.029281655212517233,0.0006571995820239451,0.0,0.0,0.0,0.0,0.0,0.0,0.0,0.0,0.0
3.753,107,3,753000000,base_footprint,-0.0038025652378667805,0.0006051043439467426,0.9870897059503309,0.16012209951544581,0.0,0.0,0.0,0.0,0.0,0.0,0.0,0.0,0.0,-4.4097835603704226e-05,-0.0007030170908060321,-0.11701221293446983,0.0,0.0,0.0,0.0,0.0,0.0,0.0,0.0,0.0,0.05548635491851326,-0.06716307385364939,0.0016474414004869153,0.0,0.0,0.0,0.0,0.0,0.0,0.0,0.0,0.0
3.786,108,3,787000000,base_footprint,-0.0038024640225924585,0.0006141237484356377,0.9867424765518358,0.16224810965841327,0.0,0.0,0.0,0.0,0.0,0.0,0.0,0.0,0.0,0.0005253892067548953,-0.00026575987388014963,-0.09384067616551554,0.0,0.0,0.0,0.0,0.0,0.0,0.0,0.0,0.0,0.16586389211583474,-0.16130826151593514,0.00043049942150948176,0.0,0.0,0.0,0.0,0.0,0.0,0.0,0.0,0.0
3.821,109,3,821000000,base_footprint,-0.0038051791061415497,0.0006215249855837266,0.9865319926437213,0.16352297027962573,0.0,0.0,0.0,0.0,0.0,0.0,0.0,0.0,0.0,0.00041799239870758274,-0.0002350977657661372,-0.07431505931965338,0.0,0.0,0.0,0.0,0.0,0.0,0.0,0.0,0.0,0.021467758767110413,-0.03781794877410044,0.0001141731549435102,0.0,0.0,0.0,0.0,0.0,0.0,0.0,0.0,0.0
3.855,110,3,855000000,base_footprint,-0.0038031336002096894,0.000632825305369938,0.9863105433772291,0.16485341285477514,0.0,0.0,0.0,0.0,0.0,0.0,0.0,0.0,0.0,-0.0009976687466089105,-0.00192924752115095,-0.12213869676960422,0.0,0.0,0.0,0.0,0.0,0.0,0.0,0.0,0.0,-0.08821494711699249,0.04953173392192571,0.0025271589593420245,0.0,0.0,0.0,0.0,0.0,0.0,0.0,0.0,0.0
3.8890000000000002,111,3,889000000,base_footprint,-0.0038013560231357725,0.0006390979582936263,0.9856472586033659,0.16877388084017803,0.0,0.0,0.0,0.0,0.0,0.0,0.0,0.0,0.0,0.002451705933511186,0.00017959013945340453,-0.24210269101903048,0.0,0.0,0.0,0.0,0.0,0.0,0.0,0.0,0.0,-0.2372063255739495,0.12398220135043392,-0.006168136814971392,0.0,0.0,0.0,0.0,0.0,0.0,0.0,0.0,0.0
3.924,112,3,923000000,base_footprint,-0.003803547098459445,0.0006486518412633637,0.9852885146033129,0.17085565624542853,0.0,0.0,0.0,0.0,0.0,0.0,0.0,0.0,0.0,0.0004327556478689479,-0.00022019956392743158,-0.0568494380538562,0.0,0.0,0.0,0.0,0.0,0.0,0.0,0.0,0.0,0.001299449465847008,-0.03591201405397925,0.0013177555699546695,0.0,0.0,0.0,0.0,0.0,0.0,0.0,0.0,0.0
3.957,113,3,957000000,base_footprint,-0.0037904531801599673,0.0006554006796682611,0.9851494773254237,0.17165578999871445,0.0,0.0,0.0,0.0,0.0,0.0,0.0,0.0,0.0,0.001236932319260634,0.0009827825567451708,-0.025059607948629336,0.0,0.0,0.0,0.0,0.0,0.0,0.0,0.0,0.0,0.08700458378746628,-0.0850955982006925,-0.0007641421654593645,0.0,0.0,0.0,0.0,0.0,0.0,0.0,0.0,0.0
3.991,114,3,991000000,base_footprint,-0.003797716292928436,0.0006549887794780352,0.9851134035445621,0.17186253372246668,0.0,0.0,0.0,0.0,0.0,0.0,0.0,0.0,0.0,9.565317493310854e-05,3.4911590342401406e-05,-0.014824434916643085,0.0,0.0,0.0,0.0,0.0,0.0,0.0,0.0,0.0,0.1519336186914816,-0.12932250091040248,0.00278436942063511,0.0,0.0,0.0,0.0,0.0,0.0,0.0,0.0,0.0
4.025,115,4,25000000,base_footprint,-0.0037977561831945756,0.0006563474567367588,0.9850692094404894,0.17211565550024388,0.0,0.0,0.0,0.0,0.0,0.0,0.0,0.0,0.0,2.3249578663616624e-05,-0.0001462237602577461,-0.015005346637905585,0.0,0.0,0.0,0.0,0.0,0.0,0.0,0.0,0.0,-0.0008459419529447262,-0.0035709386248068357,0.0001514488084494453,0.0,0.0,0.0,0.0,0.0,0.0,0.0,0.0,0.0
4.059,116,4,59000000,base_footprint,-0.00379801179321288,0.0006593274941578245,0.9849695815072198,0.1726848687614712,0.0,0.0,0.0,0.0,0.0,0.0,0.0,0.0,0.0,0.0020494193603946315,0.0017406962325041812,-0.08825761717005144,0.0,0.0,0.0,0.0,0.0,0.0,0.0,0.0,0.0,0.011717456936620399,-0.018256876053714937,-0.0028968200395948613,0.0,0.0,0.0,0.0,0.0,0.0,0.0,0.0,0.0
4.093,117,4,93000000,base_footprint,-0.003796782065966111,0.0006654432796049468,0.9847102645194167,0.17415750509606442,0.0,0.0,0.0,0.0,0.0,0.0,0.0,0.0,0.0,0.0006627765047680238,-0.00044422335753615134,-0.08798637748023469,0.0,0.0,0.0,0.0,0.0,0.0,0.0,0.0,0.0,-0.012225436433102862,-0.0152236101443591,0.003009307116576987,0.0,0.0,0.0,0.0,0.0,0.0,0.0,0.0,0.0
4.127,118,4,127000000,base_footprint,-0.0037963671397520243,0.0006717062622320372,0.9844473673022397,0.175637460181269,0.0,0.0,0.0,0.0,0.0,0.0,0.0,0.0,0.0,0.000717569035242167,-0.0004357705938751558,-0.08862355126296645,0.0,0.0,0.0,0.0,0.0,0.0,0.0,0.0,0.0,-0.012527836860123827,-0.014923344009579871,-0.00015209147512143658,0.0,0.0,0.0,0.0,0.0,0.0,0.0,0.0,0.0
4.161,119,4,161000000,base_footprint,-0.003795613193593072,0.0006769870525589798,0.9842410076000576,0.1767901975999762,0.0,0.0,0.0,0.0,0.0,0.0,0.0,0.0,0.0,-0.0006908260230985704,-0.0008020902199006746,-0.0148745811478445,0.0,0.0,0.0,0.0,0.0,0.0,0.0,0.0,0.0,-0.09648233292263797,0.06253974265657138,0.0005457002700913629,0.0,0.0,0.0,0.0,0.0,0.0,0.0,0.0,0.0
4.196,120,4,195000000,base_footprint,-0.003792409832000538,0.0006726840672645439,0.9841690814073578,0.17719024895746774,0.0,0.0,0.0,0.0,0.0,0.0,0.0,0.0,0.0,9.540089835449396e-05,-6.682735281530027e-06,-0.033196184189857675,0.0,0.0,0.0,0.0,0.0,0.0,0.0,0.0,0.0,-0.03169974233857904,0.02069884535283792,-0.0018082329193468822,0.0,0.0,0.0,0.0,0.0,0.0,0.0,0.0,0.0
4.226,121,4,229000000,base_footprint,-0.003791908788440379,0.0006736175688687747,0.9840833102093902,0.17766599628077417,0.0,0.0,0.0,0.0,0.0,0.0,0.0,0.0,0.0,-3.588268031084856e-05,-0.00010448378302838051,-0.01691484945746938,0.0,0.0,0.0,0.0,0.0,0.0,0.0,0.0,0.0,0.022308525279661345,-0.027992501977761566,0.00032884467260114406,0.0,0.0,0.0,0.0,0.0,0.0,0.0,0.0,0.0
4.263,122,4,263000000,base_footprint,-0.0037906557749050876,0.0006772471870601348,0.9840221686078507,0.1780043368947691,0.0,0.0,0.0,0.0,0.0,0.0,0.0,0.0,0.0,0.001968173661454693,0.0008302805882937051,-0.05229978956489752,0.0,0.0,0.0,0.0,0.0,0.0,0.0,0.0,0.0,0.08029759004621861,-0.0748259916518097,-0.001490831871619037,0.0,0.0,0.0,0.0,0.0,0.0,0.0,0.0,0.0
4.297,123,4,297000000,base_footprint,-0.003795123864360847,0.0006805469549804558,0.9838657169353693,0.17886694756144278,0.0,0.0,0.0,0.0,0.0,0.0,0.0,0.0,0.0,0.0003011536677937083,-0.00014208157874312082,-0.05174776755697004,0.0,0.0,0.0,0.0,0.0,0.0,0.0,0.0,0.0,-0.010951362732697959,-0.005800726838864874,0.0019576309747016017,0.0,0.0,0.0,0.0,0.0,0.0,0.0,0.0,0.0
4.331,124,4,331000000,base_footprint,-0.0037952652752532862,0.0006837633699344889,0.9837102860057201,0.17971978643346187,0.0,0.0,0.0,0.0,0.0,0.0,0.0,0.0,0.0,0.0002609129594685197,-7.10233109532304e-05,-0.05013984883262421,0.0,0.0,0.0,0.0,0.0,0.0,0.0,0.0,0.0,-0.009539074433757056,-0.005872269008856779,-0.00011642958028954364,0.0,0.0,0.0,0.0,0.0,0.0,0.0,0.0,0.0
4.366,125,4,365000000,base_footprint,-0.0037910596045838524,0.0006886904291160291,0.9835701392062302,0.18048527594904964,0.0,0.0,0.0,0.0,0.0,0.0,0.0,0.0,0.0,3.768115407277935e-05,-0.0007779451403211916,-0.04318744437354858,0.0,0.0,0.0,0.0,0.0,0.0,0.0,0.0,0.0,-0.020402004873588862,0.0036642239504341353,0.00111611350813971,0.0,0.0,0.0,0.0,0.0,0.0,0.0,0.0,0.0
4.399,126,4,399000000,base_footprint,-0.0038005447793795317,0.0006923143977238677,0.9833250513749308,0.18181562061232415,0.0,0.0,0.0,0.0,0.0,0.0,0.0,0.0,0.0,0.0014385235925686482,2.4233450489051793e-06,-0.156297270167844,0.0,0.0,0.0,0.0,0.0,0.0,0.0,0.0,0.0,-0.24773319132527907,0.19934714876429452,-0.003970211201428512,0.0,0.0,0.0,0.0,0.0,0.0,0.0,0.0,0.0
4.432,127,4,433000000,base_footprint,-0.0037886757717112336,0.0006996244136588312,0.9829617992820723,0.183769577497821,0.0,0.0,0.0,0.0,0.0,0.0,0.0,0.0,0.0,0.00011674771285026036,0.00014324954213621593,-0.040379493497369745,0.0,0.0,0.0,0.0,0.0,0.0,0.0,0.0,0.0,0.010274024327064339,-0.04349073502268033,0.0004073584338312824,0.0,0.0,0.0,0.0,0.0,0.0,0.0,0.0,0.0
4.467,128,4,467000000,base_footprint,-0.0037901488025665446,0.0006981716019145229,0.98306751166241,0.1832032064193915,0.0,0.0,0.0,0.0,0.0,0.0,0.0,0.0,0.0,-0.0010180150533022816,-0.0007352848530380158,0.0621883226295586,0.0,0.0,0.0,0.0,0.0,0.0,0.0,0.0,0.0,0.20347314493690233,-0.17631718893678866,0.0037712703678877643,0.0,0.0,0.0,0.0,0.0,0.0,0.0,0.0,0.0
4.501,129,4,501000000,base_footprint,-0.0037907056785506828,0.0006948960440883912,0.9832588404352355,0.18217354466525257,0.0,0.0,0.0,0.0,0.0,0.0,0.0,0.0,0.0,-0.0004889515649903081,2.7403870702878214e-05,0.061737606452151816,0.0,0.0,0.0,0.0,0.0,0.0,0.0,0.0,0.0,0.010620019747869447,0.00862886145099508,-0.0012226610262470977,0.0,0.0,0.0,0.0,0.0,0.0,0.0,0.0,0.0
4.535,130,4,535000000,base_footprint,-0.0037914553518958306,0.0006915461878812582,0.9834489243009213,0.18114458292078603,0.0,0.0,0.0,0.0,0.0,0.0,0.0,0.0,0.0,-0.000437056749565068,-1.3814600638519214e-05,0.06169070103994244,0.0,0.0,0.0,0.0,0.0,0.0,0.0,0.0,0.0,0.009949838631937203,0.009257576781637728,9.859980674636262e-05,0.0,0.0,0.0,0.0,0.0,0.0,0.0,0.0,0.0
4.568,131,4,569000000,base_footprint,-0.0037918491237324617,0.000685439056056349,0.9836146531998387,0.18024252013352599,0.0,0.0,0.0,0.0,0.0,0.0,0.0,0.0,0.0,-0.0005015724027344778,-0.0005718524833898303,0.01032996967009664,0.0,0.0,0.0,0.0,0.0,0.0,0.0,0.0,0.0,-0.19052949950642117,0.1854755622526572,-0.0010381240822100988,0.0,0.0,0.0,0.0,0.0,0.0,0.0,0.0,0.0
4.603,132,4,603000000,base_footprint,-0.0037929779595237477,0.0006901416348689893,0.9835726023897847,0.18047180624936654,0.0,0.0,0.0,0.0,0.0,0.0,0.0,0.0,0.0,0.0001546351056689104,-0.00027619609189451677,-0.015771523220528206,0.0,0.0,0.0,0.0,0.0,0.0,0.0,0.0,0.0,-0.04195727336731176,0.03367087427787433,-0.0012945549588908925,0.0,0.0,0.0,0.0,0.0,0.0,0.0,0.0,0.0
4.6370000000000005,133,4,637000000,base_footprint,-0.003793963571346712,0.0006921850206340368,0.9835219241478395,0.18074775639229457,0.0,0.0,0.0,0.0,0.0,0.0,0.0,0.0,0.0,0.00030412796247668853,-0.0002313370185285341,-0.01757663060241177,0.0,0.0,0.0,0.0,0.0,0.0,0.0,0.0,0.0,-0.004176760543311459,-0.0009337375443548308,-0.000249720730939947,0.0,0.0,0.0,0.0,0.0,0.0,0.0,0.0,0.0
4.672,134,4,671000000,base_footprint,-0.003789178864173151,0.0006901476294224144,0.9833468062491861,0.18169816856344648,0.0,0.0,0.0,0.0,0.0,0.0,0.0,0.0,0.0,0.0010167933528518593,0.00031780462019983656,-0.08956189857803692,0.0,0.0,0.0,0.0,0.0,0.0,0.0,0.0,0.0,0.035538626691388374,-0.04613764065857045,-0.00030351122522523035,0.0,0.0,0.0,0.0,0.0,0.0,0.0,0.0,0.0
4.705,135,4,705000000,base_footprint,-0.003788128237175772,0.0006948353593284706,0.9830758354092886,0.18315859008687455,0.0,0.0,0.0,0.0,0.0,0.0,0.0,0.0,0.0,0.00040143968441600615,-0.0002708823696310821,-0.07841073378987044,0.0,0.0,0.0,0.0,0.0,0.0,0.0,0.0,0.0,0.005780251957030347,-0.030434038323235484,0.0009985721083071147,0.0,0.0,0.0,0.0,0.0,0.0,0.0,0.0,0.0
4.741,136,4,739000000,base_footprint,-0.0037879334858039104,0.0006977152465185862,0.9829083349374557,0.1840553445673896,0.0,0.0,0.0,0.0,0.0,0.0,0.0,0.0,0.0,3.419821101632239e-05,-0.00011191976836160604,-0.023566725382695247,0.0,0.0,0.0,0.0,0.0,0.0,0.0,0.0,0.0,0.07618084145109535,-0.0860224070401397,0.0006569826286180621,0.0,0.0,0.0,0.0,0.0,0.0,0.0,0.0,0.0
4.774,137,4,773000000,base_footprint,-0.0037872526061473503,0.000702024048418718,0.983019905736842,0.18345852066628876,0.0,0.0,0.0,0.0,0.0,0.0,0.0,0.0,0.0,-0.0005301777895710152,8.583293883797711e-05,0.08699921201054554,0.0,0.0,0.0,0.0,0.0,0.0,0.0,0.0,0.0,-0.08588996508126509,0.08711199399937611,-0.0007049055088210654,0.0,0.0,0.0,0.0,0.0,0.0,0.0,0.0,0.0
4.807,138,4,807000000,base_footprint,-0.0037945561349114203,0.0006896925391909507,0.9833911007325825,0.18145817332900807,0.0,0.0,0.0,0.0,0.0,0.0,0.0,0.0,0.0,-0.0011324842357330264,0.0005213213802572098,0.13285443035214797,0.0,0.0,0.0,0.0,0.0,0.0,0.0,0.0,0.0,-0.07280556741119766,0.09850561399542151,-0.0013656611071648215,0.0,0.0,0.0,0.0,0.0,0.0,0.0,0.0,0.0
4.839,139,4,841000000,base_footprint,-0.0037967004152624014,0.0006814501809672937,0.9837929639067968,0.17926663063461581,0.0,0.0,0.0,0.0,0.0,0.0,0.0,0.0,0.0,-0.0011093439004441362,0.00032501905874860853,0.13373610450714848,0.0,0.0,0.0,0.0,0.0,0.0,0.0,0.0,0.0,0.016785628572446174,0.020488239668401995,0.0005878438057811553,0.0,0.0,0.0,0.0,0.0,0.0,0.0,0.0,0.0
4.875,140,4,875000000,base_footprint,-0.003789337946944901,0.0006752156630790211,0.984311176761197,0.1763992412248987,0.0,0.0,0.0,0.0,0.0,0.0,0.0,0.0,0.0,-0.0012699178348942112,0.0005491611654655184,0.1797638449662742,0.0,0.0,0.0,0.0,0.0,0.0,0.0,0.0,0.0,0.11481701523501037,-0.05155352076894176,0.0008735382020528548,0.0,0.0,0.0,0.0,0.0,0.0,0.0,0.0,0.0
4.909,141,4,909000000,base_footprint,-0.0037905522915132905,0.0006653875821846546,0.9847646703590585,0.17384974255173932,0.0,0.0,0.0,0.0,0.0,0.0,0.0,0.0,0.0,-0.0010180627355786238,0.00021013800452972296,0.11976866206626155,0.0,0.0,0.0,0.0,0.0,0.0,0.0,0.0,0.0,0.14156429302150017,-0.0764340352124827,0.0014710899388361927,0.0,0.0,0.0,0.0,0.0,0.0,0.0,0.0,0.0
4.9350000000000005,142,4,943000000,base_footprint,-0.0037976962561738587,0.0006570386010481887,0.9850419971388162,0.17227132575154488,0.0,0.0,0.0,0.0,0.0,0.0,0.0,0.0,0.0,-0.000698269523086616,0.00032971984603921863,0.08936024039018688,0.0,0.0,0.0,0.0,0.0,0.0,0.0,0.0,0.0,0.07514717460211154,-0.03575321816371244,0.00035619360793975267,0.0,0.0,0.0,0.0,0.0,0.0,0.0,0.0,0.0
4.982,143,4,977000000,base_footprint,-0.003798147155776764,0.0006546476476172949,0.9851726916037309,0.17152234033180902,0.0,0.0,0.0,0.0,0.0,0.0,0.0,0.0,0.0,-0.00033257149723470636,0.00011812983707299295,0.033735404103684384,0.0,0.0,0.0,0.0,0.0,0.0,0.0,0.0,0.0,0.018873417239908544,-0.0021101262606797767,0.00021432727144263976,0.0,0.0,0.0,0.0,0.0,0.0,0.0,0.0,0.0
5.011,144,5,11000000,base_footprint,-0.003798470771766654,0.0006530305013262141,0.9852702953171797,0.17096078596145375,0.0,0.0,0.0,0.0,0.0,0.0,0.0,0.0,0.0,-0.00027026948856087503,-1.5427856602178295e-05,0.03365136060044122,0.0,0.0,0.0,0.0,0.0,0.0,0.0,0.0,0.0,0.005504753570610336,0.00507413788159006,2.620254990792386e-05,0.0,0.0,0.0,0.0,0.0,0.0,0.0,0.0,0.0
5.044,145,5,45000000,base_footprint,-0.003799134726274784,0.0006514719237652527,0.9853670305787167,0.1704023392097261,0.0,0.0,0.0,0.0,0.0,0.0,0.0,0.0,0.0,-0.00024206431778150224,-4.761758467552846e-05,0.033342339881944766,0.0,0.0,0.0,0.0,0.0,0.0,0.0,0.0,0.0,0.005215185188941086,0.005224121722472826,4.2601685582529747e-05,0.0,0.0,0.0,0.0,0.0,0.0,0.0,0.0,0.0
5.086,146,5,79000000,base_footprint,-0.0038010359546220554,0.0006481710104517665,0.9855670599369704,0.1692415503569066,0.0,0.0,0.0,0.0,0.0,0.0,0.0,0.0,0.0,0.0005690427365274589,0.00011092473220343169,0.0650639027378556,0.0,0.0,0.0,0.0,0.0,0.0,0.0,0.0,0.0,-0.28549561237823473,0.2504943098864418,-0.00404974499168296,0.0,0.0,0.0,0.0,0.0,0.0,0.0,0.0,0.0
5.107,147,5,113000000,base_footprint,-0.0038019769326860524,0.0006463918925309815,0.9856494022175479,0.16876131978956316,0.0,0.0,0.0,0.0,0.0,0.0,0.0,0.0,0.0,-5.274845335092795e-05,-8.766713738795907e-05,0.02483934871497631,0.0,0.0,0.0,0.0,0.0,0.0,0.0,0.0,0.0,0.035647023296363815,-0.01995828842294619,0.0015871008223403969,0.0,0.0,0.0,0.0,0.0,0.0,0.0,0.0,0.0
5.147,148,5,147000000,base_footprint,-0.0037975819412852632,0.0006400358961794298,0.985688188955451,0.16853475273418908,0.0,0.0,0.0,0.0,0.0,0.0,0.0,0.0,0.0,2.2064639606733114e-05,-0.00013473297736353218,0.002595791853970972,0.0,0.0,0.0,0.0,0.0,0.0,0.0,0.0,0.0,-0.03355506747804978,0.03034290659641256,8.233159505013091e-05,0.0,0.0,0.0,0.0,0.0,0.0,0.0,0.0,0.0
5.181,149,5,181000000,base_footprint,-0.003797613057338893,0.0006383724020446079,0.9857115474634435,0.16839808731979983,0.0,0.0,0.0,0.0,0.0,0.0,0.0,0.0,0.0,-0.00010369051504302413,-0.00013430364540114727,0.019896702469274483,0.0,0.0,0.0,0.0,0.0,0.0,0.0,0.0,0.0,0.029549953200170034,-0.022228005799833604,-0.0003219824493331161,0.0,0.0,0.0,0.0,0.0,0.0,0.0,0.0,0.0
5.216,150,5,215000000,base_footprint,-0.003798023545505576,0.0006374973136560868,0.9857232916258651,0.1683293229374867,0.0,0.0,0.0,0.0,0.0,0.0,0.0,0.0,0.0,-0.0003268166922399461,6.278020086932759e-05,0.03193814869518368,0.0,0.0,0.0,0.0,0.0,0.0,0.0,0.0,0.0,0.15904393091372995,-0.1266353118383612,0.0016124898325784154,0.0,0.0,0.0,0.0,0.0,0.0,0.0,0.0,0.0
5.252,151,5,249000000,base_footprint,-0.0038012992539082015,0.0006379416140647363,0.9858189725482138,0.16776798418787628,0.0,0.0,0.0,0.0,0.0,0.0,0.0,0.0,0.0,-0.0006299595769161763,-0.0013690418654676156,0.04827400637561713,0.0,0.0,0.0,0.0,0.0,0.0,0.0,0.0,0.0,0.11698707213439938,-0.0834961191207161,0.007567266943688228,0.0,0.0,0.0,0.0,0.0,0.0,0.0,0.0,0.0
5.283,152,5,283000000,base_footprint,-0.003803261353638377,0.0006335535937182663,0.9859892654241742,0.16676421163192462,0.0,0.0,0.0,0.0,0.0,0.0,0.0,0.0,0.0,-0.0005494290852731509,0.00019690332082443577,0.059915927573791765,0.0,0.0,0.0,0.0,0.0,0.0,0.0,0.0,0.0,0.002274939098293506,0.014099580802463204,-0.006713654652015856,0.0,0.0,0.0,0.0,0.0,0.0,0.0,0.0,0.0
5.315,153,5,317000000,base_footprint,-0.003804860996896713,0.0006295259350523853,0.9861581806265052,0.16576238871744334,0.0,0.0,0.0,0.0,0.0,0.0,0.0,0.0,0.0,-0.0005771996917436067,0.00027144893989493985,0.05943715632234319,0.0,0.0,0.0,0.0,0.0,0.0,0.0,0.0,0.0,0.009981015481126631,0.009101637199126768,7.546859968169214e-05,0.0,0.0,0.0,0.0,0.0,0.0,0.0,0.0,0.0
5.351,154,5,351000000,base_footprint,-0.0038009151827396725,0.0006274533793954292,0.9863415931580414,0.1646676074778745,0.0,0.0,0.0,0.0,0.0,0.0,0.0,0.0,0.0,-0.0007552434414017333,-0.00016169541225616053,0.07233552642416417,0.0,0.0,0.0,0.0,0.0,0.0,0.0,0.0,0.0,-0.004247939931522852,0.021018504356751278,0.0006588348722853031,0.0,0.0,0.0,0.0,0.0,0.0,0.0,0.0,0.0
5.386,155,5,385000000,base_footprint,-0.0038035607951053593,0.000622668803723012,0.9865325621328055,0.16351956782147237,0.0,0.0,0.0,0.0,0.0,0.0,0.0,0.0,0.0,-0.0006446524564894362,0.0001592891689461794,0.06938495707287308,0.0,0.0,0.0,0.0,0.0,0.0,0.0,0.0,0.0,0.015672299285894014,0.006509088838593948,-0.0003678658940076535,0.0,0.0,0.0,0.0,0.0,0.0,0.0,0.0,0.0
5.4190000000000005,156,5,419000000,base_footprint,-0.00380464420391614,0.0006183678670921194,0.9867240201868525,0.1623602484906898,0.0,0.0,0.0,0.0,0.0,0.0,0.0,0.0,0.0,-0.0006562019577695121,7.926291809480786e-05,0.06947244511548634,0.0,0.0,0.0,0.0,0.0,0.0,0.0,0.0,0.0,0.009804688306943874,0.011542587202111428,0.00018824758452168185,0.0,0.0,0.0,0.0,0.0,0.0,0.0,0.0,0.0
5.453,157,5,453000000,base_footprint,-0.003804310874809968,0.0006146382305068296,0.9869120917430182,0.16121312790847378,0.0,0.0,0.0,0.0,0.0,0.0,0.0,0.0,0.0,-0.00037800919712158956,0.00026128290504791405,0.06296884367749578,0.0,0.0,0.0,0.0,0.0,0.0,0.0,0.0,0.0,0.011349792526417508,0.010402914685224049,-0.0005087091087863169,0.0,0.0,0.0,0.0,0.0,0.0,0.0,0.0,0.0
5.487,158,5,487000000,base_footprint,-0.0038056015732689996,0.000611168611948323,0.9870840949730284,0.16015659000138271,0.0,0.0,0.0,0.0,0.0,0.0,0.0,0.0,0.0,-0.00048253269163551127,4.576043373569399e-05,0.06314397962477888,0.0,0.0,0.0,0.0,0.0,0.0,0.0,0.0,0.0,0.009250815661763442,0.010292698088094436,0.0004397864960355457,0.0,0.0,0.0,0.0,0.0,0.0,0.0,0.0,0.0
5.521,159,5,521000000,base_footprint,-0.0038064868207127187,0.0006077641895056948,0.9872544329123246,0.15910319285211688,0.0,0.0,0.0,0.0,0.0,0.0,0.0,0.0,0.0,-0.0004332553765689668,2.3031019305398497e-06,0.06277449067399034,0.0,0.0,0.0,0.0,0.0,0.0,0.0,0.0,0.0,0.00863442823291319,0.010748571077435608,7.395534410088015e-05,0.0,0.0,0.0,0.0,0.0,0.0,0.0,0.0,0.0
5.555,160,5,555000000,base_footprint,-0.0038098164251104344,0.0006056378972851484,0.9874370423607506,0.15796583768460132,0.0,0.0,0.0,0.0,0.0,0.0,0.0,0.0,0.0,-0.002190610018326364,-0.0017604520629800652,0.09691127938856695,0.0,0.0,0.0,0.0,0.0,0.0,0.0,0.0,0.0,-0.013811352710147502,0.028005511617960013,0.0029385530903100533,0.0,0.0,0.0,0.0,0.0,0.0,0.0,0.0,0.0
5.589,161,5,589000000,base_footprint,-0.0038100989786000582,0.0005983488219467362,0.9877072390105044,0.1562675114369807,0.0,0.0,0.0,0.0,0.0,0.0,0.0,0.0,0.0,-0.0007640118169572065,0.00012408755851298675,0.09709052784152077,0.0,0.0,0.0,0.0,0.0,0.0,0.0,0.0,0.0,0.015676196520147016,0.01684081445652492,-0.002785620597874476,0.0,0.0,0.0,0.0,0.0,0.0,0.0,0.0,0.0
5.631,162,5,623000000,base_footprint,-0.0038054451810599814,0.0005864031780614683,0.9879341346485511,0.1548267428918709,0.0,0.0,0.0,0.0,0.0,0.0,0.0,0.0,0.0,-0.000738612904756581,5.245381136349391e-06,0.08442478062155036,0.0,0.0,0.0,0.0,0.0,0.0,0.0,0.0,0.0,-0.009774279268596128,0.029837321398745984,-7.81849826206316e-05,0.0,0.0,0.0,0.0,0.0,0.0,0.0,0.0,0.0
5.657,163,5,657000000,base_footprint,-0.0038107019189165593,0.000584090383957131,0.9881694205849573,0.1533177537341931,0.0,0.0,0.0,0.0,0.0,0.0,0.0,0.0,0.0,-0.002420620683306077,-0.0010599990388448083,0.07320528472834588,0.0,0.0,0.0,0.0,0.0,0.0,0.0,0.0,0.0,0.045629683600663835,-0.00839276377933818,0.0020408115201659602,0.0,0.0,0.0,0.0,0.0,0.0,0.0,0.0,0.0
5.689,164,5,691000000,base_footprint,-0.003810901042109842,0.0005781302095511724,0.9883656389352703,0.15204771149472474,0.0,0.0,0.0,0.0,0.0,0.0,0.0,0.0,0.0,-0.000638747154395683,9.213522643342257e-05,0.07544901126323772,0.0,0.0,0.0,0.0,0.0,0.0,0.0,0.0,0.0,0.013818391130205025,0.010516553679364552,-0.0020139122918457373,0.0,0.0,0.0,0.0,0.0,0.0,0.0,0.0,0.0
5.725,165,5,725000000,base_footprint,-0.0038121185504303595,0.0005725983650854516,0.9885606216113425,0.15077478994402876,0.0,0.0,0.0,0.0,0.0,0.0,0.0,0.0,0.0,-0.0006381035194070485,0.00012524863362652376,0.07566221857126995,0.0,0.0,0.0,0.0,0.0,0.0,0.0,0.0,0.0,0.009792093170905982,0.013334145062538383,-6.460172285615898e-06,0.0,0.0,0.0,0.0,0.0,0.0,0.0,0.0,0.0
5.759,166,5,759000000,base_footprint,-0.0038116204566072355,0.0005732769099518782,0.9887284071532053,0.14967057089276023,0.0,0.0,0.0,0.0,0.0,0.0,0.0,0.0,0.0,-0.0010795527386053376,-0.0008324556051017433,0.018889207383166635,0.0,0.0,0.0,0.0,0.0,0.0,0.0,0.0,0.0,-0.1484274282274915,0.12050361578162636,0.0007636030758362081,0.0,0.0,0.0,0.0,0.0,0.0,0.0,0.0,0.0
5.793,167,5,793000000,base_footprint,-0.0038105603672793503,0.0005673424030923631,0.9888564987229158,0.1488219832072563,0.0,0.0,0.0,0.0,0.0,0.0,0.0,0.0,0.0,-0.0008316278152274448,0.0008899005476360623,0.07335458989936686,0.0,0.0,0.0,0.0,0.0,0.0,0.0,0.0,0.0,-0.10845687407925111,0.08576047586840299,-0.004289366856510345,0.0,0.0,0.0,0.0,0.0,0.0,0.0,0.0,0.0
5.827,168,5,827000000,base_footprint,-0.0038133709229494737,0.0005608329641121486,0.9890609519825864,0.14745703418925232,0.0,0.0,0.0,0.0,0.0,0.0,0.0,0.0,0.0,-0.0007985428056457686,-0.00019825147912552022,0.08489230308952664,0.0,0.0,0.0,0.0,0.0,0.0,0.0,0.0,0.0,-0.015265732442817835,0.03049858398207566,0.0016556626628794807,0.0,0.0,0.0,0.0,0.0,0.0,0.0,0.0,0.0
5.861,169,5,861000000,base_footprint,-0.0038179758284643795,0.0005533094902452068,0.9892898926973633,0.14591307383514493,0.0,0.0,0.0,0.0,0.0,0.0,0.0,0.0,0.0,-0.0011530920145403196,-0.002100906709011845,0.12238707525292468,0.0,0.0,0.0,0.0,0.0,0.0,0.0,0.0,0.0,0.0025769237689864484,0.020703108621815163,0.0031964032662232613,0.0,0.0,0.0,0.0,0.0,0.0,0.0,0.0,0.0
5.895,170,5,895000000,base_footprint,-0.0038153241346878136,0.0005474313770557459,0.9895813923537721,0.1439229360727629,0.0,0.0,0.0,0.0,0.0,0.0,0.0,0.0,0.0,-0.000959016756449199,0.00034452447103134904,0.11762222024152962,0.0,0.0,0.0,0.0,0.0,0.0,0.0,0.0,0.0,0.02380034853802144,0.013464020535538839,-0.0037448710424125235,0.0,0.0,0.0,0.0,0.0,0.0,0.0,0.0,0.0
5.929,171,5,929000000,base_footprint,-0.003816608918978929,0.0005402409246507412,0.9898668606332488,0.14194625692909058,0.0,0.0,0.0,0.0,0.0,0.0,0.0,0.0,0.0,-0.0009392960945003356,0.00014630111851070973,0.11775942224975015,0.0,0.0,0.0,0.0,0.0,0.0,0.0,0.0,0.0,0.01378601011562497,0.020103174853669907,0.00023191636804201208,0.0,0.0,0.0,0.0,0.0,0.0,0.0,0.0,0.0
5.963,172,5,963000000,base_footprint,-0.0038125213605931705,0.0005363662109081278,0.9901386326321788,0.1400380846821394,0.0,0.0,0.0,0.0,0.0,0.0,0.0,0.0,0.0,-0.001033484988248119,-0.00021640509914872913,0.09760001885487453,0.0,0.0,0.0,0.0,0.0,0.0,0.0,0.0,0.0,0.20935427980790547,-0.10376167569503472,0.0024071942923111146,0.0,0.0,0.0,0.0,0.0,0.0,0.0,0.0,0.0
5.997,173,5,997000000,base_footprint,-0.0038185372504804635,0.0005284082348949365,0.9903562332114387,0.1384906888467756,0.0,0.0,0.0,0.0,0.0,0.0,0.0,0.0,0.0,-0.000644484799485995,7.737171100256901e-05,0.09253414503597239,0.0,0.0,0.0,0.0,0.0,0.0,0.0,0.0,0.0,0.10894877299323379,-0.04437237762839185,0.00012081825408857887,0.0,0.0,0.0,0.0,0.0,0.0,0.0,0.0,0.0
6.032,174,6,31000000,base_footprint,-0.003820058269894744,0.0005233690871479255,0.9905713645682999,0.13694343699830863,0.0,0.0,0.0,0.0,0.0,0.0,0.0,0.0,0.0,-0.0005240872942240204,7.72230745057614e-05,0.09139538292839265,0.0,0.0,0.0,0.0,0.0,0.0,0.0,0.0,0.0,0.009937257012600788,0.01831329849263028,-2.5347157973330157e-05,0.0,0.0,0.0,0.0,0.0,0.0,0.0,0.0,0.0
6.068,175,6,65000000,base_footprint,-0.0038211381108025863,0.0005173182611130499,0.9907648119788858,0.13553677962013913,0.0,0.0,0.0,0.0,0.0,0.0,0.0,0.0,0.0,-0.0011639234039935134,-0.0003155365333699022,0.06949559975137108,0.0,0.0,0.0,0.0,0.0,0.0,0.0,0.0,0.0,-0.014294779905273029,0.02991128413339063,0.0011125835023759758,0.0,0.0,0.0,0.0,0.0,0.0,0.0,0.0,0.0
6.102,176,6,99000000,base_footprint,-0.003816440578699509,0.0005078622472801535,0.9909162270756793,0.13442547294076432,0.0,0.0,0.0,0.0,0.0,0.0,0.0,0.0,0.0,-0.0005826757950733567,-6.443588385910456e-05,0.07192128356094145,0.0,0.0,0.0,0.0,0.0,0.0,0.0,0.0,0.0,0.012400105639302732,0.009131680947163852,-0.0007547220280376694,0.0,0.0,0.0,0.0,0.0,0.0,0.0,0.0,0.0
6.136,177,6,133000000,base_footprint,-0.0038203117087861125,0.0005054277552439663,0.9911019234283668,0.13304934098981397,0.0,0.0,0.0,0.0,0.0,0.0,0.0,0.0,0.0,-0.00045322029123168666,0.00011112318821222198,0.08325768009037081,0.0,0.0,0.0,0.0,0.0,0.0,0.0,0.0,0.0,0.03064125651725434,0.002414682124037039,-0.0001739631773443217,0.0,0.0,0.0,0.0,0.0,0.0,0.0,0.0,0.0
6.168,178,6,167000000,base_footprint,-0.0038214773349483657,0.0004994272861739184,0.9912938598092622,0.13161166509021624,0.0,0.0,0.0,0.0,0.0,0.0,0.0,0.0,0.0,-0.0007036379703240021,7.610636898571326e-05,0.08664077276533581,0.0,0.0,0.0,0.0,0.0,0.0,0.0,0.0,0.0,0.009437242797114827,0.016105056649450993,0.00011014572707888971,0.0,0.0,0.0,0.0,0.0,0.0,0.0,0.0,0.0
6.2,179,6,201000000,base_footprint,-0.0038227298781514044,0.0004932769747491672,0.9914870336610593,0.1301483979774568,0.0,0.0,0.0,0.0,0.0,0.0,0.0,0.0,0.0,-0.0007148315904101323,0.0001188154005010597,0.086598565079346,0.0,0.0,0.0,0.0,0.0,0.0,0.0,0.0,0.0,0.010577946836870257,0.015784816457605665,-3.244527274347213e-05,0.0,0.0,0.0,0.0,0.0,0.0,0.0,0.0,0.0
6.243,180,6,235000000,base_footprint,-0.003824018144159784,0.000487221124840027,0.9916783312765692,0.12868265919434443,0.0,0.0,0.0,0.0,0.0,0.0,0.0,0.0,0.0,-0.0007764523064599988,0.0001190862417076126,0.0869371321068209,0.0,0.0,0.0,0.0,0.0,0.0,0.0,0.0,0.0,0.009450121857810448,0.016475365213752688,8.93964707532659e-05,0.0,0.0,0.0,0.0,0.0,0.0,0.0,0.0,0.0
6.269,181,6,269000000,base_footprint,-0.0038253668243880155,0.00048107607385253334,0.9918725049763774,0.12717731325341194,0.0,0.0,0.0,0.0,0.0,0.0,0.0,0.0,0.0,-0.0008213976065861669,0.0001245614301137323,0.09050688615934031,0.0,0.0,0.0,0.0,0.0,0.0,0.0,0.0,0.0,0.00844307082736575,0.01763948595065589,5.315263319376028e-05,0.0,0.0,0.0,0.0,0.0,0.0,0.0,0.0,0.0
6.303,182,6,303000000,base_footprint,-0.0038275545462028637,0.0004747358079110925,0.9920680010822518,0.1256431680624692,0.0,0.0,0.0,0.0,0.0,0.0,0.0,0.0,0.0,-0.0008634522636704109,0.00028257317061267253,0.09132281041020436,0.0,0.0,0.0,0.0,0.0,0.0,0.0,0.0,0.0,0.00866056323543118,0.018571462815114768,-0.00021692230512172268,0.0,0.0,0.0,0.0,0.0,0.0,0.0,0.0,0.0
6.338,183,6,337000000,base_footprint,-0.0038233936862861837,0.00047172327640213687,0.9922722850410558,0.12401964149791764,0.0,0.0,0.0,0.0,0.0,0.0,0.0,0.0,0.0,-0.0009498806787235541,-8.78229670262793e-05,0.0969557429355807,0.0,0.0,0.0,0.0,0.0,0.0,0.0,0.0,0.0,-0.002399206813977286,0.024959152748540086,0.0005273953089645986,0.0,0.0,0.0,0.0,0.0,0.0,0.0,0.0,0.0
6.371,184,6,371000000,base_footprint,-0.0038261493885706683,0.0004646611184592528,0.9924759507335275,0.1223790500309689,0.0,0.0,0.0,0.0,0.0,0.0,0.0,0.0,0.0,-0.0008715466253298182,0.000449004242106127,0.10029264800818194,0.0,0.0,0.0,0.0,0.0,0.0,0.0,0.0,0.0,0.018911545046519505,0.013730694327568013,-0.0006705074303859128,0.0,0.0,0.0,0.0,0.0,0.0,0.0,0.0,0.0
6.405,185,6,405000000,base_footprint,-0.0038278846419611784,0.00045837330488048494,0.9926831962793224,0.12068640775890828,0.0,0.0,0.0,0.0,0.0,0.0,0.0,0.0,0.0,-0.0007845847616004829,5.898052814491015e-05,0.10076011330941329,0.0,0.0,0.0,0.0,0.0,0.0,0.0,0.0,0.0,0.010068621335508782,0.01956807319317671,0.0004983129097359476,0.0,0.0,0.0,0.0,0.0,0.0,0.0,0.0,0.0
6.439,186,6,439000000,base_footprint,-0.003828471711799666,0.0004527050566199126,0.9928876920337919,0.11899230592897063,0.0,0.0,0.0,0.0,0.0,0.0,0.0,0.0,0.0,-0.0007396316043786291,6.766829088702911e-05,0.10046384128124007,0.0,0.0,0.0,0.0,0.0,0.0,0.0,0.0,0.0,0.010675815352688994,0.019273055769484303,-2.2202856638663164e-06,0.0,0.0,0.0,0.0,0.0,0.0,0.0,0.0,0.0
6.473,187,6,473000000,base_footprint,-0.003829065264705078,0.00044323962830339824,0.9931822047016433,0.11650858364006314,0.0,0.0,0.0,0.0,0.0,0.0,0.0,0.0,0.0,-0.0013281206694280446,-0.00020351931074934904,0.17649222168460388,0.0,0.0,0.0,0.0,0.0,0.0,0.0,0.0,0.0,-0.0016870371120284193,0.035916745728648114,0.00041252725509691006,0.0,0.0,0.0,0.0,0.0,0.0,0.0,0.0,0.0
6.506,188,6,507000000,base_footprint,-0.003832236898394908,0.00043374473455355417,0.993520772858317,0.11358520909375727,0.0,0.0,0.0,0.0,0.0,0.0,0.0,0.0,0.0,-0.001396888934459398,0.00012594205187240436,0.16907928468691963,0.0,0.0,0.0,0.0,0.0,0.0,0.0,0.0,0.0,0.004862906562390036,0.040742544149758225,-0.00011716584529562646,0.0,0.0,0.0,0.0,0.0,0.0,0.0,0.0,0.0
6.53,189,6,541000000,base_footprint,-0.003827302200186163,0.00041763361221298326,0.9938202422465477,0.11093468096608773,0.0,0.0,0.0,0.0,0.0,0.0,0.0,0.0,0.0,-0.0012671127310972794,-2.31978016717029e-06,0.15395098472851496,0.0,0.0,0.0,0.0,0.0,0.0,0.0,0.0,0.0,-0.012963260801914093,0.04376496395134431,-8.056718092553519e-05,0.0,0.0,0.0,0.0,0.0,0.0,0.0,0.0,0.0
6.577,190,6,575000000,base_footprint,-0.0038354573490110557,0.0004133033586197909,0.9941125644346693,0.10828355221539157,0.0,0.0,0.0,0.0,0.0,0.0,0.0,0.0,0.0,-0.0009639067224117169,-3.903914843450299e-05,0.11516887229116086,0.0,0.0,0.0,0.0,0.0,0.0,0.0,0.0,0.0,-0.2254462671563743,0.14223254367653107,-0.001929999449678687,0.0,0.0,0.0,0.0,0.0,0.0,0.0,0.0,0.0
6.609,191,6,609000000,base_footprint,-0.0038324044168451836,0.0004032256547917187,0.994308097822676,0.10647326748864658,0.0,0.0,0.0,0.0,0.0,0.0,0.0,0.0,0.0,-0.0006485093439034732,0.000171880797741014,0.10747676645166207,0.0,0.0,0.0,0.0,0.0,0.0,0.0,0.0,0.0,-0.004876612603969548,0.026786705315816933,-0.0006376771590295992,0.0,0.0,0.0,0.0,0.0,0.0,0.0,0.0,0.0
6.643,192,6,643000000,base_footprint,-0.0038332553500204595,0.0003957727560337491,0.9945009744495099,0.10465639653801583,0.0,0.0,0.0,0.0,0.0,0.0,0.0,0.0,0.0,-0.0008390377813784116,8.0304802304586e-05,0.10726400735157515,0.0,0.0,0.0,0.0,0.0,0.0,0.0,0.0,0.0,0.009947702121830545,0.019965424905282733,0.00013593282969345206,0.0,0.0,0.0,0.0,0.0,0.0,0.0,0.0,0.0
6.677,193,6,677000000,base_footprint,-0.0038344652488345784,0.0003871014622811603,0.9947259150267694,0.10249634629034234,0.0,0.0,0.0,0.0,0.0,0.0,0.0,0.0,0.0,-0.0011145891723437363,7.380752252027156e-05,0.13149691064127084,0.0,0.0,0.0,0.0,0.0,0.0,0.0,0.0,0.0,0.005819289871633546,0.026032609787245285,9.989749820174795e-05,0.0,0.0,0.0,0.0,0.0,0.0,0.0,0.0,0.0
6.711,194,6,711000000,base_footprint,-0.003835900675790335,0.0003781095625013026,0.9949528357842358,0.10026962383529679,0.0,0.0,0.0,0.0,0.0,0.0,0.0,0.0,0.0,-0.0011283189604909482,0.0001258555971775997,0.13154109698029245,0.0,0.0,0.0,0.0,0.0,0.0,0.0,0.0,0.0,0.011578522674040359,0.024682675226752916,1.0759237363579123e-05,0.0,0.0,0.0,0.0,0.0,0.0,0.0,0.0,0.0
6.745,195,6,745000000,base_footprint,-0.0038373468144013356,0.00036925242004523073,0.995175105960081,0.09803900702994724,0.0,0.0,0.0,0.0,0.0,0.0,0.0,0.0,0.0,-0.001158350859643773,0.00012747145400331401,0.13190131142163172,0.0,0.0,0.0,0.0,0.0,0.0,0.0,0.0,0.0,0.01042782693515717,0.02523375961838622,1.4796760401803297e-05,0.0,0.0,0.0,0.0,0.0,0.0,0.0,0.0,0.0
6.779,196,6,779000000,base_footprint,-0.0038397005325936893,0.0003585512736822131,0.9953999059894212,0.09572959467717221,0.0,0.0,0.0,0.0,0.0,0.0,0.0,0.0,0.0,-0.0008087811186101069,-6.71125986687735e-05,0.11555674614456594,0.0,0.0,0.0,0.0,0.0,0.0,0.0,0.0,0.0,0.22216796986132964,-0.05861900256546103,0.002196317410484737,0.0,0.0,0.0,0.0,0.0,0.0,0.0,0.0,0.0
6.815,197,6,813000000,base_footprint,-0.0038416669755984172,0.0003506608785795743,0.9956093396341296,0.09352626083132576,0.0,0.0,0.0,0.0,0.0,0.0,0.0,0.0,0.0,-0.0009695063347521751,6.720269991828743e-06,0.12945795296277232,0.0,0.0,0.0,0.0,0.0,0.0,0.0,0.0,0.0,0.1015840013819639,-0.009623730549027857,0.0006409486586528811,0.0,0.0,0.0,0.0,0.0,0.0,0.0,0.0,0.0
6.847,198,6,847000000,base_footprint,-0.003837058821048521,0.0003464830430526863,0.9958177069047404,0.09128116752150792,0.0,0.0,0.0,0.0,0.0,0.0,0.0,0.0,0.0,-0.0011138261730231599,0.0004814975404186588,0.12682337529501267,0.0,0.0,0.0,0.0,0.0,0.0,0.0,0.0,0.0,0.01715107252849185,0.023993481305703227,-0.0010446497200281221,0.0,0.0,0.0,0.0,0.0,0.0,0.0,0.0,0.0
6.881,199,6,881000000,base_footprint,-0.00384100942023965,0.00034010632907329364,0.9959452775102052,0.08987844669017592,0.0,0.0,0.0,0.0,0.0,0.0,0.0,0.0,0.0,-0.00011469665488246598,-0.0029585585854196633,0.08439685485032858,0.0,0.0,0.0,0.0,0.0,0.0,0.0,0.0,0.0,-0.3331958927265825,0.1454656140730847,0.0018841072484376176,0.0,0.0,0.0,0.0,0.0,0.0,0.0,0.0,0.0
6.915,200,6,915000000,base_footprint,-0.0038414895370315516,0.00033232499984191987,0.996130271313751,0.08780441384477462,0.0,0.0,0.0,0.0,0.0,0.0,0.0,0.0,0.0,-0.0009100126972227828,0.0001590674048398986,0.12529682872098724,0.0,0.0,0.0,0.0,0.0,0.0,0.0,0.0,0.0,0.034223960872190914,0.013565533718553508,-0.0037498822584221643,0.0,0.0,0.0,0.0,0.0,0.0,0.0,0.0,0.0
6.948,201,6,949000000,base_footprint,-0.0038411000238683553,0.0003263651690147766,0.9963140402593127,0.08569406408000492,0.0,0.0,0.0,0.0,0.0,0.0,0.0,0.0,0.0,0.0007534968807122289,-0.003325890508843911,0.11917716465158697,0.0,0.0,0.0,0.0,0.0,0.0,0.0,0.0,0.0,0.021199936021517506,0.02150979891583434,0.0037236684282056154,0.0,0.0,0.0,0.0,0.0,0.0,0.0,0.0,0.0
6.9830000000000005,202,6,983000000,base_footprint,-0.0038439175954458928,0.00031950595447281246,0.9963739782159634,0.08499422184807355,0.0,0.0,0.0,0.0,0.0,0.0,0.0,0.0,0.0,-0.003002191742877117,0.0017646770326829105,0.020222968590599674,0.0,0.0,0.0,0.0,0.0,0.0,0.0,0.0,0.0,0.1252922907774136,-0.03655084283063803,-0.0021360837353162888,0.0,0.0,0.0,0.0,0.0,0.0,0.0,0.0,0.0
7.017,203,7,17000000,base_footprint,-0.0038371819142163136,0.00031599408846271724,0.996406458069284,0.08461292159308602,0.0,0.0,0.0,0.0,0.0,0.0,0.0,0.0,0.0,-0.00025703867056809163,-0.00025120320943924505,0.0261570240114026,0.0,0.0,0.0,0.0,0.0,0.0,0.0,0.0,0.0,-0.007512551271443695,0.00879488894417679,0.00015303776796882782,0.0,0.0,0.0,0.0,0.0,0.0,0.0,0.0,0.0
7.051,204,7,51000000,base_footprint,-0.0038388862315021713,0.00031263857353358554,0.9964730396318058,0.0838250946708303,0.0,0.0,0.0,0.0,0.0,0.0,0.0,0.0,0.0,-0.00043969247579740234,0.0005807369326704716,0.08516241677972047,0.0,0.0,0.0,0.0,0.0,0.0,0.0,0.0,0.0,0.06889797396465898,-0.014419287332595766,-0.0007549389932496422,0.0,0.0,0.0,0.0,0.0,0.0,0.0,0.0,0.0
7.085,205,7,85000000,base_footprint,-0.0038417290040049126,0.00030749262321112553,0.9966475596517846,0.08172385457557153,0.0,0.0,0.0,0.0,0.0,0.0,0.0,0.0,0.0,-0.0008483804822473518,0.00033001401185367955,0.14825522161804316,0.0,0.0,0.0,0.0,0.0,0.0,0.0,0.0,0.0,0.13355313533548285,-0.0182623663797159,0.0015072982820566526,0.0,0.0,0.0,0.0,0.0,0.0,0.0,0.0,0.0
7.119,206,7,119000000,base_footprint,-0.0038417034269308393,0.00029744002671306367,0.9968503832362058,0.07921152874449337,0.0,0.0,0.0,0.0,0.0,0.0,0.0,0.0,0.0,-0.0010819324366408542,1.0113349171539341e-05,0.14811907599232238,0.0,0.0,0.0,0.0,0.0,0.0,0.0,0.0,0.0,0.011129179948249676,0.030529015133293952,0.0006141426974972588,0.0,0.0,0.0,0.0,0.0,0.0,0.0,0.0,0.0
7.153,207,7,153000000,base_footprint,-0.0038494256140705887,0.00029147360489155535,0.9970459005620069,0.07671094536033371,0.0,0.0,0.0,0.0,0.0,0.0,0.0,0.0,0.0,-0.0006714469285144765,0.0008572176661321735,0.14044669694243408,0.0,0.0,0.0,0.0,0.0,0.0,0.0,0.0,0.0,-0.11167171669553815,0.06899628792156533,-0.002465732322754908,0.0,0.0,0.0,0.0,0.0,0.0,0.0,0.0,0.0
7.183,208,7,187000000,base_footprint,-0.0038440107915273048,0.0002766090488716492,0.9972555353579451,0.07393608230361712,0.0,0.0,0.0,0.0,0.0,0.0,0.0,0.0,0.0,-0.0013797746220580104,0.00010738750156218192,0.17221763834889575,0.0,0.0,0.0,0.0,0.0,0.0,0.0,0.0,0.0,-0.19718806298965663,0.09681026091509765,-0.00027727489515928035,0.0,0.0,0.0,0.0,0.0,0.0,0.0,0.0,0.0
7.221,209,7,221000000,base_footprint,-0.003845528341382152,0.0002650963446846855,0.9974678865315613,0.07101378016951466,0.0,0.0,0.0,0.0,0.0,0.0,0.0,0.0,0.0,-0.0014025930239268273,9.8278542425215e-05,0.1723174655068946,0.0,0.0,0.0,0.0,0.0,0.0,0.0,0.0,0.0,0.010890276556048123,0.0339436660025431,1.4719207218909914e-05,0.0,0.0,0.0,0.0,0.0,0.0,0.0,0.0,0.0
7.255,210,7,255000000,base_footprint,-0.0038489041285827783,0.00025211161708150803,0.9976633890906218,0.06821205498265069,0.0,0.0,0.0,0.0,0.0,0.0,0.0,0.0,0.0,-0.0006230858807964052,-0.0013892845257729085,0.12338174077822382,0.0,0.0,0.0,0.0,0.0,0.0,0.0,0.0,0.0,0.01912559955073847,0.03075804589759178,0.002101815874241875,0.0,0.0,0.0,0.0,0.0,0.0,0.0,0.0,0.0
7.289,211,7,289000000,base_footprint,-0.0038480556714376663,0.00024634601774554217,0.9978032952753073,0.06613407381166733,0.0,0.0,0.0,0.0,0.0,0.0,0.0,0.0,0.0,-0.0009683981378568296,2.4631190048761913e-05,0.12289832853465488,0.0,0.0,0.0,0.0,0.0,0.0,0.0,0.0,0.0,0.010420141000040916,0.02412729762891494,-0.0020148736156397557,0.0,0.0,0.0,0.0,0.0,0.0,0.0,0.0,0.0
7.324,212,7,323000000,base_footprint,-0.003850590027481,0.00023779079333959816,0.9979401403329375,0.06403587060590342,0.0,0.0,0.0,0.0,0.0,0.0,0.0,0.0,0.0,-0.0010410972981059596,0.00017751356249179535,0.12439703958579856,0.0,0.0,0.0,0.0,0.0,0.0,0.0,0.0,0.0,0.003191157383195459,0.025353536179263704,-0.00027599374189578405,0.0,0.0,0.0,0.0,0.0,0.0,0.0,0.0,0.0
7.357,213,7,357000000,base_footprint,-0.003844488538525847,0.00023593289326925265,0.9980814806581377,0.06179419237118176,0.0,0.0,0.0,0.0,0.0,0.0,0.0,0.0,0.0,-0.0012543318518106919,-0.00010482812360533238,0.1515937625664174,0.0,0.0,0.0,0.0,0.0,0.0,0.0,0.0,0.0,0.04988423752315293,0.015162973373331948,0.0012905472548324771,0.0,0.0,0.0,0.0,0.0,0.0,0.0,0.0,0.0
7.391,214,7,391000000,base_footprint,-0.003843089094086967,0.000224572221943241,0.9982502895458764,0.059004573171120143,0.0,0.0,0.0,0.0,0.0,0.0,0.0,0.0,0.0,-0.0011642634756030012,-0.00015915126620269222,0.1525447128317714,0.0,0.0,0.0,0.0,0.0,0.0,0.0,0.0,0.0,0.24463681706657028,-0.02304288348850272,0.0016135511449310918,0.0,0.0,0.0,0.0,0.0,0.0,0.0,0.0,0.0
7.425,215,7,425000000,base_footprint,-0.0038518290873499296,0.000213625172828257,0.9983817200839169,0.05673674981215317,0.0,0.0,0.0,0.0,0.0,0.0,0.0,0.0,0.0,-0.0007567423611963555,0.0002776170874625002,0.12896106424218265,0.0,0.0,0.0,0.0,0.0,0.0,0.0,0.0,0.0,0.0463334531807574,0.019571802138242212,-0.0005483027838548757,0.0,0.0,0.0,0.0,0.0,0.0,0.0,0.0,0.0
7.459,216,7,459000000,base_footprint,-0.0038466394613471183,0.00020127448067884347,0.9984907879876651,0.0547842053625819,0.0,0.0,0.0,0.0,0.0,0.0,0.0,0.0,0.0,-0.0011527667720217733,-0.00015617114373428774,0.10324735118400305,0.0,0.0,0.0,0.0,0.0,0.0,0.0,0.0,0.0,-0.026805461749484914,0.031440632672729285,0.0006721627848340193,0.0,0.0,0.0,0.0,0.0,0.0,0.0,0.0,0.0
7.493,217,7,493000000,base_footprint,-0.003847767770098953,0.00019611110314957805,0.9985933562015021,0.05288161470532673,0.0,0.0,0.0,0.0,0.0,0.0,0.0,0.0,0.0,8.309609632252033e-05,0.0010111130676721896,0.12420333871305757,0.0,0.0,0.0,0.0,0.0,0.0,0.0,0.0,0.0,0.04835015160726409,0.013970175310703646,-0.0015864796712728182,0.0,0.0,0.0,0.0,0.0,0.0,0.0,0.0,0.0
7.527,218,7,527000000,base_footprint,-0.0038488302742589794,0.00018863911934747905,0.9987015252801559,0.05079777872990994,0.0,0.0,0.0,0.0,0.0,0.0,0.0,0.0,0.0,-0.0008563300658058868,-7.609217024298627e-05,0.12249899394929345,0.0,0.0,0.0,0.0,0.0,0.0,0.0,0.0,0.0,0.003113005933648074,0.026887515762912952,0.0018891000338769018,0.0,0.0,0.0,0.0,0.0,0.0,0.0,0.0,0.0
7.5600000000000005,219,7,561000000,base_footprint,-0.003847121183335373,0.00018153605607003064,0.998779794472575,0.0492350368800712,0.0,0.0,0.0,0.0,0.0,0.0,0.0,0.0,0.0,0.0003168756268349652,-0.000504328851337033,0.020016530210672092,0.0,0.0,0.0,0.0,0.0,0.0,0.0,0.0,0.0,0.03154404606118549,0.015675917910809228,0.0005932772606452026,0.0,0.0,0.0,0.0,0.0,0.0,0.0,0.0,0.0
7.595,220,7,595000000,base_footprint,-0.003848927441730552,0.00018091986547173706,0.9987966349501823,0.0488920754084224,0.0,0.0,0.0,0.0,0.0,0.0,0.0,0.0,0.0,-7.975820306090926e-05,-0.00012948510167172357,0.020034360173794466,0.0,0.0,0.0,0.0,0.0,0.0,0.0,0.0,0.0,0.002557580235021853,0.003625105976701407,-0.0003569818132298182,0.0,0.0,0.0,0.0,0.0,0.0,0.0,0.0,0.0
7.631,221,7,629000000,base_footprint,-0.0038491913979827315,0.00017939007039524608,0.9988132651933181,0.04855113612107188,0.0,0.0,0.0,0.0,0.0,0.0,0.0,0.0,0.0,-0.00014597175573662855,-0.0001532163547283647,0.019914542262735598,0.0,0.0,0.0,0.0,0.0,0.0,0.0,0.0,0.0,0.002189614177747343,0.004030499541313053,9.61324696821463e-05,0.0,0.0,0.0,0.0,0.0,0.0,0.0,0.0,0.0
7.663,222,7,663000000,base_footprint,-0.0038497539772310596,0.00017812852235108163,0.9988265347056552,0.04827733663363088,0.0,0.0,0.0,0.0,0.0,0.0,0.0,0.0,0.0,-0.0001613957085519555,-6.602888582428058e-05,0.011029159452490528,0.0,0.0,0.0,0.0,0.0,0.0,0.0,0.0,0.0,0.004236185211024184,0.002833346945020636,-0.00020136306789352165,0.0,0.0,0.0,0.0,0.0,0.0,0.0,0.0,0.0
7.697,223,7,697000000,base_footprint,-0.0038503240679639843,0.00017720529855959,0.9988355285489832,0.048090856835028006,0.0,0.0,0.0,0.0,0.0,0.0,0.0,0.0,0.0,-0.00018170369051063393,-8.981497137061215e-05,0.0107475915189489,0.0,0.0,0.0,0.0,0.0,0.0,0.0,0.0,0.0,0.0022570733314515655,0.0019208673015439633,-1.9966568581195213e-05,0.0,0.0,0.0,0.0,0.0,0.0,0.0,0.0,0.0
7.731,224,7,731000000,base_footprint,-0.0038512489311162855,0.0001762540742786059,0.9988444385126808,0.047905369933437025,0.0,0.0,0.0,0.0,0.0,0.0,0.0,0.0,0.0,-0.00015502497778012143,-7.273532865356786e-05,0.010977952196415902,0.0,0.0,0.0,0.0,0.0,0.0,0.0,0.0,0.0,0.0007517687384554496,0.0022734994830364407,-0.00012763622200861801,0.0,0.0,0.0,0.0,0.0,0.0,0.0,0.0,0.0
7.765,225,7,765000000,base_footprint,-0.0038520325800693906,0.00017551111882699517,0.9988534705730806,0.04771661518760049,0.0,0.0,0.0,0.0,0.0,0.0,0.0,0.0,0.0,-0.00015502107676868752,-5.95152002865762e-05,0.011138674101567594,0.0,0.0,0.0,0.0,0.0,0.0,0.0,0.0,0.0,0.000457736925673254,0.002666762619916312,-8.367018789750804e-05,0.0,0.0,0.0,0.0,0.0,0.0,0.0,0.0,0.0
7.799,226,7,799000000,base_footprint,-0.003853128998659197,0.00017514506427606348,0.9988627909267294,0.047521022960276195,0.0,0.0,0.0,0.0,0.0,0.0,0.0,0.0,0.0,-0.0001535831406622781,8.891205959472638e-06,0.012283210127631481,0.0,0.0,0.0,0.0,0.0,0.0,0.0,0.0,0.0,-0.0015167372577777958,0.003237673820660428,-0.00016601639761386819,0.0,0.0,0.0,0.0,0.0,0.0,0.0,0.0,0.0
7.833,227,7,833000000,base_footprint,-0.003852079075364292,0.00017597858011155837,0.9988741129058866,0.04728252409521859,0.0,0.0,0.0,0.0,0.0,0.0,0.0,0.0,0.0,-7.386091361455125e-05,-0.0001556426713809053,0.014226284925818343,0.0,0.0,0.0,0.0,0.0,0.0,0.0,0.0,0.0,-0.005601634676532098,0.003806992570575173,0.00019011187022566583,0.0,0.0,0.0,0.0,0.0,0.0,0.0,0.0,0.0
7.867,228,7,867000000,base_footprint,-0.0038521050721027567,0.00017388509003554516,0.9989037045778093,0.04665318886440207,0.0,0.0,0.0,0.0,0.0,0.0,0.0,0.0,0.0,-0.00034334433746077556,-0.0029551343825526405,0.08523929576409313,0.0,0.0,0.0,0.0,0.0,0.0,0.0,0.0,0.0,-0.043938218860129254,0.015866543320310792,0.0036888400360894163,0.0,0.0,0.0,0.0,0.0,0.0,0.0,0.0,0.0
7.904,229,7,901000000,base_footprint,-0.003848185489185281,0.00016519177631758167,0.9989710238978587,0.04518913135458357,0.0,0.0,0.0,0.0,0.0,0.0,0.0,0.0,0.0,0.00029306343619231315,0.0023015256081037358,0.0869534723327206,0.0,0.0,0.0,0.0,0.0,0.0,0.0,0.0,0.0,-0.11064274417582955,0.03891304166543699,-0.008515799153358237,0.0,0.0,0.0,0.0,0.0,0.0,0.0,0.0,0.0
7.9350000000000005,230,7,935000000,base_footprint,-0.0038549400694559127,0.00016543105736959178,0.9990190655792539,0.04411370171251404,0.0,0.0,0.0,0.0,0.0,0.0,0.0,0.0,0.0,-0.0003151998492276542,-6.598082928843037e-05,0.03130346823516741,0.0,0.0,0.0,0.0,0.0,0.0,0.0,0.0,0.0,-0.11347592177028622,0.03481545329465828,0.002991956836506023,0.0,0.0,0.0,0.0,0.0,0.0,0.0,0.0,0.0
7.969,231,7,969000000,base_footprint,-0.00385123893648037,0.000162482494631943,0.9990289142426837,0.04389043250160292,0.0,0.0,0.0,0.0,0.0,0.0,0.0,0.0,0.0,0.00023756466577800093,0.0002642946471318276,0.01680929206702767,0.0,0.0,0.0,0.0,0.0,0.0,0.0,0.0,0.0,-0.058829658262364574,0.01357347457899883,-0.0012626530607509538,0.0,0.0,0.0,0.0,0.0,0.0,0.0,0.0,0.0
8.003,232,8,3000000,base_footprint,-0.0038502520800792217,0.00016122956255041533,0.9990409087615914,0.04361665031569851,0.0,0.0,0.0,0.0,0.0,0.0,0.0,0.0,0.0,-4.6200907260217486e-05,-9.520642778245214e-05,0.016058843263968305,0.0,0.0,0.0,0.0,0.0,0.0,0.0,0.0,0.0,3.003512436873873e-05,0.003430098155019257,0.0007105015925684296,0.0,0.0,0.0,0.0,0.0,0.0,0.0,0.0,0.0
8.037,233,8,37000000,base_footprint,-0.0038499467641029076,0.00016005687430631645,0.9990527594117504,0.04334439068066008,0.0,0.0,0.0,0.0,0.0,0.0,0.0,0.0,0.0,-2.8362361562307624e-05,-0.0001421583038290298,0.015905805351688004,0.0,0.0,0.0,0.0,0.0,0.0,0.0,0.0,0.0,0.001681713969062567,0.00309513857077638,0.00014345485828450672,0.0,0.0,0.0,0.0,0.0,0.0,0.0,0.0,0.0
8.07,234,8,71000000,base_footprint,-0.003846435711221219,0.00015897162418660428,0.9990461715989147,0.043496283449210256,0.0,0.0,0.0,0.0,0.0,0.0,0.0,0.0,0.0,0.000503071154251633,0.0014814634957778354,-0.032321890403041245,0.0,0.0,0.0,0.0,0.0,0.0,0.0,0.0,0.0,0.42974038027048517,-0.07677788746559311,0.0015053321814419388,0.0,0.0,0.0,0.0,0.0,0.0,0.0,0.0,0.0
8.105,235,8,105000000,base_footprint,-0.0038504677229662713,0.0001599691532477752,0.9990491839115633,0.04342667882562524,0.0,0.0,0.0,0.0,0.0,0.0,0.0,0.0,0.0,-0.00032310126866850813,-0.0011693401322214391,0.0070143141409464435,0.0,0.0,0.0,0.0,0.0,0.0,0.0,0.0,0.0,-0.08953734224570166,0.016015659321312062,0.0024060766071612345,0.0,0.0,0.0,0.0,0.0,0.0,0.0,0.0,0.0
8.139,236,8,139000000,base_footprint,-0.003850416930492673,0.000159279145899927,0.9990545107498962,0.043303965983507414,0.0,0.0,0.0,0.0,0.0,0.0,0.0,0.0,0.0,-0.0001392143445866395,-0.00011992749616949308,0.0070338500298554275,0.0,0.0,0.0,0.0,0.0,0.0,0.0,0.0,0.0,0.0015506351431822936,0.0012731172145301999,-0.0013112801644206298,0.0,0.0,0.0,0.0,0.0,0.0,0.0,0.0,0.0
8.173,237,8,173000000,base_footprint,-0.0038512266352848635,0.00015780891457838346,0.9990674864199761,0.04300349669760872,0.0,0.0,0.0,0.0,0.0,0.0,0.0,0.0,0.0,-0.00028180786565262133,-0.0001229140274741388,0.021485406200049652,0.0,0.0,0.0,0.0,0.0,0.0,0.0,0.0,0.0,-0.0019056587676284896,0.004066183173147693,-5.395236903705782e-05,0.0,0.0,0.0,0.0,0.0,0.0,0.0,0.0,0.0
8.207,238,8,207000000,base_footprint,-0.0038518523607031204,0.00015630648400355898,0.9990830421907314,0.042640516045045575,0.0,0.0,0.0,0.0,0.0,0.0,0.0,0.0,0.0,-0.00023687196638701535,-9.276321142707849e-05,0.021179224621562555,0.0,0.0,0.0,0.0,0.0,0.0,0.0,0.0,0.0,0.002463712914529688,0.00419764278962841,-0.0001434166671804801,0.0,0.0,0.0,0.0,0.0,0.0,0.0,0.0,0.0
8.241,239,8,241000000,base_footprint,-0.003852752849607152,0.00015477862048745563,0.9990984680386887,0.04227745855421879,0.0,0.0,0.0,0.0,0.0,0.0,0.0,0.0,0.0,-0.0002460088856241299,-4.211548959821226e-05,0.021519511174169354,0.0,0.0,0.0,0.0,0.0,0.0,0.0,0.0,0.0,0.0009114452217462478,0.004619153758779458,-0.00016801467838700935,0.0,0.0,0.0,0.0,0.0,0.0,0.0,0.0,0.0
8.275,240,8,275000000,base_footprint,-0.0038533379676806544,0.00015440461237578265,0.9991086141021062,0.042036950087883364,0.0,0.0,0.0,0.0,0.0,0.0,0.0,0.0,0.0,-0.00013425244798502764,3.972745102543619e-06,0.012189413519338948,0.0,0.0,0.0,0.0,0.0,0.0,0.0,0.0,0.0,0.004572403962715946,0.0033629138870235435,-0.00010288456384588025,0.0,0.0,0.0,0.0,0.0,0.0,0.0,0.0,0.0
8.309,241,8,309000000,base_footprint,-0.003853811947618762,0.00015419338398927493,0.9991185745942,0.041799500699494715,0.0,0.0,0.0,0.0,0.0,0.0,0.0,0.0,0.0,-8.650239244893177e-05,-0.00012878043886382665,0.01536368234379085,0.0,0.0,0.0,0.0,0.0,0.0,0.0,0.0,0.0,-0.008811688707266997,0.00392737649073674,0.000145724232722237,0.0,0.0,0.0,0.0,0.0,0.0,0.0,0.0,0.0
8.342,242,8,343000000,base_footprint,-0.003854332840887063,0.0001539834414673996,0.9991287265231398,0.041556085519458476,0.0,0.0,0.0,0.0,0.0,0.0,0.0,0.0,0.0,3.180392210388301e-05,-7.033504273033405e-05,0.01452328396799441,0.0,0.0,0.0,0.0,0.0,0.0,0.0,0.0,0.0,0.0001409047851652176,0.0035423133852543203,-0.00011978495962410417,0.0,0.0,0.0,0.0,0.0,0.0,0.0,0.0,0.0
8.377,243,8,377000000,base_footprint,-0.003855353342509201,0.0001539685273614624,0.9991365300048145,0.0413679459755437,0.0,0.0,0.0,0.0,0.0,0.0,0.0,0.0,0.0,-0.00011091807186572092,-5.387708790687307e-05,0.0028203478958069715,0.0,0.0,0.0,0.0,0.0,0.0,0.0,0.0,0.0,-0.023559418590795706,0.00662219981620791,6.496172043369907e-05,0.0,0.0,0.0,0.0,0.0,0.0,0.0,0.0,0.0
8.412,244,8,411000000,base_footprint,-0.003847906731488379,0.0001494364111300768,0.9991319611074825,0.041478856976306,0.0,0.0,0.0,0.0,0.0,0.0,0.0,0.0,0.0,-3.7922049542787604e-05,-0.0001571051322936654,-0.005576033941969118,0.0,0.0,0.0,0.0,0.0,0.0,0.0,0.0,0.0,-0.017712707641272,0.001345115466885686,3.085560504187289e-05,0.0,0.0,0.0,0.0,0.0,0.0,0.0,0.0,0.0
8.445,245,8,445000000,base_footprint,-0.003851997249720883,0.00015232302083870728,0.9991368598163426,0.0413602982487298,0.0,0.0,0.0,0.0,0.0,0.0,0.0,0.0,0.0,-0.00015177460945867174,-0.00039827333784492406,0.012972625143769855,0.0,0.0,0.0,0.0,0.0,0.0,0.0,0.0,0.0,0.040215848336625955,-0.005513477458265083,0.0005648738851256742,0.0,0.0,0.0,0.0,0.0,0.0,0.0,0.0,0.0
8.479,246,8,479000000,base_footprint,-0.0038468291095668595,0.0001444848762636792,0.9991907362914382,0.04003815104742082,0.0,0.0,0.0,0.0,0.0,0.0,0.0,0.0,0.0,-0.0008643998005152735,5.164284581686536e-05,0.1258100366148172,0.0,0.0,0.0,0.0,0.0,0.0,0.0,0.0,0.0,0.09704316255916808,0.0005478515630415889,0.0003814674438837308,0.0,0.0,0.0,0.0,0.0,0.0,0.0,0.0,0.0
8.513,247,8,513000000,base_footprint,-0.003850199067871888,0.00013675450478055644,0.9992897704555395,0.03748482263875019,0.0,0.0,0.0,0.0,0.0,0.0,0.0,0.0,0.0,-0.00105393125317785,0.00029015704886372175,0.15418358087586923,0.0,0.0,0.0,0.0,0.0,0.0,0.0,0.0,0.0,-0.1238950379981601,0.05222828421757332,-0.0011936940171898768,0.0,0.0,0.0,0.0,0.0,0.0,0.0,0.0,0.0
8.547,248,8,547000000,base_footprint,-0.003850871280589207,0.00012668342962008107,0.9993845895122077,0.034865412477200805,0.0,0.0,0.0,0.0,0.0,0.0,0.0,0.0,0.0,-0.0011034340326602954,-7.364652816069204e-05,0.15407356606294384,0.0,0.0,0.0,0.0,0.0,0.0,0.0,0.0,0.0,0.00603494968907362,0.03315187907607437,0.0004146827828450261,0.0,0.0,0.0,0.0,0.0,0.0,0.0,0.0,0.0
8.581,249,8,581000000,base_footprint,-0.003851415929798387,0.00011237564941313311,0.99950664412236,0.031170856938929417,0.0,0.0,0.0,0.0,0.0,0.0,0.0,0.0,0.0,-0.0016540571682082518,-4.021828708229221e-05,0.22331401415242594,0.0,0.0,0.0,0.0,0.0,0.0,0.0,0.0,0.0,-0.031071596221319595,0.05105168337337437,-0.00027836715529871146,0.0,0.0,0.0,0.0,0.0,0.0,0.0,0.0,0.0
8.615,250,8,615000000,base_footprint,-0.0038521676427537435,0.00010024867522413232,0.9995987596891502,0.02806190268972887,0.0,0.0,0.0,0.0,0.0,0.0,0.0,0.0,0.0,-0.0013029712371483756,-0.0001657500340151435,0.1680341397956001,0.0,0.0,0.0,0.0,0.0,0.0,0.0,0.0,0.0,-0.2976835932312343,0.07418493448359215,-0.002247349961358217,0.0,0.0,0.0,0.0,0.0,0.0,0.0,0.0,0.0
8.648,251,8,649000000,base_footprint,-0.0038533874700462413,8.847666168149139e-05,0.9996746876856255,0.02521234573642975,0.0,0.0,0.0,0.0,0.0,0.0,0.0,0.0,0.0,-0.0026411298481670157,0.0004402131078955315,0.15399404111865952,0.0,0.0,0.0,0.0,0.0,0.0,0.0,0.0,0.0,0.0035771481445171756,0.033500944017258165,-0.0019467045394670646,0.0,0.0,0.0,0.0,0.0,0.0,0.0,0.0,0.0
8.683,252,8,683000000,base_footprint,-0.003854326099350574,7.932704226939733e-05,0.999735249953243,0.022684088662914447,0.0,0.0,0.0,0.0,0.0,0.0,0.0,0.0,0.0,-0.0011822445583642603,-3.8234853576189575e-05,0.14883870646557235,0.0,0.0,0.0,0.0,0.0,0.0,0.0,0.0,0.0,0.010183099953357215,0.031167067362250757,0.0016422939827965342,0.0,0.0,0.0,0.0,0.0,0.0,0.0,0.0,0.0
8.718,253,8,717000000,base_footprint,-0.0038554311083290748,6.96532758441162e-05,0.9997895166137355,0.0201507634759415,0.0,0.0,0.0,0.0,0.0,0.0,0.0,0.0,0.0,-0.0011826149404095623,-3.280661783328425e-05,0.14921040928382037,0.0,0.0,0.0,0.0,0.0,0.0,0.0,0.0,0.0,0.0025010240728441,0.03075142548714847,-6.799205855746463e-05,0.0,0.0,0.0,0.0,0.0,0.0,0.0,0.0,0.0
8.751,254,8,751000000,base_footprint,-0.0038577104044623107,5.899082118011256e-05,0.9998375135387987,0.017608552213940632,0.0,0.0,0.0,0.0,0.0,0.0,0.0,0.0,0.0,-0.001624700260603993,0.002041535983440033,0.15266683007313978,0.0,0.0,0.0,0.0,0.0,0.0,0.0,0.0,0.0,0.023293563642684794,0.029455715964352758,-0.002166637037243129,0.0,0.0,0.0,0.0,0.0,0.0,0.0,0.0,0.0
8.785,255,8,785000000,base_footprint,-0.0038579011857009676,4.689080376445134e-05,0.9998857243091683,0.014616864315710642,0.0,0.0,0.0,0.0,0.0,0.0,0.0,0.0,0.0,-0.0011396420177841116,-7.99799563138498e-06,0.18851476280525742,0.0,0.0,0.0,0.0,0.0,0.0,0.0,0.0,0.0,0.1673807573507142,0.026882142067710127,0.003833906888601776,0.0,0.0,0.0,0.0,0.0,0.0,0.0,0.0,0.0
8.821,256,8,819000000,base_footprint,-0.0038522576792839706,4.312171903943029e-05,0.9999262184963679,0.01152023501686316,0.0,0.0,0.0,0.0,0.0,0.0,0.0,0.0,0.0,-0.0014257775096579676,-0.0003102705381018641,0.16780502669346792,0.0,0.0,0.0,0.0,0.0,0.0,0.0,0.0,0.0,0.031778904602293635,0.0393136095618252,0.0007103295034735111,0.0,0.0,0.0,0.0,0.0,0.0,0.0,0.0,0.0
8.852,257,8,853000000,base_footprint,-0.003849302657885996,2.7689402590200928e-05,0.9999479088425467,0.009453131955225326,0.0,0.0,0.0,0.0,0.0,0.0,0.0,0.0,0.0,-0.0011972730347289346,-0.0008438554875359993,0.07998196694137745,0.0,0.0,0.0,0.0,0.0,0.0,0.0,0.0,0.0,0.07934765921923469,0.022195121352016813,0.00041501230638621363,0.0,0.0,0.0,0.0,0.0,0.0,0.0,0.0,0.0
8.887,258,8,887000000,base_footprint,-0.003851891585602585,2.0981863626797786e-05,0.9999606750380792,0.00798817052667648,0.0,0.0,0.0,0.0,0.0,0.0,0.0,0.0,0.0,-0.00010334680301610894,0.0006101364403386668,0.10017097191117372,0.0,0.0,0.0,0.0,0.0,0.0,0.0,0.0,0.0,0.04786612752327031,0.016767231923808783,-0.0011139448715932366,0.0,0.0,0.0,0.0,0.0,0.0,0.0,0.0,0.0
8.921,259,8,921000000,base_footprint,-0.0038543014855235906,1.6595608782132893e-05,0.9999729034834386,0.006271872411501123,0.0,0.0,0.0,0.0,0.0,0.0,0.0,0.0,0.0,-0.0007586818431423931,-0.00015486850481276823,0.10073289136441105,0.0,0.0,0.0,0.0,0.0,0.0,0.0,0.0,0.0,0.0032058384626501794,0.022157602043443567,0.001270128881773445,0.0,0.0,0.0,0.0,0.0,0.0,0.0,0.0,0.0
8.955,260,8,955000000,base_footprint,-0.0038531731099396534,9.992753401901463e-06,0.9999818932346686,0.004622354371716753,0.0,0.0,0.0,0.0,0.0,0.0,0.0,0.0,0.0,-0.001173099158625037,-2.2085435334367212e-06,0.0816918869538485,0.0,0.0,0.0,0.0,0.0,0.0,0.0,0.0,0.0,0.006584816768610278,0.021482664070829875,-0.00036924505761978604,0.0,0.0,0.0,0.0,0.0,0.0,0.0,0.0,0.0
8.988,261,8,989000000,base_footprint,-0.0038531891702306463,4.9402455594770205e-06,0.9999873843874871,0.0032224175217595995,0.0,0.0,0.0,0.0,0.0,0.0,0.0,0.0,0.0,-0.0005333144159022024,-0.00013219275672263456,0.08231285849612983,0.0,0.0,0.0,0.0,0.0,0.0,0.0,0.0,0.0,0.0013194908032533354,0.01780033243895328,0.0005743345264270577,0.0,0.0,0.0,0.0,0.0,0.0,0.0,0.0,0.0
9.023,262,9,23000000,base_footprint,-0.0038530076550788626,-3.927496157944716e-07,0.9999909142920936,0.0018236406220662085,0.0,0.0,0.0,0.0,0.0,0.0,0.0,0.0,0.0,-0.0005672139900638281,-0.00016415656607523827,0.08222062254174221,0.0,0.0,0.0,0.0,0.0,0.0,0.0,0.0,0.0,0.0014603611196974918,0.018006885051381146,0.00010517482842657633,0.0,0.0,0.0,0.0,0.0,0.0,0.0,0.0,0.0
9.059,263,9,57000000,base_footprint,-0.0038530919000678687,-5.669401280351757e-06,0.9999924735121138,0.000454499496136535,0.0,0.0,0.0,0.0,0.0,0.0,0.0,0.0,0.0,-0.0005141853332033181,-0.0001385231759062804,0.07573446267888818,0.0,0.0,0.0,0.0,0.0,0.0,0.0,0.0,0.0,0.0031136607850823016,0.01775222602208423,7.497209656130114e-06,0.0,0.0,0.0,0.0,0.0,0.0,0.0,0.0,0.0
9.091,264,9,91000000,base_footprint,-0.0038534822668848524,-1.0668633577527655e-05,0.9999922281915932,-0.0008331368506477195,0.0,0.0,0.0,0.0,0.0,0.0,0.0,0.0,0.0,-0.0005502942209280703,-0.00016230452301348468,0.07566801498906384,0.0,0.0,0.0,0.0,0.0,0.0,0.0,0.0,0.0,0.0013121170529357391,0.016588702196337218,-2.9497727505096014e-05,0.0,0.0,0.0,0.0,0.0,0.0,0.0,0.0,0.0
9.125,265,9,125000000,base_footprint,-0.0038541406023271108,-1.566693369390203e-05,0.9999903268454886,-0.0021193324934178203,0.0,0.0,0.0,0.0,0.0,0.0,0.0,0.0,0.0,-0.0005800101168943238,-0.00010453746787985825,0.07559559619966191,0.0,0.0,0.0,0.0,0.0,0.0,0.0,0.0,0.0,0.0011866790071311897,0.016636530746465376,-0.00026469452211277776,0.0,0.0,0.0,0.0,0.0,0.0,0.0,0.0,0.0
9.158,266,9,159000000,base_footprint,-0.0038549962676622,-2.0402436489725083e-05,0.999986932939197,-0.003357460107726148,0.0,0.0,0.0,0.0,0.0,0.0,0.0,0.0,0.0,-0.0005719096862801491,-0.00010867040350665267,0.06694340232342165,0.0,0.0,0.0,0.0,0.0,0.0,0.0,0.0,0.0,0.0034953867589884373,0.01613095795197253,-8.690978130363868e-05,0.0,0.0,0.0,0.0,0.0,0.0,0.0,0.0,0.0
9.193,267,9,193000000,base_footprint,-0.0038562301046439853,-2.4815758695528266e-05,0.9999824545372262,-0.00449660886250688,0.0,0.0,0.0,0.0,0.0,0.0,0.0,0.0,0.0,-0.0005167215389319019,-7.685369353020803e-05,0.06709772799786157,0.0,0.0,0.0,0.0,0.0,0.0,0.0,0.0,0.0,-0.0001615607467316096,0.014649044339981786,-6.095991189621419e-05,0.0,0.0,0.0,0.0,0.0,0.0,0.0,0.0,0.0
9.227,268,9,227000000,base_footprint,-0.003857397801702896,-2.926488832972562e-05,0.9999766693927095,-0.005637401531692493,0.0,0.0,0.0,0.0,0.0,0.0,0.0,0.0,0.0,-0.0005550359618640179,-3.824961676447601e-05,0.06719403694604009,0.0,0.0,0.0,0.0,0.0,0.0,0.0,0.0,0.0,-0.001769233396660491,0.014653453711823737,-0.0001992539958687133,0.0,0.0,0.0,0.0,0.0,0.0,0.0,0.0,0.0
9.261,269,9,261000000,base_footprint,-0.0038598737574528845,-3.348267300031013e-05,0.9999702244875096,-0.006682094872633905,0.0,0.0,0.0,0.0,0.0,0.0,0.0,0.0,0.0,0.00012422941634713006,0.00030252299986458013,0.046177982958854884,0.0,0.0,0.0,0.0,0.0,0.0,0.0,0.0,0.0,-0.0011192750480046023,0.014070218613747666,-0.0005184419157961605,0.0,0.0,0.0,0.0,0.0,0.0,0.0,0.0,0.0
9.295,270,9,295000000,base_footprint,-0.0038588669019913265,-3.528437189088238e-05,0.9999645449399824,-0.007484434796283167,0.0,0.0,0.0,0.0,0.0,0.0,0.0,0.0,0.0,-0.00010596648125649296,-0.0008254012323403554,0.04953831643579709,0.0,0.0,0.0,0.0,0.0,0.0,0.0,0.0,0.0,-0.034980799366138585,0.009373576725091742,0.0019134469440060986,0.0,0.0,0.0,0.0,0.0,0.0,0.0,0.0,0.0
9.329,271,9,329000000,base_footprint,-0.003856788814461582,-3.8752420262056266e-05,0.9999579105880892,-0.008324706036473185,0.0,0.0,0.0,0.0,0.0,0.0,0.0,0.0,0.0,-0.0001763931968124002,0.0013287691151351315,0.05304824435505258,0.0,0.0,0.0,0.0,0.0,0.0,0.0,0.0,0.0,0.04306531254166258,0.011857667925408264,-0.0033388948551035303,0.0,0.0,0.0,0.0,0.0,0.0,0.0,0.0,0.0
9.363,272,9,363000000,base_footprint,-0.0038603717556840436,-4.611521627486336e-05,0.9999476664098849,-0.009474167230973506,0.0,0.0,0.0,0.0,0.0,0.0,0.0,0.0,0.0,-0.001096841573764472,-0.0007753109916753913,0.11361651087972913,0.0,0.0,0.0,0.0,0.0,0.0,0.0,0.0,0.0,-0.15298186533687833,0.008146271651847569,0.0023031559963076,0.0,0.0,0.0,0.0,0.0,0.0,0.0,0.0,0.0
9.397,273,9,397000000,base_footprint,-0.0038510386800843883,-5.048250156742254e-05,0.9999243642274306,-0.011680444211176323,0.0,0.0,0.0,0.0,0.0,0.0,0.0,0.0,0.0,-0.002869955495644265,-0.002449105195960881,0.03972873933295046,0.0,0.0,0.0,0.0,0.0,0.0,0.0,0.0,0.0,-0.20390482633932847,0.01960095553330539,-0.0009325380685141012,0.0,0.0,0.0,0.0,0.0,0.0,0.0,0.0,0.0
9.431000000000001,274,9,431000000,base_footprint,-0.0038533247472735824,-5.500151166417456e-05,0.9999158526041931,-0.012386951766098088,0.0,0.0,0.0,0.0,0.0,0.0,0.0,0.0,0.0,-0.0003039856175550402,-0.00012898585413264487,0.041305583119636384,0.0,0.0,0.0,0.0,0.0,0.0,0.0,0.0,0.0,0.006634384204196801,0.008786346504726839,-0.0016203094521746288,0.0,0.0,0.0,0.0,0.0,0.0,0.0,0.0,0.0
9.465,275,9,465000000,base_footprint,-0.0038529180011595042,-5.725497799897812e-05,0.9999084619182822,-0.012969947145578628,0.0,0.0,0.0,0.0,0.0,0.0,0.0,0.0,0.0,-0.00015443514083328364,-0.0003201658858271701,0.02716568604926737,0.0,0.0,0.0,0.0,0.0,0.0,0.0,0.0,0.0,0.004422654559754333,0.007498205422711526,0.00045675320174933453,0.0,0.0,0.0,0.0,0.0,0.0,0.0,0.0,0.0
9.499,276,9,499000000,base_footprint,-0.0038526094164710446,-5.9014468137123705e-05,0.9999023732509504,-0.013431227981605823,0.0,0.0,0.0,0.0,0.0,0.0,0.0,0.0,0.0,-0.00015598695309328143,-0.00017800350933083975,0.02708893059117835,0.0,0.0,0.0,0.0,0.0,0.0,0.0,0.0,0.0,0.0009683296640853746,0.0057028834622842115,-0.00011767003160303137,0.0,0.0,0.0,0.0,0.0,0.0,0.0,0.0,0.0
9.532,277,9,533000000,base_footprint,-0.00385260747682614,-6.081777535559439e-05,0.9998960916451024,-0.013890990953739387,0.0,0.0,0.0,0.0,0.0,0.0,0.0,0.0,0.0,-0.000159920196506753,-0.00018523589002147127,0.026986529002348745,0.0,0.0,0.0,0.0,0.0,0.0,0.0,0.0,0.0,0.0009495066280789514,0.005700390119123263,2.5065053289948238e-05,0.0,0.0,0.0,0.0,0.0,0.0,0.0,0.0,0.0
9.567,278,9,567000000,base_footprint,-0.0038527013476811213,-6.284837023241504e-05,0.9998886482909862,-0.014416787479619544,0.0,0.0,0.0,0.0,0.0,0.0,0.0,0.0,0.0,-0.0002193130050548734,0.0015740553564701858,0.0333067075838774,0.0,0.0,0.0,0.0,0.0,0.0,0.0,0.0,0.0,0.3403445145974019,0.026288814832208168,0.0006048100868541694,0.0,0.0,0.0,0.0,0.0,0.0,0.0,0.0,0.0
9.601,279,9,601000000,base_footprint,-0.0038534732361225022,-6.471559807326037e-05,0.9998824691339004,-0.014838951263637871,0.0,0.0,0.0,0.0,0.0,0.0,0.0,0.0,0.0,-0.0001338761061674524,-0.000119515382437457,0.01870629325116193,0.0,0.0,0.0,0.0,0.0,0.0,0.0,0.0,0.0,0.003737655929317888,0.00559354580282558,0.0017176030838707088,0.0,0.0,0.0,0.0,0.0,0.0,0.0,0.0,0.0
9.634,280,9,635000000,base_footprint,-0.0038543982110561697,-6.610452096888807e-05,0.9998777003830513,-0.015156632915137145,0.0,0.0,0.0,0.0,0.0,0.0,0.0,0.0,0.0,-0.00013936861856150444,-8.894950240024079e-05,0.018668245951255418,0.0,0.0,0.0,0.0,0.0,0.0,0.0,0.0,0.0,0.001104193853006959,0.004107608617323566,-0.00010867505009261191,0.0,0.0,0.0,0.0,0.0,0.0,0.0,0.0,0.0
9.667,281,9,669000000,base_footprint,-0.0038552851484321836,-6.71610878003507e-05,0.9998744732121537,-0.01536782627864806,0.0,0.0,0.0,0.0,0.0,0.0,0.0,0.0,0.0,-5.852673308369694e-05,-7.649762256933414e-05,0.008555235670288278,0.0,0.0,0.0,0.0,0.0,0.0,0.0,0.0,0.0,0.004005891585778167,0.002947722469060601,-7.133073097010848e-05,0.0,0.0,0.0,0.0,0.0,0.0,0.0,0.0,0.0
9.703,282,9,703000000,base_footprint,-0.0038563127762610188,-6.790805870788411e-05,0.9998721924715114,-0.015515249352826712,0.0,0.0,0.0,0.0,0.0,0.0,0.0,0.0,0.0,-6.701793333872117e-05,-5.237098510212814e-05,0.008794382066968637,0.0,0.0,0.0,0.0,0.0,0.0,0.0,0.0,0.0,-0.001105632008128542,0.0018251083011779892,-0.00012778240993418139,0.0,0.0,0.0,0.0,0.0,0.0,0.0,0.0,0.0
9.737,283,9,737000000,base_footprint,-0.003857607151061231,-6.889450830121965e-05,0.9998697759900531,-0.015669881372102377,0.0,0.0,0.0,0.0,0.0,0.0,0.0,0.0,0.0,-0.00010123568314906926,2.9868147398517907e-05,0.009649095332160343,0.0,0.0,0.0,0.0,0.0,0.0,0.0,0.0,0.0,-0.0034840226898687804,0.0016344339149661365,-0.00023747888962228443,0.0,0.0,0.0,0.0,0.0,0.0,0.0,0.0,0.0
9.771,284,9,771000000,base_footprint,-0.003857733772236364,-6.965038115841779e-05,0.9998664198141297,-0.0158825554317111,0.0,0.0,0.0,0.0,0.0,0.0,0.0,0.0,0.0,0.0005837333967480254,-0.0004314974560527961,0.021024012943654406,0.0,0.0,0.0,0.0,0.0,0.0,0.0,0.0,0.0,-0.036239794821876684,-0.01414809760066943,0.0009165742504451002,0.0,0.0,0.0,0.0,0.0,0.0,0.0,0.0,0.0
9.804,285,9,805000000,base_footprint,-0.003848938178404911,-6.650400066446116e-05,0.9998614977920721,-0.01619155598177658,0.0,0.0,0.0,0.0,0.0,0.0,0.0,0.0,0.0,-0.00015945185600362363,0.0007584806220660135,0.010252551222284908,0.0,0.0,0.0,0.0,0.0,0.0,0.0,0.0,0.0,0.00921930612010118,0.01975072034231636,-0.0018627484649805996,0.0,0.0,0.0,0.0,0.0,0.0,0.0,0.0,0.0
9.835,286,9,839000000,base_footprint,-0.0038544085887684478,-6.948357547558948e-05,0.9998609998683082,-0.016220963251623366,0.0,0.0,0.0,0.0,0.0,0.0,0.0,0.0,0.0,-1.527946598929754e-05,-6.584197183034968e-05,0.0003994197046664626,0.0,0.0,0.0,0.0,0.0,0.0,0.0,0.0,0.0,0.02219955861679135,0.0016999266995580728,0.0012934259003563472,0.0,0.0,0.0,0.0,0.0,0.0,0.0,0.0,0.0
9.873,287,9,873000000,base_footprint,-0.0038539373507789514,-6.955056035740365e-05,0.9998609087090494,-0.016226692981931412,0.0,0.0,0.0,0.0,0.0,0.0,0.0,0.0,0.0,1.212546734374954e-05,-0.00011630589019883983,0.00029659897048629324,0.0,0.0,0.0,0.0,0.0,0.0,0.0,0.0,0.0,0.0008043636789410217,0.0001532490590309938,0.00016021084882894028,0.0,0.0,0.0,0.0,0.0,0.0,0.0,0.0,0.0
9.919,288,9,907000000,base_footprint,-0.0038531876476130887,-6.955177941019227e-05,0.999860837593909,-0.01623125237032498,0.0,0.0,0.0,0.0,0.0,0.0,0.0,0.0,0.0,1.2434637149610988e-05,-0.00010583439074163492,0.0002198623544770283,0.0,0.0,0.0,0.0,0.0,0.0,0.0,0.0,0.0,0.0010601509614852035,0.00014575104077829728,2.8004611677540295e-05,0.0,0.0,0.0,0.0,0.0,0.0,0.0,0.0,0.0
9.942,289,9,941000000,base_footprint,-0.0038527050371118393,-6.958284099694559e-05,0.9998607919536453,-0.016234178019068395,0.0,0.0,0.0,0.0,0.0,0.0,0.0,0.0,0.0,-9.882140494848782e-06,-0.00016212685878792804,0.00011333356029771393,0.0,0.0,0.0,0.0,0.0,0.0,0.0,0.0,0.0,0.0012058899892734047,7.922920767387309e-05,0.0002246246950074712,0.0,0.0,0.0,0.0,0.0,0.0,0.0,0.0,0.0
9.977,290,9,975000000,base_footprint,-0.0038525148672684103,-6.919624348645584e-05,0.99986245823361,-0.016131272613155202,0.0,0.0,0.0,0.0,0.0,0.0,0.0,0.0,0.0,0.00010361027582441156,-0.00016925145438422806,-0.00774575016871384,0.0,0.0,0.0,0.0,0.0,0.0,0.0,0.0,0.0,0.0033643638068591407,-0.0010061114285506202,0.00013235649831938392,0.0,0.0,0.0,0.0,0.0,0.0,0.0,0.0,0.0
10.006,291,10,9000000,base_footprint,-0.003852531029655657,-6.872405303068848e-05,0.9998645880400598,-0.01599871448434528,0.0,0.0,0.0,0.0,0.0,0.0,0.0,0.0,0.0,0.00010905593877340761,-0.00017665023207913215,-0.00787295257000465,0.0,0.0,0.0,0.0,0.0,0.0,0.0,0.0,0.0,0.0014417543291902427,-0.0016172043138777497,1.9662347636521975e-05,0.0,0.0,0.0,0.0,0.0,0.0,0.0,0.0,0.0
10.043,292,10,43000000,base_footprint,-0.0038528975474226962,-6.831473219356225e-05,0.9998667322119793,-0.01586405778243876,0.0,0.0,0.0,0.0,0.0,0.0,0.0,0.0,0.0,7.95926257407457e-05,-0.00016708362078250282,-0.007996865841214753,0.0,0.0,0.0,0.0,0.0,0.0,0.0,0.0,0.0,0.0014980050187921134,-0.0016727388271215722,-7.160848637919555e-05,0.0,0.0,0.0,0.0,0.0,0.0,0.0,0.0,0.0
10.077,293,10,77000000,base_footprint,-0.0038536229596198932,-6.92440246627521e-05,0.9998632075924316,-0.016084492479528593,0.0,0.0,0.0,0.0,0.0,0.0,0.0,0.0,0.0,-0.0002860174523515337,-0.0001411827614103956,0.03329266814261702,0.0,0.0,0.0,0.0,0.0,0.0,0.0,0.0,0.0,-0.35081539817792706,-0.02019842917057158,-0.002970528158238015,0.0,0.0,0.0,0.0,0.0,0.0,0.0,0.0,0.0
10.111,294,10,111000000,base_footprint,-0.003854359306053554,-6.932214326940422e-05,0.9998637749537252,-0.01604900757263497,0.0,0.0,0.0,0.0,0.0,0.0,0.0,0.0,0.0,6.820548268927252e-05,-9.298535642081699e-05,-0.008349319861236534,0.0,0.0,0.0,0.0,0.0,0.0,0.0,0.0,0.0,0.013415482810699129,0.0008878895733760456,-1.1971671692794787e-05,0.0,0.0,0.0,0.0,0.0,0.0,0.0,0.0,0.0
10.145,295,10,145000000,base_footprint,-0.003855564745903346,-6.898673272534617e-05,0.9998660350867867,-0.015907285788263913,0.0,0.0,0.0,0.0,0.0,0.0,0.0,0.0,0.0,6.813734449119386e-05,-7.088983158061668e-05,-0.008286837339754325,0.0,0.0,0.0,0.0,0.0,0.0,0.0,0.0,0.0,0.0005924393734426756,-0.0017470874366480712,-9.325004530180887e-05,0.0,0.0,0.0,0.0,0.0,0.0,0.0,0.0,0.0
10.186,296,10,179000000,base_footprint,-0.0038565708562898707,-6.867888296008881e-05,0.9998681661797812,-0.015772520557060216,0.0,0.0,0.0,0.0,0.0,0.0,0.0,0.0,0.0,5.901807466372153e-05,-5.668319394613472e-05,-0.007791544095553308,0.0,0.0,0.0,0.0,0.0,0.0,0.0,0.0,0.0,-0.0012345693893322193,-0.0017622433934795171,-0.00010798144405442475,0.0,0.0,0.0,0.0,0.0,0.0,0.0,0.0,0.0
10.215,297,10,213000000,base_footprint,-0.0038576770063644453,-6.858673729278106e-05,0.9998701745415407,-0.015644413898995544,0.0,0.0,0.0,0.0,0.0,0.0,0.0,0.0,0.0,3.2354445946031244e-05,6.4375187436538295e-06,-0.007098593699677174,0.0,0.0,0.0,0.0,0.0,0.0,0.0,0.0,0.0,-0.003089796048928754,-0.0019901920872730412,-0.00020127138731756132,0.0,0.0,0.0,0.0,0.0,0.0,0.0,0.0,0.0
10.248,298,10,247000000,base_footprint,-0.003859072997226228,-6.901902381710155e-05,0.999871252123183,-0.015575043165101986,0.0,0.0,0.0,0.0,0.0,0.0,0.0,0.0,0.0,0.0001452206290070695,-0.0001387566542275022,0.0027117643477028736,0.0,0.0,0.0,0.0,0.0,0.0,0.0,0.0,0.0,-0.026470785671151766,-0.012855281923256525,0.0002087368502418019,0.0,0.0,0.0,0.0,0.0,0.0,0.0,0.0,0.0
10.282,299,10,281000000,base_footprint,-0.0038454531777569953,-6.756716022206057e-05,0.9998669163334885,-0.01585425956320695,0.0,0.0,0.0,0.0,0.0,0.0,0.0,0.0,0.0,-0.00017740867058763687,-0.00027551201991994243,0.028809059510537794,0.0,0.0,0.0,0.0,0.0,0.0,0.0,0.0,0.0,0.03818929321717003,0.01734338478290222,0.0007520323597240048,0.0,0.0,0.0,0.0,0.0,0.0,0.0,0.0,0.0
10.316,300,10,315000000,base_footprint,-0.003844771783022263,-7.050938841656249e-05,0.9998550283288189,-0.016587196385751145,0.0,0.0,0.0,0.0,0.0,0.0,0.0,0.0,0.0,-0.0003897400420399932,-0.00023526556178420484,0.057297806732529884,0.0,0.0,0.0,0.0,0.0,0.0,0.0,0.0,0.0,0.21527426095293642,0.021997755414077738,0.0016079380797384998,0.0,0.0,0.0,0.0,0.0,0.0,0.0,0.0,0.0
10.349,301,10,349000000,base_footprint,-0.003853707281793886,-7.420969036542029e-05,0.9998360432712273,-0.017692654092717974,0.0,0.0,0.0,0.0,0.0,0.0,0.0,0.0,0.0,0.0018201696248069453,0.00029851383645906903,0.05892714419065307,0.0,0.0,0.0,0.0,0.0,0.0,0.0,0.0,0.0,0.08796797254692279,0.020571656441979308,0.0006970273229684422,0.0,0.0,0.0,0.0,0.0,0.0,0.0,0.0,0.0
10.385,302,10,383000000,base_footprint,-0.0038530438735807763,-7.893136027614357e-05,0.9998194930367729,-0.018604546929162264,0.0,0.0,0.0,0.0,0.0,0.0,0.0,0.0,0.0,-0.0004008220221164905,-0.00013045683131974903,0.053727340711837476,0.0,0.0,0.0,0.0,0.0,0.0,0.0,0.0,0.0,0.0021450278290586692,0.011558697165980196,-0.00030417642726747414,0.0,0.0,0.0,0.0,0.0,0.0,0.0,0.0,0.0
10.415,303,10,417000000,base_footprint,-0.003852469027638871,-8.243855729491356e-05,0.9998020965963306,-0.0195171547070066,0.0,0.0,0.0,0.0,0.0,0.0,0.0,0.0,0.0,-0.00039172533907358794,-0.0001615430464778961,0.05365204468004674,0.0,0.0,0.0,0.0,0.0,0.0,0.0,0.0,0.0,0.00029608658601264584,0.011825157837239263,0.0001506299697179551,0.0,0.0,0.0,0.0,0.0,0.0,0.0,0.0,0.0
10.451,304,10,451000000,base_footprint,-0.003852238978210282,-8.627793887764498e-05,0.9997836507735266,-0.020440265578781758,0.0,0.0,0.0,0.0,0.0,0.0,0.0,0.0,0.0,-0.0002503981635585162,-4.1342541582460246e-05,0.06217280227021062,0.0,0.0,0.0,0.0,0.0,0.0,0.0,0.0,0.0,-0.001904374701815332,0.011747163523060065,-6.959996497224302e-05,0.0,0.0,0.0,0.0,0.0,0.0,0.0,0.0,0.0
10.485,305,10,485000000,base_footprint,-0.0038519822775682925,-9.000386537608039e-05,0.9997615325577159,-0.021494933116544872,0.0,0.0,0.0,0.0,0.0,0.0,0.0,0.0,0.0,-0.00042641627061256056,-0.00020283746934298763,0.06198670836954194,0.0,0.0,0.0,0.0,0.0,0.0,0.0,0.0,0.0,9.983377877065546e-05,0.013637904947985129,0.00025568618946055513,0.0,0.0,0.0,0.0,0.0,0.0,0.0,0.0,0.0
10.519,306,10,519000000,base_footprint,-0.003852155915417493,-9.412608174616905e-05,0.999738345231836,-0.022547574330609846,0.0,0.0,0.0,0.0,0.0,0.0,0.0,0.0,0.0,-0.00041097110861918357,-0.00018916087159084384,0.06188118594345645,0.0,0.0,0.0,0.0,0.0,0.0,0.0,0.0,0.0,0.00017424423765797278,0.013659986641211602,-5.99249959022875e-05,0.0,0.0,0.0,0.0,0.0,0.0,0.0,0.0,0.0
10.553,307,10,553000000,base_footprint,-0.003852502926781218,-9.818751553748904e-05,0.9997145501344379,-0.023578948872020604,0.0,0.0,0.0,0.0,0.0,0.0,0.0,0.0,0.0,-6.391966572051358e-05,-7.632253934528167e-05,0.0533932776952951,0.0,0.0,0.0,0.0,0.0,0.0,0.0,0.0,0.0,0.0023491849339614063,0.013774296308028677,-3.0170255034523926e-05,0.0,0.0,0.0,0.0,0.0,0.0,0.0,0.0,0.0
10.587,308,10,587000000,base_footprint,-0.0038534178343257136,-0.00010182395445460048,0.9996926450364868,-0.024489921658291957,0.0,0.0,0.0,0.0,0.0,0.0,0.0,0.0,0.0,-0.0003923891475040022,-0.00010957071482486539,0.0535877197200183,0.0,0.0,0.0,0.0,0.0,0.0,0.0,0.0,0.0,0.00012678719061027448,0.011750920990845227,-0.0003341478399359784,0.0,0.0,0.0,0.0,0.0,0.0,0.0,0.0,0.0
10.619,309,10,621000000,base_footprint,-0.0038545572316723517,-0.00010546330571091793,0.9996699382014222,-0.02539972288044842,0.0,0.0,0.0,0.0,0.0,0.0,0.0,0.0,0.0,-0.0003963199153098194,-8.454625178137673e-05,0.053478298162602335,0.0,0.0,0.0,0.0,0.0,0.0,0.0,0.0,0.0,-0.000363558916096199,0.011762413086337159,-0.00010887304199790639,0.0,0.0,0.0,0.0,0.0,0.0,0.0,0.0,0.0
10.655,310,10,655000000,base_footprint,-0.003855526478147257,-0.00010929236105963003,0.9996470909281208,-0.026283389615911226,0.0,0.0,0.0,0.0,0.0,0.0,0.0,0.0,0.0,0.0003364638402586016,0.00013211378502623618,0.043480288248139105,0.0,0.0,0.0,0.0,0.0,0.0,0.0,0.0,0.0,0.0002667662899653458,0.011634147403792702,-6.38854317891474e-05,0.0,0.0,0.0,0.0,0.0,0.0,0.0,0.0,0.0
10.689,311,10,689000000,base_footprint,-0.003856434447180572,-0.0001127295367188813,0.9996262555048718,-0.02706408156053241,0.0,0.0,0.0,0.0,0.0,0.0,0.0,0.0,0.0,-0.00038071164803542127,-2.364876875379447e-05,0.04744359510708358,0.0,0.0,0.0,0.0,0.0,0.0,0.0,0.0,0.0,0.0008641395968120632,0.00970264813875332,-0.00019433849942142322,0.0,0.0,0.0,0.0,0.0,0.0,0.0,0.0,0.0
10.723,312,10,723000000,base_footprint,-0.003858454273815782,-0.0001164302874018068,0.9996039512708605,-0.0278754260646933,0.0,0.0,0.0,0.0,0.0,0.0,0.0,0.0,0.0,-0.00047668932913955803,-9.932782573756957e-05,0.04842532954105158,0.0,0.0,0.0,0.0,0.0,0.0,0.0,0.0,0.0,-0.02200196038479344,0.004805127125318495,3.118773837250845e-05,0.0,0.0,0.0,0.0,0.0,0.0,0.0,0.0,0.0
10.757,313,10,757000000,base_footprint,-0.003863160153783468,-0.0001194932179697935,0.9995757173359795,-0.02886948262887853,0.0,0.0,0.0,0.0,0.0,0.0,0.0,0.0,0.0,-0.00016739212263215282,-0.003085438613627559,0.057628485249299526,0.0,0.0,0.0,0.0,0.0,0.0,0.0,0.0,0.0,-0.10767833990401293,0.002609720354157895,0.003480119118278284,0.0,0.0,0.0,0.0,0.0,0.0,0.0,0.0,0.0
10.791,314,10,791000000,base_footprint,-0.003846316187905554,-0.00011940987902209206,0.9995510505750396,-0.029713446239005636,0.0,0.0,0.0,0.0,0.0,0.0,0.0,0.0,0.0,0.00012671458489559202,0.0030686089407937246,0.0470436623559998,0.0,0.0,0.0,0.0,0.0,0.0,0.0,0.0,0.0,-0.23564924531049258,-0.01564326548738083,-0.009075284834876993,0.0,0.0,0.0,0.0,0.0,0.0,0.0,0.0,0.0
10.825,315,10,825000000,base_footprint,-0.00385290307456363,-0.00012436543821414632,0.999531067051046,-0.030377387493550827,0.0,0.0,0.0,0.0,0.0,0.0,0.0,0.0,0.0,-0.00030858696172548583,-9.634192107803362e-05,0.03885023866726146,0.0,0.0,0.0,0.0,0.0,0.0,0.0,0.0,0.0,0.013323267035276963,0.009784165370165316,0.0032493439028401824,0.0,0.0,0.0,0.0,0.0,0.0,0.0,0.0,0.0
10.859,316,10,859000000,base_footprint,-0.003851794856774638,-0.00012650725408465757,0.9995134350684255,-0.030952234006811765,0.0,0.0,0.0,0.0,0.0,0.0,0.0,0.0,0.0,-0.00012798354003321706,0.0005310746054399278,0.022842312585166925,0.0,0.0,0.0,0.0,0.0,0.0,0.0,0.0,0.0,0.004648657852449865,0.007880532198275765,-0.0005934416615717483,0.0,0.0,0.0,0.0,0.0,0.0,0.0,0.0,0.0
10.893,317,10,893000000,base_footprint,-0.0038513137379484106,-0.00012788336381245642,0.9995013841375582,-0.03133901937589521,0.0,0.0,0.0,0.0,0.0,0.0,0.0,0.0,0.0,-0.00020720816845415114,-0.00014889721340061702,0.02272936437669921,0.0,0.0,0.0,0.0,0.0,0.0,0.0,0.0,0.0,-6.472757411759596e-05,0.00469814348348689,0.0008738931830324565,0.0,0.0,0.0,0.0,0.0,0.0,0.0,0.0,0.0
10.927,318,10,927000000,base_footprint,-0.003850970782926629,-0.00012930639738095823,0.9994892323766028,-0.03172424415355017,0.0,0.0,0.0,0.0,0.0,0.0,0.0,0.0,0.0,-0.00015198031843442045,-0.00017389643699396558,0.022645067471662055,0.0,0.0,0.0,0.0,0.0,0.0,0.0,0.0,0.0,0.0005305398284605727,0.004852026924368724,0.00014207859670057295,0.0,0.0,0.0,0.0,0.0,0.0,0.0,0.0,0.0
10.961,319,10,961000000,base_footprint,-0.0038488872195212034,-0.00013110433357426706,0.9994742555516966,-0.03219287760060043,0.0,0.0,0.0,0.0,0.0,0.0,0.0,0.0,0.0,-0.0007227243468658417,0.0008174020559028889,0.06163381632476771,0.0,0.0,0.0,0.0,0.0,0.0,0.0,0.0,0.0,0.24543234384558915,0.03732865044169564,0.0001616204475534456,0.0,0.0,0.0,0.0,0.0,0.0,0.0,0.0,0.0
10.995000000000001,320,10,995000000,base_footprint,-0.0038506596925295235,-0.00013720488639648403,0.9994212868068161,-0.033797116329053876,0.0,0.0,0.0,0.0,0.0,0.0,0.0,0.0,0.0,-0.000674366298045336,-0.000252754721902332,0.0966876240057114,0.0,0.0,0.0,0.0,0.0,0.0,0.0,0.0,0.0,0.07205761649844679,0.0298794440741642,0.0024006698455081655,0.0,0.0,0.0,0.0,0.0,0.0,0.0,0.0,0.0
11.029,321,11,29000000,base_footprint,-0.003851004928771285,-0.0001435880095233996,0.9993644259528998,-0.0354385846691588,0.0,0.0,0.0,0.0,0.0,0.0,0.0,0.0,0.0,-0.0006898082288018664,-0.00017206357419735703,0.09658428998355721,0.0,0.0,0.0,0.0,0.0,0.0,0.0,0.0,0.0,-0.0015987020746424407,0.021173138190879102,-0.0002845247243414047,0.0,0.0,0.0,0.0,0.0,0.0,0.0,0.0,0.0
11.063,322,11,63000000,base_footprint,-0.003851533178786482,-0.00014995611171132536,0.9993049689482951,-0.037077246939117486,0.0,0.0,0.0,0.0,0.0,0.0,0.0,0.0,0.0,-0.000705438691719403,-0.00014832242204473861,0.09634661467405607,0.0,0.0,0.0,0.0,0.0,0.0,0.0,0.0,0.0,-0.0016388400790476871,0.02113265236119893,-0.0001581639611508426,0.0,0.0,0.0,0.0,0.0,0.0,0.0,0.0,0.0
11.096,323,11,97000000,base_footprint,-0.0038523810313447564,-0.00015631372968881273,0.9992429582797397,-0.03871233724230136,0.0,0.0,0.0,0.0,0.0,0.0,0.0,0.0,0.0,-0.0007053676722387581,-0.00012731211091138552,0.0961499113241422,0.0,0.0,0.0,0.0,0.0,0.0,0.0,0.0,0.0,-0.0022273536659517625,0.021005922244905363,-0.00011135349768805983,0.0,0.0,0.0,0.0,0.0,0.0,0.0,0.0,0.0
11.131,324,11,131000000,base_footprint,-0.003853292167036178,-0.00016284568767037806,0.9991784225170293,-0.04034359425160975,0.0,0.0,0.0,0.0,0.0,0.0,0.0,0.0,0.0,-0.0006942190964104825,-0.00011326807030091335,0.09599405926661934,0.0,0.0,0.0,0.0,0.0,0.0,0.0,0.0,0.0,-0.003876787240223619,0.02064429303830714,-0.00011337868212966459,0.0,0.0,0.0,0.0,0.0,0.0,0.0,0.0,0.0
11.165,325,11,165000000,base_footprint,-0.003854223960578116,-0.0001688168455595723,0.9991139333112344,-0.04191019830409516,0.0,0.0,0.0,0.0,0.0,0.0,0.0,0.0,0.0,-0.000668138728831504,0.00016969123548990484,0.08764537082063768,0.0,0.0,0.0,0.0,0.0,0.0,0.0,0.0,0.0,-0.004781748818288692,0.01958579301992019,-0.0006541974141179642,0.0,0.0,0.0,0.0,0.0,0.0,0.0,0.0,0.0
11.199,326,11,199000000,base_footprint,-0.0038538361572809255,-0.00017631106110222155,0.9990514111422186,-0.043375047619851004,0.0,0.0,0.0,0.0,0.0,0.0,0.0,0.0,0.0,-0.000988365825949308,-0.0006249706633908353,0.08264696818766264,0.0,0.0,0.0,0.0,0.0,0.0,0.0,0.0,0.0,-0.01856565712773816,0.016245338104384385,0.0010962076075365884,0.0,0.0,0.0,0.0,0.0,0.0,0.0,0.0,0.0
