Time,header.seq,header.stamp.secs,header.stamp.nsecs,header.frame_id,orientation.x,orientation.y,orientation.z,orientation.w,orientation_covariance_0,orientation_covariance_1,orientation_covariance_2,orientation_covariance_3,orientation_covariance_4,orientation_covariance_5,orientation_covariance_6,orientation_covariance_7,orientation_covariance_8,angular_velocity.x,angular_velocity.y,angular_velocity.z,angular_velocity_covariance_0,angular_velocity_covariance_1,angular_velocity_covariance_2,angular_velocity_covariance_3,angular_velocity_covariance_4,angular_velocity_covariance_5,angular_velocity_covariance_6,angular_velocity_covariance_7,angular_velocity_covariance_8,linear_acceleration.x,linear_acceleration.y,linear_acceleration.z,linear_acceleration_covariance_0,linear_acceleration_covariance_1,linear_acceleration_covariance_2,linear_acceleration_covariance_3,linear_acceleration_covariance_4,linear_acceleration_covariance_5,linear_acceleration_covariance_6,linear_acceleration_covariance_7,linear_acceleration_covariance_8
0.198,0,0,197000000,base_footprint,0.000498467863433406,-0.0012229025969464164,0.38249800811716206,0.9239553722044324,0.0,0.0,0.0,0.0,0.0,0.0,0.0,0.0,0.0,0.15725338787075932,-0.00022044429638393148,0.0002175705522602899,0.0,0.0,0.0,0.0,0.0,0.0,0.0,0.0,0.0,0.0002594324379267558,0.003447467910432099,-0.1395094047636926,0.0,0.0,0.0,0.0,0.0,0.0,0.0,0.0,0.0
0.231,1,0,231000000,base_footprint,0.0003462103940021434,-0.0008911411221003866,0.3825022684985469,0.9239540576237159,0.0,0.0,0.0,0.0,0.0,0.0,0.0,0.0,0.0,-0.04765515104793988,-0.00041503919258329205,-0.0003791205618148427,0.0,0.0,0.0,0.0,0.0,0.0,0.0,0.0,0.0,-4.19865733988908e-06,-0.0026434083760728615,0.005238250270914464,0.0,0.0,0.0,0.0,0.0,0.0,0.0,0.0,0.0
0.265,2,0,265000000,base_footprint,2.8043437440561417e-05,-0.00014326334150858291,0.38249794937553677,0.9239563287367483,0.0,0.0,0.0,0.0,0.0,0.0,0.0,0.0,0.0,-0.0476338401635375,-0.00041474646552176406,-0.00032502995833118953,0.0,0.0,0.0,0.0,0.0,0.0,0.0,0.0,0.0,-3.235005905345588e-05,-0.00018239600995602947,6.0875331731573935e-05,0.0,0.0,0.0,0.0,0.0,0.0,0.0,0.0,0.0
0.29900000000000004,3,0,299000000,base_footprint,-0.00039705935057427047,0.0008547041792529338,0.38249442167794223,0.9239573200153213,0.0,0.0,0.0,0.0,0.0,0.0,0.0,0.0,0.0,-0.06779321419405095,-0.0005641778787346119,-0.00014952347170426675,0.0,0.0,0.0,0.0,0.0,0.0,0.0,0.0,0.0,-1.2029700539674978e-06,-0.0010103511549608426,0.0029833354621758845,0.0,0.0,0.0,0.0,0.0,0.0,0.0,0.0,0.0
0.333,4,0,333000000,base_footprint,-0.0008484970648985681,0.001917015532981484,0.38249035151540134,0.9239571072846412,0.0,0.0,0.0,0.0,0.0,0.0,0.0,0.0,0.0,-0.0677173478763443,-0.000563711856781765,-4.775580273187799e-05,0.0,0.0,0.0,0.0,0.0,0.0,0.0,0.0,0.0,-2.1663269716694087e-05,-0.00025817152199388954,0.00015020899336987936,0.0,0.0,0.0,0.0,0.0,0.0,0.0,0.0,0.0
0.36700000000000005,5,0,367000000,base_footprint,-0.0012994387123463616,0.002978126465016501,0.3824855980841554,0.9239557400005681,0.0,0.0,0.0,0.0,0.0,0.0,0.0,0.0,0.0,-0.06764114643047689,-0.0005635531574131568,4.990423820348021e-05,0.0,0.0,0.0,0.0,0.0,0.0,0.0,0.0,0.0,-2.2943065727614554e-06,-0.00026760163475130616,0.00015254357955693838,0.0,0.0,0.0,0.0,0.0,0.0,0.0,0.0,0.0
0.4,6,0,401000000,base_footprint,-0.0014944602216874952,0.003589401774954526,0.38247815071905467,0.923956355574264,0.0,0.0,0.0,0.0,0.0,0.0,0.0,0.0,0.0,0.02997515081354398,-6.112765139048605e-05,-0.0007675649711220907,0.0,0.0,0.0,0.0,0.0,0.0,0.0,0.0,0.0,-0.0049658174056031726,0.00811022193569677,0.1309052059465194,0.0,0.0,0.0,0.0,0.0,0.0,0.0,0.0,0.0
0.43500000000000005,7,0,435000000,base_footprint,-0.0014832202973153598,0.0035643228047841425,0.3824741649703157,0.9239581206909503,0.0,0.0,0.0,0.0,0.0,0.0,0.0,0.0,0.0,-5.944687672427894e-05,4.3714284812857e-05,5.24689056068754e-05,0.0,0.0,0.0,0.0,0.0,0.0,0.0,0.0,0.0,0.0056503639086431245,-0.006226544944898106,0.000845350617240816,0.0,0.0,0.0,0.0,0.0,0.0,0.0,0.0,0.0
0.46900000000000003,8,0,469000000,base_footprint,-0.0014833336039775918,0.0035643949862565836,0.3824770122524743,0.9239569415877679,0.0,0.0,0.0,0.0,0.0,0.0,0.0,0.0,0.0,0.00019005379312111146,3.285800496257011e-05,0.00027196394651294784,0.0,0.0,0.0,0.0,0.0,0.0,0.0,0.0,0.0,-0.00042773014962259505,-5.042600587323619e-05,0.00024425189549178995,0.0,0.0,0.0,0.0,0.0,0.0,0.0,0.0,0.0
0.503,9,0,503000000,base_footprint,-0.0014833337994168115,0.0035642856867746267,0.38248148924078246,0.9239550887226802,0.0,0.0,0.0,0.0,0.0,0.0,0.0,0.0,0.0,0.00018048963219367077,3.431183464532857e-05,0.0003196996952966285,0.0,0.0,0.0,0.0,0.0,0.0,0.0,0.0,0.0,-9.295205307210461e-05,-1.2731724962685746e-05,-1.45356657030514e-05,0.0,0.0,0.0,0.0,0.0,0.0,0.0,0.0,0.0
0.537,10,0,537000000,base_footprint,-0.001483353956670916,0.0035642535237870076,0.38248636272908937,0.9239530713646278,0.0,0.0,0.0,0.0,0.0,0.0,0.0,0.0,0.0,0.00017855217286402548,3.4658372625741345e-05,0.0003315714185558064,0.0,0.0,0.0,0.0,0.0,0.0,0.0,0.0,0.0,-2.312518364864887e-05,-3.1046537374129907e-06,-3.1124773494117268e-06,0.0,0.0,0.0,0.0,0.0,0.0,0.0,0.0,0.0
0.5710000000000001,11,0,571000000,base_footprint,-0.001483377168086688,0.0035642381585205643,0.38249133460709955,0.9239510131760268,0.0,0.0,0.0,0.0,0.0,0.0,0.0,0.0,0.0,0.0001780803864714593,3.476919993098535e-05,0.00033452704405091796,0.0,0.0,0.0,0.0,0.0,0.0,0.0,0.0,0.0,-5.761062821428705e-06,-7.572084207036368e-07,-7.039777393553152e-07,0.0,0.0,0.0,0.0,0.0,0.0,0.0,0.0,0.0
0.605,12,0,605000000,base_footprint,-0.001483400787731287,0.0035642271344464814,0.3824963310179,0.9239489447826013,0.0,0.0,0.0,0.0,0.0,0.0,0.0,0.0,0.0,0.00017796377710451057,3.4823276580701215e-05,0.0003352712558848574,0.0,0.0,0.0,0.0,0.0,0.0,0.0,0.0,0.0,-1.4492473921002023e-06,-2.0621702581519405e-07,-1.7960742459557878e-07,0.0,0.0,0.0,0.0,0.0,0.0,0.0,0.0,0.0
0.639,13,0,639000000,base_footprint,-0.0014834242007247386,0.003564217316027915,0.3825013336528455,0.9239468737764954,0.0,0.0,0.0,0.0,0.0,0.0,0.0,0.0,0.0,0.00017793602554815098,3.486134595142995e-05,0.0003354671296916,0.0,0.0,0.0,0.0,0.0,0.0,0.0,0.0,0.0,-3.8003275305872244e-07,-6.953306800436207e-08,-4.9319981777705866e-08,0.0,0.0,0.0,0.0,0.0,0.0,0.0,0.0,0.0
0.673,14,0,673000000,base_footprint,-0.0014834472837455567,0.003564207914571063,0.38250633797165867,0.9239448020404732,0.0,0.0,0.0,0.0,0.0,0.0,0.0,0.0,0.0,0.00017793029200008988,3.489369269954674e-05,0.0003355270417403544,0.0,0.0,0.0,0.0,0.0,0.0,0.0,0.0,0.0,-1.1485714795252034e-07,-3.559960637198857e-08,-1.7479154387436966e-08,0.0,0.0,0.0,0.0,0.0,0.0,0.0,0.0,0.0
0.7070000000000001,15,0,707000000,base_footprint,-0.0014834700321401508,0.0035641987235098035,0.38251134284842253,0.9239427300414349,0.0,0.0,0.0,0.0,0.0,0.0,0.0,0.0,0.0,0.0001779300230737007,3.492303127396439e-05,0.0003355532529067585,0.0,0.0,0.0,0.0,0.0,0.0,0.0,0.0,0.0,-4.907201880287692e-08,-2.715337490032646e-08,-9.985563218971148e-09,0.0,0.0,0.0,0.0,0.0,0.0,0.0,0.0,0.0
0.741,16,0,741000000,base_footprint,-0.0014834924682757553,0.0035641896816600294,0.38251634800391876,0.9239406578951674,0.0,0.0,0.0,0.0,0.0,0.0,0.0,0.0,0.0,0.00017793111314370522,3.495018234372356e-05,0.0003355711205327977,0.0,0.0,0.0,0.0,0.0,0.0,0.0,0.0,0.0,-3.2734203851101686e-08,-2.503155444724082e-08,-8.492770378574307e-09,0.0,0.0,0.0,0.0,0.0,0.0,0.0,0.0,0.0
0.775,17,0,775000000,base_footprint,-0.0014835146190366045,0.0035641807648134774,0.3825213533688946,0.9239385856303871,0.0,0.0,0.0,0.0,0.0,0.0,0.0,0.0,0.0,0.00017793254376592544,3.497548319941684e-05,0.0003355869314782389,0.0,0.0,0.0,0.0,0.0,0.0,0.0,0.0,0.0,-2.8660540203520537e-08,-2.4481010782821778e-08,-8.453881904236231e-09,0.0,0.0,0.0,0.0,0.0,0.0,0.0,0.0,0.0
0.811,18,0,809000000,base_footprint,-0.0014835365104458,0.003564171958769213,0.38252635892616527,0.9239365132542178,0.0,0.0,0.0,0.0,0.0,0.0,0.0,0.0,0.0,0.00017793406219596957,3.499913902123607e-05,0.0003356022436576459,0.0,0.0,0.0,0.0,0.0,0.0,0.0,0.0,0.0,-2.7630252094580772e-08,-2.4322605311344637e-08,-8.745175697941134e-09,0.0,0.0,0.0,0.0,0.0,0.0,0.0,0.0,0.0
0.8430000000000001,19,0,843000000,base_footprint,-0.0014835581665160978,0.0035641632525695165,0.38253136467145926,0.9239344407684276,0.0,0.0,0.0,0.0,0.0,0.0,0.0,0.0,0.0,0.0001779356052521309,3.502131069195275e-05,0.00033561744233229814,0.0,0.0,0.0,0.0,0.0,0.0,0.0,0.0,0.0,-2.7356426377013905e-08,-2.426364529749558e-08,-9.090347459478007e-09,0.0,0.0,0.0,0.0,0.0,0.0,0.0,0.0,0.0
0.877,20,0,877000000,base_footprint,-0.0014835796091310647,0.0035641546367505376,0.3825363706037085,0.9239323681734563,0.0,0.0,0.0,0.0,0.0,0.0,0.0,0.0,0.0,0.0001779371572382881,3.504213817694993e-05,0.00033563262218347546,0.0,0.0,0.0,0.0,0.0,0.0,0.0,0.0,0.0,-2.7272034189946823e-08,-2.4231346270987054e-08,-9.42375640744145e-09,0.0,0.0,0.0,0.0,0.0,0.0,0.0,0.0,0.0
0.911,21,0,911000000,base_footprint,-0.0014836008581678368,0.003564146102845473,0.3825413767226405,0.9239302954694137,0.0,0.0,0.0,0.0,0.0,0.0,0.0,0.0,0.0,0.00017793871394871134,3.506174688520834e-05,0.00033564780588917365,0.0,0.0,0.0,0.0,0.0,0.0,0.0,0.0,0.0,-2.723623723461002e-08,-2.4207462266751045e-08,-9.731042512277082e-09,0.0,0.0,0.0,0.0,0.0,0.0,0.0,0.0,0.0
0.9450000000000001,22,0,945000000,base_footprint,-0.001483621931664124,0.003564137643202825,0.3825463830281818,0.9239282226563272,0.0,0.0,0.0,0.0,0.0,0.0,0.0,0.0,0.0,0.00017794027396332478,3.508025013898624e-05,0.00033566299834009324,0.0,0.0,0.0,0.0,0.0,0.0,0.0,0.0,0.0,-2.7213947042233646e-08,-2.418730683853863e-08,-1.0011320787599956e-08,0.0,0.0,0.0,0.0,0.0,0.0,0.0,0.0,0.0
0.9790000000000001,23,0,979000000,base_footprint,-0.0014836428459845332,0.003564129250888625,0.38255138952030926,0.9239261497342033,0.0,0.0,0.0,0.0,0.0,0.0,0.0,0.0,0.0,0.00017794183706086464,3.509775058244869e-05,0.0003356782000203455,0.0,0.0,0.0,0.0,0.0,0.0,0.0,0.0,0.0,-2.7196206228200043e-08,-2.416951653315165e-08,-1.0265838815367243e-08,0.0,0.0,0.0,0.0,0.0,0.0,0.0,0.0,0.0
1.013,24,1,13000000,base_footprint,-0.001483663615974764,0.003564120919614462,0.38255639619901266,0.9239240767030423,0.0,0.0,0.0,0.0,0.0,0.0,0.0,0.0,0.0,0.00017794340272448995,3.511434138562647e-05,0.0003356934104890312,0.0,0.0,0.0,0.0,0.0,0.0,0.0,0.0,0.0,-2.7180875499682292e-08,-2.415367504662789e-08,-1.0497146217128225e-08,0.0,0.0,0.0,0.0,0.0,0.0,0.0,0.0,0.0
1.047,25,1,47000000,base_footprint,-0.0014836842551023649,0.0035641126436761206,0.38256140306428627,0.9239220035628434,0.0,0.0,0.0,0.0,0.0,0.0,0.0,0.0,0.0,0.00017794497073598655,3.513010709503457e-05,0.0003357086291038265,0.0,0.0,0.0,0.0,0.0,0.0,0.0,0.0,0.0,-2.716726098234293e-08,-2.413951709115902e-08,-1.0706769528231041e-08,0.0,0.0,0.0,0.0,0.0,0.0,0.0,0.0,0.0
1.081,26,1,81000000,base_footprint,-0.0014837047755844694,0.003564104417898973,0.3825664101161265,0.9239199303136051,0.0,0.0,0.0,0.0,0.0,0.0,0.0,0.0,0.0,0.00017794654087164346,3.514512432364463e-05,0.00033572385510369864,0.0,0.0,0.0,0.0,0.0,0.0,0.0,0.0,0.0,-2.71548557977144e-08,-2.412684761452703e-08,-1.089737690205257e-08,0.0,0.0,0.0,0.0,0.0,0.0,0.0,0.0,0.0
1.115,27,1,115000000,base_footprint,-0.0014837251885039672,0.0035640962375887357,0.3825714173545306,0.9239178569553248,0.0,0.0,0.0,0.0,0.0,0.0,0.0,0.0,0.0,0.00017794811304284777,3.515946264175758e-05,0.0003357390879774057,0.0,0.0,0.0,0.0,0.0,0.0,0.0,0.0,0.0,-2.7143896902361518e-08,-2.4115563315651737e-08,-1.1070039195771527e-08,0.0,0.0,0.0,0.0,0.0,0.0,0.0,0.0,0.0
1.149,28,1,149000000,base_footprint,-0.0014837455039149253,0.0035640880984870405,0.3825764247794968,0.9239157834879993,0.0,0.0,0.0,0.0,0.0,0.0,0.0,0.0,0.0,0.00017794968696736258,3.51731850424039e-05,0.0003357543270939896,0.0,0.0,0.0,0.0,0.0,0.0,0.0,0.0,0.0,-2.713392121520245e-08,-2.4105493051718894e-08,-1.1226853564409649e-08,0.0,0.0,0.0,0.0,0.0,0.0,0.0,0.0,0.0
1.183,29,1,183000000,base_footprint,-0.0014837657309377424,0.003564079996730611,0.3825814323910249,0.9239137099116261,0.0,0.0,0.0,0.0,0.0,0.0,0.0,0.0,0.0,0.000177951262482637,3.518634888848174e-05,0.0003357695719385573,0.0,0.0,0.0,0.0,0.0,0.0,0.0,0.0,0.0,-2.712495913102322e-08,-2.4096536557428788e-08,-1.1369302406063884e-08,0.0,0.0,0.0,0.0,0.0,0.0,0.0,0.0,0.0
1.217,30,1,217000000,base_footprint,-0.0014837858778463226,0.003564071928814948,0.3825864401891143,0.923911636226201,0.0,0.0,0.0,0.0,0.0,0.0,0.0,0.0,0.0,0.00017795283942759286,3.5199005945410186e-05,0.0003357848221039177,0.0,0.0,0.0,0.0,0.0,0.0,0.0,0.0,0.0,-2.7117021132702657e-08,-2.4088605609732427e-08,-1.1498591671769353e-08,0.0,0.0,0.0,0.0,0.0,0.0,0.0,0.0,0.0
1.251,31,1,251000000,base_footprint,-0.0014838059521462583,0.0035640638915609645,0.3825914481737663,0.9239095624317207,0.0,0.0,0.0,0.0,0.0,0.0,0.0,0.0,0.0,0.00017795441780306463,3.521120339092002e-05,0.00033580007708110856,0.0,0.0,0.0,0.0,0.0,0.0,0.0,0.0,0.0,-2.7109751492166786e-08,-2.4081552510791843e-08,-1.1615745966767842e-08,0.0,0.0,0.0,0.0,0.0,0.0,0.0,0.0,0.0
1.2850000000000001,32,1,285000000,base_footprint,-0.001483825960646372,0.0035640558820844155,0.38259645634498174,0.9239074885281808,0.0,0.0,0.0,0.0,0.0,0.0,0.0,0.0,0.0,0.00017795599735119134,3.52229839294554e-05,0.00033581533657830656,0.0,0.0,0.0,0.0,0.0,0.0,0.0,0.0,0.0,-2.710341319118659e-08,-2.4075356196209647e-08,-1.1722278445577427e-08,0.0,0.0,0.0,0.0,0.0,0.0,0.0,0.0,0.0
1.319,33,1,319000000,base_footprint,-0.0014838459095232609,0.003564047897769065,0.3826014647027626,0.9239054145155768,0.0,0.0,0.0,0.0,0.0,0.0,0.0,0.0,0.0,0.0001779575779708757,3.523438632403885e-05,0.0003358306001732627,0.0,0.0,0.0,0.0,0.0,0.0,0.0,0.0,0.0,-2.7097615538690457e-08,-2.4069881237133807e-08,-1.1818886949152665e-08,0.0,0.0,0.0,0.0,0.0,0.0,0.0,0.0,0.0
1.353,34,1,353000000,base_footprint,-0.0014823089739519747,0.003559908993672719,0.3825403245288769,0.9239307495247705,0.0,0.0,0.0,0.0,0.0,0.0,0.0,0.0,0.0,2.500667338453173e-05,-2.100899434799945e-05,-0.011485319162090448,0.0,0.0,0.0,0.0,0.0,0.0,0.0,0.0,0.0,0.00025548744012851565,0.5040225678959833,-0.00285484049896118,0.0,0.0,0.0,0.0,0.0,0.0,0.0,0.0,0.0
1.387,35,1,387000000,base_footprint,-0.0014811952456673617,0.0035605984444919783,0.38221896149030726,0.9240637389686018,0.0,0.0,0.0,0.0,0.0,0.0,0.0,0.0,0.0,0.00016049984820367758,-0.00011684230512838304,-0.028822674487942793,0.0,0.0,0.0,0.0,0.0,0.0,0.0,0.0,0.0,0.0015575685014060925,0.7494143301930396,-0.003872470141760434,0.0,0.0,0.0,0.0,0.0,0.0,0.0,0.0,0.0
1.421,36,1,421000000,base_footprint,-0.0014792462433575926,0.003562199023794691,0.3816243681885292,0.924309452604144,0.0,0.0,0.0,0.0,0.0,0.0,0.0,0.0,0.0,5.046230398490644e-05,-0.0002134144521263312,-0.04622391416543842,0.0,0.0,0.0,0.0,0.0,0.0,0.0,0.0,0.0,0.0049315915534502985,0.7490702326690664,-0.00413867882230366,0.0,0.0,0.0,0.0,0.0,0.0,0.0,0.0,0.0
1.455,37,1,455000000,base_footprint,-0.0014763668620699178,0.0035644961060186916,0.38075639811047657,0.9246673347784787,0.0,0.0,0.0,0.0,0.0,0.0,0.0,0.0,0.0,-5.767059825622251e-05,-0.0003079521448583266,-0.06353737512299325,0.0,0.0,0.0,0.0,0.0,0.0,0.0,0.0,0.0,0.009883437874321055,0.7407989360335638,-0.004111549456965747,0.0,0.0,0.0,0.0,0.0,0.0,0.0,0.0,0.0
1.489,38,1,489000000,base_footprint,-0.0014726196564641446,0.003567640394939752,0.3796182586238749,0.925135169071383,0.0,0.0,0.0,0.0,0.0,0.0,0.0,0.0,0.0,-0.00019820637890834836,-0.0003988612541563849,-0.08046848100370019,0.0,0.0,0.0,0.0,0.0,0.0,0.0,0.0,0.0,0.016254550874835183,0.713903747232019,-0.004026487459465104,0.0,0.0,0.0,0.0,0.0,0.0,0.0,0.0,0.0
1.5230000000000001,39,1,523000000,base_footprint,-0.0014680596460062358,0.0035717181854538777,0.37821943023088306,0.9257079184202248,0.0,0.0,0.0,0.0,0.0,0.0,0.0,0.0,0.0,-0.00030147616414626024,-0.0004839069353543612,-0.09651721941759363,0.0,0.0,0.0,0.0,0.0,0.0,0.0,0.0,0.0,0.02332215337163135,0.6553001507087257,-0.0036947583556908976,0.0,0.0,0.0,0.0,0.0,0.0,0.0,0.0,0.0
1.557,40,1,557000000,base_footprint,-0.0014626261764419588,0.0035765061574049204,0.3765802056560867,0.9263759593363775,0.0,0.0,0.0,0.0,0.0,0.0,0.0,0.0,0.0,-0.00048809548922858215,-0.0005530682670598655,-0.11092226786886764,0.0,0.0,0.0,0.0,0.0,0.0,0.0,0.0,0.0,0.029463297767050284,0.5537200088907103,-0.0032628587172602547,0.0,0.0,0.0,0.0,0.0,0.0,0.0,0.0,0.0
1.5910000000000002,41,1,591000000,base_footprint,-0.0014562834072085497,0.0035817646296863355,0.37472980830131425,0.9271260005906617,0.0,0.0,0.0,0.0,0.0,0.0,0.0,0.0,0.0,-0.0006159067199150961,-0.0006064695953408972,-0.12326655770889869,0.0,0.0,0.0,0.0,0.0,0.0,0.0,0.0,0.0,0.03285993851106686,0.4076557619532365,-0.0024210629562268424,0.0,0.0,0.0,0.0,0.0,0.0,0.0,0.0,0.0
1.625,42,1,625000000,base_footprint,-0.0014482514255032834,0.0035859033100472874,0.3726994204510755,0.9279440639719035,0.0,0.0,0.0,0.0,0.0,0.0,0.0,0.0,0.0,-0.00043907928170979285,-0.000625702310393163,-0.13362511400138086,0.0,0.0,0.0,0.0,0.0,0.0,0.0,0.0,0.0,0.03636227754218402,0.225939553723612,-0.0009366332373734089,0.0,0.0,0.0,0.0,0.0,0.0,0.0,0.0,0.0
1.659,43,1,659000000,base_footprint,-0.0014382437314142127,0.003583291061372003,0.37052259524503384,0.9288154272475364,0.0,0.0,0.0,0.0,0.0,0.0,0.0,0.0,0.0,4.087567999233786e-05,-0.0008394302809563144,-0.14150550276028537,0.0,0.0,0.0,0.0,0.0,0.0,0.0,0.0,0.0,0.02922703200768671,0.02071764208360638,0.0008488837921724829,0.0,0.0,0.0,0.0,0.0,0.0,0.0,0.0,0.0
1.693,44,1,693000000,base_footprint,-0.0014265720760151643,0.0035770759908944696,0.3682645978592284,0.9297130500229887,0.0,0.0,0.0,0.0,0.0,0.0,0.0,0.0,0.0,-0.0009990888509610987,-0.0008706489183645319,-0.14592271684917704,0.0,0.0,0.0,0.0,0.0,0.0,0.0,0.0,0.0,0.012195345976911603,0.008672962272110955,-0.0023455500842289503,0.0,0.0,0.0,0.0,0.0,0.0,0.0,0.0,0.0
1.727,45,1,727000000,base_footprint,-0.0014195026519095402,0.0035827358288879167,0.36589506281215917,0.9306481354550106,0.0,0.0,0.0,0.0,0.0,0.0,0.0,0.0,0.0,-0.0007182279921717871,-0.0008029520821908785,-0.1538925153973288,0.0,0.0,0.0,0.0,0.0,0.0,0.0,0.0,0.0,0.043109620202345926,0.18310242128185825,-0.0006098781633359126,0.0,0.0,0.0,0.0,0.0,0.0,0.0,0.0,0.0
1.7610000000000001,46,1,761000000,base_footprint,-0.0014247902554507745,0.0035906881525660387,0.36470354879064737,0.9311156740334827,0.0,0.0,0.0,0.0,0.0,0.0,0.0,0.0,0.0,0.0005298864596469156,-0.000201221383948253,-0.020185866540523692,0.0,0.0,0.0,0.0,0.0,0.0,0.0,0.0,0.0,0.02654190049772217,0.09686225459349368,-6.872925026046652e-05,0.0,0.0,0.0,0.0,0.0,0.0,0.0,0.0,0.0
1.795,47,1,795000000,base_footprint,-0.0014229676234772633,0.003596291647175586,0.3649590016560481,0.9310155578505398,0.0,0.0,0.0,0.0,0.0,0.0,0.0,0.0,0.0,0.0007989316217277666,0.00028091764154587425,0.031459456598918904,0.0,0.0,0.0,0.0,0.0,0.0,0.0,0.0,0.0,0.005857410985459083,0.1452716891220626,-0.000690876413008261,0.0,0.0,0.0,0.0,0.0,0.0,0.0,0.0,0.0
1.8290000000000002,48,1,829000000,base_footprint,-0.0014228892902880734,0.0035934301466136733,0.3654570335493983,0.930820186327694,0.0,0.0,0.0,0.0,0.0,0.0,0.0,0.0,0.0,0.0005547501963907467,0.0002159805594395065,0.03141134526687344,0.0,0.0,0.0,0.0,0.0,0.0,0.0,0.0,0.0,-0.004427279588935412,0.006248409258001999,-0.00017835747851583137,0.0,0.0,0.0,0.0,0.0,0.0,0.0,0.0,0.0
1.863,49,1,863000000,base_footprint,-0.001420722270646878,0.003583620482256485,0.3658784901690313,0.930654645743575,0.0,0.0,0.0,0.0,0.0,0.0,0.0,0.0,0.0,-0.0013185503187003952,-0.000887543373508087,0.027544107246256215,0.0,0.0,0.0,0.0,0.0,0.0,0.0,0.0,0.0,0.040425428375207795,0.6262615374414404,-0.007071345383587114,0.0,0.0,0.0,0.0,0.0,0.0,0.0,0.0,0.0
1.897,50,1,897000000,base_footprint,-0.0014242885186323774,0.003588833873009069,0.36641171555550195,0.9304448110325092,0.0,0.0,0.0,0.0,0.0,0.0,0.0,0.0,0.0,0.0003625908641242487,0.00023422668432036104,0.03417825161637678,0.0,0.0,0.0,0.0,0.0,0.0,0.0,0.0,0.0,-0.0029933271211643984,0.06453476571609724,0.002867692614178388,0.0,0.0,0.0,0.0,0.0,0.0,0.0,0.0,0.0
1.931,51,1,931000000,base_footprint,-0.0014262981861540948,0.0035886563224345664,0.36695050076188784,0.930232453320074,0.0,0.0,0.0,0.0,0.0,0.0,0.0,0.0,0.0,0.0003224565056775486,0.0002472037766796042,0.03459310981051275,0.0,0.0,0.0,0.0,0.0,0.0,0.0,0.0,0.0,-0.0070517835741911936,0.00623844556978846,-0.0001192400327808516,0.0,0.0,0.0,0.0,0.0,0.0,0.0,0.0,0.0
1.965,52,1,965000000,base_footprint,-0.0014291236872156447,0.0035898340866286974,0.36751168300631987,0.9300108781893787,0.0,0.0,0.0,0.0,0.0,0.0,0.0,0.0,0.0,0.00023584441108369316,0.0002328129166924567,0.035367332115348794,0.0,0.0,0.0,0.0,0.0,0.0,0.0,0.0,0.0,-0.007229714479933518,0.005686853642382656,-0.000189037878822709,0.0,0.0,0.0,0.0,0.0,0.0,0.0,0.0,0.0
1.999,53,1,999000000,base_footprint,-0.0014327875363661599,0.003592726711056385,0.3680684260065632,0.92979066096176,0.0,0.0,0.0,0.0,0.0,0.0,0.0,0.0,0.0,0.00010978858287904981,0.0002278566005358551,0.03507896361785676,0.0,0.0,0.0,0.0,0.0,0.0,0.0,0.0,0.0,-0.0072221137670792435,0.005660224388448982,-0.00026518742184279063,0.0,0.0,0.0,0.0,0.0,0.0,0.0,0.0,0.0
2.033,54,2,33000000,base_footprint,-0.0014364413210642894,0.0035961743346464726,0.36862086214743767,0.9295717638548225,0.0,0.0,0.0,0.0,0.0,0.0,0.0,0.0,0.0,0.0030556747658085676,0.0007388756194781037,0.035784926921989486,0.0,0.0,0.0,0.0,0.0,0.0,0.0,0.0,0.0,-0.012082358569638352,-0.048299586502659614,0.008235195622036322,0.0,0.0,0.0,0.0,0.0,0.0,0.0,0.0,0.0
2.067,55,2,67000000,base_footprint,-0.0014409979105055883,0.003597387117504363,0.369198175498489,0.9293426114945638,0.0,0.0,0.0,0.0,0.0,0.0,0.0,0.0,0.0,-7.57119640723554e-06,0.00040028143350430174,0.028149400868272823,0.0,0.0,0.0,0.0,0.0,0.0,0.0,0.0,0.0,-0.022878957074271733,-0.2883273215346407,-0.006303747105990609,0.0,0.0,0.0,0.0,0.0,0.0,0.0,0.0,0.0
2.101,56,2,101000000,base_footprint,-0.0014419600425560457,0.003598782421010514,0.36958169448661154,0.9291901530993142,0.0,0.0,0.0,0.0,0.0,0.0,0.0,0.0,0.0,0.0003375854138938356,0.0001507722278061913,0.024439720481865865,0.0,0.0,0.0,0.0,0.0,0.0,0.0,0.0,0.0,-0.0021443596632349723,-0.0010175251615474079,0.0003798036250043819,0.0,0.0,0.0,0.0,0.0,0.0,0.0,0.0,0.0
2.135,57,2,135000000,base_footprint,-0.0014434191951107982,0.0035943127477406855,0.3699529557687585,0.9290424145187656,0.0,0.0,0.0,0.0,0.0,0.0,0.0,0.0,0.0,0.0012585028644059395,0.0005973695824016001,0.01881009127652204,0.0,0.0,0.0,0.0,0.0,0.0,0.0,0.0,0.0,-0.0027580006082501335,-0.011769801994451351,0.004339372067694876,0.0,0.0,0.0,0.0,0.0,0.0,0.0,0.0,0.0
2.169,58,2,169000000,base_footprint,-0.0014394269551251465,0.003575069888639662,0.3701993709756121,0.9289443323765926,0.0,0.0,0.0,0.0,0.0,0.0,0.0,0.0,0.0,0.001151063481023019,0.0012394524492906418,0.02298596495128025,0.0,0.0,0.0,0.0,0.0,0.0,0.0,0.0,0.0,-0.022561835383454285,-0.0346629320576683,-0.0023974711504959195,0.0,0.0,0.0,0.0,0.0,0.0,0.0,0.0,0.0
2.203,59,2,203000000,base_footprint,-0.0014258968623554497,0.003571273662923111,0.3706711848904847,0.9287562034863868,0.0,0.0,0.0,0.0,0.0,0.0,0.0,0.0,0.0,0.0016581975847056324,0.0006394434234967913,0.035693596454143314,0.0,0.0,0.0,0.0,0.0,0.0,0.0,0.0,0.0,0.009625146790847992,0.1265549450424038,6.002162793045747e-05,0.0,0.0,0.0,0.0,0.0,0.0,0.0,0.0,0.0
2.237,60,2,237000000,base_footprint,-0.00145009346205749,0.0036051553590268517,0.3712909644411602,0.9285084381997515,0.0,0.0,0.0,0.0,0.0,0.0,0.0,0.0,0.0,0.0016092038902066933,-0.0006445563168414622,0.035724326716319636,0.0,0.0,0.0,0.0,0.0,0.0,0.0,0.0,0.0,-0.008492175903711176,0.07547867059802509,0.005083132362639526,0.0,0.0,0.0,0.0,0.0,0.0,0.0,0.0,0.0
2.271,61,2,271000000,base_footprint,-0.0014472471427800612,0.0035883261586766688,0.3719761151288825,0.9282342372293272,0.0,0.0,0.0,0.0,0.0,0.0,0.0,0.0,0.0,0.0008571448823684004,0.00011637487555231498,0.046386851710052815,0.0,0.0,0.0,0.0,0.0,0.0,0.0,0.0,0.0,-0.013847327009830879,-0.1909027354127782,-0.005940653168784187,0.0,0.0,0.0,0.0,0.0,0.0,0.0,0.0,0.0
2.305,62,2,305000000,base_footprint,-0.0014490492093310312,0.0035838083234980282,0.372710436065815,0.9279396464328482,0.0,0.0,0.0,0.0,0.0,0.0,0.0,0.0,0.0,0.0006549036661537121,0.000323194660443979,0.04648670447344468,0.0,0.0,0.0,0.0,0.0,0.0,0.0,0.0,0.0,-0.008134316403628104,0.004573667668288908,-1.3341236306254351e-05,0.0,0.0,0.0,0.0,0.0,0.0,0.0,0.0,0.0
2.339,63,2,339000000,base_footprint,-0.0014457263108366124,0.0035724324763314256,0.37343847645770456,0.927646943563436,0.0,0.0,0.0,0.0,0.0,0.0,0.0,0.0,0.0,-0.0012986920394187668,0.00037560596677056176,0.0452120833955937,0.0,0.0,0.0,0.0,0.0,0.0,0.0,0.0,0.0,-0.001038116353144998,0.17862686161636854,-0.0029386877704951683,0.0,0.0,0.0,0.0,0.0,0.0,0.0,0.0,0.0
2.373,64,2,373000000,base_footprint,-0.0014496825753768298,0.0035791899820681204,0.3735871703213178,0.9275870384987134,0.0,0.0,0.0,0.0,0.0,0.0,0.0,0.0,0.0,0.000347807897624483,6.235166967526835e-05,0.0006225972971997354,0.0,0.0,0.0,0.0,0.0,0.0,0.0,0.0,0.0,0.0035397306199507206,0.18560305980420194,0.0008094817126829102,0.0,0.0,0.0,0.0,0.0,0.0,0.0,0.0,0.0
2.407,65,2,407000000,base_footprint,-0.0014494914582564788,0.0035793513930379908,0.3735931357548735,0.9275846355643015,0.0,0.0,0.0,0.0,0.0,0.0,0.0,0.0,0.0,0.00014868347326227042,4.734741456904522e-05,0.00015831660337537926,0.0,0.0,0.0,0.0,0.0,0.0,0.0,0.0,0.0,-6.745703652236601e-05,0.005599284682893589,-0.0003535600392401497,0.0,0.0,0.0,0.0,0.0,0.0,0.0,0.0,0.0
2.441,66,2,441000000,base_footprint,-0.0014492557041135262,0.0035810636837381522,0.37346301506409807,0.9276370260074953,0.0,0.0,0.0,0.0,0.0,0.0,0.0,0.0,0.0,-0.00020673349145097924,-0.0003728212254308128,-0.028824215541634397,0.0,0.0,0.0,0.0,0.0,0.0,0.0,0.0,0.0,0.001114824647112921,0.013556029533955833,-0.0004887917804607154,0.0,0.0,0.0,0.0,0.0,0.0,0.0,0.0,0.0
2.475,67,2,475000000,base_footprint,-0.0014495773219782289,0.0035852868216958125,0.373016045291569,0.927816832353796,0.0,0.0,0.0,0.0,0.0,0.0,0.0,0.0,0.0,-0.00022110372063519843,-0.00012963269923795752,-0.02845796097907833,0.0,0.0,0.0,0.0,0.0,0.0,0.0,0.0,0.0,0.007639590705128443,0.004397445403487672,-0.00011940114704103743,0.0,0.0,0.0,0.0,0.0,0.0,0.0,0.0,0.0
2.509,68,2,509000000,base_footprint,-0.0014501450418546121,0.0035908835189934415,0.3725635752909403,0.9279985910556883,0.0,0.0,0.0,0.0,0.0,0.0,0.0,0.0,0.0,-0.0002527736746866605,-0.00012520279857908568,-0.028827642994289,0.0,0.0,0.0,0.0,0.0,0.0,0.0,0.0,0.0,0.0069831098844339605,0.0036204243319744103,-0.000345034082006561,0.0,0.0,0.0,0.0,0.0,0.0,0.0,0.0,0.0
2.543,69,2,543000000,base_footprint,-0.0014524540274609525,0.003589469916916557,0.37245101628138383,0.9280437740505445,0.0,0.0,0.0,0.0,0.0,0.0,0.0,0.0,0.0,-0.0021356438407299553,-0.0012889544370046444,0.06426672193957035,0.0,0.0,0.0,0.0,0.0,0.0,0.0,0.0,0.0,0.004445351984597364,-0.03006451318164581,-0.003053467399964297,0.0,0.0,0.0,0.0,0.0,0.0,0.0,0.0,0.0
2.577,70,2,577000000,base_footprint,-0.0014562578893897588,0.003593547978063539,0.3734109137784297,0.9276579408365172,0.0,0.0,0.0,0.0,0.0,0.0,0.0,0.0,0.0,0.0005061614981773961,0.000249239186366368,0.05959392938515398,0.0,0.0,0.0,0.0,0.0,0.0,0.0,0.0,0.0,-0.01269559862324777,0.007200471762300846,0.0036596728615784736,0.0,0.0,0.0,0.0,0.0,0.0,0.0,0.0,0.0
2.6109999999999998,71,2,611000000,base_footprint,-0.0014590421282941928,0.003586958963721114,0.3743344864847468,0.927285661028823,0.0,0.0,0.0,0.0,0.0,0.0,0.0,0.0,0.0,0.0009481796656083646,0.00015413143554232172,0.05473755755553141,0.0,0.0,0.0,0.0,0.0,0.0,0.0,0.0,0.0,-0.01019318870746884,-0.01523059559863581,0.001117140689263254,0.0,0.0,0.0,0.0,0.0,0.0,0.0,0.0,0.0
2.645,72,2,645000000,base_footprint,-0.0014566248021343582,0.0035857349525352683,0.3750378795270417,0.9270014075873328,0.0,0.0,0.0,0.0,0.0,0.0,0.0,0.0,0.0,-0.00019595566702911216,0.0005657214643336579,0.04384600772204494,0.0,0.0,0.0,0.0,0.0,0.0,0.0,0.0,0.0,-0.023741957474667796,-0.07813303325851531,-0.0016256753461249046,0.0,0.0,0.0,0.0,0.0,0.0,0.0,0.0,0.0
2.6790000000000003,73,2,679000000,base_footprint,-0.0014612255965613724,0.003586013099174686,0.3757599547946641,0.9267089412013464,0.0,0.0,0.0,0.0,0.0,0.0,0.0,0.0,0.0,-0.00011388209088465284,-0.00024276455041464477,0.035992724964776075,0.0,0.0,0.0,0.0,0.0,0.0,0.0,0.0,0.0,-0.0067749420836979105,0.04273671680558291,-0.00048048906428227244,0.0,0.0,0.0,0.0,0.0,0.0,0.0,0.0,0.0
2.713,74,2,713000000,base_footprint,-0.0014659575623986736,0.0035845376627562657,0.3762177843777585,0.9265231679650864,0.0,0.0,0.0,0.0,0.0,0.0,0.0,0.0,0.0,0.0003342184885534836,0.00010530002046268318,0.029576935679617312,0.0,0.0,0.0,0.0,0.0,0.0,0.0,0.0,0.0,-0.003937675273288448,0.02077800934575162,0.0015372637351654056,0.0,0.0,0.0,0.0,0.0,0.0,0.0,0.0,0.0
2.747,75,2,747000000,base_footprint,-0.001466410706910762,0.003582130226088238,0.37641691335553945,0.9264422946533533,0.0,0.0,0.0,0.0,0.0,0.0,0.0,0.0,0.0,0.0001543182650737224,-0.00011804002333479544,-0.006565777982731537,0.0,0.0,0.0,0.0,0.0,0.0,0.0,0.0,0.0,-0.00478746165922886,0.015710803498507526,8.397805482824931e-05,0.0,0.0,0.0,0.0,0.0,0.0,0.0,0.0,0.0
2.781,76,2,781000000,base_footprint,-0.001463927733955143,0.0035777199278927835,0.37631771087854743,0.9264826157650434,0.0,0.0,0.0,0.0,0.0,0.0,0.0,0.0,0.0,0.0003851082897735571,6.005423229569713e-05,-0.006434485429286843,0.0,0.0,0.0,0.0,0.0,0.0,0.0,0.0,0.0,0.003044435062340458,0.0022980902406292184,0.0005288693950012353,0.0,0.0,0.0,0.0,0.0,0.0,0.0,0.0,0.0
2.815,77,2,815000000,base_footprint,-0.001461465442060234,0.0035754614787474217,0.3762132872459786,0.9265250361935994,0.0,0.0,0.0,0.0,0.0,0.0,0.0,0.0,0.0,0.00026501970534381647,4.1894758989385964e-05,-0.006805098783435017,0.0,0.0,0.0,0.0,0.0,0.0,0.0,0.0,0.0,0.0016045194937228514,0.005601541442386943,-0.0002530022443626783,0.0,0.0,0.0,0.0,0.0,0.0,0.0,0.0,0.0
2.849,78,2,849000000,base_footprint,-0.001458894171036349,0.0035755451746113365,0.37577356634750814,0.9267034660229653,0.0,0.0,0.0,0.0,0.0,0.0,0.0,0.0,0.0,-1.2797948994044842e-05,-0.00015122675201429339,-0.0468106780506831,0.0,0.0,0.0,0.0,0.0,0.0,0.0,0.0,0.0,0.005792337087936747,0.016358863156110758,-0.0002759607077803372,0.0,0.0,0.0,0.0,0.0,0.0,0.0,0.0,0.0
2.883,79,2,883000000,base_footprint,-0.0014558243070645948,0.0035772030600960546,0.375034873995149,0.9270026577530921,0.0,0.0,0.0,0.0,0.0,0.0,0.0,0.0,0.0,-0.00012443361799091763,-0.000200953019761585,-0.047080026715361156,0.0,0.0,0.0,0.0,0.0,0.0,0.0,0.0,0.0,0.011014620901082276,0.005072454297829723,-0.00027023377869077016,0.0,0.0,0.0,0.0,0.0,0.0,0.0,0.0,0.0
2.917,80,2,917000000,base_footprint,-0.0014536337579817724,0.003580270507543992,0.37428883339232244,0.9273041236885583,0.0,0.0,0.0,0.0,0.0,0.0,0.0,0.0,0.0,-0.00022035811357091315,-0.00021463016760900436,-0.04754940588869071,0.0,0.0,0.0,0.0,0.0,0.0,0.0,0.0,0.0,0.010766194872779425,0.005258244198744764,-0.0002913481000783515,0.0,0.0,0.0,0.0,0.0,0.0,0.0,0.0,0.0
2.951,81,2,951000000,base_footprint,-0.0014546958388568702,0.003583480821403873,0.3741854271210987,0.9273458409112645,0.0,0.0,0.0,0.0,0.0,0.0,0.0,0.0,0.0,0.00019589973236206127,0.0002939820390509598,0.026613125840970156,0.0,0.0,0.0,0.0,0.0,0.0,0.0,0.0,0.0,0.002840698950918803,-0.014623420746003942,3.999844694129508e-05,0.0,0.0,0.0,0.0,0.0,0.0,0.0,0.0,0.0
2.9850000000000003,82,2,985000000,base_footprint,-0.0014586714544716911,0.0035876535587439644,0.3745976541767915,0.9271793777391597,0.0,0.0,0.0,0.0,0.0,0.0,0.0,0.0,0.0,6.7613707009349e-05,0.00014785566569559564,0.02591209353079897,0.0,0.0,0.0,0.0,0.0,0.0,0.0,0.0,0.0,-0.005531345932781845,0.004297998330621586,-0.00048406148069863133,0.0,0.0,0.0,0.0,0.0,0.0,0.0,0.0,0.0
3.019,83,3,19000000,base_footprint,-0.0014613457141290941,0.0035897444933331896,0.375001367657898,0.927016155446,0.0,0.0,0.0,0.0,0.0,0.0,0.0,0.0,0.0,0.00011709378331948026,0.0001460025857645251,0.02538323924676809,0.0,0.0,0.0,0.0,0.0,0.0,0.0,0.0,0.0,-0.004208888544312969,0.0017732335207767305,0.00011108063593705071,0.0,0.0,0.0,0.0,0.0,0.0,0.0,0.0,0.0
3.053,84,3,53000000,base_footprint,-0.0014577567393986952,0.003578473616533372,0.3755061705186796,0.9268118392501581,0.0,0.0,0.0,0.0,0.0,0.0,0.0,0.0,0.0,-0.0026804460112834767,0.00018565785114678325,0.04456338507355949,0.0,0.0,0.0,0.0,0.0,0.0,0.0,0.0,0.0,-0.011363450007679021,-0.24129016129702996,-0.0037312861484557107,0.0,0.0,0.0,0.0,0.0,0.0,0.0,0.0,0.0
3.087,85,3,87000000,base_footprint,-0.001460374694697444,0.0035903663815525042,0.37615985407504526,0.9265466748940595,0.0,0.0,0.0,0.0,0.0,0.0,0.0,0.0,0.0,0.00046224740923733244,0.0003579907680674138,0.02454731662670363,0.0,0.0,0.0,0.0,0.0,0.0,0.0,0.0,0.0,-0.017917234563959168,-0.11323456898924228,0.006417229102411796,0.0,0.0,0.0,0.0,0.0,0.0,0.0,0.0,0.0
3.121,86,3,121000000,base_footprint,-0.0014601086962564706,0.00358651197101978,0.37652802492475895,0.9263971348513212,0.0,0.0,0.0,0.0,0.0,0.0,0.0,0.0,0.0,4.116932569451145e-05,0.00026735645115544477,0.03639565177105049,0.0,0.0,0.0,0.0,0.0,0.0,0.0,0.0,0.0,-0.009534165554794832,-0.04352746470827466,-0.0005148813281969657,0.0,0.0,0.0,0.0,0.0,0.0,0.0,0.0,0.0
3.155,87,3,155000000,base_footprint,-0.0014630693770082122,0.003566745163508278,0.3773316263910202,0.9260701817260095,0.0,0.0,0.0,0.0,0.0,0.0,0.0,0.0,0.0,-0.0002045420181679135,-0.000716311039265039,0.06400451497701727,0.0,0.0,0.0,0.0,0.0,0.0,0.0,0.0,0.0,-0.0047515454743183375,0.08713639713127704,-0.0019725050741865365,0.0,0.0,0.0,0.0,0.0,0.0,0.0,0.0,0.0
3.189,88,3,189000000,base_footprint,-0.001471640035837785,0.0035773808244548887,0.3785441700127146,0.925575144421795,0.0,0.0,0.0,0.0,0.0,0.0,0.0,0.0,0.0,-0.0020483198039083325,0.0003510228063933835,0.08114751037660438,0.0,0.0,0.0,0.0,0.0,0.0,0.0,0.0,0.0,-0.006854084344765907,0.24946503862890967,-0.003649387601205353,0.0,0.0,0.0,0.0,0.0,0.0,0.0,0.0,0.0
3.223,89,3,223000000,base_footprint,-0.001478844245098934,0.003575699325577555,0.3797624238738458,0.9250759583988188,0.0,0.0,0.0,0.0,0.0,0.0,0.0,0.0,0.0,0.0008061862971481614,0.0003183156138788249,0.07791575296365032,0.0,0.0,0.0,0.0,0.0,0.0,0.0,0.0,0.0,-0.0214805393343852,0.011335005871769586,0.00502418271099717,0.0,0.0,0.0,0.0,0.0,0.0,0.0,0.0,0.0
3.257,90,3,257000000,base_footprint,-0.0014790801265105171,0.0035739707148833436,0.3808256108873534,0.9246387906353392,0.0,0.0,0.0,0.0,0.0,0.0,0.0,0.0,0.0,0.003362526129098729,0.0017218048004764665,0.04289555392007863,0.0,0.0,0.0,0.0,0.0,0.0,0.0,0.0,0.0,-0.02001495367895681,-0.6485109057089421,0.007643750129218309,0.0,0.0,0.0,0.0,0.0,0.0,0.0,0.0,0.0
3.291,91,3,291000000,base_footprint,-0.0014830243382776586,0.0035684921110612053,0.38154465944778854,0.9243423280093456,0.0,0.0,0.0,0.0,0.0,0.0,0.0,0.0,0.0,0.0009021318832048698,0.0003756816279544814,0.06955683078907188,0.0,0.0,0.0,0.0,0.0,0.0,0.0,0.0,0.0,-0.0069988097412689715,0.32292611279100014,-0.005239470735438035,0.0,0.0,0.0,0.0,0.0,0.0,0.0,0.0,0.0
3.325,92,3,325000000,base_footprint,-0.001485189232476945,0.0035642867824991886,0.38263645716626155,0.9238909198167972,0.0,0.0,0.0,0.0,0.0,0.0,0.0,0.0,0.0,0.000614680759267596,0.00046016188960306515,0.06935570451111225,0.0,0.0,0.0,0.0,0.0,0.0,0.0,0.0,0.0,-0.014864084730101411,0.002262995832789963,-0.0004985358560759559,0.0,0.0,0.0,0.0,0.0,0.0,0.0,0.0,0.0
3.359,93,3,359000000,base_footprint,-0.0014871440146631554,0.003564094905616447,0.3831790848974373,0.9236659972778829,0.0,0.0,0.0,0.0,0.0,0.0,0.0,0.0,0.0,5.626507521784511e-05,6.136800834272504e-05,-0.007490361980588431,0.0,0.0,0.0,0.0,0.0,0.0,0.0,0.0,0.0,-0.011060275185022839,0.370089538985639,-0.0023749264799140615,0.0,0.0,0.0,0.0,0.0,0.0,0.0,0.0,0.0
3.393,94,3,393000000,base_footprint,-0.0014867830365449385,0.0035658081866796207,0.3830636174416741,0.9237138839925904,0.0,0.0,0.0,0.0,0.0,0.0,0.0,0.0,0.0,2.0510347725122695e-05,2.293951294147624e-05,-0.0074851585227822676,0.0,0.0,0.0,0.0,0.0,0.0,0.0,0.0,0.0,0.004015650781305976,0.0019450010652348735,1.3427001417386266e-05,0.0,0.0,0.0,0.0,0.0,0.0,0.0,0.0,0.0
3.427,95,3,427000000,base_footprint,-0.0014874177661381904,0.0035692280951695556,0.38294180403777034,0.9237643762992226,0.0,0.0,0.0,0.0,0.0,0.0,0.0,0.0,0.0,-9.146594890931222e-05,1.3814681939197104e-05,-0.007987152863422994,0.0,0.0,0.0,0.0,0.0,0.0,0.0,0.0,0.0,0.001888170359274345,0.00537552405362235,-0.0002850692567047669,0.0,0.0,0.0,0.0,0.0,0.0,0.0,0.0,0.0
3.461,96,3,461000000,base_footprint,-0.0014877066936959556,0.0035747556803460917,0.38239768311614974,0.9239897292708508,0.0,0.0,0.0,0.0,0.0,0.0,0.0,0.0,0.0,-0.0002978392711002359,-0.00017914270758676514,-0.03837717804482429,0.0,0.0,0.0,0.0,0.0,0.0,0.0,0.0,0.0,0.00791689077528949,0.01196359687720834,-0.0003335122126557663,0.0,0.0,0.0,0.0,0.0,0.0,0.0,0.0,0.0
3.495,97,3,495000000,base_footprint,-0.0014864857411084247,0.00357865207094965,0.3817878228490186,0.9242418741507565,0.0,0.0,0.0,0.0,0.0,0.0,0.0,0.0,0.0,-0.0002526474157294829,-0.000212127885761015,-0.03934690833768678,0.0,0.0,0.0,0.0,0.0,0.0,0.0,0.0,0.0,0.00891185680403845,-0.00022593767707530018,-6.48124343780189e-05,0.0,0.0,0.0,0.0,0.0,0.0,0.0,0.0,0.0
3.529,98,3,529000000,base_footprint,-0.0014852533097720008,0.0035811123329620733,0.3811632572763526,0.9244996165275277,0.0,0.0,0.0,0.0,0.0,0.0,0.0,0.0,0.0,-0.00012536916645963274,-0.0002476960285963323,-0.04015831640438213,0.0,0.0,0.0,0.0,0.0,0.0,0.0,0.0,0.0,0.009562002543685104,-0.006892347387891079,0.00022181586108887418,0.0,0.0,0.0,0.0,0.0,0.0,0.0,0.0,0.0
3.563,99,3,563000000,base_footprint,-0.0014868911049423048,0.003571242923621945,0.38123817027413676,0.9244687625360042,0.0,0.0,0.0,0.0,0.0,0.0,0.0,0.0,0.0,0.0015123072642031481,0.0001331457617138464,0.0140859763610439,0.0,0.0,0.0,0.0,0.0,0.0,0.0,0.0,0.0,-0.0018104488738088786,-0.07913161514096038,0.002880820041036735,0.0,0.0,0.0,0.0,0.0,0.0,0.0,0.0,0.0
3.597,100,3,597000000,base_footprint,-0.0014825832513706656,0.0035693429011385237,0.3812976947649207,0.9244442274713572,0.0,0.0,0.0,0.0,0.0,0.0,0.0,0.0,0.0,0.00028567040301024325,-5.740150548303827e-05,0.012865535854083959,0.0,0.0,0.0,0.0,0.0,0.0,0.0,0.0,0.0,-0.008967618329840821,-0.032429177785263635,-0.0010668978145565793,0.0,0.0,0.0,0.0,0.0,0.0,0.0,0.0,0.0
3.6310000000000002,101,3,631000000,base_footprint,-0.0014840442926294787,0.0035790361136672625,0.38190768640425105,0.924192353992602,0.0,0.0,0.0,0.0,0.0,0.0,0.0,0.0,0.0,-0.0002515176496859846,0.001901711745883323,0.04360258956096004,0.0,0.0,0.0,0.0,0.0,0.0,0.0,0.0,0.0,-0.003857506942291939,0.03283139167633327,-0.0030938634496318167,0.0,0.0,0.0,0.0,0.0,0.0,0.0,0.0,0.0
3.665,102,3,665000000,base_footprint,-0.001489430847530058,0.0035762903746794535,0.3820336904161183,0.9241402767599453,0.0,0.0,0.0,0.0,0.0,0.0,0.0,0.0,0.0,0.0005692256055571314,0.0002806181875908198,0.0007836944011512426,0.0,0.0,0.0,0.0,0.0,0.0,0.0,0.0,0.0,-0.00297224801348207,0.0399877584469226,0.0025911097355630123,0.0,0.0,0.0,0.0,0.0,0.0,0.0,0.0,0.0
3.699,103,3,699000000,base_footprint,-0.001487631332795311,0.003572549272905445,0.3820594303098133,0.9241296530011638,0.0,0.0,0.0,0.0,0.0,0.0,0.0,0.0,0.0,0.00036203050546338035,-9.175327684966136e-05,0.001757214402154205,0.0,0.0,0.0,0.0,0.0,0.0,0.0,0.0,0.0,0.0029037592378763867,7.292582226586244e-05,-0.0003569811811383499,0.0,0.0,0.0,0.0,0.0,0.0,0.0,0.0,0.0
3.733,104,3,733000000,base_footprint,-0.0014889845240447755,0.0035683911238438225,0.38211929546780565,0.9241049147910979,0.0,0.0,0.0,0.0,0.0,0.0,0.0,0.0,0.0,0.0006422279411930541,0.0006533391895509312,0.03270037088051146,0.0,0.0,0.0,0.0,0.0,0.0,0.0,0.0,0.0,-0.003249836127455758,-0.0012821109499865913,0.0013141802341239965,0.0,0.0,0.0,0.0,0.0,0.0,0.0,0.0,0.0
3.767,105,3,767000000,base_footprint,-0.0014867728969279296,0.003565187434451487,0.38279088553020046,0.9238269409905273,0.0,0.0,0.0,0.0,0.0,0.0,0.0,0.0,0.0,0.0005655397868067944,0.00032958830556730346,0.04227162937835352,0.0,0.0,0.0,0.0,0.0,0.0,0.0,0.0,0.0,-0.006370433239460907,0.0004857014855790447,-0.0011273711832324967,0.0,0.0,0.0,0.0,0.0,0.0,0.0,0.0,0.0
3.801,106,3,801000000,base_footprint,-0.0014880157001595257,0.0035631850392318764,0.3834511582483934,0.9235530838883155,0.0,0.0,0.0,0.0,0.0,0.0,0.0,0.0,0.0,0.0004525900020696764,0.00031189892678334507,0.04186850922590535,0.0,0.0,0.0,0.0,0.0,0.0,0.0,0.0,0.0,-0.00922735110797511,0.005728239165351656,-0.00018031175816924324,0.0,0.0,0.0,0.0,0.0,0.0,0.0,0.0,0.0
3.835,107,3,835000000,base_footprint,-0.0014952332703907407,0.0035723936727047414,0.38410757506616106,0.9232802245568286,0.0,0.0,0.0,0.0,0.0,0.0,0.0,0.0,0.0,-0.0013764607920915745,0.00013386877939211843,0.04362972162197332,0.0,0.0,0.0,0.0,0.0,0.0,0.0,0.0,0.0,-0.010498967427311677,-0.13790854965633093,0.002171029796099391,0.0,0.0,0.0,0.0,0.0,0.0,0.0,0.0,0.0
3.869,108,3,869000000,base_footprint,-0.0014906382537034483,0.003555243328332321,0.3849260980890593,0.9229393464645469,0.0,0.0,0.0,0.0,0.0,0.0,0.0,0.0,0.0,-0.0003906299482200376,0.0002785651455852774,0.05388457118399532,0.0,0.0,0.0,0.0,0.0,0.0,0.0,0.0,0.0,0.0013350091364946193,-0.6470134555452635,0.0013130217083692714,0.0,0.0,0.0,0.0,0.0,0.0,0.0,0.0,0.0
3.903,109,3,903000000,base_footprint,-0.0014975734608996339,0.003564258456392718,0.3857061326201923,0.9226135879091311,0.0,0.0,0.0,0.0,0.0,0.0,0.0,0.0,0.0,-0.000487281139416999,0.0004964338164495149,0.05938695432450641,0.0,0.0,0.0,0.0,0.0,0.0,0.0,0.0,0.0,-0.019078263750418906,0.4578533044879491,-0.0033254138509287564,0.0,0.0,0.0,0.0,0.0,0.0,0.0,0.0,0.0
3.9370000000000003,110,3,937000000,base_footprint,-0.001500704285411068,0.003561025774727816,0.3866103613311796,0.9222350543616601,0.0,0.0,0.0,0.0,0.0,0.0,0.0,0.0,0.0,0.0029361922829942676,0.00019674722385764308,0.047106477403757285,0.0,0.0,0.0,0.0,0.0,0.0,0.0,0.0,0.0,-0.013474174740975078,0.12265798952878697,0.00472357843392212,0.0,0.0,0.0,0.0,0.0,0.0,0.0,0.0,0.0
3.971,111,3,971000000,base_footprint,-0.001505048276057525,0.0035703325944548146,0.38680204067609864,0.9221546339327573,0.0,0.0,0.0,0.0,0.0,0.0,0.0,0.0,0.0,-0.00023563226884582917,1.1215604884298147e-05,-0.002104815045089826,0.0,0.0,0.0,0.0,0.0,0.0,0.0,0.0,0.0,-0.0068001808133418,0.23506557880124682,-0.006077153692448807,0.0,0.0,0.0,0.0,0.0,0.0,0.0,0.0,0.0
4.005,112,4,5000000,base_footprint,-0.001506202438837877,0.003571658022115812,0.38675908456620967,0.9221726438789506,0.0,0.0,0.0,0.0,0.0,0.0,0.0,0.0,0.0,7.24780354850377e-05,-4.673169085223644e-05,-0.0033250638686269166,0.0,0.0,0.0,0.0,0.0,0.0,0.0,0.0,0.0,0.0012097364928625371,-0.005995819648991208,0.0006880430838097774,0.0,0.0,0.0,0.0,0.0,0.0,0.0,0.0,0.0
4.039,113,4,39000000,base_footprint,-0.001493022191182777,0.003562330809432969,0.38671479478847176,0.9221912752654143,0.0,0.0,0.0,0.0,0.0,0.0,0.0,0.0,0.0,-0.0008453667701578899,0.0018375272900054453,0.008787933917935581,0.0,0.0,0.0,0.0,0.0,0.0,0.0,0.0,0.0,-0.0049673050254475555,-0.06639592753149706,-0.0003869801494430483,0.0,0.0,0.0,0.0,0.0,0.0,0.0,0.0,0.0
4.073,114,4,73000000,base_footprint,-0.0015087326724491739,0.0035657732535348693,0.38699106024833957,0.9220753376349969,0.0,0.0,0.0,0.0,0.0,0.0,0.0,0.0,0.0,-0.0005293344480454815,-0.0011002079377914328,0.003736548764244927,0.0,0.0,0.0,0.0,0.0,0.0,0.0,0.0,0.0,0.004407516025238957,-0.17886081963364975,-5.515756930727839e-05,0.0,0.0,0.0,0.0,0.0,0.0,0.0,0.0,0.0
4.107,115,4,107000000,base_footprint,-0.0015035910334637939,0.0035724778280709028,0.3866752382288766,0.9222078056256159,0.0,0.0,0.0,0.0,0.0,0.0,0.0,0.0,0.0,0.00041091616819300287,0.0004937960562974359,-0.006957117621476534,0.0,0.0,0.0,0.0,0.0,0.0,0.0,0.0,0.0,0.006442302647643852,-0.1176283767480386,0.003478126055693656,0.0,0.0,0.0,0.0,0.0,0.0,0.0,0.0,0.0
4.141,116,4,141000000,base_footprint,-0.0014969092319905316,0.0035528416084865916,0.3866286257573104,0.9222274352480899,0.0,0.0,0.0,0.0,0.0,0.0,0.0,0.0,0.0,-9.07298359525007e-05,0.0017338465995682887,0.005800589234211568,0.0,0.0,0.0,0.0,0.0,0.0,0.0,0.0,0.0,-0.007966606384668458,0.07528289894734955,0.0013071180812781278,0.0,0.0,0.0,0.0,0.0,0.0,0.0,0.0,0.0
4.175,117,4,175000000,base_footprint,-0.0015079820126466853,0.0035672336842389285,0.38710147863642536,0.9220289833142908,0.0,0.0,0.0,0.0,0.0,0.0,0.0,0.0,0.0,0.0013168381353605746,-6.173954126184865e-05,0.04605710497641628,0.0,0.0,0.0,0.0,0.0,0.0,0.0,0.0,0.0,-0.0056205673946024826,0.2511492189644569,-0.002349313984624464,0.0,0.0,0.0,0.0,0.0,0.0,0.0,0.0,0.0
4.209,118,4,209000000,base_footprint,-0.0015087127850712085,0.003560639261487225,0.38784695149656556,0.921715676251957,0.0,0.0,0.0,0.0,0.0,0.0,0.0,0.0,0.0,0.0005323507715530417,0.00017197787972375356,0.04771739798980683,0.0,0.0,0.0,0.0,0.0,0.0,0.0,0.0,0.0,-0.00879308538333847,-0.0033654535605892664,-0.0011499066688662619,0.0,0.0,0.0,0.0,0.0,0.0,0.0,0.0,0.0
4.243,119,4,243000000,base_footprint,-0.0015081929495069054,0.00355864538351226,0.3885560462808887,0.9214169850266628,0.0,0.0,0.0,0.0,0.0,0.0,0.0,0.0,0.0,0.006126374044070475,0.0014196934115421047,0.03466920137521931,0.0,0.0,0.0,0.0,0.0,0.0,0.0,0.0,0.0,-0.001841884763447349,-0.31815634494100414,0.012891929226992034,0.0,0.0,0.0,0.0,0.0,0.0,0.0,0.0,0.0
4.277,120,4,277000000,base_footprint,-0.001509754784436466,0.003554607156315563,0.38905876937781103,0.9212048411611169,0.0,0.0,0.0,0.0,0.0,0.0,0.0,0.0,0.0,0.00042709660024983613,0.00027484064633708226,0.03156426356651834,0.0,0.0,0.0,0.0,0.0,0.0,0.0,0.0,0.0,-0.006340848499266602,-0.008292870033788983,-0.010897869373558404,0.0,0.0,0.0,0.0,0.0,0.0,0.0,0.0,0.0
4.311,121,4,311000000,base_footprint,-0.0015107737836465877,0.003553743500375824,0.38954902669474906,0.920997635323176,0.0,0.0,0.0,0.0,0.0,0.0,0.0,0.0,0.0,0.0003493188020323965,0.0002592090497458702,0.031121710382177703,0.0,0.0,0.0,0.0,0.0,0.0,0.0,0.0,0.0,-0.006686154059008348,0.005355475970538791,-0.0001465881496686373,0.0,0.0,0.0,0.0,0.0,0.0,0.0,0.0,0.0
4.345,122,4,345000000,base_footprint,-0.001511425469800082,0.003554471298206054,0.38977877723030613,0.9209004214070526,0.0,0.0,0.0,0.0,0.0,0.0,0.0,0.0,0.0,4.219158964111215e-05,-2.2769754715646696e-05,-0.00907441728227153,0.0,0.0,0.0,0.0,0.0,0.0,0.0,0.0,0.0,-0.005200841028288457,0.01622817426976401,-0.00034398823826646845,0.0,0.0,0.0,0.0,0.0,0.0,0.0,0.0,0.0
4.379,123,4,379000000,base_footprint,-0.0015116268742155945,0.0035573004537606916,0.38963974227390297,0.9209592454817973,0.0,0.0,0.0,0.0,0.0,0.0,0.0,0.0,0.0,-3.5340516701364146e-05,2.1337406492733834e-05,-0.009060030321680778,0.0,0.0,0.0,0.0,0.0,0.0,0.0,0.0,0.0,0.003122164057018903,0.004728162288682902,-0.00012832070582202837,0.0,0.0,0.0,0.0,0.0,0.0,0.0,0.0,0.0
4.413,124,4,413000000,base_footprint,-0.0015124659290609134,0.0035616020047307974,0.3894924927720151,0.9210215119703856,0.0,0.0,0.0,0.0,0.0,0.0,0.0,0.0,0.0,-0.00015676696351607137,9.164682674891608e-06,-0.009723484634435033,0.0,0.0,0.0,0.0,0.0,0.0,0.0,0.0,0.0,0.0020154440069027136,0.004692344442749297,-0.00029635627313444763,0.0,0.0,0.0,0.0,0.0,0.0,0.0,0.0,0.0
4.447,125,4,447000000,base_footprint,-0.0015105835403506605,0.003556904846908962,0.389189374495363,0.9211496606660535,0.0,0.0,0.0,0.0,0.0,0.0,0.0,0.0,0.0,-0.00024051881284620224,-0.0002590643524971389,-0.045619366352757124,0.0,0.0,0.0,0.0,0.0,0.0,0.0,0.0,0.0,-0.004500305610083161,0.2591002262215461,-0.0009315452349743161,0.0,0.0,0.0,0.0,0.0,0.0,0.0,0.0,0.0
4.481,126,4,481000000,base_footprint,-0.001511111725790063,0.00356978902254539,0.38824421812782184,0.9215483710788073,0.0,0.0,0.0,0.0,0.0,0.0,0.0,0.0,0.0,-0.0001600286835679737,-0.000427009049849588,-0.06300781390473623,0.0,0.0,0.0,0.0,0.0,0.0,0.0,0.0,0.0,0.01275306370463396,0.09264887575914826,-0.0008520547829941167,0.0,0.0,0.0,0.0,0.0,0.0,0.0,0.0,0.0
4.515,127,4,515000000,base_footprint,-0.0015090237163466033,0.0035697097099336044,0.38724648332468187,0.9219680803437162,0.0,0.0,0.0,0.0,0.0,0.0,0.0,0.0,0.0,0.00010798168481981161,-0.0006454117951052628,-0.06572543238165932,0.0,0.0,0.0,0.0,0.0,0.0,0.0,0.0,0.0,0.014075152047762406,-0.011561058154743113,0.000506642928581348,0.0,0.0,0.0,0.0,0.0,0.0,0.0,0.0,0.0
4.549,128,4,549000000,base_footprint,-0.0015078374931365825,0.0035664371611698353,0.38622184530936143,0.9223977955079368,0.0,0.0,0.0,0.0,0.0,0.0,0.0,0.0,0.0,0.000402564272166069,-0.001477762613601139,-0.05064142660707,0.0,0.0,0.0,0.0,0.0,0.0,0.0,0.0,0.0,0.016541364113604993,-0.08374416962629726,-0.00043767238887126674,0.0,0.0,0.0,0.0,0.0,0.0,0.0,0.0,0.0
4.583,129,4,583000000,base_footprint,-0.0015099081512540754,0.003569172101368527,0.38584662971305694,0.9225548002839511,0.0,0.0,0.0,0.0,0.0,0.0,0.0,0.0,0.0,0.0004065503040866195,0.0002030879848217693,0.00016482434417232448,0.0,0.0,0.0,0.0,0.0,0.0,0.0,0.0,0.0,0.00904987093157603,0.009812138417720405,0.00023780544929509454,0.0,0.0,0.0,0.0,0.0,0.0,0.0,0.0,0.0
4.617,130,4,617000000,base_footprint,-0.0015053590228322814,0.0035707698691324462,0.38600419278557013,0.9224888870055371,0.0,0.0,0.0,0.0,0.0,0.0,0.0,0.0,0.0,0.0003361465831373173,0.0002865120460760023,0.013144325045590223,0.0,0.0,0.0,0.0,0.0,0.0,0.0,0.0,0.0,-0.011142750568572585,0.035396979641154624,0.00021162273499326388,0.0,0.0,0.0,0.0,0.0,0.0,0.0,0.0,0.0
4.651,131,4,651000000,base_footprint,-0.0015046959888535161,0.003568751197692462,0.38592477932094266,0.9225221214751178,0.0,0.0,0.0,0.0,0.0,0.0,0.0,0.0,0.0,0.0006483502413201399,-0.00010397535585243397,-0.01909443075874073,0.0,0.0,0.0,0.0,0.0,0.0,0.0,0.0,0.0,0.0020176233335959864,0.008926545173742405,0.0006651194424774707,0.0,0.0,0.0,0.0,0.0,0.0,0.0,0.0,0.0
4.6850000000000005,132,4,685000000,base_footprint,-0.0015024145036716156,0.003564892740724993,0.3856358925087766,0.9226429388985565,0.0,0.0,0.0,0.0,0.0,0.0,0.0,0.0,0.0,0.00016841107133996365,-0.00024454104677435823,-0.01852787517230266,0.0,0.0,0.0,0.0,0.0,0.0,0.0,0.0,0.0,0.005983934723280183,0.0017462940375028162,-0.0007717747753557487,0.0,0.0,0.0,0.0,0.0,0.0,0.0,0.0,0.0
4.719,133,4,719000000,base_footprint,-0.00149868649994255,0.003562131159428341,0.38534224799087874,0.9227656349657339,0.0,0.0,0.0,0.0,0.0,0.0,0.0,0.0,0.0,0.00026251527688533693,1.853631525816682e-05,-0.018834280215958246,0.0,0.0,0.0,0.0,0.0,0.0,0.0,0.0,0.0,0.0037648614057408753,0.005527906698155942,0.00032913964662878946,0.0,0.0,0.0,0.0,0.0,0.0,0.0,0.0,0.0
4.753,134,4,753000000,base_footprint,-0.0014980378446392668,0.0035592350144504014,0.38577850361752125,0.9225833479287139,0.0,0.0,0.0,0.0,0.0,0.0,0.0,0.0,0.0,0.0007971775439238292,0.0004046376643148448,0.05709968746555973,0.0,0.0,0.0,0.0,0.0,0.0,0.0,0.0,0.0,-0.005223892125316003,-0.014708490206695242,0.00015328336187593814,0.0,0.0,0.0,0.0,0.0,0.0,0.0,0.0,0.0
4.787,135,4,787000000,base_footprint,-0.0015005826487343146,0.0035578420555675426,0.38666900334291293,0.9222104813248548,0.0,0.0,0.0,0.0,0.0,0.0,0.0,0.0,0.0,0.0004877078978981113,0.00040268170859358865,0.05662980719205489,0.0,0.0,0.0,0.0,0.0,0.0,0.0,0.0,0.0,-0.01237496525476068,0.005700822005304647,-0.00036611689764012953,0.0,0.0,0.0,0.0,0.0,0.0,0.0,0.0,0.0
4.821,136,4,821000000,base_footprint,-0.0015037443759375246,0.0035576188509364877,0.38755311585162466,0.921839283440807,0.0,0.0,0.0,0.0,0.0,0.0,0.0,0.0,0.0,0.0004019978190235721,0.0003972376692354466,0.05623791178867418,0.0,0.0,0.0,0.0,0.0,0.0,0.0,0.0,0.0,-0.012405062005937603,0.005476896672380096,-0.00014005545131357631,0.0,0.0,0.0,0.0,0.0,0.0,0.0,0.0,0.0
4.855,137,4,855000000,base_footprint,-0.001506694448898139,0.0035594984625725782,0.3881721166317572,0.9215787908324248,0.0,0.0,0.0,0.0,0.0,0.0,0.0,0.0,0.0,0.00021415682642377158,0.00026751981815254324,0.03256157513473761,0.0,0.0,0.0,0.0,0.0,0.0,0.0,0.0,0.0,-0.008996447232449488,0.01147257400408622,-0.00019436720709810272,0.0,0.0,0.0,0.0,0.0,0.0,0.0,0.0,0.0
4.889,138,4,889000000,base_footprint,-0.0015100965572953716,0.0035627844051201334,0.3886773321335389,0.9213658109899808,0.0,0.0,0.0,0.0,0.0,0.0,0.0,0.0,0.0,7.156553348946387e-05,0.0002730567307555667,0.03186731948733615,0.0,0.0,0.0,0.0,0.0,0.0,0.0,0.0,0.0,-0.00698470785481278,0.004431165872957441,-0.00033944722529843913,0.0,0.0,0.0,0.0,0.0,0.0,0.0,0.0,0.0
4.923,139,4,923000000,base_footprint,-0.001514017633514103,0.0035657488025560573,0.38916994183999004,0.9211578309683641,0.0,0.0,0.0,0.0,0.0,0.0,0.0,0.0,0.0,0.0001252972088372572,0.0001898655504444894,0.03099068796628204,0.0,0.0,0.0,0.0,0.0,0.0,0.0,0.0,0.0,-0.005682557769609426,0.002971586793300721,-3.788576000148348e-05,0.0,0.0,0.0,0.0,0.0,0.0,0.0,0.0,0.0
4.957,140,4,957000000,base_footprint,-0.0015148892267225617,0.0035667476031967875,0.3891423563814142,0.9211694794618884,0.0,0.0,0.0,0.0,0.0,0.0,0.0,0.0,0.0,-0.00012126686708968789,-0.00020675710637936234,-0.011030570438349867,0.0,0.0,0.0,0.0,0.0,0.0,0.0,0.0,0.0,-0.0017988637123260798,0.005613283930565951,-4.821811609008517e-05,0.0,0.0,0.0,0.0,0.0,0.0,0.0,0.0,0.0
4.991,141,4,991000000,base_footprint,-0.0015159143196015513,0.0035649780980529554,0.38893128996234416,0.9212586198365599,0.0,0.0,0.0,0.0,0.0,0.0,0.0,0.0,0.0,0.0003792050886481422,-0.0005352747695871244,-0.017349969994756884,0.0,0.0,0.0,0.0,0.0,0.0,0.0,0.0,0.0,0.0022345142570404713,-0.01871702921565734,0.0009616458358847305,0.0,0.0,0.0,0.0,0.0,0.0,0.0,0.0,0.0
5.025,142,5,25000000,base_footprint,-0.0015147994394616086,0.00356390472911771,0.3884958864405923,0.9214423205955315,0.0,0.0,0.0,0.0,0.0,0.0,0.0,0.0,0.0,0.0005494050408410892,-0.00029756021292259296,-0.029409599150524116,0.0,0.0,0.0,0.0,0.0,0.0,0.0,0.0,0.0,0.009605062796267997,-0.046238996861933175,0.0009578739730169936,0.0,0.0,0.0,0.0,0.0,0.0,0.0,0.0,0.0
5.059,143,5,59000000,base_footprint,-0.001507025398182857,0.003568356277765697,0.3880988018395338,0.9216096330435368,0.0,0.0,0.0,0.0,0.0,0.0,0.0,0.0,0.0,9.690239595803096e-05,-0.0002827735699153349,-0.020568294575554584,0.0,0.0,0.0,0.0,0.0,0.0,0.0,0.0,0.0,0.005285543769534383,-0.0380285144021388,-0.001304724082486603,0.0,0.0,0.0,0.0,0.0,0.0,0.0,0.0,0.0
5.093,144,5,93000000,base_footprint,-0.001506038343964052,0.00356650248321148,0.3876096976115256,0.921815455623329,0.0,0.0,0.0,0.0,0.0,0.0,0.0,0.0,0.0,-0.0006085008261018043,-0.0006065313740142339,-0.04469894313972972,0.0,0.0,0.0,0.0,0.0,0.0,0.0,0.0,0.0,0.004144405777335901,0.06043315824406829,-0.0016302410395883618,0.0,0.0,0.0,0.0,0.0,0.0,0.0,0.0,0.0
5.127,145,5,127000000,base_footprint,-0.0015061094593820676,0.003566635990516323,0.3868240875358345,0.922145398537604,0.0,0.0,0.0,0.0,0.0,0.0,0.0,0.0,0.0,3.422936619115669e-05,-0.0004669534092308199,-0.04962330081806083,0.0,0.0,0.0,0.0,0.0,0.0,0.0,0.0,0.0,0.01237042810485604,0.01889781858671854,0.001803829085544249,0.0,0.0,0.0,0.0,0.0,0.0,0.0,0.0,0.0
5.161,146,5,161000000,base_footprint,-0.001505268104483724,0.0035621890725789514,0.38694716048167377,0.9220937804649344,0.0,0.0,0.0,0.0,0.0,0.0,0.0,0.0,0.0,0.00034645106986837867,2.0821942011430513e-05,0.01857095363550472,0.0,0.0,0.0,0.0,0.0,0.0,0.0,0.0,0.0,-0.0026740944752746887,-0.012121281863280826,-1.3899704741557795e-05,0.0,0.0,0.0,0.0,0.0,0.0,0.0,0.0,0.0
5.195,147,5,195000000,base_footprint,-0.0015045946209728863,0.0035591390654701647,0.3872370446628351,0.921972092834123,0.0,0.0,0.0,0.0,0.0,0.0,0.0,0.0,0.0,0.0004634118231757964,0.0002236264563439773,0.018358092959136714,0.0,0.0,0.0,0.0,0.0,0.0,0.0,0.0,0.0,-0.003351999837253949,0.005068704212531319,0.0003865254103196723,0.0,0.0,0.0,0.0,0.0,0.0,0.0,0.0,0.0
5.228,148,5,229000000,base_footprint,-0.0015038023111299216,0.003557185440139833,0.38752073723343466,0.9218528967380906,0.0,0.0,0.0,0.0,0.0,0.0,0.0,0.0,0.0,0.00035440755454796706,0.00019808011005945696,0.017902285912235222,0.0,0.0,0.0,0.0,0.0,0.0,0.0,0.0,0.0,-0.004104037162287211,0.005651300933323906,-0.0002089132189051186,0.0,0.0,0.0,0.0,0.0,0.0,0.0,0.0,0.0
5.263,149,5,263000000,base_footprint,-0.0015018539725843347,0.0035577745570912383,0.3872233333129342,0.9219778613463917,0.0,0.0,0.0,0.0,0.0,0.0,0.0,0.0,0.0,6.455612395264311e-05,-3.4551777142173186e-05,-0.02137515542521225,0.0,0.0,0.0,0.0,0.0,0.0,0.0,0.0,0.0,0.0035745202179437658,0.01608264535882031,-0.0002632715103485866,0.0,0.0,0.0,0.0,0.0,0.0,0.0,0.0,0.0
5.297,150,5,297000000,base_footprint,-0.0015005434122978955,0.0035596244534003016,0.3868835853681645,0.9221204741333384,0.0,0.0,0.0,0.0,0.0,0.0,0.0,0.0,0.0,-2.837236124967903e-05,-4.88991653220631e-05,-0.021904639127277567,0.0,0.0,0.0,0.0,0.0,0.0,0.0,0.0,0.0,0.004666821583716545,0.005845171649297778,-0.00025506319168082197,0.0,0.0,0.0,0.0,0.0,0.0,0.0,0.0,0.0
5.331,151,5,331000000,base_footprint,-0.0015012672765195923,0.0035656010723830556,0.38653578962851093,0.9222662934433963,0.0,0.0,0.0,0.0,0.0,0.0,0.0,0.0,0.0,-0.0058727385937027135,-0.0004113837467516622,-0.02126699922224339,0.0,0.0,0.0,0.0,0.0,0.0,0.0,0.0,0.0,0.004832320065600856,-0.024495744722517726,0.00016685928497540636,0.0,0.0,0.0,0.0,0.0,0.0,0.0,0.0,0.0
5.365,152,5,365000000,base_footprint,-0.0014984600434666347,0.0035565413485014077,0.3865460106678742,0.9222620491313119,0.0,0.0,0.0,0.0,0.0,0.0,0.0,0.0,0.0,0.0022514633103651854,0.00041100068157120666,0.016718489072670362,0.0,0.0,0.0,0.0,0.0,0.0,0.0,0.0,0.0,0.014368681747175566,-0.6876673180539155,-0.0006307164651393859,0.0,0.0,0.0,0.0,0.0,0.0,0.0,0.0,0.0
5.399,153,5,399000000,base_footprint,-0.0015021267352629177,0.003569018327714515,0.38633597405870734,0.9223499991172319,0.0,0.0,0.0,0.0,0.0,0.0,0.0,0.0,0.0,-0.0016892999758176496,-0.00011444972890364727,-0.03128868245581208,0.0,0.0,0.0,0.0,0.0,0.0,0.0,0.0,0.0,-0.005399100197170464,0.39076698077101985,-0.0011690036613107193,0.0,0.0,0.0,0.0,0.0,0.0,0.0,0.0,0.0
5.433,154,5,433000000,base_footprint,-0.0015028710121614429,0.0035737322337276015,0.38582748636477504,0.922562800345907,0.0,0.0,0.0,0.0,0.0,0.0,0.0,0.0,0.0,-0.0014304293973577957,-0.0009143694827788843,-0.03924653761027922,0.0,0.0,0.0,0.0,0.0,0.0,0.0,0.0,0.0,0.007745181927230571,0.01672183031661597,0.003208693241253319,0.0,0.0,0.0,0.0,0.0,0.0,0.0,0.0,0.0
5.467,155,5,467000000,base_footprint,-0.0015019181844076982,0.0035681121363446686,0.38499273151782737,0.922911485190206,0.0,0.0,0.0,0.0,0.0,0.0,0.0,0.0,0.0,0.0004112564880342888,-0.0006188445404878585,-0.04824550442581997,0.0,0.0,0.0,0.0,0.0,0.0,0.0,0.0,0.0,0.00925022748494117,0.09702040243467094,3.756712977742222e-05,0.0,0.0,0.0,0.0,0.0,0.0,0.0,0.0,0.0
5.501,156,5,501000000,base_footprint,-0.0015028530249575273,0.0035610924298389275,0.38412747486579946,0.9232719767797115,0.0,0.0,0.0,0.0,0.0,0.0,0.0,0.0,0.0,0.002427058342166782,-0.0038092093803224055,-0.05430710913518472,0.0,0.0,0.0,0.0,0.0,0.0,0.0,0.0,0.0,0.015361823507171263,-0.02840483082930038,0.005170061636968277,0.0,0.0,0.0,0.0,0.0,0.0,0.0,0.0,0.0
5.535,157,5,535000000,base_footprint,-0.0014957314857670114,0.003578568024998865,0.3836259767834891,0.9234804094159913,0.0,0.0,0.0,0.0,0.0,0.0,0.0,0.0,0.0,-0.0028333423962018526,0.0007803352632410092,-0.019739595920948406,0.0,0.0,0.0,0.0,0.0,0.0,0.0,0.0,0.0,0.004649614293042562,-0.037185296464929504,-0.007312484035454913,0.0,0.0,0.0,0.0,0.0,0.0,0.0,0.0,0.0
5.569,158,5,569000000,base_footprint,-0.0014868044660058524,0.0035613584183200337,0.38274434201131047,0.9238462398023954,0.0,0.0,0.0,0.0,0.0,0.0,0.0,0.0,0.0,-0.00016213871019830732,0.0016006329198853685,-0.04631970767998349,0.0,0.0,0.0,0.0,0.0,0.0,0.0,0.0,0.0,0.004928823111414224,-0.31491876643698036,0.0046240409702337625,0.0,0.0,0.0,0.0,0.0,0.0,0.0,0.0,0.0
5.603,159,5,603000000,base_footprint,-0.0014909409022415697,0.003573533262425509,0.3828244581514296,0.9238129903807982,0.0,0.0,0.0,0.0,0.0,0.0,0.0,0.0,0.0,-0.0021349646720767853,0.0015537279806215965,0.045072628770643254,0.0,0.0,0.0,0.0,0.0,0.0,0.0,0.0,0.0,0.0061010543717133076,0.20700201325578932,-0.0054605891919075715,0.0,0.0,0.0,0.0,0.0,0.0,0.0,0.0,0.0
5.6370000000000005,160,5,637000000,base_footprint,-0.0014918315258906235,0.0035658192559461332,0.38342254872719417,0.9235649454690638,0.0,0.0,0.0,0.0,0.0,0.0,0.0,0.0,0.0,0.001133959040244113,-0.0012345880031165925,0.005448354035326827,0.0,0.0,0.0,0.0,0.0,0.0,0.0,0.0,0.0,-0.008252491048235578,0.00919110659285752,0.0032828954728969023,0.0,0.0,0.0,0.0,0.0,0.0,0.0,0.0,0.0
5.671,161,5,671000000,base_footprint,-0.0014913738110140283,0.0035663887195008072,0.3835556095051213,0.923509691932257,0.0,0.0,0.0,0.0,0.0,0.0,0.0,0.0,0.0,0.00046571078799230865,0.00018583374023021991,0.009048887830861744,0.0,0.0,0.0,0.0,0.0,0.0,0.0,0.0,0.0,-0.0035806918767628928,0.004654067023545426,0.00045978330477301657,0.0,0.0,0.0,0.0,0.0,0.0,0.0,0.0,0.0
5.705,162,5,705000000,base_footprint,-0.0014895853607839477,0.0035640364700545452,0.3836932759650514,0.9234525157032711,0.0,0.0,0.0,0.0,0.0,0.0,0.0,0.0,0.0,0.0003417014793526571,0.00014902756465507623,0.008572560334587056,0.0,0.0,0.0,0.0,0.0,0.0,0.0,0.0,0.0,-0.001814923647920766,0.005394530582309382,-0.0002355907580580555,0.0,0.0,0.0,0.0,0.0,0.0,0.0,0.0,0.0
5.739,163,5,739000000,base_footprint,-0.0014861524857740682,0.0035581884429952975,0.38382436116240015,0.9233980671541763,0.0,0.0,0.0,0.0,0.0,0.0,0.0,0.0,0.0,-0.0024144839620163097,-0.0005790918467252218,0.011615320480582544,0.0,0.0,0.0,0.0,0.0,0.0,0.0,0.0,0.0,-0.0012499374523798207,0.18398341977676355,-0.004935008197963452,0.0,0.0,0.0,0.0,0.0,0.0,0.0,0.0,0.0
5.773,164,5,773000000,base_footprint,-0.0014917017257219934,0.003562093178568297,0.3847443588253145,0.9230150944975096,0.0,0.0,0.0,0.0,0.0,0.0,0.0,0.0,0.0,0.0005260108816061416,0.00045366468351867406,0.06750041251875805,0.0,0.0,0.0,0.0,0.0,0.0,0.0,0.0,0.0,-0.014675741983822092,0.15205742420150636,0.0028737003206868953,0.0,0.0,0.0,0.0,0.0,0.0,0.0,0.0,0.0
5.807,165,5,807000000,base_footprint,-0.0014960269181019475,0.0035625032920716727,0.38579877053533296,0.9225748636978898,0.0,0.0,0.0,0.0,0.0,0.0,0.0,0.0,0.0,0.00039883565356257325,0.000452313216847219,0.06699734704695723,0.0,0.0,0.0,0.0,0.0,0.0,0.0,0.0,0.0,-0.014614014348799196,0.005390059816242462,-0.00018163380007153818,0.0,0.0,0.0,0.0,0.0,0.0,0.0,0.0,0.0
5.841,166,5,841000000,base_footprint,-0.001499085500379908,0.003565251027320801,0.386624212737299,0.9222292338963445,0.0,0.0,0.0,0.0,0.0,0.0,0.0,0.0,0.0,-0.0010997346180064162,-0.0008590394084639565,0.01487224373272818,0.0,0.0,0.0,0.0,0.0,0.0,0.0,0.0,0.0,-0.012930804787240308,0.018465243311705775,-0.0017524180566604367,0.0,0.0,0.0,0.0,0.0,0.0,0.0,0.0,0.0
5.875,167,5,875000000,base_footprint,-0.0015034676031029984,0.0035689363350910937,0.3868693094273873,0.9221264228411303,0.0,0.0,0.0,0.0,0.0,0.0,0.0,0.0,0.0,4.619696530357735e-07,0.00010422325554492808,0.015286177406170814,0.0,0.0,0.0,0.0,0.0,0.0,0.0,0.0,0.0,-0.0018762472681022777,0.0033137683427268807,0.0012042847417604668,0.0,0.0,0.0,0.0,0.0,0.0,0.0,0.0,0.0
5.909,168,5,909000000,base_footprint,-0.001505442638840665,0.0035707952151347476,0.387093380119285,0.9220323736896767,0.0,0.0,0.0,0.0,0.0,0.0,0.0,0.0,0.0,8.261312685253166e-05,5.6602792201964345e-05,0.013416612509254624,0.0,0.0,0.0,0.0,0.0,0.0,0.0,0.0,0.0,-0.002089429435100221,-0.0008547473075321657,0.0001647044061611741,0.0,0.0,0.0,0.0,0.0,0.0,0.0,0.0,0.0
5.943,169,5,943000000,base_footprint,-0.0015052616251826913,0.003569279409921664,0.3871920727662838,0.9219909398789571,0.0,0.0,0.0,0.0,0.0,0.0,0.0,0.0,0.0,-0.0003906376801168298,2.748453673557131e-05,-0.014015656575554173,0.0,0.0,0.0,0.0,0.0,0.0,0.0,0.0,0.0,-0.0065105221981948905,0.011448036659242664,-0.0003324099068136526,0.0,0.0,0.0,0.0,0.0,0.0,0.0,0.0,0.0
5.977,170,5,977000000,base_footprint,-0.0015072315471920193,0.003570141848694848,0.38687769320706655,0.9221228946507196,0.0,0.0,0.0,0.0,0.0,0.0,0.0,0.0,0.0,-6.148531345395342e-05,0.00020012872522700176,-0.02662519260213054,0.0,0.0,0.0,0.0,0.0,0.0,0.0,0.0,0.0,0.00943553730912239,-0.05422183683885595,0.0006962846290682823,0.0,0.0,0.0,0.0,0.0,0.0,0.0,0.0,0.0
6.011,171,6,11000000,base_footprint,-0.001501043236436932,0.003570430846793288,0.386650167697296,0.9222183291999915,0.0,0.0,0.0,0.0,0.0,0.0,0.0,0.0,0.0,0.0003317284107629147,2.8270637580366038e-05,0.0019665099353485924,0.0,0.0,0.0,0.0,0.0,0.0,0.0,0.0,0.0,-0.0037043427083637975,-0.0013180425532525078,0.0006564553284432727,0.0,0.0,0.0,0.0,0.0,0.0,0.0,0.0,0.0
6.045,172,6,45000000,base_footprint,-0.001500749753731303,0.0035641839501870656,0.38657184843715275,0.9222511861411884,0.0,0.0,0.0,0.0,0.0,0.0,0.0,0.0,0.0,-0.0008007294842273352,0.0006500497315733514,-0.024136508833679023,0.0,0.0,0.0,0.0,0.0,0.0,0.0,0.0,0.0,0.004326868929965057,-0.03961961348636103,-0.0009128880810702717,0.0,0.0,0.0,0.0,0.0,0.0,0.0,0.0,0.0
6.079,173,6,79000000,base_footprint,-0.001504543301230475,0.003569597643402416,0.38598168423472123,0.9224983109780999,0.0,0.0,0.0,0.0,0.0,0.0,0.0,0.0,0.0,0.0006584047123736998,-0.0001719006939701293,-0.04233039849719885,0.0,0.0,0.0,0.0,0.0,0.0,0.0,0.0,0.0,0.007831634040232092,0.06102048874729002,0.0016292233797280597,0.0,0.0,0.0,0.0,0.0,0.0,0.0,0.0,0.0
6.113,174,6,113000000,base_footprint,-0.0015012470136718645,0.0035662332822925464,0.38532051430204617,0.9227746905369626,0.0,0.0,0.0,0.0,0.0,0.0,0.0,0.0,0.0,9.43527006952266e-06,-0.00038542348463994685,-0.04273037479211517,0.0,0.0,0.0,0.0,0.0,0.0,0.0,0.0,0.0,0.011358984062973344,0.00415537064000214,-0.0011433325282902646,0.0,0.0,0.0,0.0,0.0,0.0,0.0,0.0,0.0
6.147,175,6,147000000,base_footprint,-0.0014982502830567291,0.003563241655967706,0.38516380443862214,0.9228401282483102,0.0,0.0,0.0,0.0,0.0,0.0,0.0,0.0,0.0,-0.00042699150850393947,-2.1902538816205244e-05,0.03390229766644166,0.0,0.0,0.0,0.0,0.0,0.0,0.0,0.0,0.0,0.003956072567284214,-0.015934976971850076,-0.0009375742156880322,0.0,0.0,0.0,0.0,0.0,0.0,0.0,0.0,0.0
6.181,176,6,181000000,base_footprint,-0.001498069522971243,0.0035601952783504576,0.3856849154762978,0.9226224725050467,0.0,0.0,0.0,0.0,0.0,0.0,0.0,0.0,0.0,0.00047742891600930314,0.0002942116993532687,0.03302676130023727,0.0,0.0,0.0,0.0,0.0,0.0,0.0,0.0,0.0,-0.008628866133945111,0.006493756408231795,0.0013020365006232034,0.0,0.0,0.0,0.0,0.0,0.0,0.0,0.0,0.0
6.215,177,6,215000000,base_footprint,-0.0014986864457353886,0.0035588836506586937,0.38619913291927244,0.9224073492869085,0.0,0.0,0.0,0.0,0.0,0.0,0.0,0.0,0.0,0.00038032939835543555,0.00027800009947592065,0.03261960611169155,0.0,0.0,0.0,0.0,0.0,0.0,0.0,0.0,0.0,-0.007255595449647663,0.005643108394241109,-0.0001739431994464006,0.0,0.0,0.0,0.0,0.0,0.0,0.0,0.0,0.0
6.249,178,6,249000000,base_footprint,-0.0014989903022357787,0.003559730580830022,0.38638137872956874,0.9223310205762916,0.0,0.0,0.0,0.0,0.0,0.0,0.0,0.0,0.0,-6.719562465727039e-05,3.8214437859384706e-05,-0.006963014881481291,0.0,0.0,0.0,0.0,0.0,0.0,0.0,0.0,0.0,-0.0036307866712446692,0.01611742160145352,-0.0004391513527125746,0.0,0.0,0.0,0.0,0.0,0.0,0.0,0.0,0.0
6.283,179,6,283000000,base_footprint,-0.0014987919310257222,0.0035622222909511407,0.3862706711316421,0.9223773809122859,0.0,0.0,0.0,0.0,0.0,0.0,0.0,0.0,0.0,-1.811245812688126e-05,4.753541710072233e-05,-0.007271810761221576,0.0,0.0,0.0,0.0,0.0,0.0,0.0,0.0,0.0,0.0020636614864693722,0.005428999270627078,-6.164040716428373e-05,0.0,0.0,0.0,0.0,0.0,0.0,0.0,0.0,0.0
6.317,180,6,317000000,base_footprint,-0.0014994855776877972,0.0035664876811272216,0.386151097420644,0.9224274289446596,0.0,0.0,0.0,0.0,0.0,0.0,0.0,0.0,0.0,-0.00011417635042499607,1.95784690464725e-05,-0.007924243382446187,0.0,0.0,0.0,0.0,0.0,0.0,0.0,0.0,0.0,0.0017891041311742049,0.005073409423668612,-0.00028143042595196353,0.0,0.0,0.0,0.0,0.0,0.0,0.0,0.0,0.0
6.351,181,6,351000000,base_footprint,-0.0014983231925279313,0.0035578490771811778,0.38621787518978357,0.9223995065162619,0.0,0.0,0.0,0.0,0.0,0.0,0.0,0.0,0.0,0.0011495953545776142,0.00022592381406196825,0.030509927768208274,0.0,0.0,0.0,0.0,0.0,0.0,0.0,0.0,0.0,0.004778140460757058,-0.39923691943283385,0.0036580362228642417,0.0,0.0,0.0,0.0,0.0,0.0,0.0,0.0,0.0
6.385,182,6,385000000,base_footprint,-0.0015021114743878608,0.0035627160435479847,0.3866921989576618,0.9222007341033727,0.0,0.0,0.0,0.0,0.0,0.0,0.0,0.0,0.0,-0.0013751462225286902,0.0007584394018317489,-0.01029569628101129,0.0,0.0,0.0,0.0,0.0,0.0,0.0,0.0,0.0,-0.0068843619119484615,0.04080422067165571,-0.003370255494778985,0.0,0.0,0.0,0.0,0.0,0.0,0.0,0.0,0.0
6.4190000000000005,183,6,419000000,base_footprint,-0.0015047005308317027,0.0035721705358741063,0.38639722748876315,0.9223243236860731,0.0,0.0,0.0,0.0,0.0,0.0,0.0,0.0,0.0,0.00010423187404134918,-0.00017556553044046605,-0.020945133289953774,0.0,0.0,0.0,0.0,0.0,0.0,0.0,0.0,0.0,0.0057323856859067875,0.010720270705235357,0.0019109308093077986,0.0,0.0,0.0,0.0,0.0,0.0,0.0,0.0,0.0
6.453,184,6,453000000,base_footprint,-0.0015025480467378,0.003558785206283287,0.38568825815948204,0.9226210733096917,0.0,0.0,0.0,0.0,0.0,0.0,0.0,0.0,0.0,0.001318019062865037,-0.0013603783566519122,-0.07933151160264003,0.0,0.0,0.0,0.0,0.0,0.0,0.0,0.0,0.0,0.006812465644029857,0.044279767817843256,0.002540873149785615,0.0,0.0,0.0,0.0,0.0,0.0,0.0,0.0,0.0
6.487,185,6,487000000,base_footprint,-0.0014926596312511925,0.0035567528196339465,0.3844341867815918,0.9231443427277132,0.0,0.0,0.0,0.0,0.0,0.0,0.0,0.0,0.0,-0.0007752405977103382,1.5099213841863026e-05,-0.06042500975781895,0.0,0.0,0.0,0.0,0.0,0.0,0.0,0.0,0.0,0.00349520681526155,0.0404397034861139,-0.003926696044866436,0.0,0.0,0.0,0.0,0.0,0.0,0.0,0.0,0.0
6.521,186,6,521000000,base_footprint,-0.0014938941232831514,0.0035600779408212725,0.3842211249948806,0.9232330265068901,0.0,0.0,0.0,0.0,0.0,0.0,0.0,0.0,0.0,0.0007861795598650239,0.00033106374659590233,0.026158071038777153,0.0,0.0,0.0,0.0,0.0,0.0,0.0,0.0,0.0,0.014510618250350722,0.09624655073352256,0.002079196799762402,0.0,0.0,0.0,0.0,0.0,0.0,0.0,0.0,0.0
6.555,187,6,555000000,base_footprint,-0.0014957153467015781,0.0035712138225344066,0.38458213191623397,0.9230826577713395,0.0,0.0,0.0,0.0,0.0,0.0,0.0,0.0,0.0,-0.0011634041356504345,-0.0012169665693503545,0.00037458673114388545,0.0,0.0,0.0,0.0,0.0,0.0,0.0,0.0,0.0,-0.0037414726490390474,0.13072940106496744,-0.005042311292710797,0.0,0.0,0.0,0.0,0.0,0.0,0.0,0.0,0.0
6.589,188,6,589000000,base_footprint,-0.001495559550022692,0.003567744590239411,0.38460764107093076,0.9230720431959931,0.0,0.0,0.0,0.0,0.0,0.0,0.0,0.0,0.0,0.00040337746712334306,-4.0884043286547154e-05,0.0024823001188101863,0.0,0.0,0.0,0.0,0.0,0.0,0.0,0.0,0.0,-0.002126205639848848,0.001528028030347349,0.0030313479141679035,0.0,0.0,0.0,0.0,0.0,0.0,0.0,0.0,0.0
6.623,189,6,623000000,base_footprint,-0.00149482252410051,0.0035651107191670274,0.38464752427781146,0.9230554357990273,0.0,0.0,0.0,0.0,0.0,0.0,0.0,0.0,0.0,0.00025099697178333427,-7.605966720453076e-05,0.002584445324275287,0.0,0.0,0.0,0.0,0.0,0.0,0.0,0.0,0.0,-0.0005361787878952391,0.004225167444586604,-0.0002964447169938502,0.0,0.0,0.0,0.0,0.0,0.0,0.0,0.0,0.0
6.657,190,6,657000000,base_footprint,-0.0014903141436891727,0.003562679585400773,0.384531408889565,0.9231038304845944,0.0,0.0,0.0,0.0,0.0,0.0,0.0,0.0,0.0,0.0048911080250410586,-0.0001389776414769783,-0.02228921792977791,0.0,0.0,0.0,0.0,0.0,0.0,0.0,0.0,0.0,0.008135526490897466,-0.6600232789802724,0.008973433678486274,0.0,0.0,0.0,0.0,0.0,0.0,0.0,0.0,0.0
6.691,191,6,691000000,base_footprint,-0.0014902250042428849,0.003562895440647544,0.3842679841332428,0.9232135188436583,0.0,0.0,0.0,0.0,0.0,0.0,0.0,0.0,0.0,0.0008096858173936508,0.00016038164672854956,-0.008839495700404392,0.0,0.0,0.0,0.0,0.0,0.0,0.0,0.0,0.0,-0.0003209999740522579,0.34333606460218025,-0.006376607845688864,0.0,0.0,0.0,0.0,0.0,0.0,0.0,0.0,0.0
6.725,192,6,725000000,base_footprint,-0.0014890404575195824,0.0035634014842292785,0.38415397633717085,0.9232609638627198,0.0,0.0,0.0,0.0,0.0,0.0,0.0,0.0,0.0,9.635776991481445e-05,3.698785436116081e-05,-0.007014230495239289,0.0,0.0,0.0,0.0,0.0,0.0,0.0,0.0,0.0,0.0017733997437610481,-0.005791037940396625,-0.0009119992797858534,0.0,0.0,0.0,0.0,0.0,0.0,0.0,0.0,0.0
6.759,193,6,759000000,base_footprint,-0.001489795087627715,0.0035645879973893423,0.3842766411242645,0.9232099096680338,0.0,0.0,0.0,0.0,0.0,0.0,0.0,0.0,0.0,-0.00024294219291711838,0.0004128012940751778,0.03292446127048876,0.0,0.0,0.0,0.0,0.0,0.0,0.0,0.0,0.0,-0.0028045322241013887,0.3380999332328862,-0.002699953009132592,0.0,0.0,0.0,0.0,0.0,0.0,0.0,0.0,0.0
6.793,194,6,793000000,base_footprint,-0.0014925593958263054,0.0035673904993497015,0.38478518848585197,0.9229980523887267,0.0,0.0,0.0,0.0,0.0,0.0,0.0,0.0,0.0,0.00011462317379247264,0.00025390350866022075,0.03209351817290319,0.0,0.0,0.0,0.0,0.0,0.0,0.0,0.0,0.0,-0.007592025268877793,0.002730072258032625,0.00044546371240653665,0.0,0.0,0.0,0.0,0.0,0.0,0.0,0.0,0.0
6.827,195,6,827000000,base_footprint,-0.0014966499155550687,0.0035710783985212838,0.38528099812403505,0.9227911789363015,0.0,0.0,0.0,0.0,0.0,0.0,0.0,0.0,0.0,-1.0988169553983142e-05,0.00015410502107083884,0.031119893239763746,0.0,0.0,0.0,0.0,0.0,0.0,0.0,0.0,0.0,-0.006436231458968064,0.003500156576264027,-0.0004309773835389219,0.0,0.0,0.0,0.0,0.0,0.0,0.0,0.0,0.0
6.861,196,6,861000000,base_footprint,-0.00150465089967214,0.0035615299773777975,0.38621636900808964,0.9224001126626652,0.0,0.0,0.0,0.0,0.0,0.0,0.0,0.0,0.0,-0.0016457764742939217,-0.0013257905537387038,0.08137458951158962,0.0,0.0,0.0,0.0,0.0,0.0,0.0,0.0,0.0,-0.002255377838361383,-0.49917993673312683,-0.0007906063891603406,0.0,0.0,0.0,0.0,0.0,0.0,0.0,0.0,0.0
6.895,197,6,895000000,base_footprint,-0.0015076268622036095,0.003569108264060608,0.3869579746979563,0.922089211706275,0.0,0.0,0.0,0.0,0.0,0.0,0.0,0.0,0.0,-0.00040650219944228744,0.00037786494276853934,0.039995083175644784,0.0,0.0,0.0,0.0,0.0,0.0,0.0,0.0,0.0,-0.012744215806228094,0.16188474968101585,0.0017056415480609251,0.0,0.0,0.0,0.0,0.0,0.0,0.0,0.0,0.0
6.929,198,6,929000000,base_footprint,-0.0015120654620706655,0.003565888196929779,0.38749344470825936,0.9218643221252966,0.0,0.0,0.0,0.0,0.0,0.0,0.0,0.0,0.0,0.0003405370901449293,-8.377302906217893e-05,0.024643118220111004,0.0,0.0,0.0,0.0,0.0,0.0,0.0,0.0,0.0,-0.00830207798125873,-0.04086888153445735,0.0019251939527072679,0.0,0.0,0.0,0.0,0.0,0.0,0.0,0.0,0.0
6.963,199,6,963000000,base_footprint,-0.0015065791652383097,0.0035503480404479267,0.38756825371157727,0.921832942545974,0.0,0.0,0.0,0.0,0.0,0.0,0.0,0.0,0.0,0.00017100458295716853,0.0018339709993473485,0.00635668366405178,0.0,0.0,0.0,0.0,0.0,0.0,0.0,0.0,0.0,-0.01102992653171668,0.05527400453376879,7.014124336493788e-05,0.0,0.0,0.0,0.0,0.0,0.0,0.0,0.0,0.0
6.997,200,6,997000000,base_footprint,-0.0014977662223062227,0.0035621698795690517,0.38820708941518245,0.921564063627638,0.0,0.0,0.0,0.0,0.0,0.0,0.0,0.0,0.0,0.00018083669235058688,0.002441058895537022,0.06523685088508095,0.0,0.0,0.0,0.0,0.0,0.0,0.0,0.0,0.0,-0.0007249364956651988,0.061046909367136755,0.002636855527532058,0.0,0.0,0.0,0.0,0.0,0.0,0.0,0.0,0.0
7.031,201,7,31000000,base_footprint,-0.0015000847271453778,0.0035603527826634914,0.388950215083828,0.9212506737148789,0.0,0.0,0.0,0.0,0.0,0.0,0.0,0.0,0.0,-0.009875476411822678,-0.0019512594821874663,0.024551088126391434,0.0,0.0,0.0,0.0,0.0,0.0,0.0,0.0,0.0,-0.013298756646927833,0.06930392629701701,-0.020767817262206768,0.0,0.0,0.0,0.0,0.0,0.0,0.0,0.0,0.0
7.065,202,7,65000000,base_footprint,-0.001511656220424821,0.003557877756803181,0.3887009035333685,0.921355883463975,0.0,0.0,0.0,0.0,0.0,0.0,0.0,0.0,0.0,0.008315800639362237,-0.002835965807853513,-0.028992468573775545,0.0,0.0,0.0,0.0,0.0,0.0,0.0,0.0,0.0,0.01615894348851943,-0.5868510305762267,0.03253490414153938,0.0,0.0,0.0,0.0,0.0,0.0,0.0,0.0,0.0
7.099,203,7,99000000,base_footprint,-0.0015109924941477642,0.0035598892116238253,0.38868951961578985,0.9213606793386238,0.0,0.0,0.0,0.0,0.0,0.0,0.0,0.0,0.0,0.0002738612453694994,-0.00010855518647819326,0.001663355055659419,0.0,0.0,0.0,0.0,0.0,0.0,0.0,0.0,0.0,-0.00047553823870087955,0.07338815831685376,-0.01227599381115586,0.0,0.0,0.0,0.0,0.0,0.0,0.0,0.0,0.0
7.133,204,7,133000000,base_footprint,-0.0015055433441290788,0.0035503012781091777,0.388717768386776,0.9213488075861815,0.0,0.0,0.0,0.0,0.0,0.0,0.0,0.0,0.0,0.00607757019479238,0.0016140871499772456,0.003461735804765001,0.0,0.0,0.0,0.0,0.0,0.0,0.0,0.0,0.0,-0.002109471853606687,0.06651079042924764,0.008650554352325809,0.0,0.0,0.0,0.0,0.0,0.0,0.0,0.0,0.0
7.167,205,7,167000000,base_footprint,-0.0015063192602639201,0.0035527218414060993,0.3889101140213902,0.9212676225623438,0.0,0.0,0.0,0.0,0.0,0.0,0.0,0.0,0.0,-0.0029005036916033783,-0.0011011085280304984,0.01226619543554087,0.0,0.0,0.0,0.0,0.0,0.0,0.0,0.0,0.0,-0.0184570698062847,0.6109353764194637,-0.01703665938692145,0.0,0.0,0.0,0.0,0.0,0.0,0.0,0.0,0.0
7.201,206,7,201000000,base_footprint,-0.0015081474206192096,0.003555085598095341,0.389061167006399,0.9212038293371162,0.0,0.0,0.0,0.0,0.0,0.0,0.0,0.0,0.0,0.00024770031482922725,0.00014301354267204738,0.009313274432941481,0.0,0.0,0.0,0.0,0.0,0.0,0.0,0.0,0.0,-0.0030723573349755564,0.016403870994314805,0.00472012762701984,0.0,0.0,0.0,0.0,0.0,0.0,0.0,0.0,0.0
7.235,207,7,235000000,base_footprint,-0.0015069865019956585,0.0035560757139143392,0.38914410645771114,0.921168794372904,0.0,0.0,0.0,0.0,0.0,0.0,0.0,0.0,0.0,-0.0005279067973575824,0.0006452049745668996,-0.02415718776295806,0.0,0.0,0.0,0.0,0.0,0.0,0.0,0.0,0.0,-0.0010335445736215682,0.011256405422499442,-0.0007581133190805348,0.0,0.0,0.0,0.0,0.0,0.0,0.0,0.0,0.0
7.269,208,7,269000000,base_footprint,-0.0015073618238924662,0.0035593262705304928,0.38875525613337103,0.9213329527839048,0.0,0.0,0.0,0.0,0.0,0.0,0.0,0.0,0.0,-0.0001259649315517505,-6.29122478951147e-05,-0.024773269111999664,0.0,0.0,0.0,0.0,0.0,0.0,0.0,0.0,0.0,0.004687003040826691,0.00877775777722884,0.00021924375788205143,0.0,0.0,0.0,0.0,0.0,0.0,0.0,0.0,0.0
7.303,209,7,303000000,base_footprint,-0.0015073862050621258,0.0035643210130674873,0.3883604524978262,0.9214994206933764,0.0,0.0,0.0,0.0,0.0,0.0,0.0,0.0,0.0,-0.00025719218338685036,-8.51493740655066e-05,-0.0256341513084856,0.0,0.0,0.0,0.0,0.0,0.0,0.0,0.0,0.0,0.005611769465468275,0.004835824952274696,-0.0003394165938170065,0.0,0.0,0.0,0.0,0.0,0.0,0.0,0.0,0.0
7.337,210,7,337000000,base_footprint,-0.0015046548698094838,0.003555789803436717,0.38797608083144713,0.9216613548778461,0.0,0.0,0.0,0.0,0.0,0.0,0.0,0.0,0.0,0.005773351955743158,-0.00044779221047934123,-0.012288408404401534,0.0,0.0,0.0,0.0,0.0,0.0,0.0,0.0,0.0,0.006565108529823262,-0.11211648725179744,0.00896847547223562,0.0,0.0,0.0,0.0,0.0,0.0,0.0,0.0,0.0
7.371,211,7,371000000,base_footprint,-0.001506809992372037,0.003568234985263575,0.38801192501512966,0.9216462137223752,0.0,0.0,0.0,0.0,0.0,0.0,0.0,0.0,0.0,4.149139095659018e-05,0.0010508426770956768,-0.022864792581883155,0.0,0.0,0.0,0.0,0.0,0.0,0.0,0.0,0.0,0.004913992169753537,-0.2274592035690553,-0.006507632472552027,0.0,0.0,0.0,0.0,0.0,0.0,0.0,0.0,0.0
7.405,212,7,405000000,base_footprint,-0.0015111957748484017,0.0035658284924356683,0.3876307243719494,0.9218066080677498,0.0,0.0,0.0,0.0,0.0,0.0,0.0,0.0,0.0,0.0003163243015050791,-0.0007830890586483791,-0.025499933257849286,0.0,0.0,0.0,0.0,0.0,0.0,0.0,0.0,0.0,0.003741816161218687,-0.022237039557507613,0.00020307563441386426,0.0,0.0,0.0,0.0,0.0,0.0,0.0,0.0,0.0
7.439,213,7,439000000,base_footprint,-0.0015101798943810336,0.003545796765103715,0.3870382388830914,0.9220556102124546,0.0,0.0,0.0,0.0,0.0,0.0,0.0,0.0,0.0,0.0031201666689909717,0.0006748169652586477,-0.04942829734345018,0.0,0.0,0.0,0.0,0.0,0.0,0.0,0.0,0.0,0.008478367960972406,-0.025398956259038725,0.004543584358931476,0.0,0.0,0.0,0.0,0.0,0.0,0.0,0.0,0.0
7.473,214,7,473000000,base_footprint,-0.001500924222956499,0.0035566360883638524,0.3865516522411543,0.9222596801963348,0.0,0.0,0.0,0.0,0.0,0.0,0.0,0.0,0.0,-0.000383291420906905,-0.00016630293968822947,0.0031198044419666346,0.0,0.0,0.0,0.0,0.0,0.0,0.0,0.0,0.0,0.00608257742873094,0.036087349041693105,-0.006349310371854561,0.0,0.0,0.0,0.0,0.0,0.0,0.0,0.0,0.0
7.507,215,7,507000000,base_footprint,-0.0014936502533405532,0.0035567315148484586,0.3871702947823604,0.9220001526615884,0.0,0.0,0.0,0.0,0.0,0.0,0.0,0.0,0.0,-0.002087336709530651,0.0007662351739314142,0.06820814133909701,0.0,0.0,0.0,0.0,0.0,0.0,0.0,0.0,0.0,-0.006938301328336789,0.1661001678058554,-0.006884579737472044,0.0,0.0,0.0,0.0,0.0,0.0,0.0,0.0,0.0
7.541,216,7,541000000,base_footprint,-0.001502203548664446,0.0035585016848429293,0.38775112660384936,0.9217560112457651,0.0,0.0,0.0,0.0,0.0,0.0,0.0,0.0,0.0,-0.0015652826703108126,-0.0004996335519392176,-0.007310537657807235,0.0,0.0,0.0,0.0,0.0,0.0,0.0,0.0,0.0,-0.012358455960018423,0.1251497224863362,0.0031506980060656215,0.0,0.0,0.0,0.0,0.0,0.0,0.0,0.0,0.0
7.575,217,7,575000000,base_footprint,-0.0015059406395397717,0.003562122834423042,0.387565339305241,0.921834123469573,0.0,0.0,0.0,0.0,0.0,0.0,0.0,0.0,0.0,0.0003041024217802969,-0.00013175569936031028,-0.011320550635067064,0.0,0.0,0.0,0.0,0.0,0.0,0.0,0.0,0.0,0.0016048341396276474,0.024767626350265578,0.0038412493463919764,0.0,0.0,0.0,0.0,0.0,0.0,0.0,0.0,0.0
7.609,218,7,609000000,base_footprint,-0.001504810003685905,0.0035602599455484764,0.3873865832867483,0.9219092662433717,0.0,0.0,0.0,0.0,0.0,0.0,0.0,0.0,0.0,0.00026669714793083044,2.6199617442680383e-05,-0.011580895749486123,0.0,0.0,0.0,0.0,0.0,0.0,0.0,0.0,0.0,0.0024789508803476513,0.0050053087505222,9.619793215396387e-05,0.0,0.0,0.0,0.0,0.0,0.0,0.0,0.0,0.0
7.643,219,7,643000000,base_footprint,-0.0015044239650302772,0.0035638299229486616,0.3871819290159175,0.9219952221504876,0.0,0.0,0.0,0.0,0.0,0.0,0.0,0.0,0.0,0.002649095716507747,-5.4154221151059756e-05,-0.01732807725201116,0.0,0.0,0.0,0.0,0.0,0.0,0.0,0.0,0.0,0.009802803085594766,-0.3628564257762612,0.0057651099554076515,0.0,0.0,0.0,0.0,0.0,0.0,0.0,0.0,0.0
7.677,220,7,677000000,base_footprint,-0.0014979761214896365,0.003553557428570724,0.387199166113348,0.9219880335765045,0.0,0.0,0.0,0.0,0.0,0.0,0.0,0.0,0.0,0.00022938707267054062,-0.00019809346672778323,0.0005029166912092104,0.0,0.0,0.0,0.0,0.0,0.0,0.0,0.0,0.0,0.0007379705724732191,-0.029101747541757948,-0.0035087728249728724,0.0,0.0,0.0,0.0,0.0,0.0,0.0,0.0,0.0
7.711,221,7,711000000,base_footprint,-0.001499527771716766,0.00355946949206838,0.3869289162154909,0.9221014561260071,0.0,0.0,0.0,0.0,0.0,0.0,0.0,0.0,0.0,1.1724697170265615e-05,-3.0193336252083134e-05,-0.018631112161854715,0.0,0.0,0.0,0.0,0.0,0.0,0.0,0.0,0.0,0.002082452179406554,0.06924197115232507,-0.0009678135809410647,0.0,0.0,0.0,0.0,0.0,0.0,0.0,0.0,0.0
7.745,222,7,745000000,base_footprint,-0.0014993341163506485,0.00356191565724426,0.38673111608811084,0.9221844222297958,0.0,0.0,0.0,0.0,0.0,0.0,0.0,0.0,0.0,5.1211752582595365e-05,7.850562058075071e-05,-0.003625842929515465,0.0,0.0,0.0,0.0,0.0,0.0,0.0,0.0,0.0,0.0036097200870605648,-0.006543133514520312,-4.990361645389303e-05,0.0,0.0,0.0,0.0,0.0,0.0,0.0,0.0,0.0
7.779,223,7,779000000,base_footprint,-0.001498039991920828,0.0035588065151896733,0.38655980324318207,0.9222562600974646,0.0,0.0,0.0,0.0,0.0,0.0,0.0,0.0,0.0,-4.7388745507688264e-05,-0.00023588218237142992,-0.0319845244754524,0.0,0.0,0.0,0.0,0.0,0.0,0.0,0.0,0.0,-0.004164642137594446,0.30609314391917886,-0.0016109014471666688,0.0,0.0,0.0,0.0,0.0,0.0,0.0,0.0,0.0
7.813,224,7,813000000,base_footprint,-0.0015002072024771394,0.003570845433042928,0.38606082011397486,0.9224651980504024,0.0,0.0,0.0,0.0,0.0,0.0,0.0,0.0,0.0,-0.00017415196654174166,-0.0001605855501624695,-0.03242724442530943,0.0,0.0,0.0,0.0,0.0,0.0,0.0,0.0,0.0,0.007307747792071502,0.05690017452272467,-0.0008785912652576732,0.0,0.0,0.0,0.0,0.0,0.0,0.0,0.0,0.0
7.847,225,7,847000000,base_footprint,-0.0015016408466378471,0.0035718065299519394,0.3857697091271388,0.9225869708557797,0.0,0.0,0.0,0.0,0.0,0.0,0.0,0.0,0.0,-0.0007398395418874689,0.000782427851886947,-0.0015163757709724408,0.0,0.0,0.0,0.0,0.0,0.0,0.0,0.0,0.0,0.005910054643657618,-0.006078149787076048,-0.000914485498886364,0.0,0.0,0.0,0.0,0.0,0.0,0.0,0.0,0.0
7.881,226,7,881000000,base_footprint,-0.0015021359542992468,0.0035718262733819956,0.38569514921303677,0.9226181428511911,0.0,0.0,0.0,0.0,0.0,0.0,0.0,0.0,0.0,0.00035739288945648134,-0.00040657523950713575,-0.006480098044669973,0.0,0.0,0.0,0.0,0.0,0.0,0.0,0.0,0.0,-0.001552438968242924,-0.01596007500713153,0.0016236024419334697,0.0,0.0,0.0,0.0,0.0,0.0,0.0,0.0,0.0
7.915,227,7,915000000,base_footprint,-0.0015038771716014017,0.003569451928243896,0.3854479318688484,0.9227214580708591,0.0,0.0,0.0,0.0,0.0,0.0,0.0,0.0,0.0,-0.0004139814977819281,0.0004959297484501957,-0.0252061870879838,0.0,0.0,0.0,0.0,0.0,0.0,0.0,0.0,0.0,0.006740340763750555,-0.052205509058147206,-0.0009033454337210278,0.0,0.0,0.0,0.0,0.0,0.0,0.0,0.0,0.0
7.949,228,7,949000000,base_footprint,-0.0014948465744080584,0.003571416040795883,0.3852076847837927,0.9228217866981104,0.0,0.0,0.0,0.0,0.0,0.0,0.0,0.0,0.0,-8.415503259503584e-05,0.00011346621693615246,-0.0033232654988238504,0.0,0.0,0.0,0.0,0.0,0.0,0.0,0.0,0.0,-0.0025175210149269017,-0.023287641648104467,0.0006702896948300682,0.0,0.0,0.0,0.0,0.0,0.0,0.0,0.0,0.0
7.9830000000000005,229,7,983000000,base_footprint,-0.001495922147265192,0.003569762067758956,0.38511368466191265,0.922861023611808,0.0,0.0,0.0,0.0,0.0,0.0,0.0,0.0,0.0,-5.2159471025324674e-05,-0.0001772779983021963,-0.01516415246006042,0.0,0.0,0.0,0.0,0.0,0.0,0.0,0.0,0.0,0.0029854575485414687,0.023033020167466174,0.0001389842984354892,0.0,0.0,0.0,0.0,0.0,0.0,0.0,0.0,0.0
8.017,230,8,17000000,base_footprint,-0.0014983118170833675,0.003570851260838415,0.38470348488303985,0.9230320865505255,0.0,0.0,0.0,0.0,0.0,0.0,0.0,0.0,0.0,0.00033776633344019085,-0.0001927035618680464,-0.02626354367496275,0.0,0.0,0.0,0.0,0.0,0.0,0.0,0.0,0.0,0.007629448740803254,0.03376556404365918,0.0004883511584829238,0.0,0.0,0.0,0.0,0.0,0.0,0.0,0.0,0.0
8.051,231,8,51000000,base_footprint,-0.0014960949703373078,0.0035736817810503234,0.38409953015767484,0.9232835650172817,0.0,0.0,0.0,0.0,0.0,0.0,0.0,0.0,0.0,0.0005093426357266082,-0.0005595124429788237,-0.06217932856447669,0.0,0.0,0.0,0.0,0.0,0.0,0.0,0.0,0.0,0.010066816754146779,-0.46648677891038515,0.00267520319052637,0.0,0.0,0.0,0.0,0.0,0.0,0.0,0.0,0.0
8.085,232,8,85000000,base_footprint,-0.0014919798230878158,0.003566199181277443,0.38354353562067806,0.9235147061650922,0.0,0.0,0.0,0.0,0.0,0.0,0.0,0.0,0.0,0.0013626829761995436,0.0002812348560487401,-0.005591045185463723,0.0,0.0,0.0,0.0,0.0,0.0,0.0,0.0,0.0,0.007729123194868515,-0.20955431349492099,0.002376804328014632,0.0,0.0,0.0,0.0,0.0,0.0,0.0,0.0,0.0
8.119,233,8,119000000,base_footprint,-0.0014894664586522389,0.003564458847495978,0.3834524264541753,0.9235525500853745,0.0,0.0,0.0,0.0,0.0,0.0,0.0,0.0,0.0,0.0002640976094533944,6.936483784044955e-05,-0.005990812822198859,0.0,0.0,0.0,0.0,0.0,0.0,0.0,0.0,0.0,0.0022892210417481624,0.004360917710506335,-0.0015548998324358004,0.0,0.0,0.0,0.0,0.0,0.0,0.0,0.0,0.0
8.153,234,8,153000000,base_footprint,-0.0014886701811331567,0.003562675428527049,0.38358128456404467,0.923499046744002,0.0,0.0,0.0,0.0,0.0,0.0,0.0,0.0,0.0,-0.0006952154312920415,0.0004241762650757426,0.04883274878098817,0.0,0.0,0.0,0.0,0.0,0.0,0.0,0.0,0.0,-0.0016296237685347742,0.3305721190084946,-0.0030946896723809355,0.0,0.0,0.0,0.0,0.0,0.0,0.0,0.0,0.0
8.187,235,8,187000000,base_footprint,-0.0014907179598047232,0.0035623648148230894,0.38435048470009064,0.9231791766649072,0.0,0.0,0.0,0.0,0.0,0.0,0.0,0.0,0.0,0.0004276406704677252,0.00035304209076968596,0.0488187659924486,0.0,0.0,0.0,0.0,0.0,0.0,0.0,0.0,0.0,-0.010836373685179533,0.006049834942539035,0.0010391569660301594,0.0,0.0,0.0,0.0,0.0,0.0,0.0,0.0,0.0
8.221,236,8,221000000,base_footprint,-0.0014936706333157094,0.003562786376211358,0.3851125226477285,0.9228615391277174,0.0,0.0,0.0,0.0,0.0,0.0,0.0,0.0,0.0,0.0003356954908741915,0.0003498525307887351,0.04837627210609716,0.0,0.0,0.0,0.0,0.0,0.0,0.0,0.0,0.0,-0.010064643109287483,0.005277099533224581,-0.0001575653873531408,0.0,0.0,0.0,0.0,0.0,0.0,0.0,0.0,0.0
8.255,237,8,255000000,base_footprint,-0.0014989762551278828,0.003561005123680077,0.38606397648886076,0.9224639171102056,0.0,0.0,0.0,0.0,0.0,0.0,0.0,0.0,0.0,0.0006020661030287533,0.0005061404601981499,0.08155732767739647,0.0,0.0,0.0,0.0,0.0,0.0,0.0,0.0,0.0,-0.0033109424738411164,-0.6199276961368069,0.0037045195982211843,0.0,0.0,0.0,0.0,0.0,0.0,0.0,0.0,0.0
8.289,238,8,289000000,base_footprint,-0.0015009765980754004,0.0035580170652952867,0.3872011759516734,0.9219871674407711,0.0,0.0,0.0,0.0,0.0,0.0,0.0,0.0,0.0,0.0004278102080022965,8.091539187415507e-05,0.05744599282577856,0.0,0.0,0.0,0.0,0.0,0.0,0.0,0.0,0.0,-0.02001330462796383,0.25946931982733307,-0.0008534097004663072,0.0,0.0,0.0,0.0,0.0,0.0,0.0,0.0,0.0
8.323,239,8,323000000,base_footprint,-0.001508957978920071,0.0035679493707397275,0.38802934314649573,0.9216388781081258,0.0,0.0,0.0,0.0,0.0,0.0,0.0,0.0,0.0,0.00018739730789854665,0.0003031993449605733,0.049746416321661116,0.0,0.0,0.0,0.0,0.0,0.0,0.0,0.0,0.0,-0.008437573824048607,0.027993565420862322,-0.0014432372833617577,0.0,0.0,0.0,0.0,0.0,0.0,0.0,0.0,0.0
8.357,240,8,357000000,base_footprint,-0.0015078954450312922,0.003559201853805963,0.3883318293559652,0.9215115021759307,0.0,0.0,0.0,0.0,0.0,0.0,0.0,0.0,0.0,-0.0002433626847553608,-0.00011234717889151303,-0.0250055551976289,0.0,0.0,0.0,0.0,0.0,0.0,0.0,0.0,0.0,-0.012968359459685636,0.29825036355052886,-0.0010636612587273152,0.0,0.0,0.0,0.0,0.0,0.0,0.0,0.0,0.0
8.391,241,8,391000000,base_footprint,-0.001513472378416779,0.003561258253610301,0.38792618244111227,0.921682322613207,0.0,0.0,0.0,0.0,0.0,0.0,0.0,0.0,0.0,-2.8131921441158366e-05,-0.00029919294361270137,-0.02225642276121255,0.0,0.0,0.0,0.0,0.0,0.0,0.0,0.0,0.0,0.0024515794425349416,0.0454980181768625,-0.0003069563800877215,0.0,0.0,0.0,0.0,0.0,0.0,0.0,0.0,0.0
8.425,242,8,425000000,base_footprint,-0.0015122849348016552,0.0035663573511478704,0.387396833871157,0.9219049230783635,0.0,0.0,0.0,0.0,0.0,0.0,0.0,0.0,0.0,0.00013081348949203764,-0.00018651670042854366,-0.04067342746971585,0.0,0.0,0.0,0.0,0.0,0.0,0.0,0.0,0.0,0.012034703078513112,-0.05347984159124007,0.00027775294351871295,0.0,0.0,0.0,0.0,0.0,0.0,0.0,0.0,0.0
8.458,243,8,459000000,base_footprint,-0.0015022761683396093,0.0035550564786276293,0.3870377196357337,0.922055805425528,0.0,0.0,0.0,0.0,0.0,0.0,0.0,0.0,0.0,-0.0006057019159697942,0.00017476533028604546,0.009149885008042664,0.0,0.0,0.0,0.0,0.0,0.0,0.0,0.0,0.0,-0.0043241296816882305,0.031572694595328674,-0.001546534402496757,0.0,0.0,0.0,0.0,0.0,0.0,0.0,0.0,0.0
8.493,244,8,493000000,base_footprint,-0.0014951650445567087,0.003552068194390732,0.38777287486915546,0.921746898453552,0.0,0.0,0.0,0.0,0.0,0.0,0.0,0.0,0.0,-0.0014415698550933206,0.0009118201383808667,0.07909794273710534,0.0,0.0,0.0,0.0,0.0,0.0,0.0,0.0,0.0,-0.00602258628327116,0.16041122033099023,-0.007412002144773334,0.0,0.0,0.0,0.0,0.0,0.0,0.0,0.0,0.0
8.527,245,8,527000000,base_footprint,-0.0015060175571204814,0.0035610416779504454,0.38868492983415914,0.9213626192835807,0.0,0.0,0.0,0.0,0.0,0.0,0.0,0.0,0.0,-0.00125876747653036,-0.001538879430809274,0.028726932807131213,0.0,0.0,0.0,0.0,0.0,0.0,0.0,0.0,0.0,-0.01415751350620862,0.1552536947227982,0.0034846873840960703,0.0,0.0,0.0,0.0,0.0,0.0,0.0,0.0,0.0
8.561,246,8,561000000,base_footprint,-0.0015106751928159131,0.0035659943155455136,0.3885749001576066,0.9214090017535694,0.0,0.0,0.0,0.0,0.0,0.0,0.0,0.0,0.0,-0.0005914797712709898,-0.00021099552733552557,-0.03969282124149309,0.0,0.0,0.0,0.0,0.0,0.0,0.0,0.0,0.0,0.014650349608082536,-0.6583906277896376,0.006993696730077157,0.0,0.0,0.0,0.0,0.0,0.0,0.0,0.0,0.0
8.595,247,8,595000000,base_footprint,-0.0015085271058938553,0.0035603409302814902,0.38838027721716634,0.921491078951472,0.0,0.0,0.0,0.0,0.0,0.0,0.0,0.0,0.0,-0.0006892875974546212,4.041031549678457e-05,0.02629011128057595,0.0,0.0,0.0,0.0,0.0,0.0,0.0,0.0,0.0,-0.004852752115600989,0.3336498469076299,-0.002343905105406043,0.0,0.0,0.0,0.0,0.0,0.0,0.0,0.0,0.0
8.629,248,8,629000000,base_footprint,-0.0015085687703933247,0.003556411251754258,0.38883389520687056,0.9212997764558102,0.0,0.0,0.0,0.0,0.0,0.0,0.0,0.0,0.0,0.000480597304218392,0.0002770308549807149,0.029006130720280163,0.0,0.0,0.0,0.0,0.0,0.0,0.0,0.0,0.0,-0.006598350671486964,0.008260384269026375,0.0013558371861355442,0.0,0.0,0.0,0.0,0.0,0.0,0.0,0.0,0.0
8.663,249,8,663000000,base_footprint,-0.0015110509265642987,0.0035535276507451677,0.3899075498603244,0.9208459109580992,0.0,0.0,0.0,0.0,0.0,0.0,0.0,0.0,0.0,0.0011737033898158629,0.000739382066287909,0.09950790681027322,0.0,0.0,0.0,0.0,0.0,0.0,0.0,0.0,0.0,-0.023240813599894286,0.3281788042074038,-0.0013485323416035414,0.0,0.0,0.0,0.0,0.0,0.0,0.0,0.0,0.0
8.697,250,8,697000000,base_footprint,-0.0015163813637176877,0.003551648234290026,0.3914590816730802,0.9201874123014553,0.0,0.0,0.0,0.0,0.0,0.0,0.0,0.0,0.0,0.0006623654634735633,0.0006439560952262678,0.09892254614234473,0.0,0.0,0.0,0.0,0.0,0.0,0.0,0.0,0.0,-0.022330956047589303,0.003816959991343673,-0.0006199959187202514,0.0,0.0,0.0,0.0,0.0,0.0,0.0,0.0,0.0
8.731,251,8,731000000,base_footprint,-0.0015229344846709328,0.003550673322617765,0.3929943746192213,0.9195327590179475,0.0,0.0,0.0,0.0,0.0,0.0,0.0,0.0,0.0,0.0011821498592326516,-0.0007593966592971032,0.0839415140425111,0.0,0.0,0.0,0.0,0.0,0.0,0.0,0.0,0.0,-0.019805036206600256,0.007814951239301166,0.0014426888962582578,0.0,0.0,0.0,0.0,0.0,0.0,0.0,0.0,0.0
8.765,252,8,765000000,base_footprint,-0.0015230066050231712,0.0035557538932962296,0.3927940330968912,0.9196183363921198,0.0,0.0,0.0,0.0,0.0,0.0,0.0,0.0,0.0,-0.00021358999219480747,-4.038340195462734e-05,-0.023656950474508543,0.0,0.0,0.0,0.0,0.0,0.0,0.0,0.0,0.0,-0.0014194364488912294,0.03368599130767323,-0.0020063353110082865,0.0,0.0,0.0,0.0,0.0,0.0,0.0,0.0,0.0
8.799,253,8,799000000,base_footprint,-0.0015238574338737154,0.00356034687719826,0.39241321196902607,0.9197808830698686,0.0,0.0,0.0,0.0,0.0,0.0,0.0,0.0,0.0,-0.0001999991272992329,-0.00015283175348173312,-0.025147126764297614,0.0,0.0,0.0,0.0,0.0,0.0,0.0,0.0,0.0,0.005285226228269151,0.0027919842166035077,-0.00030136279270634306,0.0,0.0,0.0,0.0,0.0,0.0,0.0,0.0,0.0
8.833,254,8,833000000,base_footprint,-0.0015229219435401054,0.0035635598873608875,0.39200949775936383,0.9199530071781572,0.0,0.0,0.0,0.0,0.0,0.0,0.0,0.0,0.0,-0.0004125899181681563,-5.960328431621611e-06,-0.020261137582369967,0.0,0.0,0.0,0.0,0.0,0.0,0.0,0.0,0.0,0.006520937282273699,-0.008624058891523801,-0.00031120101864608727,0.0,0.0,0.0,0.0,0.0,0.0,0.0,0.0,0.0
8.867,255,8,867000000,base_footprint,-0.0015260338972897945,0.0035604534598496283,0.3918151753177723,0.9200357942941175,0.0,0.0,0.0,0.0,0.0,0.0,0.0,0.0,0.0,0.000313019026197952,-0.0005554103172209842,-0.014430567413164066,0.0,0.0,0.0,0.0,0.0,0.0,0.0,0.0,0.0,-3.296856244536803e-05,-0.005973662355309091,0.0010413606387735112,0.0,0.0,0.0,0.0,0.0,0.0,0.0,0.0,0.0
8.901,256,8,901000000,base_footprint,-0.0015275881989027156,0.0035605417089684434,0.39141936646567166,0.9202042537244901,0.0,0.0,0.0,0.0,0.0,0.0,0.0,0.0,0.0,0.0002422412833432288,-0.00024742710356462496,-0.032302469031975506,0.0,0.0,0.0,0.0,0.0,0.0,0.0,0.0,0.0,0.011619154127819348,-0.0495018033674699,0.0001387987791253933,0.0,0.0,0.0,0.0,0.0,0.0,0.0,0.0,0.0
8.935,257,8,935000000,base_footprint,-0.0015196399320662258,0.003568723306631016,0.3911155988841419,0.9203333869951349,0.0,0.0,0.0,0.0,0.0,0.0,0.0,0.0,0.0,0.0008129004915399858,-0.002031599958941933,-0.022022454237156402,0.0,0.0,0.0,0.0,0.0,0.0,0.0,0.0,0.0,-0.005548250391376712,-0.014341536482820553,0.0010705936967253527,0.0,0.0,0.0,0.0,0.0,0.0,0.0,0.0,0.0
8.969,258,8,969000000,base_footprint,-0.0015156952228114755,0.003547172696868109,0.3899023605586442,0.9208481250807038,0.0,0.0,0.0,0.0,0.0,0.0,0.0,0.0,0.0,-0.00048823091751328907,0.0009825459908476843,-0.0860867118758386,0.0,0.0,0.0,0.0,0.0,0.0,0.0,0.0,0.0,0.027499521548859485,-0.26918509299224813,0.0004516888798677266,0.0,0.0,0.0,0.0,0.0,0.0,0.0,0.0,0.0
9.003,259,9,3000000,base_footprint,-0.0015185644274096517,0.003564318714031656,0.3894714135901662,0.9210304053560133,0.0,0.0,0.0,0.0,0.0,0.0,0.0,0.0,0.0,-0.0005263901817004548,-0.0006489241464084254,-0.02220562271551447,0.0,0.0,0.0,0.0,0.0,0.0,0.0,0.0,0.0,0.013398406664431081,-0.023080333204860182,-0.0010391111746965382,0.0,0.0,0.0,0.0,0.0,0.0,0.0,0.0,0.0
9.037,260,9,37000000,base_footprint,-0.0015067091213111575,0.0035473097546671927,0.38918548225908506,0.9211513484872569,0.0,0.0,0.0,0.0,0.0,0.0,0.0,0.0,0.0,0.0024502743254361443,0.0009913705848096708,-0.008067206605942505,0.0,0.0,0.0,0.0,0.0,0.0,0.0,0.0,0.0,0.0006814474720667693,0.0954548160559168,0.004652589503357792,0.0,0.0,0.0,0.0,0.0,0.0,0.0,0.0,0.0
9.071,261,9,71000000,base_footprint,-0.0015128103645758236,0.003559107073724634,0.38866405843129703,0.9213714201370434,0.0,0.0,0.0,0.0,0.0,0.0,0.0,0.0,0.0,0.00012175441831231079,-0.0006911883402386495,-0.06004981991735106,0.0,0.0,0.0,0.0,0.0,0.0,0.0,0.0,0.0,-0.00305944914749004,0.2600450859337045,-0.005474560697591202,0.0,0.0,0.0,0.0,0.0,0.0,0.0,0.0,0.0
9.105,262,9,105000000,base_footprint,-0.0015063466721629696,0.0035578709931472254,0.3877265215862884,0.9217663570191185,0.0,0.0,0.0,0.0,0.0,0.0,0.0,0.0,0.0,-2.803343559373889e-06,-0.0002021562250766549,-0.06001978009624862,0.0,0.0,0.0,0.0,0.0,0.0,0.0,0.0,0.0,0.015241945388212896,0.0029508161788144344,0.0002653040843344369,0.0,0.0,0.0,0.0,0.0,0.0,0.0,0.0,0.0
9.139,263,9,139000000,base_footprint,-0.001500862690757632,0.0035577018637354295,0.3869883325441651,0.9220765264571695,0.0,0.0,0.0,0.0,0.0,0.0,0.0,0.0,0.0,0.0013845195876486115,-0.0001716020641649396,0.002975456371560989,0.0,0.0,0.0,0.0,0.0,0.0,0.0,0.0,0.0,0.013640979698964658,-0.012595394648080994,0.000744966941438822,0.0,0.0,0.0,0.0,0.0,0.0,0.0,0.0,0.0
9.173,264,9,173000000,base_footprint,-0.0015009839228647928,0.0035585791522065044,0.38700993757491664,0.9220674551137459,0.0,0.0,0.0,0.0,0.0,0.0,0.0,0.0,0.0,0.00014256206443215733,9.977637499800703e-05,0.0008853109187301931,0.0,0.0,0.0,0.0,0.0,0.0,0.0,0.0,0.0,-0.0026549446337354164,0.007942037644076489,-0.0011425864548554173,0.0,0.0,0.0,0.0,0.0,0.0,0.0,0.0,0.0
9.207,265,9,207000000,base_footprint,-0.0015010732534611667,0.00356060364393875,0.3870190208781491,0.9220636346583121,0.0,0.0,0.0,0.0,0.0,0.0,0.0,0.0,0.0,4.571631324313013e-05,9.41248296953528e-05,0.0003501377128262358,0.0,0.0,0.0,0.0,0.0,0.0,0.0,0.0,0.0,-0.00014751407962505054,0.005623648568283987,-0.00023650738097920197,0.0,0.0,0.0,0.0,0.0,0.0,0.0,0.0,0.0
9.241,266,9,241000000,base_footprint,-0.0015010248694532706,0.0035648570167351916,0.38691146004649607,0.9221087575787794,0.0,0.0,0.0,0.0,0.0,0.0,0.0,0.0,0.0,-0.0002394381448496674,-0.0006468051983421179,-0.024208312966420276,0.0,0.0,0.0,0.0,0.0,0.0,0.0,0.0,0.0,0.0004215178147896712,0.01180443994856203,-0.0003681250672314755,0.0,0.0,0.0,0.0,0.0,0.0,0.0,0.0,0.0
9.275,267,9,275000000,base_footprint,-0.001502337892007189,0.003568983700213744,0.38653190437436924,0.9222679069754783,0.0,0.0,0.0,0.0,0.0,0.0,0.0,0.0,0.0,-0.00026220794422657115,-0.0001702129652164847,-0.02486621552576061,0.0,0.0,0.0,0.0,0.0,0.0,0.0,0.0,0.0,0.006507112990864301,0.0025116510433051413,-0.0003266505710254221,0.0,0.0,0.0,0.0,0.0,0.0,0.0,0.0,0.0
9.309,268,9,309000000,base_footprint,-0.00150213376497961,0.003572109724063767,0.38612768511682605,0.9224372035063377,0.0,0.0,0.0,0.0,0.0,0.0,0.0,0.0,0.0,-0.00014344205207262456,-0.00016600117921668797,-0.02673858165518107,0.0,0.0,0.0,0.0,0.0,0.0,0.0,0.0,0.0,0.006499232917457095,-0.001412096472691862,0.00016420958556641958,0.0,0.0,0.0,0.0,0.0,0.0,0.0,0.0,0.0
9.343,269,9,343000000,base_footprint,-0.0015066815625517469,0.003570626370001925,0.3858688122671332,0.9225455220516475,0.0,0.0,0.0,0.0,0.0,0.0,0.0,0.0,0.0,-0.0006085600474792644,-0.0007371432660241506,0.017021473951682808,0.0,0.0,0.0,0.0,0.0,0.0,0.0,0.0,0.0,0.008191714193318232,-0.06829558825918537,-0.0003751342689313473,0.0,0.0,0.0,0.0,0.0,0.0,0.0,0.0,0.0
9.377,270,9,377000000,base_footprint,-0.0015070575668822543,0.003568329092544799,0.38594196754233295,0.9225149286025297,0.0,0.0,0.0,0.0,0.0,0.0,0.0,0.0,0.0,-3.785572429065695e-05,3.6476545575370784e-05,-0.0025982516588207126,0.0,0.0,0.0,0.0,0.0,0.0,0.0,0.0,0.0,-0.0020937212872349665,-0.031641397866358195,0.000950806197100544,0.0,0.0,0.0,0.0,0.0,0.0,0.0,0.0,0.0
9.411,271,9,411000000,base_footprint,-0.0015014491499537202,0.0035635085062100157,0.3861156697141636,0.9224422673852057,0.0,0.0,0.0,0.0,0.0,0.0,0.0,0.0,0.0,-0.00023748165537912141,0.0014291395253825405,0.03356465833954142,0.0,0.0,0.0,0.0,0.0,0.0,0.0,0.0,0.0,-0.015224367067672741,0.015428346629467187,-0.00075977411286116,0.0,0.0,0.0,0.0,0.0,0.0,0.0,0.0,0.0
9.445,272,9,445000000,base_footprint,-0.0014986239257427409,0.0035610152177857073,0.3866847128523564,0.9222038853438206,0.0,0.0,0.0,0.0,0.0,0.0,0.0,0.0,0.0,-0.001062359591421363,0.0014643049526593319,0.011494544447874844,0.0,0.0,0.0,0.0,0.0,0.0,0.0,0.0,0.0,-0.0005913598781880323,-0.05290090685440617,-0.000415701224107563,0.0,0.0,0.0,0.0,0.0,0.0,0.0,0.0,0.0
9.479,273,9,479000000,base_footprint,-0.001505370860951784,0.003568049877822516,0.3866269092453374,0.9222280823776937,0.0,0.0,0.0,0.0,0.0,0.0,0.0,0.0,0.0,-0.0010796898736472266,-0.0009540512467325513,-0.02340577267394629,0.0,0.0,0.0,0.0,0.0,0.0,0.0,0.0,0.0,0.0025118070698890646,0.1045851353587835,-0.0007039946386867495,0.0,0.0,0.0,0.0,0.0,0.0,0.0,0.0,0.0
9.513,274,9,513000000,base_footprint,-0.0015035157400865864,0.0035646732390066395,0.386289720089978,0.9223693862536446,0.0,0.0,0.0,0.0,0.0,0.0,0.0,0.0,0.0,0.00023709691225830222,-0.00020508569693817428,-0.020792668776883044,0.0,0.0,0.0,0.0,0.0,0.0,0.0,0.0,0.0,0.0038055834423806898,-0.0009372236064638041,0.0023216227612193633,0.0,0.0,0.0,0.0,0.0,0.0,0.0,0.0,0.0
9.547,275,9,547000000,base_footprint,-0.001501515847092026,0.003562766440441392,0.38592441222127755,0.9225223033602566,0.0,0.0,0.0,0.0,0.0,0.0,0.0,0.0,0.0,0.0003585986093875087,9.917616502449263e-06,-0.026171088737896184,0.0,0.0,0.0,0.0,0.0,0.0,0.0,0.0,0.0,0.004853097924941055,0.007030061653558241,0.00035593407387710487,0.0,0.0,0.0,0.0,0.0,0.0,0.0,0.0,0.0
9.581,276,9,581000000,base_footprint,-0.0014971886066152398,0.00356113669193487,0.3855109204112953,0.9226951863835497,0.0,0.0,0.0,0.0,0.0,0.0,0.0,0.0,0.0,0.0001586286789724627,-2.8510642921917794e-05,-0.026553385332062893,0.0,0.0,0.0,0.0,0.0,0.0,0.0,0.0,0.0,0.005799448500891723,0.005350822756456233,-0.0003741567920533515,0.0,0.0,0.0,0.0,0.0,0.0,0.0,0.0,0.0
9.615,277,9,615000000,base_footprint,-0.0014940750227781423,0.0035612070590873854,0.3850897791332617,0.9228710351675387,0.0,0.0,0.0,0.0,0.0,0.0,0.0,0.0,0.0,6.625458302719119e-05,-5.1241293748097054e-05,-0.02705829486178593,0.0,0.0,0.0,0.0,0.0,0.0,0.0,0.0,0.0,0.005869971995937823,0.005832229958936158,-0.00024246004192236153,0.0,0.0,0.0,0.0,0.0,0.0,0.0,0.0,0.0
9.649000000000001,278,9,649000000,base_footprint,-0.0014960315962253877,0.0035677796047228066,0.3847131854258893,0.9230280590521724,0.0,0.0,0.0,0.0,0.0,0.0,0.0,0.0,0.0,-0.0003119994450608065,-7.469722545168131e-05,-0.015415347401374594,0.0,0.0,0.0,0.0,0.0,0.0,0.0,0.0,0.0,0.010029814282238814,-0.5316499973863341,0.002460412939767338,0.0,0.0,0.0,0.0,0.0,0.0,0.0,0.0,0.0
9.683,279,9,683000000,base_footprint,-0.0014897508588338226,0.0035590447220051665,0.3845346592479903,0.9231024914277274,0.0,0.0,0.0,0.0,0.0,0.0,0.0,0.0,0.0,-0.0003753480884519794,-0.00010992152622714664,-0.023893370679002185,0.0,0.0,0.0,0.0,0.0,0.0,0.0,0.0,0.0,0.001557981615191946,0.04008580790470078,-0.0004536323050046131,0.0,0.0,0.0,0.0,0.0,0.0,0.0,0.0,0.0
9.717,280,9,717000000,base_footprint,-0.001491143246273546,0.003568456490187485,0.3842007956776014,0.9232414587803099,0.0,0.0,0.0,0.0,0.0,0.0,0.0,0.0,0.0,-2.6611016928985503e-05,8.50652107493046e-06,-0.018000308057526532,0.0,0.0,0.0,0.0,0.0,0.0,0.0,0.0,0.0,0.004185277583123509,0.16383018938904068,-0.0007392529588236565,0.0,0.0,0.0,0.0,0.0,0.0,0.0,0.0,0.0
9.751,281,9,751000000,base_footprint,-0.001487261352974952,0.0035647715569486335,0.383703872998955,0.9234481134871718,0.0,0.0,0.0,0.0,0.0,0.0,0.0,0.0,0.0,3.5942118614854676e-05,0.00013822811635507426,-0.05145820232903797,0.0,0.0,0.0,0.0,0.0,0.0,0.0,0.0,0.0,0.0028985514869006995,0.335432405301191,-0.0011550779458780955,0.0,0.0,0.0,0.0,0.0,0.0,0.0,0.0,0.0
9.785,282,9,785000000,base_footprint,-0.0014901456593980743,0.0035769990770416374,0.3830053866709112,0.9237379814236192,0.0,0.0,0.0,0.0,0.0,0.0,0.0,0.0,0.0,-0.0002671013573040421,-0.00028825451333434773,-0.04539283806971055,0.0,0.0,0.0,0.0,0.0,0.0,0.0,0.0,0.0,0.012216559761819594,0.01368206001408468,-0.0011645227328644099,0.0,0.0,0.0,0.0,0.0,0.0,0.0,0.0,0.0
9.819,283,9,819000000,base_footprint,-0.0014887844919530466,0.00357870933259523,0.3822775029393323,0.9240394402333258,0.0,0.0,0.0,0.0,0.0,0.0,0.0,0.0,0.0,-0.0001266806496934897,-0.00034266863914992983,-0.047677999538959494,0.0,0.0,0.0,0.0,0.0,0.0,0.0,0.0,0.0,0.011385861135489082,-0.008027215413613653,0.0002508268852042607,0.0,0.0,0.0,0.0,0.0,0.0,0.0,0.0,0.0
9.853,284,9,853000000,base_footprint,-0.0014755749528517126,0.0035714679710653822,0.38176565845986526,0.9242510748253397,0.0,0.0,0.0,0.0,0.0,0.0,0.0,0.0,0.0,0.0044421348030514755,-0.0018343442105317159,-0.007231429911864765,0.0,0.0,0.0,0.0,0.0,0.0,0.0,0.0,0.0,0.00831495804901091,-0.14881143066324448,0.007885629015407913,0.0,0.0,0.0,0.0,0.0,0.0,0.0,0.0,0.0
9.887,285,9,887000000,base_footprint,-0.0014944208545792316,0.00357754422078484,0.38154312416501446,0.9243429083873895,0.0,0.0,0.0,0.0,0.0,0.0,0.0,0.0,0.0,-1.8191457781539105e-05,-0.0007504592634041102,-0.03776823463816245,0.0,0.0,0.0,0.0,0.0,0.0,0.0,0.0,0.0,-0.011255778715394543,-0.21033066832196962,-0.006401603032121244,0.0,0.0,0.0,0.0,0.0,0.0,0.0,0.0,0.0
9.921,286,9,921000000,base_footprint,-0.0014866537435293263,0.0035794821630517615,0.3810498168940598,0.9245463829430598,0.0,0.0,0.0,0.0,0.0,0.0,0.0,0.0,0.0,0.00018082579036801658,-5.222598332457359e-05,-0.027764215098540237,0.0,0.0,0.0,0.0,0.0,0.0,0.0,0.0,0.0,0.014847467677225574,-0.017411132858464497,0.0009600450608765112,0.0,0.0,0.0,0.0,0.0,0.0,0.0,0.0,0.0
9.955,287,9,955000000,base_footprint,-0.001484228080663297,0.003577456195147076,0.3809282285186706,0.924596497717682,0.0,0.0,0.0,0.0,0.0,0.0,0.0,0.0,0.0,-0.0003072199854357426,-0.0001996332825175933,0.0026037747025393233,0.0,0.0,0.0,0.0,0.0,0.0,0.0,0.0,0.0,0.004253598198346283,-0.009047941783336571,-0.0011866216485811366,0.0,0.0,0.0,0.0,0.0,0.0,0.0,0.0,0.0
9.989,288,9,989000000,base_footprint,-0.001484001984926023,0.0035748428290570985,0.38095134561998484,0.9245869837431084,0.0,0.0,0.0,0.0,0.0,0.0,0.0,0.0,0.0,0.0003887059572325538,-7.826486296898003e-05,0.0019461488108256514,0.0,0.0,0.0,0.0,0.0,0.0,0.0,0.0,0.0,-0.0014198477614367684,0.007125140157852316,0.0013826733325549513,0.0,0.0,0.0,0.0,0.0,0.0,0.0,0.0,0.0
10.023,289,10,23000000,base_footprint,-0.0014831266508839194,0.0035715842941711736,0.3809855447614078,0.924572906159282,0.0,0.0,0.0,0.0,0.0,0.0,0.0,0.0,0.0,0.0002738454801345295,-8.393431335223229e-05,0.00234321187791386,0.0,0.0,0.0,0.0,0.0,0.0,0.0,0.0,0.0,-0.0006470104210067881,0.0035232687069737855,-0.00022976906117619053,0.0,0.0,0.0,0.0,0.0,0.0,0.0,0.0,0.0
10.057,290,10,57000000,base_footprint,-0.0014806664208826816,0.003570181916757848,0.3807944919905546,0.9246516188801526,0.0,0.0,0.0,0.0,0.0,0.0,0.0,0.0,0.0,0.00021264778318276227,-0.00010573526279768252,-0.02507070086095002,0.0,0.0,0.0,0.0,0.0,0.0,0.0,0.0,0.0,-0.0010993270869428529,-0.3245460147607831,0.001953667810449084,0.0,0.0,0.0,0.0,0.0,0.0,0.0,0.0,0.0
10.091,291,10,91000000,base_footprint,-0.0014781084184430713,0.0035680999604053056,0.380713591420087,0.9246849437328343,0.0,0.0,0.0,0.0,0.0,0.0,0.0,0.0,0.0,0.00021470603668564373,8.486278320643836e-05,-0.00023954027240628422,0.0,0.0,0.0,0.0,0.0,0.0,0.0,0.0,0.0,0.0019985572546804852,-0.005790935401376059,-5.564810730904996e-05,0.0,0.0,0.0,0.0,0.0,0.0,0.0,0.0,0.0
10.125,292,10,125000000,base_footprint,-0.0014771414714894024,0.0035679907836062338,0.380705940491794,0.9246880957215249,0.0,0.0,0.0,0.0,0.0,0.0,0.0,0.0,0.0,0.00018877028584427462,7.786415846779703e-05,-0.0006595744723443746,0.0,0.0,0.0,0.0,0.0,0.0,0.0,0.0,0.0,0.0002726062188385405,0.005217812884526158,-0.00010423248495222412,0.0,0.0,0.0,0.0,0.0,0.0,0.0,0.0,0.0
10.159,293,10,159000000,base_footprint,-0.0014758282113130773,0.003569482849802734,0.380392321741794,0.9248171507293553,0.0,0.0,0.0,0.0,0.0,0.0,0.0,0.0,0.0,-0.00010344094618471222,-0.0001149749324355471,-0.04271941310310342,0.0,0.0,0.0,0.0,0.0,0.0,0.0,0.0,0.0,0.005771231428170709,0.361665036840643,-0.0023459948035016148,0.0,0.0,0.0,0.0,0.0,0.0,0.0,0.0,0.0
10.193,294,10,193000000,base_footprint,-0.0014749532125251175,0.0035723080389156127,0.3800762369421725,0.9249470888868042,0.0,0.0,0.0,0.0,0.0,0.0,0.0,0.0,0.0,-7.096311569133617e-05,-1.7255302356605387e-05,-0.01652418259668979,0.0,0.0,0.0,0.0,0.0,0.0,0.0,0.0,0.0,0.005740640732097447,-0.0065547371874435136,-2.7969304462710746e-05,0.0,0.0,0.0,0.0,0.0,0.0,0.0,0.0,0.0
10.227,295,10,227000000,base_footprint,-0.0014751471716653026,0.0035766703698412615,0.3798111855718952,0.9250559413810383,0.0,0.0,0.0,0.0,0.0,0.0,0.0,0.0,0.0,-0.00018309884581654075,-1.8225864258845445e-05,-0.017139599878262777,0.0,0.0,0.0,0.0,0.0,0.0,0.0,0.0,0.0,0.003911519990625719,0.004677992388220583,-0.0002846711832257488,0.0,0.0,0.0,0.0,0.0,0.0,0.0,0.0,0.0
10.261,296,10,261000000,base_footprint,-0.0014752951183006108,0.003580104292474684,0.37922612455629795,0.9252959271560532,0.0,0.0,0.0,0.0,0.0,0.0,0.0,0.0,0.0,-0.001776060043324641,0.00011425960244608457,-0.045324740083176315,0.0,0.0,0.0,0.0,0.0,0.0,0.0,0.0,0.0,0.013106045420471474,0.3423175658736093,-0.0047713024493345815,0.0,0.0,0.0,0.0,0.0,0.0,0.0,0.0,0.0
10.295,297,10,295000000,base_footprint,-0.0014749916700264377,0.0035840837830276263,0.37887124223842805,0.9254412788220114,0.0,0.0,0.0,0.0,0.0,0.0,0.0,0.0,0.0,-5.304410923708738e-05,-0.00017990829763318736,-0.021021875930701216,0.0,0.0,0.0,0.0,0.0,0.0,0.0,0.0,0.0,0.0058396775237515575,-0.0020005592629895068,0.00282879088611898,0.0,0.0,0.0,0.0,0.0,0.0,0.0,0.0,0.0
10.329,298,10,329000000,base_footprint,-0.0014749722214752058,0.0035841423871859615,0.37852577061149884,0.9255826377818813,0.0,0.0,0.0,0.0,0.0,0.0,0.0,0.0,0.0,0.00014676646360368414,-0.000309834134275223,-0.02395997069981568,0.0,0.0,0.0,0.0,0.0,0.0,0.0,0.0,0.0,0.005632255500510773,-0.011902201990120086,0.000477300490875732,0.0,0.0,0.0,0.0,0.0,0.0,0.0,0.0,0.0
10.363,299,10,363000000,base_footprint,-0.001477479618093948,0.003578937600954069,0.3785404062069783,0.9255766684226016,0.0,0.0,0.0,0.0,0.0,0.0,0.0,0.0,0.0,-0.0002528463421590655,-0.0007823392581746763,0.011423956181226855,0.0,0.0,0.0,0.0,0.0,0.0,0.0,0.0,0.0,-0.001739516473880015,-0.18611177730379963,0.0001645730382469217,0.0,0.0,0.0,0.0,0.0,0.0,0.0,0.0,0.0
10.404,300,10,397000000,base_footprint,-0.0014815103566720304,0.0035838619920909843,0.3783340461676484,0.9256610127744933,0.0,0.0,0.0,0.0,0.0,0.0,0.0,0.0,0.0,-0.0005563887160145725,0.0007644944276636512,-0.04062966434887085,0.0,0.0,0.0,0.0,0.0,0.0,0.0,0.0,0.0,-0.005955143730049586,-0.16816873999104304,0.0008678859540072002,0.0,0.0,0.0,0.0,0.0,0.0,0.0,0.0,0.0
10.431000000000001,301,10,431000000,base_footprint,-0.0014729063332864435,0.0035830807000643648,0.37797584218506625,0.9258073529650325,0.0,0.0,0.0,0.0,0.0,0.0,0.0,0.0,0.0,0.0016158842159066193,-0.0014588716224113952,-0.016115062347699424,0.0,0.0,0.0,0.0,0.0,0.0,0.0,0.0,0.0,0.0073716988345628905,-0.008250759458385737,0.0008489905305744486,0.0,0.0,0.0,0.0,0.0,0.0,0.0,0.0,0.0
10.465,302,10,465000000,base_footprint,-0.0014583745440226617,0.003571251941627635,0.37801447761026225,0.9257916471973051,0.0,0.0,0.0,0.0,0.0,0.0,0.0,0.0,0.0,0.001962527239848218,-0.0019081957309163666,0.0035773444537087933,0.0,0.0,0.0,0.0,0.0,0.0,0.0,0.0,0.0,0.004397068218885955,0.26946056444967753,-0.0019715192841996015,0.0,0.0,0.0,0.0,0.0,0.0,0.0,0.0,0.0
10.498,303,10,499000000,base_footprint,-0.00147082846395776,0.003578338398805256,0.3778835384430167,0.9258450537383232,0.0,0.0,0.0,0.0,0.0,0.0,0.0,0.0,0.0,0.00016458873637082263,-0.00020089509156145523,-0.010909983398874607,0.0,0.0,0.0,0.0,0.0,0.0,0.0,0.0,0.0,0.002946828835669487,0.07092637072979165,0.0002907593015697167,0.0,0.0,0.0,0.0,0.0,0.0,0.0,0.0,0.0
10.533,304,10,533000000,base_footprint,-0.001469599220072101,0.0035753424372148763,0.37772178551624525,0.925911070217334,0.0,0.0,0.0,0.0,0.0,0.0,0.0,0.0,0.0,0.00020162862706001855,0.0005634004018807552,-0.0004595291043605445,0.0,0.0,0.0,0.0,0.0,0.0,0.0,0.0,0.0,0.0007088684468473489,0.004051846502764283,0.00047126058300084035,0.0,0.0,0.0,0.0,0.0,0.0,0.0,0.0,0.0
10.567,305,10,567000000,base_footprint,-0.0014668292231366994,0.003573186675505686,0.37775284179372437,0.925898413037725,0.0,0.0,0.0,0.0,0.0,0.0,0.0,0.0,0.0,0.00030982914853124906,0.00010106708993891099,0.0016365831324733928,0.0,0.0,0.0,0.0,0.0,0.0,0.0,0.0,0.0,0.0007992702704221781,0.0031561574697866763,-0.00025770629003884707,0.0,0.0,0.0,0.0,0.0,0.0,0.0,0.0,0.0
10.6,306,10,601000000,base_footprint,-0.0014657534944132944,0.0035725716827750835,0.3777744457799534,0.9258896027140138,0.0,0.0,0.0,0.0,0.0,0.0,0.0,0.0,0.0,0.00021458689929043962,8.393703012630612e-05,0.001166337891024488,0.0,0.0,0.0,0.0,0.0,0.0,0.0,0.0,0.0,-0.00014769626761685934,0.005778281222378276,-0.0002093108435432565,0.0,0.0,0.0,0.0,0.0,0.0,0.0,0.0,0.0
10.635,307,10,635000000,base_footprint,-0.0014693081917752507,0.00357990343221108,0.3777924479836733,0.9258822234341457,0.0,0.0,0.0,0.0,0.0,0.0,0.0,0.0,0.0,-0.0007140100018763324,-3.644096221154099e-05,0.0036344672440120924,0.0,0.0,0.0,0.0,0.0,0.0,0.0,0.0,0.0,-0.005516206722904413,-0.13497952079511977,-0.0004284756830917102,0.0,0.0,0.0,0.0,0.0,0.0,0.0,0.0,0.0
10.669,308,10,669000000,base_footprint,-0.0014664395265183649,0.0035757661644829518,0.3773222212945197,0.9260739737023287,0.0,0.0,0.0,0.0,0.0,0.0,0.0,0.0,0.0,0.0006213374825318126,-0.0010110725203137006,-0.0051265274858065665,0.0,0.0,0.0,0.0,0.0,0.0,0.0,0.0,0.0,0.004025454421534222,-0.19166469580423096,0.002461182583341396,0.0,0.0,0.0,0.0,0.0,0.0,0.0,0.0,0.0
10.703,309,10,703000000,base_footprint,-0.001465218756797883,0.0035799167305678023,0.37722344115513806,0.9261142007189357,0.0,0.0,0.0,0.0,0.0,0.0,0.0,0.0,0.0,-0.00011188920108743307,2.53812031745908e-05,-0.006878545058959577,0.0,0.0,0.0,0.0,0.0,0.0,0.0,0.0,0.0,0.0020597958527455848,0.003655658395501136,-0.0008983830244229452,0.0,0.0,0.0,0.0,0.0,0.0,0.0,0.0,0.0
10.737,310,10,737000000,base_footprint,-0.001464748689928895,0.00357814638691282,0.37708680251736326,0.9261698519963497,0.0,0.0,0.0,0.0,0.0,0.0,0.0,0.0,0.0,0.003283110917002582,-0.00019435824856750723,-0.019648559093604828,0.0,0.0,0.0,0.0,0.0,0.0,0.0,0.0,0.0,0.005050043538867184,0.11661479847369483,0.00461181942572122,0.0,0.0,0.0,0.0,0.0,0.0,0.0,0.0,0.0
10.771,311,10,771000000,base_footprint,-0.001470483405997842,0.003578933071905582,0.37717216826027367,0.9261350789201667,0.0,0.0,0.0,0.0,0.0,0.0,0.0,0.0,0.0,0.001003117150429512,-0.00036411564035211176,0.04090810073596878,0.0,0.0,0.0,0.0,0.0,0.0,0.0,0.0,0.0,0.005429021569582804,0.218459800924946,-0.005664377784174548,0.0,0.0,0.0,0.0,0.0,0.0,0.0,0.0,0.0
10.805,312,10,805000000,base_footprint,-0.0014727041527452,0.0035852915248574205,0.37779546264758573,0.9258809670956937,0.0,0.0,0.0,0.0,0.0,0.0,0.0,0.0,0.0,0.000391961201837683,0.00011333735060057784,0.03788024459951417,0.0,0.0,0.0,0.0,0.0,0.0,0.0,0.0,0.0,-0.007086216516276684,-0.008503464669421854,-0.0005428082373803244,0.0,0.0,0.0,0.0,0.0,0.0,0.0,0.0,0.0
10.839,313,10,839000000,base_footprint,-0.0014618450884123142,0.0035684166276045578,0.37832755615810837,0.9256637562652772,0.0,0.0,0.0,0.0,0.0,0.0,0.0,0.0,0.0,0.0012304421108534117,0.0017646779375358017,0.03428361634378284,0.0,0.0,0.0,0.0,0.0,0.0,0.0,0.0,0.0,-0.011722801791768763,-0.07212930404726849,0.005546573338597022,0.0,0.0,0.0,0.0,0.0,0.0,0.0,0.0,0.0
10.873,314,10,873000000,base_footprint,-0.0014816806510077214,0.003582179480165526,0.3786277727774177,0.9255409133551215,0.0,0.0,0.0,0.0,0.0,0.0,0.0,0.0,0.0,-0.0007526606867768155,-0.00040215180098642243,-0.009082147650074479,0.0,0.0,0.0,0.0,0.0,0.0,0.0,0.0,0.0,-0.013659584410587101,-0.18199519896944,-0.006118012002953222,0.0,0.0,0.0,0.0,0.0,0.0,0.0,0.0,0.0
10.907,315,10,907000000,base_footprint,-0.0014707901516204818,0.0035797050061745035,0.3789395799903318,0.9254133223620404,0.0,0.0,0.0,0.0,0.0,0.0,0.0,0.0,0.0,0.000787460970865881,0.0010754772356734877,0.051494295315972466,0.0,0.0,0.0,0.0,0.0,0.0,0.0,0.0,0.0,-0.0032109859597629214,-0.1179496704541072,0.0037396482244784215,0.0,0.0,0.0,0.0,0.0,0.0,0.0,0.0,0.0
10.941,316,10,941000000,base_footprint,-0.00147739531742752,0.0035721488892977277,0.3796155057608404,0.9251362736599027,0.0,0.0,0.0,0.0,0.0,0.0,0.0,0.0,0.0,-0.0005625806034552244,-0.00020064240575317946,-5.279476915919818e-05,0.0,0.0,0.0,0.0,0.0,0.0,0.0,0.0,0.0,-0.009110313942294657,-0.006819805484641941,-0.002512592072969916,0.0,0.0,0.0,0.0,0.0,0.0,0.0,0.0,0.0
10.975,317,10,975000000,base_footprint,-0.0014781365432043653,0.0035764409966871666,0.37963396252130116,0.9251286822288737,0.0,0.0,0.0,0.0,0.0,0.0,0.0,0.0,0.0,0.00042105136849161827,-7.771444182588308e-05,0.0019459122681175487,0.0,0.0,0.0,0.0,0.0,0.0,0.0,0.0,0.0,0.002540637129067473,0.01825061951430099,0.0021249166256388894,0.0,0.0,0.0,0.0,0.0,0.0,0.0,0.0,0.0
11.009,318,11,9000000,base_footprint,-0.0014774437443603723,0.003573412359185845,0.3796677969395894,0.9251148100917703,0.0,0.0,0.0,0.0,0.0,0.0,0.0,0.0,0.0,0.0002672226443127351,-8.591343895538761e-05,0.002268269825848576,0.0,0.0,0.0,0.0,0.0,0.0,0.0,0.0,0.0,-0.00055718643414122,0.003636223352851011,-0.0002757877054346846,0.0,0.0,0.0,0.0,0.0,0.0,0.0,0.0,0.0
11.043,319,11,43000000,base_footprint,-0.0014738526115609426,0.0035664986584637817,0.37973176154579197,0.9250885887952183,0.0,0.0,0.0,0.0,0.0,0.0,0.0,0.0,0.0,-0.00224954844379914,-0.0010204117272726051,0.01868259578097007,0.0,0.0,0.0,0.0,0.0,0.0,0.0,0.0,0.0,0.00244004066061064,0.230517128895542,-0.0052291200872161,0.0,0.0,0.0,0.0,0.0,0.0,0.0,0.0,0.0
11.077,320,11,77000000,base_footprint,-0.0014769516255278704,0.0035678985167037496,0.3806245404081926,0.9247216056484907,0.0,0.0,0.0,0.0,0.0,0.0,0.0,0.0,0.0,0.0006349860535938447,0.00042591720226857596,0.0615068117687686,0.0,0.0,0.0,0.0,0.0,0.0,0.0,0.0,0.0,-0.010977000663020538,0.10528804679122303,0.0036267413869552102,0.0,0.0,0.0,0.0,0.0,0.0,0.0,0.0,0.0
11.111,321,11,111000000,base_footprint,-0.0014799651307366146,0.0035666852518748842,0.3815873228848175,0.924324728368296,0.0,0.0,0.0,0.0,0.0,0.0,0.0,0.0,0.0,0.0004898608181463123,0.00041561378858928817,0.06107366816399472,0.0,0.0,0.0,0.0,0.0,0.0,0.0,0.0,0.0,-0.013221366405657506,0.005811455946631366,-0.00018696338700128885,0.0,0.0,0.0,0.0,0.0,0.0,0.0,0.0,0.0
11.145,322,11,145000000,base_footprint,-0.0014854953232685715,0.003567190094922396,0.38252987281005146,0.9239350436401885,0.0,0.0,0.0,0.0,0.0,0.0,0.0,0.0,0.0,-0.0004317670684657027,0.0021520580791666594,0.04141198444070806,0.0,0.0,0.0,0.0,0.0,0.0,0.0,0.0,0.0,-0.012969769129481099,-0.31814836069776886,-0.0010000333165972215,0.0,0.0,0.0,0.0,0.0,0.0,0.0,0.0,0.0
11.179,323,11,179000000,base_footprint,-0.0014867883876578092,0.003569108129128723,0.38312102086387,0.923690063982329,0.0,0.0,0.0,0.0,0.0,0.0,0.0,0.0,0.0,0.00019233509936434582,0.00028757450254255333,0.03721904848558711,0.0,0.0,0.0,0.0,0.0,0.0,0.0,0.0,0.0,-0.008245220082013203,-0.005695371303290108,0.002504385090481001,0.0,0.0,0.0,0.0,0.0,0.0,0.0,0.0,0.0
11.213,324,11,213000000,base_footprint,-0.001490760987431471,0.0035722592488688573,0.38369913105706116,0.9234500492292984,0.0,0.0,0.0,0.0,0.0,0.0,0.0,0.0,0.0,0.00010921121521816373,0.0002885121632701396,0.03635710739787956,0.0,0.0,0.0,0.0,0.0,0.0,0.0,0.0,0.0,-0.0072877779968969075,0.0039005728601748135,-0.0002476493334844752,0.0,0.0,0.0,0.0,0.0,0.0,0.0,0.0,0.0
11.247,325,11,247000000,base_footprint,-0.0014910543373236815,0.0035659002096940693,0.3840983136710331,0.9232841093334848,0.0,0.0,0.0,0.0,0.0,0.0,0.0,0.0,0.0,-0.00011570502245110557,-2.5929467832665093e-05,-0.004603366440011192,0.0,0.0,0.0,0.0,0.0,0.0,0.0,0.0,0.0,-0.008390204162220222,0.2316177168899694,-0.0007452167942107932,0.0,0.0,0.0,0.0,0.0,0.0,0.0,0.0,0.0
11.281,326,11,281000000,base_footprint,-0.0014937652278306857,0.0035776471200958397,0.3837673473510585,0.9234216762745286,0.0,0.0,0.0,0.0,0.0,0.0,0.0,0.0,0.0,-0.00015064742275908686,0.00013345908592666918,-0.023851850704895244,0.0,0.0,0.0,0.0,0.0,0.0,0.0,0.0,0.0,0.00831756285887543,0.11983946689308492,-0.0011522756023609286,0.0,0.0,0.0,0.0,0.0,0.0,0.0,0.0,0.0
11.314,327,11,315000000,base_footprint,-0.0014960683569630263,0.0035719524999683837,0.3833161348029359,0.9236090859960976,0.0,0.0,0.0,0.0,0.0,0.0,0.0,0.0,0.0,2.296366545263221e-05,-0.0006014428297925005,-0.03619705347713618,0.0,0.0,0.0,0.0,0.0,0.0,0.0,0.0,0.0,0.0016230492320381904,-0.035401101881186045,0.00048410943074064913,0.0,0.0,0.0,0.0,0.0,0.0,0.0,0.0,0.0
11.349,328,11,349000000,base_footprint,-0.0014983501884878018,0.003565842273928225,0.3827656718882744,0.9238373667153262,0.0,0.0,0.0,0.0,0.0,0.0,0.0,0.0,0.0,-0.00023129194844208486,-0.0014782790164088314,-0.01212989549165651,0.0,0.0,0.0,0.0,0.0,0.0,0.0,0.0,0.0,-0.0010331563769334778,-0.05392998738585419,0.000615422434352145,0.0,0.0,0.0,0.0,0.0,0.0,0.0,0.0,0.0
