Time,header.seq,header.stamp.secs,header.stamp.nsecs,header.frame_id,orientation.x,orientation.y,orientation.z,orientation.w,orientation_covariance_0,orientation_covariance_1,orientation_covariance_2,orientation_covariance_3,orientation_covariance_4,orientation_covariance_5,orientation_covariance_6,orientation_covariance_7,orientation_covariance_8,angular_velocity.x,angular_velocity.y,angular_velocity.z,angular_velocity_covariance_0,angular_velocity_covariance_1,angular_velocity_covariance_2,angular_velocity_covariance_3,angular_velocity_covariance_4,angular_velocity_covariance_5,angular_velocity_covariance_6,angular_velocity_covariance_7,angular_velocity_covariance_8,linear_acceleration.x,linear_acceleration.y,linear_acceleration.z,linear_acceleration_covariance_0,linear_acceleration_covariance_1,linear_acceleration_covariance_2,linear_acceleration_covariance_3,linear_acceleration_covariance_4,linear_acceleration_covariance_5,linear_acceleration_covariance_6,linear_acceleration_covariance_7,linear_acceleration_covariance_8
0.47700000000000004,0,0,477000000,base_footprint,-0.00018484876463308164,0.0001382285159332582,0.7068235170822366,0.707389894204963,0.0,0.0,0.0,0.0,0.0,0.0,0.0,0.0,0.0,0.000499327144286417,-0.06898941086717572,-4.023447024348592e-05,0.0,0.0,0.0,0.0,0.0,0.0,0.0,0.0,0.0,-3.978977056122496e-06,2.5977805158841433e-05,-0.03886804477679938,0.0,0.0,0.0,0.0,0.0,0.0,0.0,0.0,0.0
0.511,1,0,511000000,base_footprint,-0.001008808507159396,0.0009480541859263145,0.7068224612869426,0.7073896321822403,0.0,0.0,0.0,0.0,0.0,0.0,0.0,0.0,0.0,0.0004966005393307119,-0.06777663789781754,0.00017697723685632588,0.0,0.0,0.0,0.0,0.0,0.0,0.0,0.0,0.0,0.00033389386316636904,-0.00011604980812362826,0.0002673284078532213,0.0,0.0,0.0,0.0,0.0,0.0,0.0,0.0,0.0
0.545,2,0,545000000,base_footprint,-0.0018318786693883175,0.001756964106597212,0.7068208594004991,0.70738803355302,0.0,0.0,0.0,0.0,0.0,0.0,0.0,0.0,0.0,0.0004949987995489721,-0.06769984603948317,0.0003462665238172293,0.0,0.0,0.0,0.0,0.0,0.0,0.0,0.0,0.0,0.0002332537434271229,-2.2784084633794917e-05,0.00015159337421204362,0.0,0.0,0.0,0.0,0.0,0.0,0.0,0.0,0.0
0.5790000000000001,3,0,579000000,base_footprint,-0.0026540236160517644,0.0025649670081222308,0.7068184146814717,0.7073854011570101,0.0,0.0,0.0,0.0,0.0,0.0,0.0,0.0,0.0,0.0004949594384928702,-0.06762282496498394,0.0005063931074152169,0.0,0.0,0.0,0.0,0.0,0.0,0.0,0.0,0.0,0.00023252539385218706,-5.577237624198439e-06,0.00015145814755719475,0.0,0.0,0.0,0.0,0.0,0.0,0.0,0.0,0.0
0.613,4,0,613000000,base_footprint,-0.002740523558501116,0.0027318909832813095,0.7068106164187122,0.7073922383091864,0.0,0.0,0.0,0.0,0.0,0.0,0.0,0.0,0.0,0.0002817439262006063,0.0037622906504373044,-8.470506711074008e-05,0.0,0.0,0.0,0.0,0.0,0.0,0.0,0.0,0.0,-0.009276882417920376,0.00045582563266270346,0.1361831162475794,0.0,0.0,0.0,0.0,0.0,0.0,0.0,0.0,0.0
0.647,5,0,647000000,base_footprint,-0.0027339890019863564,0.0027259146307062536,0.7068106636828413,0.7073922394243415,0.0,0.0,0.0,0.0,0.0,0.0,0.0,0.0,0.0,-3.390748799542261e-05,0.0001803247202511666,0.00019423910303489417,0.0,0.0,0.0,0.0,0.0,0.0,0.0,0.0,0.0,0.008553563295421583,0.0001940017885140831,-0.004218433622854761,0.0,0.0,0.0,0.0,0.0,0.0,0.0,0.0,0.0
0.681,6,0,681000000,base_footprint,-0.0027340082333532187,0.002725801532374495,0.706813659796846,0.7073892461223698,0.0,0.0,0.0,0.0,0.0,0.0,0.0,0.0,0.0,-3.056211941580836e-05,0.0001867509789949608,0.00030679121886570285,0.0,0.0,0.0,0.0,0.0,0.0,0.0,0.0,0.0,3.175873639857088e-05,-0.00022037553705767316,-6.0635617254916635e-06,0.0,0.0,0.0,0.0,0.0,0.0,0.0,0.0,0.0
0.7150000000000001,7,0,715000000,base_footprint,-0.0027340004851446257,0.0027257274446615886,0.7068173331818933,0.7073855760226392,0.0,0.0,0.0,0.0,0.0,0.0,0.0,0.0,0.0,-3.190447471247659e-05,0.00018257441198879027,0.00033315109489547923,0.0,0.0,0.0,0.0,0.0,0.0,0.0,0.0,0.0,7.531168902773383e-06,-5.182857428058986e-05,-7.612299205904455e-06,0.0,0.0,0.0,0.0,0.0,0.0,0.0,0.0,0.0
0.749,8,0,749000000,base_footprint,-0.0027340133566112223,0.0027256945717147926,0.7068211768702134,0.7073817354780049,0.0,0.0,0.0,0.0,0.0,0.0,0.0,0.0,0.0,-3.2308920741023155e-05,0.00018145271164974336,0.00034006206527876386,0.0,0.0,0.0,0.0,0.0,0.0,0.0,0.0,0.0,1.980563033610202e-06,-1.3590003521428104e-05,-1.9880672019711775e-06,0.0,0.0,0.0,0.0,0.0,0.0,0.0,0.0,0.0
0.783,9,0,783000000,base_footprint,-0.0027340305815246203,0.002725672323747806,0.7068250655723688,0.7073778498552097,0.0,0.0,0.0,0.0,0.0,0.0,0.0,0.0,0.0,-3.244404369381983e-05,0.00018116013618662706,0.00034190158828588076,0.0,0.0,0.0,0.0,0.0,0.0,0.0,0.0,0.0,5.343157550746202e-07,-3.6132437793084497e-06,-5.158732671498748e-07,0.0,0.0,0.0,0.0,0.0,0.0,0.0,0.0,0.0
0.8170000000000001,10,0,817000000,base_footprint,-0.0027340487223034247,0.002725653148097982,0.7068289662850928,0.7073739521729984,0.0,0.0,0.0,0.0,0.0,0.0,0.0,0.0,0.0,-3.250476733620354e-05,0.00018108202460253504,0.00034240063988911736,0.0,0.0,0.0,0.0,0.0,0.0,0.0,0.0,0.0,1.5209911430151271e-07,-9.761441515168955e-07,-1.3240182701311943e-07,0.0,0.0,0.0,0.0,0.0,0.0,0.0,0.0,0.0
0.8510000000000001,11,0,851000000,base_footprint,-0.00273406688078719,0.002725635012239535,0.7068328702824157,0.7073700511616202,0.0,0.0,0.0,0.0,0.0,0.0,0.0,0.0,0.0,-3.254399491537112e-05,0.00018106079049162296,0.00034254524728176655,0.0,0.0,0.0,0.0,0.0,0.0,0.0,0.0,0.0,5.1009317303521924e-08,-2.7881734718756254e-07,-3.134181195726502e-08,0.0,0.0,0.0,0.0,0.0,0.0,0.0,0.0,0.0
0.885,12,0,885000000,base_footprint,-0.0027340848405904093,0.0027256173577846023,0.7068367752570248,0.7073661491295392,0.0,0.0,0.0,0.0,0.0,0.0,0.0,0.0,0.0,-3.257586299147816e-05,0.00018105460084445805,0.00034259613835421006,0.0,0.0,0.0,0.0,0.0,0.0,0.0,0.0,0.0,2.427173197397893e-08,-9.441062352770141e-08,-5.085284562474311e-09,0.0,0.0,0.0,0.0,0.0,0.0,0.0,0.0,0.0
0.919,13,0,919000000,base_footprint,-0.0027341025634282368,0.002725600017860412,0.7068406805988012,0.7073622466871828,0.0,0.0,0.0,0.0,0.0,0.0,0.0,0.0,0.0,-3.260426532208714e-05,0.00018105239830839277,0.0003426222526895722,0.0,0.0,0.0,0.0,0.0,0.0,0.0,0.0,0.0,1.7197172931573986e-08,-4.562859506190653e-08,1.4407750091851524e-09,0.0,0.0,0.0,0.0,0.0,0.0,0.0,0.0,0.0
0.9530000000000001,14,0,953000000,base_footprint,-0.0027341200563516625,0.0027255829309030177,0.7068445861463851,0.7073583439959904,0.0,0.0,0.0,0.0,0.0,0.0,0.0,0.0,0.0,-3.2630372454249345e-05,0.0001810512583570942,0.0003426418182801449,0.0,0.0,0.0,0.0,0.0,0.0,0.0,0.0,0.0,1.5322947167996012e-08,-3.2708958296983355e-08,2.7881597998350477e-09,0.0,0.0,0.0,0.0,0.0,0.0,0.0,0.0,0.0
0.9870000000000001,15,0,987000000,base_footprint,-0.002734137336802741,0.002725566064812607,0.7068484918570765,0.7073544410986802,0.0,0.0,0.0,0.0,0.0,0.0,0.0,0.0,0.0,-3.2654622154024536e-05,0.00018105040681341548,0.0003426596546881631,0.0,0.0,0.0,0.0,0.0,0.0,0.0,0.0,0.0,1.4824423428806813e-08,-2.927383295762746e-08,2.8015715702194233e-09,0.0,0.0,0.0,0.0,0.0,0.0,0.0,0.0,0.0
1.021,16,1,21000000,base_footprint,-0.002734154423524185,0.00272554939674972,0.7068523977195532,0.7073505380065763,0.0,0.0,0.0,0.0,0.0,0.0,0.0,0.0,0.0,-3.267724623581506e-05,0.00018104963851860615,0.0003426770360225092,0.0,0.0,0.0,0.0,0.0,0.0,0.0,0.0,0.0,1.4690085036120799e-08,-2.8348192226630026e-08,2.494167324140942e-09,0.0,0.0,0.0,0.0,0.0,0.0,0.0,0.0,0.0
1.055,17,1,55000000,base_footprint,-0.0027341713342896967,0.002725532907656103,0.7068563037307924,0.7073466347226978,0.0,0.0,0.0,0.0,0.0,0.0,0.0,0.0,0.0,-3.269841146334887e-05,0.0001810488983856057,0.0003426942990385515,0.0,0.0,0.0,0.0,0.0,0.0,0.0,0.0,0.0,1.465243415533781e-08,-2.8087772736442827e-08,2.1308754195382478e-09,0.0,0.0,0.0,0.0,0.0,0.0,0.0,0.0,0.0
1.089,18,1,89000000,base_footprint,-0.0027341880854257652,0.0027255165806829174,0.7068602098899698,0.7073427312478654,0.0,0.0,0.0,0.0,0.0,0.0,0.0,0.0,0.0,-3.2718257533551295e-05,0.00018104817140160944,0.00034271153266823606,0.0,0.0,0.0,0.0,0.0,0.0,0.0,0.0,0.0,1.464069155343533e-08,-2.8004798985663187e-08,1.7786713876898378e-09,0.0,0.0,0.0,0.0,0.0,0.0,0.0,0.0,0.0
1.123,19,1,123000000,base_footprint,-0.002734204691796407,0.0027255004006621858,0.7068641161968439,0.7073388275823151,0.0,0.0,0.0,0.0,0.0,0.0,0.0,0.0,0.0,-3.273690807391525e-05,0.00018104745308033992,0.0003427287603280082,0.0,0.0,0.0,0.0,0.0,0.0,0.0,0.0,0.0,1.4636110582200226e-08,-2.7970151299405266e-08,1.4534924516152228e-09,0.0,0.0,0.0,0.0,0.0,0.0,0.0,0.0,0.0
1.157,20,1,157000000,base_footprint,-0.0027342211668988517,0.002725484353865703,0.706868022651331,0.7073349237261264,0.0,0.0,0.0,0.0,0.0,0.0,0.0,0.0,0.0,-3.275447449852804e-05,0.00018104674169583954,0.0003427459881058422,0.0,0.0,0.0,0.0,0.0,0.0,0.0,0.0,0.0,1.4633702822994213e-08,-2.794953533213344e-08,1.1567103192673018e-09,0.0,0.0,0.0,0.0,0.0,0.0,0.0,0.0,0.0
1.19,21,1,191000000,base_footprint,-0.002734237522980405,0.002725468427848733,0.7068719292533905,0.7073310196793341,0.0,0.0,0.0,0.0,0.0,0.0,0.0,0.0,0.0,-3.277105760243155e-05,0.00018104603639444982,0.00034276321750440636,0.0,0.0,0.0,0.0,0.0,0.0,0.0,0.0,0.0,1.4632116132409092e-08,-2.7933736848099956e-08,8.873660515141609e-10,0.0,0.0,0.0,0.0,0.0,0.0,0.0,0.0,0.0
1.225,22,1,225000000,base_footprint,-0.0027342537711514876,0.0027254526113243533,0.7068758360029965,0.7073271154419597,0.0,0.0,0.0,0.0,0.0,0.0,0.0,0.0,0.0,-3.2786748806045105e-05,0.00018104533650286023,0.00034278044881671393,0.0,0.0,0.0,0.0,0.0,0.0,0.0,0.0,0.0,1.4630970267104075e-08,-2.7920209036181064e-08,6.425806591029175e-10,0.0,0.0,0.0,0.0,0.0,0.0,0.0,0.0,0.0
1.259,23,1,259000000,base_footprint,-0.002734269921490738,0.002725436894054797,0.7068797429001277,0.707323211014019,0.0,0.0,0.0,0.0,0.0,0.0,0.0,0.0,0.0,-3.280163090193241e-05,0.00018104464157154686,0.00034279768208651134,0.0,0.0,0.0,0.0,0.0,0.0,0.0,0.0,0.0,1.463015828135033e-08,-2.7908296014280144e-08,4.2065813696162e-10,0.0,0.0,0.0,0.0,0.0,0.0,0.0,0.0,0.0
1.2930000000000001,24,1,293000000,base_footprint,-0.002734285983140422,0.002725421266753388,0.7068836499447666,0.7073193063955246,0.0,0.0,0.0,0.0,0.0,0.0,0.0,0.0,0.0,-3.281577920800834e-05,0.00018104395105130047,0.0003428149172775626,0.0,0.0,0.0,0.0,0.0,0.0,0.0,0.0,0.0,1.4629631601404335e-08,-2.7897704144549363e-08,2.1927736706517312e-10,0.0,0.0,0.0,0.0,0.0,0.0,0.0,0.0,0.0
1.327,25,1,327000000,base_footprint,-0.0027343019643937256,0.002725405720996109,0.7068875571368974,0.7073154015864868,0.0,0.0,0.0,0.0,0.0,0.0,0.0,0.0,0.0,-3.2829261833750584e-05,0.0001810432646484018,0.0003428321542286295,0.0,0.0,0.0,0.0,0.0,0.0,0.0,0.0,0.0,1.4629319658193295e-08,-2.7888059563487272e-08,3.6674378354094754e-11,0.0,0.0,0.0,0.0,0.0,0.0,0.0,0.0,0.0
1.361,26,1,361000000,base_footprint,-0.0027343178727732894,0.0027253902491414894,0.7068914644765076,0.7073114965869132,0.0,0.0,0.0,0.0,0.0,0.0,0.0,0.0,0.0,-3.284214071806458e-05,0.00018104258183796644,0.00034284939298051824,0.0,0.0,0.0,0.0,0.0,0.0,0.0,0.0,0.0,1.4629265232154049e-08,-2.7879637239456756e-08,-1.2916945443898893e-10,0.0,0.0,0.0,0.0,0.0,0.0,0.0,0.0,0.0
1.395,27,1,395000000,base_footprint,-0.002734333715102812,0.0027253748442578013,0.7068953719635854,0.7073075913968103,0.0,0.0,0.0,0.0,0.0,0.0,0.0,0.0,0.0,-3.2854471897431485e-05,0.00018104190230748123,0.0003428666334238528,0.0,0.0,0.0,0.0,0.0,0.0,0.0,0.0,0.0,1.4629396551694463e-08,-2.7872037780909772e-08,-2.796506609748288e-10,0.0,0.0,0.0,0.0,0.0,0.0,0.0,0.0,0.0
1.429,28,1,429000000,base_footprint,-0.0027343494975722773,0.002725359500057282,0.7068992795981208,0.7073036860161825,0.0,0.0,0.0,0.0,0.0,0.0,0.0,0.0,0.0,-3.286630623574247e-05,0.00018104122586787185,0.0003428838753574187,0.0,0.0,0.0,0.0,0.0,0.0,0.0,0.0,0.0,1.462966403728316e-08,-2.7864987094903892e-08,-4.15963311629536e-10,0.0,0.0,0.0,0.0,0.0,0.0,0.0,0.0,0.0
1.463,29,1,463000000,base_footprint,-0.0027343652257965164,0.002725344210836122,0.706903187380106,0.7072997804450325,0.0,0.0,0.0,0.0,0.0,0.0,0.0,0.0,0.0,-3.287768999141183e-05,0.00018104055204661823,0.0003429011189115778,0.0,0.0,0.0,0.0,0.0,0.0,0.0,0.0,0.0,1.4630154475944477e-08,-2.785904375488369e-08,-5.398315896532869e-10,0.0,0.0,0.0,0.0,0.0,0.0,0.0,0.0,0.0
1.497,30,1,497000000,base_footprint,-0.0027320689677602,0.002722975222845127,0.7069071445485491,0.7072958434709679,0.0,0.0,0.0,0.0,0.0,0.0,0.0,0.0,0.0,2.542848573705743e-05,0.006800714059753112,0.00040984844705254677,0.0,0.0,0.0,0.0,0.0,0.0,0.0,0.0,0.0,-0.029906643158427476,-0.00017186541260140117,0.00470354693033811,0.0,0.0,0.0,0.0,0.0,0.0,0.0,0.0,0.0
1.5310000000000001,31,1,531000000,base_footprint,-0.0027285858307738798,0.0027197274247297,0.7069106172914849,0.7072923985613525,0.0,0.0,0.0,0.0,0.0,0.0,0.0,0.0,0.0,-4.518250664752206e-06,0.0021265989525163205,-0.00014883426730165448,0.0,0.0,0.0,0.0,0.0,0.0,0.0,0.0,0.0,-0.7774470478875448,0.0015590406144727065,-0.001913040101718,0.0,0.0,0.0,0.0,0.0,0.0,0.0,0.0,0.0
1.565,32,1,565000000,base_footprint,-0.0027288963825602137,0.0027199985077479088,0.7069102250419688,0.7072927883583744,0.0,0.0,0.0,0.0,0.0,0.0,0.0,0.0,0.0,-8.065788934523551e-05,0.0003472106726336942,-0.0004126495151976113,0.0,0.0,0.0,0.0,0.0,0.0,0.0,0.0,0.0,-0.7837316069609098,0.0009465566904507949,-0.0018146806311335542,0.0,0.0,0.0,0.0,0.0,0.0,0.0,0.0,0.0
1.5990000000000002,33,1,599000000,base_footprint,-0.0027294412006584803,0.002720457310786691,0.7069068098108444,0.7072961978590067,0.0,0.0,0.0,0.0,0.0,0.0,0.0,0.0,0.0,-7.949879706501534e-05,0.0003491989412292718,-0.00068113666877825,0.0,0.0,0.0,0.0,0.0,0.0,0.0,0.0,0.0,-0.7844535891107713,0.0009532317406850122,1.4465997864546599e-06,0.0,0.0,0.0,0.0,0.0,0.0,0.0,0.0,0.0
1.633,34,1,633000000,base_footprint,-0.0027307243381020983,0.002721705951547992,0.7068997083123396,0.7073032856202718,0.0,0.0,0.0,0.0,0.0,0.0,0.0,0.0,0.0,-0.00011870947127206829,-0.0010370503261593717,-0.00104089683656592,0.0,0.0,0.0,0.0,0.0,0.0,0.0,0.0,0.0,-0.7683679737095757,0.0011403383423028157,-0.002103945780198048,0.0,0.0,0.0,0.0,0.0,0.0,0.0,0.0,0.0
1.667,35,1,667000000,base_footprint,-0.0027325950415519927,0.0027235338567428947,0.7068881899003423,0.707314783011841,0.0,0.0,0.0,0.0,0.0,0.0,0.0,0.0,0.0,-0.00010198714550159016,-0.001851072230710783,-0.0014435304409666028,0.0,0.0,0.0,0.0,0.0,0.0,0.0,0.0,0.0,-0.7320093270802512,0.0012257287864442246,-0.0013346447127250147,0.0,0.0,0.0,0.0,0.0,0.0,0.0,0.0,0.0
1.701,36,1,701000000,base_footprint,-0.0027346619282981807,0.0027255173961167906,0.7068713083410392,0.707331638358761,0.0,0.0,0.0,0.0,0.0,0.0,0.0,0.0,0.0,-7.250741822736607e-05,-0.000974882351020548,-0.0017813885723228357,0.0,0.0,0.0,0.0,0.0,0.0,0.0,0.0,0.0,-0.6607559045528701,0.0010816495089381872,0.0009883170163223938,0.0,0.0,0.0,0.0,0.0,0.0,0.0,0.0,0.0
1.735,37,1,735000000,base_footprint,-0.0027370227572761476,0.002727867234514829,0.7068483584530387,0.7073545543778039,0.0,0.0,0.0,0.0,0.0,0.0,0.0,0.0,0.0,-3.447484268859804e-05,6.219201662755513e-05,-0.0020946496722320422,0.0,0.0,0.0,0.0,0.0,0.0,0.0,0.0,0.0,-0.5400220296902818,0.0009898636089214485,0.0012113688781677722,0.0,0.0,0.0,0.0,0.0,0.0,0.0,0.0,0.0
1.7690000000000001,38,1,769000000,base_footprint,-0.002738663937541891,0.0027296297729931065,0.7068197835846028,0.707383094493044,0.0,0.0,0.0,0.0,0.0,0.0,0.0,0.0,0.0,-3.568967954247477e-05,4.99379137110053e-05,-0.002750432363755089,0.0,0.0,0.0,0.0,0.0,0.0,0.0,0.0,0.0,-0.37430126023958715,0.0015715892777710128,2.1194389039666355e-06,0.0,0.0,0.0,0.0,0.0,0.0,0.0,0.0,0.0
1.803,39,1,803000000,base_footprint,-0.002737707233363313,0.0027292504248245604,0.7067641025452438,0.7074387319794126,0.0,0.0,0.0,0.0,0.0,0.0,0.0,0.0,0.0,-5.1159768427176005e-05,0.0003314178916665666,-0.006428860966237788,0.0,0.0,0.0,0.0,0.0,0.0,0.0,0.0,0.0,-0.1795910768682225,0.007307294361475453,0.000548898639991036,0.0,0.0,0.0,0.0,0.0,0.0,0.0,0.0,0.0
1.8370000000000002,40,1,837000000,base_footprint,-0.0027310512003883695,0.002723231606523011,0.7066518272895143,0.7075509312815218,0.0,0.0,0.0,0.0,0.0,0.0,0.0,0.0,0.0,0.0016251869181783882,0.0019712496849522494,-0.007978176022456656,0.0,0.0,0.0,0.0,0.0,0.0,0.0,0.0,0.0,0.0055274988209816096,0.0030353248201717203,0.001868835513505405,0.0,0.0,0.0,0.0,0.0,0.0,0.0,0.0,0.0
1.87,41,1,871000000,base_footprint,-0.0027273294180419684,0.002721254440005146,0.7066558000349252,0.7075469855250024,0.0,0.0,0.0,0.0,0.0,0.0,0.0,0.0,0.0,-1.2921047620664499e-05,-0.0001707005480156238,-0.0006417020440389004,0.0,0.0,0.0,0.0,0.0,0.0,0.0,0.0,0.0,-0.10101805371291585,-0.014145005056446211,-0.00307988729694186,0.0,0.0,0.0,0.0,0.0,0.0,0.0,0.0,0.0
1.905,42,1,905000000,base_footprint,-0.0027268314910644065,0.002721352805254881,0.7066208907308877,0.7075818506799165,0.0,0.0,0.0,0.0,0.0,0.0,0.0,0.0,0.0,-0.00013604406452303293,0.00033989789269115296,-0.0036003741280608275,0.0,0.0,0.0,0.0,0.0,0.0,0.0,0.0,0.0,-0.2743130003518284,0.006115475885096949,0.0010838758894648678,0.0,0.0,0.0,0.0,0.0,0.0,0.0,0.0,0.0
1.939,43,1,939000000,base_footprint,-0.002741430359132121,0.002723828829869495,0.7066785860312432,0.7075241630933706,0.0,0.0,0.0,0.0,0.0,0.0,0.0,0.0,0.0,-7.5231625630173e-05,0.0005679661295564953,0.040477145281536314,0.0,0.0,0.0,0.0,0.0,0.0,0.0,0.0,0.0,-0.3123645508847807,-0.0006072050533129925,-0.00040737426314273894,0.0,0.0,0.0,0.0,0.0,0.0,0.0,0.0,0.0
1.973,44,1,973000000,base_footprint,-0.002742639504739719,0.0027249132963598783,0.707670263582014,0.7065322716039497,0.0,0.0,0.0,0.0,0.0,0.0,0.0,0.0,0.0,-7.571647060008785e-05,0.0004901450061494165,0.09450193110967237,0.0,0.0,0.0,0.0,0.0,0.0,0.0,0.0,0.0,-0.12024610161647245,-0.016859678193449558,-0.0002365848970751959,0.0,0.0,0.0,0.0,0.0,0.0,0.0,0.0,0.0
2.007,45,2,7000000,base_footprint,-0.0027427406564507653,0.002720804260961021,0.7087041718637215,0.7054951958594912,0.0,0.0,0.0,0.0,0.0,0.0,0.0,0.0,0.0,8.273372296192512e-05,0.0022346689855412705,0.03711531277005933,0.0,0.0,0.0,0.0,0.0,0.0,0.0,0.0,0.0,0.20464328113200236,-0.015958952226472173,0.0025500390829527784,0.0,0.0,0.0,0.0,0.0,0.0,0.0,0.0,0.0
2.041,46,2,41000000,base_footprint,-0.0027437752833693236,0.002718130716761828,0.7089450264048813,0.7052531694351917,0.0,0.0,0.0,0.0,0.0,0.0,0.0,0.0,0.0,0.0003298791937145979,0.0008733556004340097,0.07998273279004307,0.0,0.0,0.0,0.0,0.0,0.0,0.0,0.0,0.0,0.12264646797740464,-0.002175525658016729,-0.002023271800646528,0.0,0.0,0.0,0.0,0.0,0.0,0.0,0.0,0.0
2.075,47,2,75000000,base_footprint,-0.0027473064739993295,0.0027142612042797996,0.7098870861021629,0.7043049127179459,0.0,0.0,0.0,0.0,0.0,0.0,0.0,0.0,0.0,-5.59291287993647e-05,0.0007683514813035093,0.07827497359091327,0.0,0.0,0.0,0.0,0.0,0.0,0.0,0.0,0.0,-0.007195373724586086,-0.01783222840345821,0.00017468314977696947,0.0,0.0,0.0,0.0,0.0,0.0,0.0,0.0,0.0
2.109,48,2,109000000,base_footprint,-0.002751803251263036,0.00271156483280901,0.7108211178388828,0.7033622206440328,0.0,0.0,0.0,0.0,0.0,0.0,0.0,0.0,0.0,-4.6112577466077406e-05,0.0006898013419683781,0.07790790630366412,0.0,0.0,0.0,0.0,0.0,0.0,0.0,0.0,0.0,-0.0049911608180784025,-0.016252355944126946,-3.899341119764109e-05,0.0,0.0,0.0,0.0,0.0,0.0,0.0,0.0,0.0
2.143,49,2,143000000,base_footprint,-0.0027542053762524272,0.002705570522117597,0.7116553739536472,0.7025181299893904,0.0,0.0,0.0,0.0,0.0,0.0,0.0,0.0,0.0,-6.559897705469696e-06,0.0004703140350328774,0.03372996229462902,0.0,0.0,0.0,0.0,0.0,0.0,0.0,0.0,0.0,-0.2751005627171372,-0.016307213536736892,0.000430754033546693,0.0,0.0,0.0,0.0,0.0,0.0,0.0,0.0,0.0
2.176,50,2,177000000,base_footprint,-0.0027644749095278947,0.002711797244772851,0.7120561618050026,0.702111833164565,0.0,0.0,0.0,0.0,0.0,0.0,0.0,0.0,0.0,-0.0006548900962564344,-0.0006571716484475725,0.08663199330736886,0.0,0.0,0.0,0.0,0.0,0.0,0.0,0.0,0.0,-0.07175351646716235,-0.013051588772526483,-0.002280593696113022,0.0,0.0,0.0,0.0,0.0,0.0,0.0,0.0,0.0
2.211,51,2,211000000,base_footprint,-0.0027696615382486016,0.002710704358266206,0.7130705082828522,0.701081615273201,0.0,0.0,0.0,0.0,0.0,0.0,0.0,0.0,0.0,1.398845155020325e-05,0.000560982474094185,0.08458459133073903,0.0,0.0,0.0,0.0,0.0,0.0,0.0,0.0,0.0,-0.0024144206719065916,-0.018897098576433152,0.001535119138613727,0.0,0.0,0.0,0.0,0.0,0.0,0.0,0.0,0.0
2.245,52,2,245000000,base_footprint,-0.0027753149087926545,0.002709207709961958,0.7140008311842165,0.7001341092169339,0.0,0.0,0.0,0.0,0.0,0.0,0.0,0.0,0.0,0.00014967159153583533,0.0004027943306684457,0.06722352988170899,0.0,0.0,0.0,0.0,0.0,0.0,0.0,0.0,0.0,-0.0029756015192561143,-0.017079176286172844,3.173904917738179e-05,0.0,0.0,0.0,0.0,0.0,0.0,0.0,0.0,0.0
2.279,53,2,279000000,base_footprint,-0.0027790599223490708,0.002702920014524212,0.7148102574000345,0.699307705495256,0.0,0.0,0.0,0.0,0.0,0.0,0.0,0.0,0.0,9.601663302472675e-05,0.001176449354506409,0.0686053959793417,0.0,0.0,0.0,0.0,0.0,0.0,0.0,0.0,0.0,0.008792086944378871,-0.007502280070632044,0.0015237326914021147,0.0,0.0,0.0,0.0,0.0,0.0,0.0,0.0,0.0
2.313,54,2,313000000,base_footprint,-0.002772613482160823,0.0026930590752505573,0.7156013896361305,0.698498182673466,0.0,0.0,0.0,0.0,0.0,0.0,0.0,0.0,0.0,-0.0003372414546508678,0.0009435610111595884,0.060851106646071,0.0,0.0,0.0,0.0,0.0,0.0,0.0,0.0,0.0,0.04832959941868564,-0.004070566249466792,-5.829679525717535e-05,0.0,0.0,0.0,0.0,0.0,0.0,0.0,0.0,0.0
2.347,55,2,347000000,base_footprint,-0.0027761016976951304,0.0026965020272335673,0.7164993224427525,0.697577051712037,0.0,0.0,0.0,0.0,0.0,0.0,0.0,0.0,0.0,0.00042458768467090995,0.0014211395238478502,0.08060302546906062,0.0,0.0,0.0,0.0,0.0,0.0,0.0,0.0,0.0,0.03461379838723149,-0.03582953328627099,-0.0002019965149785131,0.0,0.0,0.0,0.0,0.0,0.0,0.0,0.0,0.0
2.3810000000000002,56,2,381000000,base_footprint,-0.0027858757226350626,0.002691839081321674,0.7173150656503626,0.6967381785791806,0.0,0.0,0.0,0.0,0.0,0.0,0.0,0.0,0.0,3.694444126096267e-05,0.00040746072813847487,0.05842665496518022,0.0,0.0,0.0,0.0,0.0,0.0,0.0,0.0,0.0,-0.058332851082333576,-0.017149112724775387,-0.0003146465382878514,0.0,0.0,0.0,0.0,0.0,0.0,0.0,0.0,0.0
2.415,57,2,415000000,base_footprint,-0.0027852149599579892,0.0026864513022644954,0.7180670028384561,0.6959632210049782,0.0,0.0,0.0,0.0,0.0,0.0,0.0,0.0,0.0,3.5194797172026526e-05,0.0007957913501615561,0.06593043245136523,0.0,0.0,0.0,0.0,0.0,0.0,0.0,0.0,0.0,0.007941924954871385,-0.011162324724510666,0.0006084373679327044,0.0,0.0,0.0,0.0,0.0,0.0,0.0,0.0,0.0
2.449,58,2,449000000,base_footprint,-0.002786202305383532,0.002680388692980896,0.7188490646214606,0.6951554321775953,0.0,0.0,0.0,0.0,0.0,0.0,0.0,0.0,0.0,7.684300764343029e-05,0.0008020469282249926,0.06628027151291188,0.0,0.0,0.0,0.0,0.0,0.0,0.0,0.0,0.0,-0.0034222008156005587,-0.01455665784266471,0.00013153368395553308,0.0,0.0,0.0,0.0,0.0,0.0,0.0,0.0,0.0
2.483,59,2,483000000,base_footprint,-0.0027860321100901396,0.0026753785959891803,0.7196311486745781,0.6943458001829903,0.0,0.0,0.0,0.0,0.0,0.0,0.0,0.0,0.0,-0.0001462429550207861,0.0008386445349842425,0.06605734508708748,0.0,0.0,0.0,0.0,0.0,0.0,0.0,0.0,0.0,-0.0044189849590843605,-0.014705772994414138,0.00039090749906950747,0.0,0.0,0.0,0.0,0.0,0.0,0.0,0.0,0.0
2.517,60,2,517000000,base_footprint,-0.0027853204250538202,0.002674093685175994,0.7198483661813229,0.6941206097784252,0.0,0.0,0.0,0.0,0.0,0.0,0.0,0.0,0.0,-0.00019532167049086458,0.00025462832195010944,-0.022802772221069467,0.0,0.0,0.0,0.0,0.0,0.0,0.0,0.0,0.0,-0.02940626003996008,-0.008398237599816708,5.060764774024172e-05,0.0,0.0,0.0,0.0,0.0,0.0,0.0,0.0,0.0
2.551,61,2,551000000,base_footprint,-0.0027836083945879035,0.002675596756523453,0.7195798079517054,0.6943990154763248,0.0,0.0,0.0,0.0,0.0,0.0,0.0,0.0,0.0,-8.394988758677057e-05,-2.222529921723297e-05,-0.02295021093570507,0.0,0.0,0.0,0.0,0.0,0.0,0.0,0.0,0.0,-0.005625551949426663,0.005910046125146585,-0.0003927590296291651,0.0,0.0,0.0,0.0,0.0,0.0,0.0,0.0,0.0
2.585,62,2,585000000,base_footprint,-0.0027832956748814943,0.0026779919389900175,0.7193061484012254,0.6946824789042512,0.0,0.0,0.0,0.0,0.0,0.0,0.0,0.0,0.0,-7.00660105364287e-05,-0.00011257439748413854,-0.02339485447922794,0.0,0.0,0.0,0.0,0.0,0.0,0.0,0.0,0.0,-0.006186172310765732,0.004807173702999523,-0.0002286391037345215,0.0,0.0,0.0,0.0,0.0,0.0,0.0,0.0,0.0
2.6189999999999998,63,2,619000000,base_footprint,-0.002784220420407343,0.002681797584713336,0.7189738941092529,0.6950263273198665,0.0,0.0,0.0,0.0,0.0,0.0,0.0,0.0,0.0,-5.370204253591771e-05,-0.0002777842519361937,-0.030779536507567,0.0,0.0,0.0,0.0,0.0,0.0,0.0,0.0,0.0,-0.007848902045354121,0.0057417558838649685,-0.0002968199663578793,0.0,0.0,0.0,0.0,0.0,0.0,0.0,0.0,0.0
2.653,64,2,653000000,base_footprint,-0.0027864652570115103,0.0026862393321885106,0.7186072186996951,0.695405410506929,0.0,0.0,0.0,0.0,0.0,0.0,0.0,0.0,0.0,-2.324308433193409e-05,-0.00034597937677601474,-0.03132574256355369,0.0,0.0,0.0,0.0,0.0,0.0,0.0,0.0,0.0,-0.005152281920479439,0.007062026211023419,-0.00032905194055445487,0.0,0.0,0.0,0.0,0.0,0.0,0.0,0.0,0.0
2.6870000000000003,65,2,687000000,base_footprint,-0.00278708958147862,0.0026904388557167846,0.7182341373404603,0.6957907139573174,0.0,0.0,0.0,0.0,0.0,0.0,0.0,0.0,0.0,-3.4469074549802636e-05,-0.00031008305289738065,-0.03186921395366398,0.0,0.0,0.0,0.0,0.0,0.0,0.0,0.0,0.0,-0.0016175744379470754,0.007540850264882365,-7.414146959447446e-05,0.0,0.0,0.0,0.0,0.0,0.0,0.0,0.0,0.0
2.721,66,2,721000000,base_footprint,-0.002780494127408464,0.0026879124649105595,0.7180518544079845,0.6959788634435986,0.0,0.0,0.0,0.0,0.0,0.0,0.0,0.0,0.0,0.0016400322637103442,-0.0035526641844133345,0.013669459401237326,0.0,0.0,0.0,0.0,0.0,0.0,0.0,0.0,0.0,0.2983533457183357,0.028792085005907547,-0.006953192979637011,0.0,0.0,0.0,0.0,0.0,0.0,0.0,0.0,0.0
2.755,67,2,755000000,base_footprint,-0.0027840109294320747,0.0026974611505923645,0.7179868370801025,0.6960458855321223,0.0,0.0,0.0,0.0,0.0,0.0,0.0,0.0,0.0,0.0002355187698430501,-0.0008043802138214804,-0.028065543948236744,0.0,0.0,0.0,0.0,0.0,0.0,0.0,0.0,0.0,0.040921931148864506,0.00036582393672675295,0.005699294242161675,0.0,0.0,0.0,0.0,0.0,0.0,0.0,0.0,0.0
2.789,68,2,789000000,base_footprint,-0.0027814144158129993,0.002692460695397351,0.7177520894482653,0.6962879809977338,0.0,0.0,0.0,0.0,0.0,0.0,0.0,0.0,0.0,0.0001967010805099215,0.0007362708596728464,-0.0134876915520259,0.0,0.0,0.0,0.0,0.0,0.0,0.0,0.0,0.0,0.04589123455941741,0.004371662379428536,0.002785603289218469,0.0,0.0,0.0,0.0,0.0,0.0,0.0,0.0,0.0
2.823,69,2,823000000,base_footprint,-0.002782833546599816,0.0026927956436525857,0.7176829405675128,0.6963592474487872,0.0,0.0,0.0,0.0,0.0,0.0,0.0,0.0,0.0,-8.174017468712944e-05,0.00042669855916010953,-0.0011103139059846685,0.0,0.0,0.0,0.0,0.0,0.0,0.0,0.0,0.0,0.040874299587011845,-0.0003348304078583837,-8.104847894284483e-05,0.0,0.0,0.0,0.0,0.0,0.0,0.0,0.0,0.0
2.857,70,2,857000000,base_footprint,-0.0027875213832525003,0.0026916802349263116,0.7175320283107347,0.6965147327446376,0.0,0.0,0.0,0.0,0.0,0.0,0.0,0.0,0.0,-0.00013989349874292693,7.058177211061667e-05,-0.02119457950038227,0.0,0.0,0.0,0.0,0.0,0.0,0.0,0.0,0.0,-0.04966965033882714,-0.001982180164488912,-0.0008328436604191691,0.0,0.0,0.0,0.0,0.0,0.0,0.0,0.0,0.0
2.891,71,2,891000000,base_footprint,-0.002783024258668326,0.0026905946929638223,0.7173155907732299,0.6967376541495558,0.0,0.0,0.0,0.0,0.0,0.0,0.0,0.0,0.0,5.858867818543984e-05,0.00023477140475893654,-0.017851708336202206,0.0,0.0,0.0,0.0,0.0,0.0,0.0,0.0,0.0,0.0054346521889423825,0.007766818614955506,9.366861448081158e-05,0.0,0.0,0.0,0.0,0.0,0.0,0.0,0.0,0.0
2.925,72,2,925000000,base_footprint,-0.002779929744671436,0.0026884726527233406,0.7173022230666252,0.6967514369479892,0.0,0.0,0.0,0.0,0.0,0.0,0.0,0.0,0.0,0.0011139996635546072,-0.00046872205395086453,0.0013548454561880202,0.0,0.0,0.0,0.0,0.0,0.0,0.0,0.0,0.0,-0.34222995019487745,-0.02229260080700257,-0.0016907959281758779,0.0,0.0,0.0,0.0,0.0,0.0,0.0,0.0,0.0
2.959,73,2,959000000,base_footprint,-0.0027766980370255595,0.0026864003799625014,0.7170503830408216,0.6970106321872149,0.0,0.0,0.0,0.0,0.0,0.0,0.0,0.0,0.0,-0.00011804355151480433,0.0001922572382081305,-0.025302006284269485,0.0,0.0,0.0,0.0,0.0,0.0,0.0,0.0,0.0,-0.010170750778470461,0.006554826931298267,0.0019760501100440464,0.0,0.0,0.0,0.0,0.0,0.0,0.0,0.0,0.0
2.9930000000000003,74,2,993000000,base_footprint,-0.002773294907770769,0.002686683071476622,0.7167481235539159,0.6973214595517399,0.0,0.0,0.0,0.0,0.0,0.0,0.0,0.0,0.0,-9.445803853997049e-05,5.652118079980366e-05,-0.02572419517600353,0.0,0.0,0.0,0.0,0.0,0.0,0.0,0.0,0.0,-0.006056203723386287,0.005207155754534664,-0.0002801689641625046,0.0,0.0,0.0,0.0,0.0,0.0,0.0,0.0,0.0
3.027,75,3,27000000,base_footprint,-0.002771192440301522,0.002688313180121648,0.71637185406275,0.697708004950067,0.0,0.0,0.0,0.0,0.0,0.0,0.0,0.0,0.0,-7.52199034919027e-05,-7.654587102970665e-05,-0.03269358048667602,0.0,0.0,0.0,0.0,0.0,0.0,0.0,0.0,0.0,-0.007978169589789282,0.006578884628788189,-0.0002170820710212882,0.0,0.0,0.0,0.0,0.0,0.0,0.0,0.0,0.0
3.061,76,3,61000000,base_footprint,-0.002770332390584102,0.002690894259262665,0.7159812627287114,0.6981088137016543,0.0,0.0,0.0,0.0,0.0,0.0,0.0,0.0,0.0,-5.920041576854076e-05,-0.0001701636207539549,-0.03314713222119796,0.0,0.0,0.0,0.0,0.0,0.0,0.0,0.0,0.0,-0.006222174632939282,0.007021370475102712,-0.0002486740532302117,0.0,0.0,0.0,0.0,0.0,0.0,0.0,0.0,0.0
3.095,77,3,95000000,base_footprint,-0.002770850762944972,0.0026945608078667196,0.7155851009075987,0.6985148710565611,0.0,0.0,0.0,0.0,0.0,0.0,0.0,0.0,0.0,-4.433579659395691e-05,-0.0002821703626294501,-0.033595146273165635,0.0,0.0,0.0,0.0,0.0,0.0,0.0,0.0,0.0,-0.006017321339288477,0.0072288039229017964,-0.00029722466178545284,0.0,0.0,0.0,0.0,0.0,0.0,0.0,0.0,0.0
3.129,78,3,129000000,base_footprint,-0.0027761955541980177,0.002695071167887824,0.7161477327156857,0.6979380017278239,0.0,0.0,0.0,0.0,0.0,0.0,0.0,0.0,0.0,-6.62265559877384e-05,0.00029817178645415344,0.056652080316804763,0.0,0.0,0.0,0.0,0.0,0.0,0.0,0.0,0.0,0.019324340957436178,-0.008482423888904066,-0.00030585227225126094,0.0,0.0,0.0,0.0,0.0,0.0,0.0,0.0,0.0
3.163,79,3,163000000,base_footprint,-0.0027817172250675457,0.0026954303040043564,0.716819071166806,0.6972484606769052,0.0,0.0,0.0,0.0,0.0,0.0,0.0,0.0,0.0,-2.491282416230042e-05,0.0003590572675293204,0.05659087850629692,0.0,0.0,0.0,0.0,0.0,0.0,0.0,0.0,0.0,-0.0032312387670919034,-0.010657209840717812,7.102797699254962e-05,0.0,0.0,0.0,0.0,0.0,0.0,0.0,0.0,0.0
3.197,80,3,197000000,base_footprint,-0.0027861554099655066,0.0026945917454836038,0.7174880803068205,0.6965599982277121,0.0,0.0,0.0,0.0,0.0,0.0,0.0,0.0,0.0,-5.00135842731725e-05,0.00048451321763140666,0.056411424822691625,0.0,0.0,0.0,0.0,0.0,0.0,0.0,0.0,0.0,-0.003164628236355704,-0.00974525446915724,0.0003104552617649019,0.0,0.0,0.0,0.0,0.0,0.0,0.0,0.0,0.0
3.231,81,3,231000000,base_footprint,-0.0027869613579645366,0.002691034925464112,0.7181620346622271,0.6958651328721892,0.0,0.0,0.0,0.0,0.0,0.0,0.0,0.0,0.0,0.0002289750491046329,0.0007467776760753672,0.05706144993678988,0.0,0.0,0.0,0.0,0.0,0.0,0.0,0.0,0.0,0.002723640445769785,-0.009918201597306123,0.00034995336183769453,0.0,0.0,0.0,0.0,0.0,0.0,0.0,0.0,0.0
3.265,82,3,265000000,base_footprint,-0.002783731788984457,0.0026834590768753178,0.7187657547849704,0.695241569264311,0.0,0.0,0.0,0.0,0.0,0.0,0.0,0.0,0.0,0.00022582525812568727,0.0008594473736866668,0.04479280324150041,0.0,0.0,0.0,0.0,0.0,0.0,0.0,0.0,0.0,0.02676791204051454,-0.016105369776380857,0.0007144132373449542,0.0,0.0,0.0,0.0,0.0,0.0,0.0,0.0,0.0
3.299,83,3,299000000,base_footprint,-0.0027894162806404257,0.0026860664877321498,0.7194241369572862,0.694560231633586,0.0,0.0,0.0,0.0,0.0,0.0,0.0,0.0,0.0,0.00017823703651129245,0.0006525835614996812,0.061951818771793954,0.0,0.0,0.0,0.0,0.0,0.0,0.0,0.0,0.0,0.058712862643516064,-0.010817797098435167,-0.0005269451025953846,0.0,0.0,0.0,0.0,0.0,0.0,0.0,0.0,0.0
3.333,84,3,333000000,base_footprint,-0.002796406574503179,0.002680785068725208,0.7199902014501158,0.6939734168666023,0.0,0.0,0.0,0.0,0.0,0.0,0.0,0.0,0.0,0.00021457032868949985,9.905569887164918e-06,0.03641847274439659,0.0,0.0,0.0,0.0,0.0,0.0,0.0,0.0,0.0,-0.05086449128182846,-0.014613695902593375,-0.0004879704935111247,0.0,0.0,0.0,0.0,0.0,0.0,0.0,0.0,0.0
3.367,85,3,367000000,base_footprint,-0.0027950078743159573,0.002676996336002,0.7204540299837998,0.6934918977909559,0.0,0.0,0.0,0.0,0.0,0.0,0.0,0.0,0.0,1.5648686586051708e-05,0.0006511097695785653,0.039790044872016636,0.0,0.0,0.0,0.0,0.0,0.0,0.0,0.0,0.0,0.006414459814444436,-0.006829353281853585,0.0011299299273861527,0.0,0.0,0.0,0.0,0.0,0.0,0.0,0.0,0.0
3.401,86,3,401000000,base_footprint,-0.002803947380481964,0.002681672222033874,0.72092337986428,0.6930039154855072,0.0,0.0,0.0,0.0,0.0,0.0,0.0,0.0,0.0,-0.00046066892021821913,-0.0025466441810251634,0.03713127381829742,0.0,0.0,0.0,0.0,0.0,0.0,0.0,0.0,0.0,0.12399445219860936,-0.003132390518785777,0.0010308863626307162,0.0,0.0,0.0,0.0,0.0,0.0,0.0,0.0,0.0
3.435,87,3,435000000,base_footprint,-0.002791756086001384,0.0026713931203694286,0.7211530007728931,0.6927650534149397,0.0,0.0,0.0,0.0,0.0,0.0,0.0,0.0,0.0,-0.002115088714426631,0.0012928897854512715,0.048782043873397476,0.0,0.0,0.0,0.0,0.0,0.0,0.0,0.0,0.0,0.2080584378590505,0.015585007083675037,0.0007215055423835476,0.0,0.0,0.0,0.0,0.0,0.0,0.0,0.0,0.0
3.469,88,3,469000000,base_footprint,-0.0027923789599707755,0.002666469855310886,0.7217174007678686,0.6921770625982389,0.0,0.0,0.0,0.0,0.0,0.0,0.0,0.0,0.0,-0.00012925866912711297,0.0006150225992581162,0.04738143296533697,0.0,0.0,0.0,0.0,0.0,0.0,0.0,0.0,0.0,-0.003265220527323679,-0.008519407397707329,-0.0016498281706412423,0.0,0.0,0.0,0.0,0.0,0.0,0.0,0.0,0.0
3.503,89,3,503000000,base_footprint,-0.0027936461871904726,0.002664503595922469,0.7222593152254047,0.6916115799577808,0.0,0.0,0.0,0.0,0.0,0.0,0.0,0.0,0.0,-6.9033100129506e-05,0.00042397554601874226,0.040287582002192304,0.0,0.0,0.0,0.0,0.0,0.0,0.0,0.0,0.0,-0.006337924507949011,-0.010216750231901354,-0.00011991858644125265,0.0,0.0,0.0,0.0,0.0,0.0,0.0,0.0,0.0
3.537,90,3,537000000,base_footprint,-0.002795892392056128,0.0026637432345825236,0.722732640867338,0.6911169345940206,0.0,0.0,0.0,0.0,0.0,0.0,0.0,0.0,0.0,-0.0001041393058631517,0.00040362866472477745,0.04014673874597657,0.0,0.0,0.0,0.0,0.0,0.0,0.0,0.0,0.0,-0.004919156029473269,-0.00876929427941822,-5.940873691165722e-05,0.0,0.0,0.0,0.0,0.0,0.0,0.0,0.0,0.0
3.571,91,3,571000000,base_footprint,-0.002799251680006326,0.0026639806390283743,0.7232017872909583,0.6906259785559405,0.0,0.0,0.0,0.0,0.0,0.0,0.0,0.0,0.0,-9.797362644500655e-05,0.0003045582395755508,0.039751827753361516,0.0,0.0,0.0,0.0,0.0,0.0,0.0,0.0,0.0,-0.004630368067013484,-0.008647885798064706,-0.00014410246538069195,0.0,0.0,0.0,0.0,0.0,0.0,0.0,0.0,0.0
3.605,92,3,605000000,base_footprint,-0.002803356602455366,0.0026652702993533945,0.7236458395195727,0.6901606598988411,0.0,0.0,0.0,0.0,0.0,0.0,0.0,0.0,0.0,5.512443528745684e-05,-1.57837963091899e-07,0.031609139046304795,0.0,0.0,0.0,0.0,0.0,0.0,0.0,0.0,0.0,-0.005780664716142348,-0.007950796746193062,-0.0005269659540689019,0.0,0.0,0.0,0.0,0.0,0.0,0.0,0.0,0.0
3.6390000000000002,93,3,639000000,base_footprint,-0.0028081898141570703,0.002666468788117668,0.7240199166441441,0.6897681960751572,0.0,0.0,0.0,0.0,0.0,0.0,0.0,0.0,0.0,-8.2498689375598e-05,0.00018128963310536436,0.03185497954802119,0.0,0.0,0.0,0.0,0.0,0.0,0.0,0.0,0.0,-0.004327493775878587,-0.005689687509482914,0.00024904214246016865,0.0,0.0,0.0,0.0,0.0,0.0,0.0,0.0,0.0
3.673,94,3,673000000,base_footprint,-0.002811130851954404,0.0026670764516614773,0.7243836290377691,0.6893862068743514,0.0,0.0,0.0,0.0,0.0,0.0,0.0,0.0,0.0,-4.589724766827168e-05,0.00025281687733244703,0.03060668501615698,0.0,0.0,0.0,0.0,0.0,0.0,0.0,0.0,0.0,-0.000430661635700057,-0.005134627619751124,0.00016248481657895814,0.0,0.0,0.0,0.0,0.0,0.0,0.0,0.0,0.0
3.707,95,3,707000000,base_footprint,-0.00280528670506578,0.0026569862079246203,0.7247123905976469,0.6890406531584599,0.0,0.0,0.0,0.0,0.0,0.0,0.0,0.0,0.0,-0.00028967004972604046,0.00294463560904916,0.015389479945261924,0.0,0.0,0.0,0.0,0.0,0.0,0.0,0.0,0.0,-0.06488728671637695,-0.014378641014783373,0.004642330373257241,0.0,0.0,0.0,0.0,0.0,0.0,0.0,0.0,0.0
3.741,96,3,741000000,base_footprint,-0.0028060412789470946,0.002654547597065197,0.7246164049445204,0.6891416002496691,0.0,0.0,0.0,0.0,0.0,0.0,0.0,0.0,0.0,0.0009627123305109168,0.0006771465976786106,-0.021873783051481514,0.0,0.0,0.0,0.0,0.0,0.0,0.0,0.0,0.0,-0.0826269828007862,-0.006305692945757509,-0.0028008022248922192,0.0,0.0,0.0,0.0,0.0,0.0,0.0,0.0,0.0
3.775,97,3,775000000,base_footprint,-0.0028042652007148026,0.002654928953224911,0.7246778657138974,0.6890769756662083,0.0,0.0,0.0,0.0,0.0,0.0,0.0,0.0,0.0,-0.00031406952629095173,-0.0012484473200920865,0.04714898459103599,0.0,0.0,0.0,0.0,0.0,0.0,0.0,0.0,0.0,-0.02974987820243423,-0.01190084234091331,-0.004128365170962214,0.0,0.0,0.0,0.0,0.0,0.0,0.0,0.0,0.0
3.809,98,3,809000000,base_footprint,-0.0028048405335726924,0.002658810678239863,0.7253613500521287,0.6883574474398544,0.0,0.0,0.0,0.0,0.0,0.0,0.0,0.0,0.0,-9.418799077986306e-05,0.00041509276302633086,0.05071012785493034,0.0,0.0,0.0,0.0,0.0,0.0,0.0,0.0,0.0,-0.04962393767061193,-0.013688893447549647,0.0029904862805452126,0.0,0.0,0.0,0.0,0.0,0.0,0.0,0.0,0.0
3.843,99,3,843000000,base_footprint,-0.0028172545980886163,0.002656515768517638,0.7257118963868889,0.6879878265224222,0.0,0.0,0.0,0.0,0.0,0.0,0.0,0.0,0.0,-0.00038024394492741116,0.0004983933635658055,0.01822655141952216,0.0,0.0,0.0,0.0,0.0,0.0,0.0,0.0,0.0,-0.07378518617443189,-0.01648703672235168,0.000523191134648351,0.0,0.0,0.0,0.0,0.0,0.0,0.0,0.0,0.0
3.877,100,3,877000000,base_footprint,-0.0028144479122796575,0.0026525588254672334,0.7259388220058747,0.6877484056828846,0.0,0.0,0.0,0.0,0.0,0.0,0.0,0.0,0.0,4.462010126238773e-05,0.0004720099111257079,0.019529491937478,0.0,0.0,0.0,0.0,0.0,0.0,0.0,0.0,0.0,6.53482581983278e-05,-0.001014304670085626,-0.00012581708606519272,0.0,0.0,0.0,0.0,0.0,0.0,0.0,0.0,0.0
3.911,101,3,911000000,base_footprint,-0.0028129627595188905,0.002649537171147936,0.7261715971401799,0.687502639049606,0.0,0.0,0.0,0.0,0.0,0.0,0.0,0.0,0.0,-0.00016496128826639327,0.0005242355619579208,0.020336155382587345,0.0,0.0,0.0,0.0,0.0,0.0,0.0,0.0,0.0,-0.003957187405788982,-0.004447739384076437,0.0003290018450822702,0.0,0.0,0.0,0.0,0.0,0.0,0.0,0.0,0.0
3.9450000000000003,102,3,945000000,base_footprint,-0.0028110287081599366,0.0026477306241939357,0.7264065783475468,0.6872543710836281,0.0,0.0,0.0,0.0,0.0,0.0,0.0,0.0,0.0,-0.00014597553755206824,0.00042377622648333486,0.019919594561049525,0.0,0.0,0.0,0.0,0.0,0.0,0.0,0.0,0.0,-0.005371432374268293,-0.005211111586845263,-0.00014886194157848174,0.0,0.0,0.0,0.0,0.0,0.0,0.0,0.0,0.0
3.979,103,3,979000000,base_footprint,-0.002810646975517657,0.002646930247779099,0.7266366776404823,0.6870110863235356,0.0,0.0,0.0,0.0,0.0,0.0,0.0,0.0,0.0,-0.00012495915026634245,0.000334513387627047,0.01950085479045998,0.0,0.0,0.0,0.0,0.0,0.0,0.0,0.0,0.0,-0.0053813526971009905,-0.004928094884955881,-0.00013997892308557534,0.0,0.0,0.0,0.0,0.0,0.0,0.0,0.0,0.0
4.013,104,4,13000000,base_footprint,-0.0028114793133962226,0.00264725404224218,0.7268286325865408,0.6868079982662443,0.0,0.0,0.0,0.0,0.0,0.0,0.0,0.0,0.0,-0.00010025954881519985,0.0001753693225144618,0.013041084671274364,0.0,0.0,0.0,0.0,0.0,0.0,0.0,0.0,0.0,-0.0070321782288470525,-0.0045596652727727185,-0.00018835960274044962,0.0,0.0,0.0,0.0,0.0,0.0,0.0,0.0,0.0
4.047,105,4,47000000,base_footprint,-0.0028134816457385794,0.002648845500323617,0.7269786111530788,0.6866492313142754,0.0,0.0,0.0,0.0,0.0,0.0,0.0,0.0,0.0,-9.837626680768296e-05,9.010279411392131e-05,0.012629086979238412,0.0,0.0,0.0,0.0,0.0,0.0,0.0,0.0,0.0,-0.005340812684636798,-0.0031770854123893393,-0.00016822338490200963,0.0,0.0,0.0,0.0,0.0,0.0,0.0,0.0,0.0
4.081,106,4,81000000,base_footprint,-0.002816911159505603,0.0026513252178908225,0.7271228315174809,0.6864964846028779,0.0,0.0,0.0,0.0,0.0,0.0,0.0,0.0,0.0,-9.550126660172567e-05,2.0063122794028805e-05,0.012154657266308112,0.0,0.0,0.0,0.0,0.0,0.0,0.0,0.0,0.0,-0.005078642641228977,-0.002901765412127435,-0.00024083962500770658,0.0,0.0,0.0,0.0,0.0,0.0,0.0,0.0,0.0
4.115,107,4,115000000,base_footprint,-0.002819605233497457,0.002653829533365635,0.7271846416304427,0.686430989970543,0.0,0.0,0.0,0.0,0.0,0.0,0.0,0.0,0.0,2.3542603906976732e-05,-9.495415773843206e-05,-0.0007646069176708085,0.0,0.0,0.0,0.0,0.0,0.0,0.0,0.0,0.0,-0.005291000706913847,-0.001877214965803715,-0.00018629466541684068,0.0,0.0,0.0,0.0,0.0,0.0,0.0,0.0,0.0
4.149,108,4,149000000,base_footprint,-0.0028214304169262936,0.0026561079674879483,0.7271672610495699,0.6864493856640373,0.0,0.0,0.0,0.0,0.0,0.0,0.0,0.0,0.0,-3.568374520563814e-05,-8.989173324542583e-06,-0.0019562880843703376,0.0,0.0,0.0,0.0,0.0,0.0,0.0,0.0,0.0,0.0015281902961870775,0.002190291261069959,0.0001765843457406794,0.0,0.0,0.0,0.0,0.0,0.0,0.0,0.0,0.0
4.183,109,4,183000000,base_footprint,-0.00282137388115485,0.002655870161319264,0.7271454989667001,0.6864724390211,0.0,0.0,0.0,0.0,0.0,0.0,0.0,0.0,0.0,4.219084605011576e-05,0.00036153424547868236,-0.0016379975497047136,0.0,0.0,0.0,0.0,0.0,0.0,0.0,0.0,0.0,0.006038403449462021,0.0010507936758558786,0.0006059370291065125,0.0,0.0,0.0,0.0,0.0,0.0,0.0,0.0,0.0
4.217,110,4,217000000,base_footprint,-0.002817489531470309,0.0026480585879369357,0.7272360293556756,0.6863765782319834,0.0,0.0,0.0,0.0,0.0,0.0,0.0,0.0,0.0,0.0005902089324296312,-6.910734949727758e-06,0.01931299202435295,0.0,0.0,0.0,0.0,0.0,0.0,0.0,0.0,0.0,0.11663126686314175,0.012034470100320264,-0.0009216085374752464,0.0,0.0,0.0,0.0,0.0,0.0,0.0,0.0,0.0
4.251,111,4,251000000,base_footprint,-0.0028297656153173207,0.0026490860228093674,0.7272174733990155,0.6863961838129334,0.0,0.0,0.0,0.0,0.0,0.0,0.0,0.0,0.0,-0.00026659944658936636,0.001225082587685826,-0.03463997562683417,0.0,0.0,0.0,0.0,0.0,0.0,0.0,0.0,0.0,0.18459158045899718,0.01749583284278161,0.0022039889690224817,0.0,0.0,0.0,0.0,0.0,0.0,0.0,0.0,0.0
4.285,112,4,285000000,base_footprint,-0.002820476719821089,0.002651991356711835,0.7271653491825192,0.6864514307663595,0.0,0.0,0.0,0.0,0.0,0.0,0.0,0.0,0.0,0.0005552492559384117,-0.0004792306841946095,0.008690239267131784,0.0,0.0,0.0,0.0,0.0,0.0,0.0,0.0,0.0,0.09118708155888601,0.01699875349192191,-0.0029825990939115732,0.0,0.0,0.0,0.0,0.0,0.0,0.0,0.0,0.0
4.319,113,4,319000000,base_footprint,-0.002822474935945003,0.0026506865394230893,0.7271835764895652,0.6864321186977999,0.0,0.0,0.0,0.0,0.0,0.0,0.0,0.0,0.0,3.034235993722853e-06,0.00022780066259914141,0.0020934883489327673,0.0,0.0,0.0,0.0,0.0,0.0,0.0,0.0,0.0,-0.02182147056361699,-0.0064144167249347,0.0014332305756902717,0.0,0.0,0.0,0.0,0.0,0.0,0.0,0.0,0.0
4.353,114,4,353000000,base_footprint,-0.0028198035941384217,0.0026475370718419,0.7272085437870122,0.6864056913359017,0.0,0.0,0.0,0.0,0.0,0.0,0.0,0.0,0.0,4.111923302176139e-05,0.00035031663948905447,0.002387969584475654,0.0,0.0,0.0,0.0,0.0,0.0,0.0,0.0,0.0,-0.0038010755043691572,-0.0012644633194118628,0.00028836921870985417,0.0,0.0,0.0,0.0,0.0,0.0,0.0,0.0,0.0
4.3870000000000005,115,4,387000000,base_footprint,-0.002817934708329126,0.002645441386365401,0.7272376758777485,0.6863748419542939,0.0,0.0,0.0,0.0,0.0,0.0,0.0,0.0,0.0,-0.00018089155059479044,0.00043479244178414657,0.002569536946982905,0.0,0.0,0.0,0.0,0.0,0.0,0.0,0.0,0.0,-0.004153228629330984,-0.0008854709854330671,0.0003458522387801521,0.0,0.0,0.0,0.0,0.0,0.0,0.0,0.0,0.0
4.421,116,4,421000000,base_footprint,-0.0028152677938649137,0.0026439226119061806,0.7273280222459025,0.686279121055227,0.0,0.0,0.0,0.0,0.0,0.0,0.0,0.0,0.0,0.0007927266851920907,-0.0017736695350568051,-0.005264850042266472,0.0,0.0,0.0,0.0,0.0,0.0,0.0,0.0,0.0,-0.3521024554764999,-0.046116289368307556,-0.0032692593849612366,0.0,0.0,0.0,0.0,0.0,0.0,0.0,0.0,0.0
4.455,117,4,455000000,base_footprint,-0.0028133436808419573,0.0026442437104258988,0.7272727602203918,0.6863376904366727,0.0,0.0,0.0,0.0,0.0,0.0,0.0,0.0,0.0,-0.00011814667332079052,0.00016128727094950058,-0.004535899306241825,0.0,0.0,0.0,0.0,0.0,0.0,0.0,0.0,0.0,0.0007767278570189253,0.004447198318592159,0.0030237288625883903,0.0,0.0,0.0,0.0,0.0,0.0,0.0,0.0,0.0
4.489,118,4,489000000,base_footprint,-0.0028129979266681595,0.0026454288687809704,0.7272170434804939,0.6863967223262756,0.0,0.0,0.0,0.0,0.0,0.0,0.0,0.0,0.0,-0.0001028776854674257,7.486786533203495e-05,-0.004982461752020075,0.0,0.0,0.0,0.0,0.0,0.0,0.0,0.0,0.0,-0.005995878082982083,0.0005239479343405297,-0.00017722658229708604,0.0,0.0,0.0,0.0,0.0,0.0,0.0,0.0,0.0
4.523,119,4,523000000,base_footprint,-0.0028141253117234416,0.002647414293165845,0.7272122571342055,0.6864017810073519,0.0,0.0,0.0,0.0,0.0,0.0,0.0,0.0,0.0,-9.333662425945023e-05,1.1491892691721009e-05,0.0008166548806697017,0.0,0.0,0.0,0.0,0.0,0.0,0.0,0.0,0.0,-0.0041112153267700655,-0.0002189194850765108,-0.00022761003078475945,0.0,0.0,0.0,0.0,0.0,0.0,0.0,0.0,0.0
4.557,120,4,557000000,base_footprint,-0.0028168093279715423,0.002650506777291942,0.727218512126636,0.6863951311157119,0.0,0.0,0.0,0.0,0.0,0.0,0.0,0.0,0.0,-0.00010888283995011661,-8.949250504801945e-05,0.0002568197197045038,0.0,0.0,0.0,0.0,0.0,0.0,0.0,0.0,0.0,-0.00528932566775388,-0.0005124476513638102,-0.00029597813642479536,0.0,0.0,0.0,0.0,0.0,0.0,0.0,0.0,0.0
4.591,121,4,591000000,base_footprint,-0.0028200277506020017,0.002653069761884893,0.7272164621204243,0.6863972799227702,0.0,0.0,0.0,0.0,0.0,0.0,0.0,0.0,0.0,-5.4183818445805695e-05,-7.642689208912486e-05,-0.0006156473750201769,0.0,0.0,0.0,0.0,0.0,0.0,0.0,0.0,0.0,-0.0032515006146700658,0.00040989567904051085,-0.0001397410096115245,0.0,0.0,0.0,0.0,0.0,0.0,0.0,0.0,0.0
4.625,122,4,625000000,base_footprint,-0.0028242799769156515,0.0026525508711889756,0.7277514243170963,0.6858300458720991,0.0,0.0,0.0,0.0,0.0,0.0,0.0,0.0,0.0,-1.1096711273036878e-05,0.0005159594631265643,0.056983739667347946,0.0,0.0,0.0,0.0,0.0,0.0,0.0,0.0,0.0,0.011272323166135747,-0.00573338363300597,0.0002383146566599174,0.0,0.0,0.0,0.0,0.0,0.0,0.0,0.0,0.0
4.659,123,4,659000000,base_footprint,-0.002827344286943516,0.0026499066604661007,0.7284178001111886,0.6851222464641988,0.0,0.0,0.0,0.0,0.0,0.0,0.0,0.0,0.0,-7.30404333666981e-05,0.0006280008190783013,0.05736121637395289,0.0,0.0,0.0,0.0,0.0,0.0,0.0,0.0,0.0,0.0010386553973087114,-0.010315524723938312,0.00035825462916975396,0.0,0.0,0.0,0.0,0.0,0.0,0.0,0.0,0.0
4.693,124,4,693000000,base_footprint,-0.00282821326174526,0.002643260803376883,0.7290634126878274,0.6844352085201713,0.0,0.0,0.0,0.0,0.0,0.0,0.0,0.0,0.0,0.00012891406893284282,0.0007681507878847071,0.05001729568470162,0.0,0.0,0.0,0.0,0.0,0.0,0.0,0.0,0.0,0.026155302362061903,-0.012993932551117521,0.0003957035723909877,0.0,0.0,0.0,0.0,0.0,0.0,0.0,0.0,0.0
4.727,125,4,727000000,base_footprint,-0.002828093848033565,0.002641695804222855,0.7297179214887678,0.6837373606777513,0.0,0.0,0.0,0.0,0.0,0.0,0.0,0.0,0.0,0.00013734303900538725,0.0012277051100592243,0.06846173834472652,0.0,0.0,0.0,0.0,0.0,0.0,0.0,0.0,0.0,0.0430464562519389,-0.01242124089253054,0.0006511000696841241,0.0,0.0,0.0,0.0,0.0,0.0,0.0,0.0,0.0
4.761,126,4,761000000,base_footprint,-0.0028319062353753823,0.002636615648149851,0.7305106704773925,0.6828903198052148,0.0,0.0,0.0,0.0,0.0,0.0,0.0,0.0,0.0,-5.8055482342930624e-05,0.0007470996917453869,0.06416343011870734,0.0,0.0,0.0,0.0,0.0,0.0,0.0,0.0,0.0,0.017381829681465483,-0.010578978067166808,-8.392035494503294e-05,0.0,0.0,0.0,0.0,0.0,0.0,0.0,0.0,0.0
4.795,127,4,795000000,base_footprint,-0.0028384468358254758,0.002633122529076061,0.7311245874275281,0.6822329862621962,0.0,0.0,0.0,0.0,0.0,0.0,0.0,0.0,0.0,-0.00028964946466485694,0.0007864807954320334,0.051263754869848036,0.0,0.0,0.0,0.0,0.0,0.0,0.0,0.0,0.0,-0.03665057269374596,-0.017068409117724895,-6.994205540192844e-05,0.0,0.0,0.0,0.0,0.0,0.0,0.0,0.0,0.0
4.829,128,4,829000000,base_footprint,-0.002836385787838981,0.0026305278805791514,0.7312193725298259,0.6821314129079674,0.0,0.0,0.0,0.0,0.0,0.0,0.0,0.0,0.0,0.0002696927989017077,0.0001827293352299644,-0.016515810662546124,0.0,0.0,0.0,0.0,0.0,0.0,0.0,0.0,0.0,0.29254008083591704,0.04051763607257125,-0.00046973983533669624,0.0,0.0,0.0,0.0,0.0,0.0,0.0,0.0,0.0
4.863,129,4,863000000,base_footprint,-0.0028355547659454305,0.002626426538041002,0.7316723817228059,0.6816454997554714,0.0,0.0,0.0,0.0,0.0,0.0,0.0,0.0,0.0,-0.00017185852343034046,0.0006512303132496148,0.041902297899782226,0.0,0.0,0.0,0.0,0.0,0.0,0.0,0.0,0.0,0.035137161566008615,-0.003092933498144459,0.0005273379913031777,0.0,0.0,0.0,0.0,0.0,0.0,0.0,0.0,0.0
4.897,130,4,897000000,base_footprint,-0.0028341201110545114,0.0026236319868428795,0.7321550347340748,0.6811270728960488,0.0,0.0,0.0,0.0,0.0,0.0,0.0,0.0,0.0,-0.00048029752216217084,0.0005864387343046078,0.03949670896908501,0.0,0.0,0.0,0.0,0.0,0.0,0.0,0.0,0.0,-0.004125768369145029,-0.009241216570718141,0.000314077927460489,0.0,0.0,0.0,0.0,0.0,0.0,0.0,0.0,0.0
4.931,131,4,931000000,base_footprint,-0.002834188052096194,0.0026219370786352563,0.7325718888855742,0.6806787204244474,0.0,0.0,0.0,0.0,0.0,0.0,0.0,0.0,0.0,-0.00015827304630275325,0.00047103255257571004,0.03582778048104748,0.0,0.0,0.0,0.0,0.0,0.0,0.0,0.0,0.0,-0.005839468475681661,-0.00839137724422135,-0.00042388654049676155,0.0,0.0,0.0,0.0,0.0,0.0,0.0,0.0,0.0
4.965,132,4,965000000,base_footprint,-0.0028353539556315956,0.0026212178215826985,0.7329840232508947,0.6802348944622071,0.0,0.0,0.0,0.0,0.0,0.0,0.0,0.0,0.0,-0.00014649236306091967,0.000392754808811172,0.0354676648396677,0.0,0.0,0.0,0.0,0.0,0.0,0.0,0.0,0.0,-0.004415226176999279,-0.008102004079675313,-9.960407012672342e-05,0.0,0.0,0.0,0.0,0.0,0.0,0.0,0.0,0.0
4.9990000000000006,133,4,999000000,base_footprint,-0.0028371995784931014,0.0026211462785915044,0.7333772899655716,0.6798108784459779,0.0,0.0,0.0,0.0,0.0,0.0,0.0,0.0,0.0,-0.0010835872975050245,0.00025291100292458357,0.016138039363789568,0.0,0.0,0.0,0.0,0.0,0.0,0.0,0.0,0.0,-0.007374002738014733,-0.007899980928802553,-0.00032459635174850507,0.0,0.0,0.0,0.0,0.0,0.0,0.0,0.0,0.0
5.033,134,5,33000000,base_footprint,-0.0028401737677080457,0.002623985945279204,0.7335128172333419,0.6796646195478578,0.0,0.0,0.0,0.0,0.0,0.0,0.0,0.0,0.0,-0.00014745861593719843,4.393883838518736e-05,0.011704214082739217,0.0,0.0,0.0,0.0,0.0,0.0,0.0,0.0,0.0,-0.007616351188906602,-0.003931201309903034,-3.806136052371299e-05,0.0,0.0,0.0,0.0,0.0,0.0,0.0,0.0,0.0
5.067,135,5,67000000,base_footprint,-0.002843376134619079,0.0026259349804276075,0.7336441686939322,0.6795228130232456,0.0,0.0,0.0,0.0,0.0,0.0,0.0,0.0,0.0,-0.00010169915848150197,-1.8427964133728547e-05,0.010831958161539696,0.0,0.0,0.0,0.0,0.0,0.0,0.0,0.0,0.0,-0.003837825236840266,-0.002279068817967135,-0.0001373328838840104,0.0,0.0,0.0,0.0,0.0,0.0,0.0,0.0,0.0
5.101,136,5,101000000,base_footprint,-0.0028458410590277688,0.002627916529351316,0.7337597204557614,0.6793980187489983,0.0,0.0,0.0,0.0,0.0,0.0,0.0,0.0,0.0,-5.422312407294258e-05,6.327069426012698e-05,0.009234124074427776,0.0,0.0,0.0,0.0,0.0,0.0,0.0,0.0,0.0,-0.0004436928919878469,-0.001038610783730765,3.0660311304631346e-05,0.0,0.0,0.0,0.0,0.0,0.0,0.0,0.0,0.0
5.135,137,5,135000000,base_footprint,-0.0028476338042260096,0.0026271232226689847,0.7338454295168882,0.6793054355608114,0.0,0.0,0.0,0.0,0.0,0.0,0.0,0.0,0.0,0.00026590858377427656,0.0035097261407162966,-0.005044186515311938,0.0,0.0,0.0,0.0,0.0,0.0,0.0,0.0,0.0,-0.047666542524081104,-0.011653952696613977,0.007489734711907838,0.0,0.0,0.0,0.0,0.0,0.0,0.0,0.0,0.0
5.169,138,5,169000000,base_footprint,-0.002840860636960133,0.00261970798222119,0.7333196433257642,0.6798730523807391,0.0,0.0,0.0,0.0,0.0,0.0,0.0,0.0,0.0,0.0009845862345355758,-0.0019312426779729331,-0.07654078970325787,0.0,0.0,0.0,0.0,0.0,0.0,0.0,0.0,0.0,-0.14592695426978292,-0.012564028045007808,-0.008764305178644634,0.0,0.0,0.0,0.0,0.0,0.0,0.0,0.0,0.0
5.203,139,5,203000000,base_footprint,-0.0028427951433417716,0.0026190158320796493,0.7326946643330728,0.680546536343908,0.0,0.0,0.0,0.0,0.0,0.0,0.0,0.0,0.0,-0.0010762950076731081,-0.0007686080205183522,-0.02286700092484711,0.0,0.0,0.0,0.0,0.0,0.0,0.0,0.0,0.0,-0.0362186619486524,0.006883633807727345,0.0008334374032819712,0.0,0.0,0.0,0.0,0.0,0.0,0.0,0.0,0.0
5.237,140,5,237000000,base_footprint,-0.002839917986356424,0.002628592169525698,0.7328111644457048,0.6804210627492121,0.0,0.0,0.0,0.0,0.0,0.0,0.0,0.0,0.0,-0.0002859179376908875,0.00024931202371674164,0.01932991716347754,0.0,0.0,0.0,0.0,0.0,0.0,0.0,0.0,0.0,0.006427058682340818,-0.002604624274346839,0.0015773624600964725,0.0,0.0,0.0,0.0,0.0,0.0,0.0,0.0,0.0
5.271,141,5,271000000,base_footprint,-0.0028404995841183165,0.0026266126672361634,0.7329281462683145,0.6802950572183376,0.0,0.0,0.0,0.0,0.0,0.0,0.0,0.0,0.0,0.0008180042017235183,-0.0003446862716673288,-0.004390365729365218,0.0,0.0,0.0,0.0,0.0,0.0,0.0,0.0,0.0,-0.06551921321842971,-0.010967059788326575,-0.00263537375933041,0.0,0.0,0.0,0.0,0.0,0.0,0.0,0.0,0.0
5.305,142,5,305000000,base_footprint,-0.002845805206209257,0.002629765388276189,0.7327839164095877,0.6804503784833669,0.0,0.0,0.0,0.0,0.0,0.0,0.0,0.0,0.0,-0.0014470936850717632,0.007191588423028488,-0.026806472226737838,0.0,0.0,0.0,0.0,0.0,0.0,0.0,0.0,0.0,0.1658474301147329,0.023119497033246783,0.004872214677993343,0.0,0.0,0.0,0.0,0.0,0.0,0.0,0.0,0.0
5.339,143,5,339000000,base_footprint,-0.002837793326467119,0.0026235630938078896,0.7326148994610889,0.6806324066141339,0.0,0.0,0.0,0.0,0.0,0.0,0.0,0.0,0.0,0.00021600298205275603,0.0016542540477980452,0.0005476874038787135,0.0,0.0,0.0,0.0,0.0,0.0,0.0,0.0,0.0,0.15373468624238307,0.031003572154720126,-0.0016255452377465051,0.0,0.0,0.0,0.0,0.0,0.0,0.0,0.0,0.0
5.373,144,5,373000000,base_footprint,-0.002836517980690065,0.002622748725302111,0.7326043833958396,0.6806437341106365,0.0,0.0,0.0,0.0,0.0,0.0,0.0,0.0,0.0,-0.0001716759775727063,0.00031065072306595595,-0.0011803313203150555,0.0,0.0,0.0,0.0,0.0,0.0,0.0,0.0,0.0,-0.008966180418740238,-0.0017462399116547757,-0.0009246650065493061,0.0,0.0,0.0,0.0,0.0,0.0,0.0,0.0,0.0
5.401,145,5,407000000,base_footprint,-0.0028342275240690164,0.002622565782693139,0.7325880180968456,0.6806613585653245,0.0,0.0,0.0,0.0,0.0,0.0,0.0,0.0,0.0,-0.00014140311227383017,0.0002155476946122352,-0.0016080538958558196,0.0,0.0,0.0,0.0,0.0,0.0,0.0,0.0,0.0,-0.005530451466332806,-0.0005827445287401099,-0.00018111320575586894,0.0,0.0,0.0,0.0,0.0,0.0,0.0,0.0,0.0
5.441,146,5,441000000,base_footprint,-0.00282974650496837,0.0026201755118113344,0.7325973148219636,0.6806513803193627,0.0,0.0,0.0,0.0,0.0,0.0,0.0,0.0,0.0,0.0004691062554993005,-0.0006506083554184074,0.016961030643412027,0.0,0.0,0.0,0.0,0.0,0.0,0.0,0.0,0.0,-0.2570904916842498,-0.03779501633495361,-0.0013702023109372018,0.0,0.0,0.0,0.0,0.0,0.0,0.0,0.0,0.0
5.475,147,5,475000000,base_footprint,-0.0028354606798776344,0.0026227043541098933,0.7330601474534131,0.6801528517915545,0.0,0.0,0.0,0.0,0.0,0.0,0.0,0.0,0.0,-0.00014126260014993964,0.000381891956642334,0.04140813754571637,0.0,0.0,0.0,0.0,0.0,0.0,0.0,0.0,0.0,-0.07849099091379273,-0.02037017613823541,0.001273674976647014,0.0,0.0,0.0,0.0,0.0,0.0,0.0,0.0,0.0
5.509,148,5,509000000,base_footprint,-0.002841437160323574,0.0026189243561009407,0.7335172975593461,0.6796597984663465,0.0,0.0,0.0,0.0,0.0,0.0,0.0,0.0,0.0,-0.00014313115712652946,0.00016405871027996616,0.015951948178149655,0.0,0.0,0.0,0.0,0.0,0.0,0.0,0.0,0.0,0.2134220873606714,0.025099126691516385,0.000278386593378543,0.0,0.0,0.0,0.0,0.0,0.0,0.0,0.0,0.0
5.543,149,5,543000000,base_footprint,-0.0028410467920426683,0.0026273123617233133,0.7332208634603309,0.6799795519494437,0.0,0.0,0.0,0.0,0.0,0.0,0.0,0.0,0.0,-6.276053112902634e-05,-0.000305606992422661,-0.03231774508833177,0.0,0.0,0.0,0.0,0.0,0.0,0.0,0.0,0.0,0.09540606372987279,0.018593140894761807,-0.000842935068395127,0.0,0.0,0.0,0.0,0.0,0.0,0.0,0.0,0.0
5.577,150,5,577000000,base_footprint,-0.0028421864191837333,0.002631413138119159,0.7328397541212679,0.6803902500923532,0.0,0.0,0.0,0.0,0.0,0.0,0.0,0.0,0.0,-2.5879835591274098e-05,-0.00029586447558722136,-0.033649820135343,0.0,0.0,0.0,0.0,0.0,0.0,0.0,0.0,0.0,-0.0020472437705714667,0.007262949671397224,-0.0001414551828736156,0.0,0.0,0.0,0.0,0.0,0.0,0.0,0.0,0.0
5.611,151,5,611000000,base_footprint,-0.00284183516855871,0.002634473024702777,0.7324433276338664,0.6808169763816011,0.0,0.0,0.0,0.0,0.0,0.0,0.0,0.0,0.0,-1.4291222745578122e-05,-0.00022579137472870502,-0.03469583438785827,0.0,0.0,0.0,0.0,0.0,0.0,0.0,0.0,0.0,0.0009191479362743223,0.00856499928546711,7.031260889498649e-05,0.0,0.0,0.0,0.0,0.0,0.0,0.0,0.0,0.0
5.645,152,5,645000000,base_footprint,-0.002840493860163283,0.002635382623578984,0.732016489444119,0.6812758953133201,0.0,0.0,0.0,0.0,0.0,0.0,0.0,0.0,0.0,0.00023983211614329408,-0.0005568322872827577,-0.042007679647122945,0.0,0.0,0.0,0.0,0.0,0.0,0.0,0.0,0.0,-0.003245042654353901,0.0031464082626883106,-0.0005692659345840979,0.0,0.0,0.0,0.0,0.0,0.0,0.0,0.0,0.0
5.681,153,5,679000000,base_footprint,-0.002838494179527569,0.0026335959817266968,0.7314928467244293,0.6818381203144838,0.0,0.0,0.0,0.0,0.0,0.0,0.0,0.0,0.0,-0.00017153928658406799,-0.0003789692624584887,-0.04896630877621636,0.0,0.0,0.0,0.0,0.0,0.0,0.0,0.0,0.0,0.035494082181112024,0.017205264272869704,0.000387299346999016,0.0,0.0,0.0,0.0,0.0,0.0,0.0,0.0,0.0
5.713,154,5,713000000,base_footprint,-0.0028283073935165106,0.002624002908459787,0.731223743204498,0.6821267863528206,0.0,0.0,0.0,0.0,0.0,0.0,0.0,0.0,0.0,-0.0010740743697032753,0.0014948533502114776,0.021230462653761332,0.0,0.0,0.0,0.0,0.0,0.0,0.0,0.0,0.0,-0.03354780967279195,-0.008648449729334675,0.003187550859570561,0.0,0.0,0.0,0.0,0.0,0.0,0.0,0.0,0.0
5.747,155,5,747000000,base_footprint,-0.0028211083208691573,0.002630703794772682,0.7317911384341548,0.681518048517154,0.0,0.0,0.0,0.0,0.0,0.0,0.0,0.0,0.0,-3.554327132136378e-05,-0.0004958685086177438,0.042386963468167005,0.0,0.0,0.0,0.0,0.0,0.0,0.0,0.0,0.0,-0.10381354720911586,-0.0181269772257655,-0.004037380034222372,0.0,0.0,0.0,0.0,0.0,0.0,0.0,0.0,0.0
5.781,156,5,781000000,base_footprint,-0.0028250898199496705,0.002629505537746281,0.7319481661143674,0.6813493866511885,0.0,0.0,0.0,0.0,0.0,0.0,0.0,0.0,0.0,0.0013635984708591528,-0.002000988859249547,-0.01809826195023992,0.0,0.0,0.0,0.0,0.0,0.0,0.0,0.0,0.0,-0.15757066108757722,-0.02349325090903967,-0.001953358949429807,0.0,0.0,0.0,0.0,0.0,0.0,0.0,0.0,0.0
5.815,157,5,815000000,base_footprint,-0.002834994695027289,0.0026296501782611236,0.7315653450846237,0.6817603637761841,0.0,0.0,0.0,0.0,0.0,0.0,0.0,0.0,0.0,0.00012395528406708087,8.784497168869935e-05,-0.034809634970719365,0.0,0.0,0.0,0.0,0.0,0.0,0.0,0.0,0.0,-0.04536296291879223,-1.2350693657896261e-06,0.0036819608997548207,0.0,0.0,0.0,0.0,0.0,0.0,0.0,0.0,0.0
5.849,158,5,849000000,base_footprint,-0.002831229554929284,0.0026295782756469463,0.7311553890487343,0.682200019438796,0.0,0.0,0.0,0.0,0.0,0.0,0.0,0.0,0.0,-0.00015253427431495705,6.765965439245896e-05,-0.03549575723504571,0.0,0.0,0.0,0.0,0.0,0.0,0.0,0.0,0.0,-0.007131841154709336,0.006415621838571386,0.00024962652410527656,0.0,0.0,0.0,0.0,0.0,0.0,0.0,0.0,0.0
5.883,159,5,883000000,base_footprint,-0.002827026966686857,0.002630717811920258,0.7307403307312835,0.6826446046699982,0.0,0.0,0.0,0.0,0.0,0.0,0.0,0.0,0.0,-0.00012136408005025328,-2.7040202122647895e-05,-0.03602247115404386,0.0,0.0,0.0,0.0,0.0,0.0,0.0,0.0,0.0,-0.006896407188217733,0.006883654117310654,-0.0002441339500081651,0.0,0.0,0.0,0.0,0.0,0.0,0.0,0.0,0.0
5.917,160,5,917000000,base_footprint,-0.0028243053816898183,0.002632965563339299,0.7302809521053254,0.6831360199722986,0.0,0.0,0.0,0.0,0.0,0.0,0.0,0.0,0.0,-9.149746425956281e-05,-0.00016887380126665334,-0.04207662647750179,0.0,0.0,0.0,0.0,0.0,0.0,0.0,0.0,0.0,-0.008489414126719844,0.007612581205895644,-0.0002535470332554227,0.0,0.0,0.0,0.0,0.0,0.0,0.0,0.0,0.0
5.9510000000000005,161,5,951000000,base_footprint,-0.0028228052632023283,0.0026362180068230353,0.7297889320711294,0.6836616098272209,0.0,0.0,0.0,0.0,0.0,0.0,0.0,0.0,0.0,-7.23685513654632e-05,-0.00025066513536797677,-0.04260154089589581,0.0,0.0,0.0,0.0,0.0,0.0,0.0,0.0,0.0,-0.007039055186448639,0.008607482255026196,-0.000250457773170395,0.0,0.0,0.0,0.0,0.0,0.0,0.0,0.0,0.0
5.985,162,5,985000000,base_footprint,-0.0028227185523015115,0.002640607138373977,0.729290127745359,0.684193663392956,0.0,0.0,0.0,0.0,0.0,0.0,0.0,0.0,0.0,-5.653344292054416e-05,-0.0003658755532716057,-0.04317256207061208,0.0,0.0,0.0,0.0,0.0,0.0,0.0,0.0,0.0,-0.006835165924017082,0.008815507374293742,-0.00031527958105645584,0.0,0.0,0.0,0.0,0.0,0.0,0.0,0.0,0.0
6.019,163,6,19000000,base_footprint,-0.0028241571512349854,0.0026458063927948614,0.7287838541060111,0.6847328806471217,0.0,0.0,0.0,0.0,0.0,0.0,0.0,0.0,0.0,-4.145149871929582e-05,-0.00042619775976317014,-0.04387383643715829,0.0,0.0,0.0,0.0,0.0,0.0,0.0,0.0,0.0,-0.006124345299169046,0.009323748633993482,-0.00032127873711026067,0.0,0.0,0.0,0.0,0.0,0.0,0.0,0.0,0.0
6.053,164,6,53000000,base_footprint,-0.0028243992991602374,0.0026506438120176665,0.7282132984653942,0.6853396156608281,0.0,0.0,0.0,0.0,0.0,0.0,0.0,0.0,0.0,-1.4802375257258249e-05,-0.00048304070034037544,-0.0517096391877537,0.0,0.0,0.0,0.0,0.0,0.0,0.0,0.0,0.0,-0.004631601872925941,0.010909536160305256,-0.00019979757200583087,0.0,0.0,0.0,0.0,0.0,0.0,0.0,0.0,0.0
6.087,165,6,87000000,base_footprint,-0.0028237618425343324,0.0026548484203414565,0.7276052075272345,0.6859851602827657,0.0,0.0,0.0,0.0,0.0,0.0,0.0,0.0,0.0,-1.0518420847969575e-05,-0.00037453018620953925,-0.052358305518835906,0.0,0.0,0.0,0.0,0.0,0.0,0.0,0.0,0.0,0.001677612062800731,0.012919062816455652,9.446885530926152e-05,0.0,0.0,0.0,0.0,0.0,0.0,0.0,0.0,0.0
6.121,166,6,121000000,base_footprint,-0.0028208053031223953,0.0026545285507956922,0.7270444747175702,0.6865794406463592,0.0,0.0,0.0,0.0,0.0,0.0,0.0,0.0,0.0,1.5014836237957504e-05,8.01894815826753e-05,-0.044908737756597324,0.0,0.0,0.0,0.0,0.0,0.0,0.0,0.0,0.0,0.009261738249410775,0.010268026513144762,0.0006758760895498982,0.0,0.0,0.0,0.0,0.0,0.0,0.0,0.0,0.0
6.155,167,6,155000000,base_footprint,-0.0028171407346803683,0.002654466989244481,0.7264821128847593,0.6871744736102907,0.0,0.0,0.0,0.0,0.0,0.0,0.0,0.0,0.0,-0.0002806319639147382,-0.00032170771365349547,-0.04911308015176097,0.0,0.0,0.0,0.0,0.0,0.0,0.0,0.0,0.0,0.03396423893909622,0.015407024464546825,-0.0006938974128341559,0.0,0.0,0.0,0.0,0.0,0.0,0.0,0.0,0.0
6.189,168,6,189000000,base_footprint,-0.0028165400352663053,0.0026571909749271982,0.726103319640172,0.687574705501791,0.0,0.0,0.0,0.0,0.0,0.0,0.0,0.0,0.0,0.00017172596895327684,-0.00018009106579633074,-0.02736253917236214,0.0,0.0,0.0,0.0,0.0,0.0,0.0,0.0,0.0,0.03808468510836357,0.008419007945976938,-0.0008524996747586563,0.0,0.0,0.0,0.0,0.0,0.0,0.0,0.0,0.0
6.223,169,6,223000000,base_footprint,-0.0028191255016968616,0.002658263704588828,0.7256834769790209,0.6880177885818952,0.0,0.0,0.0,0.0,0.0,0.0,0.0,0.0,0.0,-6.244165265347965e-05,-0.00034949652195437537,-0.04451174479124936,0.0,0.0,0.0,0.0,0.0,0.0,0.0,0.0,0.0,-0.05028869787926493,0.001044642550758812,0.0007261393973046667,0.0,0.0,0.0,0.0,0.0,0.0,0.0,0.0,0.0
6.257,170,6,257000000,base_footprint,-0.002813959423984119,0.0026574920281699616,0.7252566051158496,0.6884677741944883,0.0,0.0,0.0,0.0,0.0,0.0,0.0,0.0,0.0,0.00012586141250652276,0.0001578245440990644,-0.035088453485409565,0.0,0.0,0.0,0.0,0.0,0.0,0.0,0.0,0.0,0.003868001244052415,0.011309613945654742,0.000631841218677197,0.0,0.0,0.0,0.0,0.0,0.0,0.0,0.0,0.0
6.291,171,6,291000000,base_footprint,-0.002810628238661252,0.0026559877511889473,0.7248427131608383,0.6889035398919101,0.0,0.0,0.0,0.0,0.0,0.0,0.0,0.0,0.0,-0.00010470703625978794,0.00012312846501987543,-0.035637367507893265,0.0,0.0,0.0,0.0,0.0,0.0,0.0,0.0,0.0,-0.006718859229471448,0.006912898405564003,0.0001437474006567487,0.0,0.0,0.0,0.0,0.0,0.0,0.0,0.0,0.0
6.325,172,6,325000000,base_footprint,-0.002805383669873719,0.0026554170229516425,0.7245252531692755,0.6892374308631942,0.0,0.0,0.0,0.0,0.0,0.0,0.0,0.0,0.0,-0.00013830490249612152,0.0005904997020316192,-0.018945430786334316,0.0,0.0,0.0,0.0,0.0,0.0,0.0,0.0,0.0,0.292524661249582,0.03470760208214377,0.00010697464634473844,0.0,0.0,0.0,0.0,0.0,0.0,0.0,0.0,0.0
6.359,173,6,359000000,base_footprint,-0.0028019210249938674,0.002656917842850582,0.7240772716982878,0.6897080502909257,0.0,0.0,0.0,0.0,0.0,0.0,0.0,0.0,0.0,-8.797982006856215e-05,-0.0001744789024173964,-0.041658147240626844,0.0,0.0,0.0,0.0,0.0,0.0,0.0,0.0,0.0,0.03302123089824638,0.011823671668205112,-0.0007248513515441164,0.0,0.0,0.0,0.0,0.0,0.0,0.0,0.0,0.0
6.393,174,6,393000000,base_footprint,-0.0027993278720964024,0.002659199876163733,0.7235860914969571,0.690223341108978,0.0,0.0,0.0,0.0,0.0,0.0,0.0,0.0,0.0,-8.165975998487005e-05,-0.0001582213407332924,-0.042076204687332926,0.0,0.0,0.0,0.0,0.0,0.0,0.0,0.0,0.0,-0.0064241357204381485,0.008179196724680877,-0.00011569021931761919,0.0,0.0,0.0,0.0,0.0,0.0,0.0,0.0,0.0
6.427,175,6,427000000,base_footprint,-0.0027982712903214294,0.0026619004802595596,0.7231906469785481,0.690637656145658,0.0,0.0,0.0,0.0,0.0,0.0,0.0,0.0,0.0,-6.978773178395002e-05,-0.00016858818506660124,-0.03279976212201604,0.0,0.0,0.0,0.0,0.0,0.0,0.0,0.0,0.0,-0.003639104369436469,0.006879485308939416,-0.0002321217524776987,0.0,0.0,0.0,0.0,0.0,0.0,0.0,0.0,0.0
6.461,176,6,461000000,base_footprint,-0.0027985277586805558,0.0026655823703710573,0.7228028702291192,0.6910434673025697,0.0,0.0,0.0,0.0,0.0,0.0,0.0,0.0,0.0,-5.770180989908615e-05,-0.000264998553775865,-0.033228862818188334,0.0,0.0,0.0,0.0,0.0,0.0,0.0,0.0,0.0,-0.005978552322053489,0.006577505878405559,-0.0002591602981321385,0.0,0.0,0.0,0.0,0.0,0.0,0.0,0.0,0.0
6.495,177,6,495000000,base_footprint,-0.002800185882012843,0.0026701197932951495,0.7224096307559156,0.691454521143956,0.0,0.0,0.0,0.0,0.0,0.0,0.0,0.0,0.0,-5.555554275917001e-05,-0.0003432869210070902,-0.03372934842114705,0.0,0.0,0.0,0.0,0.0,0.0,0.0,0.0,0.0,-0.005409295821451851,0.006846109566145259,-0.00032734467208253397,0.0,0.0,0.0,0.0,0.0,0.0,0.0,0.0,0.0
6.529,178,6,529000000,base_footprint,-0.0028010233660547943,0.002673505399090079,0.7220268154498652,0.6918542363882079,0.0,0.0,0.0,0.0,0.0,0.0,0.0,0.0,0.0,-0.0002754074700989384,-0.0015644791604420248,-0.02971953900357172,0.0,0.0,0.0,0.0,0.0,0.0,0.0,0.0,0.0,-0.37474595689095824,-0.02436418419920991,-0.0024578822735128155,0.0,0.0,0.0,0.0,0.0,0.0,0.0,0.0,0.0
6.563,179,6,563000000,base_footprint,-0.002801332740677128,0.0026786564096160275,0.7215293851045784,0.6923729657961266,0.0,0.0,0.0,0.0,0.0,0.0,0.0,0.0,0.0,-5.34609403366108e-05,-0.0003682271057857577,-0.04265439508227291,0.0,0.0,0.0,0.0,0.0,0.0,0.0,0.0,0.0,0.03215108223810508,0.013082886970287394,0.0023747754849277845,0.0,0.0,0.0,0.0,0.0,0.0,0.0,0.0,0.0
6.597,180,6,597000000,base_footprint,-0.0027985180516585497,0.002680990579623689,0.7210321431541187,0.6928907771971028,0.0,0.0,0.0,0.0,0.0,0.0,0.0,0.0,0.0,-0.0003659202236152376,-2.753195285661447e-05,-0.04159903893747091,0.0,0.0,0.0,0.0,0.0,0.0,0.0,0.0,0.0,0.006527282587238278,0.012109649413150386,0.0008349827525573325,0.0,0.0,0.0,0.0,0.0,0.0,0.0,0.0,0.0
6.631,181,6,631000000,base_footprint,-0.0027928737472668326,0.0026781065245413582,0.7206022589119143,0.6933378772667202,0.0,0.0,0.0,0.0,0.0,0.0,0.0,0.0,0.0,-0.00010871290523038822,0.0001703629957296113,-0.03493371877069125,0.0,0.0,0.0,0.0,0.0,0.0,0.0,0.0,0.0,0.03793853112571308,0.007447786785689281,1.2929154253397935e-06,0.0,0.0,0.0,0.0,0.0,0.0,0.0,0.0,0.0
6.665,182,6,665000000,base_footprint,-0.002793134407420776,0.0026820327268460144,0.7203437009248868,0.6936064861565754,0.0,0.0,0.0,0.0,0.0,0.0,0.0,0.0,0.0,0.0005527253707062422,0.00045231620391771325,-0.01509311604998486,0.0,0.0,0.0,0.0,0.0,0.0,0.0,0.0,0.0,0.0392124521687783,0.004834333968733749,-0.0009601995399304531,0.0,0.0,0.0,0.0,0.0,0.0,0.0,0.0,0.0
6.699,183,6,699000000,base_footprint,-0.0027971642117709354,0.0026820528481360066,0.7200310079349505,0.6939310701194116,0.0,0.0,0.0,0.0,0.0,0.0,0.0,0.0,0.0,-0.00011500131750442262,-0.00026566321137156003,-0.037542712112886914,0.0,0.0,0.0,0.0,0.0,0.0,0.0,0.0,0.0,-0.05090373734056268,0.0010050489438583818,0.0003767520155189199,0.0,0.0,0.0,0.0,0.0,0.0,0.0,0.0,0.0
6.7330000000000005,184,6,733000000,base_footprint,-0.0027921575776932513,0.0026813011160216425,0.7196134979339673,0.6943640457797527,0.0,0.0,0.0,0.0,0.0,0.0,0.0,0.0,0.0,0.0001062186561922337,9.958011024156191e-05,-0.034904697445132346,0.0,0.0,0.0,0.0,0.0,0.0,0.0,0.0,0.0,0.003836828604804095,0.011209677644483398,0.0003184651734897501,0.0,0.0,0.0,0.0,0.0,0.0,0.0,0.0,0.0
6.767,185,6,767000000,base_footprint,-0.002788833771030552,0.002679547673353194,0.7191971393151608,0.6947953059940409,0.0,0.0,0.0,0.0,0.0,0.0,0.0,0.0,0.0,-8.631622253429507e-05,0.00014675842868161113,-0.035567405543669744,0.0,0.0,0.0,0.0,0.0,0.0,0.0,0.0,0.0,-0.006565114524297612,0.0070348481676857965,0.0002776893212454885,0.0,0.0,0.0,0.0,0.0,0.0,0.0,0.0,0.0
6.801,186,6,801000000,base_footprint,-0.0027833307357244294,0.002679446762976542,0.718788889168719,0.6952176683907415,0.0,0.0,0.0,0.0,0.0,0.0,0.0,0.0,0.0,-0.0008191946375331483,6.564233234103661e-05,-0.025790848919844567,0.0,0.0,0.0,0.0,0.0,0.0,0.0,0.0,0.0,-0.00389474830878347,0.006699856788062445,8.368836982525545e-05,0.0,0.0,0.0,0.0,0.0,0.0,0.0,0.0,0.0
6.835,187,6,835000000,base_footprint,-0.0027801578548941365,0.0026794650408834358,0.7184823120608629,0.6955345127634384,0.0,0.0,0.0,0.0,0.0,0.0,0.0,0.0,0.0,-9.32722880368075e-05,4.8465778271044525e-05,-0.026258471919098216,0.0,0.0,0.0,0.0,0.0,0.0,0.0,0.0,0.0,-0.005495866144590219,0.006091656495686055,-0.0004896411804088548,0.0,0.0,0.0,0.0,0.0,0.0,0.0,0.0,0.0
6.869,188,6,869000000,base_footprint,-0.0027783617787632497,0.0026808539056933016,0.7181693033023036,0.6958577049386223,0.0,0.0,0.0,0.0,0.0,0.0,0.0,0.0,0.0,-7.476237692235585e-05,-3.858043309140279e-05,-0.026679739163194563,0.0,0.0,0.0,0.0,0.0,0.0,0.0,0.0,0.0,-0.006243578913306408,0.005495668662333061,-0.00021558729640300814,0.0,0.0,0.0,0.0,0.0,0.0,0.0,0.0,0.0
6.902,189,6,903000000,base_footprint,-0.0027782390487194725,0.0026829814441614295,0.7178696130892267,0.6961668633319763,0.0,0.0,0.0,0.0,0.0,0.0,0.0,0.0,0.0,-0.0001382367287970222,-4.445017454919006e-05,-0.017753535418716757,0.0,0.0,0.0,0.0,0.0,0.0,0.0,0.0,0.0,-0.003958928243378217,0.005422236183844049,-0.0002397995635183687,0.0,0.0,0.0,0.0,0.0,0.0,0.0,0.0,0.0
6.937,190,6,937000000,base_footprint,-0.0027791864829350395,0.0026860933421512293,0.7176540697208447,0.696389041583912,0.0,0.0,0.0,0.0,0.0,0.0,0.0,0.0,0.0,-4.55409177166239e-05,-0.00017119790036205585,-0.018491442768966075,0.0,0.0,0.0,0.0,0.0,0.0,0.0,0.0,0.0,-0.005733543627197681,0.003959290030523005,-0.0002651555254853019,0.0,0.0,0.0,0.0,0.0,0.0,0.0,0.0,0.0
6.971,191,6,971000000,base_footprint,-0.0027820951727163304,0.0026901014080778136,0.7174327713677273,0.6966169979755639,0.0,0.0,0.0,0.0,0.0,0.0,0.0,0.0,0.0,-3.4628906909965076e-05,-0.0002574818250063945,-0.018922901958484194,0.0,0.0,0.0,0.0,0.0,0.0,0.0,0.0,0.0,-0.0051730632181275745,0.0041498095160061275,-0.0003331903067054407,0.0,0.0,0.0,0.0,0.0,0.0,0.0,0.0,0.0
7.005,192,7,5000000,base_footprint,-0.002771198301643354,0.002683555349998307,0.7172240170135373,0.6968319943929251,0.0,0.0,0.0,0.0,0.0,0.0,0.0,0.0,0.0,-0.0013920892068548748,0.0030735463882884347,-0.009500771786285885,0.0,0.0,0.0,0.0,0.0,0.0,0.0,0.0,0.0,0.14175923354483588,0.008778878072844734,0.006056873387692497,0.0,0.0,0.0,0.0,0.0,0.0,0.0,0.0,0.0
7.039,193,7,39000000,base_footprint,-0.002785198313678956,0.0026965830727284893,0.7169511777342985,0.6971126019915921,0.0,0.0,0.0,0.0,0.0,0.0,0.0,0.0,0.0,0.000646756936836247,3.112774122658075e-05,-0.02489319653851601,0.0,0.0,0.0,0.0,0.0,0.0,0.0,0.0,0.0,0.2014330957088014,0.019706259781277574,-0.005939713601837924,0.0,0.0,0.0,0.0,0.0,0.0,0.0,0.0,0.0
7.073,194,7,73000000,base_footprint,-0.0027816666288858504,0.0026980532389041896,0.7166359414312752,0.6974366711669211,0.0,0.0,0.0,0.0,0.0,0.0,0.0,0.0,0.0,-6.950291354047193e-05,9.725904160597408e-05,-0.026253348258060402,0.0,0.0,0.0,0.0,0.0,0.0,0.0,0.0,0.0,0.002697294530204719,0.009904692770677655,0.00034462253331948487,0.0,0.0,0.0,0.0,0.0,0.0,0.0,0.0,0.0
7.107,195,7,107000000,base_footprint,-0.0027752961602421186,0.0026962568810445986,0.7163585252165222,0.6977216431211403,0.0,0.0,0.0,0.0,0.0,0.0,0.0,0.0,0.0,6.75690856574777e-05,0.00010726669903942255,-0.01925980390049365,0.0,0.0,0.0,0.0,0.0,0.0,0.0,0.0,0.0,0.02753460760597591,0.00985133248668212,-0.00018189406844403336,0.0,0.0,0.0,0.0,0.0,0.0,0.0,0.0,0.0
7.141,196,7,141000000,base_footprint,-0.0027773589106322607,0.002698834901244515,0.7162875836296293,0.697794454051968,0.0,0.0,0.0,0.0,0.0,0.0,0.0,0.0,0.0,0.00011290069698554936,0.00038238827025579094,0.0009558507966706817,0.0,0.0,0.0,0.0,0.0,0.0,0.0,0.0,0.0,0.04219536595398912,-0.006588294878305718,-0.0004496258383457498,0.0,0.0,0.0,0.0,0.0,0.0,0.0,0.0,0.0
7.175,197,7,175000000,base_footprint,-0.002782088904438023,0.0026979054172080862,0.7161707000448092,0.6979143999696636,0.0,0.0,0.0,0.0,0.0,0.0,0.0,0.0,0.0,-0.00015189656730066513,0.00020696992131733814,-0.016812831827983446,0.0,0.0,0.0,0.0,0.0,0.0,0.0,0.0,0.0,-0.042892326044358844,-0.0026312715216782433,0.0008467377138835876,0.0,0.0,0.0,0.0,0.0,0.0,0.0,0.0,0.0
7.209,198,7,209000000,base_footprint,-0.002764226124647797,0.002684230964594898,0.7160410357951218,0.6980475549813994,0.0,0.0,0.0,0.0,0.0,0.0,0.0,0.0,0.0,-2.410710188934259e-05,4.8148756987765725e-05,0.0035710858576452004,0.0,0.0,0.0,0.0,0.0,0.0,0.0,0.0,0.0,-0.15060719602792316,-0.0005451805631287165,0.0005074184679585334,0.0,0.0,0.0,0.0,0.0,0.0,0.0,0.0,0.0
7.244,199,7,243000000,base_footprint,-0.0027746021554507167,0.002693075570905739,0.7158972180746788,0.698194974258469,0.0,0.0,0.0,0.0,0.0,0.0,0.0,0.0,0.0,0.00011127236169137898,0.0007437711604707533,-0.019013078511191335,0.0,0.0,0.0,0.0,0.0,0.0,0.0,0.0,0.0,-0.18800482191478626,-0.008164718172427685,7.550389540394672e-06,0.0,0.0,0.0,0.0,0.0,0.0,0.0,0.0,0.0
7.277,200,7,277000000,base_footprint,-0.0027711274186971906,0.0026922367515466662,0.7156640941288862,0.6984339461171571,0.0,0.0,0.0,0.0,0.0,0.0,0.0,0.0,0.0,-0.00010675791479316416,0.00019722619122158335,-0.019908618212436724,0.0,0.0,0.0,0.0,0.0,0.0,0.0,0.0,0.0,-0.007753186428018234,0.004457001356635281,-0.000350592079679703,0.0,0.0,0.0,0.0,0.0,0.0,0.0,0.0,0.0
7.311,201,7,311000000,base_footprint,-0.0027680647452453994,0.00269213771575486,0.7154102277556331,0.6986939932722469,0.0,0.0,0.0,0.0,0.0,0.0,0.0,0.0,0.0,-8.528111252951867e-05,8.100987051763417e-05,-0.02342262425869675,0.0,0.0,0.0,0.0,0.0,0.0,0.0,0.0,0.0,-0.0069537606557359384,0.004233065860634443,-0.00021497047534260435,0.0,0.0,0.0,0.0,0.0,0.0,0.0,0.0,0.0
7.345,202,7,345000000,base_footprint,-0.0027663190674859445,0.0026931243785960545,0.715129876961712,0.6989809393943622,0.0,0.0,0.0,0.0,0.0,0.0,0.0,0.0,0.0,-6.556422989950954e-05,-3.429793071189604e-06,-0.023827354566193983,0.0,0.0,0.0,0.0,0.0,0.0,0.0,0.0,0.0,-0.00605960829349361,0.005061336097359239,-0.00020554583299772577,0.0,0.0,0.0,0.0,0.0,0.0,0.0,0.0,0.0
7.379,203,7,379000000,base_footprint,-0.0027658897122083814,0.0026950403460741577,0.714844151816294,0.6992731406436804,0.0,0.0,0.0,0.0,0.0,0.0,0.0,0.0,0.0,-4.8321243153167116e-05,-9.109405305399912e-05,-0.024268303617565837,0.0,0.0,0.0,0.0,0.0,0.0,0.0,0.0,0.0,-0.006090148332520529,0.005129766171307411,-0.0002228304759490331,0.0,0.0,0.0,0.0,0.0,0.0,0.0,0.0,0.0
7.413,204,7,413000000,base_footprint,-0.0027670151910944877,0.0026977594082049855,0.7146010972434297,0.6995215061308652,0.0,0.0,0.0,0.0,0.0,0.0,0.0,0.0,0.0,-6.137948768178493e-05,-9.006477227413101e-05,-0.016106593315258877,0.0,0.0,0.0,0.0,0.0,0.0,0.0,0.0,0.0,-0.0035581846162742324,0.004867676033190435,-0.00018625061436897627,0.0,0.0,0.0,0.0,0.0,0.0,0.0,0.0,0.0
7.447,205,7,447000000,base_footprint,-0.002769965679192047,0.0027016406211750857,0.7144065252502135,0.6997201905819255,0.0,0.0,0.0,0.0,0.0,0.0,0.0,0.0,0.0,-1.1625967652301587e-05,-0.00027615008084964357,-0.0165512784131115,0.0,0.0,0.0,0.0,0.0,0.0,0.0,0.0,0.0,-0.0053442123563556465,0.003331577045625753,-0.0004251643639157056,0.0,0.0,0.0,0.0,0.0,0.0,0.0,0.0,0.0
7.481,206,7,481000000,base_footprint,-0.0027716311746263413,0.0027050991171827465,0.7142096586214477,0.6999211127200216,0.0,0.0,0.0,0.0,0.0,0.0,0.0,0.0,0.0,-3.7462147935448974e-05,-0.00017911170874768318,-0.016564332891258,0.0,0.0,0.0,0.0,0.0,0.0,0.0,0.0,0.0,-0.0026688856336534216,0.004566072283223331,-5.195475382166717e-05,0.0,0.0,0.0,0.0,0.0,0.0,0.0,0.0,0.0
7.515,207,7,515000000,base_footprint,-0.0027722889442079544,0.0027085199309266326,0.7139569333443246,0.7001788883302332,0.0,0.0,0.0,0.0,0.0,0.0,0.0,0.0,0.0,0.00015309929982641702,-0.0002625054386617711,-0.025058667952704488,0.0,0.0,0.0,0.0,0.0,0.0,0.0,0.0,0.0,0.0008018978980116182,0.004600508583794883,-0.00013545579195676512,0.0,0.0,0.0,0.0,0.0,0.0,0.0,0.0,0.0
7.549,208,7,549000000,base_footprint,-0.0027700104448241487,0.0027101271402985324,0.7136661568695518,0.7004752663671026,0.0,0.0,0.0,0.0,0.0,0.0,0.0,0.0,0.0,-0.00013140060616594174,0.00013064356846354157,-0.023597123016917826,0.0,0.0,0.0,0.0,0.0,0.0,0.0,0.0,0.0,0.007551244586030483,0.009438702098859395,0.0007495179593279204,0.0,0.0,0.0,0.0,0.0,0.0,0.0,0.0,0.0
7.583,209,7,583000000,base_footprint,-0.002763938464566972,0.0027088008838361812,0.7134297563450444,0.7007160664658594,0.0,0.0,0.0,0.0,0.0,0.0,0.0,0.0,0.0,4.714707395815434e-05,0.00013423357257936528,-0.013466944072202561,0.0,0.0,0.0,0.0,0.0,0.0,0.0,0.0,0.0,0.03036007525372602,0.015974439993097483,-0.00031012187172214695,0.0,0.0,0.0,0.0,0.0,0.0,0.0,0.0,0.0
7.617,210,7,617000000,base_footprint,-0.002765868629927369,0.00271113833177457,0.7133656071354115,0.7007813569552158,0.0,0.0,0.0,0.0,0.0,0.0,0.0,0.0,0.0,-0.00044428254240283147,-0.0005832756080298425,0.0007676104308146287,0.0,0.0,0.0,0.0,0.0,0.0,0.0,0.0,0.0,0.03117636121454922,-0.014206201224511144,-0.000665813104769165,0.0,0.0,0.0,0.0,0.0,0.0,0.0,0.0,0.0
7.651,211,7,651000000,base_footprint,-0.00276913183230615,0.00270974746760624,0.7132490593939713,0.7008999703603735,0.0,0.0,0.0,0.0,0.0,0.0,0.0,0.0,0.0,-7.206878208124777e-05,0.00037610262833845463,-0.011795630970381062,0.0,0.0,0.0,0.0,0.0,0.0,0.0,0.0,0.0,-0.028212009567142433,-0.00013289081980990929,0.00120061343634988,0.0,0.0,0.0,0.0,0.0,0.0,0.0,0.0,0.0
7.6850000000000005,212,7,685000000,base_footprint,-0.0027660507967071655,0.0027074891985621723,0.7131051701550221,0.7010463856004158,0.0,0.0,0.0,0.0,0.0,0.0,0.0,0.0,0.0,-1.5827618022824048e-05,0.00011872201712100242,-0.012038093568475725,0.0,0.0,0.0,0.0,0.0,0.0,0.0,0.0,0.0,-0.0013326489935861347,0.004691310089674253,-0.00043108493937894343,0.0,0.0,0.0,0.0,0.0,0.0,0.0,0.0,0.0
7.719,213,7,719000000,base_footprint,-0.002763685177809297,0.0027050292866027405,0.7129638357448703,0.7011901409608938,0.0,0.0,0.0,0.0,0.0,0.0,0.0,0.0,0.0,-8.349956857030199e-05,0.00035250357806864633,-0.01200115347696367,0.0,0.0,0.0,0.0,0.0,0.0,0.0,0.0,0.0,-0.005060455496241508,0.002634448192100408,0.0006600614096493127,0.0,0.0,0.0,0.0,0.0,0.0,0.0,0.0,0.0
7.753,214,7,753000000,base_footprint,-0.0027595268261287535,0.002703341831201091,0.7127919213973931,0.7013649219523688,0.0,0.0,0.0,0.0,0.0,0.0,0.0,0.0,0.0,-9.315830091560505e-05,0.00022195655834659884,-0.01568854350224985,0.0,0.0,0.0,0.0,0.0,0.0,0.0,0.0,0.0,-0.006575529186614776,0.002813117252929013,-0.00019660211912324614,0.0,0.0,0.0,0.0,0.0,0.0,0.0,0.0,0.0
7.787,215,7,787000000,base_footprint,-0.0027570279526916964,0.0027030450487204585,0.7126024733596346,0.7015574155449175,0.0,0.0,0.0,0.0,0.0,0.0,0.0,0.0,0.0,-7.372692101692872e-05,0.0001259448938430552,-0.016116273087950366,0.0,0.0,0.0,0.0,0.0,0.0,0.0,0.0,0.0,-0.005978174794283192,0.0032834314001150985,-0.00020890206648844966,0.0,0.0,0.0,0.0,0.0,0.0,0.0,0.0,0.0
7.821,216,7,821000000,base_footprint,-0.0027551399006569724,0.0027042181554316823,0.7122461636915357,0.7019191539735797,0.0,0.0,0.0,0.0,0.0,0.0,0.0,0.0,0.0,-3.459730417908666e-05,-1.311604990073082e-06,-0.047244788515294144,0.0,0.0,0.0,0.0,0.0,0.0,0.0,0.0,0.0,0.29803176322145203,0.015185085412295823,-2.153918572564764e-05,0.0,0.0,0.0,0.0,0.0,0.0,0.0,0.0,0.0
7.855,217,7,855000000,base_footprint,-0.00275479852374286,0.0027062989180073535,0.7119187032057054,0.702251270598471,0.0,0.0,0.0,0.0,0.0,0.0,0.0,0.0,0.0,-3.595493754145859e-05,-9.909076348522527e-05,-0.020458157777866977,0.0,0.0,0.0,0.0,0.0,0.0,0.0,0.0,0.0,0.029970040996464494,0.006615058658675309,-0.00048236654736709026,0.0,0.0,0.0,0.0,0.0,0.0,0.0,0.0,0.0
7.889,218,7,889000000,base_footprint,-0.0027560802829241227,0.0027090603010264426,0.7116720244935768,0.7025012416835813,0.0,0.0,0.0,0.0,0.0,0.0,0.0,0.0,0.0,-2.384931836412969e-05,-0.00016024096405437273,-0.020852187716445016,0.0,0.0,0.0,0.0,0.0,0.0,0.0,0.0,0.0,-0.005582984712216579,0.0044808955247279845,-0.00019832028333432756,0.0,0.0,0.0,0.0,0.0,0.0,0.0,0.0,0.0
7.923,219,7,923000000,base_footprint,-0.0027589638143896466,0.0027125621853451003,0.711494460146982,0.7026810537542736,0.0,0.0,0.0,0.0,0.0,0.0,0.0,0.0,0.0,-4.081697377327127e-06,-0.00023031811506390835,-0.013177099920808226,0.0,0.0,0.0,0.0,0.0,0.0,0.0,0.0,0.0,-0.002814916241405809,0.003269779232061276,-0.00031832817390170076,0.0,0.0,0.0,0.0,0.0,0.0,0.0,0.0,0.0
7.957,220,7,957000000,base_footprint,-0.0027607368426821894,0.0027158302991709777,0.7113377707308669,0.7028396534982303,0.0,0.0,0.0,0.0,0.0,0.0,0.0,0.0,0.0,-3.35839241609342e-05,-0.00013737331103845968,-0.013061306691102113,0.0,0.0,0.0,0.0,0.0,0.0,0.0,0.0,0.0,-0.002634809563541502,0.0037031413244098697,-5.037423894479438e-05,0.0,0.0,0.0,0.0,0.0,0.0,0.0,0.0,0.0
7.991,221,7,991000000,base_footprint,-0.00276183378988825,0.0027188330147573437,0.7111849080649295,0.7029943148858552,0.0,0.0,0.0,0.0,0.0,0.0,0.0,0.0,0.0,-4.479222236304185e-05,-0.00013135058773586786,-0.012470744673715058,0.0,0.0,0.0,0.0,0.0,0.0,0.0,0.0,0.0,0.0029043904723061223,0.0027522861113004763,-3.3831619359405283e-05,0.0,0.0,0.0,0.0,0.0,0.0,0.0,0.0,0.0
8.025,222,8,25000000,base_footprint,-0.002754573104886939,0.002709408055382912,0.7111529926048936,0.7030266655996082,0.0,0.0,0.0,0.0,0.0,0.0,0.0,0.0,0.0,-0.00031998859370708176,0.00028455037180194714,0.008534556876685757,0.0,0.0,0.0,0.0,0.0,0.0,0.0,0.0,0.0,-0.20387276119550718,-0.0016740745044435956,0.0007447939798458397,0.0,0.0,0.0,0.0,0.0,0.0,0.0,0.0,0.0
8.059,223,8,59000000,base_footprint,-0.002752555148489815,0.002711120010278798,0.7113361335822795,0.7028413607128267,0.0,0.0,0.0,0.0,0.0,0.0,0.0,0.0,0.0,-0.0003329083036779717,0.0003463108093552386,0.02479279739289686,0.0,0.0,0.0,0.0,0.0,0.0,0.0,0.0,0.0,-0.03559189849968775,0.010089564460659697,-0.00010753461828795017,0.0,0.0,0.0,0.0,0.0,0.0,0.0,0.0,0.0
8.093,224,8,93000000,base_footprint,-0.0027497339029347416,0.0027108206595886494,0.7116015549529011,0.7025726420829579,0.0,0.0,0.0,0.0,0.0,0.0,0.0,0.0,0.0,-0.0008940337432892943,0.00040175658531161083,0.008697344634708169,0.0,0.0,0.0,0.0,0.0,0.0,0.0,0.0,0.0,0.05257728875361664,-0.029858547912901406,-0.00032550823507728567,0.0,0.0,0.0,0.0,0.0,0.0,0.0,0.0,0.0
8.127,225,8,127000000,base_footprint,-0.0027610102423213266,0.0027143084492326835,0.711819611021697,0.702351657445901,0.0,0.0,0.0,0.0,0.0,0.0,0.0,0.0,0.0,-0.0008176357796107532,0.000581480536539424,0.027470717432979633,0.0,0.0,0.0,0.0,0.0,0.0,0.0,0.0,0.0,0.3482695624217783,0.013150356439499078,0.0016843081187023626,0.0,0.0,0.0,0.0,0.0,0.0,0.0,0.0,0.0
8.161,226,8,161000000,base_footprint,-0.002761015696853668,0.0027135601503402128,0.7118707247762457,0.7022998537591867,0.0,0.0,0.0,0.0,0.0,0.0,0.0,0.0,0.0,-0.00035084391246878357,-0.0006296231088110338,-0.013674022535544676,0.0,0.0,0.0,0.0,0.0,0.0,0.0,0.0,0.0,0.21658835845094893,0.007111339104834899,-0.0024201700602123613,0.0,0.0,0.0,0.0,0.0,0.0,0.0,0.0,0.0
8.195,227,8,195000000,base_footprint,-0.002759044518531722,0.002712122083868599,0.7116978268579389,0.7024750780724069,0.0,0.0,0.0,0.0,0.0,0.0,0.0,0.0,0.0,0.00015532593649378104,0.00020419457087740973,-0.01441875856016162,0.0,0.0,0.0,0.0,0.0,0.0,0.0,0.0,0.0,-0.003181732822418415,0.001298694194626857,0.0012482624544663424,0.0,0.0,0.0,0.0,0.0,0.0,0.0,0.0,0.0
8.228,228,8,229000000,base_footprint,-0.0027463927451625864,0.002703110383943943,0.7116835236845229,0.7024896530463085,0.0,0.0,0.0,0.0,0.0,0.0,0.0,0.0,0.0,-0.0016672190391333426,-0.0019950364633900025,0.004977910599063601,0.0,0.0,0.0,0.0,0.0,0.0,0.0,0.0,0.0,-0.5661729798281088,-0.014052313489503532,-0.0032130094349865756,0.0,0.0,0.0,0.0,0.0,0.0,0.0,0.0,0.0
8.263,229,8,263000000,base_footprint,-0.0027528809267562816,0.0027082058404870584,0.7114805091929853,0.7026952200678607,0.0,0.0,0.0,0.0,0.0,0.0,0.0,0.0,0.0,-7.274645126133868e-05,0.00025485384798607343,-0.02152236438351509,0.0,0.0,0.0,0.0,0.0,0.0,0.0,0.0,0.0,-0.12801780119131373,6.128082474105012e-07,0.003576388733752582,0.0,0.0,0.0,0.0,0.0,0.0,0.0,0.0,0.0
8.297,230,8,297000000,base_footprint,-0.002751087362856956,0.0027086058760215294,0.7112209226883431,0.7029579604093493,0.0,0.0,0.0,0.0,0.0,0.0,0.0,0.0,0.0,-5.174249343187245e-05,3.373720323989142e-05,-0.0219792442621353,0.0,0.0,0.0,0.0,0.0,0.0,0.0,0.0,0.0,-0.0059867927184243785,0.004391019712085431,-0.0003779322334097802,0.0,0.0,0.0,0.0,0.0,0.0,0.0,0.0,0.0
8.331,231,8,331000000,base_footprint,-0.0027531549789792742,0.002713014313153509,0.710956191637819,0.7032256773346999,0.0,0.0,0.0,0.0,0.0,0.0,0.0,0.0,0.0,-0.0003739475796564059,-0.00422613880606708,-0.021657492217997218,0.0,0.0,0.0,0.0,0.0,0.0,0.0,0.0,0.0,0.054005902760437215,0.003838760461553417,-0.003125886926722326,0.0,0.0,0.0,0.0,0.0,0.0,0.0,0.0,0.0
8.365,232,8,365000000,base_footprint,-0.002750098320542472,0.002714903956839978,0.7103822233827348,0.7038054865923786,0.0,0.0,0.0,0.0,0.0,0.0,0.0,0.0,0.0,0.00024805244186917104,-0.0006606104082740008,-0.030223163680871457,0.0,0.0,0.0,0.0,0.0,0.0,0.0,0.0,0.0,0.25101159843826165,0.014798708942667813,0.0015902009887177628,0.0,0.0,0.0,0.0,0.0,0.0,0.0,0.0,0.0
8.399000000000001,233,8,399000000,base_footprint,-0.0027528446862800527,0.0027185182129725836,0.7101376670364951,0.7040522177799194,0.0,0.0,0.0,0.0,0.0,0.0,0.0,0.0,0.0,-0.0009171247544640026,0.00022066793706483948,-0.020740693180629384,0.0,0.0,0.0,0.0,0.0,0.0,0.0,0.0,0.0,0.08768584072568938,0.004469278155649341,0.004167056852487278,0.0,0.0,0.0,0.0,0.0,0.0,0.0,0.0,0.0
8.433,234,8,433000000,base_footprint,-0.0027528826539667994,0.0027224515762355687,0.709633614563842,0.7045602479387871,0.0,0.0,0.0,0.0,0.0,0.0,0.0,0.0,0.0,0.0016662369200172308,0.00014575262313643337,-0.022822605115296234,0.0,0.0,0.0,0.0,0.0,0.0,0.0,0.0,0.0,0.2542962329654154,0.017205148397141115,-0.003797505722517434,0.0,0.0,0.0,0.0,0.0,0.0,0.0,0.0,0.0
8.467,235,8,467000000,base_footprint,-0.002754785982780486,0.002724127567204359,0.7094335464100392,0.7047616856152592,0.0,0.0,0.0,0.0,0.0,0.0,0.0,0.0,0.0,-3.51514742712957e-05,-0.00017472265324489582,-0.017004804293735833,0.0,0.0,0.0,0.0,0.0,0.0,0.0,0.0,0.0,0.01533263341069736,0.004080520938679606,9.410117031345785e-05,0.0,0.0,0.0,0.0,0.0,0.0,0.0,0.0,0.0
8.501,236,8,501000000,base_footprint,-0.0027562873165914727,0.0027269094845921572,0.7092438044665393,0.7049526173231224,0.0,0.0,0.0,0.0,0.0,0.0,0.0,0.0,0.0,0.00030219483158633656,0.0014628705269581425,-0.009116836086569997,0.0,0.0,0.0,0.0,0.0,0.0,0.0,0.0,0.0,-0.0377414545456246,0.0013564308900171733,0.006207472795672327,0.0,0.0,0.0,0.0,0.0,0.0,0.0,0.0,0.0
8.535,237,8,535000000,base_footprint,-0.0027492518433325686,0.002719043168098994,0.7093781011873612,0.7048175352347343,0.0,0.0,0.0,0.0,0.0,0.0,0.0,0.0,0.0,0.0002611995938071661,0.00022164958324992067,0.02006839311794894,0.0,0.0,0.0,0.0,0.0,0.0,0.0,0.0,0.0,-0.16553304748963393,-0.003648832037547761,-0.0057410881738579,0.0,0.0,0.0,0.0,0.0,0.0,0.0,0.0,0.0
8.569,238,8,569000000,base_footprint,-0.002747900251964746,0.00271659043339515,0.7096295354892065,0.7045643984349448,0.0,0.0,0.0,0.0,0.0,0.0,0.0,0.0,0.0,0.0003689164784142824,-0.0006484176916588887,0.022566914440758166,0.0,0.0,0.0,0.0,0.0,0.0,0.0,0.0,0.0,0.020447836202723974,-0.004796717611746576,-0.0021097516529482306,0.0,0.0,0.0,0.0,0.0,0.0,0.0,0.0,0.0
8.603,239,8,603000000,base_footprint,-0.0027567782946488384,0.002727658204000654,0.7097956323450737,0.704396990594092,0.0,0.0,0.0,0.0,0.0,0.0,0.0,0.0,0.0,0.003141217009773882,0.002626158174527973,0.006253893961583207,0.0,0.0,0.0,0.0,0.0,0.0,0.0,0.0,0.0,0.01255738178721386,-0.009405430364745367,0.004376642936133433,0.0,0.0,0.0,0.0,0.0,0.0,0.0,0.0,0.0
8.637,240,8,637000000,base_footprint,-0.0027515826904311517,0.0027218313111896145,0.70954540445378,0.7046490895797233,0.0,0.0,0.0,0.0,0.0,0.0,0.0,0.0,0.0,-0.0034594041879195117,0.0017788279226699842,-0.01461483558335137,0.0,0.0,0.0,0.0,0.0,0.0,0.0,0.0,0.0,0.22181674278367602,0.012206391423296908,0.000573430026752374,0.0,0.0,0.0,0.0,0.0,0.0,0.0,0.0,0.0
8.671,241,8,671000000,base_footprint,-0.0027509868262398656,0.00272284432224792,0.7093592354053231,0.704836501137288,0.0,0.0,0.0,0.0,0.0,0.0,0.0,0.0,0.0,2.8163091464804116e-05,4.9728537430683177e-05,-0.016826494455842417,0.0,0.0,0.0,0.0,0.0,0.0,0.0,0.0,0.0,-0.011935558469803426,0.004938731766139438,-0.0028279431728621884,0.0,0.0,0.0,0.0,0.0,0.0,0.0,0.0,0.0
8.705,242,8,705000000,base_footprint,-0.002737232341012252,0.002710739100756061,0.7091655137949443,0.705031512413872,0.0,0.0,0.0,0.0,0.0,0.0,0.0,0.0,0.0,-0.00010645423065887104,-0.000940403032513104,-0.012303759094489712,0.0,0.0,0.0,0.0,0.0,0.0,0.0,0.0,0.0,-0.1485401123336157,0.004475475155289774,2.7074880812330982e-05,0.0,0.0,0.0,0.0,0.0,0.0,0.0,0.0,0.0
8.739,243,8,739000000,base_footprint,-0.002745525553680588,0.0027197378730420088,0.709100554933666,0.7050967792495603,0.0,0.0,0.0,0.0,0.0,0.0,0.0,0.0,0.0,0.0005319215377710409,-0.0028122484930627723,-0.00761210233394481,0.0,0.0,0.0,0.0,0.0,0.0,0.0,0.0,0.0,-0.5435899643810105,-0.010459668851691584,-0.003953329697753901,0.0,0.0,0.0,0.0,0.0,0.0,0.0,0.0,0.0
8.773,244,8,773000000,base_footprint,-0.0027428936976118088,0.002717461895996392,0.7090033119795124,0.7051945799118776,0.0,0.0,0.0,0.0,0.0,0.0,0.0,0.0,0.0,-5.114867992391297e-05,0.00022395151437923518,-0.008267100965010828,0.0,0.0,0.0,0.0,0.0,0.0,0.0,0.0,0.0,-0.0029940917584180657,0.0038604129145723845,0.004339407147950275,0.0,0.0,0.0,0.0,0.0,0.0,0.0,0.0,0.0
8.807,245,8,807000000,base_footprint,-0.0027449943005936756,0.0027205532472688683,0.708865614528884,0.7053329739455728,0.0,0.0,0.0,0.0,0.0,0.0,0.0,0.0,0.0,-0.00012202831276304912,0.0018918475515283756,-0.04048765420280198,0.0,0.0,0.0,0.0,0.0,0.0,0.0,0.0,0.0,0.24763364793885134,0.005559147213471158,0.0017982350659574541,0.0,0.0,0.0,0.0,0.0,0.0,0.0,0.0,0.0
8.841,246,8,841000000,base_footprint,-0.0027425567894756153,0.0027202754178546167,0.7084148991778211,0.7057856679664054,0.0,0.0,0.0,0.0,0.0,0.0,0.0,0.0,0.0,-0.00023433349057471636,0.0010254734690087303,-0.009663926049885172,0.0,0.0,0.0,0.0,0.0,0.0,0.0,0.0,0.0,0.08327107719010995,0.010401433936266684,-0.000905057058819825,0.0,0.0,0.0,0.0,0.0,0.0,0.0,0.0,0.0
8.875,247,8,875000000,base_footprint,-0.0027432223851353976,0.002721579162796522,0.7082873425019287,0.7059136690767236,0.0,0.0,0.0,0.0,0.0,0.0,0.0,0.0,0.0,9.861485998281487e-07,-6.849985287166711e-05,-0.01097626357251823,0.0,0.0,0.0,0.0,0.0,0.0,0.0,0.0,0.0,-0.0075853980858893374,0.0001661404358087146,-0.0015559908881079684,0.0,0.0,0.0,0.0,0.0,0.0,0.0,0.0,0.0
8.909,248,8,909000000,base_footprint,-0.002740587064671199,0.0027221581573215257,0.7081443539381955,0.7060571173941689,0.0,0.0,0.0,0.0,0.0,0.0,0.0,0.0,0.0,-0.00016540124987584573,-0.0008393146346998667,-0.014542811071079246,0.0,0.0,0.0,0.0,0.0,0.0,0.0,0.0,0.0,0.2870592437026889,0.0040750092173295616,-0.00029643511005144816,0.0,0.0,0.0,0.0,0.0,0.0,0.0,0.0,0.0
8.943,249,8,943000000,base_footprint,-0.0027496508239567433,0.00272858828555054,0.7079054893816981,0.7062965470180164,0.0,0.0,0.0,0.0,0.0,0.0,0.0,0.0,0.0,-0.00034772381772159864,0.00047568493528146483,-0.008885534402146945,0.0,0.0,0.0,0.0,0.0,0.0,0.0,0.0,0.0,0.391707093281252,0.007226443287136286,0.0007764314498689032,0.0,0.0,0.0,0.0,0.0,0.0,0.0,0.0,0.0
8.977,250,8,977000000,base_footprint,-0.0027488831551656964,0.0027303149696503437,0.7077855729474516,0.7064167125351818,0.0,0.0,0.0,0.0,0.0,0.0,0.0,0.0,0.0,-4.309715803644766e-05,-8.207990310695696e-05,-0.00945299597009933,0.0,0.0,0.0,0.0,0.0,0.0,0.0,0.0,0.0,-0.003501971617494615,0.0015774753713039555,-0.0008484047000005298,0.0,0.0,0.0,0.0,0.0,0.0,0.0,0.0,0.0
9.011,251,9,11000000,base_footprint,-0.0027488936339053645,0.002732491281199409,0.7076799711246707,0.7065224947191511,0.0,0.0,0.0,0.0,0.0,0.0,0.0,0.0,0.0,-8.515269940486725e-05,5.019414299272327e-05,-0.008110186879497688,0.0,0.0,0.0,0.0,0.0,0.0,0.0,0.0,0.0,0.005409777164642989,0.0030396434312582148,0.00021770744833137006,0.0,0.0,0.0,0.0,0.0,0.0,0.0,0.0,0.0
9.045,252,9,45000000,base_footprint,-0.002744136279700416,0.0027144724346714767,0.7075660601646642,0.7066366618415257,0.0,0.0,0.0,0.0,0.0,0.0,0.0,0.0,0.0,0.0011542014235054639,-0.00035440785521094476,-0.014689800197001897,0.0,0.0,0.0,0.0,0.0,0.0,0.0,0.0,0.0,0.09836286487258386,0.002107533740699462,-0.0016577551198249745,0.0,0.0,0.0,0.0,0.0,0.0,0.0,0.0,0.0
9.079,253,9,79000000,base_footprint,-0.0027495058710199694,0.002736525875180826,0.7073491242873199,0.7068537104759098,0.0,0.0,0.0,0.0,0.0,0.0,0.0,0.0,0.0,-0.0012210436156347916,0.00040475950315501524,-0.01466180894450036,0.0,0.0,0.0,0.0,0.0,0.0,0.0,0.0,0.0,0.11004772643069513,0.014558341494878245,0.0028885329097775646,0.0,0.0,0.0,0.0,0.0,0.0,0.0,0.0,0.0
9.113,254,9,113000000,base_footprint,-0.002745073022636518,0.0027285041336552527,0.7074174045353044,0.7067854240148325,0.0,0.0,0.0,0.0,0.0,0.0,0.0,0.0,0.0,-0.0006436735278624365,-0.0014884121959621095,0.015662732083827458,0.0,0.0,0.0,0.0,0.0,0.0,0.0,0.0,0.0,0.17068702722893472,-0.018163806673617736,-0.003206070114246059,0.0,0.0,0.0,0.0,0.0,0.0,0.0,0.0,0.0
9.147,255,9,147000000,base_footprint,-0.0027466543627429948,0.0027290247068001462,0.7077026172456892,0.7064998328786518,0.0,0.0,0.0,0.0,0.0,0.0,0.0,0.0,0.0,3.932839922838642e-05,0.000450603002134893,0.03180520543616133,0.0,0.0,0.0,0.0,0.0,0.0,0.0,0.0,0.0,0.3107950209711648,0.0022847474617227193,0.0022717405175149345,0.0,0.0,0.0,0.0,0.0,0.0,0.0,0.0,0.0
9.181,256,9,181000000,base_footprint,-0.0027489674954893936,0.0027282731181480077,0.7081921182820083,0.7060091524242045,0.0,0.0,0.0,0.0,0.0,0.0,0.0,0.0,0.0,4.5416415103049183e-05,0.0005131622541824234,0.04954389126672239,0.0,0.0,0.0,0.0,0.0,0.0,0.0,0.0,0.0,0.4376036873212339,-0.004539971933286091,2.262277149711546e-05,0.0,0.0,0.0,0.0,0.0,0.0,0.0,0.0,0.0
9.215,257,9,215000000,base_footprint,-0.0027355694889973073,0.0027125728630494825,0.7087077451246986,0.7054916658673572,0.0,0.0,0.0,0.0,0.0,0.0,0.0,0.0,0.0,-4.9880657630222465e-05,-9.081798709177776e-05,0.013537282367624665,0.0,0.0,0.0,0.0,0.0,0.0,0.0,0.0,0.0,0.02778474120128148,-0.008341032121663773,-0.00025996834740302547,0.0,0.0,0.0,0.0,0.0,0.0,0.0,0.0,0.0
9.249,258,9,249000000,base_footprint,-0.0027355438041854986,0.0027115245966879763,0.7088199125908433,0.7053789732825655,0.0,0.0,0.0,0.0,0.0,0.0,0.0,0.0,0.0,-4.1446842661626454e-05,5.910826201105095e-05,0.010813097603935982,0.0,0.0,0.0,0.0,0.0,0.0,0.0,0.0,0.0,-0.4524560063729353,-0.005142921643852161,0.00023084070240224916,0.0,0.0,0.0,0.0,0.0,0.0,0.0,0.0,0.0
9.283,259,9,283000000,base_footprint,-0.002736338066520141,0.002711079359631144,0.7089809473688936,0.7052171146325066,0.0,0.0,0.0,0.0,0.0,0.0,0.0,0.0,0.0,-2.315033801170888e-05,0.0001444660455474444,0.015319729626273778,0.0,0.0,0.0,0.0,0.0,0.0,0.0,0.0,0.0,-0.5688576099763671,-0.008296062501599089,4.7890900473773106e-05,0.0,0.0,0.0,0.0,0.0,0.0,0.0,0.0,0.0
9.317,260,9,317000000,base_footprint,-0.0027376390972514777,0.0027103552537899455,0.709181693933143,0.7050152369251955,0.0,0.0,0.0,0.0,0.0,0.0,0.0,0.0,0.0,0.00022948444333452633,0.000350690420902764,0.01793115809214113,0.0,0.0,0.0,0.0,0.0,0.0,0.0,0.0,0.0,-0.6737880297046216,-0.009263478593988572,0.00043377808626100323,0.0,0.0,0.0,0.0,0.0,0.0,0.0,0.0,0.0
9.351,261,9,351000000,base_footprint,-0.0027431446222139226,0.0027167803542532476,0.7090874976019385,0.7051099311502494,0.0,0.0,0.0,0.0,0.0,0.0,0.0,0.0,0.0,-4.608328042040956e-05,0.00017943156876485314,-0.012114418181921272,0.0,0.0,0.0,0.0,0.0,0.0,0.0,0.0,0.0,-0.12656945490741564,-0.0007971614734767346,2.820599431389479e-05,0.0,0.0,0.0,0.0,0.0,0.0,0.0,0.0,0.0
9.385,262,9,385000000,base_footprint,-0.0027428585646412504,0.0027171996002531467,0.7089402792611189,0.7052579485510204,0.0,0.0,0.0,0.0,0.0,0.0,0.0,0.0,0.0,-2.6696312717294337e-05,5.794259483153957e-05,-0.01251063943285532,0.0,0.0,0.0,0.0,0.0,0.0,0.0,0.0,0.0,-0.005629109938673066,0.0022407222338553193,-0.00024466386712605737,0.0,0.0,0.0,0.0,0.0,0.0,0.0,0.0,0.0
9.419,263,9,419000000,base_footprint,-0.0027443327714181936,0.0027185590422512565,0.7088172852223795,0.7053815522427201,0.0,0.0,0.0,0.0,0.0,0.0,0.0,0.0,0.0,-8.18928571505353e-05,0.0011126046129231674,-0.004026935076902699,0.0,0.0,0.0,0.0,0.0,0.0,0.0,0.0,0.0,0.3451865457466998,0.008681674618596619,0.0013332842785943198,0.0,0.0,0.0,0.0,0.0,0.0,0.0,0.0,0.0
9.453,264,9,453000000,base_footprint,-0.0027461385733759175,0.002719986715258892,0.7087589304665086,0.7054401738483397,0.0,0.0,0.0,0.0,0.0,0.0,0.0,0.0,0.0,1.2206758642026539e-05,-4.993588173076162e-05,-0.005328098600497183,0.0,0.0,0.0,0.0,0.0,0.0,0.0,0.0,0.0,-0.012848934346139294,-0.0019861065856650326,-0.001728084048238224,0.0,0.0,0.0,0.0,0.0,0.0,0.0,0.0,0.0
9.487,265,9,487000000,base_footprint,-0.002749380988265329,0.0027227629724442255,0.7086949456593259,0.705504430505509,0.0,0.0,0.0,0.0,0.0,0.0,0.0,0.0,0.0,3.8628306660404085e-05,-8.463170297504041e-05,-0.005290458734215662,0.0,0.0,0.0,0.0,0.0,0.0,0.0,0.0,0.0,-0.004066440876253134,0.0013754137259515463,-0.00023045414288343393,0.0,0.0,0.0,0.0,0.0,0.0,0.0,0.0,0.0
9.521,266,9,521000000,base_footprint,-0.002745443368103486,0.0027200620592742384,0.708783418513797,0.7054155721580024,0.0,0.0,0.0,0.0,0.0,0.0,0.0,0.0,0.0,-3.328580391046281e-05,-0.0001513756550593264,0.017532602189542702,0.0,0.0,0.0,0.0,0.0,0.0,0.0,0.0,0.0,-0.40488500064509353,-0.00958126384436811,-0.0001226941822400191,0.0,0.0,0.0,0.0,0.0,0.0,0.0,0.0,0.0
9.555,267,9,555000000,base_footprint,-0.0027463298610007044,0.0027249266637017384,0.7087141949545778,0.7054850971614189,0.0,0.0,0.0,0.0,0.0,0.0,0.0,0.0,0.0,-0.00022761111532101612,-0.0003109155141564293,-0.0384046953120979,0.0,0.0,0.0,0.0,0.0,0.0,0.0,0.0,0.0,-0.26411468440388075,0.0024108426260192883,0.00037445344700550885,0.0,0.0,0.0,0.0,0.0,0.0,0.0,0.0,0.0
9.589,268,9,589000000,base_footprint,-0.002750277429524989,0.0027315611296598744,0.7081579196089067,0.7060434373627736,0.0,0.0,0.0,0.0,0.0,0.0,0.0,0.0,0.0,-0.00012164964092115488,-3.4861857308480626e-05,-0.042047302857815966,0.0,0.0,0.0,0.0,0.0,0.0,0.0,0.0,0.0,-0.010993675467383586,0.015855361943034576,0.00019552957684742113,0.0,0.0,0.0,0.0,0.0,0.0,0.0,0.0,0.0
9.623,269,9,623000000,base_footprint,-0.002746733559945624,0.0027264136196751875,0.707612186831958,0.7065904154249614,0.0,0.0,0.0,0.0,0.0,0.0,0.0,0.0,0.0,-0.0035673511843892732,0.0027083076327156664,-0.044787306732215926,0.0,0.0,0.0,0.0,0.0,0.0,0.0,0.0,0.0,0.10409967956616709,0.007722966837147134,0.005667064371114285,0.0,0.0,0.0,0.0,0.0,0.0,0.0,0.0,0.0
9.657,270,9,657000000,base_footprint,-0.002740934443809798,0.002727254195009764,0.7074751044024233,0.7067276887272148,0.0,0.0,0.0,0.0,0.0,0.0,0.0,0.0,0.0,0.0009028729181928434,-7.758397432445574e-05,0.009504347529820566,0.0,0.0,0.0,0.0,0.0,0.0,0.0,0.0,0.0,0.18598078510740115,-0.011305507817059718,-0.0066305676612323766,0.0,0.0,0.0,0.0,0.0,0.0,0.0,0.0,0.0
9.691,271,9,691000000,base_footprint,-0.002745414642215105,0.0027287280345910585,0.7071748237725103,0.7070281361898371,0.0,0.0,0.0,0.0,0.0,0.0,0.0,0.0,0.0,-0.0006981958584310467,-0.0007038249996990788,-0.04613635558223937,0.0,0.0,0.0,0.0,0.0,0.0,0.0,0.0,0.0,0.09645394648826267,0.016636582566102065,-0.00044266886630185004,0.0,0.0,0.0,0.0,0.0,0.0,0.0,0.0,0.0
9.725,272,9,725000000,base_footprint,-0.0027416786786783657,0.002732520451386496,0.7069474492472435,0.7072554846254795,0.0,0.0,0.0,0.0,0.0,0.0,0.0,0.0,0.0,-0.0005644281497974289,0.0014038303500337086,-0.0017819705633918702,0.0,0.0,0.0,0.0,0.0,0.0,0.0,0.0,0.0,0.47084818977775733,0.003779175867689083,0.0031016561272033255,0.0,0.0,0.0,0.0,0.0,0.0,0.0,0.0,0.0
9.759,273,9,759000000,base_footprint,-0.0027382700247606325,0.002733679608407434,0.7061467909038808,0.7080548979911241,0.0,0.0,0.0,0.0,0.0,0.0,0.0,0.0,0.0,-0.0003418678049683989,-0.0013241619453772148,-0.09194746529311028,0.0,0.0,0.0,0.0,0.0,0.0,0.0,0.0,0.0,0.17379459314002593,0.011663064282384505,-0.002911781444594891,0.0,0.0,0.0,0.0,0.0,0.0,0.0,0.0,0.0
9.793,274,9,793000000,base_footprint,-0.002730777368745344,0.0027358422708340163,0.7050344029648392,0.709162568568057,0.0,0.0,0.0,0.0,0.0,0.0,0.0,0.0,0.0,-5.339158295254006e-05,-0.0003464104270797007,-0.09260981012642364,0.0,0.0,0.0,0.0,0.0,0.0,0.0,0.0,0.0,-0.003729076373301169,0.015899549988683617,0.0013341255196240916,0.0,0.0,0.0,0.0,0.0,0.0,0.0,0.0,0.0
9.827,275,9,827000000,base_footprint,-0.002724666121873682,0.002737724464622904,0.703962324323025,0.7102268137665632,0.0,0.0,0.0,0.0,0.0,0.0,0.0,0.0,0.0,-1.425492228119025e-05,-1.3881401198679921e-05,-0.09064437121677177,0.0,0.0,0.0,0.0,0.0,0.0,0.0,0.0,0.0,0.33710901913072233,0.009712182943474451,0.0001381730240024502,0.0,0.0,0.0,0.0,0.0,0.0,0.0,0.0,0.0
9.861,276,9,861000000,base_footprint,-0.0027199059819640477,0.0027409420419155627,0.7028744078490168,0.7113034908806972,0.0,0.0,0.0,0.0,0.0,0.0,0.0,0.0,0.0,-3.70586539181308e-05,-0.0004690892510555894,-0.09020010242105173,0.0,0.0,0.0,0.0,0.0,0.0,0.0,0.0,0.0,-0.0042896123257834835,0.01658003544683505,-0.0006217426938728752,0.0,0.0,0.0,0.0,0.0,0.0,0.0,0.0,0.0
9.895,277,9,895000000,base_footprint,-0.0027158217348630946,0.002744632989935737,0.7017812779022504,0.7123820107834976,0.0,0.0,0.0,0.0,0.0,0.0,0.0,0.0,0.0,-2.588691887446445e-05,-0.0005166493991473826,-0.09055457571449083,0.0,0.0,0.0,0.0,0.0,0.0,0.0,0.0,0.0,-0.00419422593395692,0.01592805911103537,-0.00022053642429714428,0.0,0.0,0.0,0.0,0.0,0.0,0.0,0.0,0.0
9.929,278,9,929000000,base_footprint,-0.002712484606439293,0.0027484733589165536,0.7007412702767654,0.7134050465565551,0.0,0.0,0.0,0.0,0.0,0.0,0.0,0.0,0.0,-1.2112876821579422e-05,-0.000561342335135358,-0.08308633274258381,0.0,0.0,0.0,0.0,0.0,0.0,0.0,0.0,0.0,0.34034911550329194,0.002611371695583592,-0.00022686950599309582,0.0,0.0,0.0,0.0,0.0,0.0,0.0,0.0,0.0
9.963000000000001,279,9,963000000,base_footprint,-0.0027104891459644727,0.002753038386018016,0.6997264252368492,0.7144004506252043,0.0,0.0,0.0,0.0,0.0,0.0,0.0,0.0,0.0,4.503797236272245e-06,-0.0005640405638253739,-0.08381529107969488,0.0,0.0,0.0,0.0,0.0,0.0,0.0,0.0,0.0,-0.005469241550631772,0.01428405340339694,-0.00016607751923294848,0.0,0.0,0.0,0.0,0.0,0.0,0.0,0.0,0.0
9.997,280,9,997000000,base_footprint,-0.0027098366963031247,0.0027594374711126276,0.6987068819905502,0.7153976064741662,0.0,0.0,0.0,0.0,0.0,0.0,0.0,0.0,0.0,-0.001289023827658472,-0.0035092229717654613,-0.08483395311261763,0.0,0.0,0.0,0.0,0.0,0.0,0.0,0.0,0.0,0.02396940262829786,0.010867897086532189,0.002250428691372872,0.0,0.0,0.0,0.0,0.0,0.0,0.0,0.0,0.0
10.031,281,10,31000000,base_footprint,-0.0027080393890837355,0.00276301841115055,0.6977183437238388,0.7163617417779861,0.0,0.0,0.0,0.0,0.0,0.0,0.0,0.0,0.0,0.00031979236433632343,-0.0003079666531036275,-0.07506087251123922,0.0,0.0,0.0,0.0,0.0,0.0,0.0,0.0,0.0,0.3213469650859437,-0.001003856392332525,-0.0025694034556747736,0.0,0.0,0.0,0.0,0.0,0.0,0.0,0.0,0.0
10.065,282,10,65000000,base_footprint,-0.002706206223634295,0.002768844313591085,0.6967870037376553,0.7172676497454372,0.0,0.0,0.0,0.0,0.0,0.0,0.0,0.0,0.0,3.439821657455079e-05,-0.0005946885808123251,-0.07600823873670977,0.0,0.0,0.0,0.0,0.0,0.0,0.0,0.0,0.0,-0.009676337654844169,0.011928003435725018,-0.00023520078165872578,0.0,0.0,0.0,0.0,0.0,0.0,0.0,0.0,0.0
10.099,283,10,99000000,base_footprint,-0.0027026598645804715,0.002774536380599032,0.6958644019605853,0.718162747336261,0.0,0.0,0.0,0.0,0.0,0.0,0.0,0.0,0.0,-0.00125911573233234,0.0024993142726218547,-0.08110204898988321,0.0,0.0,0.0,0.0,0.0,0.0,0.0,0.0,0.0,0.04472935615007359,0.002896665499142123,0.009082891727154152,0.0,0.0,0.0,0.0,0.0,0.0,0.0,0.0,0.0
10.133,284,10,133000000,base_footprint,-0.002702530304406443,0.0027813108061845496,0.6947853481630137,0.719206702289511,0.0,0.0,0.0,0.0,0.0,0.0,0.0,0.0,0.0,0.0012461258679258183,-0.0019363177344482077,-0.06472398572953494,0.0,0.0,0.0,0.0,0.0,0.0,0.0,0.0,0.0,0.31476831578303954,-0.004531135109243661,-0.011432034590549062,0.0,0.0,0.0,0.0,0.0,0.0,0.0,0.0,0.0
10.166,285,10,167000000,base_footprint,-0.0026982781256051093,0.0027841404540234847,0.693976175206415,0.7199875249634292,0.0,0.0,0.0,0.0,0.0,0.0,0.0,0.0,0.0,-0.00013578953568632707,-0.00039278333152676173,-0.06883918399820477,0.0,0.0,0.0,0.0,0.0,0.0,0.0,0.0,0.0,-0.014599050097404314,0.012901200803235967,0.0023528019821843,0.0,0.0,0.0,0.0,0.0,0.0,0.0,0.0,0.0
10.201,286,10,201000000,base_footprint,-0.0026939799495045535,0.002782605524932397,0.6931159004618808,0.720815751843313,0.0,0.0,0.0,0.0,0.0,0.0,0.0,0.0,0.0,0.002984767539817245,0.0035603587678668326,-0.08394384566643026,0.0,0.0,0.0,0.0,0.0,0.0,0.0,0.0,0.0,0.03125582011816501,0.008371627021758709,0.004639969507301995,0.0,0.0,0.0,0.0,0.0,0.0,0.0,0.0,0.0
10.235,287,10,235000000,base_footprint,-0.0026796430430314397,0.002792105594959351,0.6918294716229891,0.7220505563001557,0.0,0.0,0.0,0.0,0.0,0.0,0.0,0.0,0.0,-0.0009526027991267327,-0.0015928447842032236,-0.10579849726444296,0.0,0.0,0.0,0.0,0.0,0.0,0.0,0.0,0.0,0.20020020866629432,-0.0040281958618890445,-0.006106968267992494,0.0,0.0,0.0,0.0,0.0,0.0,0.0,0.0,0.0
10.269,288,10,269000000,base_footprint,-0.0026775743494199117,0.0027950809757791065,0.6908451084064855,0.7229924303260536,0.0,0.0,0.0,0.0,0.0,0.0,0.0,0.0,0.0,0.0009745659334210739,-0.001076605411097302,-0.056430090317640756,0.0,0.0,0.0,0.0,0.0,0.0,0.0,0.0,0.0,0.1664357502121223,-0.010210556044229949,-0.0001548483426122719,0.0,0.0,0.0,0.0,0.0,0.0,0.0,0.0,0.0
10.303,289,10,303000000,base_footprint,-0.0026823269905094597,0.0027908485233907984,0.6900024206690141,0.7237967088605313,0.0,0.0,0.0,0.0,0.0,0.0,0.0,0.0,0.0,-5.824326717137974e-06,-0.0001811213799281241,-0.0753457445981103,0.0,0.0,0.0,0.0,0.0,0.0,0.0,0.0,0.0,0.026474215256714284,0.008064474187411862,0.002110219855725618,0.0,0.0,0.0,0.0,0.0,0.0,0.0,0.0,0.0
10.337,290,10,337000000,base_footprint,-0.002676363785431663,0.0027979251325423145,0.6889005511999077,0.724845527852869,0.0,0.0,0.0,0.0,0.0,0.0,0.0,0.0,0.0,-6.123753526852202e-05,-0.00016841521205758687,-0.094570352414192,0.0,0.0,0.0,0.0,0.0,0.0,0.0,0.0,0.0,0.03889977344021526,0.010265599872258896,-0.00015428133242186332,0.0,0.0,0.0,0.0,0.0,0.0,0.0,0.0,0.0
10.371,291,10,371000000,base_footprint,-0.002670907619263205,0.0027977175811657244,0.6877401416179542,0.7259466486155453,0.0,0.0,0.0,0.0,0.0,0.0,0.0,0.0,0.0,-0.000987038310197546,-0.000866257813021891,-0.09047237665670038,0.0,0.0,0.0,0.0,0.0,0.0,0.0,0.0,0.0,-0.010817448771800867,0.013123194104445948,-0.002289470771399648,0.0,0.0,0.0,0.0,0.0,0.0,0.0,0.0,0.0
10.405,292,10,405000000,base_footprint,-0.0026653926635670623,0.0028078930928589533,0.6867936084809793,0.7268421773452637,0.0,0.0,0.0,0.0,0.0,0.0,0.0,0.0,0.0,0.002020495461049876,0.0061716560004205735,-0.04744102399542288,0.0,0.0,0.0,0.0,0.0,0.0,0.0,0.0,0.0,0.11730438686328629,-0.00248256231766765,0.01018795058722011,0.0,0.0,0.0,0.0,0.0,0.0,0.0,0.0,0.0
10.439,293,10,439000000,base_footprint,-0.002661398937250199,0.0028093899589723545,0.6861169218312653,0.7274809920957006,0.0,0.0,0.0,0.0,0.0,0.0,0.0,0.0,0.0,-0.0010042425038253057,-0.0010474804480812105,-0.05378942347653244,0.0,0.0,0.0,0.0,0.0,0.0,0.0,0.0,0.0,0.15548880284800046,-0.01079099661941714,-0.009497743199348006,0.0,0.0,0.0,0.0,0.0,0.0,0.0,0.0,0.0
10.473,294,10,473000000,base_footprint,-0.002657067985484045,0.002812356468168815,0.6854405177808853,0.7281183469911251,0.0,0.0,0.0,0.0,0.0,0.0,0.0,0.0,0.0,-0.00021312941863565525,-0.00018933180113295497,-0.05433239694398952,0.0,0.0,0.0,0.0,0.0,0.0,0.0,0.0,0.0,-0.0017595703525958085,0.005171806829885789,0.0012184512904678153,0.0,0.0,0.0,0.0,0.0,0.0,0.0,0.0,0.0
10.507,295,10,507000000,base_footprint,-0.002652903381008131,0.00281408617365692,0.6847596247993172,0.7287587387245225,0.0,0.0,0.0,0.0,0.0,0.0,0.0,0.0,0.0,-0.00019518995387046739,-0.00013093541823216545,-0.05716694137091198,0.0,0.0,0.0,0.0,0.0,0.0,0.0,0.0,0.0,-0.0034008170985926458,0.005924649828456449,4.297910705700362e-05,0.0,0.0,0.0,0.0,0.0,0.0,0.0,0.0,0.0
10.541,296,10,541000000,base_footprint,-0.002649216003458299,0.00281575294537704,0.6840507515387614,0.7294241718706431,0.0,0.0,0.0,0.0,0.0,0.0,0.0,0.0,0.0,-3.062134705016222e-05,-0.00016459213933205284,-0.057341740266075567,0.0,0.0,0.0,0.0,0.0,0.0,0.0,0.0,0.0,-0.0019967209514128027,0.007175633828575324,4.2222408583569976e-05,0.0,0.0,0.0,0.0,0.0,0.0,0.0,0.0,0.0
10.575,297,10,575000000,base_footprint,-0.0026457983945235735,0.0028168166690587726,0.6833378836801525,0.7300920503760049,0.0,0.0,0.0,0.0,0.0,0.0,0.0,0.0,0.0,-2.656364783929933e-05,-0.00019587001068827327,-0.05762051238520223,0.0,0.0,0.0,0.0,0.0,0.0,0.0,0.0,0.0,-0.0020046176357995963,0.006928191448314495,-0.00010002657646509926,0.0,0.0,0.0,0.0,0.0,0.0,0.0,0.0,0.0
10.609,298,10,609000000,base_footprint,-0.0026385952784569156,0.0028163323237610062,0.6822698103825708,0.7310902898601032,0.0,0.0,0.0,0.0,0.0,0.0,0.0,0.0,0.0,-0.000743242714636428,-0.0016939711306917463,-0.1505585709758248,0.0,0.0,0.0,0.0,0.0,0.0,0.0,0.0,0.0,-0.02320081717501167,0.012967271589265066,-0.0011995375729325782,0.0,0.0,0.0,0.0,0.0,0.0,0.0,0.0,0.0
10.643,299,10,643000000,base_footprint,-0.0026333650649411587,0.0028248019969541595,0.6804065639369559,0.7328246677300226,0.0,0.0,0.0,0.0,0.0,0.0,0.0,0.0,0.0,-7.52547385272744e-05,-0.0009540342119831811,-0.1498108808185415,0.0,0.0,0.0,0.0,0.0,0.0,0.0,0.0,0.0,-0.0027596143240661937,0.017602870871042724,0.0008937411278344212,0.0,0.0,0.0,0.0,0.0,0.0,0.0,0.0,0.0
10.677,300,10,677000000,base_footprint,-0.002626713402248931,0.0028310297334797185,0.6785372398553701,0.7345558520472127,0.0,0.0,0.0,0.0,0.0,0.0,0.0,0.0,0.0,-7.068723368803946e-05,-0.0009777750447044304,-0.15008039683596047,0.0,0.0,0.0,0.0,0.0,0.0,0.0,0.0,0.0,-0.0003532249461880594,0.017882617607999703,-0.00018534786818045834,0.0,0.0,0.0,0.0,0.0,0.0,0.0,0.0,0.0
10.711,301,10,711000000,base_footprint,-0.002620431255195679,0.0028374707519190985,0.6766607363820761,0.7362848157735125,0.0,0.0,0.0,0.0,0.0,0.0,0.0,0.0,0.0,-6.346148231694518e-05,-0.0009976096123760529,-0.1502440614462841,0.0,0.0,0.0,0.0,0.0,0.0,0.0,0.0,0.0,-0.00016206565650996214,0.01800313183942879,-0.0001809446742250277,0.0,0.0,0.0,0.0,0.0,0.0,0.0,0.0,0.0
10.745,302,10,745000000,base_footprint,-0.002620796112445507,0.0028456927219738873,0.6753068408656572,0.7375267480849187,0.0,0.0,0.0,0.0,0.0,0.0,0.0,0.0,0.0,-0.0001957455571221089,0.0009267587733063187,-0.02960032860831748,0.0,0.0,0.0,0.0,0.0,0.0,0.0,0.0,0.0,0.02924341573295213,0.011262583505501243,0.0014567358028280642,0.0,0.0,0.0,0.0,0.0,0.0,0.0,0.0,0.0
10.779,303,10,779000000,base_footprint,-0.0026183899473620743,0.00284497878151283,0.6749243835877569,0.7378767692294579,0.0,0.0,0.0,0.0,0.0,0.0,0.0,0.0,0.0,4.8543446921973136e-05,-0.00015644084987975686,-0.030696430956423156,0.0,0.0,0.0,0.0,0.0,0.0,0.0,0.0,0.0,-0.0006100857364862594,0.0012818853595035124,-0.0017422152928254612,0.0,0.0,0.0,0.0,0.0,0.0,0.0,0.0,0.0
10.813,304,10,813000000,base_footprint,-0.002610781892976479,0.0028477542571124113,0.6737030828631821,0.7389920366649716,0.0,0.0,0.0,0.0,0.0,0.0,0.0,0.0,0.0,-0.00017393371817740852,-0.0018321899240538399,-0.2740314698496682,0.0,0.0,0.0,0.0,0.0,0.0,0.0,0.0,0.0,0.02769286203328098,0.005531231062257003,0.0005084368381340126,0.0,0.0,0.0,0.0,0.0,0.0,0.0,0.0,0.0
10.847,305,10,847000000,base_footprint,-0.0026003888570838947,0.002865328790699558,0.6693585213844758,0.7429294702182041,0.0,0.0,0.0,0.0,0.0,0.0,0.0,0.0,0.0,-0.00015793813569634104,-0.0026357870848019915,-0.3426466173947841,0.0,0.0,0.0,0.0,0.0,0.0,0.0,0.0,0.0,-0.10193788594942504,0.060762654069115525,-0.0012065017307772543,0.0,0.0,0.0,0.0,0.0,0.0,0.0,0.0,0.0
10.881,306,10,881000000,base_footprint,-0.002585209941988006,0.0028810896802904636,0.6650243717725435,0.7468116234769944,0.0,0.0,0.0,0.0,0.0,0.0,0.0,0.0,0.0,-0.0001649172299270417,-0.002573297195039773,-0.3417528357755805,0.0,0.0,0.0,0.0,0.0,0.0,0.0,0.0,0.0,0.009624128927303946,0.03944046419387991,-0.0002246119901342552,0.0,0.0,0.0,0.0,0.0,0.0,0.0,0.0,0.0
10.915,307,10,915000000,base_footprint,-0.0025550697235471897,0.0028908829916809396,0.6614385825830257,0.7499894105151047,0.0,0.0,0.0,0.0,0.0,0.0,0.0,0.0,0.0,-0.0018108359505921768,0.00027637886508500344,-0.16712713884451544,0.0,0.0,0.0,0.0,0.0,0.0,0.0,0.0,0.0,-0.029748718394909748,0.039596364848103,0.0027284455376157214,0.0,0.0,0.0,0.0,0.0,0.0,0.0,0.0,0.0
10.949,308,10,949000000,base_footprint,-0.0025720289201492607,0.002902502815685787,0.6599040662078041,0.7513398588834783,0.0,0.0,0.0,0.0,0.0,0.0,0.0,0.0,0.0,0.00036703967173981703,-0.0005777182126976988,-0.08374884003616645,0.0,0.0,0.0,0.0,0.0,0.0,0.0,0.0,0.0,0.11725605052714858,-0.008439936111211209,-0.003299208910686155,0.0,0.0,0.0,0.0,0.0,0.0,0.0,0.0,0.0
10.983,309,10,983000000,base_footprint,-0.0025603655876694493,0.002905246711169702,0.6588199890478998,0.752290652673905,0.0,0.0,0.0,0.0,0.0,0.0,0.0,0.0,0.0,-0.0002946575268146566,-0.00037102069598552627,-0.08858426843530243,0.0,0.0,0.0,0.0,0.0,0.0,0.0,0.0,0.0,-0.009288981593573609,0.007820268882197104,0.000604840357462223,0.0,0.0,0.0,0.0,0.0,0.0,0.0,0.0,0.0
11.017,310,11,17000000,base_footprint,-0.0025548149816177162,0.002912854791021458,0.6577404676265084,0.7532346682434619,0.0,0.0,0.0,0.0,0.0,0.0,0.0,0.0,0.0,-9.285763908851599e-05,-0.0005728855570906226,-0.07947057267333,0.0,0.0,0.0,0.0,0.0,0.0,0.0,0.0,0.0,-0.005198264292457653,0.013009403831598296,-0.0005968619775214323,0.0,0.0,0.0,0.0,0.0,0.0,0.0,0.0,0.0
11.051,311,11,51000000,base_footprint,-0.0025485364737882214,0.0029167659050557044,0.6568057231363865,0.7540498919128531,0.0,0.0,0.0,0.0,0.0,0.0,0.0,0.0,0.0,-3.8494688997249934e-05,-0.0005047068842813673,-0.06324240046069066,0.0,0.0,0.0,0.0,0.0,0.0,0.0,0.0,0.0,0.0425667033782479,-0.0028809551302128415,-0.0001397357475860809,0.0,0.0,0.0,0.0,0.0,0.0,0.0,0.0,0.0
11.085,312,11,85000000,base_footprint,-0.0025510867425960616,0.0029209427301591655,0.6559909277672129,0.7547588109701736,0.0,0.0,0.0,0.0,0.0,0.0,0.0,0.0,0.0,-9.929219259275396e-05,-0.00043912883423576467,-0.07004141692691503,0.0,0.0,0.0,0.0,0.0,0.0,0.0,0.0,0.0,-0.0153571593943058,0.012311137489816087,0.00018509059101147807,0.0,0.0,0.0,0.0,0.0,0.0,0.0,0.0,0.0
11.119,313,11,119000000,base_footprint,-0.0025419543295279526,0.00292444428847611,0.6545738156151656,0.7559881652544526,0.0,0.0,0.0,0.0,0.0,0.0,0.0,0.0,0.0,0.0011951690677948382,-0.002327946151511591,-0.15776123782182794,0.0,0.0,0.0,0.0,0.0,0.0,0.0,0.0,0.0,-0.004150045069730627,0.0133007530716217,-0.0018680409883505035,0.0,0.0,0.0,0.0,0.0,0.0,0.0,0.0,0.0
11.153,314,11,153000000,base_footprint,-0.00253649949107012,0.002932592499899814,0.6525195106230337,0.757762003750411,0.0,0.0,0.0,0.0,0.0,0.0,0.0,0.0,0.0,-0.00015294429876679108,-0.0010666420142297862,-0.1599397318361461,0.0,0.0,0.0,0.0,0.0,0.0,0.0,0.0,0.0,0.0010919629525753174,0.02026145033736905,0.0016554903136635512,0.0,0.0,0.0,0.0,0.0,0.0,0.0,0.0,0.0
11.187,315,11,187000000,base_footprint,-0.0025264934667982805,0.002938850150784861,0.6504471315505272,0.7595416440513613,0.0,0.0,0.0,0.0,0.0,0.0,0.0,0.0,0.0,-0.00019182361073217844,-0.0010136069269084955,-0.16129553272512184,0.0,0.0,0.0,0.0,0.0,0.0,0.0,0.0,0.0,0.00702564277637242,0.01751918262497883,-4.955821365071894e-05,0.0,0.0,0.0,0.0,0.0,0.0,0.0,0.0,0.0
11.221,316,11,221000000,base_footprint,-0.002518560474964617,0.002938782776901823,0.6489805133859505,0.7607951850887544,0.0,0.0,0.0,0.0,0.0,0.0,0.0,0.0,0.0,0.0003534474232698812,-0.0008062560108573522,-0.07845406848354111,0.0,0.0,0.0,0.0,0.0,0.0,0.0,0.0,0.0,0.09061447695547767,-0.01356426483204183,-0.0004645003913184424,0.0,0.0,0.0,0.0,0.0,0.0,0.0,0.0,0.0
11.255,317,11,255000000,base_footprint,-0.002514132516488847,0.002937618404684991,0.6479559463647081,0.7616679992663561,0.0,0.0,0.0,0.0,0.0,0.0,0.0,0.0,0.0,0.00013201470379576495,-0.00025354949259263557,-0.08445926241887938,0.0,0.0,0.0,0.0,0.0,0.0,0.0,0.0,0.0,0.010442217764266543,0.003031103000026514,0.0010369217229277189,0.0,0.0,0.0,0.0,0.0,0.0,0.0,0.0,0.0
11.289,318,11,289000000,base_footprint,-0.0025074771487846154,0.002943482294457356,0.646670159753265,0.7627599576242956,0.0,0.0,0.0,0.0,0.0,0.0,0.0,0.0,0.0,-0.00012812307949109465,-0.0011218203663404822,-0.11359310476137065,0.0,0.0,0.0,0.0,0.0,0.0,0.0,0.0,0.0,0.05836333991046183,-0.006148427594718498,-0.0005264520329226604,0.0,0.0,0.0,0.0,0.0,0.0,0.0,0.0,0.0
11.323,319,11,323000000,base_footprint,-0.0025007683873076907,0.002938899926598796,0.6452620769911439,0.7639515436346535,0.0,0.0,0.0,0.0,0.0,0.0,0.0,0.0,0.0,-0.0017085768513769493,-0.0008523242454556502,-0.10678757330943257,0.0,0.0,0.0,0.0,0.0,0.0,0.0,0.0,0.0,0.035914037160207066,-0.0023538250397908134,-0.002012632015019291,0.0,0.0,0.0,0.0,0.0,0.0,0.0,0.0,0.0
11.357,320,11,357000000,base_footprint,-0.0024949335485003475,0.0029389053733192027,0.6439729174794039,0.7650385739914427,0.0,0.0,0.0,0.0,0.0,0.0,0.0,0.0,0.0,-9.576343112981591e-05,-0.0006586523993844264,-0.0887035153322091,0.0,0.0,0.0,0.0,0.0,0.0,0.0,0.0,0.0,-0.03392641536536329,0.02484605796293419,0.0016610547805799795,0.0,0.0,0.0,0.0,0.0,0.0,0.0,0.0,0.0
11.391,321,11,391000000,base_footprint,-0.0024919363430104973,0.002947745847591208,0.6430599284273251,0.7658061304917347,0.0,0.0,0.0,0.0,0.0,0.0,0.0,0.0,0.0,-0.0006764962798154609,-0.001227737652728391,-0.05082347070679931,0.0,0.0,0.0,0.0,0.0,0.0,0.0,0.0,0.0,-0.07384714322530714,0.03760451802354575,-0.001439517652583018,0.0,0.0,0.0,0.0,0.0,0.0,0.0,0.0,0.0
11.425,322,11,425000000,base_footprint,-0.002489917025564491,0.0029574964604515332,0.6426096354667896,0.766183992219318,0.0,0.0,0.0,0.0,0.0,0.0,0.0,0.0,0.0,-0.00018731256795188948,-0.0001257219091280267,-0.031664418774906646,0.0,0.0,0.0,0.0,0.0,0.0,0.0,0.0,0.0,-0.028901892588745252,0.013613831402569937,0.001175379027572387,0.0,0.0,0.0,0.0,0.0,0.0,0.0,0.0,0.0
11.459,323,11,459000000,base_footprint,-0.0024881735962112178,0.002958873381030361,0.6421988422497669,0.7665283432943164,0.0,0.0,0.0,0.0,0.0,0.0,0.0,0.0,0.0,-0.00013275545738531023,-5.665056730567606e-05,-0.03173162659734614,0.0,0.0,0.0,0.0,0.0,0.0,0.0,0.0,0.0,-0.0016831315533902132,0.004931774466480831,7.810762357828537e-05,0.0,0.0,0.0,0.0,0.0,0.0,0.0,0.0,0.0
11.493,324,11,493000000,base_footprint,-0.0024866263742102353,0.0029603718000721694,0.6417895908761158,0.7668710282251824,0.0,0.0,0.0,0.0,0.0,0.0,0.0,0.0,0.0,-0.00010192724333718959,-6.870757682887253e-05,-0.03137029135393918,0.0,0.0,0.0,0.0,0.0,0.0,0.0,0.0,0.0,-0.0027167690935137054,0.004581898024469752,-4.496639628427735e-05,0.0,0.0,0.0,0.0,0.0,0.0,0.0,0.0,0.0
11.527,325,11,527000000,base_footprint,-0.0024817366281718674,0.0029641654462644793,0.640337760077212,0.7680837244245022,0.0,0.0,0.0,0.0,0.0,0.0,0.0,0.0,0.0,-0.00028055261787608384,-0.001015385348329826,-0.1271143765025975,0.0,0.0,0.0,0.0,0.0,0.0,0.0,0.0,0.0,-0.021647883842827124,0.020963409097890368,-0.0003187322122469049,0.0,0.0,0.0,0.0,0.0,0.0,0.0,0.0,0.0
11.561,326,11,561000000,base_footprint,-0.0024765531642618197,0.0029688491768896414,0.6386762155080449,0.7694658825206684,0.0,0.0,0.0,0.0,0.0,0.0,0.0,0.0,0.0,-8.782340509967963e-05,-0.0008240749758996286,-0.12735186037045998,0.0,0.0,0.0,0.0,0.0,0.0,0.0,0.0,0.0,0.0022272879227455177,0.015197629896594848,0.00017545411147189315,0.0,0.0,0.0,0.0,0.0,0.0,0.0,0.0,0.0
11.595,327,11,595000000,base_footprint,-0.0024717671960297963,0.0029736101369714704,0.6370086432130028,0.7708469604802313,0.0,0.0,0.0,0.0,0.0,0.0,0.0,0.0,0.0,-8.010176844329048e-05,-0.0008630465052301933,-0.1275546854362219,0.0,0.0,0.0,0.0,0.0,0.0,0.0,0.0,0.0,0.0028561302958458818,0.014940318077814641,-0.000191579595141009,0.0,0.0,0.0,0.0,0.0,0.0,0.0,0.0,0.0
11.629,328,11,629000000,base_footprint,-0.0024598644210203553,0.00298370824880446,0.6349753231428991,0.7725227411226722,0.0,0.0,0.0,0.0,0.0,0.0,0.0,0.0,0.0,-0.0002760812864532493,-0.0010538146466611898,-0.18681823220205934,0.0,0.0,0.0,0.0,0.0,0.0,0.0,0.0,0.0,0.7552521909678775,-0.2913795800404637,0.001330933136788506,0.0,0.0,0.0,0.0,0.0,0.0,0.0,0.0,0.0
