Time,header.seq,header.stamp.secs,header.stamp.nsecs,header.frame_id,orientation.x,orientation.y,orientation.z,orientation.w,orientation_covariance_0,orientation_covariance_1,orientation_covariance_2,orientation_covariance_3,orientation_covariance_4,orientation_covariance_5,orientation_covariance_6,orientation_covariance_7,orientation_covariance_8,angular_velocity.x,angular_velocity.y,angular_velocity.z,angular_velocity_covariance_0,angular_velocity_covariance_1,angular_velocity_covariance_2,angular_velocity_covariance_3,angular_velocity_covariance_4,angular_velocity_covariance_5,angular_velocity_covariance_6,angular_velocity_covariance_7,angular_velocity_covariance_8,linear_acceleration.x,linear_acceleration.y,linear_acceleration.z,linear_acceleration_covariance_0,linear_acceleration_covariance_1,linear_acceleration_covariance_2,linear_acceleration_covariance_3,linear_acceleration_covariance_4,linear_acceleration_covariance_5,linear_acceleration_covariance_6,linear_acceleration_covariance_7,linear_acceleration_covariance_8
0.23900000000000002,0,0,239000000,base_footprint,-0.0006492111734342146,-0.00024306521572871315,-0.9240691008293095,0.3822248243333557,0.0,0.0,0.0,0.0,0.0,0.0,0.0,0.0,0.0,-0.04765253592729015,-0.00035863464680706975,-0.00026118348594876675,0.0,0.0,0.0,0.0,0.0,0.0,0.0,0.0,0.0,-6.81151356271446e-05,0.00015832336806559534,-0.05778463391211324,0.0,0.0,0.0,0.0,0.0,0.0,0.0,0.0,0.0
0.273,1,0,273000000,base_footprint,0.0001340456700287172,9.080258330740452e-05,-0.9240709398980047,0.38222097250499937,0.0,0.0,0.0,0.0,0.0,0.0,0.0,0.0,0.0,-0.0695890649087795,-0.0006630848435613262,-0.0001148665589391717,0.0,0.0,0.0,0.0,0.0,0.0,0.0,0.0,0.0,0.0002297877392808342,-0.0015111335629665926,0.0065452238143465825,0.0,0.0,0.0,0.0,0.0,0.0,0.0,0.0,0.0
0.306,2,0,307000000,base_footprint,0.0011986898758847774,0.0005428058036107935,-0.9240716182133553,0.38221710181125074,0.0,0.0,0.0,0.0,0.0,0.0,0.0,0.0,0.0,-0.06776877508065002,-0.00048200451495171437,-0.00036120962335870887,0.0,0.0,0.0,0.0,0.0,0.0,0.0,0.0,0.0,-0.0002534864098871021,0.00029491583024698523,-0.0034657340927490648,0.0,0.0,0.0,0.0,0.0,0.0,0.0,0.0,0.0
0.341,3,0,341000000,base_footprint,0.00226074885499588,0.0009937641645648262,-0.9240710265773227,0.38221281936603446,0.0,0.0,0.0,0.0,0.0,0.0,0.0,0.0,0.0,-0.06769160287859163,-0.0004809458832456745,-0.0004822828449215002,0.0,0.0,0.0,0.0,0.0,0.0,0.0,0.0,0.0,-1.1387670823807044e-05,-0.00026528100900611744,0.0001503165131003778,0.0,0.0,0.0,0.0,0.0,0.0,0.0,0.0,0.0
0.375,4,0,375000000,base_footprint,0.003321607157486463,0.001444228962914789,-0.9240692866246513,0.38220784220840137,0.0,0.0,0.0,0.0,0.0,0.0,0.0,0.0,0.0,-0.06761459391733401,-0.0004798871546462316,-0.0006046063559289982,0.0,0.0,0.0,0.0,0.0,0.0,0.0,0.0,0.0,-2.9924731659094225e-06,-0.00026950608820711043,0.00014975596431368593,0.0,0.0,0.0,0.0,0.0,0.0,0.0,0.0,0.0
0.40900000000000003,5,0,409000000,base_footprint,0.0035730822745850747,0.0014858890837574617,-0.9240715206350212,0.382200013040253,0.0,0.0,0.0,0.0,0.0,0.0,0.0,0.0,0.0,-0.0034948683993414765,-0.0002727677322376708,-0.000560365413980894,0.0,0.0,0.0,0.0,0.0,0.0,0.0,0.0,0.0,-0.0014047131862818312,0.004869832236900986,0.12772892175299552,0.0,0.0,0.0,0.0,0.0,0.0,0.0,0.0,0.0
0.443,6,0,443000000,base_footprint,0.003564917985961474,0.001482268272772345,-0.9240721124685125,0.3821986724185495,0.0,0.0,0.0,0.0,0.0,0.0,0.0,0.0,0.0,0.00030725461202478385,3.780464494360692e-05,0.0001728050885572515,0.0,0.0,0.0,0.0,0.0,0.0,0.0,0.0,0.0,0.0004154059659147982,-0.004368429110786524,0.004368639971427489,0.0,0.0,0.0,0.0,0.0,0.0,0.0,0.0,0.0
0.47700000000000004,7,0,477000000,base_footprint,0.0035647796212327455,0.001482271121985007,-0.9240706090504198,0.38220230861123705,0.0,0.0,0.0,0.0,0.0,0.0,0.0,0.0,0.0,0.00017862251346738008,3.0185102896321526e-05,0.0002972171886123511,0.0,0.0,0.0,0.0,0.0,0.0,0.0,0.0,0.0,-0.00024253471730007587,-3.534552905513262e-05,-0.0001552903655408241,0.0,0.0,0.0,0.0,0.0,0.0,0.0,0.0,0.0
0.511,8,0,511000000,base_footprint,0.003564711655963057,0.0014822825525256092,-0.9240686780319562,0.3822069778922373,0.0,0.0,0.0,0.0,0.0,0.0,0.0,0.0,0.0,0.0001760697965274742,3.073310954815022e-05,0.00032772623858899266,0.0,0.0,0.0,0.0,0.0,0.0,0.0,0.0,0.0,-5.941798470564494e-05,-7.816147729767131e-06,-5.924102329559427e-06,0.0,0.0,0.0,0.0,0.0,0.0,0.0,0.0,0.0
0.545,9,0,545000000,base_footprint,0.0035646877942933646,0.0014823035217976593,-0.9240666424549472,0.3822118994474655,0.0,0.0,0.0,0.0,0.0,0.0,0.0,0.0,0.0,0.00017471930290788196,3.088183150208727e-05,0.0003352794060461192,0.0,0.0,0.0,0.0,0.0,0.0,0.0,0.0,0.0,-1.4720480763252613e-05,-1.919914127769308e-06,-2.1470179752391814e-06,0.0,0.0,0.0,0.0,0.0,0.0,0.0,0.0,0.0
0.5790000000000001,10,0,579000000,base_footprint,0.003564674780163097,0.001482326354520293,-0.9240645808518602,0.38221688374189683,0.0,0.0,0.0,0.0,0.0,0.0,0.0,0.0,0.0,0.00017439836025029347,3.094134375629485e-05,0.00033716472004994554,0.0,0.0,0.0,0.0,0.0,0.0,0.0,0.0,0.0,-3.674687580539221e-06,-4.813864075845245e-07,-4.971591213712505e-07,0.0,0.0,0.0,0.0,0.0,0.0,0.0,0.0,0.0
0.613,11,0,613000000,base_footprint,0.0035646645684232836,0.0014823493499566264,-0.9240625127139522,0.38222188373207555,0.0,0.0,0.0,0.0,0.0,0.0,0.0,0.0,0.0,0.00017431954688106478,3.097920465976642e-05,0.0003376438396865141,0.0,0.0,0.0,0.0,0.0,0.0,0.0,0.0,0.0,-9.318492245963415e-07,-1.3769031507840236e-07,-1.2919910123935522e-07,0.0,0.0,0.0,0.0,0.0,0.0,0.0,0.0,0.0
0.647,12,0,647000000,base_footprint,0.0035646551608639475,0.0014823721278317715,-0.9240604428734686,0.38222688775509783,0.0,0.0,0.0,0.0,0.0,0.0,0.0,0.0,0.0,0.00017430109236562453,3.1010067598474625e-05,0.00033777424330528125,0.0,0.0,0.0,0.0,0.0,0.0,0.0,0.0,0.0,-2.5163736156157295e-07,-5.240301587703565e-08,-3.803398012506487e-08,0.0,0.0,0.0,0.0,0.0,0.0,0.0,0.0,0.0
0.681,13,0,681000000,base_footprint,0.0035646460516605906,0.001482394617790113,-0.9240583725287919,0.3822318929186367,0.0,0.0,0.0,0.0,0.0,0.0,0.0,0.0,0.0,0.00017429760356938066,3.1037724808407196e-05,0.0003378181661057535,0.0,0.0,0.0,0.0,0.0,0.0,0.0,0.0,0.0,-8.292182663703163e-08,-3.1217200156020615e-08,-1.5803231417911627e-08,0.0,0.0,0.0,0.0,0.0,0.0,0.0,0.0,0.0
0.7150000000000001,14,0,715000000,base_footprint,0.0035646371061690326,0.0014824168241597572,-0.9240563019771164,0.38223689850541287,0.0,0.0,0.0,0.0,0.0,0.0,0.0,0.0,0.0,0.00017429782778509,3.1063253010265066e-05,0.0003378406407926769,0.0,0.0,0.0,0.0,0.0,0.0,0.0,0.0,0.0,-4.1056091293095886e-08,-2.5933803282439516e-08,-1.0627805516863859e-08,0.0,0.0,0.0,0.0,0.0,0.0,0.0,0.0,0.0
0.749,15,0,749000000,base_footprint,0.0035646282826425233,0.0014824387677647639,-0.924054231292146,0.38224190433753824,0.0,0.0,0.0,0.0,0.0,0.0,0.0,0.0,0.0,0.0001742989742946303,3.108704311425172e-05,0.0003378577949606935,0.0,0.0,0.0,0.0,0.0,0.0,0.0,0.0,0.0,-3.0650071447836066e-08,-2.4597559794132968e-08,-9.650623938955779e-09,0.0,0.0,0.0,0.0,0.0,0.0,0.0,0.0,0.0
0.783,16,0,783000000,base_footprint,0.0035646195631468805,0.0014824604716864955,-0.9240521604921607,0.3822469103708886,0.0,0.0,0.0,0.0,0.0,0.0,0.0,0.0,0.0,0.00017430035098582635,3.110930430072304e-05,0.0003378736282149381,0.0,0.0,0.0,0.0,0.0,0.0,0.0,0.0,0.0,-2.804783370160419e-08,-2.4242893731854955e-08,-9.686397534998507e-09,0.0,0.0,0.0,0.0,0.0,0.0,0.0,0.0,0.0
0.8160000000000001,17,0,817000000,base_footprint,0.003564610936356883,0.001482481957902531,-0.924050089581695,0.382251916594513,0.0,0.0,0.0,0.0,0.0,0.0,0.0,0.0,0.0,0.00017430178612307692,3.1130190561232106e-05,0.00033788913262164263,0.0,0.0,0.0,0.0,0.0,0.0,0.0,0.0,0.0,-2.7382957008148898e-08,-2.4134012028722828e-08,-9.947384160450413e-09,0.0,0.0,0.0,0.0,0.0,0.0,0.0,0.0,0.0
0.8510000000000001,18,0,851000000,base_footprint,0.0035646023932246495,0.0014825032466077182,-0.924048018561874,0.3822569230056879,0.0,0.0,0.0,0.0,0.0,0.0,0.0,0.0,0.0,0.00017430323700207926,3.11498324701265e-05,0.00033790455436270346,0.0,0.0,0.0,0.0,0.0,0.0,0.0,0.0,0.0,-2.7200379702527698e-08,-2.4088195336731436e-08,-1.024089435468359e-08,0.0,0.0,0.0,0.0,0.0,0.0,0.0,0.0,0.0
0.885,19,0,885000000,base_footprint,0.0035645939258462417,0.0014825243561859902,-0.9240459474329775,0.3822619296037316,0.0,0.0,0.0,0.0,0.0,0.0,0.0,0.0,0.0,0.00017430469294786165,3.1168346379628244e-05,0.00033791995460866664,0.0,0.0,0.0,0.0,0.0,0.0,0.0,0.0,0.0,-2.7139044686953884e-08,-2.4059912122568265e-08,-1.0521495183602787e-08,0.0,0.0,0.0,0.0,0.0,0.0,0.0,0.0,0.0
0.919,20,0,919000000,base_footprint,0.0035645855271269422,0.0014825453033301863,-0.9240438761950741,0.3822669363884693,0.0,0.0,0.0,0.0,0.0,0.0,0.0,0.0,0.0,0.00017430615109655616,3.1185837185080436e-05,0.00033793534872297545,0.0,0.0,0.0,0.0,0.0,0.0,0.0,0.0,0.0,-2.7109427927645343e-08,-2.403771647969335e-08,-1.0779638060745039e-08,0.0,0.0,0.0,0.0,0.0,0.0,0.0,0.0,0.0
0.9530000000000001,21,0,953000000,base_footprint,0.003564577190649147,0.0014825661031873754,-0.9240418048481804,0.3822719433598533,0.0,0.0,0.0,0.0,0.0,0.0,0.0,0.0,0.0,0.00017430761074368806,3.1202400070732894e-05,0.0003379507405890378,0.0,0.0,0.0,0.0,0.0,0.0,0.0,0.0,0.0,-2.70889790548107e-08,-2.4018571655200807e-08,-1.1014526526925292e-08,0.0,0.0,0.0,0.0,0.0,0.0,0.0,0.0,0.0
0.9870000000000001,22,0,987000000,base_footprint,0.00356456891059569,0.0014825867694993197,-0.9240397333922994,0.3822769505178687,0.0,0.0,0.0,0.0,0.0,0.0,0.0,0.0,0.0,0.00017430907173943526,3.121812112181462e-05,0.00033796613131700695,0.0,0.0,0.0,0.0,0.0,0.0,0.0,0.0,0.0,-2.7072134234150323e-08,-2.400159367947392e-08,-1.1228127356439111e-08,0.0,0.0,0.0,0.0,0.0,0.0,0.0,0.0,0.0
1.021,23,1,21000000,base_footprint,0.0035645606816905456,0.0014826073147321305,-0.9240376618274301,0.3822819578625088,0.0,0.0,0.0,0.0,0.0,0.0,0.0,0.0,0.0,0.0001743105337638417,3.1233078642992974e-05,0.0003379815212940687,0.0,0.0,0.0,0.0,0.0,0.0,0.0,0.0,0.0,-2.7057357418866382e-08,-2.398644262460673e-08,-1.1422063077074158e-08,0.0,0.0,0.0,0.0,0.0,0.0,0.0,0.0,0.0
1.055,24,1,55000000,base_footprint,0.0035645524991479004,0.0014826277501947874,-0.9240355901535707,0.38228696539377016,0.0,0.0,0.0,0.0,0.0,0.0,0.0,0.0,0.0,0.00017431199679750323,3.124734341604244e-05,0.00033799691066863866,0.0,0.0,0.0,0.0,0.0,0.0,0.0,0.0,0.0,-2.7044056131977482e-08,-2.3972879221360034e-08,-1.1598036801336331e-08,0.0,0.0,0.0,0.0,0.0,0.0,0.0,0.0,0.0
1.089,25,1,89000000,base_footprint,0.0035645443586260427,0.0014826480861461302,-0.9240335183707183,0.38229197311165086,0.0,0.0,0.0,0.0,0.0,0.0,0.0,0.0,0.0,0.00017431346077452986,3.1260980030336515e-05,0.00033801229961627054,0.0,0.0,0.0,0.0,0.0,0.0,0.0,0.0,0.0,-2.703218074074427e-08,-2.3960769037368157e-08,-1.1757651735571564e-08,0.0,0.0,0.0,0.0,0.0,0.0,0.0,0.0,0.0
1.123,26,1,123000000,base_footprint,0.0035645362561865226,0.0014826683318926925,-0.9240314464788701,0.38229698101615023,0.0,0.0,0.0,0.0,0.0,0.0,0.0,0.0,0.0,0.00017431492550986884,3.1274046701717545e-05,0.00033802768822693304,0.0,0.0,0.0,0.0,0.0,0.0,0.0,0.0,0.0,-2.7021456956460003e-08,-2.3949961115133963e-08,-1.1902668860000917e-08,0.0,0.0,0.0,0.0,0.0,0.0,0.0,0.0,0.0
1.157,27,1,157000000,base_footprint,0.0035645281882563744,0.0014826884958768982,-0.9240293744780228,0.38230198910726776,0.0,0.0,0.0,0.0,0.0,0.0,0.0,0.0,0.0,0.00017431639105416644,3.1286596325821234e-05,0.0003380430766279343,0.0,0.0,0.0,0.0,0.0,0.0,0.0,0.0,0.0,-2.701186838660028e-08,-2.39403369421399e-08,-1.203413233615409e-08,0.0,0.0,0.0,0.0,0.0,0.0,0.0,0.0,0.0
1.191,28,1,191000000,base_footprint,0.0035645201515943476,0.0014827085857574995,-0.924027302368172,0.3823069973850038,0.0,0.0,0.0,0.0,0.0,0.0,0.0,0.0,0.0,0.00017431785725913323,3.129867710644007e-05,0.0003380584648564146,0.0,0.0,0.0,0.0,0.0,0.0,0.0,0.0,0.0,-2.700316211332115e-08,-2.393176210010069e-08,-1.2153702113029278e-08,0.0,0.0,0.0,0.0,0.0,0.0,0.0,0.0,0.0
1.225,29,1,225000000,base_footprint,0.0035645121432600207,0.0014827286084820581,-0.9240252301493144,0.3823120058493597,0.0,0.0,0.0,0.0,0.0,0.0,0.0,0.0,0.0,0.0001743193240931576,3.131033253150628e-05,0.0003380738530291909,0.0,0.0,0.0,0.0,0.0,0.0,0.0,0.0,0.0,-2.6995413793492386e-08,-2.3924166185890376e-08,-1.2262066414349812e-08,0.0,0.0,0.0,0.0,0.0,0.0,0.0,0.0,0.0
1.259,30,1,259000000,base_footprint,0.003564504160586056,0.0014827485703531238,-0.9240231578214452,0.3823170145003371,0.0,0.0,0.0,0.0,0.0,0.0,0.0,0.0,0.0,0.0001743207914645462,3.132160212231793e-05,0.00033808924122082735,0.0,0.0,0.0,0.0,0.0,0.0,0.0,0.0,0.0,-2.6988475043110158e-08,-2.39174405295193e-08,-1.2360567905155503e-08,0.0,0.0,0.0,0.0,0.0,0.0,0.0,0.0,0.0
1.2930000000000001,31,1,293000000,base_footprint,0.0035602388903065354,0.0014808648688251374,-0.924076128306154,0.38218901192079385,0.0,0.0,0.0,0.0,0.0,0.0,0.0,0.0,0.0,0.00019431731386736952,0.00013170818920256745,-0.0164442156582321,0.0,0.0,0.0,0.0,0.0,0.0,0.0,0.0,0.0,0.0013426542070543168,0.7253486890333395,0.003870859892522234,0.0,0.0,0.0,0.0,0.0,0.0,0.0,0.0,0.0
1.327,32,1,327000000,base_footprint,0.0035613555339361835,0.0014795769974168358,-0.9242417137262767,0.3817883997805393,0.0,0.0,0.0,0.0,0.0,0.0,0.0,0.0,0.0,0.0003120154728945793,0.00022469976897386052,-0.03377747315610879,0.0,0.0,0.0,0.0,0.0,0.0,0.0,0.0,0.0,0.003355483872209908,0.7494367149974598,0.004118568682945591,0.0,0.0,0.0,0.0,0.0,0.0,0.0,0.0,0.0
1.361,33,1,361000000,base_footprint,0.00356130354111696,0.0014766373796349125,-0.9245196678306132,0.3811148389311412,0.0,0.0,0.0,0.0,0.0,0.0,0.0,0.0,0.0,0.004398899712184563,0.00021590877874058342,-0.05119677004349848,0.0,0.0,0.0,0.0,0.0,0.0,0.0,0.0,0.0,0.007314612416788546,0.7505802168549551,0.006995864336145024,0.0,0.0,0.0,0.0,0.0,0.0,0.0,0.0,0.0
1.395,34,1,395000000,base_footprint,0.0035638542421116844,0.0014735191776133476,-0.9249089491441215,0.38016912483431753,0.0,0.0,0.0,0.0,0.0,0.0,0.0,0.0,0.0,0.00457511086395369,0.0002870258755727432,-0.06839009236142028,0.0,0.0,0.0,0.0,0.0,0.0,0.0,0.0,0.0,0.01250071750593068,0.7357035239455093,0.004129756984356626,0.0,0.0,0.0,0.0,0.0,0.0,0.0,0.0,0.0
1.429,35,1,429000000,base_footprint,0.003566373428828674,0.0014692021223901548,-0.9254067347538927,0.37895579913471183,0.0,0.0,0.0,0.0,0.0,0.0,0.0,0.0,0.0,0.0025562766396662407,0.0004270990611577038,-0.08521873378558618,0.0,0.0,0.0,0.0,0.0,0.0,0.0,0.0,0.0,0.019337370765340478,0.697982475581532,0.003817301942119589,0.0,0.0,0.0,0.0,0.0,0.0,0.0,0.0,0.0
1.463,36,1,463000000,base_footprint,0.003571936295494504,0.0014648855445972815,-0.926006916839189,0.3774868015539372,0.0,0.0,0.0,0.0,0.0,0.0,0.0,0.0,0.0,0.000754407861629229,0.0006057889566856942,-0.10080513239145393,0.0,0.0,0.0,0.0,0.0,0.0,0.0,0.0,0.0,0.025946793400050433,0.6295414619191035,0.0012144489018538775,0.0,0.0,0.0,0.0,0.0,0.0,0.0,0.0,0.0
1.497,37,1,497000000,base_footprint,0.0035784551505278245,0.001459839125777698,-0.9266981239241769,0.375786708977145,0.0,0.0,0.0,0.0,0.0,0.0,0.0,0.0,0.0,0.0007093970754852356,0.0006649148019369258,-0.11435142475805897,0.0,0.0,0.0,0.0,0.0,0.0,0.0,0.0,0.0,0.03107729655997618,0.5174009621376859,0.002369409936777915,0.0,0.0,0.0,0.0,0.0,0.0,0.0,0.0,0.0
1.5310000000000001,38,1,531000000,base_footprint,0.0035837232871544955,0.0014532559852333158,-0.927465118585505,0.37388968798512984,0.0,0.0,0.0,0.0,0.0,0.0,0.0,0.0,0.0,0.0007705980380398202,0.000731541882702209,-0.1256373309930104,0.0,0.0,0.0,0.0,0.0,0.0,0.0,0.0,0.0,0.033738584604203314,0.358781352338711,0.0021324850813404616,0.0,0.0,0.0,0.0,0.0,0.0,0.0,0.0,0.0
1.565,39,1,565000000,base_footprint,0.0035868125932088657,0.0014444583843726052,-0.9282921186291038,0.37183166998856776,0.0,0.0,0.0,0.0,0.0,0.0,0.0,0.0,0.0,0.0011066862208332754,0.0008195480495840718,-0.13459632094043614,0.0,0.0,0.0,0.0,0.0,0.0,0.0,0.0,0.0,0.03701972049662734,0.16897458621395278,0.0016771046891380537,0.0,0.0,0.0,0.0,0.0,0.0,0.0,0.0,0.0
1.5990000000000002,40,1,599000000,base_footprint,0.003575707283499647,0.0014361930956098964,-0.9291601462582066,0.3696573741618623,0.0,0.0,0.0,0.0,0.0,0.0,0.0,0.0,0.0,0.005654033482545777,-0.0007666007011208355,-0.13908426593584275,0.0,0.0,0.0,0.0,0.0,0.0,0.0,0.0,0.0,0.01196410033391358,-0.018233081613321593,0.009131439844409759,0.0,0.0,0.0,0.0,0.0,0.0,0.0,0.0,0.0
1.633,41,1,633000000,base_footprint,0.003579110914771921,0.0014242089507849548,-0.9300550821124278,0.36739992628029944,0.0,0.0,0.0,0.0,0.0,0.0,0.0,0.0,0.0,0.000973312792549572,0.0007297518774955536,-0.14660551079725725,0.0,0.0,0.0,0.0,0.0,0.0,0.0,0.0,0.0,0.02943862942304392,0.05569920875769743,-0.009383400092543088,0.0,0.0,0.0,0.0,0.0,0.0,0.0,0.0,0.0
1.667,42,1,667000000,base_footprint,0.0035840701103628,0.001416323047635624,-0.9309963014817689,0.36500826716354795,0.0,0.0,0.0,0.0,0.0,0.0,0.0,0.0,0.0,0.001057841308471097,0.0008310101678113118,-0.15585975904589133,0.0,0.0,0.0,0.0,0.0,0.0,0.0,0.0,0.0,0.047604812478948544,0.22927324146132932,0.0016137061207843334,0.0,0.0,0.0,0.0,0.0,0.0,0.0,0.0,0.0
1.701,43,1,701000000,base_footprint,0.0035876297011710463,0.0014062653073488977,-0.9319953004985448,0.3624498740234843,0.0,0.0,0.0,0.0,0.0,0.0,0.0,0.0,0.0,0.0012961709467170244,0.001011359361824904,-0.1672982105509486,0.0,0.0,0.0,0.0,0.0,0.0,0.0,0.0,0.0,0.06497673402503452,0.38209873194646904,0.0027650233636795428,0.0,0.0,0.0,0.0,0.0,0.0,0.0,0.0,0.0
1.735,44,1,735000000,base_footprint,0.003596706891444823,0.0014053841066355292,-0.9328258830617487,0.36030675886682795,0.0,0.0,0.0,0.0,0.0,0.0,0.0,0.0,0.0,0.0007929923453077162,0.0003711070868008984,-0.07428685945740976,0.0,0.0,0.0,0.0,0.0,0.0,0.0,0.0,0.0,0.06216028230375467,0.33586843332438254,0.0019393998752698606,0.0,0.0,0.0,0.0,0.0,0.0,0.0,0.0,0.0
1.7690000000000001,45,1,769000000,base_footprint,0.0036008659658884755,0.0013999445031477543,-0.9329455684376989,0.3599967225575016,0.0,0.0,0.0,0.0,0.0,0.0,0.0,0.0,0.0,-0.00013049188697321695,-0.0005654211705748186,0.016765388051617917,0.0,0.0,0.0,0.0,0.0,0.0,0.0,0.0,0.0,0.018228531427730642,0.12060989681689915,0.00033025995711138083,0.0,0.0,0.0,0.0,0.0,0.0,0.0,0.0,0.0
1.803,46,1,803000000,base_footprint,0.0035984601994670535,0.0014005924186401425,-0.9328503758788014,0.36024334226720817,0.0,0.0,0.0,0.0,0.0,0.0,0.0,0.0,0.0,0.00016446705841783094,-3.9324694985998985e-05,0.01528030801722286,0.0,0.0,0.0,0.0,0.0,0.0,0.0,0.0,0.0,-0.004434364073166913,0.00716521972572747,0.00040116495190423986,0.0,0.0,0.0,0.0,0.0,0.0,0.0,0.0,0.0
1.8370000000000002,47,1,837000000,base_footprint,0.0035981467863507445,0.001401279312698924,-0.932757572241364,0.36048356575909035,0.0,0.0,0.0,0.0,0.0,0.0,0.0,0.0,0.0,7.917088244805064e-05,-3.944287247505486e-05,0.015015744390996148,0.0,0.0,0.0,0.0,0.0,0.0,0.0,0.0,0.0,-0.0027077670023766686,0.006033683873526961,-0.0001547126054922097,0.0,0.0,0.0,0.0,0.0,0.0,0.0,0.0,0.0
1.871,48,1,871000000,base_footprint,0.0035993266388117517,0.0014034884805961523,-0.9326219988626633,0.36083414792012486,0.0,0.0,0.0,0.0,0.0,0.0,0.0,0.0,0.0,8.856710888360998e-05,-9.107225210368832e-06,0.04002356271487442,0.0,0.0,0.0,0.0,0.0,0.0,0.0,0.0,0.0,-0.003668301522133585,-0.0008240980532337178,0.00014716337059899394,0.0,0.0,0.0,0.0,0.0,0.0,0.0,0.0,0.0
1.905,49,1,905000000,base_footprint,0.0036009878398186707,0.001406754461544759,-0.9323812040664798,0.3614558676131896,0.0,0.0,0.0,0.0,0.0,0.0,0.0,0.0,0.0,-0.0002547511211244501,-0.00017050979229070673,0.03899298058843642,0.0,0.0,0.0,0.0,0.0,0.0,0.0,0.0,0.0,-0.008781646667001479,0.00665039701017495,-0.0006172206310880342,0.0,0.0,0.0,0.0,0.0,0.0,0.0,0.0,0.0
1.939,50,1,939000000,base_footprint,0.003604602744555944,0.0014115312508611907,-0.9321421780261034,0.3620717806779948,0.0,0.0,0.0,0.0,0.0,0.0,0.0,0.0,0.0,-0.00036193876189639495,-0.0001519743919753315,0.03867579970036937,0.0,0.0,0.0,0.0,0.0,0.0,0.0,0.0,0.0,-0.007779925108822314,0.005177135903814311,-0.00037012111304569965,0.0,0.0,0.0,0.0,0.0,0.0,0.0,0.0,0.0
1.973,51,1,973000000,base_footprint,0.0035962665504244307,0.0014121556235432288,-0.9319039607671785,0.36268454694105473,0.0,0.0,0.0,0.0,0.0,0.0,0.0,0.0,0.0,-0.0054664775838332,-0.0021027732555007382,0.03762257838357919,0.0,0.0,0.0,0.0,0.0,0.0,0.0,0.0,0.0,-0.023368552888735378,-0.21163661522477134,-0.009103912459032894,0.0,0.0,0.0,0.0,0.0,0.0,0.0,0.0,0.0
2.007,52,2,7000000,base_footprint,0.00360475273738199,0.0014206633849992312,-0.9318136830907204,0.3629163091928434,0.0,0.0,0.0,0.0,0.0,0.0,0.0,0.0,0.0,-0.0008247103146543442,-0.0001416805220513219,0.03941174335077492,0.0,0.0,0.0,0.0,0.0,0.0,0.0,0.0,0.0,-0.019433928910404283,-0.13391123806495916,0.006358992972328337,0.0,0.0,0.0,0.0,0.0,0.0,0.0,0.0,0.0
2.041,53,2,41000000,base_footprint,0.003605932054116066,0.0014180778731501854,-0.9316256153391189,0.36339881556380327,0.0,0.0,0.0,0.0,0.0,0.0,0.0,0.0,0.0,0.0001804565638516903,-0.00023092825148640316,0.03008713727045194,0.0,0.0,0.0,0.0,0.0,0.0,0.0,0.0,0.0,0.00019021948464002965,0.0019803603667475174,0.001539280769553435,0.0,0.0,0.0,0.0,0.0,0.0,0.0,0.0,0.0
2.075,54,2,75000000,base_footprint,0.003596383451099461,0.0014105097572688088,-0.9314460756390752,0.3638588801511698,0.0,0.0,0.0,0.0,0.0,0.0,0.0,0.0,0.0,-0.00040600656512442397,0.0010976987095369928,0.028073001984386132,0.0,0.0,0.0,0.0,0.0,0.0,0.0,0.0,0.0,-0.011529778667478261,-0.05491390587782531,-0.0012704727591055735,0.0,0.0,0.0,0.0,0.0,0.0,0.0,0.0,0.0
2.109,55,2,109000000,base_footprint,0.0035841955191781914,0.001410663831075185,-0.9312674318913472,0.3643159808031085,0.0,0.0,0.0,0.0,0.0,0.0,0.0,0.0,0.0,-0.0011268851571761443,-0.0024442224213260394,0.029298305378639835,0.0,0.0,0.0,0.0,0.0,0.0,0.0,0.0,0.0,-0.00693572115856423,0.05595774692028041,-0.0033692282638609398,0.0,0.0,0.0,0.0,0.0,0.0,0.0,0.0,0.0
2.143,56,2,143000000,base_footprint,0.003583959545990959,0.0014163804970442843,-0.931087392951716,0.36477584320598483,0.0,0.0,0.0,0.0,0.0,0.0,0.0,0.0,0.0,0.00031084409098982457,-0.002036428823660315,0.03047736859656853,0.0,0.0,0.0,0.0,0.0,0.0,0.0,0.0,0.0,0.013839459725465797,0.2262783960625191,0.005304888840392815,0.0,0.0,0.0,0.0,0.0,0.0,0.0,0.0,0.0
2.177,57,2,177000000,base_footprint,0.0036020338761766023,0.0014209800266502292,-0.9308801656369678,0.3653041518945689,0.0,0.0,0.0,0.0,0.0,0.0,0.0,0.0,0.0,0.0013453327856400164,0.0007318802198794501,0.027285046180646012,0.0,0.0,0.0,0.0,0.0,0.0,0.0,0.0,0.0,-0.027247485032363378,-0.23893487791503065,0.0022009972843053233,0.0,0.0,0.0,0.0,0.0,0.0,0.0,0.0,0.0
2.211,58,2,211000000,base_footprint,0.003596349910610269,0.0014227807522845825,-0.930742996905881,0.3656535459597112,0.0,0.0,0.0,0.0,0.0,0.0,0.0,0.0,0.0,0.00038820139336028187,-6.38416512248988e-05,0.021844590585101215,0.0,0.0,0.0,0.0,0.0,0.0,0.0,0.0,0.0,-0.005004951954364109,-0.008438116061892145,-0.0026233994807155978,0.0,0.0,0.0,0.0,0.0,0.0,0.0,0.0,0.0
2.245,59,2,245000000,base_footprint,0.003592376813712485,0.0014219408612155637,-0.9306083951059955,0.3659960216604261,0.0,0.0,0.0,0.0,0.0,0.0,0.0,0.0,0.0,0.00022335421195007814,-5.9986319926620804e-05,0.021470843251035286,0.0,0.0,0.0,0.0,0.0,0.0,0.0,0.0,0.0,-0.00422318964828234,0.005425863104115939,-0.00026509125631528265,0.0,0.0,0.0,0.0,0.0,0.0,0.0,0.0,0.0
2.279,60,2,279000000,base_footprint,0.0035897931388479388,0.0014228173169235471,-0.9303913545221357,0.3665474272267759,0.0,0.0,0.0,0.0,0.0,0.0,0.0,0.0,0.0,-6.144461391074086e-05,-0.00023623006213980495,0.04666327226466616,0.0,0.0,0.0,0.0,0.0,0.0,0.0,0.0,0.0,-0.006834519577441654,-0.0010630044316536356,-0.0002694258549298631,0.0,0.0,0.0,0.0,0.0,0.0,0.0,0.0,0.0
2.313,61,2,313000000,base_footprint,0.0035884373418444493,0.0014253361141603497,-0.9301022936293474,0.3672802947611437,0.0,0.0,0.0,0.0,0.0,0.0,0.0,0.0,0.0,-7.337328231964436e-05,-0.0002032333694593391,0.04615295556380085,0.0,0.0,0.0,0.0,0.0,0.0,0.0,0.0,0.0,-0.00940549436554933,0.006408468116203948,-9.911185410780033e-05,0.0,0.0,0.0,0.0,0.0,0.0,0.0,0.0,0.0
2.347,62,2,347000000,base_footprint,0.0035882542130294104,0.0014284454366809076,-0.9298150850996734,0.3680067818619984,0.0,0.0,0.0,0.0,0.0,0.0,0.0,0.0,0.0,-0.00014546315023991299,-0.00020674565418745457,0.045773764088235455,0.0,0.0,0.0,0.0,0.0,0.0,0.0,0.0,0.0,-0.009108656539758685,0.006043607107631259,-0.0001772173029981167,0.0,0.0,0.0,0.0,0.0,0.0,0.0,0.0,0.0
2.3810000000000002,63,2,381000000,base_footprint,0.0035861721618891933,0.001431723267240442,-0.9294928915690439,0.36881981245633905,0.0,0.0,0.0,0.0,0.0,0.0,0.0,0.0,0.0,-0.0010771910766551832,-0.0012184589837734793,0.08559280237524952,0.0,0.0,0.0,0.0,0.0,0.0,0.0,0.0,0.0,0.009170592073622821,0.3329364096557093,0.0017311130334553878,0.0,0.0,0.0,0.0,0.0,0.0,0.0,0.0,0.0
2.415,64,2,415000000,base_footprint,0.0035912209862608738,0.001439696189535623,-0.9289503579724356,0.370184093161218,0.0,0.0,0.0,0.0,0.0,0.0,0.0,0.0,0.0,-0.0006142045258091164,-0.0004264225977352792,0.08608303816572344,0.0,0.0,0.0,0.0,0.0,0.0,0.0,0.0,0.0,-0.017711017310113108,0.008356252865855018,-0.0004947465672844588,0.0,0.0,0.0,0.0,0.0,0.0,0.0,0.0,0.0
2.449,65,2,449000000,base_footprint,0.0035932879746104177,0.00144653846455857,-0.928408902993773,0.37153990990188573,0.0,0.0,0.0,0.0,0.0,0.0,0.0,0.0,0.0,-0.0005725511903236227,-0.00043377683675937856,0.08567570456228543,0.0,0.0,0.0,0.0,0.0,0.0,0.0,0.0,0.0,-0.017731610312208036,0.004293833736580161,-0.00021171881608160166,0.0,0.0,0.0,0.0,0.0,0.0,0.0,0.0,0.0
2.483,66,2,483000000,base_footprint,0.003582581692608022,0.0014581356281080486,-0.9279419916840471,0.37270457337997603,0.0,0.0,0.0,0.0,0.0,0.0,0.0,0.0,0.0,-0.000190642263497922,-0.00046390040334751993,0.03530190765745059,0.0,0.0,0.0,0.0,0.0,0.0,0.0,0.0,0.0,-0.025045493969296923,-0.20522456083213964,-0.0006989752913776142,0.0,0.0,0.0,0.0,0.0,0.0,0.0,0.0,0.0
2.517,67,2,517000000,base_footprint,0.0035919831164226462,0.0014607409404881742,-0.927683630311094,0.3733470850911064,0.0,0.0,0.0,0.0,0.0,0.0,0.0,0.0,0.0,7.961052620830401e-05,-0.00012787703185012799,0.07102092852038759,0.0,0.0,0.0,0.0,0.0,0.0,0.0,0.0,0.0,-0.010526735093378183,-0.13653886001004448,-0.00046018336468844315,0.0,0.0,0.0,0.0,0.0,0.0,0.0,0.0,0.0
2.551,68,2,551000000,base_footprint,0.003585290639440849,0.0014572007845942664,-0.927316197684563,0.3742588566336789,0.0,0.0,0.0,0.0,0.0,0.0,0.0,0.0,0.0,0.00010204181798051251,-0.0001034271347643149,0.04526080937174767,0.0,0.0,0.0,0.0,0.0,0.0,0.0,0.0,0.0,-0.011722793282861708,-0.025765256844287973,-0.00015691574236592506,0.0,0.0,0.0,0.0,0.0,0.0,0.0,0.0,0.0
2.585,69,2,585000000,base_footprint,0.003569108304614266,0.0014542657116730655,-0.9270017352818095,0.37503723730006316,0.0,0.0,0.0,0.0,0.0,0.0,0.0,0.0,0.0,0.000922273577857282,-0.0026861367758928673,0.06129230870308765,0.0,0.0,0.0,0.0,0.0,0.0,0.0,0.0,0.0,-0.022596738833601852,-0.007380355754665173,0.0033458310209811106,0.0,0.0,0.0,0.0,0.0,0.0,0.0,0.0,0.0
2.6189999999999998,70,2,619000000,base_footprint,0.0035735047299682624,0.0014515197586893514,-0.9265465208854342,0.3761604282609122,0.0,0.0,0.0,0.0,0.0,0.0,0.0,0.0,0.0,-0.0014697652709450546,0.0007801865624056071,0.07644213587053342,0.0,0.0,0.0,0.0,0.0,0.0,0.0,0.0,0.0,-0.0041751697576175376,0.15837495905775645,-0.005152921632209368,0.0,0.0,0.0,0.0,0.0,0.0,0.0,0.0,0.0
2.653,71,2,653000000,base_footprint,0.0035800199645383266,0.0014614690875429544,-0.9262558630705213,0.376875475047984,0.0,0.0,0.0,0.0,0.0,0.0,0.0,0.0,0.0,-0.0019998373892056035,-0.001667503952732137,0.009817123723225605,0.0,0.0,0.0,0.0,0.0,0.0,0.0,0.0,0.0,-0.0039607416295276004,0.19228124662035773,-0.0011766513106256167,0.0,0.0,0.0,0.0,0.0,0.0,0.0,0.0,0.0
2.6870000000000003,72,2,687000000,base_footprint,0.0035801546950438505,0.001465368344845755,-0.9263519250334603,0.3766392785873187,0.0,0.0,0.0,0.0,0.0,0.0,0.0,0.0,0.0,0.0002582030841987008,2.7459124210931318e-05,-0.021265891168606145,0.0,0.0,0.0,0.0,0.0,0.0,0.0,0.0,0.0,0.0017301510660224246,0.018480448521450275,0.004535190777924371,0.0,0.0,0.0,0.0,0.0,0.0,0.0,0.0,0.0
2.721,73,2,721000000,base_footprint,0.003577352875286728,0.0014621730476217453,-0.9264903333504458,0.37629872017396543,0.0,0.0,0.0,0.0,0.0,0.0,0.0,0.0,0.0,0.0004981962324679787,0.00020699502015649346,-0.021806289030362892,0.0,0.0,0.0,0.0,0.0,0.0,0.0,0.0,0.0,0.0044471074706732856,0.005880664550934991,0.0005698896334157266,0.0,0.0,0.0,0.0,0.0,0.0,0.0,0.0,0.0
2.755,74,2,755000000,base_footprint,0.0035759536854314687,0.0014591538218376447,-0.9266314637025561,0.3759510791337381,0.0,0.0,0.0,0.0,0.0,0.0,0.0,0.0,0.0,0.0004004271152700672,0.00018989749779251523,-0.022295812304576987,0.0,0.0,0.0,0.0,0.0,0.0,0.0,0.0,0.0,0.00500441801505046,0.005615016850946722,-0.0001327924405997656,0.0,0.0,0.0,0.0,0.0,0.0,0.0,0.0,0.0
2.789,75,2,789000000,base_footprint,0.0035757992857020702,0.0014575753116052245,-0.926724975803606,0.3757205189439157,0.0,0.0,0.0,0.0,0.0,0.0,0.0,0.0,0.0,0.0002607334740221245,0.00012519640688027868,-0.013221937638767747,0.0,0.0,0.0,0.0,0.0,0.0,0.0,0.0,0.0,0.003426338990708438,0.0031667840967495586,-0.00014100391650386353,0.0,0.0,0.0,0.0,0.0,0.0,0.0,0.0,0.0
2.823,76,2,823000000,base_footprint,0.003576998284258912,0.0014569469137305296,-0.9268111118401342,0.3755079830824097,0.0,0.0,0.0,0.0,0.0,0.0,0.0,0.0,0.0,0.00018835142876931832,0.00011647019678180523,-0.013716447160922386,0.0,0.0,0.0,0.0,0.0,0.0,0.0,0.0,0.0,0.0032828721112941202,0.005660808029234353,-0.00011510799695135629,0.0,0.0,0.0,0.0,0.0,0.0,0.0,0.0,0.0
2.857,77,2,857000000,base_footprint,0.0035796239308404044,0.0014571412363283422,-0.926900314797623,0.3752877155729968,0.0,0.0,0.0,0.0,0.0,0.0,0.0,0.0,0.0,9.106910203592945e-05,0.00010801117139705617,-0.014204879569896913,0.0,0.0,0.0,0.0,0.0,0.0,0.0,0.0,0.0,0.0033960614135569982,0.005486556039012673,-0.00017200426977066657,0.0,0.0,0.0,0.0,0.0,0.0,0.0,0.0,0.0
2.89,78,2,891000000,base_footprint,0.003582908609801256,0.001460427647439326,-0.9267591841809517,0.37563605318610904,0.0,0.0,0.0,0.0,0.0,0.0,0.0,0.0,0.0,-0.00028764193416895323,-0.00012205472846195733,0.02678062164659708,0.0,0.0,0.0,0.0,0.0,0.0,0.0,0.0,0.0,-0.004647160754997397,-0.0056684731961662484,-0.0003961189755174282,0.0,0.0,0.0,0.0,0.0,0.0,0.0,0.0,0.0
2.925,79,2,925000000,base_footprint,0.003586371764097333,0.0014640480697429238,-0.926589733691572,0.3760537992338341,0.0,0.0,0.0,0.0,0.0,0.0,0.0,0.0,0.0,-0.00019241057297126091,-0.00015702127715588033,0.026137049530862797,0.0,0.0,0.0,0.0,0.0,0.0,0.0,0.0,0.0,-0.0038958174748726887,0.004326344334153086,-4.927046433594765e-05,0.0,0.0,0.0,0.0,0.0,0.0,0.0,0.0,0.0
2.959,80,2,959000000,base_footprint,0.003588167323415863,0.0014669276339186047,-0.9264228957804305,0.3764645950848203,0.0,0.0,0.0,0.0,0.0,0.0,0.0,0.0,0.0,-0.0001499523094521854,-0.00014167998106417719,0.025975107976626707,0.0,0.0,0.0,0.0,0.0,0.0,0.0,0.0,0.0,-0.005018054981213379,-0.0014035297198148602,3.802386060427839e-05,0.0,0.0,0.0,0.0,0.0,0.0,0.0,0.0,0.0
2.9930000000000003,81,2,993000000,base_footprint,0.0035877604550245655,0.0014674817384819753,-0.9265143951042031,0.3762393521908061,0.0,0.0,0.0,0.0,0.0,0.0,0.0,0.0,0.0,0.00043993094179070336,-5.815190891375729e-07,-0.014314964259130626,0.0,0.0,0.0,0.0,0.0,0.0,0.0,0.0,0.0,0.002560230947065004,-0.0063507846626735635,0.0006448798253087326,0.0,0.0,0.0,0.0,0.0,0.0,0.0,0.0,0.0
3.027,82,3,27000000,base_footprint,0.0035816784141302774,0.0014638083935916639,-0.9266488787691546,0.37590807961600603,0.0,0.0,0.0,0.0,0.0,0.0,0.0,0.0,0.0,0.0004848494024072285,0.00023051892280652946,-0.03175358520040354,0.0,0.0,0.0,0.0,0.0,0.0,0.0,0.0,0.0,0.001841379200259577,-0.04133362705738831,-0.00023338845282387614,0.0,0.0,0.0,0.0,0.0,0.0,0.0,0.0,0.0
3.061,83,3,61000000,base_footprint,0.00358645721229468,0.0014607623977612265,-0.9267916282892223,0.3755559628482736,0.0,0.0,0.0,0.0,0.0,0.0,0.0,0.0,0.0,-0.0009569317658734448,0.002002954370290891,-0.009279087704264137,0.0,0.0,0.0,0.0,0.0,0.0,0.0,0.0,0.0,0.0017096447894785222,-0.028127941217898612,-0.0020436433049169337,0.0,0.0,0.0,0.0,0.0,0.0,0.0,0.0,0.0
3.095,84,3,95000000,base_footprint,0.0035899153661872758,0.0014634123604765406,-0.9269773025315723,0.37509738938469955,0.0,0.0,0.0,0.0,0.0,0.0,0.0,0.0,0.0,0.000366656160525923,7.676593734429357e-05,-0.042405299613226324,0.0,0.0,0.0,0.0,0.0,0.0,0.0,0.0,0.0,0.006699456418078752,0.05953100294610098,0.0020747765370223168,0.0,0.0,0.0,0.0,0.0,0.0,0.0,0.0,0.0
3.129,85,3,129000000,base_footprint,0.0035870409013706236,0.0014588953839731417,-0.927221452823039,0.3744935008602467,0.0,0.0,0.0,0.0,0.0,0.0,0.0,0.0,0.0,0.0005194644153297408,9.696786448105938e-05,-0.03773559788904395,0.0,0.0,0.0,0.0,0.0,0.0,0.0,0.0,0.0,0.010762541904500132,-0.00768703297323297,0.00024862779330590135,0.0,0.0,0.0,0.0,0.0,0.0,0.0,0.0,0.0
3.163,86,3,163000000,base_footprint,0.003583644912212041,0.0014600973412013999,-0.9274509501584255,0.3739248061510913,0.0,0.0,0.0,0.0,0.0,0.0,0.0,0.0,0.0,-0.00017483027989499363,-0.001491342308046081,0.0001293243361601253,0.0,0.0,0.0,0.0,0.0,0.0,0.0,0.0,0.0,0.005581004770296999,-0.011142740247731618,0.00121991030257745,0.0,0.0,0.0,0.0,0.0,0.0,0.0,0.0,0.0
3.197,87,3,197000000,base_footprint,0.0035791989266246225,0.0014555884872130844,-0.927218949220263,0.3744997874553081,0.0,0.0,0.0,0.0,0.0,0.0,0.0,0.0,0.0,0.0002437138052397205,-0.00012209610061300494,0.03728264525620207,0.0,0.0,0.0,0.0,0.0,0.0,0.0,0.0,0.0,-0.005447946539525999,0.002314695807252412,-0.0008110523399239356,0.0,0.0,0.0,0.0,0.0,0.0,0.0,0.0,0.0
3.231,88,3,231000000,base_footprint,0.0035765314802118013,0.001456366031396959,-0.9269826132056941,0.37508442014418036,0.0,0.0,0.0,0.0,0.0,0.0,0.0,0.0,0.0,5.873997980345366e-05,-0.00013212541043265528,0.036926441711466626,0.0,0.0,0.0,0.0,0.0,0.0,0.0,0.0,0.0,-0.007912238689480466,0.005937142558938255,-0.00030594110192437877,0.0,0.0,0.0,0.0,0.0,0.0,0.0,0.0,0.0
3.265,89,3,265000000,base_footprint,0.003574992987670888,0.001457061005653206,-0.9267764992956828,0.37559341947324265,0.0,0.0,0.0,0.0,0.0,0.0,0.0,0.0,0.0,0.0003446595366504755,-0.000294577529047633,-0.0023709416163300526,0.0,0.0,0.0,0.0,0.0,0.0,0.0,0.0,0.0,-0.0057824003098508716,0.012572123962739122,-0.00011143904953686936,0.0,0.0,0.0,0.0,0.0,0.0,0.0,0.0,0.0
3.299,90,3,299000000,base_footprint,0.0035768625831565917,0.0014577822317943493,-0.9268029731156546,0.37552806812408723,0.0,0.0,0.0,0.0,0.0,0.0,0.0,0.0,0.0,0.0001227272848314814,6.971869715499274e-05,-0.004071033286976153,0.0,0.0,0.0,0.0,0.0,0.0,0.0,0.0,0.0,7.818696296445996e-06,0.00973797774223876,-0.0001375266004484026,0.0,0.0,0.0,0.0,0.0,0.0,0.0,0.0,0.0
3.333,91,3,333000000,base_footprint,0.0035795378943553786,0.001458572471131814,-0.9268304715072035,0.37546016640989244,0.0,0.0,0.0,0.0,0.0,0.0,0.0,0.0,0.0,2.0692596770508753e-05,6.355496675399125e-05,-0.004513216643032479,0.0,0.0,0.0,0.0,0.0,0.0,0.0,0.0,0.0,0.0012592422693169063,0.005506955032372132,-0.0001947108521851604,0.0,0.0,0.0,0.0,0.0,0.0,0.0,0.0,0.0
3.367,92,3,367000000,base_footprint,0.003583656144429363,0.001457562648964589,-0.9268876680788949,0.37531890930651407,0.0,0.0,0.0,0.0,0.0,0.0,0.0,0.0,0.0,0.00033163598981840014,0.0007711514965394635,-0.03179163880176297,0.0,0.0,0.0,0.0,0.0,0.0,0.0,0.0,0.0,0.00326244154726908,0.010525530207762602,-7.54507395513574e-05,0.0,0.0,0.0,0.0,0.0,0.0,0.0,0.0,0.0
3.401,93,3,401000000,base_footprint,0.003588660764364666,0.0014598363617555415,-0.927078985941257,0.37484602734702394,0.0,0.0,0.0,0.0,0.0,0.0,0.0,0.0,0.0,0.00013465236445718917,0.00019525811010541645,-0.030024137143449488,0.0,0.0,0.0,0.0,0.0,0.0,0.0,0.0,0.0,0.006639655486671566,0.0024356992162649074,-0.00010424400566535447,0.0,0.0,0.0,0.0,0.0,0.0,0.0,0.0,0.0
3.435,94,3,435000000,base_footprint,0.003591795118629567,0.001459093521482632,-0.9272716778375769,0.3743690766265377,0.0,0.0,0.0,0.0,0.0,0.0,0.0,0.0,0.0,0.00017188624381793576,0.00015880751745805195,-0.030362333298924953,0.0,0.0,0.0,0.0,0.0,0.0,0.0,0.0,0.0,0.006683680234392444,-0.0051471415834235985,5.02812626797285e-05,0.0,0.0,0.0,0.0,0.0,0.0,0.0,0.0,0.0
3.469,95,3,469000000,base_footprint,0.0035912564899482943,0.0014560611461593132,-0.9274796559789175,0.37385354152126365,0.0,0.0,0.0,0.0,0.0,0.0,0.0,0.0,0.0,0.0008937230842636065,0.0013385080760877073,-0.046647529869247376,0.0,0.0,0.0,0.0,0.0,0.0,0.0,0.0,0.0,0.009021797018937874,-0.0033578727130392366,0.0015783857205773565,0.0,0.0,0.0,0.0,0.0,0.0,0.0,0.0,0.0
3.503,96,3,503000000,base_footprint,0.0035911201265473613,0.0014488450666599762,-0.9279018927684618,0.372804348285955,0.0,0.0,0.0,0.0,0.0,0.0,0.0,0.0,0.0,0.0007766673738587981,0.0005981781809959322,-0.07425060689356448,0.0,0.0,0.0,0.0,0.0,0.0,0.0,0.0,0.0,0.011204104193973274,-0.04126208944174909,-0.0010235746738290353,0.0,0.0,0.0,0.0,0.0,0.0,0.0,0.0,0.0
3.537,97,3,537000000,base_footprint,0.0035950105874804415,0.0014469597137652837,-0.9282696097007221,0.3718877705874878,0.0,0.0,0.0,0.0,0.0,0.0,0.0,0.0,0.0,-0.00021019646999714247,0.00035437981176384575,-0.04719404393926852,0.0,0.0,0.0,0.0,0.0,0.0,0.0,0.0,0.0,0.011863467948920486,-0.007532268428320764,-0.0019108917344779722,0.0,0.0,0.0,0.0,0.0,0.0,0.0,0.0,0.0
3.571,98,3,571000000,base_footprint,0.0035873508160161214,0.0014460156316313103,-0.928617756764907,0.37101765695695393,0.0,0.0,0.0,0.0,0.0,0.0,0.0,0.0,0.0,0.004795972043502516,-0.0013029308404481404,-0.055437171851186094,0.0,0.0,0.0,0.0,0.0,0.0,0.0,0.0,0.0,0.0022543904727324107,-0.13262579901480642,0.006811241363027827,0.0,0.0,0.0,0.0,0.0,0.0,0.0,0.0,0.0
3.605,99,3,605000000,base_footprint,0.0035908522494485532,0.0014447247080740064,-0.9285396724126248,0.37121300530355333,0.0,0.0,0.0,0.0,0.0,0.0,0.0,0.0,0.0,-0.0008855068822298068,-0.00042140991717981027,0.03467183212635873,0.0,0.0,0.0,0.0,0.0,0.0,0.0,0.0,0.0,-0.008011866671567003,-0.20692504466688047,-0.008311919896736221,0.0,0.0,0.0,0.0,0.0,0.0,0.0,0.0,0.0
3.6390000000000002,100,3,639000000,base_footprint,0.003587123832760999,0.001446904267751074,-0.928318736275161,0.37176519860139723,0.0,0.0,0.0,0.0,0.0,0.0,0.0,0.0,0.0,0.0001376735247172011,-0.00023637316620976273,0.03519043749363227,0.0,0.0,0.0,0.0,0.0,0.0,0.0,0.0,0.0,-0.009551749014541299,0.00361266170169536,0.0017754148426050332,0.0,0.0,0.0,0.0,0.0,0.0,0.0,0.0,0.0
3.672,101,3,673000000,base_footprint,0.0035778892679111727,0.001446129934956812,-0.9280909735547522,0.37233352282972054,0.0,0.0,0.0,0.0,0.0,0.0,0.0,0.0,0.0,-0.0026635422466648176,-0.0012789709481564329,0.048220938257730994,0.0,0.0,0.0,0.0,0.0,0.0,0.0,0.0,0.0,0.0021275075785218284,0.21639800224084668,-0.003015651958427177,0.0,0.0,0.0,0.0,0.0,0.0,0.0,0.0,0.0
3.707,102,3,707000000,base_footprint,0.0035785601221005026,0.001450837102792095,-0.9275111016042583,0.3737756618347548,0.0,0.0,0.0,0.0,0.0,0.0,0.0,0.0,0.0,-0.00017632199181218613,-0.0004692976301264154,0.09829050034963657,0.0,0.0,0.0,0.0,0.0,0.0,0.0,0.0,0.0,-0.014385469525346625,0.11925210442860981,0.004790522432778584,0.0,0.0,0.0,0.0,0.0,0.0,0.0,0.0,0.0
3.74,103,3,741000000,base_footprint,0.0035758030490562033,0.0014561983242942123,-0.9268864673843945,0.3753219547251033,0.0,0.0,0.0,0.0,0.0,0.0,0.0,0.0,0.0,-0.00035904000191589315,-0.0004697106260876158,0.09793527813014759,0.0,0.0,0.0,0.0,0.0,0.0,0.0,0.0,0.0,-0.021062335094031662,0.006326413337978642,-0.0003580121804738888,0.0,0.0,0.0,0.0,0.0,0.0,0.0,0.0,0.0
3.775,104,3,775000000,base_footprint,0.0035751737643547935,0.0014593129291737754,-0.9265260404698651,0.3762108250297478,0.0,0.0,0.0,0.0,0.0,0.0,0.0,0.0,0.0,-0.00039338920327831417,-0.00017985776637502115,-0.026010765091894143,0.0,0.0,0.0,0.0,0.0,0.0,0.0,0.0,0.0,-0.016040508291394674,0.03994005738527173,-0.0010513865814528068,0.0,0.0,0.0,0.0,0.0,0.0,0.0,0.0,0.0
3.809,105,3,809000000,base_footprint,0.0035791412672901792,0.0014595882303226207,-0.9266868153957963,0.37581458928783523,0.0,0.0,0.0,0.0,0.0,0.0,0.0,0.0,0.0,0.00013176193480405295,0.00017365036243523386,-0.025167951304967347,0.0,0.0,0.0,0.0,0.0,0.0,0.0,0.0,0.0,0.009295955177774217,0.0037633627233269492,0.0008380449978683095,0.0,0.0,0.0,0.0,0.0,0.0,0.0,0.0,0.0
3.843,106,3,843000000,base_footprint,0.00358410364678607,0.0014600918737578785,-0.9268492195376381,0.375413833755817,0.0,0.0,0.0,0.0,0.0,0.0,0.0,0.0,0.0,3.0960069355183477e-06,0.0001660343925302582,-0.025672981572856093,0.0,0.0,0.0,0.0,0.0,0.0,0.0,0.0,0.0,0.006012141371531576,0.0047042020865908,-0.000239663015207369,0.0,0.0,0.0,0.0,0.0,0.0,0.0,0.0,0.0
3.877,107,3,877000000,base_footprint,0.0035878568734835146,0.0014618827330772424,-0.9268932334705106,0.37530510778366943,0.0,0.0,0.0,0.0,0.0,0.0,0.0,0.0,0.0,7.366587706249034e-05,0.00027290826916545374,0.013949667449349553,0.0,0.0,0.0,0.0,0.0,0.0,0.0,0.0,0.0,0.0036604644969350075,-0.007035874505504934,0.0001729693187242626,0.0,0.0,0.0,0.0,0.0,0.0,0.0,0.0,0.0
3.911,108,3,911000000,base_footprint,0.003589692847774156,0.0014634015700091508,-0.9268045259098892,0.3755240915228332,0.0,0.0,0.0,0.0,0.0,0.0,0.0,0.0,0.0,-5.9824807583140215e-05,-7.450147869492566e-05,0.01377840979923029,0.0,0.0,0.0,0.0,0.0,0.0,0.0,0.0,0.0,-0.003220317662659776,-0.004159017014286835,-0.0001660929506206684,0.0,0.0,0.0,0.0,0.0,0.0,0.0,0.0,0.0
3.9450000000000003,109,3,945000000,base_footprint,0.0035880914203429435,0.0014643885259575458,-0.9267189940099704,0.3757351291899028,0.0,0.0,0.0,0.0,0.0,0.0,0.0,0.0,0.0,0.0003025212040931236,-0.00013498484869007036,0.012401326341757352,0.0,0.0,0.0,0.0,0.0,0.0,0.0,0.0,0.0,-0.0008772381675957977,-0.010614110955433378,0.0006057586487656249,0.0,0.0,0.0,0.0,0.0,0.0,0.0,0.0,0.0
3.979,110,3,979000000,base_footprint,0.00357913036739336,0.0014554492513970483,-0.926648964765451,0.37590792435436593,0.0,0.0,0.0,0.0,0.0,0.0,0.0,0.0,0.0,-0.001964345001654302,-0.0011401385571240745,0.008886025401504847,0.0,0.0,0.0,0.0,0.0,0.0,0.0,0.0,0.0,-0.008490462979771182,-0.09041179387855591,-0.005417556601099595,0.0,0.0,0.0,0.0,0.0,0.0,0.0,0.0,0.0
4.013,111,4,13000000,base_footprint,0.0035813984896962566,0.0014610292960775392,-0.926734468037423,0.37569703848932423,0.0,0.0,0.0,0.0,0.0,0.0,0.0,0.0,0.0,0.00011658567756611465,0.00017627099973791042,-0.034664117631042816,0.0,0.0,0.0,0.0,0.0,0.0,0.0,0.0,0.0,-0.008266623284127791,-0.1989505108732766,0.0032193185524904576,0.0,0.0,0.0,0.0,0.0,0.0,0.0,0.0,0.0
4.047,112,4,47000000,base_footprint,0.0035888952930513726,0.0014595717946165618,-0.9269951296580414,0.37505335496569386,0.0,0.0,0.0,0.0,0.0,0.0,0.0,0.0,0.0,-0.00021749002182637405,0.0005491263480857264,-0.008367015086201617,0.0,0.0,0.0,0.0,0.0,0.0,0.0,0.0,0.0,0.0039552188014405215,-0.2907157407084118,-0.0016711426752461613,0.0,0.0,0.0,0.0,0.0,0.0,0.0,0.0,0.0
4.081,113,4,81000000,base_footprint,0.0035769064420236147,0.0014509337305726074,-0.9268151965374479,0.375497925425516,0.0,0.0,0.0,0.0,0.0,0.0,0.0,0.0,0.0,-0.0015920319583595346,0.0006502341762249394,0.0323118970668129,0.0,0.0,0.0,0.0,0.0,0.0,0.0,0.0,0.0,-0.0021137704495578953,0.07476241222928162,-0.0010883956478978168,0.0,0.0,0.0,0.0,0.0,0.0,0.0,0.0,0.0
4.115,114,4,115000000,base_footprint,0.003582633799539186,0.0014614872318203108,-0.9268785457224772,0.37534143159197797,0.0,0.0,0.0,0.0,0.0,0.0,0.0,0.0,0.0,0.0007498680051535092,-8.196410189108126e-05,-0.025849368150577923,0.0,0.0,0.0,0.0,0.0,0.0,0.0,0.0,0.0,0.0027711862625977163,0.15272213611320712,0.003288964701264917,0.0,0.0,0.0,0.0,0.0,0.0,0.0,0.0,0.0
4.149,115,4,149000000,base_footprint,0.0035799272691627946,0.0014581216550450641,-0.9270452087052805,0.37492964542507135,0.0,0.0,0.0,0.0,0.0,0.0,0.0,0.0,0.0,0.0005479344911255833,0.00023135749738293216,-0.026278873349368532,0.0,0.0,0.0,0.0,0.0,0.0,0.0,0.0,0.0,0.006883770357348988,0.004919145582443808,0.00015391485965532092,0.0,0.0,0.0,0.0,0.0,0.0,0.0,0.0,0.0
4.183,116,4,183000000,base_footprint,0.0035754064050694855,0.0014517877424854834,-0.9272830429153026,0.3743411106238888,0.0,0.0,0.0,0.0,0.0,0.0,0.0,0.0,0.0,-0.0017439766522396993,-0.0009848547005650759,-0.07627256365558684,0.0,0.0,0.0,0.0,0.0,0.0,0.0,0.0,0.0,0.019300441174329108,0.349021429072596,-0.0024796568710373132,0.0,0.0,0.0,0.0,0.0,0.0,0.0,0.0,0.0
4.217,117,4,217000000,base_footprint,0.003579956969175222,0.0014482645898122853,-0.9277871951232343,0.3730898109076936,0.0,0.0,0.0,0.0,0.0,0.0,0.0,0.0,0.0,0.0006542488223432716,0.0004838007091090624,-0.07963097380361803,0.0,0.0,0.0,0.0,0.0,0.0,0.0,0.0,0.0,0.018580782585882694,0.015652055792640666,0.00429136365364807,0.0,0.0,0.0,0.0,0.0,0.0,0.0,0.0,0.0
4.251,118,4,251000000,base_footprint,0.003582441653273042,0.001443361319538482,-0.928293146841554,0.3718291494045447,0.0,0.0,0.0,0.0,0.0,0.0,0.0,0.0,0.0,0.0005816103826700944,0.0004714433721533414,-0.08014016616364038,0.0,0.0,0.0,0.0,0.0,0.0,0.0,0.0,0.0,0.01801051492438493,0.004923121200736274,-3.745457356138057e-05,0.0,0.0,0.0,0.0,0.0,0.0,0.0,0.0,0.0
4.285,119,4,285000000,base_footprint,0.0035868129716287956,0.001442812368141434,-0.9285088432217035,0.3712901575914329,0.0,0.0,0.0,0.0,0.0,0.0,0.0,0.0,0.0,0.0007431301632148059,0.00010429282677191918,0.026555087978168697,0.0,0.0,0.0,0.0,0.0,0.0,0.0,0.0,0.0,-0.0070906394997154315,-0.3651684602934624,-0.0008569113317121352,0.0,0.0,0.0,0.0,0.0,0.0,0.0,0.0,0.0
4.319,120,4,319000000,base_footprint,0.0035873997141455307,0.001444849632974779,-0.9283422864680915,0.371706392369065,0.0,0.0,0.0,0.0,0.0,0.0,0.0,0.0,0.0,-0.00020335786324616773,-0.00010827979019311031,0.026096997611191483,0.0,0.0,0.0,0.0,0.0,0.0,0.0,0.0,0.0,-0.007006160609283312,0.007100829345911254,-0.0015600315860165661,0.0,0.0,0.0,0.0,0.0,0.0,0.0,0.0,0.0
4.353,121,4,353000000,base_footprint,0.0035913377731013195,0.0014486883288939744,-0.9281785096524293,0.372115113660438,0.0,0.0,0.0,0.0,0.0,0.0,0.0,0.0,0.0,-0.0002285105781906057,-0.0001358598946041469,0.025687951907765693,0.0,0.0,0.0,0.0,0.0,0.0,0.0,0.0,0.0,-0.004502011812207359,0.0039163719088727966,-0.00030501178600902555,0.0,0.0,0.0,0.0,0.0,0.0,0.0,0.0,0.0
4.3870000000000005,122,4,387000000,base_footprint,0.0035880406976806834,0.0014509418347291106,-0.9280383902785222,0.3724644505197691,0.0,0.0,0.0,0.0,0.0,0.0,0.0,0.0,0.0,-0.0008803874261684591,-0.0008406064643173506,0.0414689009940699,0.0,0.0,0.0,0.0,0.0,0.0,0.0,0.0,0.0,0.007250536820790854,0.28157083503976,0.0005353981530234624,0.0,0.0,0.0,0.0,0.0,0.0,0.0,0.0,0.0
4.421,123,4,421000000,base_footprint,0.0035931635027540093,0.0014567850198204829,-0.927638539744582,0.37345910958763356,0.0,0.0,0.0,0.0,0.0,0.0,0.0,0.0,0.0,-0.0003005784522364652,-0.0003283100945409172,0.06471893149022728,0.0,0.0,0.0,0.0,0.0,0.0,0.0,0.0,0.0,-0.0067334073070511105,0.05202761177425931,0.0014931142746235882,0.0,0.0,0.0,0.0,0.0,0.0,0.0,0.0,0.0
4.455,124,4,455000000,base_footprint,0.003586445444986588,0.0014598111488530485,-0.9272353013525305,0.37445921311427477,0.0,0.0,0.0,0.0,0.0,0.0,0.0,0.0,0.0,0.00034320880442722385,-0.00048296094151436706,0.05879659757272927,0.0,0.0,0.0,0.0,0.0,0.0,0.0,0.0,0.0,-0.011715666582835908,-0.018611949286833015,0.00106535894024098,0.0,0.0,0.0,0.0,0.0,0.0,0.0,0.0,0.0
4.489,125,4,489000000,base_footprint,0.00358300366917727,0.0014567025806641932,-0.9269480332131883,0.37516980665360056,0.0,0.0,0.0,0.0,0.0,0.0,0.0,0.0,0.0,-0.0008997661378093011,0.00030525817546045225,0.04701426748508592,0.0,0.0,0.0,0.0,0.0,0.0,0.0,0.0,0.0,-0.02423013740032013,-0.07955348245403839,-0.00315093073417201,0.0,0.0,0.0,0.0,0.0,0.0,0.0,0.0,0.0
4.523,126,4,523000000,base_footprint,0.0035853003430543393,0.0014625538705848175,-0.9265907552353146,0.37605129818958893,0.0,0.0,0.0,0.0,0.0,0.0,0.0,0.0,0.0,-0.0005652204020594159,-0.000985655339704788,0.04681927073579836,0.0,0.0,0.0,0.0,0.0,0.0,0.0,0.0,0.0,-0.008994330972498283,0.042784664001706475,0.0003415946388275079,0.0,0.0,0.0,0.0,0.0,0.0,0.0,0.0,0.0
4.557,127,4,557000000,base_footprint,0.0035837006213191923,0.0014677640108831016,-0.9263270950983363,0.3767002995025928,0.0,0.0,0.0,0.0,0.0,0.0,0.0,0.0,0.0,-3.073081157722328e-05,-0.00026928631570002687,0.041621323764665055,0.0,0.0,0.0,0.0,0.0,0.0,0.0,0.0,0.0,-0.0066925289738258426,0.020428548288724802,0.0016547370870126728,0.0,0.0,0.0,0.0,0.0,0.0,0.0,0.0,0.0
4.591,128,4,591000000,base_footprint,0.0035805768260597365,0.001467364627656471,-0.9262841145870452,0.376806004960558,0.0,0.0,0.0,0.0,0.0,0.0,0.0,0.0,0.0,4.623513112689311e-05,-6.997539819563476e-05,0.0017285911165562913,0.0,0.0,0.0,0.0,0.0,0.0,0.0,0.0,0.0,-0.0018469421039942592,0.01422149914770813,3.2073626018967245e-05,0.0,0.0,0.0,0.0,0.0,0.0,0.0,0.0,0.0
4.625,129,4,625000000,base_footprint,0.0035769337180394413,0.0014658762110316746,-0.9262735250862012,0.3768320759655333,0.0,0.0,0.0,0.0,0.0,0.0,0.0,0.0,0.0,0.00039600928843732454,8.851827457330414e-05,0.0015957570901339972,0.0,0.0,0.0,0.0,0.0,0.0,0.0,0.0,0.0,-0.0001536075958579184,0.0051235571787748395,0.0007110360168326249,0.0,0.0,0.0,0.0,0.0,0.0,0.0,0.0,0.0
4.659,130,4,659000000,base_footprint,0.003574485287245029,0.0014638419122545575,-0.9262646537771994,0.37685391252419326,0.0,0.0,0.0,0.0,0.0,0.0,0.0,0.0,0.0,0.0002964919942469348,7.5176525428358e-05,0.0012147768090823986,0.0,0.0,0.0,0.0,0.0,0.0,0.0,0.0,0.0,-0.00023991469224335024,0.005674371596286451,-0.00016641995878359148,0.0,0.0,0.0,0.0,0.0,0.0,0.0,0.0,0.0
4.693,131,4,693000000,base_footprint,0.0035742903779796,0.0014615510893978049,-0.9263978608238059,0.37652634938046975,0.0,0.0,0.0,0.0,0.0,0.0,0.0,0.0,0.0,0.00034649036750351663,0.00018826908415980025,-0.022234166307011242,0.0,0.0,0.0,0.0,0.0,0.0,0.0,0.0,0.0,0.004712022154667259,0.0117359090024722,-6.855049531133538e-05,0.0,0.0,0.0,0.0,0.0,0.0,0.0,0.0,0.0
4.727,132,4,727000000,base_footprint,0.003575401582218745,0.0014599849358885278,-0.9265417218888715,0.37617219799809504,0.0,0.0,0.0,0.0,0.0,0.0,0.0,0.0,0.0,0.0002623206736294898,0.00017921513636842375,-0.02269073232597376,0.0,0.0,0.0,0.0,0.0,0.0,0.0,0.0,0.0,0.005143538663984952,0.005635093973416839,-0.0001207352874770079,0.0,0.0,0.0,0.0,0.0,0.0,0.0,0.0,0.0
4.761,133,4,761000000,base_footprint,0.0035778136717857386,0.001459336676808502,-0.9266888865422762,0.3758094958151405,0.0,0.0,0.0,0.0,0.0,0.0,0.0,0.0,0.0,0.00023826312742903036,-0.00012900076283602326,-0.025878438217876994,0.0,0.0,0.0,0.0,0.0,0.0,0.0,0.0,0.0,0.0058560178519253565,0.0057695198734837435,-4.990319294090151e-05,0.0,0.0,0.0,0.0,0.0,0.0,0.0,0.0,0.0
4.795,134,4,795000000,base_footprint,0.0035822761559135483,0.0014588767558842068,-0.9268857325352403,0.3753236973583804,0.0,0.0,0.0,0.0,0.0,0.0,0.0,0.0,0.0,9.655583707996954e-05,0.00020602330536194634,-0.031107298867036507,0.0,0.0,0.0,0.0,0.0,0.0,0.0,0.0,0.0,0.0066486587276331725,0.006691755625537727,-0.0002851293396539127,0.0,0.0,0.0,0.0,0.0,0.0,0.0,0.0,0.0
4.829,135,4,829000000,base_footprint,0.0035876115064658724,0.0014593248740532652,-0.9270858278099844,0.374829117450161,0.0,0.0,0.0,0.0,0.0,0.0,0.0,0.0,0.0,0.00012709875484643543,0.00019770975485817007,-0.03163178796105387,0.0,0.0,0.0,0.0,0.0,0.0,0.0,0.0,0.0,0.007720389949182158,0.003231691669181552,-0.00013080839167454506,0.0,0.0,0.0,0.0,0.0,0.0,0.0,0.0,0.0
4.863,136,4,863000000,base_footprint,0.0035879032125017266,0.0014592561898064628,-0.9272883179047909,0.374327895032168,0.0,0.0,0.0,0.0,0.0,0.0,0.0,0.0,0.0,0.00522676773681016,-0.0017931373424047974,-0.02862827333303506,0.0,0.0,0.0,0.0,0.0,0.0,0.0,0.0,0.0,0.0032211235650210276,-0.03597919869964298,0.011844385779225485,0.0,0.0,0.0,0.0,0.0,0.0,0.0,0.0,0.0
4.897,137,4,897000000,base_footprint,0.0035930859250361633,0.0014568084896128494,-0.927295126164827,0.3743109889296836,0.0,0.0,0.0,0.0,0.0,0.0,0.0,0.0,0.0,-0.0022223647291182954,-0.0021928914429590633,0.038343789389419014,0.0,0.0,0.0,0.0,0.0,0.0,0.0,0.0,0.0,-0.0033629086421631538,-0.3219581790350693,-0.017770247167884015,0.0,0.0,0.0,0.0,0.0,0.0,0.0,0.0,0.0
4.931,138,4,931000000,base_footprint,0.003585203159715937,0.0014596153367204428,-0.9270402603415582,0.37494182421707545,0.0,0.0,0.0,0.0,0.0,0.0,0.0,0.0,0.0,0.0002647841038614057,-0.0004993133130635704,0.02858127505466097,0.0,0.0,0.0,0.0,0.0,0.0,0.0,0.0,0.0,-0.011976588066083508,-0.026280999646980337,0.004673310658785452,0.0,0.0,0.0,0.0,0.0,0.0,0.0,0.0,0.0
4.965,139,4,965000000,base_footprint,0.0035751145391828476,0.0014570423805574297,-0.9268931481078285,0.3753054590254346,0.0,0.0,0.0,0.0,0.0,0.0,0.0,0.0,0.0,0.0031936683100808596,0.0003246867851849492,0.033022157232288754,0.0,0.0,0.0,0.0,0.0,0.0,0.0,0.0,0.0,-0.01804705335439491,-0.04422234995164801,0.003588117779755572,0.0,0.0,0.0,0.0,0.0,0.0,0.0,0.0,0.0
4.9990000000000006,140,4,999000000,base_footprint,0.0035652435805102914,0.001452974763576171,-0.9265871362860199,0.37606044297668556,0.0,0.0,0.0,0.0,0.0,0.0,0.0,0.0,0.0,-0.0018629294980697087,0.00036310700192708554,0.06031082593586558,0.0,0.0,0.0,0.0,0.0,0.0,0.0,0.0,0.0,0.0016425032104530057,0.11259272445128467,-0.004849738399927455,0.0,0.0,0.0,0.0,0.0,0.0,0.0,0.0,0.0
5.033,141,5,33000000,base_footprint,0.003574219050423775,0.0014506537211030344,-0.9262642203050395,0.37685503147053584,0.0,0.0,0.0,0.0,0.0,0.0,0.0,0.0,0.0,0.0007967381678573726,0.00030307454880846386,0.0193754038062624,0.0,0.0,0.0,0.0,0.0,0.0,0.0,0.0,0.0,-0.00614835933889861,0.19910037917350473,0.002638826028764067,0.0,0.0,0.0,0.0,0.0,0.0,0.0,0.0,0.0
5.067,142,5,67000000,base_footprint,0.003594554590882187,0.0014713422166942923,-0.9262911694235242,0.37678851332992463,0.0,0.0,0.0,0.0,0.0,0.0,0.0,0.0,0.0,0.0025540179121194143,-2.6348422660688606e-05,-0.013456952074975718,0.0,0.0,0.0,0.0,0.0,0.0,0.0,0.0,0.0,-0.0019938397948549326,-0.08063116369595083,0.005443026431945838,0.0,0.0,0.0,0.0,0.0,0.0,0.0,0.0,0.0
5.101,143,5,101000000,base_footprint,0.0035624398968034103,0.0014542157376372731,-0.9264578761659218,0.37637879585425565,0.0,0.0,0.0,0.0,0.0,0.0,0.0,0.0,0.0,-0.004017927838456586,0.00015705594267025557,-0.032649291191186716,0.0,0.0,0.0,0.0,0.0,0.0,0.0,0.0,0.0,-0.0038718631439763895,-0.5468565342263166,-0.013685965536938492,0.0,0.0,0.0,0.0,0.0,0.0,0.0,0.0,0.0
5.135,144,5,135000000,base_footprint,0.0035765601209228125,0.0014608571082440408,-0.92659378660858,0.376043918621993,0.0,0.0,0.0,0.0,0.0,0.0,0.0,0.0,0.0,-0.0020392780069967025,0.00029003979103278926,-0.015484283366481277,0.0,0.0,0.0,0.0,0.0,0.0,0.0,0.0,0.0,0.011134569979447034,0.3738464480481001,0.004438466799568932,0.0,0.0,0.0,0.0,0.0,0.0,0.0,0.0,0.0
5.169,145,5,169000000,base_footprint,0.0035698669306428285,0.0014550082502459915,-0.9266950336065648,0.3757944300944561,0.0,0.0,0.0,0.0,0.0,0.0,0.0,0.0,0.0,-0.001480813828613947,0.00022489701355821173,-0.01768377762249229,0.0,0.0,0.0,0.0,0.0,0.0,0.0,0.0,0.0,0.009798334969283784,0.19030080300649269,0.0015465871674925275,0.0,0.0,0.0,0.0,0.0,0.0,0.0,0.0,0.0
5.203,146,5,203000000,base_footprint,0.0035762689743027254,0.0014559434534747462,-0.9268841916072459,0.3753275714325638,0.0,0.0,0.0,0.0,0.0,0.0,0.0,0.0,0.0,-0.0008160411925220291,0.0003149680209467684,-0.03478248986451817,0.0,0.0,0.0,0.0,0.0,0.0,0.0,0.0,0.0,0.010121618241740911,0.16642915935814673,0.0014869747052605785,0.0,0.0,0.0,0.0,0.0,0.0,0.0,0.0,0.0
5.237,147,5,237000000,base_footprint,0.0035789557154036035,0.001454395715862216,-0.9271069913040235,0.3747768702632144,0.0,0.0,0.0,0.0,0.0,0.0,0.0,0.0,0.0,0.0002757057397201384,0.00022857478482530994,-0.03512719748077313,0.0,0.0,0.0,0.0,0.0,0.0,0.0,0.0,0.0,0.008012428408170628,0.004271978322648609,0.0011209840370933518,0.0,0.0,0.0,0.0,0.0,0.0,0.0,0.0,0.0
5.27,148,5,271000000,base_footprint,0.003582805300606459,0.0014548888648079413,-0.9272777198119748,0.3743542134728468,0.0,0.0,0.0,0.0,0.0,0.0,0.0,0.0,0.0,5.6981005559682166e-05,0.0007010523612093586,-0.005699132200580212,0.0,0.0,0.0,0.0,0.0,0.0,0.0,0.0,0.0,0.007132916203323493,-0.003185229068334104,5.534835521766252e-05,0.0,0.0,0.0,0.0,0.0,0.0,0.0,0.0,0.0
5.305,149,5,305000000,base_footprint,0.0035874179102890506,0.001456066972315342,-0.9273200993510485,0.37424917320051726,0.0,0.0,0.0,0.0,0.0,0.0,0.0,0.0,0.0,-0.00015534573197193558,-1.2635816132200778e-05,-0.006929862540717717,0.0,0.0,0.0,0.0,0.0,0.0,0.0,0.0,0.0,0.0011047212827960205,0.005124653311398996,-0.0006885375806454612,0.0,0.0,0.0,0.0,0.0,0.0,0.0,0.0,0.0
5.339,150,5,339000000,base_footprint,0.003590514125611916,0.0014565912655729268,-0.9273660122988427,0.3741353575688104,0.0,0.0,0.0,0.0,0.0,0.0,0.0,0.0,0.0,3.949767969426836e-06,4.833386247679811e-05,-0.007560340794343155,0.0,0.0,0.0,0.0,0.0,0.0,0.0,0.0,0.0,0.0023724975440706252,0.0004814226258416699,0.0001930545053501353,0.0,0.0,0.0,0.0,0.0,0.0,0.0,0.0,0.0
5.373,151,5,373000000,base_footprint,0.0035738646568084466,0.0014483071373676097,-0.9274021877675745,0.37404586887408237,0.0,0.0,0.0,0.0,0.0,0.0,0.0,0.0,0.0,-0.0029697899222635373,-0.0008901682953971945,0.001048423261419147,0.0,0.0,0.0,0.0,0.0,0.0,0.0,0.0,0.0,-0.004609167970581189,-0.1523908744132462,-0.0027933451370647823,0.0,0.0,0.0,0.0,0.0,0.0,0.0,0.0,0.0
5.407,152,5,407000000,base_footprint,0.0035945822563983073,0.0014560159323281602,-0.9273878015750737,0.3740813073193563,0.0,0.0,0.0,0.0,0.0,0.0,0.0,0.0,0.0,0.0005277548997975827,0.0010289233919730978,-0.00930913450254407,0.0,0.0,0.0,0.0,0.0,0.0,0.0,0.0,0.0,-0.004886173986022202,-0.19532940414378736,0.002036799983718742,0.0,0.0,0.0,0.0,0.0,0.0,0.0,0.0,0.0
5.441,153,5,441000000,base_footprint,0.0035910655384273227,0.001450426441807975,-0.9275224645039922,0.3737473456118132,0.0,0.0,0.0,0.0,0.0,0.0,0.0,0.0,0.0,0.0004650113738477098,0.00023172378692271577,-0.020792009001146545,0.0,0.0,0.0,0.0,0.0,0.0,0.0,0.0,0.0,-0.0008619848546480499,-0.04967622700217916,-0.0006638596192715105,0.0,0.0,0.0,0.0,0.0,0.0,0.0,0.0,0.0
5.475,154,5,475000000,base_footprint,0.0035679918828070505,0.0014459903820176164,-0.9275324550809952,0.3737227894003267,0.0,0.0,0.0,0.0,0.0,0.0,0.0,0.0,0.0,0.0032108513240291154,0.00017997601765582817,0.010563553182994418,0.0,0.0,0.0,0.0,0.0,0.0,0.0,0.0,0.0,-0.007109801878095247,0.03930431202857035,0.0014861689941139554,0.0,0.0,0.0,0.0,0.0,0.0,0.0,0.0,0.0
5.509,155,5,509000000,base_footprint,0.003581770028517589,0.0014426533957903969,-0.9274455574256498,0.3739382672127422,0.0,0.0,0.0,0.0,0.0,0.0,0.0,0.0,0.0,0.000261945946539275,0.00015942746689373506,0.0021662276809077175,0.0,0.0,0.0,0.0,0.0,0.0,0.0,0.0,0.0,0.012780256005882298,0.19669069020991964,-0.0001320750698654171,0.0,0.0,0.0,0.0,0.0,0.0,0.0,0.0,0.0
5.543,156,5,543000000,base_footprint,0.003588265852660148,0.0014536619730724947,-0.9276658018287811,0.3733914451783855,0.0,0.0,0.0,0.0,0.0,0.0,0.0,0.0,0.0,0.001113898541982848,-4.5756184832717044e-05,-0.049701582476811175,0.0,0.0,0.0,0.0,0.0,0.0,0.0,0.0,0.0,0.010755924653453257,0.13542089907125213,0.0013168474938238524,0.0,0.0,0.0,0.0,0.0,0.0,0.0,0.0,0.0
5.577,157,5,577000000,base_footprint,0.0035847869980023877,0.0014502047029529678,-0.9278793808905081,0.3728604306261871,0.0,0.0,0.0,0.0,0.0,0.0,0.0,0.0,0.0,0.00024824924115355175,0.00012700114018950287,-0.014587182245922939,0.0,0.0,0.0,0.0,0.0,0.0,0.0,0.0,0.0,0.009527619378872984,-0.00555044051032922,-0.0005092631097751503,0.0,0.0,0.0,0.0,0.0,0.0,0.0,0.0,0.0
5.611,158,5,611000000,base_footprint,0.0035820523288298553,0.0014472480599307515,-0.9279748224186274,0.3726228701130454,0.0,0.0,0.0,0.0,0.0,0.0,0.0,0.0,0.0,0.00042208214908969925,0.000151345797026702,-0.01528814831304359,0.0,0.0,0.0,0.0,0.0,0.0,0.0,0.0,0.0,0.003285796749389981,0.00587882347176793,0.0002569317968372589,0.0,0.0,0.0,0.0,0.0,0.0,0.0,0.0,0.0
5.645,159,5,645000000,base_footprint,0.0035810575324537156,0.0014451590042800755,-0.9280732308039248,0.3723777192684421,0.0,0.0,0.0,0.0,0.0,0.0,0.0,0.0,0.0,0.0003319666717748793,0.00013936185623233643,-0.01575997864367238,0.0,0.0,0.0,0.0,0.0,0.0,0.0,0.0,0.0,0.003685364927044723,0.005626228543046195,-0.00012726425072241086,0.0,0.0,0.0,0.0,0.0,0.0,0.0,0.0,0.0
5.679,160,5,679000000,base_footprint,0.003581617970903096,0.0014437274730376693,-0.9281995705786031,0.3720626893970837,0.0,0.0,0.0,0.0,0.0,0.0,0.0,0.0,0.0,0.00029374517553620893,0.00017074961155318766,-0.02367866545106802,0.0,0.0,0.0,0.0,0.0,0.0,0.0,0.0,0.0,0.004641801061627372,0.007615050403384404,-0.00010825062690883314,0.0,0.0,0.0,0.0,0.0,0.0,0.0,0.0,0.0
5.713,161,5,713000000,base_footprint,0.0035835390343050217,0.0014428570104992417,-0.928350628546672,0.3716856022078823,0.0,0.0,0.0,0.0,0.0,0.0,0.0,0.0,0.0,0.00021166925420221296,0.00015894635863517175,-0.024116145562432648,0.0,0.0,0.0,0.0,0.0,0.0,0.0,0.0,0.0,0.005727319244741875,0.005373009102947667,-0.00011700894109668794,0.0,0.0,0.0,0.0,0.0,0.0,0.0,0.0,0.0
5.747,162,5,747000000,base_footprint,0.003586997979763988,0.0014428833489257902,-0.9285044651842815,0.37130110377695635,0.0,0.0,0.0,0.0,0.0,0.0,0.0,0.0,0.0,0.00010315326863598166,0.00014863607169256384,-0.024576774075242794,0.0,0.0,0.0,0.0,0.0,0.0,0.0,0.0,0.0,0.0057919537460594875,0.005165407257970383,-0.0001871235350339864,0.0,0.0,0.0,0.0,0.0,0.0,0.0,0.0,0.0
5.781,163,5,781000000,base_footprint,0.0035922313852929087,0.001444084310149482,-0.9286306430346851,0.37098536266430643,0.0,0.0,0.0,0.0,0.0,0.0,0.0,0.0,0.0,-0.00012518496191843878,0.00010105734024489165,-0.01680835625977449,0.0,0.0,0.0,0.0,0.0,0.0,0.0,0.0,0.0,0.005015367540817562,0.001901831519510176,-0.00038920265022348037,0.0,0.0,0.0,0.0,0.0,0.0,0.0,0.0,0.0
5.815,164,5,815000000,base_footprint,0.003595745110017031,0.0014440094280238544,-0.9287373697430663,0.3707180647022835,0.0,0.0,0.0,0.0,0.0,0.0,0.0,0.0,0.0,5.2240526035100835e-05,0.00010584487639421494,-0.01709205235091022,0.0,0.0,0.0,0.0,0.0,0.0,0.0,0.0,0.0,0.004492529066688131,0.0006833441629215937,0.00019183301358175256,0.0,0.0,0.0,0.0,0.0,0.0,0.0,0.0,0.0
5.849,165,5,849000000,base_footprint,0.0035982836630982923,0.0014440427535496474,-0.9288448765146569,0.3704485962555098,0.0,0.0,0.0,0.0,0.0,0.0,0.0,0.0,0.0,0.00013417042534677435,8.381356373140855e-05,-0.01703649829076364,0.0,0.0,0.0,0.0,0.0,0.0,0.0,0.0,0.0,0.0038922960749647353,-0.006859000184071287,0.00012472421354381682,0.0,0.0,0.0,0.0,0.0,0.0,0.0,0.0,0.0
5.883,166,5,883000000,base_footprint,0.003593451005465598,0.0014304493563152623,-0.9289212413341412,0.37025716512006707,0.0,0.0,0.0,0.0,0.0,0.0,0.0,0.0,0.0,-0.001873000800699639,-0.0015359650107849702,-0.003355718911250632,0.0,0.0,0.0,0.0,0.0,0.0,0.0,0.0,0.0,-0.0006120241976687729,-0.15535080030875045,-0.00725410268038553,0.0,0.0,0.0,0.0,0.0,0.0,0.0,0.0,0.0
5.917,167,5,917000000,base_footprint,0.003602824971932917,0.0014453841868502543,-0.9289148466792063,0.3702730588845489,0.0,0.0,0.0,0.0,0.0,0.0,0.0,0.0,0.0,0.00032670721864585443,-0.0002236009186787366,0.0029005239933420075,0.0,0.0,0.0,0.0,0.0,0.0,0.0,0.0,0.0,-0.007842025562112664,-0.0969338637706042,0.006517423282014745,0.0,0.0,0.0,0.0,0.0,0.0,0.0,0.0,0.0
5.952,168,5,951000000,base_footprint,0.0035930084179491466,0.001438501250095067,-0.9287375439746387,0.3707176761588503,0.0,0.0,0.0,0.0,0.0,0.0,0.0,0.0,0.0,0.0008796826556554918,7.111280241125221e-06,0.060195803011811676,0.0,0.0,0.0,0.0,0.0,0.0,0.0,0.0,0.0,-0.020689304811907977,-0.1379589488558327,0.0004542693531739856,0.0,0.0,0.0,0.0,0.0,0.0,0.0,0.0,0.0
5.985,169,5,985000000,base_footprint,0.003592284012132957,0.0014491073871936717,-0.9284597492350644,0.3714128291183789,0.0,0.0,0.0,0.0,0.0,0.0,0.0,0.0,0.0,-0.00041365033430148694,-0.0007293326895131496,-0.010787806147526138,0.0,0.0,0.0,0.0,0.0,0.0,0.0,0.0,0.0,-0.017046749701627187,-0.2836841063885021,-0.00447067294734519,0.0,0.0,0.0,0.0,0.0,0.0,0.0,0.0,0.0
6.019,170,6,19000000,base_footprint,0.0035915090846440874,0.0014486264826703503,-0.9283674129103839,0.37164357816312305,0.0,0.0,0.0,0.0,0.0,0.0,0.0,0.0,0.0,-0.0003276753656724865,-0.0004947365233463961,0.054154427343648844,0.0,0.0,0.0,0.0,0.0,0.0,0.0,0.0,0.0,-0.005461733627215713,-0.04880593802946915,0.000617915385611673,0.0,0.0,0.0,0.0,0.0,0.0,0.0,0.0,0.0
6.053,171,6,53000000,base_footprint,0.0035859724753054168,0.0014509158200458855,-0.9280209704637948,0.37250787109016376,0.0,0.0,0.0,0.0,0.0,0.0,0.0,0.0,0.0,0.0001459389088960191,-0.0002298077713694516,0.05503203278490943,0.0,0.0,0.0,0.0,0.0,0.0,0.0,0.0,0.0,-0.01271968931696407,-0.003066182876013982,0.0009852980786197992,0.0,0.0,0.0,0.0,0.0,0.0,0.0,0.0,0.0
6.087,172,6,87000000,base_footprint,0.003577116806148897,0.0014459455283944646,-0.9276900872671805,0.37333124094173425,0.0,0.0,0.0,0.0,0.0,0.0,0.0,0.0,0.0,-0.0006970922257694894,-0.00011943279495703517,0.02911271493764557,0.0,0.0,0.0,0.0,0.0,0.0,0.0,0.0,0.0,0.008032778580789351,0.4422668549234279,0.0011038421913119336,0.0,0.0,0.0,0.0,0.0,0.0,0.0,0.0,0.0
6.121,173,6,121000000,base_footprint,0.003578579239863094,0.0014510628526576465,-0.9275701477682649,0.3736291064095265,0.0,0.0,0.0,0.0,0.0,0.0,0.0,0.0,0.0,7.259906835372726e-05,-0.00010431042551325355,0.030922283757560384,0.0,0.0,0.0,0.0,0.0,0.0,0.0,0.0,0.0,0.005773056313309585,0.25620018321783267,0.002417332171703074,0.0,0.0,0.0,0.0,0.0,0.0,0.0,0.0,0.0
6.155,174,6,155000000,base_footprint,0.0035776439616993783,0.0014524116519807017,-0.9273749116649465,0.37411343758078164,0.0,0.0,0.0,0.0,0.0,0.0,0.0,0.0,0.0,2.1427122723842424e-05,-0.00010813588559609438,0.030547491228944942,0.0,0.0,0.0,0.0,0.0,0.0,0.0,0.0,0.0,-0.006907951268945656,0.0060787800742662075,-0.00017911903004834482,0.0,0.0,0.0,0.0,0.0,0.0,0.0,0.0,0.0
6.189,175,6,189000000,base_footprint,0.003579390498221292,0.001451648152593396,-0.9274901952500845,0.3738275249313012,0.0,0.0,0.0,0.0,0.0,0.0,0.0,0.0,0.0,0.00031822087009608006,0.0002102837490119646,-0.029996357727207396,0.0,0.0,0.0,0.0,0.0,0.0,0.0,0.0,0.0,0.004518521381600129,0.021464257538995696,3.2654629626300576e-05,0.0,0.0,0.0,0.0,0.0,0.0,0.0,0.0,0.0
6.223,176,6,223000000,base_footprint,0.0035824476854548113,0.0014507903885797994,-0.9276820890218094,0.37335104524289386,0.0,0.0,0.0,0.0,0.0,0.0,0.0,0.0,0.0,0.00017658521096433182,0.00019745905906767554,-0.030417710566093947,0.0,0.0,0.0,0.0,0.0,0.0,0.0,0.0,0.0,0.006747626752784324,0.005266494642778926,-0.0002247185404319895,0.0,0.0,0.0,0.0,0.0,0.0,0.0,0.0,0.0
6.257,177,6,257000000,base_footprint,0.0035873584375647155,0.0014509516517669321,-0.9278764483020152,0.3728677007802934,0.0,0.0,0.0,0.0,0.0,0.0,0.0,0.0,0.0,4.380599257403263e-05,0.00018705902137409086,-0.030845176913663654,0.0,0.0,0.0,0.0,0.0,0.0,0.0,0.0,0.0,0.00716044572288362,0.004665107545778763,-0.00023811051368220152,0.0,0.0,0.0,0.0,0.0,0.0,0.0,0.0,0.0
6.291,178,6,291000000,base_footprint,0.0035918949669007717,0.0014529755485794913,-0.9278429192740398,0.3729510749490202,0.0,0.0,0.0,0.0,0.0,0.0,0.0,0.0,0.0,0.000561265407200217,-0.00028792186644143705,0.04301411171357621,0.0,0.0,0.0,0.0,0.0,0.0,0.0,0.0,0.0,-0.01445145076226624,-0.35793355997925913,-0.0013109847414482945,0.0,0.0,0.0,0.0,0.0,0.0,0.0,0.0,0.0
6.325,179,6,325000000,base_footprint,0.0035923671115495196,0.0014568873966585177,-0.9275759816305467,0.3736144679743776,0.0,0.0,0.0,0.0,0.0,0.0,0.0,0.0,0.0,-0.00025344381293523357,-0.00024170732998886807,0.04239702985848644,0.0,0.0,0.0,0.0,0.0,0.0,0.0,0.0,0.0,-0.006779919709482768,0.003772697345212234,-0.000745704794686845,0.0,0.0,0.0,0.0,0.0,0.0,0.0,0.0,0.0
6.359,180,6,359000000,base_footprint,0.0035911171754540883,0.0014595815307511823,-0.9273067404841827,0.37428222313087234,0.0,0.0,0.0,0.0,0.0,0.0,0.0,0.0,0.0,4.387797875835384e-05,-0.00021259107670973127,0.042165333240628246,0.0,0.0,0.0,0.0,0.0,0.0,0.0,0.0,0.0,-0.007001599476635182,-0.005619329754308004,0.0004916284667652156,0.0,0.0,0.0,0.0,0.0,0.0,0.0,0.0,0.0
6.393,181,6,393000000,base_footprint,0.0035772582292847893,0.0014558741023228726,-0.9271490596126438,0.3746727971357803,0.0,0.0,0.0,0.0,0.0,0.0,0.0,0.0,0.0,0.00027334075478117144,0.0003412940206216479,0.008061289152481995,0.0,0.0,0.0,0.0,0.0,0.0,0.0,0.0,0.0,-0.007827109056979397,0.03058907231043748,0.000324541323278702,0.0,0.0,0.0,0.0,0.0,0.0,0.0,0.0,0.0
6.427,182,6,427000000,base_footprint,0.0035719388744634103,0.0014587024574386235,-0.9270248429865637,0.3749800713712061,0.0,0.0,0.0,0.0,0.0,0.0,0.0,0.0,0.0,0.000521169285117937,0.0004026348370768844,0.034741550952286454,0.0,0.0,0.0,0.0,0.0,0.0,0.0,0.0,0.0,-0.01051177941707939,-0.0061328710645946975,0.0006912970694529092,0.0,0.0,0.0,0.0,0.0,0.0,0.0,0.0,0.0
6.461,183,6,461000000,base_footprint,0.0035703184461811327,0.0014600408236589443,-0.9267144996826313,0.37574640009580457,0.0,0.0,0.0,0.0,0.0,0.0,0.0,0.0,0.0,0.00015992091928042422,-0.0013868469398530209,0.060695590198277985,0.0,0.0,0.0,0.0,0.0,0.0,0.0,0.0,0.0,-0.0001251379190344709,0.1641554556679635,-0.0007970676671942817,0.0,0.0,0.0,0.0,0.0,0.0,0.0,0.0,0.0
6.495,184,6,495000000,base_footprint,0.0035834121700492006,0.0014658098428219025,-0.9263623384671421,0.37661363282336524,0.0,0.0,0.0,0.0,0.0,0.0,0.0,0.0,0.0,0.0001661443721300643,-0.00015541956135186875,0.05053895999279835,0.0,0.0,0.0,0.0,0.0,0.0,0.0,0.0,0.0,-0.01179258894467267,0.11482404311257165,0.0015501794161058213,0.0,0.0,0.0,0.0,0.0,0.0,0.0,0.0,0.0
6.529,185,6,529000000,base_footprint,0.0035785643232558576,0.0014681161846680515,-0.9260396513186311,0.377406415814465,0.0,0.0,0.0,0.0,0.0,0.0,0.0,0.0,0.0,3.403117228088312e-05,-0.0003991030368953103,0.050431773908975866,0.0,0.0,0.0,0.0,0.0,0.0,0.0,0.0,0.0,-0.008643397927524435,0.004524458800965999,-7.411294737184543e-05,0.0,0.0,0.0,0.0,0.0,0.0,0.0,0.0,0.0
6.563,186,6,563000000,base_footprint,0.0035747251902386794,0.0014660410181031867,-0.9257305584626653,0.37816399245823157,0.0,0.0,0.0,0.0,0.0,0.0,0.0,0.0,0.0,0.0012955046358794414,0.00043304784084157225,0.014309230529829086,0.0,0.0,0.0,0.0,0.0,0.0,0.0,0.0,0.0,-0.007732031296158131,0.006870790947244942,0.0020732721638416557,0.0,0.0,0.0,0.0,0.0,0.0,0.0,0.0,0.0
6.597,187,6,597000000,base_footprint,0.003572269349036982,0.0014678081966113823,-0.9257230505811743,0.37818238728618847,0.0,0.0,0.0,0.0,0.0,0.0,0.0,0.0,0.0,0.00025878119973647056,6.984746917474753e-05,0.0011423326660935074,0.0,0.0,0.0,0.0,0.0,0.0,0.0,0.0,0.0,-0.002915612681994282,0.016934505277046256,-0.001912722393301433,0.0,0.0,0.0,0.0,0.0,0.0,0.0,0.0,0.0
6.631,188,6,631000000,base_footprint,0.003571873262081299,0.0014671268385075752,-0.9257174353696569,0.3781961384161194,0.0,0.0,0.0,0.0,0.0,0.0,0.0,0.0,0.0,0.0001906469292462734,5.886025436092355e-05,0.0006562974773877515,0.0,0.0,0.0,0.0,0.0,0.0,0.0,0.0,0.0,-7.093003303889484e-05,0.005874681960391466,-0.00012195195695947099,0.0,0.0,0.0,0.0,0.0,0.0,0.0,0.0,0.0
6.665,189,6,665000000,base_footprint,0.0035742967910516346,0.0014680369870519268,-0.9256715983816829,0.37830828859457283,0.0,0.0,0.0,0.0,0.0,0.0,0.0,0.0,0.0,-0.0002760103914011947,-0.000771280497555046,0.07431200232525417,0.0,0.0,0.0,0.0,0.0,0.0,0.0,0.0,0.0,-0.003642812018144671,-0.015120324709815783,-0.0013179405139435007,0.0,0.0,0.0,0.0,0.0,0.0,0.0,0.0,0.0
6.699,190,6,699000000,base_footprint,0.003572340925564542,0.001473825270083605,-0.9250829240002919,0.37974550681009384,0.0,0.0,0.0,0.0,0.0,0.0,0.0,0.0,0.0,-0.0005054199235878429,-0.00044374509850482404,0.09123371049665702,0.0,0.0,0.0,0.0,0.0,0.0,0.0,0.0,0.0,-0.01707206931283021,0.0026965511289700466,0.0007160605629493711,0.0,0.0,0.0,0.0,0.0,0.0,0.0,0.0,0.0
6.7330000000000005,191,6,733000000,base_footprint,0.0035742773450109203,0.0014810192922475025,-0.9244944254679931,0.3811759284135378,0.0,0.0,0.0,0.0,0.0,0.0,0.0,0.0,0.0,-0.0006220195974156554,-0.0004435538459357644,0.09075343422421046,0.0,0.0,0.0,0.0,0.0,0.0,0.0,0.0,0.0,-0.019675205178905027,0.005169449851008832,-0.00035101378678874023,0.0,0.0,0.0,0.0,0.0,0.0,0.0,0.0,0.0
6.767,192,6,767000000,base_footprint,0.003570918236761437,0.0014846884264870964,-0.9239570554073904,0.3824766711920184,0.0,0.0,0.0,0.0,0.0,0.0,0.0,0.0,0.0,0.0009909377203501759,0.003667428687295758,0.03169970904990202,0.0,0.0,0.0,0.0,0.0,0.0,0.0,0.0,0.0,-0.018533085657422257,0.022960902402991302,0.002929200624703489,0.0,0.0,0.0,0.0,0.0,0.0,0.0,0.0,0.0
6.801,193,6,801000000,base_footprint,0.003577984607122251,0.0014912404481345484,-0.9237549150585573,0.3829645298630602,0.0,0.0,0.0,0.0,0.0,0.0,0.0,0.0,0.0,-0.00015579705109071645,-0.00020560792650174605,0.03153965342322582,0.0,0.0,0.0,0.0,0.0,0.0,0.0,0.0,0.0,-0.004276840668608146,-0.004254629493906944,-0.0029441297794515946,0.0,0.0,0.0,0.0,0.0,0.0,0.0,0.0,0.0
6.835,194,6,835000000,base_footprint,0.003576459700489001,0.0014939070349498543,-0.9235532312368464,0.38345065686442864,0.0,0.0,0.0,0.0,0.0,0.0,0.0,0.0,0.0,0.00010598974300612907,-0.00020940166319224207,0.029453923994525327,0.0,0.0,0.0,0.0,0.0,0.0,0.0,0.0,0.0,-0.005235014249854266,-0.010123274018077999,0.000401579669729003,0.0,0.0,0.0,0.0,0.0,0.0,0.0,0.0,0.0
6.869,195,6,869000000,base_footprint,0.0035706432194601736,0.001496872353462341,-0.9234197621684944,0.38377200616621093,0.0,0.0,0.0,0.0,0.0,0.0,0.0,0.0,0.0,0.0005926786757813985,-0.0012679502433753276,0.007975134326331077,0.0,0.0,0.0,0.0,0.0,0.0,0.0,0.0,0.0,-0.005656785849903943,-0.07380688027225799,-0.0004734019384943366,0.0,0.0,0.0,0.0,0.0,0.0,0.0,0.0,0.0
6.9030000000000005,196,6,903000000,base_footprint,0.003572341874931112,0.0014948808639746033,-0.9235639301980677,0.3834249216493757,0.0,0.0,0.0,0.0,0.0,0.0,0.0,0.0,0.0,0.003880675883574455,0.0038461801393796812,-0.039224101311962446,0.0,0.0,0.0,0.0,0.0,0.0,0.0,0.0,0.0,0.000563315733514598,-0.1631629399688099,0.005279965264866608,0.0,0.0,0.0,0.0,0.0,0.0,0.0,0.0,0.0
6.936,197,6,937000000,base_footprint,0.0035725600692711025,0.0014895187423111151,-0.9235377919239292,0.38348789425057594,0.0,0.0,0.0,0.0,0.0,0.0,0.0,0.0,0.0,-0.0005068349191114746,-0.0005905401239798746,0.03239428937890984,0.0,0.0,0.0,0.0,0.0,0.0,0.0,0.0,0.0,0.001959117886569786,-0.1572645052235985,-0.00853615622904987,0.0,0.0,0.0,0.0,0.0,0.0,0.0,0.0,0.0
6.971,198,6,971000000,base_footprint,0.003557435798385355,0.0014866154713481221,-0.9233684427503188,0.38389562846929115,0.0,0.0,0.0,0.0,0.0,0.0,0.0,0.0,0.0,-0.0015287415765552275,-0.0001817795759194376,0.03535342032312961,0.0,0.0,0.0,0.0,0.0,0.0,0.0,0.0,0.0,-0.0071691383465644146,0.1419038895520775,0.0015428109002741264,0.0,0.0,0.0,0.0,0.0,0.0,0.0,0.0,0.0
7.005,199,7,5000000,base_footprint,0.0035655542032942277,0.001498537160811231,-0.9228969287889407,0.385027661397908,0.0,0.0,0.0,0.0,0.0,0.0,0.0,0.0,0.0,0.0005465717456136728,-0.0005839850578349552,0.09446499343777538,0.0,0.0,0.0,0.0,0.0,0.0,0.0,0.0,0.0,-0.017438666870456893,0.2099478551475836,0.003003438411324595,0.0,0.0,0.0,0.0,0.0,0.0,0.0,0.0,0.0
7.039,200,7,39000000,base_footprint,0.0035604905822364105,0.0015025292275906079,-0.9222759725840247,0.3865127367978,0.0,0.0,0.0,0.0,0.0,0.0,0.0,0.0,0.0,-0.00014587213404936868,-0.0004073225676164597,0.09463385269615429,0.0,0.0,0.0,0.0,0.0,0.0,0.0,0.0,0.0,-0.019783762498723316,0.004501258799290591,-0.0007284153450545143,0.0,0.0,0.0,0.0,0.0,0.0,0.0,0.0,0.0
7.073,201,7,73000000,base_footprint,0.003554290796484441,0.001503638062344514,-0.9218723607062215,0.38747445935887165,0.0,0.0,0.0,0.0,0.0,0.0,0.0,0.0,0.0,-0.0021722354231346573,-0.0004323944203371126,-0.02714303944381178,0.0,0.0,0.0,0.0,0.0,0.0,0.0,0.0,0.0,-0.01889830618168182,0.030886708671967394,-0.00387269778104835,0.0,0.0,0.0,0.0,0.0,0.0,0.0,0.0,0.0
7.107,202,7,107000000,base_footprint,0.003557790044208072,0.0015016926523010517,-0.9220514009576711,0.3870481895593565,0.0,0.0,0.0,0.0,0.0,0.0,0.0,0.0,0.0,0.00034604162802504945,0.00023510413944055305,-0.02719502090700255,0.0,0.0,0.0,0.0,0.0,0.0,0.0,0.0,0.0,0.009124949138017816,0.012518036253006376,0.0037187405984520135,0.0,0.0,0.0,0.0,0.0,0.0,0.0,0.0,0.0
7.141,203,7,141000000,base_footprint,0.00355941649690268,0.001499820768894398,-0.9222321158863634,0.38661738905489507,0.0,0.0,0.0,0.0,0.0,0.0,0.0,0.0,0.0,0.00026343354538932803,0.0002260926305242893,-0.027696776177060053,0.0,0.0,0.0,0.0,0.0,0.0,0.0,0.0,0.0,0.0061071393400878825,0.005830830317564149,-0.00011050902146585394,0.0,0.0,0.0,0.0,0.0,0.0,0.0,0.0,0.0
7.175,204,7,175000000,base_footprint,0.0035622927459857566,0.0014995707549283043,-0.9223466000307183,0.3863441610400202,0.0,0.0,0.0,0.0,0.0,0.0,0.0,0.0,0.0,0.00010494689309916746,0.00014219753512919833,-0.0023598264646289323,0.0,0.0,0.0,0.0,0.0,0.0,0.0,0.0,0.0,0.005245437813910166,-0.0013812303733578394,-1.0957458224300704e-05,0.0,0.0,0.0,0.0,0.0,0.0,0.0,0.0,0.0
7.209,205,7,209000000,base_footprint,0.0035663858254950413,0.0015006767443688993,-0.9223665845720258,0.386296405013545,0.0,0.0,0.0,0.0,0.0,0.0,0.0,0.0,0.0,-0.00010003604579781795,7.901634899004913e-05,-0.0033680662215858502,0.0,0.0,0.0,0.0,0.0,0.0,0.0,0.0,0.0,-0.00017596123902066142,0.00534305038807727,-0.0004506857004865471,0.0,0.0,0.0,0.0,0.0,0.0,0.0,0.0,0.0
7.243,206,7,243000000,base_footprint,0.003570186723770679,0.0015025131322392517,-0.9223918711777637,0.3862359799477889,0.0,0.0,0.0,0.0,0.0,0.0,0.0,0.0,0.0,-6.239561600779131e-06,5.992371230938494e-05,-0.004396578642196606,0.0,0.0,0.0,0.0,0.0,0.0,0.0,0.0,0.0,0.001575514372975896,0.002177714178342521,-3.9707036692753156e-05,0.0,0.0,0.0,0.0,0.0,0.0,0.0,0.0,0.0
7.277,207,7,277000000,base_footprint,0.0035670586247992875,0.0015091398565975874,-0.9222308746988922,0.386620243057418,0.0,0.0,0.0,0.0,0.0,0.0,0.0,0.0,0.0,0.0014493682630434405,-0.0018831946009164222,0.08418785036565109,0.0,0.0,0.0,0.0,0.0,0.0,0.0,0.0,0.0,-0.001877251023287162,-0.03171973547936636,0.0020990621985840056,0.0,0.0,0.0,0.0,0.0,0.0,0.0,0.0,0.0
7.311,208,7,311000000,base_footprint,0.0035689504215052343,0.0015121446337537407,-0.9216745102097678,0.38794467806773725,0.0,0.0,0.0,0.0,0.0,0.0,0.0,0.0,0.0,-0.00013260097073679043,-0.0005337151907966651,0.07972663161895266,0.0,0.0,0.0,0.0,0.0,0.0,0.0,0.0,0.0,-0.01637841204141184,0.0047933521482403756,-0.0017771553860813027,0.0,0.0,0.0,0.0,0.0,0.0,0.0,0.0,0.0
7.345,209,7,345000000,base_footprint,0.0035635081214521035,0.0015160411434613156,-0.9212189854428631,0.38902517127911124,0.0,0.0,0.0,0.0,0.0,0.0,0.0,0.0,0.0,-0.0008263427901559128,0.00048671187898245466,0.06159053976903103,0.0,0.0,0.0,0.0,0.0,0.0,0.0,0.0,0.0,-0.016549231320311792,-0.05369744175311914,-0.0018390098205364198,0.0,0.0,0.0,0.0,0.0,0.0,0.0,0.0,0.0
7.379,210,7,379000000,base_footprint,0.003562135819016988,0.0015163416383050805,-0.9207634371714448,0.3901021720840192,0.0,0.0,0.0,0.0,0.0,0.0,0.0,0.0,0.0,-0.0010009379106463488,-0.0003089172598226831,0.07100811852560916,0.0,0.0,0.0,0.0,0.0,0.0,0.0,0.0,0.0,-0.017571974938709434,-0.04674599804604807,-0.0007169395548851547,0.0,0.0,0.0,0.0,0.0,0.0,0.0,0.0,0.0
7.413,211,7,413000000,base_footprint,0.0035596774847378495,0.0015208604688810086,-0.9203227392674802,0.39114073076942585,0.0,0.0,0.0,0.0,0.0,0.0,0.0,0.0,0.0,-0.0007227425650605938,-0.0007894643813510856,0.054067385229925165,0.0,0.0,0.0,0.0,0.0,0.0,0.0,0.0,0.0,-0.01577027870238007,0.05271969076356977,0.001080689265657664,0.0,0.0,0.0,0.0,0.0,0.0,0.0,0.0,0.0
7.447,212,7,447000000,base_footprint,0.003558215367945166,0.00152630488800496,-0.9200093674814074,0.39187724256869644,0.0,0.0,0.0,0.0,0.0,0.0,0.0,0.0,0.0,2.801512282206553e-06,-0.0003643410792308462,0.04763836784259452,0.0,0.0,0.0,0.0,0.0,0.0,0.0,0.0,0.0,-0.010010935788290933,0.021270791888909273,0.0011574466441061388,0.0,0.0,0.0,0.0,0.0,0.0,0.0,0.0,0.0
7.481,213,7,481000000,base_footprint,0.0035539075620525796,0.0015268852050156114,-0.9198663013318008,0.3922129855534668,0.0,0.0,0.0,0.0,0.0,0.0,0.0,0.0,0.0,0.0010358349096361314,-7.523047572692148e-05,0.0021732575560730765,0.0,0.0,0.0,0.0,0.0,0.0,0.0,0.0,0.0,-0.008528201653897855,0.016380705942282366,0.0009633751022895539,0.0,0.0,0.0,0.0,0.0,0.0,0.0,0.0,0.0
7.515,214,7,515000000,base_footprint,0.0035512018211518704,0.0015249158109715173,-0.9198506334768979,0.39224976187315214,0.0,0.0,0.0,0.0,0.0,0.0,0.0,0.0,0.0,0.00035765959066724805,0.00012640887014317884,0.0022404402379740166,0.0,0.0,0.0,0.0,0.0,0.0,0.0,0.0,0.0,0.0013107703621680464,0.004332389349296436,-0.0005093264361463118,0.0,0.0,0.0,0.0,0.0,0.0,0.0,0.0,0.0
7.549,215,7,549000000,base_footprint,0.003549458361460366,0.0015228332122870967,-0.9198373873350214,0.3922808473339347,0.0,0.0,0.0,0.0,0.0,0.0,0.0,0.0,0.0,0.0002594508258720029,0.00010366167552673283,0.0018072315173319848,0.0,0.0,0.0,0.0,0.0,0.0,0.0,0.0,0.0,-0.0007160070609356912,0.005663406672578452,-0.00016753362549610514,0.0,0.0,0.0,0.0,0.0,0.0,0.0,0.0,0.0
7.583,216,7,583000000,base_footprint,0.0035497587500609813,0.0015210196049405202,-0.9199240860579786,0.39207749438417194,0.0,0.0,0.0,0.0,0.0,0.0,0.0,0.0,0.0,0.0002927669292649699,0.00021674902331791598,-0.020999017027687493,0.0,0.0,0.0,0.0,0.0,0.0,0.0,0.0,0.0,0.0022192510701637075,0.01184001071866725,-9.08723753478627e-05,0.0,0.0,0.0,0.0,0.0,0.0,0.0,0.0,0.0
7.617,217,7,617000000,base_footprint,0.0035513802594289755,0.001519453254260055,-0.9200657231048346,0.39174499885466163,0.0,0.0,0.0,0.0,0.0,0.0,0.0,0.0,0.0,0.0002154926931046975,0.00020379756069307647,-0.02147341163119067,0.0,0.0,0.0,0.0,0.0,0.0,0.0,0.0,0.0,0.00450577841783702,0.005836913406816486,-0.00012599284161154083,0.0,0.0,0.0,0.0,0.0,0.0,0.0,0.0,0.0
7.651,218,7,651000000,base_footprint,0.003554582799023965,0.0015187240573548292,-0.9202107517990652,0.39140417817361367,0.0,0.0,0.0,0.0,0.0,0.0,0.0,0.0,0.0,0.0001145926870545081,0.00019978461667494017,-0.02203582975301553,0.0,0.0,0.0,0.0,0.0,0.0,0.0,0.0,0.0,0.0047292696480284975,0.005698202582536486,-0.0001708228283008725,0.0,0.0,0.0,0.0,0.0,0.0,0.0,0.0,0.0
7.6850000000000005,219,7,685000000,base_footprint,0.0035578826855345155,0.0015212063756080312,-0.9200915773631813,0.39168420528187214,0.0,0.0,0.0,0.0,0.0,0.0,0.0,0.0,0.0,-0.0003923647469726752,-0.00013616839138642348,0.03592296980293952,0.0,0.0,0.0,0.0,0.0,0.0,0.0,0.0,0.0,-0.002637397441138448,-0.010967562326200782,-0.0004770978490797451,0.0,0.0,0.0,0.0,0.0,0.0,0.0,0.0,0.0
7.719,220,7,719000000,base_footprint,0.0035609108189544013,0.001525471081715535,-0.9198560862628524,0.3922368843152135,0.0,0.0,0.0,0.0,0.0,0.0,0.0,0.0,0.0,-0.00022407458218613778,-0.00019008377331968955,0.03478759111052037,0.0,0.0,0.0,0.0,0.0,0.0,0.0,0.0,0.0,-0.0066003027042103755,0.0025023169725665153,2.1493837698335302e-05,0.0,0.0,0.0,0.0,0.0,0.0,0.0,0.0,0.0
7.753,221,7,753000000,base_footprint,0.0035615546009071224,0.0015290734023943526,-0.919629720364384,0.39276730348372946,0.0,0.0,0.0,0.0,0.0,0.0,0.0,0.0,0.0,-9.555670426457604e-05,-0.00021445750950873006,0.03331140917678803,0.0,0.0,0.0,0.0,0.0,0.0,0.0,0.0,0.0,-0.005452157193198796,0.0005234817956060547,0.00016924394638650846,0.0,0.0,0.0,0.0,0.0,0.0,0.0,0.0,0.0
7.787,222,7,787000000,base_footprint,0.00356551471355961,0.001529489442513698,-0.9195853255306782,0.39287119624058653,0.0,0.0,0.0,0.0,0.0,0.0,0.0,0.0,0.0,0.00013664730073654376,-0.00034742732625642675,-0.00958117516902339,0.0,0.0,0.0,0.0,0.0,0.0,0.0,0.0,0.0,-0.00416659629657554,-0.019198545746979975,-0.000326611270402244,0.0,0.0,0.0,0.0,0.0,0.0,0.0,0.0,0.0
7.821,223,7,821000000,base_footprint,0.0035588887285446986,0.0015281798680520052,-0.9196893546880142,0.39262767331258364,0.0,0.0,0.0,0.0,0.0,0.0,0.0,0.0,0.0,0.0004430419732566978,-6.982991475858535e-05,-0.014146824414422233,0.0,0.0,0.0,0.0,0.0,0.0,0.0,0.0,0.0,0.004321500768959884,-0.025176190060715857,0.000796274215617608,0.0,0.0,0.0,0.0,0.0,0.0,0.0,0.0,0.0
7.855,224,7,855000000,base_footprint,0.003558639738104545,0.0015261059962607799,-0.9196597207310668,0.39269709083281834,0.0,0.0,0.0,0.0,0.0,0.0,0.0,0.0,0.0,-3.779847597889152e-05,-0.0005297816061932002,0.01439902815685436,0.0,0.0,0.0,0.0,0.0,0.0,0.0,0.0,0.0,-0.0030930679227290647,-0.027519783927991946,-0.0012826838439625064,0.0,0.0,0.0,0.0,0.0,0.0,0.0,0.0,0.0
7.889,225,7,889000000,base_footprint,0.0035581635920660646,0.0015274458834759366,-0.9196075864621037,0.3928191610681303,0.0,0.0,0.0,0.0,0.0,0.0,0.0,0.0,0.0,0.0004001638821555069,-0.00025611448992134497,0.03559296818610584,0.0,0.0,0.0,0.0,0.0,0.0,0.0,0.0,0.0,0.010760947092762665,-0.23723942631135644,0.00012796774775970994,0.0,0.0,0.0,0.0,0.0,0.0,0.0,0.0,0.0
7.923,226,7,923000000,base_footprint,0.0035457340610023248,0.0015376462652269879,-0.9190492840525779,0.3941236822323364,0.0,0.0,0.0,0.0,0.0,0.0,0.0,0.0,0.0,-2.46824076851074e-05,-0.0010924784346064442,0.1301159940590551,0.0,0.0,0.0,0.0,0.0,0.0,0.0,0.0,0.0,-0.026838132180330904,0.2145571826019837,0.0015168182880959057,0.0,0.0,0.0,0.0,0.0,0.0,0.0,0.0,0.0
7.957,227,7,957000000,base_footprint,0.003546021014996035,0.001542524448033165,-0.9180791184764242,0.3963783275746043,0.0,0.0,0.0,0.0,0.0,0.0,0.0,0.0,0.0,-0.00045102385235083135,-0.0008750161977674172,0.14547474966018148,0.0,0.0,0.0,0.0,0.0,0.0,0.0,0.0,0.0,-0.03226715214376737,0.028088149294984772,-0.0008193161341058702,0.0,0.0,0.0,0.0,0.0,0.0,0.0,0.0,0.0
7.991,228,7,991000000,base_footprint,0.003542390649997544,0.0015445928725546022,-0.9176771899360384,0.397307992333954,0.0,0.0,0.0,0.0,0.0,0.0,0.0,0.0,0.0,-0.0002667240258960466,-0.00020127743838661464,0.03846942813347355,0.0,0.0,0.0,0.0,0.0,0.0,0.0,0.0,0.0,-0.015633849680851252,0.03172377774792071,-0.00022882681278571073,0.0,0.0,0.0,0.0,0.0,0.0,0.0,0.0,0.0
8.024,229,8,25000000,base_footprint,0.0035399508103111676,0.0015446954171794485,-0.9174190482154998,0.39790372282211095,0.0,0.0,0.0,0.0,0.0,0.0,0.0,0.0,0.0,6.235422973403996e-05,-8.557954664718147e-05,0.03803421282864394,0.0,0.0,0.0,0.0,0.0,0.0,0.0,0.0,0.0,-0.009175359002448317,0.0056192229408603914,0.00039544107098908696,0.0,0.0,0.0,0.0,0.0,0.0,0.0,0.0,0.0
8.059,230,8,59000000,base_footprint,0.003538917227648279,0.001545692391076315,-0.9171633645461209,0.39849272218489423,0.0,0.0,0.0,0.0,0.0,0.0,0.0,0.0,0.0,-2.150155180114377e-05,-9.906711032261337e-05,0.03760085577168325,0.0,0.0,0.0,0.0,0.0,0.0,0.0,0.0,0.0,-0.008624822196564123,0.0051810330692555855,-0.00019053341383556342,0.0,0.0,0.0,0.0,0.0,0.0,0.0,0.0,0.0
8.093,231,8,93000000,base_footprint,0.0035404310786941824,0.001545372507620901,-0.9171598190390706,0.3985008701518845,0.0,0.0,0.0,0.0,0.0,0.0,0.0,0.0,0.0,9.55057872018122e-05,0.00011459478813290882,-0.0018222730074832889,0.0,0.0,0.0,0.0,0.0,0.0,0.0,0.0,0.0,-0.0014252721216521979,0.015876877677471632,-9.438931294312632e-05,0.0,0.0,0.0,0.0,0.0,0.0,0.0,0.0,0.0
8.127,232,8,127000000,base_footprint,0.0035433808445447298,0.0015456083743255178,-0.9171744449621503,0.39846717939538673,0.0,0.0,0.0,0.0,0.0,0.0,0.0,0.0,0.0,-5.318001816294726e-06,0.00011476343441587462,-0.0024216002364765886,0.0,0.0,0.0,0.0,0.0,0.0,0.0,0.0,0.0,0.00012433141564111884,0.005483650377714808,-0.00020913152347093908,0.0,0.0,0.0,0.0,0.0,0.0,0.0,0.0,0.0
8.163,233,8,161000000,base_footprint,0.0035490810657944115,0.0015476697715240352,-0.9171934920388506,0.39842327605631395,0.0,0.0,0.0,0.0,0.0,0.0,0.0,0.0,0.0,-0.0037596059234277146,-0.00036385139880229403,-0.0012183318454856767,0.0,0.0,0.0,0.0,0.0,0.0,0.0,0.0,0.0,0.0014716939787206172,-0.020462714299476367,0.0024737424014686614,0.0,0.0,0.0,0.0,0.0,0.0,0.0,0.0,0.0
8.195,234,8,195000000,base_footprint,0.0035348253246326126,0.0015485359218571952,-0.9169376217854799,0.39901191060018687,0.0,0.0,0.0,0.0,0.0,0.0,0.0,0.0,0.0,-0.0030425136720304705,-0.0014883148050397425,0.06959136076699454,0.0,0.0,0.0,0.0,0.0,0.0,0.0,0.0,0.0,0.04056510736144772,-0.6033195107314454,-0.023331808084743673,0.0,0.0,0.0,0.0,0.0,0.0,0.0,0.0,0.0
8.229,235,8,229000000,base_footprint,0.003547603331648401,0.001552825770066672,-0.9168273625024106,0.39926506309668847,0.0,0.0,0.0,0.0,0.0,0.0,0.0,0.0,0.0,-0.00118208076773359,-0.0004278841294355499,-0.01367416251041427,0.0,0.0,0.0,0.0,0.0,0.0,0.0,0.0,0.0,-0.028991690761935446,0.29615601133412667,0.016353439904341734,0.0,0.0,0.0,0.0,0.0,0.0,0.0,0.0,0.0
8.263,236,8,263000000,base_footprint,0.003547264998163711,0.0015571016934105395,-0.9169364192014162,0.3990145304214297,0.0,0.0,0.0,0.0,0.0,0.0,0.0,0.0,0.0,-0.0006044832758621531,-0.0011784772466140623,-0.030519473336365333,0.0,0.0,0.0,0.0,0.0,0.0,0.0,0.0,0.0,9.580156760400239e-05,-0.01728816901631522,0.002991338090818812,0.0,0.0,0.0,0.0,0.0,0.0,0.0,0.0,0.0
8.297,237,8,297000000,base_footprint,0.003534515570430298,0.0015525291960541581,-0.9174399978037541,0.39785543515531574,0.0,0.0,0.0,0.0,0.0,0.0,0.0,0.0,0.0,-0.0009049174394479725,-0.0002563286458228289,-0.0906951327962603,0.0,0.0,0.0,0.0,0.0,0.0,0.0,0.0,0.0,0.009870728562005646,0.09111692098194911,-0.002582790380185183,0.0,0.0,0.0,0.0,0.0,0.0,0.0,0.0,0.0
8.331,238,8,331000000,base_footprint,0.0035416594898667057,0.0015448397549231619,-0.9178667875726972,0.3968697902198736,0.0,0.0,0.0,0.0,0.0,0.0,0.0,0.0,0.0,0.00029607878715450626,0.00017043291880086464,-0.02381379250311863,0.0,0.0,0.0,0.0,0.0,0.0,0.0,0.0,0.0,0.01217031542638531,0.052581556617584325,0.0033511115399973983,0.0,0.0,0.0,0.0,0.0,0.0,0.0,0.0,0.0
8.365,239,8,365000000,base_footprint,0.003563918083832896,0.0015503534250469336,-0.9177001943358847,0.3972546390012694,0.0,0.0,0.0,0.0,0.0,0.0,0.0,0.0,0.0,-0.0010133579778774057,-0.000996757271009879,0.037362266434205996,0.0,0.0,0.0,0.0,0.0,0.0,0.0,0.0,0.0,-0.007859363740386663,0.041474688075309525,0.004849365254067954,0.0,0.0,0.0,0.0,0.0,0.0,0.0,0.0,0.0
8.399000000000001,240,8,399000000,base_footprint,0.003533963246507761,0.0015391739093055794,-0.9177936723818468,0.39703893635674153,0.0,0.0,0.0,0.0,0.0,0.0,0.0,0.0,0.0,0.0032933283274126793,0.0007395712519521221,-0.029518027025636225,0.0,0.0,0.0,0.0,0.0,0.0,0.0,0.0,0.0,0.03022074132611785,-0.44184478668757793,-0.004914217775925137,0.0,0.0,0.0,0.0,0.0,0.0,0.0,0.0,0.0
8.433,241,8,433000000,base_footprint,0.0035459531257658267,0.0015456564840184996,-0.9176946043781831,0.39726773120608877,0.0,0.0,0.0,0.0,0.0,0.0,0.0,0.0,0.0,0.0007979460037918162,-0.00016879790588999146,0.04048817495586115,0.0,0.0,0.0,0.0,0.0,0.0,0.0,0.0,0.0,-0.0162250293616798,0.22409222223394737,0.0003709435442440794,0.0,0.0,0.0,0.0,0.0,0.0,0.0,0.0,0.0
8.467,242,8,467000000,base_footprint,0.003539898432436158,0.0015450572974818745,-0.9174618614566649,0.3978049958076283,0.0,0.0,0.0,0.0,0.0,0.0,0.0,0.0,0.0,0.0005976947721877831,-0.0010330827534516614,0.000627926114085375,0.0,0.0,0.0,0.0,0.0,0.0,0.0,0.0,0.0,-0.006143587009855409,0.009739997716269322,-0.0016386085760937046,0.0,0.0,0.0,0.0,0.0,0.0,0.0,0.0,0.0
8.501,243,8,501000000,base_footprint,0.0035412773564790553,0.0015444846529923367,-0.9174507651584235,0.3978305762910445,0.0,0.0,0.0,0.0,0.0,0.0,0.0,0.0,0.0,0.00027144689017083673,0.00012470806373270313,0.0018625784664155808,0.0,0.0,0.0,0.0,0.0,0.0,0.0,0.0,0.0,-0.0023110305816776977,0.00839382257695173,0.0008750689502595431,0.0,0.0,0.0,0.0,0.0,0.0,0.0,0.0,0.0
8.535,244,8,535000000,base_footprint,0.0035405725210726777,0.001542872858187965,-0.9174402784464263,0.3978547717116264,0.0,0.0,0.0,0.0,0.0,0.0,0.0,0.0,0.0,0.00021106573873333703,0.00010971633909947717,0.001351368362204944,0.0,0.0,0.0,0.0,0.0,0.0,0.0,0.0,0.0,-0.0007040545020299176,0.005472372338754626,-0.00011542010784074355,0.0,0.0,0.0,0.0,0.0,0.0,0.0,0.0,0.0
8.569,245,8,569000000,base_footprint,0.0035365424996919564,0.001539554694479356,-0.9174392037392123,0.397857298639664,0.0,0.0,0.0,0.0,0.0,0.0,0.0,0.0,0.0,-0.0013712068343211762,-5.9588504900495666e-05,-0.003874764177424812,0.0,0.0,0.0,0.0,0.0,0.0,0.0,0.0,0.0,-0.011780435521032785,0.19116975997451166,-0.0006496497679846932,0.0,0.0,0.0,0.0,0.0,0.0,0.0,0.0,0.0
8.603,246,8,603000000,base_footprint,0.003542169551102497,0.0015440416610289045,-0.9171969730202787,0.39841533812424773,0.0,0.0,0.0,0.0,0.0,0.0,0.0,0.0,0.0,-0.0002042539918066165,-0.0001425339611310424,0.04357763118710292,0.0,0.0,0.0,0.0,0.0,0.0,0.0,0.0,0.0,-0.01811499403090943,0.14789639109618902,0.0020161572602810916,0.0,0.0,0.0,0.0,0.0,0.0,0.0,0.0,0.0
8.637,247,8,637000000,base_footprint,0.003544853508366883,0.001547327744062147,-0.9169043883737711,0.39908818871444657,0.0,0.0,0.0,0.0,0.0,0.0,0.0,0.0,0.0,-0.0003067041424709079,-0.0001371277291613272,0.04277471738826309,0.0,0.0,0.0,0.0,0.0,0.0,0.0,0.0,0.0,-0.009607310308013643,0.004330457557514794,-0.0002702978163426254,0.0,0.0,0.0,0.0,0.0,0.0,0.0,0.0,0.0
8.671,248,8,671000000,base_footprint,0.0035357167449837344,0.0015496662097137682,-0.916582945466076,0.39982596379233565,0.0,0.0,0.0,0.0,0.0,0.0,0.0,0.0,0.0,-0.0011429542002870366,-0.0005502974095342806,0.07088278904683615,0.0,0.0,0.0,0.0,0.0,0.0,0.0,0.0,0.0,0.004826328234091196,-0.20948616270371523,-0.0012642713130020771,0.0,0.0,0.0,0.0,0.0,0.0,0.0,0.0,0.0
8.705,249,8,705000000,base_footprint,0.0035340509753181543,0.0015578413379630496,-0.915965789603259,0.40123777973982955,0.0,0.0,0.0,0.0,0.0,0.0,0.0,0.0,0.0,0.0022662582932478927,-0.0003322666622804438,0.058171093377289304,0.0,0.0,0.0,0.0,0.0,0.0,0.0,0.0,0.0,-0.001559517094098531,-0.20397782987654764,0.002938660321355384,0.0,0.0,0.0,0.0,0.0,0.0,0.0,0.0,0.0
8.739,250,8,739000000,base_footprint,0.003543912704461028,0.0015637487099962593,-0.9157163543019944,0.4018066124848863,0.0,0.0,0.0,0.0,0.0,0.0,0.0,0.0,0.0,7.274865981207918e-05,-0.0003340615494683163,0.027877008025988862,0.0,0.0,0.0,0.0,0.0,0.0,0.0,0.0,0.0,-0.013323805592901552,0.07330869905613822,-0.0033786835140698383,0.0,0.0,0.0,0.0,0.0,0.0,0.0,0.0,0.0
8.773,251,8,773000000,base_footprint,0.0035324893655399267,0.0015650889776669483,-0.9156308472083667,0.40200152195714783,0.0,0.0,0.0,0.0,0.0,0.0,0.0,0.0,0.0,0.0010959666253024481,-0.00015298357416505993,-0.019669425914810714,0.0,0.0,0.0,0.0,0.0,0.0,0.0,0.0,0.0,-0.006896829222907468,0.014834633518477344,0.0016591225458296335,0.0,0.0,0.0,0.0,0.0,0.0,0.0,0.0,0.0
8.807,252,8,807000000,base_footprint,0.0035249448119365344,0.0015625517365496064,-0.9158533220832275,0.40149449015554306,0.0,0.0,0.0,0.0,0.0,0.0,0.0,0.0,0.0,0.0008802919147138915,0.0011979948308613857,-0.02504068834151948,0.0,0.0,0.0,0.0,0.0,0.0,0.0,0.0,0.0,-0.010091391943754573,0.11387099347700497,0.0008812851920696055,0.0,0.0,0.0,0.0,0.0,0.0,0.0,0.0,0.0
8.84,253,8,841000000,base_footprint,0.003542467141655712,0.0015556813369581096,-0.915760353688571,0.40170636713190333,0.0,0.0,0.0,0.0,0.0,0.0,0.0,0.0,0.0,0.001701149155135602,0.00028972285630471926,0.03239436158490282,0.0,0.0,0.0,0.0,0.0,0.0,0.0,0.0,0.0,8.778918990228618e-05,0.04707266271502547,0.0008471231355840338,0.0,0.0,0.0,0.0,0.0,0.0,0.0,0.0,0.0
8.875,254,8,875000000,base_footprint,0.003535024673013887,0.0015497770312710235,-0.9156825806380376,0.4018837061984206,0.0,0.0,0.0,0.0,0.0,0.0,0.0,0.0,0.0,-0.0027302293749970463,-0.0009416896699074278,-0.01913983370518519,0.0,0.0,0.0,0.0,0.0,0.0,0.0,0.0,0.0,-0.005829406924787426,0.04859174001700229,-0.007652718294727021,0.0,0.0,0.0,0.0,0.0,0.0,0.0,0.0,0.0
8.909,255,8,909000000,base_footprint,0.0035414323315116234,0.0015601956997954064,-0.9160011679973169,0.4011569322272408,0.0,0.0,0.0,0.0,0.0,0.0,0.0,0.0,0.0,0.0011411355657168743,0.00037312313649970254,-0.05798422018103553,0.0,0.0,0.0,0.0,0.0,0.0,0.0,0.0,0.0,-0.00043961108934625903,0.10773445780989413,0.0071210204063546275,0.0,0.0,0.0,0.0,0.0,0.0,0.0,0.0,0.0
8.943,256,8,943000000,base_footprint,0.003540148104983622,0.0015560944679369646,-0.9163984354992122,0.4002486144085925,0.0,0.0,0.0,0.0,0.0,0.0,0.0,0.0,0.0,0.0005758570568645364,0.00028821596012351686,-0.059117878904551543,0.0,0.0,0.0,0.0,0.0,0.0,0.0,0.0,0.0,0.014466262491772493,0.006904370015269307,-0.0006974579483891126,0.0,0.0,0.0,0.0,0.0,0.0,0.0,0.0,0.0
8.977,257,8,977000000,base_footprint,0.0035394112856286736,0.0015505901681133018,-0.9167628077667994,0.399413347966009,0.0,0.0,0.0,0.0,0.0,0.0,0.0,0.0,0.0,0.0004533553780961789,0.00037056216004844765,-0.04738583799025074,0.0,0.0,0.0,0.0,0.0,0.0,0.0,0.0,0.0,0.011966934244035136,0.002274888114728718,0.0002136213303298685,0.0,0.0,0.0,0.0,0.0,0.0,0.0,0.0,0.0
9.011,258,9,11000000,base_footprint,0.0035396269683275936,0.001545772259345024,-0.9170873643096209,0.3986675906725805,0.0,0.0,0.0,0.0,0.0,0.0,0.0,0.0,0.0,0.0004868995218371402,0.0003932473546678835,-0.048102849985027084,0.0,0.0,0.0,0.0,0.0,0.0,0.0,0.0,0.0,0.009913774260036886,0.00661926047128522,6.773374206428111e-05,0.0,0.0,0.0,0.0,0.0,0.0,0.0,0.0,0.0
9.045,259,9,45000000,base_footprint,0.00354130509307458,0.0015419957562547802,-0.9174155936377386,0.39791168612851924,0.0,0.0,0.0,0.0,0.0,0.0,0.0,0.0,0.0,0.00040412183951834505,0.0003757736682366246,-0.048735914920103277,0.0,0.0,0.0,0.0,0.0,0.0,0.0,0.0,0.0,0.010332905905159746,0.006502533663370358,-9.09047040351424e-05,0.0,0.0,0.0,0.0,0.0,0.0,0.0,0.0,0.0
9.079,260,9,79000000,base_footprint,0.0035438740363432524,0.0015398835471601398,-0.9176499861107736,0.397370825182691,0.0,0.0,0.0,0.0,0.0,0.0,0.0,0.0,0.0,0.00033688695215326026,0.0002616865571878639,-0.022166915024252363,0.0,0.0,0.0,0.0,0.0,0.0,0.0,0.0,0.0,0.008497354338153297,-0.0009504489877762076,4.3571438707146986e-05,0.0,0.0,0.0,0.0,0.0,0.0,0.0,0.0,0.0
9.113,261,9,113000000,base_footprint,0.003548052507009531,0.0015394328517620167,-0.9178034939487483,0.3970161054231584,0.0,0.0,0.0,0.0,0.0,0.0,0.0,0.0,0.0,5.4151604860688944e-05,0.000217114004143478,-0.023095018889542587,0.0,0.0,0.0,0.0,0.0,0.0,0.0,0.0,0.0,0.004475562365282842,0.005543326230743113,-0.0004183077309488484,0.0,0.0,0.0,0.0,0.0,0.0,0.0,0.0,0.0
9.147,262,9,147000000,base_footprint,0.003552646917150362,0.0015402176796330124,-0.9179637030684646,0.39664549194238036,0.0,0.0,0.0,0.0,0.0,0.0,0.0,0.0,0.0,6.094196049787698e-06,8.193861520685111e-05,-0.02451560684592658,0.0,0.0,0.0,0.0,0.0,0.0,0.0,0.0,0.0,0.0054722192676337714,0.003344349183264512,-0.00030363863899420077,0.0,0.0,0.0,0.0,0.0,0.0,0.0,0.0,0.0
9.181,263,9,181000000,base_footprint,0.003539558691349404,0.0015363712620154611,-0.9180183610112137,0.3965191041222362,0.0,0.0,0.0,0.0,0.0,0.0,0.0,0.0,0.0,0.000806198729666071,-0.00013015289211501375,0.027422096386495447,0.0,0.0,0.0,0.0,0.0,0.0,0.0,0.0,0.0,0.02176582438393629,-0.3296408445778938,0.00017184122939484253,0.0,0.0,0.0,0.0,0.0,0.0,0.0,0.0,0.0
9.215,264,9,215000000,base_footprint,0.0035481454913950414,0.0015392123186656747,-0.91785817228346,0.3968896787036373,0.0,0.0,0.0,0.0,0.0,0.0,0.0,0.0,0.0,0.0018111411697551805,-0.00027632030472896237,-0.029028147698016787,0.0,0.0,0.0,0.0,0.0,0.0,0.0,0.0,0.0,-0.008067005049062954,-0.0389791622843819,0.0016693465389251562,0.0,0.0,0.0,0.0,0.0,0.0,0.0,0.0,0.0
9.249,265,9,249000000,base_footprint,0.003549423665971494,0.0015480644734694815,-0.9181092780354309,0.3963084135787248,0.0,0.0,0.0,0.0,0.0,0.0,0.0,0.0,0.0,2.6743908069693453e-05,0.0006558468281403491,-0.04769451603794795,0.0,0.0,0.0,0.0,0.0,0.0,0.0,0.0,0.0,0.015237117886453308,-0.0449401483342718,-0.004200675730332551,0.0,0.0,0.0,0.0,0.0,0.0,0.0,0.0,0.0
9.283,266,9,283000000,base_footprint,0.003535806345952999,0.001538100295892977,-0.9184312602730221,0.3955618187771316,0.0,0.0,0.0,0.0,0.0,0.0,0.0,0.0,0.0,0.0009566666242803308,0.0014156477490745339,-0.04061790603789755,0.0,0.0,0.0,0.0,0.0,0.0,0.0,0.0,0.0,-0.0057398251696638165,0.05150349742575047,0.0026848153819651016,0.0,0.0,0.0,0.0,0.0,0.0,0.0,0.0,0.0
9.317,267,9,317000000,base_footprint,0.0035402607741386316,0.0015333329606906957,-0.9184210088302563,0.395585598806247,0.0,0.0,0.0,0.0,0.0,0.0,0.0,0.0,0.0,0.00126211192973175,0.0004254050725535952,0.04643326433665223,0.0,0.0,0.0,0.0,0.0,0.0,0.0,0.0,0.0,0.007031067307147438,0.08749844911520882,0.001329005602254831,0.0,0.0,0.0,0.0,0.0,0.0,0.0,0.0,0.0
9.351,268,9,351000000,base_footprint,0.0035453751540875707,0.001528843542299485,-0.9179749446335176,0.39661958345186393,0.0,0.0,0.0,0.0,0.0,0.0,0.0,0.0,0.0,-0.0005136538745951955,1.8534716821225162e-06,0.05519156054800721,0.0,0.0,0.0,0.0,0.0,0.0,0.0,0.0,0.0,-0.02463298172712088,0.14063065184408227,-0.0010328080628007308,0.0,0.0,0.0,0.0,0.0,0.0,0.0,0.0,0.0
9.385,269,9,385000000,base_footprint,0.0035517291854691743,0.0015420459732310955,-0.9178711322229669,0.39685966278489254,0.0,0.0,0.0,0.0,0.0,0.0,0.0,0.0,0.0,0.0010798663749661162,0.0002283178217587218,-0.027078908641935268,0.0,0.0,0.0,0.0,0.0,0.0,0.0,0.0,0.0,0.0272746100056504,-0.4554339875978849,-0.0019834932481722018,0.0,0.0,0.0,0.0,0.0,0.0,0.0,0.0,0.0
9.419,270,9,419000000,base_footprint,0.0035424484909992965,0.0015391731136409903,-0.9180645662354032,0.3964120762890757,0.0,0.0,0.0,0.0,0.0,0.0,0.0,0.0,0.0,-0.001020563827976591,-0.0010974408135773495,0.003881189541534481,0.0,0.0,0.0,0.0,0.0,0.0,0.0,0.0,0.0,-0.002915947721415457,0.16228544680900595,-0.0024047791167116023,0.0,0.0,0.0,0.0,0.0,0.0,0.0,0.0,0.0
9.453,271,9,453000000,base_footprint,0.0035444312093854467,0.0015404360132128473,-0.9179034757756724,0.39678492060968107,0.0,0.0,0.0,0.0,0.0,0.0,0.0,0.0,0.0,7.036778755635119e-05,-0.00021223681575467207,0.02574350347531115,0.0,0.0,0.0,0.0,0.0,0.0,0.0,0.0,0.0,-0.008653729486449518,0.04759085352835069,0.002516702567456449,0.0,0.0,0.0,0.0,0.0,0.0,0.0,0.0,0.0
9.487,272,9,487000000,base_footprint,0.003543399858238823,0.0015382183441187878,-0.9179429807964209,0.3966935368875474,0.0,0.0,0.0,0.0,0.0,0.0,0.0,0.0,0.0,0.00030746858492123886,0.00020510425878429662,-0.016054022430955463,0.0,0.0,0.0,0.0,0.0,0.0,0.0,0.0,0.0,0.00015769590778781737,0.016369948925722785,0.00033685024786237383,0.0,0.0,0.0,0.0,0.0,0.0,0.0,0.0,0.0
9.521,273,9,521000000,base_footprint,0.0035435186671980007,0.0015360008681272843,-0.9180535553575505,0.39643757853179035,0.0,0.0,0.0,0.0,0.0,0.0,0.0,0.0,0.0,0.0002739680324163037,0.00019472494562414416,-0.01664893191328068,0.0,0.0,0.0,0.0,0.0,0.0,0.0,0.0,0.0,0.002883134514011302,0.0056289204882924125,-8.41644649821509e-05,0.0,0.0,0.0,0.0,0.0,0.0,0.0,0.0,0.0
9.555,274,9,555000000,base_footprint,0.0035450568761924046,0.0015346796751411138,-0.918168160102847,0.3961720675456461,0.0,0.0,0.0,0.0,0.0,0.0,0.0,0.0,0.0,0.00019690268284676727,0.0001872165932739137,-0.017264170823295927,0.0,0.0,0.0,0.0,0.0,0.0,0.0,0.0,0.0,0.003295970886945613,0.005668143551221306,-0.00012224543102450707,0.0,0.0,0.0,0.0,0.0,0.0,0.0,0.0,0.0
9.589,275,9,589000000,base_footprint,0.0035485018324097513,0.001532581358052134,-0.9184700377106976,0.39547167933600047,0.0,0.0,0.0,0.0,0.0,0.0,0.0,0.0,0.0,-0.00010163443205843585,0.0005290539122618873,-0.07361850946466263,0.0,0.0,0.0,0.0,0.0,0.0,0.0,0.0,0.0,-0.01295447206281844,0.3637342733317352,0.0007991609326611748,0.0,0.0,0.0,0.0,0.0,0.0,0.0,0.0,0.0
9.623,276,9,623000000,base_footprint,0.0035551928697388226,0.0015297620922156193,-0.9189652799172471,0.3943194577220556,0.0,0.0,0.0,0.0,0.0,0.0,0.0,0.0,0.0,0.00027690333907290474,0.0004730565783700553,-0.07423527675198535,0.0,0.0,0.0,0.0,0.0,0.0,0.0,0.0,0.0,0.0180039270771351,0.002096754151618252,0.0007795424610238418,0.0,0.0,0.0,0.0,0.0,0.0,0.0,0.0,0.0
9.657,277,9,657000000,base_footprint,0.00356026269140747,0.0015273995825456923,-0.9194676846100944,0.39314649755254777,0.0,0.0,0.0,0.0,0.0,0.0,0.0,0.0,0.0,0.00040214733963192924,0.0004236593532722774,-0.07596492644939075,0.0,0.0,0.0,0.0,0.0,0.0,0.0,0.0,0.0,0.01715034102347758,0.0016601716463256234,7.6166075516472e-05,0.0,0.0,0.0,0.0,0.0,0.0,0.0,0.0,0.0
9.691,278,9,691000000,base_footprint,0.003568092379665318,0.0015252246696279576,-0.9197276111889882,0.39253797730038165,0.0,0.0,0.0,0.0,0.0,0.0,0.0,0.0,0.0,0.00016311272681250298,-0.0007156530197422058,-0.006031902075244835,0.0,0.0,0.0,0.0,0.0,0.0,0.0,0.0,0.0,0.02890711617649523,-0.3730766416538817,-0.002755952922405198,0.0,0.0,0.0,0.0,0.0,0.0,0.0,0.0,0.0
9.725,279,9,725000000,base_footprint,0.0035538107620113994,0.0015314441090076474,-0.9197988996750412,0.3923710097147752,0.0,0.0,0.0,0.0,0.0,0.0,0.0,0.0,0.0,0.0001025354756070874,-0.0003829359860706696,-0.015356967358926155,0.0,0.0,0.0,0.0,0.0,0.0,0.0,0.0,0.0,-0.004512017615513485,-0.018641605353614955,0.0008675868931130181,0.0,0.0,0.0,0.0,0.0,0.0,0.0,0.0,0.0
9.759,280,9,759000000,base_footprint,0.0035570106368791056,0.0015300449833778216,-0.919969382835686,0.3919710975092488,0.0,0.0,0.0,0.0,0.0,0.0,0.0,0.0,0.0,0.0005092021906295886,5.425169997634339e-05,-0.02373658466946256,0.0,0.0,0.0,0.0,0.0,0.0,0.0,0.0,0.0,0.0108046166316223,-0.03536697138878365,0.0004721956672474725,0.0,0.0,0.0,0.0,0.0,0.0,0.0,0.0,0.0
9.793,281,9,793000000,base_footprint,0.003546129106307793,0.001520093029696315,-0.9199854117210939,0.3919336123706565,0.0,0.0,0.0,0.0,0.0,0.0,0.0,0.0,0.0,-6.971133639962608e-05,-0.00022547899359472552,0.033682373548707026,0.0,0.0,0.0,0.0,0.0,0.0,0.0,0.0,0.0,-0.006025556343433186,0.0573172578338345,-0.0004232113002951392,0.0,0.0,0.0,0.0,0.0,0.0,0.0,0.0,0.0
9.827,282,9,827000000,base_footprint,0.0035478483476455124,0.0015091749116266527,-0.9195857130483307,0.3928705276812979,0.0,0.0,0.0,0.0,0.0,0.0,0.0,0.0,0.0,-0.0009814166779990303,-0.0006969117453118071,0.05714881281268858,0.0,0.0,0.0,0.0,0.0,0.0,0.0,0.0,0.0,-0.018216243378317593,0.10686175136706326,-0.0005994223903515395,0.0,0.0,0.0,0.0,0.0,0.0,0.0,0.0,0.0
9.861,283,9,861000000,base_footprint,0.0035497866944541132,0.0015151141504108532,-0.9193914812897015,0.3933248117974047,0.0,0.0,0.0,0.0,0.0,0.0,0.0,0.0,0.0,-0.002668918081157777,0.0006226163305183397,-0.008999584842691599,0.0,0.0,0.0,0.0,0.0,0.0,0.0,0.0,0.0,-0.009280468112996154,0.15503702331065497,-0.003358317817187078,0.0,0.0,0.0,0.0,0.0,0.0,0.0,0.0,0.0
9.895,284,9,895000000,base_footprint,0.0035541113263022847,0.0015251879767917635,-0.9196969718628336,0.39260988530683993,0.0,0.0,0.0,0.0,0.0,0.0,0.0,0.0,0.0,0.00041054615790926566,0.00010061725722438391,-0.050414933273572035,0.0,0.0,0.0,0.0,0.0,0.0,0.0,0.0,0.0,0.007385561431112381,0.06848482785319786,0.006050545049161588,0.0,0.0,0.0,0.0,0.0,0.0,0.0,0.0,0.0
9.929,285,9,929000000,base_footprint,0.0035533630866114076,0.0015216065658167656,-0.9200395386057625,0.39180646463059976,0.0,0.0,0.0,0.0,0.0,0.0,0.0,0.0,0.0,0.0005988879739323208,0.0003608305851016127,-0.05155165646449682,0.0,0.0,0.0,0.0,0.0,0.0,0.0,0.0,0.0,0.010091925241600106,0.007472146830104392,0.0005930829724984301,0.0,0.0,0.0,0.0,0.0,0.0,0.0,0.0,0.0
9.963000000000001,286,9,963000000,base_footprint,0.0035527855477950304,0.0015159568323789975,-0.920385966174271,0.3909920112472725,0.0,0.0,0.0,0.0,0.0,0.0,0.0,0.0,0.0,0.0006333255993241212,0.00036121013148844615,-0.05570723094654977,0.0,0.0,0.0,0.0,0.0,0.0,0.0,0.0,0.0,0.011544953553281417,0.006265378806587927,-2.876107260973225e-05,0.0,0.0,0.0,0.0,0.0,0.0,0.0,0.0,0.0
9.997,287,9,997000000,base_footprint,0.003553960962932561,0.0015115908670596944,-0.9207635485291079,0.3901020022437848,0.0,0.0,0.0,0.0,0.0,0.0,0.0,0.0,0.0,0.0004975087681084031,0.00040345541287803807,-0.05712055337564879,0.0,0.0,0.0,0.0,0.0,0.0,0.0,0.0,0.0,0.012028007443097424,0.006963192514206569,7.174961664170885e-07,0.0,0.0,0.0,0.0,0.0,0.0,0.0,0.0,0.0
10.031,288,10,31000000,base_footprint,0.0035564479985848558,0.0015080225294347338,-0.921144451580052,0.3892017174537767,0.0,0.0,0.0,0.0,0.0,0.0,0.0,0.0,0.0,0.00041593721488545693,0.0003903179552541159,-0.05779061692356128,0.0,0.0,0.0,0.0,0.0,0.0,0.0,0.0,0.0,0.012597836460556334,0.006157400023276954,-8.40323518436319e-05,0.0,0.0,0.0,0.0,0.0,0.0,0.0,0.0,0.0
10.065,289,10,65000000,base_footprint,0.003560662875637086,0.0015075777197163908,-0.9214997074098628,0.38835980499125095,0.0,0.0,0.0,0.0,0.0,0.0,0.0,0.0,0.0,0.0006708849384362333,-0.002362012750193404,-0.01648050466794973,0.0,0.0,0.0,0.0,0.0,0.0,0.0,0.0,0.0,0.012718790299027727,-0.0025698338840444467,0.0003127993270871265,0.0,0.0,0.0,0.0,0.0,0.0,0.0,0.0,0.0
10.099,290,10,99000000,base_footprint,0.0035649205214996135,0.0015062890562557378,-0.9216091744696253,0.3880999252362337,0.0,0.0,0.0,0.0,0.0,0.0,0.0,0.0,0.0,-4.307725747788101e-05,0.00014060904002914404,-0.01749575337764645,0.0,0.0,0.0,0.0,0.0,0.0,0.0,0.0,0.0,0.003579822334202344,0.0022574332199463416,-0.0007571873171005873,0.0,0.0,0.0,0.0,0.0,0.0,0.0,0.0,0.0
10.133,291,10,133000000,base_footprint,0.0035686977821027177,0.0015068667297339436,-0.9217283107238807,0.38781685749706657,0.0,0.0,0.0,0.0,0.0,0.0,0.0,0.0,0.0,9.467416448207365e-05,0.00010687190977742757,-0.018803618134844814,0.0,0.0,0.0,0.0,0.0,0.0,0.0,0.0,0.0,0.004671448909892613,0.0013165427151689878,4.188877145869818e-05,0.0,0.0,0.0,0.0,0.0,0.0,0.0,0.0,0.0
10.167,292,10,167000000,base_footprint,0.003555455047584689,0.0015019611204934123,-0.921846328764962,0.3875363840915569,0.0,0.0,0.0,0.0,0.0,0.0,0.0,0.0,0.0,0.00704865244810389,0.0006137816590694625,-0.005506984697966159,0.0,0.0,0.0,0.0,0.0,0.0,0.0,0.0,0.0,0.001537700030748275,-0.07866934685550625,0.009494058801886493,0.0,0.0,0.0,0.0,0.0,0.0,0.0,0.0,0.0
10.201,293,10,201000000,base_footprint,0.003563657517463547,0.0015089965002943316,-0.921678751712226,0.3879346619172529,0.0,0.0,0.0,0.0,0.0,0.0,0.0,0.0,0.0,-0.002389647841238988,0.0018266724055002355,0.025729660556352334,0.0,0.0,0.0,0.0,0.0,0.0,0.0,0.0,0.0,0.0033660810476835723,-0.2593078957669511,-0.013956715266530535,0.0,0.0,0.0,0.0,0.0,0.0,0.0,0.0,0.0
10.235,294,10,235000000,base_footprint,0.0035677176959252764,0.001512560887381096,-0.921718904099382,0.38783920041150893,0.0,0.0,0.0,0.0,0.0,0.0,0.0,0.0,0.0,0.000446704640914495,-0.0004083478581143438,-0.01982394851936083,0.0,0.0,0.0,0.0,0.0,0.0,0.0,0.0,0.0,0.0034167527464146205,-0.028789864138293614,0.002902915986382175,0.0,0.0,0.0,0.0,0.0,0.0,0.0,0.0,0.0
10.269,295,10,269000000,base_footprint,0.003570043467706135,0.0015082592701999545,-0.921766067431502,0.38772709071649397,0.0,0.0,0.0,0.0,0.0,0.0,0.0,0.0,0.0,-0.0006592805616888191,0.0003795656648307884,0.0177345499284133,0.0,0.0,0.0,0.0,0.0,0.0,0.0,0.0,0.0,0.0007721409350153145,-0.019495886672011416,-0.0008145147856633095,0.0,0.0,0.0,0.0,0.0,0.0,0.0,0.0,0.0
10.303,296,10,303000000,base_footprint,0.003547134335073411,0.0015011253718734219,-0.9215943077511156,0.38813540985250083,0.0,0.0,0.0,0.0,0.0,0.0,0.0,0.0,0.0,0.003901034821762357,0.0005172787742097813,0.040026649163897504,0.0,0.0,0.0,0.0,0.0,0.0,0.0,0.0,0.0,-0.011938206062390738,0.03937563979380251,0.006883000485286757,0.0,0.0,0.0,0.0,0.0,0.0,0.0,0.0,0.0
10.337,297,10,337000000,base_footprint,0.0035552890038409992,0.0015002878216376,-0.9213104865292436,0.38880856017814197,0.0,0.0,0.0,0.0,0.0,0.0,0.0,0.0,0.0,0.0003741063940459801,0.0003505779125563958,0.01584422742749667,0.0,0.0,0.0,0.0,0.0,0.0,0.0,0.0,0.0,-0.01025388663336832,0.21269046796562316,-0.003852561242155662,0.0,0.0,0.0,0.0,0.0,0.0,0.0,0.0,0.0
10.371,298,10,371000000,base_footprint,0.0035605196161536366,0.0015121801759017692,-0.9213560792524669,0.38870041321781573,0.0,0.0,0.0,0.0,0.0,0.0,0.0,0.0,0.0,0.0010515946402957286,-0.0005536176965540403,0.003322077609807774,0.0,0.0,0.0,0.0,0.0,0.0,0.0,0.0,0.0,0.0014555822637700028,0.09335466310660936,0.0005753656245678078,0.0,0.0,0.0,0.0,0.0,0.0,0.0,0.0,0.0
10.405,299,10,405000000,base_footprint,0.003557371791398176,0.001511271053011782,-0.9213431054380558,0.3887311966224244,0.0,0.0,0.0,0.0,0.0,0.0,0.0,0.0,0.0,0.0003766519893810599,0.00011983448322086182,0.0018589129603720474,0.0,0.0,0.0,0.0,0.0,0.0,0.0,0.0,0.0,-0.0018919589930635377,0.006949879781643539,-0.0004055080311709258,0.0,0.0,0.0,0.0,0.0,0.0,0.0,0.0,0.0
10.439,300,10,439000000,base_footprint,0.003555481827861111,0.0015090970158782168,-0.9213326463585483,0.3887560107948466,0.0,0.0,0.0,0.0,0.0,0.0,0.0,0.0,0.0,0.000272613537765171,0.0001022227035730018,0.0013912867513744568,0.0,0.0,0.0,0.0,0.0,0.0,0.0,0.0,0.0,-0.0006505771240634939,0.005775898884056226,-0.00017140363868409962,0.0,0.0,0.0,0.0,0.0,0.0,0.0,0.0,0.0
10.473,301,10,473000000,base_footprint,0.0035592538105270956,0.001510971443612591,-0.9213226954779467,0.3887795512560554,0.0,0.0,0.0,0.0,0.0,0.0,0.0,0.0,0.0,0.0014039369422868175,9.53944420161979e-05,0.0031998580557863632,0.0,0.0,0.0,0.0,0.0,0.0,0.0,0.0,0.0,0.009381793694040325,-0.36901516648989474,-0.0002499815474480586,0.0,0.0,0.0,0.0,0.0,0.0,0.0,0.0,0.0
10.507,302,10,507000000,base_footprint,0.0035513866452560384,0.0015062857987840166,-0.9212641035647072,0.38891846219883247,0.0,0.0,0.0,0.0,0.0,0.0,0.0,0.0,0.0,0.00039465586812200624,1.8049843081416382e-06,0.0041873009945463556,0.0,0.0,0.0,0.0,0.0,0.0,0.0,0.0,0.0,-0.0009080349717086045,-0.038471966709359595,-0.0019761480423937847,0.0,0.0,0.0,0.0,0.0,0.0,0.0,0.0,0.0
10.541,303,10,541000000,base_footprint,0.0035579305627781712,0.0015083362985565283,-0.921303454571312,0.38882516719817345,0.0,0.0,0.0,0.0,0.0,0.0,0.0,0.0,0.0,5.428116915654714e-05,0.00011375822214953355,-0.006216636334723824,0.0,0.0,0.0,0.0,0.0,0.0,0.0,0.0,0.0,-0.0006135546235441734,0.08481229945007093,-4.808407094338498e-05,0.0,0.0,0.0,0.0,0.0,0.0,0.0,0.0,0.0
10.575,304,10,575000000,base_footprint,0.0035546082965175847,0.0015074706484293774,-0.9213851213513654,0.388631638501592,0.0,0.0,0.0,0.0,0.0,0.0,0.0,0.0,0.0,0.0005577579185104638,-0.0004868573660617149,-0.03435287699340523,0.0,0.0,0.0,0.0,0.0,0.0,0.0,0.0,0.0,-0.0050095688398334864,0.283591613051167,0.0026791057230908136,0.0,0.0,0.0,0.0,0.0,0.0,0.0,0.0,0.0
10.609,305,10,609000000,base_footprint,0.0035678179172726563,0.0015078090189518485,-0.9217786808705338,0.3876971249311116,0.0,0.0,0.0,0.0,0.0,0.0,0.0,0.0,0.0,0.00029799845037881796,0.00035204591940443274,-0.06200094379489409,0.0,0.0,0.0,0.0,0.0,0.0,0.0,0.0,0.0,0.011691324668414972,0.07904970510065837,-0.0010529519705940761,0.0,0.0,0.0,0.0,0.0,0.0,0.0,0.0,0.0
10.643,306,10,643000000,base_footprint,0.00357165535786899,0.0015051819572177425,-0.9221921396359152,0.3867126003882122,0.0,0.0,0.0,0.0,0.0,0.0,0.0,0.0,0.0,0.00032802734510100403,0.0003234361185104774,-0.06358444167247965,0.0,0.0,0.0,0.0,0.0,0.0,0.0,0.0,0.0,0.014422465788778848,-0.0016093546111879756,9.116624036143925e-05,0.0,0.0,0.0,0.0,0.0,0.0,0.0,0.0,0.0
10.677,307,10,677000000,base_footprint,0.0035697446086036537,0.0014892204532919694,-0.9225480452162255,0.38586285570600337,0.0,0.0,0.0,0.0,0.0,0.0,0.0,0.0,0.0,0.00037703547059875025,0.0010991240561774222,-0.029142912276345,0.0,0.0,0.0,0.0,0.0,0.0,0.0,0.0,0.0,0.010796268924745167,-0.15821053454186326,-0.0002896879235074459,0.0,0.0,0.0,0.0,0.0,0.0,0.0,0.0,0.0
10.711,308,10,711000000,base_footprint,0.003576998878570755,0.0015003636301292183,-0.9225427129060161,0.38587549397701854,0.0,0.0,0.0,0.0,0.0,0.0,0.0,0.0,0.0,-0.0001433272198768863,-0.0009055028665001731,0.02465488406258491,0.0,0.0,0.0,0.0,0.0,0.0,0.0,0.0,0.0,0.01575325195427854,-0.19028706097667938,-0.0020118858630094093,0.0,0.0,0.0,0.0,0.0,0.0,0.0,0.0,0.0
10.745,309,10,745000000,base_footprint,0.0035740690327924055,0.001508042774034122,-0.9222701158616821,0.3865265647093616,0.0,0.0,0.0,0.0,0.0,0.0,0.0,0.0,0.0,-0.00028362642993912286,-0.00017256173477780306,0.05198686531047688,0.0,0.0,0.0,0.0,0.0,0.0,0.0,0.0,0.0,-0.023107532705331932,-0.07453008875341435,6.447183389977719e-05,0.0,0.0,0.0,0.0,0.0,0.0,0.0,0.0,0.0
10.779,310,10,779000000,base_footprint,0.00355012981161147,0.001497897634802237,-0.921862262779759,0.38749854366639774,0.0,0.0,0.0,0.0,0.0,0.0,0.0,0.0,0.0,-0.0020224363529252054,0.00116886582691288,0.08142229856296075,0.0,0.0,0.0,0.0,0.0,0.0,0.0,0.0,0.0,-0.009778548282527381,0.08263080500516287,-0.0021328168908691567,0.0,0.0,0.0,0.0,0.0,0.0,0.0,0.0,0.0
10.813,311,10,813000000,base_footprint,0.0035560369124291117,0.0015000414369645046,-0.9214254504293736,0.3885360263581627,0.0,0.0,0.0,0.0,0.0,0.0,0.0,0.0,0.0,0.00012908055434165822,-1.2618530883877285e-05,0.03615886154482586,0.0,0.0,0.0,0.0,0.0,0.0,0.0,0.0,0.0,-0.01832095108009528,0.15898422862407258,0.004084743891368721,0.0,0.0,0.0,0.0,0.0,0.0,0.0,0.0,0.0
10.847,312,10,847000000,base_footprint,0.0035610206023679977,0.0015126099408041608,-0.9214205377057836,0.38854758246245863,0.0,0.0,0.0,0.0,0.0,0.0,0.0,0.0,0.0,0.0008335069063011059,4.853722381358222e-05,-0.012839542146868246,0.0,0.0,0.0,0.0,0.0,0.0,0.0,0.0,0.0,-0.00517350900671773,0.13478740147455637,0.0012391052762453438,0.0,0.0,0.0,0.0,0.0,0.0,0.0,0.0,0.0
10.881,313,10,881000000,base_footprint,0.003566412509437653,0.001512021394033569,-0.9215614313949153,0.38821324379581823,0.0,0.0,0.0,0.0,0.0,0.0,0.0,0.0,0.0,0.00043450379011517233,6.192490628131994e-05,-0.03783225490804641,0.0,0.0,0.0,0.0,0.0,0.0,0.0,0.0,0.0,0.01877613822457036,-0.531878842323598,-0.0036632076756063442,0.0,0.0,0.0,0.0,0.0,0.0,0.0,0.0,0.0
10.915,314,10,915000000,base_footprint,0.0035577622899397162,0.0015066412740858892,-0.9217572541578715,0.38774816152613906,0.0,0.0,0.0,0.0,0.0,0.0,0.0,0.0,0.0,0.00027262666467458755,9.819503826996573e-05,-0.005629095935548315,0.0,0.0,0.0,0.0,0.0,0.0,0.0,0.0,0.0,0.010371304808505517,-0.1459299500037822,-0.0003200323567679409,0.0,0.0,0.0,0.0,0.0,0.0,0.0,0.0,0.0
10.949,315,10,949000000,base_footprint,0.0035566661195360616,0.00150468172112325,-0.9217845366291896,0.3876833167552385,0.0,0.0,0.0,0.0,0.0,0.0,0.0,0.0,0.0,0.0002223453441560911,0.0001091210542959091,-0.003349161087695844,0.0,0.0,0.0,0.0,0.0,0.0,0.0,0.0,0.0,0.00018128355144538975,0.009210613238661626,-0.0001426833638844754,0.0,0.0,0.0,0.0,0.0,0.0,0.0,0.0,0.0
10.983,316,10,983000000,base_footprint,0.0035524379540985474,0.0015011828463400436,-0.9218263976040759,0.38758382230807326,0.0,0.0,0.0,0.0,0.0,0.0,0.0,0.0,0.0,1.60243022224696e-05,0.00010402960152962017,-0.012550327909372593,0.0,0.0,0.0,0.0,0.0,0.0,0.0,0.0,0.0,-0.009600664274772824,0.5009410656649081,0.0023103244342189727,0.0,0.0,0.0,0.0,0.0,0.0,0.0,0.0,0.0
11.017,317,11,17000000,base_footprint,0.003558278581037206,0.0015043090596425926,-0.9217456059166381,0.38777585494865774,0.0,0.0,0.0,0.0,0.0,0.0,0.0,0.0,0.0,-5.107343968683082e-05,-2.8655626618682726e-05,0.0196299095717337,0.0,0.0,0.0,0.0,0.0,0.0,0.0,0.0,0.0,-0.006071715675004766,0.18496304800752522,0.0010747361465538949,0.0,0.0,0.0,0.0,0.0,0.0,0.0,0.0,0.0
11.051,318,11,51000000,base_footprint,0.0035609918177571696,0.0015063002594352297,-0.9216181870810523,0.3880785585912175,0.0,0.0,0.0,0.0,0.0,0.0,0.0,0.0,0.0,-0.00014573949552588886,-2.685862103382209e-05,0.0190714151112704,0.0,0.0,0.0,0.0,0.0,0.0,0.0,0.0,0.0,-0.004249562669704662,0.005299004245327566,-0.00023082075731798004,0.0,0.0,0.0,0.0,0.0,0.0,0.0,0.0,0.0
11.085,319,11,85000000,base_footprint,0.0035655324110635627,0.0015082612231483335,-0.9216369869920216,0.3880338597789844,0.0,0.0,0.0,0.0,0.0,0.0,0.0,0.0,0.0,-4.601113933315679e-05,0.0001477928173197471,-0.01214186506909796,0.0,0.0,0.0,0.0,0.0,0.0,0.0,0.0,0.0,0.00042566389463361345,0.01211984286631895,-0.00021085109410406923,0.0,0.0,0.0,0.0,0.0,0.0,0.0,0.0,0.0
11.119,320,11,119000000,base_footprint,0.0035686912702662206,0.0015088547587704087,-0.921721302357019,0.3878335062642411,0.0,0.0,0.0,0.0,0.0,0.0,0.0,0.0,0.0,4.5755462117946175e-05,7.731334549621846e-05,-0.013570519681274222,0.0,0.0,0.0,0.0,0.0,0.0,0.0,0.0,0.0,0.0032373857261135193,-9.137447650142856e-05,5.134011944674693e-05,0.0,0.0,0.0,0.0,0.0,0.0,0.0,0.0,0.0
11.153,321,11,153000000,base_footprint,0.003570170440962102,0.0015093245748613883,-0.9218158888765255,0.3876086206950658,0.0,0.0,0.0,0.0,0.0,0.0,0.0,0.0,0.0,0.00019231786978048408,3.489168967074427e-05,-0.015210053527691943,0.0,0.0,0.0,0.0,0.0,0.0,0.0,0.0,0.0,0.004303307558523953,-0.006205959555204691,0.00022975569695062606,0.0,0.0,0.0,0.0,0.0,0.0,0.0,0.0,0.0
11.187,322,11,187000000,base_footprint,0.00357318583261503,0.0015031477149577259,-0.9217756504815615,0.3877042984920942,0.0,0.0,0.0,0.0,0.0,0.0,0.0,0.0,0.0,-0.002144865085238583,-0.0002723326993705541,0.03415044400549789,0.0,0.0,0.0,0.0,0.0,0.0,0.0,0.0,0.0,0.007550511176771628,-0.18909936531262245,-0.004570912966682331,0.0,0.0,0.0,0.0,0.0,0.0,0.0,0.0,0.0
11.221,323,11,221000000,base_footprint,0.0035620793071648553,0.0015121119445524465,-0.9215972140722746,0.38812832945135406,0.0,0.0,0.0,0.0,0.0,0.0,0.0,0.0,0.0,0.0003857832847893926,0.0005131855308773099,-0.0037392662233344445,0.0,0.0,0.0,0.0,0.0,0.0,0.0,0.0,0.0,-0.015175928757666372,-0.14700878518209579,0.00355861999486347,0.0,0.0,0.0,0.0,0.0,0.0,0.0,0.0,0.0
11.255,324,11,255000000,base_footprint,0.003568625745244172,0.0015076733414012562,-0.9216805972442329,0.3879302366339859,0.0,0.0,0.0,0.0,0.0,0.0,0.0,0.0,0.0,0.0003958703478257644,-0.000967113704168339,-0.007478263775191974,0.0,0.0,0.0,0.0,0.0,0.0,0.0,0.0,0.0,0.009938733318896421,-0.07001043157978995,-0.0014559614185472068,0.0,0.0,0.0,0.0,0.0,0.0,0.0,0.0,0.0
11.289,325,11,289000000,base_footprint,0.0035491775434913905,0.0014973472849981037,-0.9216128163924944,0.3880914556531326,0.0,0.0,0.0,0.0,0.0,0.0,0.0,0.0,0.0,0.0009266510040402097,0.0005615957547583483,0.03421268783053598,0.0,0.0,0.0,0.0,0.0,0.0,0.0,0.0,0.0,-0.007890015151851282,0.21259972400757046,0.0026123563795576797,0.0,0.0,0.0,0.0,0.0,0.0,0.0,0.0,0.0
11.323,326,11,323000000,base_footprint,0.003563227225159431,0.0015120098500681408,-0.9213956873222413,0.38860649070998515,0.0,0.0,0.0,0.0,0.0,0.0,0.0,0.0,0.0,0.0008121539231715533,-0.00020750362437698175,0.023841644854567207,0.0,0.0,0.0,0.0,0.0,0.0,0.0,0.0,0.0,-0.012027627771291759,0.15718441766565397,0.0010249634840205995,0.0,0.0,0.0,0.0,0.0,0.0,0.0,0.0,0.0
11.357,327,11,357000000,base_footprint,0.0035586881905784115,0.0015119322762928561,-0.9212336264588775,0.3889905593720491,0.0,0.0,0.0,0.0,0.0,0.0,0.0,0.0,0.0,0.0001352317724347481,-0.00022033983189396296,0.024553192375376,0.0,0.0,0.0,0.0,0.0,0.0,0.0,0.0,0.0,-0.003337546383060959,0.0013871275210588737,-0.0009900348118355117,0.0,0.0,0.0,0.0,0.0,0.0,0.0,0.0,0.0
11.391,328,11,391000000,base_footprint,0.0035519070136526398,0.001507566040141062,-0.9211607833404152,0.3891631051845405,0.0,0.0,0.0,0.0,0.0,0.0,0.0,0.0,0.0,0.0016421693116504702,-0.0002920922887477377,0.004189906284946163,0.0,0.0,0.0,0.0,0.0,0.0,0.0,0.0,0.0,0.018921196541379637,-0.6838368226572197,-0.0027472795057451923,0.0,0.0,0.0,0.0,0.0,0.0,0.0,0.0,0.0
