Time,Theta_calculated,linear_velocity_x,world_velocity_x,world_velocity_y,angular_velocity_yaw,linear_acceleration_x,angular_acceleration_yaw,kinematic_delta_x,kinematic_delta_y,kinematic_delta_yaw
0.29,2.356175913438161,-8.566663389771299e-06,6.05743324446579e-06,-6.05765830354342e-06,-0.0002008515790795,-0.000475476994619,0.0023447046224855,2.0171559973055425e-07,-2.0171694888128146e-07,-6.6883575833498e-06
0.322,2.3561692250805777,-3.419008865987612e-05,2.4175432722609503e-05,-2.417665434349367e-05,-0.0004470800890762,-0.0007694722303334,-0.0073942495494502,8.050508724898986e-07,-8.050736271638644e-07,-1.488776696623969e-05
0.356,2.356154337313611,-6.6722576985867805e-06,4.717809219463362e-06,-4.718188101919746e-06,-0.0001288036791938,0.0008263612901288,0.0095578501466199,1.5710562873800954e-07,-1.5711308222399388e-07,-4.289162517154252e-06
0.389,2.3561500481510933,0.0001832161399587,-0.0001295476172432,0.0001295591324761,0.0004617349301135,0.0057023542840036,0.017733892171393,-4.314048966756934e-06,4.314205805967916e-06,1.5375773172781828e-05
0.422,2.356165423924267,3.775119240244595e-05,-2.6693348235802956e-05,2.6694900032939777e-05,-0.0004245794079461,-0.004368316743432,-0.0266160461879784,-8.888987256775804e-07,8.889299421389714e-07,-1.4138494284605629e-05
0.455,2.3561512854299824,-7.840459100585564e-06,5.5438022634571145e-06,-5.544281321473755e-06,2.002574005765755e-05,-0.0013691186637547,0.0133515059460592,1.846121065605008e-07,-1.8462107691720723e-07,6.668571439199965e-07
0.49,2.356151952287126,-7.464793750382887e-06,5.27818174393311e-06,-5.278630808625154e-06,0.0001534793380869,1.1281241747828128e-05,0.0040076155564365,1.75767166609466e-07,-1.757746916165586e-07,5.110861958296874e-06
0.522,2.356157063149084,-5.648331423216217e-06,3.993823966330777e-06,-3.994122931565032e-06,0.0001929338896251,5.454841823323334e-05,0.001184821367511,1.329972360867553e-07,-1.3300139575693788e-07,6.424698524516255e-06
0.556,2.356163487847608,-4.170353700828818e-06,2.948793958024137e-06,-2.948976802746499e-06,0.0002128588386164,4.438371538700899e-05,0.0005983468165564,9.819701106360633e-08,-9.819875535141093e-08,7.088199325927496e-06
0.5900000000000001,2.356170576046935,-2.945794069315317e-06,2.082941148847601e-06,-2.083040774745116e-06,0.0002309551139995,3.677356250791291e-05,0.0005434316931864,6.936349555730786e-08,-6.936370253591007e-08,7.690805296184999e-06
0.622,2.356178266852231,-1.6964687795991133e-06,1.1995651166993303e-06,-1.1996040392365418e-06,0.000230701056557,3.751727596745358e-05,-7.629352627958617e-06,3.99464139020424e-08,-3.99459190020638e-08,7.682345183349381e-06
0.656,2.356185949197414,-6.385054538153288e-07,4.51487680014023e-07,-4.514953923878673e-07,0.000233709908671,3.177067044395749e-05,9.035591933824462e-05,1.5034877542678107e-08,-1.503445876622315e-08,7.782539958744367e-06
0.6900000000000001,2.356193731737372,4.197920798648714e-07,-2.968376012226444e-07,2.968380514988954e-07,0.0002407684978181,3.1780706717123127e-05,0.0002119696440579,-9.884915369673117e-09,9.884483861167457e-09,8.017590977343752e-06
0.7230000000000001,2.35620174932835,1.484419100108122e-06,-1.0496504312815575e-06,1.0496351922817025e-06,0.0002306466701891,3.1970781388686205e-05,-0.0003039587876558,-3.4954142890965544e-08,3.4952068343120675e-08,7.680534117300003e-06
0.756,2.356209429862467,2.6330392331981896e-06,-1.861867711990771e-06,1.861812081443012e-06,0.0002245512608501,3.449309708979182e-05,-0.0001830453254978,-6.200157832111512e-08,6.199695873060393e-08,7.4775569863087476e-06
0.789,2.356216907419453,4.062741104013507e-06,-2.872856184157307e-06,2.872727384105566e-06,0.0002214972963196,4.293399011457409e-05,-9.171064656040564e-05,-9.566824078563609e-08,9.56596918881943e-08,7.375859967444379e-06
0.8230000000000001,2.3562242832794213,5.441820760725227e-06,-3.848063002463367e-06,3.847833717942177e-06,0.0002018255318099,4.141380350485646e-05,-0.0005907436789695,-1.2814330881895785e-07,1.2813005173669258e-07,6.720790209271879e-06
0.8560000000000001,2.356231004069631,7.123237992626137e-06,-5.037073801613097e-06,5.036705968854588e-06,0.0001853430981918,5.04930099669943e-05,-0.0004949679765204,-1.677381908726289e-07,1.677186751328815e-07,6.171925169788122e-06
0.89,2.3562371759948,9.289632320337848e-06,-6.5690423953336e-06,6.568481609578835e-06,0.0001705295258141,6.505688671806938e-05,-0.0004448520233544,-2.187537960545831e-07,2.1872575279636375e-07,5.67863320961063e-06
0.923,2.35624285462801,-0.0001525649085368,0.0001078848988112,-0.0001078744637314,0.0021885016279964,-0.0048604967224389,0.0605997628282978,3.592764751242551e-06,-3.5920219898415536e-06,7.287710421228188e-05
0.956,2.356315731732222,9.734709735369376e-06,-6.884313779794466e-06,6.882644652546529e-06,0.0001624420050829,0.004873862410578,-0.0608426313187224,-2.2925252635068238e-07,2.291871881703243e-07,5.409318769263752e-06
0.99,2.356321141050992,8.285033414117123e-06,-5.8591452343011294e-06,5.857661290686208e-06,0.0001915681747052,-4.353382346102856e-05,0.0008746597484173,-1.9511378200920242e-07,1.9505587411083838e-07,6.379220217686244e-06
1.022,2.356327520271209,6.535275854324325e-06,-4.621752582961241e-06,4.620523082293351e-06,0.0002067560409576,-5.254527206584978e-05,0.0004560920796506,-1.5390774893202917e-07,1.5386002974249516e-07,6.88497616389e-06
1.056,2.356334405247373,5.280667140436937e-06,-3.734517949833504e-06,3.7334730654528335e-06,0.000224137994282,-3.767593735397563e-05,0.0005219805803117,-1.243622212110557e-07,1.2432187875185778e-07,7.463795209591882e-06
1.09,2.3563418690425824,4.369194177828794e-06,-3.08994212292628e-06,3.0890314728954877e-06,0.0002458692833022,-2.737156043868297e-05,0.0006525912618682,-1.028974046597296e-07,1.028624153413974e-07,8.187447133964983e-06
1.123,2.356350056489717,3.4092692724279694e-06,-2.41109241863576e-06,2.410342365872263e-06,0.0002503424281583,-2.882657373576049e-05,0.0001343286743585,-8.02912031301775e-08,8.026257458599334e-08,8.336402857674392e-06
1.155,2.3563583928925738,2.7613131211441097e-06,-1.952863233820497e-06,1.952223179606977e-06,0.0002595779897358,-1.9458142681196985e-05,0.0002773441915141,-6.503183429337321e-08,6.50075427510784e-08,8.643947058202494e-06
1.19,2.3563670368396323,2.3101058792612643e-06,-1.6337733616540189e-06,1.6332096546822109e-06,0.0002751800775315,-1.3549767023508873e-05,0.0004685311650366,-5.440591242406555e-08,5.438462155634624e-08,9.163496581799988e-06
1.223,2.3563762003362143,1.831500265982013e-06,-1.295301563114959e-06,1.2948309097654909e-06,0.000273124630096,-1.4372540939316853e-05,-6.172514821237951e-05,-4.3134539109752736e-08,4.311687185180872e-08,9.095050182198764e-06
1.256,2.3563852953863966,1.509809483590047e-06,-1.0678002076732129e-06,1.0673928017517675e-06,0.0002779405579803,-9.660383855614594e-06,0.0001446224589876,-3.555857168902394e-08,3.5543355189301355e-08,9.255420580745615e-06
1.29,2.356394550806977,1.2859977497162655e-06,-9.09519633881073e-07,9.091557885533908e-07,0.0002904769708345,-6.72107308930275e-06,0.0003764688544795,-3.0287712631417224e-08,3.0274178634179756e-08,9.672883128789388e-06
1.323,2.356404223690106,1.0368981754999631e-06,-7.333514912935883e-07,7.330439390463729e-07,0.0002852240439044,-7.480467694183254e-06,-0.0001577455534555,-2.4421174042819037e-08,2.4409793534824162e-08,9.497960662018107e-06
1.355,2.3564137216507675,8.674498094414574e-07,-6.135140999673099e-07,6.132451557422387e-07,0.0002879195135195,-5.088539521276449e-06,8.094503348790752e-05,-2.0430496776247765e-08,2.0420586218631944e-08,9.587719800202512e-06
1.39,2.356423309370568,7.482026970991013e-07,-5.291802458610476e-07,5.289381280800343e-07,0.00029901035793,-3.580994364635317e-06,0.0003330583907048,-1.7622117076578778e-08,1.7613224576179212e-08,9.957044919071251e-06
1.423,2.356433266415488,6.092782700360431e-07,-4.309276548072905e-07,4.307219133738174e-07,0.0002921596340022,-4.171904716608353e-06,-0.0002057274452797,-1.4350227119091576e-08,1.4342703332034501e-08,9.728915812275e-06
1.455,2.3564429953312995,5.132162577072062e-07,-3.62988867024537e-07,3.628085026446218e-07,0.000293793336928,-2.884745114980086e-06,4.906014792326153e-05,-1.2087812802729665e-08,1.208123945940166e-08,9.783318119705626e-06
1.49,2.35645277864942,0.0340396299233279,-0.0240758692584919,0.0240634354314824,-0.0002547075622766,1.0221956969090158,-0.0164714984746158,-0.0008017379337533,0.0008013009063553,-8.48176182381118e-06
1.523,2.356444296887595,0.0667239728561057,-0.0471927583251229,0.0471691860791436,4.376565266409979e-05,0.9815117997831174,0.0089631596078291,-0.0015715491758157,0.0015707035575278,1.4573962337145231e-06
1.5550000000000002,2.356445754283829,0.1000873765098424,-0.0707902429855596,0.0707546778288785,4.3749299094278266e-05,1.0019040136257262,-4.91098192838651e-07,-0.0023573605764236,0.0023560852626586,1.4568516598394665e-06
1.589,2.356447211135489,0.1371541464086511,-0.0970071334370741,0.0969581143556712,4.469138916699965e-05,1.1131162131774386,2.8290993174816472e-05,-0.0032303999244787,0.0032286427947873,1.4882232592610886e-06
1.622,2.356448699358748,0.1668136003514331,-0.1179850094403971,0.1179250389423598,4.197271321561017e-05,0.8906742925760366,-8.164192046214663e-05,-0.0039289765071854,0.0039268280644536,1.3976913500798188e-06
1.656,2.3564500970500983,0.200176658801223,-0.1415824484472992,0.1415100880520153,3.87969139337441e-05,1.0018936471408375,-9.536934780378592e-05,-0.0047147861159463,0.0047121953023201,1.2919372339936786e-06
1.689,2.356451388987333,0.2127985942977285,-0.1505099799922506,0.1504326681868721,0.0394409615341129,0.3790371019971614,1.183248186792169,-0.0050153635269549,0.0050060219138481,0.0013133840190859
1.722,2.3577647730064184,0.2065400523464176,-0.1462750247697193,0.1458163583137329,0.0382730927434013,-0.1879442027420689,-0.0350711348562059,-0.0048741414205679,0.004852488869283,0.0012744939883552
1.755,2.359039266994774,0.2065403136151304,-0.1464609332613709,0.1456299975157751,0.0382617892778838,7.84590729139365e-06,-0.000339443408934,-0.0048803271897825,0.0048462799151087,0.0012741175829535
1.79,2.3603133845777275,0.1827119681004981,-0.129727922482658,0.1286636289535272,0.0351330437899956,-0.7155659313703387,-0.0939563209576022,-0.0043225246599178,0.0042818905549396,0.0011699303582068
1.822,2.361483314935934,0.1835613786932106,-0.1304821533222551,0.1291092073097026,0.0736246481789894,0.0255078256069807,1.1559040357055193,-0.0043504014614924,0.0042939250951425,0.0024517007843603
1.856,2.363935015720294,0.1834483051556782,-0.1307177264387785,0.1287095826237018,0.075546722669447,-0.0033956017276988,0.0577199546683976,-0.0043583664083809,0.0042804683114142,0.0025157058648925
1.89,2.3664507215851867,0.2166379597608221,-0.1547491988974053,0.1516070283659135,0.0365352854829307,0.9966863244787963,-1.1715146302257144,-0.0051563118517178,0.0050452822882987,0.0012166250065815
1.922,2.3676673465917686,0.2180173538942021,-0.1559200381163516,0.1523827690811044,0.0774853264406968,0.0414232472486463,1.2297309596926729,-0.0051987722135171,0.0050675454724464,0.0025802613704752
1.956,2.370247607962243,0.2178694029860566,-0.1562066291066335,0.1518768112011948,0.0793365962634569,-0.0044429702145782,0.0555936883711749,-0.0052084492412199,0.005050523995804,0.0026419086555731
1.99,2.3728895166178168,0.2242105995944175,-0.1611654618213369,0.1558720208581496,0.0647490086673509,0.1904263245754027,-0.4380656935767562,-0.005372497801798,0.0051846486703233,0.0021561419886227
2.022,2.37504565860644,0.2178299300508952,-0.1569051081512849,0.1510981980766531,0.0619924477586594,-0.1916116980036739,-0.0827796068676132,-0.0052302232146483,0.0050260762158057,0.0020643485103633
2.056,2.377110007116803,0.2180124477708775,-0.1573484233808112,0.1509003016651146,0.0617260579119126,0.0054810126120815,-0.0079996950974997,-0.0052449564212457,0.0050194940296356,0.0020554777284666
2.089,2.37916548484527,0.1930517957315613,-0.1396076741960449,0.1333367659003002,0.0616591525031531,-0.7495691303097954,-0.0020091714342189,-0.0046535730078488,0.0044352520258983,0.002053249778355
2.122,2.3812187346236247,0.1952447886435385,-0.141470148613455,0.1345612297199568,0.0866701882602739,0.0658556430023181,0.7510821548684894,-0.0047174987028659,0.0044739969129723,0.0028861172690671
2.155,2.384104851892692,0.1955396191659354,-0.142072131733662,0.1343549479855955,0.0861789522522386,0.0088537694413499,-0.0147518320731321,-0.0047374981538408,0.0044671372070107,0.0028697591099995
2.189,2.3869746110026915,0.2161198879866414,-0.1574505224695036,0.1480443817152099,0.1032156820602232,0.6180260907118915,0.5116135077472855,-0.0052516556771362,0.0049207601685825,0.0034370822126054
2.222,2.390411693215297,0.2182534776426102,-0.1595178373550028,0.1489585179460248,0.1245943611990187,0.0640717614405027,0.6420023765404078,-0.0053223108315727,0.0049491859545973,0.0041489922279273
2.256,2.394560685443224,0.2184803588311135,-0.1603009550536142,0.1484495571023076,0.1248064334283851,0.0068132489040049,0.0063685354164057,-0.0053483705033802,0.0049321641279529,0.0041560542331652
2.289,2.3987167396763898,0.2246748635529048,-0.1654789489944467,0.1519720755672229,0.0736690475281865,0.186021162816555,-1.5356572342401975,-0.0055167447211023,0.0050538035018504,0.0024531792826886
2.322,2.401169918959078,0.2178102943281115,-0.1607839540558727,0.1469348305659948,0.0688755953295752,-0.2061432199637622,-0.1439475134718111,-0.0053598028607214,0.0048866860297067,0.0022935573244748
2.355,2.4034634762835534,0.2174681278505738,-0.1608674239461949,0.1463354316074842,0.0710017535159823,-0.0102752695957294,0.0638485941863998,-0.0053627313526417,0.0048665329157803,0.0023643583920822
2.389,2.4058278346756348,0.2125923625453286,-0.1575984724693666,0.1426822837213041,0.0360941841915879,-0.1464193785358917,-1.0482753550869182,-0.0052509714659791,0.0047480674606651,0.0012019363335798
2.422,2.4070297710092152,0.2059368121097246,-0.1528306111790614,0.1380317893405376,0.036502833320457,-0.1998663794475661,0.0122717456116836,-0.0050921370272009,0.0045932697486973,0.0012155443495712
2.455,2.408245315358786,0.2060582697510644,-0.1530885174884257,0.1379272139427111,0.0368620109224159,0.0036473766168093,0.0107861141729426,-0.0051007505659196,0.004589751500025,0.0012275049637164
2.489,2.4094728203225024,0.2242555281575044,-0.1667920845615768,0.1499031101638823,0.1324704567539121,0.54646421640961,2.871124499444328,-0.0055652609078457,0.0049794035399624,0.0044112662099052
2.523,2.4138840865324074,0.2178715479061173,-0.1626848006699017,0.1449195191063022,0.1269541899688559,-0.1917111186602729,-0.165653657208895,-0.0054276779011021,0.0048142535613979,0.0042275745259629
2.555,2.4181116610583704,0.2180515088755005,-0.1634308849337617,0.1443495977571465,0.1266624560915005,0.0054042333148105,-0.0087607770977597,-0.0054524586897585,0.00479524876114,0.0042178597878469
2.59,2.422329520846217,0.2130747516248471,-0.160294304049533,0.1403801477035345,0.1058718678877447,-0.1494521696892891,-0.6243419881007731,-0.0053461162554288,0.0046651406356102,0.0035255332006619
2.622,2.4258550540468797,0.2069184799101769,-0.1561426408874579,0.1357745669299984,0.1033567959398629,-0.1848730244645731,-0.0755276861225768,-0.0052074041430153,0.0045122395683945,0.0034417813047974
2.656,2.4292968353516766,0.2070556550023263,-0.1567128443149096,0.1353260089383163,0.1027403307125175,0.0041193721366199,-0.0185124692896534,-0.0052263197664579,0.0044973232590072,0.0034212530127268
2.69,2.4327180883644037,0.2014611632095031,-0.1529281600661639,0.1311471621519268,0.0690417774774412,-0.1680027565412381,-1.0119685656179067,-0.0050976045564529,0.0043612478888432,0.0022990911899987
2.722,2.4350171795544027,0.1955095309859615,-0.1487025250613793,0.1269312244749907,0.0673573211418854,-0.1787276944006482,-0.0505842743410126,-0.0049566087113762,0.0042211607220821,0.0022429987940247
2.756,2.437260178348428,0.1953532907384192,-0.1488677954047329,0.1264961963604595,0.0667192568357002,-0.0046918993255944,-0.0191610902758333,-0.004962051022104,0.0042067207564686,0.0022217512526288
2.789,2.4394819296010564,0.239395711076752,-0.1827740095759797,0.1546090809282022,0.1122858812052501,1.3225952053553385,1.3683670981846825,-0.0060960811511717,0.0051369783249524,0.0037391198441348
2.822,2.4432210494451905,0.2180130932649827,-0.166974094694163,0.1401761767777633,0.0743225963231195,-0.6421206550080857,-1.1400385850489674,-0.0055660946096458,0.0046608778919174,0.0024749424575598
2.855,2.4456959919027508,0.2179839660635683,-0.1672981564043555,0.1397438239225859,0.0746925028702197,-0.0008746907331652,0.0111083047177241,-0.0055768963725963,0.0046464326430067,0.0024872603455783
2.89,2.448183252248329,0.2243855499385188,-0.1725684924251823,0.1434189333502076,0.0203268503670299,0.1922397560045183,-1.6326021772729655,-0.0057482353902203,0.0047737984654962,0.000676884117222
2.923,2.448860136365552,0.2175959072003881,-0.1674408750696308,0.1389659389428798,0.0231640611271013,-0.2038931753192396,0.0852015243264666,-0.0055776512780821,0.0046253112178551,0.0007713632355324
2.955,2.449631499601084,0.2176063328864871,-0.1675560462000552,0.1388433919713488,0.0256734808432559,0.0003130836666363,0.0753579494340723,-0.0055816778735693,0.0046209956188296,0.0008549269120804
2.99,2.450486426513164,0.2243574609330865,-0.1728767094840607,0.1430031943500044,-0.0115196956333866,0.2027365779759591,-1.116912206505782,-0.0057559693999914,0.0047630034986931,-0.0003836058645917
3.022,2.4501028206485724,0.2179294843228688,-0.1678703899253818,0.1389704728477665,-0.0123387715513139,-0.1930323306371676,-0.0245968744122327,-0.005589219094907,0.0046287612167612,-0.0004108810926587
3.055,2.4496919395559136,0.2181104673829499,-0.1679526386620011,0.1391549034295239,-0.0129619061176699,0.0054349267291597,-0.0187127497404189,-0.0055919087377607,0.0046349612807732,-0.0004316314737184
3.089,2.449260308082195,0.2246409053015177,-0.1729194246641378,0.1433959863751739,0.2200521804126483,0.1961092468038404,6.997420015925473,-0.0057757488330144,0.0047538390622829,0.0073277376077411
3.122,2.4565880456899363,0.2183825529168547,-0.1691189718802602,0.1381655267012962,0.1274475829706274,-0.1879385100499413,-2.780918842102729,-0.0056414932356362,0.0045888430466799,0.0042440045129218
3.155,2.4608320502028587,0.2185270503794007,-0.1698161103363281,0.1375374873180442,0.1253213263748141,0.0043392631395202,-0.0638515494238239,-0.0056645015324794,0.0045680803579329,0.0041732001682813
3.189,2.4650052503711395,0.2250425232430073,-0.1754688068468119,0.1409071860883457,0.0106130298855686,0.195659845753951,-3.444693588265629,-0.0058440274381622,0.0046910681184656,0.0003534138951894
3.223,2.465358664266329,0.2183658133972116,-0.1703111931470734,0.1366664770506875,0.0072700619376598,-0.2005017971710416,-0.1003894278651287,-0.0056719980873518,0.0045502017760169,0.000242093062524
3.255,2.465600757328853,0.218112360654535,-0.1701465590396102,0.1364666637581296,0.0068118931687646,-0.0076111934737709,-0.0137588218887457,-0.0056664801836356,0.004543591987204,0.0002268360425198
3.289,2.4658275933713725,0.224311266279416,-0.175014073916517,0.1403054457639439,-0.0242304737696585,0.186153322068498,-0.9322032113640608,-0.0058261699369809,0.0046744138267806,-0.0008068747765296
3.323,2.465020718594843,0.2176833372984362,-0.1697328547968012,0.1362967106716546,-0.0221425751269673,-0.1990369063357314,0.0626996589396773,-0.0056505146114097,0.0045406588696789,-0.000737347751728
3.356,2.4642833708431158,0.2174301853678889,-0.1694350389617749,0.1362631758074658,-0.0187438944867831,-0.0076021600764942,0.1020624816872119,-0.0056408546466432,0.0045392195183362,-0.0006241716864098
3.39,2.463659199156705,0.2130213297041052,-0.1659160267883785,0.1336037385841547,0.2073307785012025,-0.1323980679814936,6.789029218858428,-0.0055404002492503,0.0044297936736153,0.00690411492409
3.422,2.4705633140807954,0.2063031172203918,-0.1615728973041968,0.128277726170907,-0.0266922352383076,-0.2017481226340336,-7.027718130315619,-0.0053785577383791,0.0042739389815692,-0.0008888514334356
3.456,2.46967446264736,0.2062361747391396,-0.1614064225217061,0.1283796188644342,-0.0264294234286784,-0.0020102847222888,0.0078922465354099,-0.0053730314041154,0.0042773061385034,-0.0008800998001749
3.49,2.468794362847185,0.2244461417812444,-0.1755350405615596,0.1398696539480173,0.0097118679391283,0.5468458571202646,1.0853240650993032,-0.0058461564100774,0.0046566055905366,0.0003234052023729
3.522,2.469117768049558,0.218056584250001,-0.170581827568824,0.135832669259121,0.0094331224721936,-0.1918786045418463,-0.0083707347427817,-0.0056811691988609,0.0045222301069111,0.000314122978324
3.555,2.469431891027882,0.2182319778330702,-0.1707617289408447,0.1358882926453457,0.0088614009639808,0.0052670745666443,-0.0171688140604443,-0.0056871171767818,0.0045241354524204,0.0002950846521005
3.589,2.4697269756799827,0.2250034360257545,-0.176101581324113,0.1400527731911891,-0.0140337118263619,0.203347092873403,-0.6875409246349213,-0.0058631793669668,0.0046650184920064,-0.0004673226038178
3.622,2.469259653076165,0.2184974155323549,-0.1709459919849615,0.1360830203169964,-0.0155192864045826,-0.1953759907927816,-0.044611849195814,-0.0056914145491392,0.0045329295678853,-0.0005167922372726
3.655,2.4687428608388924,0.2184926467204358,-0.1708719130682763,0.1361683736970101,-0.0175709997245536,-0.0001432075651374,-0.0616130126117438,-0.0056887920719135,0.00453596556713,-0.0005851142908276
3.689,2.468157746548064,0.2006976998928056,-0.1568821842441,0.1251700723378514,-0.0359265351868982,-0.5343827876165222,-0.5512172811514885,-0.0052217596788161,0.0041711903929414,-0.0011963536217237
3.723,2.4669613929263408,0.2061931437477508,-0.1610239215494929,0.1287901751586796,-0.0192601925419247,0.1650283439923471,0.5004907701193234,-0.0053608006075153,0.0042903324821268,-0.000641364411646
3.756,2.4663200285146942,0.2064843276761116,-0.1611685667033898,0.1290754456999116,-0.0275564237087024,0.008744262112937,-0.2491360710744035,-0.0053650203278556,0.0043005744918858,-0.0009176289094997
3.789,2.4654023996051944,0.2245792947821175,-0.1751634533080369,0.1405475872081636,0.0080906637554361,0.5433924055857615,1.070483107031187,-0.005833660324866,0.0046793404746176,0.000269419103056
3.822,2.465671818708251,0.2176285526295703,-0.1697788223876891,0.1361518945453613,0.0058272280344604,-0.2087309955719856,-0.0679710426719417,-0.0056541588533208,0.0045332044902058,0.0001940466935475
3.855,2.465865865401798,0.2175302806255427,-0.1697285620316554,0.1360574813073278,0.0087143578433373,-0.0029511112320607,0.0867005948611659,-0.0056527025657746,0.004529788989895,0.0002901881161831
3.89,2.466156053517981,0.2125868733703767,-0.1659100338212069,0.1329174157393927,0.0018418681900087,-0.1484506683233036,-0.2063810706705256,-0.0055250220793858,0.0044258778753664,6.133421072729295e-05
3.923,2.466217387728709,0.2061664783649802,-0.1609072448366062,0.1288932711995095,0.0033431974125672,-0.1928046548167112,0.0450849616383925,-0.0053585298886862,0.0042917481179846,0.0001113284738384
3.955,2.466328716202547,0.2063083316895262,-0.1610323158068569,0.128964029831563,0.0031621173692179,0.004259859595975,-0.0054378391396193,-0.0053626819805351,0.0042941202398649,0.0001052985083949
3.989,2.4664340147109423,0.2127257435566526,-0.1660553764466166,0.1329580908591243,-0.0348643716182895,0.192715071084878,-1.141936606231455,-0.0055271549711042,0.0044306106677383,-0.001160983574889
4.022,2.4652730311360536,0.2066512569615725,-0.1611635218234424,0.1293486035381235,-0.0352750080586761,-0.1824170148672707,-0.0123314246362346,-0.0053642943095476,0.0043103599009865,-0.0011746577683539
4.056,2.4640983733676998,0.2068159565605841,-0.1611397953379481,0.1296410669753747,-0.0359298746248796,0.0049459339042508,-0.0196656626487541,-0.0053634515624694,0.0043201569534408,-0.0011964648250084
4.089,2.4629019085426904,0.2247448334937164,-0.1749403226435073,0.1410890629903816,-0.0005123897240093,0.5384047127066766,1.0635881351612688,-0.005825559939857,0.0046982072772334,-1.706257780951237e-05
4.122,2.462884845964881,0.2185258298887337,-0.1700971386980835,0.1371878337728413,-0.0010077558881756,-0.1867568650144947,-0.0148758607857751,-0.0056642429305247,0.0045683446822765,-3.355827107625054e-05
4.156,2.4628512876938053,0.2184814593333379,-0.1700579983939775,0.1371656854124199,-0.0030205318658203,-0.001332449110985,-0.060443723052393,-0.0056627864788283,0.0045677969204406,-0.0001005837111318
4.189,2.462750703982673,0.2001400631835343,-0.1557690854683059,0.1256663714104801,-0.0053663889364122,-0.5507926771712799,-0.0704461582760321,-0.0051868143605235,0.0041850572625206,-0.0001787007515825
4.223,2.4625720032310907,0.2061352554500327,-0.1604120139088658,0.1294593732919794,0.0142077853251885,0.1800358037987521,0.5878130408889136,-0.0053428197316641,0.0043096340830118,0.0004731192513287
4.255,2.46304512248242,0.2063298411697825,-0.1606247277779507,0.1295055990426934,0.0044646690854765,0.0058434150074993,-0.2925860732646259,-0.0053492040998191,0.0043120394495155,0.0001486734805463
4.29,2.4631937959629653,0.2243668829160445,-0.1746872331160927,0.14080081226934,-0.065438288677403,0.5416529052931548,-2.099187920807194,-0.005812058952485,0.0046948933573342,-0.0021790950129575
4.322,2.461014700950008,0.2177691897383765,-0.1692522125837919,0.1370295899971972,-0.0643699914055473,-0.1981289242542936,0.032080999154827,-0.005631288709413,0.0045690177871284,-0.0021435207138047
4.355,2.458871180236203,0.217679286431236,-0.1688883459605161,0.1373353499283163,-0.062096130623704,-0.002699799013231,0.0682841075628616,-0.0056193346742411,0.0045789741414101,-0.0020678011497693
4.389,2.456803379086434,0.2126074298359539,-0.1646755844560925,0.1344762845467349,-0.0696408997224246,-0.152308005864326,-0.226569642604223,-0.0054785829496198,0.0044843129469188,-0.0023190419607567
4.423,2.454484337125677,0.2062126199103187,-0.1594195640479847,0.1308015566001722,-0.0661547371839764,-0.1920363341031602,0.1046895657191644,-0.0053039505215206,0.0043614371561766,-0.0022029527482264
4.455,2.452281384377451,0.2063729821558712,-0.1592547768177342,0.1312544240193114,-0.0666329182449384,0.0048156830496252,-0.0143597916204798,-0.0052984119201851,0.0043765538587675,-0.0022188761775564
4.489,2.4500625081998946,0.2245084728315009,-0.1729323923832139,0.1431727698892179,-0.0076663054251969,0.5446093295984893,1.7707691537459918,-0.005758128621733,0.0047682812758701,-0.000255287970659
4.522,2.449807220229236,0.2182079638181169,-0.1680437622300383,0.1391977350721734,-0.0079716246110285,-0.1892044748763946,-0.0091687443192691,-0.0055953281079519,0.0046359233056465,-0.0002654550995472
4.555,2.4495417651296885,0.2183755990530341,-0.168135874454059,0.1393493092316587,-0.0086498859148647,0.0050340911386537,-0.0203682073224062,-0.0055983424548232,0.0046410342955032,-0.0002880412009649
4.59,2.449253723928724,0.2251191075249687,-0.1732865791152722,0.1437023801868463,-0.0433075541127091,0.2025077619199574,-1.0407708167520842,-0.0057670795241075,0.0047893413658627,-0.0014421415519532
4.622,2.4478115823767705,0.2185374049835989,-0.1680189249976055,0.1397434729052293,-0.0444531937803319,-0.1976487249660585,-0.0344035936223084,-0.0055916704451986,0.0046574932106265,-0.001480291352885
4.655,2.446331291023885,0.2184609366086329,-0.167753160914107,0.1399430520863642,-0.0460877335547039,-0.0022963475965773,-0.0490852785096682,-0.0055826887337712,0.0046642847123738,-0.0015347215273716
4.689,2.444796569496513,0.2000631619106258,-0.1534288945071352,0.1283933140159394,0.0109167389534834,-0.5524857266668807,1.7118460212668878,-0.005110038611511,0.0042744736715009,0.0003635274071509
4.722,2.445160096903664,0.2065647440100012,-0.1584631534574145,0.1325081977247038,-0.0527052642184741,0.1952427056869481,-1.9105706658245527,-0.0052730301803872,0.004417053399931,-0.0017550852984751
4.755,2.443405011605189,0.2062923881760672,-0.1580217194488023,0.1326110312222524,-0.0551960575017031,-0.0081788538718896,-0.0747985970939648,-0.0052581440997509,0.0044206831402408,-0.0018380287148067
4.79,2.4415669828903823,0.2244665243606538,-0.1716777552882594,0.144609712321602,0.0013228452940977,0.5457698553929894,1.6972643482222511,-0.0057170647656183,0.0048152712988945,4.4050748293456014e-05
4.822,2.441611033638676,0.217422754304401,-0.1662966693885461,0.1400645274135765,0.0007458290738097,-0.2115246263138966,-0.0173278144230624,-0.0055378236522817,0.0046639771212342,2.48361081578663e-05
4.855,2.4416358697468343,0.217502892769739,-0.1663614435051707,0.140112021176202,0.0025152781504738,0.0024065605206605,0.0531366089088305,-0.005540118128995,0.0046653953781938,8.37587624107794e-05
4.89,2.4417196285092446,0.2242483658739661,-0.1715329526690594,0.1444429844117685,-0.0368196343178452,0.2025667598866997,-1.181228602652225,-0.0057091865845797,0.0048133458709789,-0.0012260938227842
4.923,2.4404935346864605,0.2177923980154584,-0.1664225008220027,0.140488717886791,-0.0364334549216762,-0.1938729086638945,0.0115969788639327,-0.0055391169659602,0.0046815320517743,-0.0012132340488918
4.955,2.4392803006375683,0.2179724423554679,-0.166389369620394,0.1408068297481897,-0.0369437576664555,0.00540673693722,-0.0153244067501294,-0.0055379675914141,0.0046921715711299,-0.0012302271302929
4.99,2.4380500735072754,0.1881985013713843,-0.143511745849009,0.1217499680566873,0.0103029652350131,-0.8941123418643712,1.4188205075516125,-0.0047797118300774,0.0040533652654722,0.0003430887423259
5.023,2.438393162249602,0.2059064738884042,-0.1570607444951821,0.1331517875500559,-0.0450200877549796,0.5317709464570552,-1.6613529426424258,-0.0052268796501552,0.0044377761848742,-0.0014991689222408
5.055,2.436893993327361,0.2069620195174644,-0.1576650728837592,0.1340708854125542,-0.0376295954065148,0.031698066938745,0.2219367071611054,-0.0052475313572333,0.0044677512858391,-0.0012530655270369
5.089,2.435640927800324,0.2236933254103179,-0.1702293805754446,0.1451229196992219,-0.0592171819897648,0.502441618404006,-0.6482758733708717,-0.00566395980463,0.0048380739602397,-0.0019719321602591
5.122,2.433668995640065,0.2185029546381213,-0.1659996816097419,0.142083239303773,-0.051589717709873,-0.1558669901560527,0.2290529813781337,-0.0055238105594942,0.0047360151253291,-0.0017179375997387
5.155,2.431951058040326,0.2184122588066167,-0.1656865451876693,0.142309112641401,-0.0525241468023883,-0.0027235985436805,-0.0280609337091669,-0.005513302974111,0.0047436136973202,-0.0017490540885195
5.189,2.4302020039518064,0.2248276953857652,-0.1702967879467311,0.1467872495399397,-0.0220593187892784,0.1926557531275818,0.9148597000933888,-0.0056691780621412,0.0048899925012567,-0.0007345753156829
5.222,2.429467428636123,0.2178370187306467,-0.1648971491606443,0.1423442901143153,-0.0206470327384238,-0.2099302298834389,0.0424109925181564,-0.0054895332168556,0.0047418501942593,-0.0006875461901895
5.255,2.4287798824459337,0.2175498937368497,-0.1645820245626189,0.14226986137543,-0.0190406185124986,-0.0086223721860974,0.0482406674452004,-0.0054791671515947,0.0047392217704228,-0.0006340525964662
5.29,2.428145829849468,0.2121133958050611,-0.1603811910920586,0.1388163038833951,-0.0693760869477331,-0.1632581961498053,-1.5115756286857205,-0.0053354353009701,0.0046286487889381,-0.0023102236953595
5.322,2.4258356061541075,0.2060212733711524,-0.1554629712428653,0.1351888666045069,-0.026404254895944,-0.1829466196368993,1.2904454069606328,-0.0051750208200667,0.0045039684757797,-0.0008792616880349
5.356,2.4249563444660733,0.2060920918149298,-0.155397443256013,0.1353720242079126,-0.0255898854236443,0.0021266799933154,0.0244555397087007,-0.0051728973330693,0.0045099965730821,-0.0008521431846073
5.389,2.424104201281466,0.2243375708362126,-0.1690292587668955,0.1475006961658371,-0.0493754677008101,0.5479122829214067,-0.7142817500650392,-0.0056247251352198,0.0049162938217167,-0.0016442030744369
5.423,2.422459998207029,0.2179045958101149,-0.1639464845336715,0.1435408063381983,-0.0051054498356489,-0.1931824332161467,1.329429965920757,-0.0054591003918508,0.0047802714983478,-0.0001700114795271
5.455,2.4222899867275016,0.2180640792164,-0.164042052421164,0.1436737543253758,-0.0047593771746742,0.0047892914800315,0.0103925724016441,-0.005462310079137,0.0047846674041216,-0.0001584872599166
5.49,2.422131499467585,0.2131009553702079,-0.1602862120699596,0.1404291543802756,0.0282112930066996,-0.1490427581439053,0.9901102156568736,-0.0053398134375819,0.0046736838231426,0.000939436057123
5.522,2.4230709355247075,0.206924193176982,-0.1557683245651615,0.1362125206583721,0.0269167677299541,-0.1854883541509307,-0.038874632935302,-0.0051892015486881,0.0045334552671796,0.0008963283654074
5.555,2.423967263890116,0.2070522971161699,-0.1559868627087988,0.1361570872314367,0.0261452474426773,0.0038469651407789,-0.0231687773956977,-0.0051964198035028,0.0045316726988839,0.0008706367398411
5.59,2.4248379006299565,0.2247614710843931,-0.1694570304716008,0.1476551174452394,-0.0319140742103813,0.5318070260727684,-1.7435231727645264,-0.0056403967497164,0.0049198081798711,-0.0010627386712056
5.623,2.4237751619587518,0.2185148306645866,-0.1645947775221797,0.1437264430534519,-0.0331250288828902,-0.1875867993935875,-0.0363650051804487,-0.005478454264669,0.0047890107605002,-0.0011030634618002
5.655,2.4226720984969514,0.218300976677822,-0.1642752092577675,0.1437670756529731,-0.0334004687610672,-0.0064220416445825,-0.0082714678131218,-0.0054677899487691,0.004790383225983,-0.0011122356097435
5.69,2.4215598628872077,0.2246727459491874,-0.1689053996918922,0.1481513034950089,0.0047393174256851,0.1913444225635247,1.1453389245270995,-0.0056250307202764,0.0049328900607734,0.0001578192702753
5.722,2.4217176821574826,0.2176564655074847,-0.1636533204912068,0.1434988768925152,0.0062046668260479,-0.210699112363444,0.044004486497381,-0.0054502379485986,0.0047778483282246,0.0002066154053073
5.755,2.42192429756279,0.2173819884436695,-0.1634765526357817,0.1432841430097698,0.0089519063546972,-0.0082425544689248,0.0824996855450242,-0.0054445689104209,0.0047704493603006,0.0002980984816114
5.789,2.4222223960444014,0.224063810515013,-0.1685454638518501,0.1476381312448527,-0.0457782037787074,0.2006553174577633,-1.643546850852995,-0.0056089059048323,0.0049205216071232,-0.0015244141858309
5.823,2.42069798185857,0.2175327492627839,-0.1634139720264094,0.1435840198224617,-0.0446031238968621,-0.1961279655324071,0.0352876841394981,-0.0054382213345693,0.0047852863017738,-0.0014852840257655
5.855,2.419212697832805,0.217648001839017,-0.1632869952379258,0.1439027793014657,-0.0442591483527739,0.0034610383253207,0.0103295959185646,-0.0054340127979015,0.0047958668122959,-0.0014738296401473
5.889,2.4177388681926573,0.2244315618719279,-0.1681573733700382,0.1486358763743215,-0.0343502270433999,0.2037105114988247,0.2975652044857071,-0.0055969005013707,0.0049526722417491,-0.0011438625605452
5.923,2.4165950056321126,0.218009811170393,-0.1631805576783755,0.1445696488282544,-0.0335304378998498,-0.1928453664124591,0.0246182925991007,-0.0054313132658571,0.004817101064453,-0.001116563582065
5.955,2.4154784420500475,0.2181896603655723,-0.1631535188365669,0.1448711744333212,-0.0340107899461852,0.0054008767321094,-0.0144249863764391,-0.0054303688384094,0.0048271848034274,-0.0011325593052079
5.989,2.41434588274484,0.2128380414167001,-0.1589916388997005,0.1414980234281884,-0.0416030314282575,-0.16070927774391,-0.2279952397018703,-0.0052912436037209,0.004715451774403,-0.0013853809465609
6.023,2.4129605017982785,0.2070297236523955,-0.1544619538435027,0.1378506847659266,-0.0261945997333439,-0.1744239568860239,0.4627156665139215,-0.0051416656572962,0.0045925750285311,-0.0008722801711203
6.056,2.412088221627158,0.2071224042011585,-0.1544107444699688,0.1380471380155998,-0.0267139220066327,0.0027831996625531,-0.0155952634621249,-0.0051399178797368,0.0045991606466512,-0.0008895736028208
6.089,2.411198648024337,0.2248256673559177,-0.1674752462789612,0.1499954085491788,0.0207710674703706,0.5316295241669438,1.425975659970071,-0.0055787454168836,0.0049928143580189,0.0006916765467633
6.122,2.4118903245711003,0.2182904173528448,-0.1627077564183114,0.1455228240153366,0.0191846935239674,-0.196253753846032,-0.0476388572493465,-0.0054198058138401,0.0048440783293751,0.0006388502943481
6.155,2.4125291748654485,0.2180986711439105,-0.1626576864513271,0.1452911125741743,0.0201206253699698,-0.0057581444124416,0.0281060614415155,-0.0054182112325031,0.0048362784614632,0.0006700168248199
6.189,2.4131991916902686,0.2008444774761559,-0.1498791452636128,0.1336964694661716,-0.0265242355431973,-0.5181439539866263,-1.4007465739689835,-0.004989091462962,0.0044542033309945,-0.0008832570435884
6.222,2.41231593464668,0.2064146360614757,-0.1539144236537191,0.1375403656085548,0.0323230505005204,0.1672720295891852,1.7671857670786106,-0.0051278992584577,0.0045772396768905,0.0010763575816673
6.256,2.4133922922283477,0.2058992142344242,-0.1536776799820798,0.1370315916045595,0.034975527521317,-0.0154781329444902,0.0796539645884871,-0.0051202076159206,0.0045600757345239,0.0011646850664598
6.289,2.414556977294808,0.2243757932750313,-0.1676419123854713,0.1491331144298327,-0.0464000361127644,0.5548522234416544,-2.443710619642087,-0.0055787291572058,0.0049703399005796,-0.001545121202555
6.323,2.413011856092252,0.2175547435581785,-0.1623219615021109,0.1448504306475201,-0.040478195597282,-0.2048363278334189,0.1778330485129836,-0.0054021584852074,0.0048270605065642,-0.0013479239133894
6.355,2.411663932178863,0.2177316356958479,-0.1622583906415677,0.1451870512449297,-0.0406520335365007,0.0053120762062904,-0.0052203585350964,-0.005400020222216,0.0048382842085064,-0.0013537127167654
6.389,2.4103102194620973,0.2245226774853516,-0.167116399008562,0.1499417949992672,-0.0320494621119177,0.2039351888739827,0.2583354782157062,-0.0055624034245552,0.0049959270970555,-0.0010672470883268
6.423,2.40924297237377,0.2180991142290459,-0.1621796824953228,0.1458251494537574,-0.0313941103933335,-0.1928997974866574,0.0196802317893166,-0.0053981344259956,0.00485869926248,-0.001045423876098
6.455,2.4081975484976725,0.2182772123114888,-0.1621594549436457,0.1461138343445086,-0.0319170911122127,0.0053482907640527,-0.0157051266930715,-0.0053974136023661,0.0048683591195199,-0.0010628391340366
6.489,2.4071347093636355,0.2132651084985299,-0.1582841138026244,0.1429270646889789,0.0340283550716255,-0.1505136280167849,1.980343729244394,-0.0052736448041633,0.0047563859466974,0.0011331442238851
6.522,2.408267853587521,0.2070848557211695,-0.1538543312925837,0.1386109022103582,0.0315476566905959,-0.1855931764973075,-0.0744954468777653,-0.0051258584884221,0.004612955839941,0.0010505369677968
6.556,2.4093183905553177,0.207041051125995,-0.1539672867007494,0.1384199099745629,0.0307862064196195,-0.0013154533085452,-0.0228663745037968,-0.0051295580516734,0.004606658797859,0.0010251806737733
6.589,2.410343571229092,0.2246199087323056,-0.1671937729280555,0.1500011523055443,-0.0257066608334747,0.5278936218111295,-1.69648250009292,-0.005565506837698,0.0049973173744554,-0.0008560318057547
6.622,2.4094875394233366,0.2182189612659968,-0.1623044801719959,0.1458655914604564,-0.0275958003431169,-0.1922206446338983,-0.0567309162054725,-0.0054025969126017,0.0048597064658793,-0.0009189401514257
6.655,2.408568599271911,0.2179400326446386,-0.161963082895286,0.1458280412273334,-0.0271106689507295,-0.0083762348756199,0.0145685102819061,-0.0053912681863638,0.004858407489455,-0.0009027852760592
6.689,2.407665813995852,0.2242175907447955,-0.1664927661050552,0.1501788494898265,-0.0010752558748528,0.1885152582629682,0.7818442365128118,-0.0055442124803517,0.0050009519523644,-3.580602063260052e-05
6.722,2.407630007975219,0.2173781411001805,-0.1614089195684031,0.1456036294600198,0.0007939783683172,-0.2053888782166665,0.0561331604555583,-0.0053750711873287,0.0048484299549329,2.6439479664963628e-05
6.755,2.407656447454883,0.217408632937026,-0.1614354107175384,0.1456197852010715,0.0017290058363417,0.0009156707761404,0.0280789029436804,-0.0053760288481033,0.0048488842179478,5.75758943501814e-05
6.789,2.407714023349234,0.2241232424602557,-0.1664299445741592,0.1501076325838926,0.0192144900749777,0.2016399256225157,0.5250896167758541,-0.0055438087530235,0.0049967077978247,0.0006398425194967
6.822,2.4083538658687305,0.2176820960414117,-0.161740115367001,0.1456901850436452,0.0189326271540424,-0.1934278203857072,-0.0084643519800385,-0.0053875649017172,0.0048496849557469,0.0006304564842296
6.855,2.408984322352961,0.2178608249124463,-0.1619648073818468,0.1457077218313869,0.0185142793193939,0.0053672333644022,-0.0125629980374923,-0.005395013559488,0.0048503040156746,0.0006165255013358
6.889,2.4096008478542963,0.2246470508435812,-0.1671025069752869,0.1501434301436221,-0.0205961222206423,0.2037905685025503,-1.174486532733823,-0.0055628914097514,0.0050015807053338,-0.0006858508699473
6.922,2.4089149969843486,0.2182275288418491,-0.1622273083496353,0.1459642242813369,-0.0212997827285497,-0.1927784384904525,-0.021130946183406,-0.0054005354711625,0.0048624237701717,-0.0007092827648607
6.955,2.408205714219488,0.2183993448097132,-0.1622513816988556,0.1461942644228024,-0.0218296553001272,0.0051596386745971,-0.0159120892365592,-0.0054012915676226,0.0048701320229773,-0.0007269275214942
6.99,2.407478786697993,0.2251805506442804,-0.1671796008552613,0.150855100829693,0.0181411431261871,0.2036398148518672,1.2003242770664964,-0.0055686909982298,0.0050216895678897,0.000604100066102
7.022,2.4080828867640958,0.2185487670786928,-0.1623444190390722,0.1463142276010192,0.0176300356565424,-0.1991526596272546,-0.0153485726620008,-0.0054075895286103,0.0048705761466107,0.0005870801873628
7.055,2.408669966951459,0.2184762184661747,-0.1623763695038904,0.1461703549356564,0.016584383748363,-0.0021786370125554,-0.0314009582035858,-0.0054085672779818,0.0048658790275821,0.0005522599788204
7.09,2.4092222269302788,0.2248932696652881,-0.1672287337889729,0.1503713181962599,0.0065679213734668,0.1927042402136155,-0.300794665912799,-0.0055693573839327,0.0050066524243062,0.0002187117817364
7.122,2.409440938712016,0.2179595487653423,-0.1621047476819697,0.1456997449447203,0.0061669793817635,-0.2082198468452205,-0.0120403000511519,-0.005398676363344,0.0048511469067099,0.0002053604134127
7.156,2.409646299125429,0.2176105476059988,-0.1618750519765711,0.145433207958035,0.0065522582816223,-0.0104805152956005,0.0115699369326969,-0.0053910574815129,0.0048422375685566,0.000218190200778
7.19,2.409864489326207,0.2240118140928403,-0.1666694558279,0.149674932260539,-0.0237829155001643,0.1922302248300767,-0.9109661796332345,-0.0055482112673026,0.0049862694127804,-0.0007919710861554
7.222,2.409072518240051,0.217437800505211,-0.1616631425496697,0.1454105409848581,-0.0227259180752906,-0.1974178254543357,0.0317416644106219,-0.0053816399095514,0.0048441075794549,-0.0007567730719071
7.255,2.408315745168144,0.2175258889589568,-0.16161850189737,0.1455917999470926,-0.0222006229716634,0.0026452989112862,0.0157746277365522,-0.0053801936299805,0.0048500959169142,-0.0007392807449563
7.289,2.4075764644231867,0.1894657763536225,-0.1406764680061847,0.1269149784642686,-0.0342148323789809,-0.8426460241842142,-0.360787069288812,-0.0046821963225051,0.0042288495556636,-0.00113935391822
7.322,2.406437110504968,0.2059901376051454,-0.1527883312832107,0.1381581073056468,-0.0340383365444929,0.4962270646102998,0.0053001752098487,-0.0050853284875875,0.0046034530000229,-0.0011334766069316
7.356,2.405303633898036,0.2064953342415908,-0.1530059675833925,0.138670461697566,-0.0286163178502454,0.0151710701635233,0.1628233842116371,-0.0050929836064324,0.0046200586845322,-0.0009529233844131
7.389,2.404350710513622,0.2241734492750853,-0.1659613146661437,0.1507002899604857,-0.0470855068332858,0.5308743253301662,-0.5546302997910016,-0.0055226685877528,0.0050225476460095,-0.0015679473775484
7.422,2.4027827631360736,0.218319582835171,-0.1613972297935038,0.147018279354324,-0.0400214229928911,-0.1757917849824109,0.2121346498617011,-0.0053713548853272,0.0048991888237813,-0.0013327133856632
7.455,2.4014500497504105,0.2184964162486406,-0.1613317222029185,0.1473525002317217,-0.0404265465825493,0.0053103127168041,-0.0121658735633075,-0.0053691331438723,0.0049103531719444,-0.0013462040011988
7.489,2.400103845749212,0.2122693088888891,-0.1565409429471075,0.1433638471770238,-0.0463792143316883,-0.187000221013559,-0.1787587912654361,-0.0052092135264343,0.0047779428499265,-0.0015444278372452
7.523,2.398559417911967,0.2070602947162707,-0.1524833195765331,0.1400814152516662,-0.0397588076722062,-0.1564268520305826,0.1988110107952577,-0.0050746918108219,0.0046679768473973,-0.0013239682954844
7.555,2.397235449616482,0.2069331112790972,-0.1522041762217905,0.140197008827911,-0.0400328418070576,-0.0038193224376424,-0.0082292532988408,-0.0050653725419298,0.0046718432385768,-0.001333093632175
7.59,2.3959023559843065,0.2232860599628331,-0.1640303439578601,0.1514949201616742,-0.0413954646258849,0.4910795400521309,-0.0409196041689877,-0.0054588254721753,0.0050484425805525,-0.0013784689720419
7.622,2.394523887012265,0.217962479142753,-0.1599155323147575,0.148103561194668,-0.0362984810368506,-0.1598672918943,0.1530625702412692,-0.005322296946403,0.004934966898148,-0.0012087394185271
7.655,2.393315147593737,0.2178341575412648,-0.1596423549106791,0.1482094420416099,-0.0345924022619354,-0.0038535015461915,0.0512335968443013,-0.0053133383868219,0.0049383364984622,-0.0011519269953224
7.689,2.392163220598416,0.2240011656656967,-0.1639862515143321,0.1525943365065334,-0.0549507450538385,0.1851954391721311,-0.6113616454024944,-0.0054561844998993,0.0050862834075293,-0.0018298598102928
7.722,2.390333360788123,0.2174836787590937,-0.1589435765375596,0.1484455792674122,-0.0525791448155389,-0.1957203275256182,0.0712192263753609,-0.0052885827882188,0.0049477705808249,-0.0017508855223574
7.755,2.388582475265766,0.2175708910585443,-0.1587470548590746,0.1487832826952643,-0.0520376415674515,0.0026189879714921,0.0162613588014231,-0.0052820737078523,0.0049589628817822,-0.0017328534641961
7.789,2.386849621801569,0.2243332766560599,-0.1634150406906324,0.1536910650991895,-0.075929541119165,0.2030746425680361,-0.7174744610124172,-0.005435340058778,0.005124685610513,-0.0025284537192681
7.823,2.384321168082301,0.2179277178305928,-0.1583709148547076,0.149703518752678,-0.0747039034003138,-0.192359123887903,0.0368059375030416,-0.0052676381560483,0.0049915837722067,-0.0024876399832304
7.855,2.3818335280990706,0.2181093167413508,-0.1581296763140313,0.1502221006316932,-0.0752080650478987,0.0054534207434843,-0.0151399894169662,-0.0052595416980675,0.0050088868215023,-0.002504428566095
7.89,2.379329099532976,0.2249163111180174,-0.1626762873967367,0.1553182942404118,-0.0029515459428202,0.2044142455455442,2.169865438590946,-0.0054169622726944,0.0051722647760236,-9.828647989591488e-05
7.922,2.37923081305308,0.218462510118345,-0.1579935877150339,0.1508770843042105,-0.0023918349347084,-0.1938078378280019,0.0168081383817364,-0.0052610797175025,0.005024318690857,-7.96481033257912e-05
7.956,2.3791511649497536,0.2185956406008431,-0.1580778436961073,0.150981619484234,-0.002783517495436,0.0039979123873305,-0.0117622390608902,-0.0052638525782364,0.0050278340998835,-9.269113259802177e-05
7.989,2.379058473817156,0.2113210928366092,-0.1528037113710483,0.1459713330380049,-0.0522364029613777,-0.2184548878148315,-1.4850716356138645,-0.0050842237509523,0.0048651740237695,-0.0017394722186138
8.023,2.3773190015985417,0.2069075412270902,-0.1493634897045933,0.1431826754880138,-0.0134133052029036,-0.1325390873729423,1.1658587915457697,-0.0049728277942548,0.0047690013643273,-0.0004466630632566
8.055,2.3768723385352857,0.2067567078884831,-0.1491906826743186,0.1431449491251938,-0.0120794358797728,-0.004529529687901,0.0400561358297524,-0.004967179470584,0.0047676335911764,-0.0004022452147964
8.09,2.3764700933204885,0.2245464189135781,-0.1619647648698939,0.1555265546058039,-0.0608703797878514,0.5342255563091607,-1.4651935107531109,-0.0053882703799805,0.0051843968181689,-0.0020269836469354
8.122,2.374443109673553,0.2180039094514457,-0.1569392820032841,0.1513134703204173,-0.0585580119816962,-0.1964717556195921,0.0694404746593157,-0.0052212557531613,0.0050437337522787,-0.0019499817989904
8.155,2.372493127874563,0.2177074480061162,-0.15643090671623,0.1514130256658057,-0.0613959397610183,-0.0089027461059916,-0.0852230564360996,-0.0052040851283126,0.0050472785792741,-0.0020444847940419
8.19,2.370448643080521,0.1999721700294341,-0.1434028055375534,0.1393718197852046,-0.0523999876630822,-0.5325909302306934,0.2701487116497345,-0.0047713481378226,0.0046451568762492,-0.0017449195891806
8.223,2.36870372349134,0.2064383617658453,-0.1477885193480279,0.1441365698130895,-0.0569434457846049,0.1941799320243601,-0.1364401838295103,-0.0049168933148782,0.004804319538363,-0.0018962167446273
8.255,2.3668075067467127,0.2061991874553454,-0.1473440325268591,0.1442492321850226,-0.0564849414349103,-0.007182411726724,0.0137688993902285,-0.0049021251418778,0.0048080200231829,-0.0018809485497825
8.289,2.364926558196931,0.2244343717181037,-0.1600787693157298,0.157307262460642,-0.1175275320271652,0.5476031310137628,-1.8331108285962432,-0.0053204563843692,0.0052486507595362,-0.0039136668165046
8.322,2.361012891380426,0.2180260898009738,-0.1549087760044993,0.1534230978395696,-0.1138344172986514,-0.1924408984123097,0.1109043462016148,-0.0051488617005005,0.0051186583182172,-0.003790686096045
8.355,2.3572222052843808,0.2182051271263811,-0.1544528141766285,0.1541356730194539,-0.1143746069369333,0.0053764962584784,-0.0162219110595155,-0.0051335873935606,0.005142404663021,-0.0038086744109998
8.389,2.353413530873381,0.2250059124102539,-0.1586601322673504,0.1595450502161621,-0.0441210668829742,0.2042277863024853,2.1097159175363087,-0.0052795763675636,0.0053166314396012,-0.001469231527203
8.422,2.3519442993461777,0.2185407462976974,-0.1538734609355255,0.1551870349355185,-0.0422777936643654,-0.1941491325092029,0.0553535501083714,-0.0051204429283152,0.0051712383387048,-0.0014078505290233
8.455,2.350536448817154,0.2186307723417696,-0.1537181251960443,0.1554675290887841,-0.0421875412952717,0.0027034848069716,0.0027102813541659,-0.0051152716350231,0.0051805675610584,-0.0014048451251325
8.489,2.3491316036920225,0.213248701719569,-0.1497208410615735,0.1518508430562595,-0.0010630293345721,-0.1616237424084251,1.2349703291501366,-0.004985708443365,0.0050566286994692,-3.539887684125276e-05
8.522,2.349096204815181,0.2068586792747208,-0.1452292240707977,0.1473057557160473,-0.0017922886450607,-0.1918925659113592,-0.0218996789936519,-0.0048360779032799,0.0049053361426407,-5.96832118805235e-05
8.555,2.3490365216033,0.2065922826179634,-0.1450334144160941,0.1471247088021247,-0.0015507461599564,-0.0079998996023235,0.0072535280812104,-0.0048295772132544,0.0048992877841324,-5.163984712655001e-05
8.59,2.3489848817561736,0.2245288146910685,-0.1576170915790672,0.1599063509330762,-0.0778500087078691,0.5386345967899449,-2.291269145582965,-0.0052418401933854,0.0053315814553482,-0.002592405289972
8.622,2.3463924764662014,0.2179155106044173,-0.1525717693589836,0.1555924964664204,-0.0762297337002124,-0.1985977203198558,0.0486569071368394,-0.0050741546889036,0.0051875787795727,-0.002538450132217
8.655,2.343854026333984,0.2174698051782199,-0.1518650662308152,0.1556602641105399,-0.0752790842104495,-0.0133845473332561,0.0285480327256107,-0.0050507008560264,0.0051897260990999,-0.0025067935042079
8.689,2.3413472328297766,0.2241219354283513,-0.1561077938422364,0.1608135524197506,-0.0117034770689349,0.1997636711751161,1.909177391637076,-0.0051974453929171,0.0053560075824891,-0.0003897257863955
8.722,2.340957507043381,0.2176141742263815,-0.1515140739292178,0.156203118488721,-0.010869924796168,-0.1954282643234183,0.025031599782791,-0.0050445737948195,0.0052023831624689,-0.0003619684957123
8.755,2.340595538547669,0.2177932948028584,-0.1515821897197086,0.1563865691831081,-0.0113098289675001,0.0053789962905992,-0.0132103354754392,-0.0050468029069527,0.0052085294014808,-0.0003766173046177
8.789,2.340218921243051,0.2245810892576903,-0.1562456894931069,0.1613194041862116,-0.0199035088215442,0.2038376713162743,-0.2580684640854088,-0.0052013006792096,0.0053735633775077,-0.0006627868437574
8.822,2.339556134399293,0.2181628833979251,-0.1516765134033002,0.1568096903074397,-0.0199460810866808,-0.1927389147076657,-0.0012784464004979,-0.0050491903995643,0.0052233458978723,-0.0006642045001864
8.855,2.3388919298991078,0.2183393610590627,-0.1516949370697822,0.157037328858697,-0.0203508882306385,0.0052996294635915,-0.0121563706894194,-0.0050497662704108,0.005230960485267,-0.0006776845780802
8.89,2.3382142453210264,0.2250954914173746,-0.1562791213584702,0.1620025199922949,-0.063503480532973,0.202886797546904,-1.2958736427127493,-0.0051984872046412,0.005400085783788,-0.002114665901748
8.923,2.3360995794192787,0.2186148304584826,-0.1514466759842224,0.1576589624148308,-0.0622039484113368,-0.1946144432099697,0.0390249886377233,-0.0050378308830099,0.0052551693007012,-0.0020713914820975
8.955,2.3340281879371805,0.2185921611313421,-0.151104107474322,0.1579559483288273,-0.0614870147398401,-0.0006807605747901,0.0215295396845852,-0.0050264761694632,0.0052649873431159,-0.0020475175908366
8.99,2.3319806703463444,0.2006389716022037,-0.1383966327790918,0.145266544534518,-0.0695161454667059,-0.5391348206948462,-0.2411150368428155,-0.00460309472809,0.0048426203052593,-0.0023148876440413
9.023,2.3296657827023037,0.2064028688828346,-0.1420261331667016,0.1497688945701976,-0.06705270744325,0.173090008427355,0.0739771178214993,-0.0047239910880358,0.0049924923982864,-0.0022328551578602
9.055,2.327432927544443,0.2063136783379829,-0.1416301396571269,0.1500207899261012,-0.0681296674246884,-0.0026783947402932,-0.0323411405837367,-0.0047107056010655,0.0050009504665797,-0.0022687179252421
9.09,2.325164209619201,0.2243096861948501,-0.1536135938898454,0.1634554957567281,0.0504527769087701,0.540420656362379,3.561034364368126,-0.0051200036907285,0.0054386732593497,0.001680077471062
9.122,2.326844287090262,0.2177307602462628,-0.1493745128951517,0.1584106652178185,0.0487293829018119,-0.1975653438014188,-0.0517535737825287,-0.0049785469152038,0.0052709445881812,0.0016226884506303
9.155,2.328466975540893,0.2175324383270958,-0.1494950742724256,0.1580239997367922,0.0469782370833662,-0.005955613188198,-0.0525869615148857,-0.0049823976504901,0.0052582106142488,0.001564375294876
9.19,2.3300313508357693,0.224214019476775,-0.1543414784628963,0.1626365105252168,-0.0368669761277369,0.200648082572949,-2.5178742706037003,-0.0051363462019555,0.0054188538734553,-0.0012276703050536
9.222,2.328803680530715,0.2177332419807691,-0.1496863209062111,0.1581194801313833,-0.0368149545289005,-0.1946179428230023,0.0015622101752692,-0.0049814235936619,0.0052683402086526,-0.0012259379858123
9.255,2.327577742544904,0.217913715100217,-0.1496162739191996,0.1584340803214812,-0.037007823063593,0.0054196131966347,-0.0057918478886658,-0.0049790678476342,0.0052788309916592,-0.0012323605080176
9.29,2.3263453820368856,0.2008669886978362,-0.1377321694464667,0.1462101113059779,-0.078213962359618,-0.5119137057772005,-1.237421600481231,-0.0045802261659773,0.0048746789160058,-0.0026045249465752
9.323,2.32374085709031,0.20662665096656,-0.1412892959251202,0.1507710441253241,-0.0453759537851571,0.1729628308926063,0.9861263836174462,-0.0047012319288116,0.0050241411480288,-0.0015110192610457
9.355,2.3222298378292647,0.2069435756547701,-0.1412776771124403,0.1512159431227231,-0.04622218575442,0.009517257904207,-0.0254123714493366,-0.0047007630897381,0.0050390222091741,-0.0015391987856221
9.39,2.320690639043642,0.2248309743674547,-0.1532361194236212,0.1645225174224148,-0.0862272367624262,0.5371591205010391,-1.2013528831233105,-0.0050949921447207,0.0054858236016693,-0.0028713669841887
9.422,2.317819272059454,0.2186215904369312,-0.1485440715884993,0.1604059182233751,-0.0845525137579916,-0.1864679859016058,0.050291982115155,-0.0049390906253409,0.005348381967586,-0.0028155987081411
9.455,2.3150036733513124,0.2185040836091388,-0.1480122468667336,0.1607370813823948,-0.0832008516970832,-0.0035287335673403,0.0405904522795309,-0.0049214862292826,0.0053592743823137,-0.0027705883615128
9.489,2.312233084989799,0.1884981395105897,-0.1273018822489408,0.1390171909327423,-0.0720070477251322,-0.9010794023588324,0.3361502694279581,-0.0042336845947182,0.0046342717658951,-0.0023978346892469
9.522,2.3098352503005533,0.2064889394059256,-0.1390863811305923,0.1526193325924984,-0.0766883725866931,0.5402642611211995,-0.1405803261730014,-0.0046251766858384,0.0050880462095319,-0.0025537228071368
9.556,2.307281527493416,0.2063146459382339,-0.1385791096954251,0.152844900093664,-0.0753787308806721,-0.0052340380688218,0.0393285797603914,-0.0046083862657404,0.0050954359039994,-0.0025101117383263
9.589,2.3047714157550896,0.2244043688936271,-0.1503119914378727,0.1666242059501799,-0.0468289725818466,0.5432349235853817,0.8573500990638281,-0.0050011641876052,0.0055523936181498,-0.0015594047869754
9.623,2.303212010968114,0.2176416927665324,-0.1455299904747193,0.1618299363613228,-0.0438716843672631,-0.203083367180019,0.0888074538913949,-0.0048423107115553,0.0053923849447208,-0.0014609270894298
9.655,2.301751083878684,0.2174914460493044,-0.1451931116956211,0.1619305079988338,-0.0481669821469885,-0.0045119134302716,-0.1289879213130723,-0.0048307042827661,0.0053960713844236,-0.0016039605054947
9.69,2.30014712337319,0.2242381241757705,-0.1494290848920387,0.1671935552651363,-0.0389319364921714,0.2026029467407251,0.2773286983428558,-0.0049724816433384,0.0055706769777448,-0.0012964334851893
9.722,2.298850689888,0.2178085434060141,-0.1449338418378064,0.162587647349924,-0.0379354062956632,-0.1930805035962904,0.0299258317269719,-0.0048229765618206,0.0054171260295041,-0.0012632490296455
9.755,2.2975874408583543,0.2179913459075268,-0.1448498052590874,0.1629072153312415,-0.0382070734164744,0.0054895646099927,-0.0081581717961314,-0.0048201470648068,0.0054277877226464,-0.0012722955447685
9.789,2.296315145313586,0.2247758526102425,-0.1491441028677423,0.1681672396646794,-0.0652100568674834,0.2037389400214904,-0.8109004039342044,-0.0049605187010743,0.0056052648915422,-0.0021714948936871
9.822,2.2941436504198984,0.2183512605669466,-0.1445261557382466,0.163674870700113,-0.0641397696879516,-0.1929306919908653,0.0321407561420967,-0.0048069980723454,0.0054554193863754,-0.0021358543306087
9.856,2.2920077960892904,0.2185044164788206,-0.1442773687471076,0.164098205012002,-0.0641907834465783,0.0045992766328522,-0.0015319447035071,-0.0047986940318166,0.0054695117893255,-0.002137553088771
9.889,2.289870243000519,0.2251009172944964,-0.1482713077246582,0.1693695435207978,0.0415679884574701,0.1980931175878604,3.175939096217673,-0.0049414411660533,0.0056364949706853,0.0013842140156337
9.922,2.2912544570161524,0.2184421492159601,-0.1441126267082226,0.1641600541463856,0.0419118739757977,-0.1999630053614503,0.0103268924422698,-0.0048028651213689,0.0054630899436531,0.001395665403394
9.955,2.2926501224195466,0.2183001099587442,-0.1442477424775998,0.1638521492020042,0.0431695295405971,-0.0042654431596374,0.03776743437836,-0.0048074712867778,0.005452732795044,0.0014375453337018
9.989,2.2940876677532485,0.2007310596698492,-0.1328549648889308,0.1504743055160632,-0.0909774237825091,-0.5275991077746219,-4.028437036729919,-0.0044165665554519,0.0050174061261573,-0.0030295482119575
10.022,2.291058119541291,0.2065217220910506,-0.1362179003540058,0.1552285583215901,0.033422403513268,0.1738937664024447,3.735730549422738,-0.0045390276451245,0.0051665013675222,0.0011129660369918
10.055,2.292171085578283,0.2060038755900178,-0.136048585122207,0.1546880061425355,0.0347620020256539,-0.0155509459769639,0.0402281835551319,-0.0045334939114312,0.0051484030892401,0.0011575746674542
10.089,2.293328660245737,0.2244144023165271,-0.148402187393838,0.1683407697018411,-0.0424937140269559,0.5528686704657466,-2.319991473051348,-0.0049379292118847,0.0056091504489338,-0.0014150406770976
10.123,2.291913619568639,0.2174469398458218,-0.1435637421952266,0.1633175544000551,-0.0396352611514086,-0.2092331072283878,0.0858394256921127,-0.0047771833178444,0.0054415391338645,-0.0013198541963419
10.156,2.2905937653722974,0.2175785792498984,-0.14343484280976,0.1636058801404881,-0.0405469521209218,0.0039531352575562,-0.0273781071925879,-0.0047728020486849,0.0054512100571544,-0.0013502135056266
10.19,2.2892435518666705,0.2243418508983328,-0.1476655062033664,0.1688909836024213,-0.0670284161115491,0.2031012507037342,-0.7952391588776972,-0.004911085262239,0.005629461628151,-0.0022320462565145
10.222,2.287011505610156,0.2179381202441805,-0.1430838960520112,0.1643898504961426,-0.0660784684639942,-0.1923042238484169,0.0285269563830289,-0.0047587689543708,0.0054793313473949,-0.002200412999851
10.256,2.2848110926103047,0.2181170543281924,-0.1428390035150544,0.164839523366315,-0.0665062298195764,0.0053733959162741,-0.0128456863538206,-0.0047505586986788,0.0054943304418868,-0.0022146574529918
10.289,2.2825964351573127,0.1887125251739916,-0.1232666152854988,0.1428907229794896,-0.0985921034170106,-0.8830188935195444,-0.963539747670695,-0.0040970484752277,0.0047649146458065,-0.0032831170437864
10.322,2.2793133181135268,0.2065662486620746,-0.1344143926226689,0.1568514779726383,-0.0744194540053965,0.536147852494986,0.7259053877361581,-0.0044696199012932,0.0052286119760292,-0.0024781678183797
10.355,2.276835150295147,0.207078441822723,-0.134357599548312,0.1575738446295651,-0.0761760165772624,0.0153811759954484,-0.0527496267827594,-0.0044675456547907,0.005252795052713,-0.0025366613520228
10.389,2.274298488943124,0.2247295848395968,-0.145375845299287,0.171374589439903,-0.0541241867658342,0.5300643548610722,0.6622171114543002,-0.0048359763621069,0.0057110434687341,-0.0018023354193022
10.423,2.272496153523821,0.2184846420070101,-0.1410355189960969,0.1668667767245263,-0.0521261561266253,-0.1875358207983993,0.0600009200963643,-0.0046917610938229,0.0055606497965472,-0.0017358009990166
10.455,2.270760352524805,0.2182590568783068,-0.1406003394305903,0.1669387925600601,-0.0505865448135712,-0.0067743281892857,0.0462345739655881,-0.0046774102229858,0.0055629157540197,-0.0016845319422919
10.489,2.269075820582513,0.2246084248353747,-0.1444009402056353,0.1720386961551286,-0.1133848567237946,0.1906717104224575,-1.8858351924992016,-0.0047978311609102,0.0057378636935889,-0.0037757157289023
10.523,2.265300104853611,0.2176561962670838,-0.1393008875165701,0.1672407920052736,-0.1102782749091782,-0.2087756326814089,0.0932907451836773,-0.0046285871096241,0.005577537171291,-0.0036722665544756
10.555,2.261627838299136,0.217508783143517,-0.1385918684191292,0.1676375994598715,-0.1118124591906353,-0.0044268205275292,-0.0460716000437588,-0.0046048099253661,0.0055908254570557,-0.0037233548910481
10.589,2.257904483408087,0.2240112581773236,-0.1420912821423777,0.1731794194739166,-0.1243809753161241,0.1952695205347328,-0.3774329166813449,-0.0047197906243232,0.0057765694456589,-0.0041418864780269
10.622,2.253762596930061,0.2175286844851963,-0.1372816447385504,0.1687378990972049,-0.1221284973815134,-0.1946718826464676,0.0676419800183392,-0.0045601448981693,0.0056281676516675,-0.0040668789628043
10.655,2.2496957179672563,0.2176939450924276,-0.1366980479579992,0.169423426403722,-0.1227069759481315,0.0049627809979375,-0.0173717287272704,-0.0045406107248126,0.0056510001895133,-0.0040861422990727
10.689,2.2456095756681838,0.2130261412408532,-0.1330884029684843,0.166335846549282,0.0978790596406826,-0.140174289837068,6.624205272937364,-0.0044409655312,0.0055316688761325,0.0032593726860347
10.722,2.248868948354218,0.2179315846651132,-0.1367069967967104,0.1697214559844205,0.0466756081156469,0.1473106133411393,-1.53764118693801,-0.0045568383149618,0.0056480997108551,0.001554297750251
10.755,2.250423246104469,0.2182240086814009,-0.1371544185737815,0.1697362172038369,0.0455611334123009,0.0087815019906234,-0.033467708809188,-0.0045716330509236,0.0056486642626678,0.0015171857426296
10.789,2.251940431847099,0.2249643256175908,-0.1416560398367058,0.1747641673180147,-0.0128329971705614,0.2024119200057026,-1.7535774949808551,-0.0047160106306117,0.0058205668971752,-0.0004273388057796
10.822,2.2515130930413187,0.2185128805364409,-0.1375211251396986,0.1698111277291457,-0.0128895091356669,-0.1937370895240224,-0.0016970560091734,-0.0045783448309072,0.0056556081279316,-0.0004292206542177
10.855,2.2510838723871007,0.2185322899445219,-0.1374604348704156,0.1698852277086881,-0.0112834529730185,0.000582865107537,0.0482299147942476,-0.0045764746695099,0.0056579528944242,-0.0003757389840015
10.89,2.2507081334031,0.2250522093619014,-0.1414958253815622,0.1750069379717945,0.0132328180098527,0.1957933758972832,0.7362243538399768,-0.0047132030760409,0.0058266051544259,0.000440652839728
10.922,2.251148786242828,0.2182614574854094,-0.1373010907104493,0.1696657723684307,0.0149595764758206,-0.2039264827775375,0.0518546085876246,-0.0045736383182602,0.0056486462125622,0.0004981538966448
10.956,2.251646940139473,0.217918541428134,-0.1371697433804584,0.1693308955834833,0.0165397529051017,-0.0102977794977607,0.0474527456240576,-0.0045694097777413,0.0056373757549239,0.0005507737717398
10.989,2.2521977139112126,0.1897706006668795,-0.1195331019258747,0.1473930745369221,0.0816970484364522,-0.8452835063439785,1.9566755414819967,-0.0039872148502018,0.0049026948288105,0.0027205117129338
11.023,2.254918225624147,0.1947664447628438,-0.1230909809198314,0.1509389890709209,0.0037396027431767,0.1500253482271567,-2.3410644352334966,-0.0040993359778448,0.0050259369542345,0.0001245287713477
11.056,2.255042754395494,0.1947778188554817,-0.1231169656539263,0.1509324732662549,0.0036565790366044,0.0003415643434806,-0.0024932044015709,-0.0041001943047899,0.0050257255760339,0.0001217640819189
11.09,2.2551645184774127,0.2134270858860503,-0.134925103680344,0.1653672802783546,0.0085044351530855,0.5600380489660232,0.1455812647591899,-0.0044938879237446,0.005506010674309,0.0002831976905977
11.122,2.2554477161680104,0.2177453593768278,-0.1377028190216485,0.1686741686318181,-0.0709806139272311,0.1296778826059313,-2.3869384108203198,-0.0045789659033595,0.0056221787947732,-0.0023636544437767
11.155,2.253084061724234,0.2177657575748074,-0.1373166097784276,0.169015010727121,-0.0719124857264643,0.0006125584978878,-0.0279841381151117,-0.0045660045079626,0.0056335846765557,-0.0023946857746912
11.189,2.250689375949543,0.2245911220031746,-0.1412026525041612,0.174651032085224,-0.0028781351758934,0.204965898749765,2.0731036201372643,-0.0047018776622751,0.0058160173415567,-9.584190135725204e-05
11.222,2.250593534048185,0.2181273388694521,-0.1371225505577924,0.169637678865264,-0.0025830444750017,-0.1941076016132901,0.0088615826093618,-0.0045660429220261,0.0056490462588452,-8.60153810175568e-05
11.255,2.250507518667168,0.2183009290520743,-0.1372170719092571,0.1697844833948278,-0.0028157384358463,0.0052129183970654,-0.0069878066319716,-0.0045691684579585,0.0056539526288853,-9.37640899136838e-05
11.289,2.250413754577254,0.2016921602427914,-0.1267626151565231,0.1568788287248571,0.0092785517972774,-0.4987618261045919,0.3631918988926081,-0.0042220991056344,0.0052233343579159,0.0003089757748493
11.322,2.250722730352104,0.2059910099017172,-0.1295139215236792,0.1601825218052445,0.0042837045810559,0.1290945843521243,-0.1499954118985438,-0.0043132931015878,0.0053336902262203,0.0001426473625491
11.355,2.250865377714653,0.2070166615787682,-0.1301817475076405,0.1609615195848845,-9.95192617683696e-05,0.0308003506621918,-0.1316283436283589,-0.0043351428814988,0.0053599452533732,-3.313991416886708e-06
11.389,2.250862063723236,0.2247615428899955,-0.1413399786721618,0.1747591530971815,-0.0432304095922197,0.5328793186554764,-1.2952219318453853,-0.0047025390520467,0.0058227781922413,-0.0014395726394209
11.422,2.2494224910838145,0.2181769261161593,-0.1369549306854183,0.1698367394012506,-0.0407077461664156,-0.1977362394545406,0.0757556584325547,-0.0045568696640458,0.0056585681396837,-0.0013555679473416
11.456,2.2480669231364736,0.2180877531092742,-0.1366686977806858,0.1699527437353787,-0.0419906464079904,-0.0026778680746293,-0.0385255327800248,-0.0045472145902805,0.005662521902958,-0.001398288525386
11.489,2.246668634611087,0.2001648412366992,-0.1252187402005924,0.1561609130669053,-0.0029614205902343,-0.538225581759008,1.1720488233560395,-0.0041696242394762,0.0052002865417803,-9.861530565480336e-05
11.522,2.246570019305432,0.2064365632655724,-0.1291263091194856,0.1610666040682541,-0.0498432270594281,0.1883400008670627,-1.407862056131947,-0.0042955526942411,0.005367004103432,-0.0016597794610789
11.555,2.244910239844353,0.206011285021908,-0.1285933354055105,0.1609484502741908,-0.0505038913788121,-0.012771118428361,-0.0198397693508697,-0.004277748862276,0.0053631022240319,-0.0016817795829144
11.589,2.243228460261439,0.2123517419145801,-0.1322718842711081,0.1661246848771339,0.0043939749527045,0.1904041108910564,1.6485845745200216,-0.0044051612053393,0.0055315479109633,0.000146319365925
11.622,2.2433747796273646,0.2061847216251892,-0.1284541058374195,0.161281375630188,0.0041962090413496,-0.1851958044862139,-0.005938916256905,-0.0042779967057378,0.0053702914635478,0.0001397337610769
11.655,2.2435145133884404,0.206345480498499,-0.1285768121834904,0.1613891591492063,0.0037564434179454,0.0048275937930869,-0.0132061748770042,-0.0042820437969827,0.0053739116478715,0.0001250895658175
11.689,2.243639602954259,0.2245429433400742,-0.1399378782257591,0.1756044522257235,-0.0225213728285083,0.5464703556028587,-0.789123611004618,-0.004657846821136,0.0058492885692599,-0.0007499617151893
11.722,2.242889641239069,0.2181808973971287,-0.1358449708016649,0.170730922497687,-0.0233827747202106,-0.1910524307190835,-0.0258679246757432,-0.0045215292831375,0.0056870163072661,-0.000778646398183
11.755,2.2421109948408864,0.2183478611518257,-0.1358158447292168,0.1709673793156643,-0.0235678921632587,0.005013926567478,-0.0055590823738189,-0.0045205389110979,0.0056949038899503,-0.0007848108090365
11.789,2.24132618403185,0.2249833236511823,-0.1398049103180834,0.1762727516438241,-0.1344592889606319,0.199263138118814,-3.3300719758970896,-0.0046424560327506,0.0058801992536806,-0.004477494322389
11.823,2.2368486897094613,0.2185068136189772,-0.1350125005212558,0.1718046923134416,-0.1304251316391691,-0.1944897907569096,0.1211458655093928,-0.0044835848028513,0.0057307581979016,-0.0043431568835843
11.855,2.2325055328258765,0.2184278276031443,-0.1342165205276581,0.1723271350915974,-0.1278808907257245,-0.0023719524274133,0.0764036310343715,-0.0044572849249327,0.0057479097826832,-0.0042584336611666
11.89,2.22824709916471,0.2001137900845157,-0.1222897356220743,0.1584005983052867,0.1571759148473624,-0.5499710966555124,8.560264431624232,-0.0040861312439251,0.0052639829708582,0.0052339579644171
11.922,2.2334810571291275,0.2175675808741996,-0.1338553115714527,0.1715179518638229,0.0238896126869698,0.5241378615520673,-4.002591656468243,-0.0044597593103312,0.005709691370501,0.000795524102476
11.956,2.2342765812316028,0.217711456910592,-0.1340803237225497,0.1715247657354145,0.0311419798153682,0.0043206016934664,0.2177888026546061,-0.0044679416767988,0.0057093755766408,0.0010370279278517
11.989,2.235313609159455,0.2125435988093081,-0.1310712169550725,0.1673174153539565,0.0348917629954909,-0.155190933972491,0.112606101505186,-0.0043680108475388,0.0055690518888874,0.0011618957077498
12.023,2.2364755048672045,0.2062329488305866,-0.1273681177517705,0.1622017008657137,0.0415993325140296,-0.189509008370014,0.2014285140702292,-0.0042451983555743,0.0053982983634674,0.0013852577727171
12.055,2.2378607626399223,0.2059846355123904,-0.1274390595722744,0.1618300224386891,0.037628791246437,-0.0074568564022888,-0.1192354735012793,-0.0042471959068166,0.005386200665943,0.0012530387485063
12.09,2.239113801388428,0.2242423815658175,-0.1389554488658872,0.1760000821613146,-0.1317080341897998,0.5482806622650801,-5.085189953040143,-0.0046144583135641,0.0058708454117626,-0.0043858775385203
12.123,2.234727923849908,0.2177528797957327,-0.1341832520289781,0.1714968557561992,-0.1269492793302339,-0.1948799330355798,0.1429055513383143,-0.0044563242199298,0.0057201901649577,-0.0042274110016967
12.155,2.230500512848211,0.2179242884128145,-0.1335621209511615,0.1721980119724349,-0.1273846784214693,0.0051474059183702,-0.0130750477848463,-0.0044355500381148,0.0057435273892691,-0.0042419097914349
12.189,2.226258603056776,0.1890922455917229,-0.1152565995186121,0.1499059492159224,0.0938413510661385,-0.865827111744492,6.643424308937171,-0.0038459307183651,0.0049857917597244,0.0031249169905024
12.222,2.2293835200472785,0.1952356439356836,-0.1194842402681695,0.1544036042018429,-0.0710649239848851,0.1844864367555778,-4.952140391922632,-0.0039728333439885,0.0051462692865379,-0.0023664619686966
12.255,2.227017058078582,0.1954400173302564,-0.1192432094909647,0.1548478523078212,-0.0718428887712984,0.0061373391763603,-0.0233623058982965,-0.003964722924754,0.0051611047165222,-0.0023923681960842
12.289,2.224624689882498,0.2131017860624694,-0.1296148271399504,0.1691519074929256,0.1411425206578506,0.5303834454118019,6.395958241115587,-0.0043294993890983,0.0056225142653533,0.0047000459379064
12.323,2.229324735820404,0.2070589029678269,-0.1267104500030128,0.1637615680136031,0.1393522686628497,-0.1814679608000763,-0.0537613211711992,-0.0042321966776143,0.0054433719906587,0.0046404305464728
12.355,2.233965166366877,0.2069832092238288,-0.1274224088296018,0.1631121657898548,0.1419780327305035,-0.0022730854053492,0.0788517738034183,-0.004256091125367,0.0054215052748437,0.0047278684899257
12.39,2.2386930348568037,0.224935943905038,-0.1393109297543789,0.1766030682389774,-0.0121444182813987,0.5391211615978746,-4.6283018321892575,-0.0046379739574923,0.005881733892442,-0.0004044091287705
12.423,2.238288625728032,0.2182034011287438,-0.1350719303036542,0.1713718118833907,-0.0135059836015407,-0.2021784617505766,-0.0408878474517139,-0.0044967178692901,0.0057076090724019,-0.0004497492539313
12.456,2.2378388764741004,0.2180584786355071,-0.1349051838032991,0.1713186840009869,-0.0154139673211632,-0.0043520268239247,-0.057296808397071,-0.0044909842995698,0.0057059814260689,-0.0005132851117947
12.49,2.237325591362306,0.2124197488099304,-0.1313310193717082,0.1669560212608755,-0.055799210941557,-0.1693312259932942,-1.2127700786905034,-0.0043682585671462,0.0055636142262187,-0.0018581137243538
12.522,2.235467477637952,0.2061955526046688,-0.1271814833335822,0.1623005736620006,-0.0561999804058426,-0.1869127989568048,-0.0120351190476151,-0.0042301841441306,0.0054084903141638,-0.0018714593475145
12.555,2.233596018290438,0.2060688173608512,-0.1267995383540433,0.16243840236133,-0.0589450445936295,-0.0038058631777063,-0.082434359993601,-0.0042172137020582,0.0054132610178971,-0.0019628699849678
12.589,2.2316331483054697,0.2242024282986695,-0.1376104551957344,0.1770030832382386,-0.191503543703859,0.5445528810155668,-3.9807357090159,-0.0045637130622551,0.005908689122519,-0.0063770680053385
12.622,2.225256080300131,0.2178012745532005,-0.1325823251707678,0.1727985018723005,-0.1850128136155117,-0.1922268392032728,0.1949168194698881,-0.0043973451279786,0.0057676721992817,-0.0061609266933965
12.655,2.2190951536067347,0.2179719164978467,-0.1316182557354178,0.1737480680149003,-0.1855882140482458,0.0051243827221062,-0.017279292274299,-0.0043650893968915,0.0057992360190991,-0.0061800875278065
12.69,2.212915066078928,0.1554622721227731,-0.0931053491606002,0.1244986426080938,0.098887169733704,-1.8771664977499565,8.542804317776273,-0.0031073053867089,0.0041406348548108,0.0032929427521323
12.722,2.2162080088310603,0.1722644324336737,-0.1036217697077748,0.1376138202519086,-0.0142048869063563,0.5045693787057235,-3.3961578570588684,-0.0034496061230455,0.0045832920690779,-0.0004730227339816
12.755,2.215734986097079,0.1724895039457004,-0.1036919652609252,0.1378426831999467,-0.0173080765145211,0.0067589042650658,-0.093188877122066,-0.0034517047499545,0.0045910920428574,-0.0005763589479335
12.789,2.2151586271491457,0.2113642001418449,-0.1269640930919366,0.1689820823843283,-0.0140030028085048,1.1674082941785144,0.0992514626431309,-0.0042266967385384,0.0056280103579962,-0.0004662999935232
12.822,2.214692327155622,0.2180467796863663,-0.1308969414770923,0.1743857472488432,0.0003611143088659,0.200678064400041,0.4313548683895134,-0.0043590109410715,0.0058069382000283,1.2025106485236138e-05
12.856,2.214704352262107,0.2182404180639336,-0.1310152845274757,0.1745390365989944,0.0028256873769607,0.0058149662933116,0.07401120324609,-0.0043631903829058,0.0058118635971559,9.409538965279295e-05
12.89,2.21479844765176,0.2248951314753131,-0.1350272020850582,0.1798484774980851,-0.0637309967550074,0.1998412435849705,-1.9986992231822276,-0.0044901587939381,0.0059936376228154,-0.0021222421919417
12.922,2.212676205459818,0.2182230981041652,-0.1306506550250074,0.1747905228772905,-0.0630437724655283,-0.2003613624969334,0.0206373660504232,-0.0043446621481043,0.0058250062287222,-0.002099357623102
12.955,2.210576847836716,0.2180851352051482,-0.1302010530445679,0.1749537424107681,-0.0647666212898687,-0.004143030000511,-0.0517372019321454,-0.0043295175144854,0.0058305501350716,-0.0021567284889526
12.989,2.208420119347764,0.2125413959685701,-0.1265233024067498,0.1707796795533903,-0.0907163744003222,-0.1664786557530955,-0.7792718651787829,-0.0042047355847547,0.0056932403384079,-0.0030208552675307
13.022,2.205399264080233,0.20628140813499,-0.1222955425609633,0.1661198952921472,-0.0887354225916152,-0.1879876226300326,0.0594880423035122,-0.0040643656025599,0.0055377257646259,-0.0029548895723007
13.055,2.202444374507932,0.2061182455797398,-0.1217077999135492,0.1663488581297552,-0.0924128893271896,-0.0048997764339399,-0.1104344365037339,-0.0040444430061509,0.0055455691437693,-0.0030773492145954
13.089,2.199367025293337,0.2008775291093047,-0.1181138259998686,0.1624835555024948,-0.1136620188944624,-0.1573788729860402,-0.6381119990172008,-0.0039230420715354,0.005418060049251,-0.0037849452291855
13.122,2.195582080064151,0.1948103811500505,-0.1139491725727581,0.1580084512733789,-0.1120818587264479,-0.1821966354130381,0.0474522572977327,-0.0037847773690383,0.005268680064329,-0.0037323258955907
13.156,2.19184975416856,0.1949636117609498,-0.1134478049351233,0.1585572624204788,-0.1125542288756741,0.0046015198468252,-0.0141852897665521,-0.0037680064994765,0.0052869541967844,-0.0037480558215599
13.189,2.1881016983470003,0.2128441125921353,-0.1232026762771857,0.1735618530186646,-0.008703098894827,0.5369519769124766,3.1186525519773887,-0.0041019189357559,0.0057801279261877,-0.0002898131931977
13.223,2.187811885153802,0.1837467256026091,-0.1063165176163437,0.149865463838785,-0.1189137692018006,-0.8737954050908772,-3.3096297389481544,-0.0035305428327449,0.0049974508791389,-0.0039598285144199
13.256,2.183852056639383,0.1839166036332234,-0.1058199867182451,0.1504242251199274,-0.1234857929448391,0.0051014423607898,-0.1372980103014581,-0.0035135898713983,0.0050162923790916,-0.0041120769050631
13.289,2.17973997973432,0.1771635487213075,-0.1013377815745263,0.1453188804700913,-0.1310348972599398,-0.2027944417992758,-0.2266998292823031,-0.0033640698102463,0.0048464032157402,-0.0043634620787559
13.322,2.175376517655564,0.1724626342679805,-0.0980306470061951,0.1418920451124655,-0.1344555521798331,-0.1411686022020124,-0.1027223699667664,-0.0032539197684822,0.004732236865822,-0.0044773698875884
13.356,2.170899147767975,0.1724230794605862,-0.097372025677138,0.1422968971770024,-0.1324254018393831,-0.0011878320538808,0.0609654756891894,-0.003232118312299,0.004745560572992,-0.0044097658812514
13.389,2.1664893818867235,0.2095167680348184,-0.1175562071643425,0.1734295656596363,-0.1450450120059661,1.113924581808773,-0.3789672722697572,-0.003900766848382,0.005784563409922,-0.0048299988997986
13.422,2.161659382986925,0.2182091867333155,-0.1215595294965569,0.181214044608553,-0.3175118734554346,0.2610335945494616,-5.179185028512569,-0.0040160682633862,0.0060556401379418,-0.0105731453860659
13.455,2.1510862376008597,0.2181885845930169,-0.1196254727020145,0.1824719286014254,-0.3177376340245607,-0.0006186828918477,-0.0067795966704517,-0.0039514217594402,0.0060972024339231,-0.0105806632130178
13.489,2.1405055743878414,0.2129413733497367,-0.1148578599069547,0.1793089526534197,-0.2387420885610798,-0.1575739112096165,2.372238602506931,-0.0038011027611419,0.0059860581947957,-0.0079501115490839
13.522,2.132555462838757,0.206411514851501,-0.1099504213339259,0.1746900635748455,-0.2317404268617989,-0.1960918467938649,0.2102601110895174,-0.0036389756689382,0.0058311809459602,-0.0077169562144979
13.555,2.1248385066242594,0.2063676266441379,-0.108575994447947,0.1754960135056454,-0.2317077946679709,-0.0013179641850786,0.0009799457606001,-0.003593107834579,0.005857841120734,-0.0077158695624434
13.589,2.117122637061816,0.2126868467432184,-0.1105018337008333,0.1817279272052775,-0.1738349397861551,0.1897663693417578,1.7379235700244988,-0.0036622878898107,0.0060620884950884,-0.0057887034948789
13.622,2.1113339335669368,0.2062951621341126,-0.1061588771864409,0.1768841053188611,-0.1712402713067797,-0.1919424807539279,0.0779179723536146,-0.0035183871426225,0.0059002224746756,-0.0057023010345157
13.656,2.105631632532421,0.2063687602780522,-0.1051860232231969,0.1775498964719193,-0.1731412190785938,0.0022101544726612,-0.057085518673096,-0.0034857409264732,0.0059224115874264,-0.0057656025953171
13.69,2.099866029937104,0.1860570966571897,-0.0939086832111347,0.1606188109595311,-0.1154398436600236,-0.6099598684943687,1.7327740365936988,-0.0031169705182222,0.0053545459515609,-0.0038441467938787
13.722,2.0960218831432247,0.18360183026232,-0.0920594579464509,0.1588542988976987,-0.1491355314760107,-0.0737317235696607,-1.011882516996609,-0.0030525305272521,0.0052973818501209,-0.0049662131981511
13.755,2.0910556699450744,0.1837929413450141,-0.091364423941987,0.1594753502143847,-0.1493758485133838,0.0057390715523735,-0.0072167278490402,-0.0030293137312292,0.0053180178379301,-0.0049742157554956
13.789,2.0860814541895785,0.1740528435632069,-0.0857702777638428,0.1514524737491977,-0.1014593624220892,-0.2924954288830992,1.4389335162550914,-0.0028477188498547,0.005048129765828,-0.0033785967686555
13.822,2.082702857420923,0.1721859339894835,-0.0843436048742786,0.150113797435953,-0.1368053770645443,-0.0560633505622634,-1.0614418811548072,-0.0027973390361553,0.0050051177400262,-0.0045556190562493
13.855,2.0781472383646733,0.1722611331130873,-0.0836954072594115,0.1505622023785718,-0.1357407081433835,0.0022582319400546,0.0319720396744978,-0.0027758094198027,0.0050199516702315,-0.0045201655811746
13.89,2.0736270727834984,0.1656273672844788,-0.0798171247851139,0.1451263290537771,-0.223391995853735,-0.1992121870453011,-2.632170802112656,-0.0026400006424248,0.0048424991334876,-0.0074389534619293
13.922,2.06618811932157,0.1606398510940164,-0.0763643908915665,0.1413281343656237,-0.2144332953557137,-0.1497752609748466,0.2690300449856247,-0.002526197562512,0.0047152189887624,-0.0071406287353452
13.956,2.059047490586224,0.1604364300111536,-0.0752578596911089,0.1416901641944039,-0.2109285802974628,-0.0061087412271105,0.105246698445972,-0.0024895835787528,0.0047269986660704,-0.0070239217239055
13.989,2.052023568862319,0.1623598410807141,-0.0751510750705265,0.1439202345450383,-0.0880062287901783,0.0577600921789934,3.691361907125661,-0.0024955937879764,0.0047961575560921,-0.0029306074187129
14.022,2.049092961443605,0.1490194422385513,-0.0685888254939141,0.1322965123593751,-0.1967852363835424,-0.4006125778427279,-3.26663686466559,-0.0022696391503831,0.0044128836366376,-0.0065529483715719
14.055,2.042540013072034,0.149134483616728,-0.0677727062757612,0.1328456039456613,-0.1958060339165318,0.003454696041343,0.0294054794898097,-0.0022424752862619,0.0044310432364974,-0.0065203409294205
14.089,2.036019672142613,0.1505583951069059,-0.0675438717370131,0.1345572581763656,-0.0789312915774251,0.0427601048101479,3.5097520221953946,-0.0022434029974227,0.0044836657884544,-0.0026284120095282
14.122,2.033391260133085,0.1376204365879297,-0.0614161207997155,0.1231561800015213,-0.1851451794545859,-0.3885272828521379,-3.189606242557381,-0.0020325778785409,0.0041073415726768,-0.0061653344758377
14.155,2.027225925657248,0.1378160080851131,-0.0607418566749195,0.1237080390766885,-0.184173818715867,0.0058730179334349,0.0291699921537206,-0.0020101354736493,0.0041256171254025,-0.0061329881632383
14.189,2.021092937494009,0.138733318670795,-0.0603812626057872,0.1249041105630368,-0.0781952772524228,0.0275468644348926,3.182538782686013,-0.0020053558749844,0.004161882756218,-0.0026039027325056
14.223,2.0184890347615028,0.1262989853264595,-0.0546731615474535,0.1138520052563822,-0.181978455481937,-0.3734034037337986,-3.1166119588442687,-0.0018091883722587,0.0037967313064751,-0.0060598825675485
14.255,2.0124291521939544,0.1263802459028296,-0.054016964219062,0.1142546897550216,-0.1829998024096017,0.0024402575486505,-0.0306710789088507,-0.0017872319302981,0.0038101051442882,-0.0060938934202397
14.29,2.0063352587737158,0.130065376001051,-0.0548744626581654,0.1179228365596434,-0.0896541775040605,0.1106645675141565,2.80317191908532,-0.0018215281493986,0.0039295185014535,-0.0029854841108852
14.323,2.00334977466283,0.1262517403497074,-0.0529235222779442,0.1146237441851638,-0.0877992106589162,-0.1145235931334405,0.0557047100643942,-0.0017568418746514,0.0038195089140417,-0.0029237137149419
14.356,2.000426060947888,0.1262463183341361,-0.0525859110897934,0.1147730580222569,-0.0891151333772161,-0.000162823290431,-0.0395171987477448,-0.001745508447946,0.0038245030359385,-0.0029675339414612
14.389,1.997458527006426,0.1269717257323949,-0.0525452857391956,0.1155889790682865,-0.0767568999517449,0.0217840059537176,0.3711181208850221,-0.0017449084821456,0.003851312591456,-0.0025560047683931
14.422,1.9949025222380337,0.1149620145893032,-0.0473075963201211,0.1047771737013536,-0.0871260579985363,-0.3606519862790278,-0.3113861275312738,-0.0015703441790227,0.003491331085928,-0.0029012977313512
14.455,1.9920012245066816,0.1148353894450779,-0.0469516358648957,0.1047984282258706,-0.087494865123244,-0.0038025568836427,-0.0110752890302625,-0.0015584682506796,0.0034920314452551,-0.002913579008604
14.489,1.9890876454980777,0.1182780173492678,-0.0480444928665794,0.1080805999856908,-0.0907079356743279,0.1033822193450426,-0.096488605137655,-0.001594510437337,0.0036014651651607,-0.0030205742579551
14.522,1.9860670712401236,0.1147469177121956,-0.0462932300699517,0.104994247338318,-0.0866047746560146,-0.1060390281403086,0.1232180485979979,-0.0015365858488126,0.0034984979332033,-0.0028839389960452
14.555,1.9831831322440772,0.1146910997822882,-0.0459678693038791,0.105076178846265,-0.0850157415450831,-0.0016762141113333,0.0477187120399842,-0.0015258401181972,0.0035011705025283,-0.0028310241934512
14.59,1.980352108050626,0.1181533113897416,-0.0470488714808318,0.1083817728436909,-0.0825987769598141,0.1039703185421445,0.0725815190771494,-0.0015618290296438,0.0036112341431265,-0.0027505392727618
14.623,1.9776015687778647,0.1146031298793706,-0.0453458592564821,0.1052503226904279,-0.0782555824669946,-0.1066120573684975,0.1304262610456306,-0.0015055139066541,0.0035067712957904,-0.0026059108961509
14.656,1.9749956578817132,0.1144883471541416,-0.0450262905731926,0.1052625992045877,-0.0763297282337826,-0.0034469286855562,0.0578334604568141,-0.0014949842349712,0.0035071185480432,-0.0025417799501849
14.689,1.972453877931528,0.1180790162023162,-0.0461623434078006,0.1086816089244502,-0.1892913675501278,0.1078278993445832,-3.392241420911265,-0.0015258568996111,0.0036238900643638,-0.0063034025394192
14.722,1.9661504753921093,0.1143899167733508,-0.0440555654704707,0.1055659045833037,-0.1804737773806536,-0.1107837666355994,0.2647924975818069,-0.0014565436976493,0.0035197047137955,-0.0060097767867757
14.755,1.9601406986053336,0.1144361885867436,-0.0434379101269402,0.1058715694701113,-0.18008261319227,0.0013895439457313,0.0117466723238322,-0.001435968499519,0.0035298125425587,-0.0059967510193025
14.79,1.9541439475860312,0.1269003247173808,-0.0474641734222471,0.1176896114987195,0.1725366504340858,0.3742983823014169,10.58916707586654,-0.0015918794000611,0.0039144724207864,0.005745470459455
14.822,1.9598894180454869,0.1145999301812658,-0.0434734205725455,0.1060339837093446,0.0569470943815009,-0.3693812173007517,-3.4711578394169624,-0.0014510775242333,0.0035295299548072,0.0018963382429039
14.855,1.96178575628839,0.1146764984786688,-0.0437035990185532,0.1060221426691313,0.0578584223510017,0.0022993482703604,0.0273672062913137,-0.0014587956229586,0.0035291060865115,0.0019266854642883
14.89,1.963712441752678,0.1269877816426266,-0.0486215816511839,0.1173108626012641,0.4319015168669319,0.3697082031218578,11.232525360838745,-0.0016472066370944,0.0038946434539673,0.0143823205116688
14.922,1.9780947622643472,0.1148418544503996,-0.0454923285287385,0.1054471411591613,0.3153573271047833,-0.3647425583251371,-3.49982551838284,-0.0015333688607743,0.0035033425946626,0.0105013989925892
14.955,1.988596161256936,0.1148623878948413,-0.0466054737238704,0.1049823698145484,0.3151111992935101,0.0006166199532061,-0.0073912255637597,-0.0015703400782918,0.0034876771368596,0.0104932029364738
14.989,1.9990893641934104,0.1270641199354712,-0.0527720956190233,0.1155871813781808,0.1804445766190611,0.3664183795984936,-4.044042722956426,-0.0017689356823305,0.0038437174648676,0.0060088044014147
15.022,2.005098168594825,0.1147741645480244,-0.0482943469951503,0.1041189939252632,0.0693704957726666,-0.3690677293527559,-3.335557983375208,-0.001612269334351,0.003465271961596,0.0023100375092298
15.055,2.0074082061040546,0.1148814404893682,-0.0485801006576945,0.1041043668104297,0.0697307028834682,0.0032214997400535,0.0108170303544004,-0.0016218051270248,0.0034647639770073,0.0023220324060194
15.089,2.009730238510075,0.1268615616604621,-0.053912951323623,0.1148357501238525,-0.0492775605625295,0.35976339853135,-3.573821725105038,-0.0017922340316008,0.0038254684627304,-0.0016409427667322
15.122,2.0080892957433427,0.1149028420646139,-0.0486600571157418,0.104090642980137,-0.152703487778567,-0.3591207085840295,-3.1058837001813067,-0.0016116244992387,0.0034702933633568,-0.0050850261430262
15.155,2.003004269600316,0.1149330200637704,-0.0481427675054582,0.1043641367419596,-0.1538615954471579,0.0009062462209138,-0.034778008065791,-0.0015943087252097,0.0034793878760353,-0.0051235911283903
15.189,1.997880678471926,0.118295002196516,-0.0490000150164657,0.1076694296124013,-0.0815005224747097,0.1009604244067749,2.1730051943678124,-0.001626899827163,0.0035875715723782,-0.0027139673984078
15.222,1.9951667110735176,0.1147966557483932,-0.0472671896058694,0.1046139806994164,-0.0803847822287621,-0.1050554488925766,0.033505713091519,-0.0015693977562823,0.0034857188906399,-0.0026768132482177
15.255,1.9924898978253005,0.1147948690729331,-0.0469862572109898,0.1047385010336436,-0.0811721561407702,-5.365391771971472e-05,-0.0236448622224638,-0.0015599914852733,0.0034898734967817,-0.0027030327994876
15.29,1.9897868650258124,0.0928323373239186,-0.0377677704541652,0.0848023488350606,-0.0489997023541998,-0.6595354879583932,0.9661397533504614,-0.0012554147969369,0.0028249197030529,-0.0016316900883948
15.323,1.9881551749374171,0.0564062294870299,-0.0228641199955187,0.0515644717007165,-0.0475881787914299,-1.0938771122188815,0.0423880949780758,-0.0007600462566012,0.0017176853403819,-0.0015846863537546
15.356,1.9865704885836628,0.0230426138140876,-0.0093068715696281,0.0210794732612471,-0.0475866949200017,-1.001910380568835,4.456070354758418e-05,-0.0003093755729245,0.0007021859731101,-0.001584636940836
15.389,1.9849858516428276,0.0236351581135902,-0.009511924925227,0.0216366352114014,0.3750793812253229,0.0177941231081857,12.692674959319058,-0.000321251727222,0.0007184971689208,0.0124901433948032
15.423,1.9974759950376304,0.023043462303225,-0.0095365470643396,0.0209774980636344,0.7865128448918661,-0.0177686429539103,12.35535926926556,-0.0003266909149014,0.0006943063145666,0.0261908777348991
15.455,2.0236668727725293,0.0176861216269691,-0.0077385362240113,0.0159032686990319,1.1365825468804078,-0.1608811013890661,10.51260366331957,-0.0002676620883487,0.0005245714181179,0.0378481988111175
15.49,2.0615150715836474,-8.320898910053099e-05,3.9213063102751904e-05,-7.338985998918299e-05,1.3977120264586849,-0.5336135320141047,7.841726113461772,1.362231939395033e-06,-2.4125919013416674e-06,0.0465438104810742
15.522,2.108058882064721,-1.810513051385147e-05,9.265954825683788e-06,-1.5554350905517816e-05,1.357378722300744,0.0019550708284288,-1.2112103350733034,3.201648115349867e-07,-5.10805286460223e-07,0.0452007114526147
15.556,2.153259593517336,2.1011437366608106e-05,-1.1558028254264834e-05,1.7546865334996764e-05,1.3578600439391617,0.0011746717081219,0.0144541032557847,-3.979699512154174e-07,5.754040542640858e-07,0.045216739463174
15.589,2.19847633298051,8.987888568432386e-05,-5.278304334830761e-05,7.274726404990388e-05,1.3992008335184305,0.0020680915410725,1.2414651525305942,-1.8135093247090403e-06,2.3806331696071537e-06,0.0465933877561637
15.622,2.245069720736673,0.0003006460242741,-0.0001877022978864,0.0002348528885919,1.3542357235805922,0.0063293435011963,-1.3503036017368797,-6.4248200214178985e-06,7.676919134191674e-06,0.0450960495952337
15.655,2.2901657703319067,0.0002358927357672,-0.0001554321969218,0.0001774435542582,1.355563968766871,-0.001944543198405,0.0398872428311961,-5.307583512027868e-06,5.7899644921747725e-06,0.0451402801599368
15.689,2.3353060504918446,0.0182399865453572,-0.0126254129602521,0.0131641960163889,0.7459375586108011,0.5406634777654652,-18.30709940408618,-0.0004258352498184,0.0004330933716494,0.0248397207017396
15.722,2.360145771193584,0.0177074564795948,-0.0125704389189579,0.0124714907032597,0.3028733856241274,-0.0159918938667389,-13.305230420020228,-0.000420690472602,0.0004131748910559,0.0100856837412834
15.755,2.370231454934867,8.620035454344889e-05,-6.180241535506115e-05,6.009128538895462e-05,-0.0001431901927799,-0.5291668506021445,-9.0995968713786,-2.0580528332027277e-06,2.001006478466832e-06,-4.768233419571999e-06
15.789,2.3702266867014483,0.0001259967721696,-9.033453268743688e-05,8.783426894620844e-05,-0.0003967519530289,0.0011950876164026,-0.0076144672747458,-3.008174951520823e-06,2.924845145716569e-06,-1.3211840035864953e-05
15.822,2.370213474861412,8.196898110770792e-05,-5.876765217064437e-05,5.71426016399843e-05,-0.0006226870036533,-0.0013221558877462,-0.0067848363550858,-1.956978437688212e-06,1.9028325697585264e-06,-2.073547722165614e-05
15.855,2.3701927393841906,8.227187117164897e-05,-5.8983619899206085e-05,5.735497685179887e-05,-0.0006126482237718,9.09579771594733e-06,0.0003014648613046,-1.964170540361672e-06,1.9099042770041148e-06,-2.0401185851604e-05
15.89,2.370172338198339,8.493765985246011e-05,-6.089361023531804e-05,5.921464593933991e-05,-0.0006224533181179,8.005371413847283e-05,-0.0002944472776594,-2.027773415322369e-06,1.9718310558973725e-06,-2.072769549332776e-05
15.922,2.370151610502845,8.261182660074151e-05,-5.922497724974637e-05,5.7594409139064944e-05,-0.0005964436362382,-6.984484239395203e-05,0.0007810715279201,-1.9722083243588523e-06,1.9178767727144464e-06,-1.986157308673242e-05
15.955,2.370131748929758,8.277337239394045e-05,-5.9339644357359e-05,5.770821245722393e-05,-0.0005896113292177,4.85122502098918e-06,0.0002051743849983,-1.976026990422333e-06,1.9216661654260213e-06,-1.963405726295165e-05
15.989,2.370112114872496,8.54427932123853e-05,-6.125216363507037e-05,5.957049069763485e-05,-0.0006010500520595,8.016278734068628e-05,-0.0003435051904444,-2.03971404779418e-06,1.9836798614289496e-06,-2.0014966733583605e-05
16.022,2.370092099905761,8.307930968633705e-05,-5.9556672057192405e-05,5.792386823607635e-05,-0.0005777652382787,-7.097548126271027e-05,0.0006992436570815,-1.983254456185027e-06,1.9288470483824697e-06,-1.923958243468249e-05
16.055,2.370072860323328,8.322042911063137e-05,-5.96567193368157e-05,5.802340613343913e-05,-0.0005728088670614,4.237820549378895e-06,0.000148839976497,-1.986586219694296e-06,1.9321614665588157e-06,-1.907453527314473e-05
16.089,2.3700537857880537,8.5883751240275e-05,-6.15647845563726e-05,5.988151659426191e-05,-0.000585524324305,7.997964353284193e-05,-0.0003818455628734,-2.0501249286839265e-06,1.994036404604455e-06,-1.949795999935944e-05
16.123,2.370034287828055,8.349003668261478e-05,-5.9847742623229646e-05,5.821369193040434e-05,-0.0005642698578579,-7.188332004985655e-05,0.000638272265679,-1.99294762802497e-06,1.938497642748214e-06,-1.8790186266670617e-05
16.156,2.370015497641788,8.366240278510693e-05,-5.997020283365746e-05,5.833500160167522e-05,-0.0005600175105868,5.1761592339985285e-06,0.0001276981162493,-1.997025727683184e-06,1.9425370759920144e-06,-1.864858310254292e-05
16.19,2.369996849058685,8.647335818260351e-05,-6.198400458310796e-05,6.029614292156749e-05,-0.0005715277389048,8.441307499989743e-05,-0.0003456525020425,-2.064085545349018e-06,2.007842857039716e-06,-1.9031873705532837e-05
16.223,2.36997781718498,8.41872536124907e-05,-6.034421021129644e-05,5.870323640812911e-05,-0.0005498876167382,-6.865178889227689e-05,0.000649853518519,-2.009480616504621e-06,1.9547988408608742e-06,-1.8311257637382285e-05
16.255,2.3699595059273424,8.44269676760247e-05,-6.051495579666636e-05,5.8871495614567465e-05,-0.00054559408617,7.19862052654671e-06,0.0001289348518953,-2.01516663742784e-06,1.96040167484118e-06,-1.816828306946405e-05
16.29,2.3699413376442733,8.722312387917882e-05,-6.25180595381457e-05,6.082241010373928e-05,-0.0005580776919908,8.396865474937303e-05,-0.0003748830576798,-2.081870187745248e-06,2.0253669268596675e-06,-1.858398714329468e-05
16.322,2.3699227536571303,8.48771179184715e-05,-6.083543601738133e-05,5.91876243037446e-05,-0.0005381217479304,-7.045062945067021e-05,0.0005992775994113,-2.025838973923622e-06,1.970928406858675e-06,-1.7919454206083432e-05
16.356,2.369904834202924,8.508306091446148e-05,-6.0981981888530976e-05,5.933232794624565e-05,-0.0005349800986833,6.184474354053203e-06,9.43438212329677e-05,-2.0307191011257302e-06,1.975746884985121e-06,-1.7814837286156406e-05
16.39,2.3698870193656383,8.78671145597008e-05,-6.297631814216852e-05,6.127489840304886e-05,-0.0005482352433809,8.36052145717515e-05,-0.0003980523933204,-2.097130673505792e-06,2.040434301834255e-06,-1.8256233604585504e-05
16.422,2.3698687631320325,8.547405951500534e-05,-6.12600740963918e-05,5.960719899206186e-05,-0.0005295315377856,-7.186351485571955e-05,0.0005616728407004,-2.0399798402214014e-06,1.9848998162166863e-06,-1.763340020826121e-05
16.455,2.369851129731825,8.565493558236241e-05,-6.138865638851e-05,5.973441936130379e-05,-0.0005272504212127,5.431713734446675e-06,6.85019991864992e-05,-2.044261747420178e-06,1.9891361350217163e-06,-1.7557439026383293e-05
16.489,2.369833572292798,8.843258570892545e-05,-6.337830777942464e-05,6.167262211210878e-05,-0.0005410880405193,8.341291671360464e-05,-0.000415544123323,-2.11051729797081e-06,2.053678123743846e-06,-1.801823174929496e-05
16.522,2.3698155540610486,8.600205115828474e-05,-6.16352994226647e-05,5.997868511822092e-05,-0.0005233138210017,-7.298902554476593e-05,0.0005337603458747,-2.052475171060427e-06,1.997269969747011e-06,-1.7426350239357904e-05
16.555,2.36979812771081,8.616434413710038e-05,-6.175056313563676e-05,6.009294595048909e-05,-0.000521675608017,4.873663027496571e-06,4.919558512572116e-05,-2.056313544846745e-06,2.001074761526233e-06,-1.7371797746967843e-05
16.589,2.3697807559130624,8.893984639283329e-05,-6.373857780522458e-05,6.202975073098482e-05,-0.0005359544537984,8.334841608807529e-05,-0.0004287941676105,-2.122514580175145e-06,2.0655702105457407e-06,-1.7847283311489547e-05
16.622,2.369762908629752,8.64781785870995e-05,-6.197335165560433e-05,6.031400381597195e-05,-0.0005188784230069,-7.392395813014361e-05,0.0005127937174647,-2.063732568893384e-06,2.0084358189483565e-06,-1.727865148613006e-05
16.655,2.369745629978265,8.662496639231363e-05,-6.2077501117025e-05,6.041745325264237e-05,-0.0005177412609707,4.4080421986223845e-06,3.41490100963145e-05,-2.0672008182657533e-06,2.0118806115757484e-06,-1.724078399032436e-05
16.69,2.3697283891942758,8.939971283669709e-05,-6.40648750710697e-05,6.235383257997968e-05,-0.0005323768355487,8.332571905055436e-05,-0.0004395067440866,-2.1333805069901976e-06,2.076361904147931e-06,-1.772814862377459e-05
16.722,2.3697106610456515,8.691231439972401e-05,-6.228130171977014e-05,6.062004495550487e-05,-0.0005158161568185,-7.469664975895124e-05,0.0004973176795871,-2.073987510236825e-06,2.018626781246419e-06,-1.7176678022057247e-05
16.755,2.3696934843676285,8.704918464723214e-05,-6.237833994030254e-05,6.071658137642446e-05,-0.0005150351140565,4.110217642886776e-06,2.345473759752069e-05,-2.0772189413656347e-06,2.0218413847916942e-06,-1.7150669298082732e-05
16.79,2.3696763336983317,8.981655757584367e-05,-6.436032978295406e-05,6.264792067582322e-05,-0.000530091388858,8.31042921504964e-05,-0.0004521403844291,-2.1432193233795817e-06,2.086154860598853e-06,-1.7652043248972403e-05
16.822,2.369658681655082,8.728896671674736e-05,-6.254804576511567e-05,6.0886005628899866e-05,-0.0005141838335369,-7.590362940229152e-05,0.0004777043639952,-2.0828702305206536e-06,2.0274831263636444e-06,-1.7122321656781735e-05
16.856,2.369641559333425,8.73998977451945e-05,-6.262649099425241e-05,6.096445482096332e-05,-0.0005139404622719,3.331262115529672e-06,7.308446398874193e-06,-2.08548249100635e-06,2.0300954497905174e-06,-1.7114217393654486e-05
16.889,2.369624445116031,9.016311500700438e-05,-6.460540094844622e-05,6.289300021510186e-05,-0.0005293247667368,8.29794973516479e-05,-0.0004619911250745,-2.151380299502786e-06,2.094315902241389e-06,-1.7626514732338452e-05
16.923000000000002,2.3696068186013,8.76214939041945e-05,-6.278315260339429e-05,6.112120698400597e-05,-0.0005136295538957,-7.632495804233867e-05,0.0004713277129461,-2.0906993854233068e-06,2.035315233723953e-06,-1.7103864144729642e-05
16.955,2.3695897147371543,8.772908847808558e-05,-6.285920030226848e-05,6.11973357471962e-05,-0.0005135558118022,3.23106828501728e-06,2.2144772826598638e-06,-2.0932318017107574e-06,2.0378502935968283e-06,-1.7101408533015672e-05
16.989,2.369572613328621,9.04991477133697e-05,-6.484290944208895e-05,6.313075979212795e-05,-0.0005290895866612,8.318496202054413e-05,-0.0004664797254956,-2.159289417872074e-06,2.1022332104930366e-06,-1.7618683235820496e-05
17.022,2.369554994645385,8.794491716938094e-05,-6.301171473607825e-05,6.135007955942987e-05,-0.0005135432948078,-7.670361993960226e-05,0.0004668556112147,-2.0983105837943634e-06,2.042936611174176e-06,-1.710099171710056e-05
17.055,2.3695378936536686,8.80501078536521e-05,-6.308603247114432e-05,6.142453907103816e-05,-0.0005135965774553,3.1588794075423856e-06,-1.6000795064056349e-06,-2.100785387409198e-06,2.0454160899780763e-06,-1.7102766029264418e-05
17.09,2.3695207908876394,9.082764754971155e-05,-6.507499700238107e-05,6.336328846070665e-05,-0.0005292522443043,8.340960048226626e-05,-0.0004701401456155,-2.1670180035314026e-06,2.1099763455071934e-06,-1.7624099735336078e-05
17.122,2.3695031667879043,8.826180885368561e-05,-6.323557349357529e-05,6.157441958364833e-05,-0.0005138075287278,-7.705221309387263e-05,0.0004638052725685,-2.105765146282549e-06,2.050407068509096e-06,-1.710979070663754e-05
17.155,2.3694860569971974,8.83652920442308e-05,-6.330865972514563e-05,6.164769616026153e-05,-0.00051395597442,3.10760331967531e-06,-4.4578285938423884e-06,-2.1081989372090103e-06,2.05284715935746e-06,-1.7114733948186968e-05
17.19,2.369468942263249,9.115079578428913e-05,-6.530322491902665e-05,6.359210947345745e-05,-0.0005297129486519,8.364876096271214e-05,-0.0004731824093664,-2.1746180513039064e-06,2.117596027702796e-06,-1.7639441190109296e-05
17.223,2.3694513028220587,8.857408747498564e-05,-6.345610205113168e-05,6.179556686771932e-05,-0.000514334409081,-7.737862790701119e-05,0.0004618180051326,-2.1131088030339533e-06,2.057771218045063e-06,-1.7127335822397784e-05
0.522,-0.7854115175490155,-3.3912979787591856e-05,-2.397977774204732e-05,2.3980418209773287e-05,-0.0004439648529948,-0.0007628062558203,-0.0073108728738927,-7.985313598381489e-07,7.985431654459998e-07,-1.478402960473011e-05
0.556,-0.78542630157862,-6.863343639135969e-06,-4.852980269044796e-06,4.853253384805916e-06,-0.0001315484186489,0.0008123013858395,0.0093818749052823,-1.6160604718029058e-07,1.6161153357312502e-07,-4.3805623410115964e-06
0.5890000000000001,-0.7854306821409613,0.0001833916467899,0.0001296732600409,-0.0001296816939381,0.0004648850450889,0.0057133630759477,0.017910914826964,4.318210652774369e-06,-4.3183093185761145e-06,1.5480672001460596e-05
0.623,-0.7854152014689597,3.771497275387837e-05,2.666805860263105e-05,-2.666896736269374e-05,-0.0004253086196426,-0.0043746748959773,-0.0267325424844303,8.880519221408073e-07,-8.880710426512517e-07,-1.4162777034099374e-05
0.656,-0.785429364245994,-7.859671880301809e-06,-5.557453879070329e-06,5.557800684444624e-06,1.9711070493186976e-05,-0.0013686079469723,0.013363954658733,-1.8506574644487603e-07,1.8507223068435693e-07,6.563786474231263e-07
0.6890000000000001,-0.7854287078673465,-7.499471645193691e-06,-5.302765278057065e-06,5.303089228260878e-06,0.0001530359518063,1.0816823877120644e-05,0.0040037501895848,-1.7658489195204033e-07,1.765900632335332e-07,5.09609719515188e-06
0.7230000000000001,-0.7854236117701512,-5.68165453756306e-06,-4.0174342108042765e-06,4.0176386903342034e-06,0.0001925255919019,5.4589102331250185e-05,0.0011858750779461,-1.337827746805333e-07,1.3378515300437506e-07,6.411102210335621e-06
0.755,-0.7854172006679407,-4.19936169865765e-06,-2.9693406040213702e-06,2.969453662454234e-06,0.0002125141721814,4.451329846562793e-05,0.0006002576660494,-9.888071247928357e-08,9.888113663037649e-08,7.076721933641241e-06
0.79,-0.7854101239460074,-2.9707982686126234e-06,-2.1006464759382923e-06,2.100696726307678e-06,0.0002306705080897,3.689379669804884e-05,0.0005452353125625,-6.995273047022731e-08,6.995199817113342e-08,7.68132791938876e-06
0.8220000000000001,-0.7854024426180879,-1.71665080652703e-06,-1.2138502318583115e-06,1.2138606205686984e-06,0.0002304864650216,3.766208594851632e-05,-5.526818861100806e-06,-4.042190763209517e-08,4.0420863747004267e-08,7.675199285221875e-06
0.8550000000000001,-0.7853947674188024,-6.555304093423327e-07,-4.6353157185525806e-07,4.6352842357931e-07,0.0002335474590575,3.186547739293385e-05,9.192174281881846e-05,-1.543586749033298e-08,1.5435230351066953e-08,7.777130386616235e-06
0.89,-0.7853869902884161,4.046633917432403e-07,2.8614342545770334e-07,-2.8613703130576256e-07,0.0002406476658301,3.1837651684251444e-05,0.0002132194225999,9.528741487446456e-09,-9.528197715923458e-09,8.013567272143136e-06
0.922,-0.7853789767211441,1.4713044422702798e-06,1.0403893093576333e-06,-1.0403493868977895e-06,0.0002305685651648,3.2031262778589774e-05,-0.0003026756956534,3.4645559628684695e-08,-3.4643038923581955e-08,7.677933219990005e-06
0.955,-0.7853712987879238,2.6208178271891907e-06,1.8532478426335269e-06,-1.8531482717491468e-06,0.0002245075189289,3.451992146903636e-05,-0.0001820134004781,6.171420790723711e-08,-6.17087826261396e-08,7.4761003803337475e-06
0.99,-0.7853638226875437,4.050530385545032e-06,2.864255858534138e-06,-2.864059144130312e-06,0.000221484951608,4.293431106173697e-05,-9.07677874141088e-05,9.538134541424472e-08,-9.537154403423273e-08,7.375448888548116e-06
1.022,-0.7853564472386552,5.429962733621644e-06,3.839723639032618e-06,-3.8394032953538444e-06,0.000201842384534,4.14243948371355e-05,-0.0005898668791003,1.2786493418765717e-07,-1.278499925136303e-07,6.721351404982509e-06
1.056,-0.7853497258872499,7.111221238297296e-06,5.028636317044532e-06,-5.028149191393523e-06,0.0001853844483531,5.04882433836532e-05,-0.0004942323177434,1.6745634213940596e-07,-1.6743461497661704e-07,6.173302130159999e-06
1.089,-0.78534355258512,9.27721117404954e-06,6.560337167666133e-06,-6.559620676109858e-06,0.0001705914814436,6.504474281538269e-05,-0.000444233240526,2.1846276511031141e-07,-2.1843183064728405e-07,5.680696332073122e-06
1.123,-0.785337871888788,-0.0001525481537419,-0.0001078743372868,0.0001078613302579,0.0021882163780608,-0.0048596205680479,0.0605893362347499,-3.592394253894662e-06,3.5916034432797703e-06,7.286760538942501e-05
1.155,-0.7852650042833984,9.740491594463951e-06,6.888484739877752e-06,-6.8866504550684335e-06,0.0001623057147268,0.0048735328929852,-0.0608381580580766,2.2939022398418898e-07,-2.293217769716011e-07,5.4047803004043765e-06
1.19,-0.7852595995030978,8.290518965518007e-06,5.863094424441748e-06,-5.861469823149639e-06,0.0001914437431964,-4.354272158996829e-05,0.0008750158699577,1.9524427303050145e-07,-1.9518371546763586e-07,6.3750766484418735e-06
1.223,-0.7852532244264498,6.539801681689217e-06,4.625008314971034e-06,-4.62366782135935e-06,0.0002066533199283,-5.257409260747116e-05,0.000456744046002,1.5401536274939576e-07,-1.5396555179668979e-07,6.881555553613133e-06
1.256,-0.785246342870896,5.284311468531509e-06,3.737139718635681e-06,-3.736005141839244e-06,0.000224052884374,-3.770240880353478e-05,0.0005225094428161,1.244488780940236e-07,-1.2440684507729226e-07,7.460961049657486e-06
1.29,-0.7852388819098461,4.372095842211725e-06,3.0920310036763144e-06,-3.0910461539403613e-06,0.00024579801296,-2.739386265224576e-05,0.0006530068644438,1.029664282263193e-07,-1.0293004051837437e-07,8.185073831570629e-06
1.323,-0.785230696836015,3.411396389995497e-06,2.4126254532972847e-06,-2.411817520414093e-06,0.0002502865589081,-2.8849833399886717e-05,0.0001347911696121,8.03418347900686e-08,-8.031211573895198e-08,8.334542411641886e-06
1.356,-0.7852223622936032,2.7629096083243047e-06,1.9540155473749137e-06,-1.953328631948009e-06,0.0002595326541983,-1.9474077527663444e-05,0.0002776605192235,6.506986742640117e-08,-6.504469332007044e-08,8.642437384803737e-06
1.39,-0.7852137198562184,2.3113328285270704e-06,1.6346605358120046e-06,-1.634057641849197e-06,0.0002751420563195,-1.3560864258175206e-05,0.0004687508144512,5.4435171764499475e-08,-5.44131431728254e-08,9.16223047544064e-06
1.423,-0.7852045576257427,1.8323923322387184e-06,1.2959478740613165e-06,-1.295446165212281e-06,0.000273094331242,-1.4382597486136696e-05,-6.149324556990384e-05,4.315583642699374e-08,-4.313758476835498e-08,9.094041230360627e-06
1.455,-0.7851954635845124,1.5104874895495309e-06,1.0682924236089118e-06,-1.0678594260226583e-06,0.0002779153581936,-9.666812092768392e-06,0.0001447755841331,3.5574777115472744e-08,-3.5559079206116034e-08,9.25458142784999e-06
1.49,-0.7851862090030846,1.2865345628963897e-06,9.099101118013496e-07,-9.09524474639721e-07,0.0002904552124951,-6.725313112706942e-06,0.0003765722012434,3.0300557648222094e-08,-3.0286613836131485e-08,9.672158576086866e-06
1.522,-0.7851765368445083,0.0337039553013543,0.0238375766305177,-0.0238270128916716,-0.0003507958178752,1.0120921551589015,-0.0192567876988087,0.0007937972631989,-0.0007934335651972,-1.168150073524517e-05
1.556,-0.7851882183452439,0.067054295326678,0.0474245003376937,-0.0474045914387777,4.374778177913212e-05,1.0015117124721822,0.0118481561457766,0.0015792580915182,-0.0015785506550238,1.4568011332450995e-06
1.589,-0.7851867615441108,0.1031203208377503,0.0729324913184909,-0.072901661707802,4.507270947064525e-05,1.0830638291613306,3.978761836375764e-05,0.0024286862012957,-0.0024275910796568,1.5009212253724869e-06
1.623,-0.7851852606228853,0.133780851158396,0.0946174849405755,-0.0945772048655746,4.3366471404723326e-05,0.9207366462656386,-5.123838035801569e-05,0.0031508065801442,-0.0031493765709696,1.444103497777287e-06
1.655,-0.7851838165193872,0.1671439204503135,0.1182139302266079,-0.1181632635123092,4.197179788192295e-05,1.0018939727302547,-4.188208777178312e-05,0.0039365791727405,-0.0039347813546121,1.3976608694680342e-06
1.689,-0.7851824188585179,0.2062426086055757,0.1458670069432242,-0.1458040804979685,3.989564463375979e-05,1.1741347794373018,-6.23469443892841e-05,0.0048574393936167,-0.0048552077875152,1.328524966304201e-06
1.722,-0.7851810903335519,0.206539825665778,0.1460774104622445,-0.146014005282695,-0.0750689501937726,0.0089254372433124,-2.2555208960482407,0.0048583603803406,-0.0048682764060127,-0.0024997960414526
1.756,-0.7876808863750044,0.2065400969803007,0.1457121406027079,-0.1463789047014928,-0.0750765927377203,8.147583265384995e-06,-0.0002295058242542,0.0048461812597793,-0.0048804131199382,-0.002500050538166
1.79,-0.7901809369131705,0.2127992035311193,0.1497503692321823,-0.1511897084404352,-0.0773622362806044,0.1879611576822385,-0.0686379442307538,0.0049802641054821,-0.005040968470288,-0.0025761624681441
1.822,-0.7927570993813147,0.21801439035199,0.1530208403493638,-0.1552897189749675,-0.1100586190753668,0.1566122168429636,-0.9818733572000736,0.0050861757634099,-0.0051804056876752,-0.0036649520152097
1.855,-0.7964220513965241,0.2180086568758018,0.1524466753361948,-0.1558453902164958,-0.1100472921517118,-0.0001721764621083,0.0003401478575085,0.0050670234311393,-0.0051988737630218,-0.003664574828652
1.889,-0.800086626225176,0.2246245661507609,0.1564834831481075,-0.1611493568719823,-0.1133967054131435,0.1986759542029763,-0.1005829808237736,0.0052008275894993,-0.0053760298335726,-0.0037761102902576
1.923,-0.803862736515434,0.2180175186704183,0.1512890190366097,-0.1569817542459841,-0.028083232109602,-0.1984098342445209,2.561966165271517,0.0050355491382056,-0.0052297800712059,-0.0009351716292497
1.955,-0.8047979081446837,0.2177430672697238,0.1509518826946924,-0.1569253722473051,-0.0246479277249131,-0.0082417838046409,0.1031622938344994,0.0050246224105796,-0.005227610106286,-0.0008207759932396
1.989,-0.8056186841379231,0.2242598368332232,0.1553369703601878,-0.1617494978532608,-0.0261107461814098,0.1956987856906724,-0.0439284821770763,0.0051704507767823,-0.0053884373622664,-0.0008694878478409
2.022,-0.8064881719857642,0.2064776869836965,0.1428903535015269,-0.1490482542613164,-0.0028605865019232,-0.5339984939797789,0.6982029933779739,0.0047580786515825,-0.0049634699492562,-9.525753051404518e-05
2.055,-0.8065834295162784,0.2064532122684746,0.1428592191408479,-0.1490441960038667,-0.0028817200793996,-0.0007349764330894,-0.0006346419662569,0.0047570401355052,-0.0049633364475872,-9.596127864400784e-05
2.089,-0.8066793907949221,0.2128905080665353,0.1472988790547859,-0.153705590835308,-0.0033098917365433,0.1933121861279484,-0.0128580077220336,0.0049048389443357,-0.0051186009809153,-0.0001102193948268
2.122,-0.8067896101897492,0.1887917716699277,0.1306099461187979,-0.1363208532291183,-0.008318750223266,-0.7236857776759044,-0.1504161707724531,0.0043487430275188,-0.004540028691979,-0.0002770143824347
2.155,-0.807066624572184,0.1953293766466247,0.1350937170803082,-0.1410788892307584,-0.0116695761410337,0.1963244737746831,-0.1006254029359661,0.0044977706137598,-0.0046987409046557,-0.0003885968854964
2.189,-0.8074552214576802,0.2015331386410523,0.1393277888423658,-0.1456137810332893,-0.0125990489070253,0.1862991589918197,-0.0279120950748238,0.0046386628162931,-0.004849850092604,-0.0004195483286039
2.222,-0.8078747697862845,0.2109063647740464,0.1457439226792223,-0.1524473801161437,0.0042747597616435,0.2814782622520775,0.506720981041108,0.0048537017145589,-0.0050760874936397,0.0001423495000627
2.256,-0.8077324202862215,0.2182017682909637,0.1508077601777352,-0.1576991793113651,9.729126337098304e-05,0.2190811866942113,-0.1254495044526294,0.0050219770477924,-0.0052513074724244,3.239799070253736e-06
2.29,-0.8077291804871511,0.224957517514193,0.1554774489265831,-0.1625812029769437,5.074920268306311e-06,0.2028753520489279,-0.0027692595526329,0.005177471805768,-0.0054138844803825,1.6899484493460017e-07
2.323,-0.8077290114923064,0.2180503971202437,0.1507036788426645,-0.1575892663463569,-0.005701701137592,-0.2074210328513296,-0.1713746563922021,0.0050180043763593,-0.0052481319435582,-0.0001898666478818
2.355,-0.807918878140188,0.2176081121854199,0.1503681344028145,-0.1572981711435941,-0.0042930495285969,-0.013281829874589,0.0423018501199708,0.0050069544018055,-0.0052383201333098,-0.0001429585493022
2.39,-0.8080618366894905,0.2239758794182052,0.1547451420120353,-0.1619232397922962,-0.0058358668175862,0.191224241224785,-0.0463308495191969,0.0051525612792541,-0.0053924757473156,-0.0001943343650256
2.422,-0.808256171054516,0.1999936892673204,0.1381477241736464,-0.1446121780915965,-0.0044244109965244,-0.7201858904169623,0.0423860606925461,0.0046000287634597,-0.0048158629731318,-0.0001473328861842
2.455,-0.8084035039407,0.2061100989376838,0.142350738587034,-0.1490558288287571,-0.0137157215003926,0.1836759660769804,-0.2790183334494961,0.0047392122163878,-0.0049645781619989,-0.000456733525963
2.489,-0.8088602374666634,0.2123805246083513,0.1466112671449588,-0.1536574878717859,-0.0147838542742601,0.1883010711912142,-0.0320760592752985,0.0048809638398691,-0.0051179307069782,-0.0004923023473328
2.522,-0.8093525398139962,0.2177994805761131,0.1502745055079911,-0.1576521066575181,-0.0716558425114683,0.1627314104432995,-1.7078675146308755,0.0049979430779878,-0.0052557137136955,-0.0023861395556318
2.555,-0.8117386793696282,0.2179716504788529,0.1500163920160381,-0.1581351401142882,-0.0715918458927057,0.005170267349541,0.001921820383261,0.0049893345504238,-0.005271783258816,-0.0023840084682271
2.59,-0.8141226878378554,0.2247649752002892,0.1543026326180026,-0.1634319174578219,-0.0742112119919627,0.2040037453884788,-0.0786596426203308,0.0051316206255546,-0.00544855772242,-0.0024712333593323
2.622,-0.8165939211971875,0.2183439472107555,0.1495017568895321,-0.1591329757483232,-0.000857512183395,-0.1928236633493612,2.2028138080650947,0.0049784036108867,-0.0052991326894412,-2.8555155707055136e-05
2.655,-0.8166224763528946,0.2184962557616412,0.1496014964119856,-0.1592482529045489,-0.0002612255535697,0.0045738303569275,0.0179065054001602,0.0049817775822533,-0.0053029219622967,-8.698810933871481e-06
2.69,-0.8166311751638284,0.2252348510655983,0.1542138954904819,-0.1641609349759953,-1.397559392587385e-05,0.2023602193380509,0.0074249237130282,0.0051353944484161,-0.00546649174964,-4.653872777315993e-07
2.722,-0.8166316405511065,0.1879546999221744,0.1286888416875496,-0.1369896027001737,-0.0051115974034796,-1.1195240583610753,-0.1530817360226351,0.0042850110881607,-0.0045620612426017,-0.0001702161935358
2.755,-0.8168018567446422,0.2066821980364601,0.1414855436136492,-0.1506631074069983,-0.0001891968411427,0.5623873307593303,0.1478198367068123,0.0047115197964926,-0.0050170334004586,-6.3002548100543615e-06
2.79,-0.8168081569994521,0.2129964828799741,0.1458070471192286,-0.1552668887097637,0.0010276270973888,0.1896181634688867,0.0365412594153632,0.0048555321780155,-0.0051702394765549,3.42199823430478e-05
2.822,-0.8167739370171092,0.2179620061222471,0.1492116401681655,-0.158881473278543,-0.0415889150887618,0.1491148120802704,-1.2797760416261457,0.004965153118142,-0.0052941256997309,-0.0013849108724557
2.855,-0.8181588478895652,0.2179847674274899,0.1490070193253723,-0.1591045788850371,-0.0423743208542717,0.0006835226799651,-0.0235857587240216,0.0049582648569285,-0.0053016153103698,-0.0014110648844472
2.889,-0.8195699127740124,0.224272923358604,0.1530742544569396,-0.1639103925145272,-0.0400749564186825,0.1888335114448668,0.0690499830507272,0.0050938021118887,-0.0054615476390854,-0.0013344960487421
2.922,-0.8209044088227544,0.2062648487327063,0.1405818029826601,-0.1509368891055819,-0.0067543433492331,-0.54078302179873,1.0006190110945763,0.0046808758817292,-0.0050266623226244,-0.0002249196335294
2.955,-0.8211293284562835,0.2060628232022266,0.1404101915570222,-0.1508206392142417,-0.0062485352436731,-0.0060668327471359,0.0151894325993975,0.0046752039066621,-0.0050227512634322,-0.0002080762236143
2.99,-0.8213374046798982,0.2124695531622842,0.1447433447265999,-0.1555399472107965,-0.0068447368317941,0.1923942930948199,-0.0179039515952229,0.0048194322333514,-0.0051799651436559,-0.0002279297364987
3.022,-0.8215653344163969,0.2181023127663137,0.1485442255157348,-0.1596973133773561,0.0071557087918444,0.1691519400609478,0.4204338025116692,0.0049472272614883,-0.0053172650782598,0.0002382851027684
3.056,-0.8213270493136284,0.2180631598200549,0.1485556018309877,-0.1596332510329219,-0.000738541385113,-0.0011757641519153,-0.2370645698786038,0.0049469071619455,-0.0053157820281944,-2.4593428124264352e-05
3.09,-0.8213516427417527,0.2248527982899292,0.1531769971356378,-0.164607376649166,-0.0012316540283729,0.2038930471433721,-0.014808187485282,0.0051007547961001,-0.005481462127294,-4.101407914481881e-05
