Time,header.seq,header.stamp.secs,header.stamp.nsecs,header.frame_id,orientation.x,orientation.y,orientation.z,orientation.w,orientation_covariance_0,orientation_covariance_1,orientation_covariance_2,orientation_covariance_3,orientation_covariance_4,orientation_covariance_5,orientation_covariance_6,orientation_covariance_7,orientation_covariance_8,angular_velocity.x,angular_velocity.y,angular_velocity.z,angular_velocity_covariance_0,angular_velocity_covariance_1,angular_velocity_covariance_2,angular_velocity_covariance_3,angular_velocity_covariance_4,angular_velocity_covariance_5,angular_velocity_covariance_6,angular_velocity_covariance_7,angular_velocity_covariance_8,linear_acceleration.x,linear_acceleration.y,linear_acceleration.z,linear_acceleration_covariance_0,linear_acceleration_covariance_1,linear_acceleration_covariance_2,linear_acceleration_covariance_3,linear_acceleration_covariance_4,linear_acceleration_covariance_5,linear_acceleration_covariance_6,linear_acceleration_covariance_7,linear_acceleration_covariance_8
0.193,0,0,192000000,base_footprint,0.0013205940360748812,-7.256191778875424e-06,0.9999991268564093,4.75936808666315e-05,0.0,0.0,0.0,0.0,0.0,0.0,0.0,0.0,0.0,-0.00012428703328495847,-0.1572551302076467,-8.054278142283363e-05,0.0,0.0,0.0,0.0,0.0,0.0,0.0,0.0,0.0,0.002831294107833863,6.486343557386008e-06,-0.1395235991690438,0.0,0.0,0.0,0.0,0.0,0.0,0.0,0.0,0.0
0.226,1,0,226000000,base_footprint,0.0009557432595815572,-2.0964849217335878e-05,0.9999995418823249,4.848130931951631e-05,0.0,0.0,0.0,0.0,0.0,0.0,0.0,0.0,0.0,-0.0004392496410758666,0.047663733550554026,-4.7599601326424055e-05,0.0,0.0,0.0,0.0,0.0,0.0,0.0,0.0,0.0,-0.002015688821018871,-0.0001514129730571203,0.005218535399199832,0.0,0.0,0.0,0.0,0.0,0.0,0.0,0.0,0.0
0.26,2,0,260000000,base_footprint,0.00014287371684753526,-2.8658363846402266e-05,0.9999999881934024,4.877493663597253e-05,0.0,0.0,0.0,0.0,0.0,0.0,0.0,0.0,0.0,-0.00043377820032131884,0.04764127387554926,-3.4416309468598693e-06,0.0,0.0,0.0,0.0,0.0,0.0,0.0,0.0,0.0,-0.0002106230586642787,0.00012309013461830667,6.612959336470765e-05,0.0,0.0,0.0,0.0,0.0,0.0,0.0,0.0,0.0
0.29400000000000004,3,0,294000000,base_footprint,-0.0009421288265815737,-3.94437078220915e-05,0.999999554207424,4.921809902400112e-05,0.0,0.0,0.0,0.0,0.0,0.0,0.0,0.0,0.0,-0.0005933074629322067,0.06780462438551443,-1.775242130828719e-05,0.0,0.0,0.0,0.0,0.0,0.0,0.0,0.0,0.0,-0.0011949275472465147,-2.9948052144669857e-05,0.0029781533222246453,0.0,0.0,0.0,0.0,0.0,0.0,0.0,0.0,0.0
0.328,4,0,328000000,base_footprint,-0.0020966046422028336,-4.987334298301003e-05,0.9999977996618958,4.932535821655912e-05,0.0,0.0,0.0,0.0,0.0,0.0,0.0,0.0,0.0,-0.000590401382432644,0.06772911658480256,3.7822265026876812e-06,0.0,0.0,0.0,0.0,0.0,0.0,0.0,0.0,0.0,-0.00023133484135432682,3.925678969031401e-05,0.00014862793611760785,0.0,0.0,0.0,0.0,0.0,0.0,0.0,0.0,0.0
0.36200000000000004,5,0,362000000,base_footprint,-0.003249785702165595,-6.027658484825478e-05,0.999994716404326,4.9224536768931645e-05,0.0,0.0,0.0,0.0,0.0,0.0,0.0,0.0,0.0,-0.0005899187708164076,0.06765304918860937,1.0545325041210552e-05,0.0,0.0,0.0,0.0,0.0,0.0,0.0,0.0,0.0,-0.00023411215727914565,1.0449822159241511e-05,0.0001498932042735426,0.0,0.0,0.0,0.0,0.0,0.0,0.0,0.0,0.0
0.396,6,0,396000000,base_footprint,-0.0038897213989435345,-7.752379136056978e-06,0.9999924334612155,5.502413724586813e-05,0.0,0.0,0.0,0.0,0.0,0.0,0.0,0.0,0.0,-2.3584950007241442e-05,-0.029943182115939302,-0.000601063639152748,0.0,0.0,0.0,0.0,0.0,0.0,0.0,0.0,0.0,0.00586784006992948,0.005448218669830948,0.13103882675727746,0.0,0.0,0.0,0.0,0.0,0.0,0.0,0.0,0.0
0.43000000000000005,7,0,430000000,base_footprint,-0.0038605055379087112,-7.002915931139557e-06,0.9999925463740662,6.036772265825835e-05,0.0,0.0,0.0,0.0,0.0,0.0,0.0,0.0,0.0,4.423575720532158e-05,0.00010366005459184962,7.20538920527011e-05,0.0,0.0,0.0,0.0,0.0,0.0,0.0,0.0,0.0,-0.0062301140394070646,-0.005317540861700759,0.0006936701347581096,0.0,0.0,0.0,0.0,0.0,0.0,0.0,0.0,0.0
0.464,8,0,464000000,base_footprint,-0.0038607289116306055,-7.134760105679486e-06,0.9999925457067256,5.702936634052262e-05,0.0,0.0,0.0,0.0,0.0,0.0,0.0,0.0,0.0,2.7123447024911222e-05,-0.00019275659659516125,0.0002846133550302566,0.0,0.0,0.0,0.0,0.0,0.0,0.0,0.0,0.0,-5.5093198517648455e-05,0.0004150956208291831,0.00029653877546792593,0.0,0.0,0.0,0.0,0.0,0.0,0.0,0.0,0.0
0.49800000000000005,9,0,498000000,base_footprint,-0.003860623466427283,-7.192654952459012e-06,0.9999925463847138,5.2055091057722074e-05,0.0,0.0,0.0,0.0,0.0,0.0,0.0,0.0,0.0,2.929566147629025e-05,-0.000180980386020284,0.00032872431181876094,0.0,0.0,0.0,0.0,0.0,0.0,0.0,0.0,0.0,-1.2900253408849179e-05,8.655654385678311e-05,-1.8464198146754838e-05,0.0,0.0,0.0,0.0,0.0,0.0,0.0,0.0,0.0
0.532,10,0,532000000,base_footprint,-0.0038605999505097713,-7.228729876142064e-06,0.9999925467407712,4.6676269365270206e-05,0.0,0.0,0.0,0.0,0.0,0.0,0.0,0.0,0.0,2.9839425175044277e-05,-0.00017908095763266457,0.00034018560433134604,0.0,0.0,0.0,0.0,0.0,0.0,0.0,0.0,0.0,-3.3221285503947275e-06,2.2535823530603164e-05,-3.4515112525227918e-06,0.0,0.0,0.0,0.0,0.0,0.0,0.0,0.0,0.0
0.5660000000000001,11,0,566000000,base_footprint,-0.003860593844164806,-7.2577814689076605e-06,0.999992547005094,4.119174788136298e-05,0.0,0.0,0.0,0.0,0.0,0.0,0.0,0.0,0.0,3.0016136599962704e-05,-0.00017857113817332603,0.0003432305370827499,0.0,0.0,0.0,0.0,0.0,0.0,0.0,0.0,0.0,-8.894893089492206e-07,5.98251871320641e-06,-9.151400702392936e-07,0.0,0.0,0.0,0.0,0.0,0.0,0.0,0.0,0.0
0.6000000000000001,12,0,600000000,base_footprint,-0.0038605924282036222,-7.284609155965973e-06,0.999992547222249,3.567906821423605e-05,0.0,0.0,0.0,0.0,0.0,0.0,0.0,0.0,0.0,3.0088459839753136e-05,-0.00017843529665479473,0.0003440495351339729,0.0,0.0,0.0,0.0,0.0,0.0,0.0,0.0,0.0,-2.458382570135474e-07,1.6046141463795634e-06,-2.3823402292454545e-07,0.0,0.0,0.0,0.0,0.0,0.0,0.0,0.0,0.0
0.634,13,0,634000000,base_footprint,-0.0038605922549673584,-7.310516462811174e-06,0.9999925474044528,3.0158757386022386e-05,0.0,0.0,0.0,0.0,0.0,0.0,0.0,0.0,0.0,3.0131330111748192e-05,-0.00017839865916427592,0.0003442792036824606,0.0,0.0,0.0,0.0,0.0,0.0,0.0,0.0,0.0,-7.53954651246879e-08,4.45529562546387e-07,-5.9359091938736025e-08,0.0,0.0,0.0,0.0,0.0,0.0,0.0,0.0,0.0
0.668,14,0,668000000,base_footprint,-0.00386059241312511,-7.335879361385211e-06,0.9999925475549606,2.463624958958558e-05,0.0,0.0,0.0,0.0,0.0,0.0,0.0,0.0,0.0,3.0164663388553232e-05,-0.00017838828597289323,0.00034435285186644205,0.0,0.0,0.0,0.0,0.0,0.0,0.0,0.0,0.0,-3.026226490901941e-08,1.386619111026049e-07,-1.2494873034377561e-08,0.0,0.0,0.0,0.0,0.0,0.0,0.0,0.0,0.0
0.7020000000000001,15,0,702000000,base_footprint,-0.0038605926611733382,-7.360825381288659e-06,0.9999925476746397,1.911298345366538e-05,0.0,0.0,0.0,0.0,0.0,0.0,0.0,0.0,0.0,3.019389512062218e-05,-0.00017838487717468612,0.000344385188415955,0.0,0.0,0.0,0.0,0.0,0.0,0.0,0.0,0.0,-1.830704486137786e-08,5.739942945961423e-08,-5.210226698251392e-10,0.0,0.0,0.0,0.0,0.0,0.0,0.0,0.0,0.0
0.7360000000000001,16,0,736000000,base_footprint,-0.003860592934976341,-7.385413682926679e-06,0.99999254776372,1.3589339873629945e-05,0.0,0.0,0.0,0.0,0.0,0.0,0.0,0.0,0.0,3.02206105220855e-05,-0.00017838332247101265,0.0003444065804069544,0.0,0.0,0.0,0.0,0.0,0.0,0.0,0.0,0.0,-1.5136780677653438e-08,3.5862471782092435e-08,2.256235152302492e-09,0.0,0.0,0.0,0.0,0.0,0.0,0.0,0.0,0.0
0.77,17,0,770000000,base_footprint,-0.0038605932173685856,-7.409682968654089e-06,0.9999925478222603,8.065419731976441e-06,0.0,0.0,0.0,0.0,0.0,0.0,0.0,0.0,0.0,3.0245362104522856e-05,-0.00017838226800505732,0.0003444250675081242,0.0,0.0,0.0,0.0,0.0,0.0,0.0,0.0,0.0,-1.4293027301623201e-08,3.01384912162713e-08,2.635653076044815e-09,0.0,0.0,0.0,0.0,0.0,0.0,0.0,0.0,0.0
0.804,18,0,804000000,base_footprint,-0.003860593503636169,-7.433664384821294e-06,0.999992547850274,2.541249780560968e-06,0.0,0.0,0.0,0.0,0.0,0.0,0.0,0.0,0.0,3.0268416748286775e-05,-0.00017838135469765932,0.0003444427787953042,0.0,0.0,0.0,0.0,0.0,0.0,0.0,0.0,0.0,-1.4065786247881244e-08,2.860277013471894e-08,2.4134448413266037e-09,0.0,0.0,0.0,0.0,0.0,0.0,0.0,0.0,0.0
0.8380000000000001,19,0,838000000,base_footprint,-0.003860593792376644,-7.457385135928205e-06,0.9999925478477619,-2.9831628578440915e-06,0.0,0.0,0.0,0.0,0.0,0.0,0.0,0.0,0.0,3.028995444798825e-05,-0.00017838048649368836,0.0003444602785444879,0.0,0.0,0.0,0.0,0.0,0.0,0.0,0.0,0.0,-1.40022569090906e-08,2.8177669702150784e-08,2.0616719610235823e-09,0.0,0.0,0.0,0.0,0.0,0.0,0.0,0.0,0.0
0.8720000000000001,20,0,872000000,base_footprint,-0.0038605940830782897,-7.480869621686477e-06,0.9999925478147222,-8.507816261182606e-06,0.0,0.0,0.0,0.0,0.0,0.0,0.0,0.0,0.0,3.0310122053192287e-05,-0.00017837963737986644,0.00034447771675036684,0.0,0.0,0.0,0.0,0.0,0.0,0.0,0.0,0.0,-1.3982509234334144e-08,2.8048331644056778e-08,1.7030116625360142e-09,0.0,0.0,0.0,0.0,0.0,0.0,0.0,0.0,0.0
0.906,21,0,906000000,base_footprint,-0.0038605943754785378,-7.504139901977429e-06,0.9999925477511515,-1.4032709888827606e-05,0.0,0.0,0.0,0.0,0.0,0.0,0.0,0.0,0.0,3.0329048400549953e-05,-0.0001783787997496807,0.00034449513376458887,0.0,0.0,0.0,0.0,0.0,0.0,0.0,0.0,0.0,-1.3974776108862617e-08,2.7999048053078714e-08,1.3670202748119682e-09,0.0,0.0,0.0,0.0,0.0,0.0,0.0,0.0,0.0
0.9400000000000001,22,0,940000000,base_footprint,-0.0038605946693921326,-7.527215967945148e-06,0.9999925476570466,-1.9557843569267563e-05,0.0,0.0,0.0,0.0,0.0,0.0,0.0,0.0,0.0,3.0346849248660795e-05,-0.00017837797105760332,0.000344512540716529,0.0,0.0,0.0,0.0,0.0,0.0,0.0,0.0,0.0,-1.3970567351899624e-08,2.79722823318973e-08,1.0596101813266947e-09,0.0,0.0,0.0,0.0,0.0,0.0,0.0,0.0,0.0
0.9740000000000001,23,0,974000000,base_footprint,-0.003860594964665122,-7.55011594831777e-06,0.9999925475324039,-2.5083217232525097e-05,0.0,0.0,0.0,0.0,0.0,0.0,0.0,0.0,0.0,3.036362930919214e-05,-0.00017837715003847832,0.0003445299411009198,0.0,0.0,0.0,0.0,0.0,0.0,0.0,0.0,0.0,-1.3967643854063456e-08,2.7952961111784026e-08,7.798195036009068e-10,0.0,0.0,0.0,0.0,0.0,0.0,0.0,0.0,0.0
1.008,24,1,8000000,base_footprint,-0.0038605952611615903,-7.5728562867189615e-06,0.9999925473772198,-3.060883083854445e-05,0.0,0.0,0.0,0.0,0.0,0.0,0.0,0.0,0.0,3.037948340275239e-05,-0.0001783763358367417,0.00034454733622323486,0.0,0.0,0.0,0.0,0.0,0.0,0.0,0.0,0.0,-1.3965347820763973e-08,2.7936725300649453e-08,5.257946498446166e-10,0.0,0.0,0.0,0.0,0.0,0.0,0.0,0.0,0.0
1.042,25,1,42000000,base_footprint,-0.003860595558759022,-7.595451898816782e-06,0.9999925471914906,-3.613468435793673e-05,0.0,0.0,0.0,0.0,0.0,0.0,0.0,0.0,0.0,3.0394497660435116e-05,-0.00017837552781188668,0.0003445647268545815,0.0,0.0,0.0,0.0,0.0,0.0,0.0,0.0,0.0,-1.3963500204793377e-08,2.792247750728627e-08,2.9542258747232083e-10,0.0,0.0,0.0,0.0,0.0,0.0,0.0,0.0,0.0
1.076,26,1,76000000,base_footprint,-0.0038605958573464548,-7.6179163145247835e-06,0.9999925469752129,-4.1660777767404853e-05,0.0,0.0,0.0,0.0,0.0,0.0,0.0,0.0,0.0,3.0408750104552352e-05,-0.00017837472544706822,0.0003445821135653136,0.0,0.0,0.0,0.0,0.0,0.0,0.0,0.0,0.0,-1.3962018105195426e-08,2.790977852844699e-08,8.622812770074004e-11,0.0,0.0,0.0,0.0,0.0,0.0,0.0,0.0,0.0
1.11,27,1,110000000,base_footprint,-0.0038605961568233425,-7.640261806907174e-06,0.9999925467283829,-4.718711104716178e-05,0.0,0.0,0.0,0.0,0.0,0.0,0.0,0.0,0.0,3.0422311463853143e-05,-0.00017837392812549322,0.00034459949678553964,0.0,0.0,0.0,0.0,0.0,0.0,0.0,0.0,0.0,-1.3960850074357514e-08,2.7898311207058113e-08,-1.0337601134197238e-10,0.0,0.0,0.0,0.0,0.0,0.0,0.0,0.0,0.0
1.1440000000000001,28,1,144000000,base_footprint,-0.0038605964570984715,-7.662499508991472e-06,0.999992546450997,-5.271368418047999e-05,0.0,0.0,0.0,0.0,0.0,0.0,0.0,0.0,0.0,3.0435246029977318e-05,-0.00017837313537217382,0.00034461687697784566,0.0,0.0,0.0,0.0,0.0,0.0,0.0,0.0,0.0,-1.3959982323144995e-08,2.7888106318513487e-08,-2.755031032472017e-10,0.0,0.0,0.0,0.0,0.0,0.0,0.0,0.0,0.0
1.178,29,1,178000000,base_footprint,-0.0038605967580889146,-7.684639519615557e-06,0.9999925461430511,-5.824049715382551e-05,0.0,0.0,0.0,0.0,0.0,0.0,0.0,0.0,0.0,3.0447612039969038e-05,-0.00017837234680997,0.0003446342544777532,0.0,0.0,0.0,0.0,0.0,0.0,0.0,0.0,0.0,-1.3959362038048585e-08,2.7878880674345792e-08,-4.316608523927531e-10,0.0,0.0,0.0,0.0,0.0,0.0,0.0,0.0,0.0
1.212,30,1,212000000,base_footprint,-0.0038605970597194437,-7.706690999429156e-06,0.999992545804542,-6.376754995597086e-05,0.0,0.0,0.0,0.0,0.0,0.0,0.0,0.0,0.0,3.0459462323428246e-05,-0.0001783715619876625,0.00034465162965957206,0.0,0.0,0.0,0.0,0.0,0.0,0.0,0.0,0.0,-1.3958990316971966e-08,2.7870679688709164e-08,-5.732630282131535e-10,0.0,0.0,0.0,0.0,0.0,0.0,0.0,0.0,0.0
1.246,31,1,246000000,base_footprint,-0.0038605973619217186,-7.728662258213322e-06,0.9999925454354657,-6.92948425779489e-05,0.0,0.0,0.0,0.0,0.0,0.0,0.0,0.0,0.0,3.0470844811814422e-05,-0.00017837078055919694,0.00034466900284202726,0.0,0.0,0.0,0.0,0.0,0.0,0.0,0.0,0.0,-1.3958834129899022e-08,2.7863368139396514e-08,-7.018942496917437e-10,0.0,0.0,0.0,0.0,0.0,0.0,0.0,0.0,0.0
1.28,32,1,280000000,base_footprint,-0.0038605976646337936,-7.750560833760943e-06,0.9999925450358181,-7.482237501300596e-05,0.0,0.0,0.0,0.0,0.0,0.0,0.0,0.0,0.0,3.048180302480509e-05,-0.00017837000220771238,0.0003446863742559163,0.0,0.0,0.0,0.0,0.0,0.0,0.0,0.0,0.0,-1.3958858826501485e-08,2.7856749865910504e-08,-8.184523124456233e-10,0.0,0.0,0.0,0.0,0.0,0.0,0.0,0.0,0.0
1.314,33,1,314000000,base_footprint,-0.003855652639847892,-7.566448010900767e-06,0.9999925635356554,-8.221227487801296e-05,0.0,0.0,0.0,0.0,0.0,0.0,0.0,0.0,0.0,3.132007748740834e-05,0.00015808730963464196,0.00046538308914285053,0.0,0.0,0.0,0.0,0.0,0.0,0.0,0.0,0.0,0.5055697372952453,0.00031422464239007635,0.0035012805725261166,0.0,0.0,0.0,0.0,0.0,0.0,0.0,0.0,0.0
1.348,34,1,348000000,base_footprint,-0.003855985982624863,-7.63069927867551e-06,0.9999925616920711,-8.873783721318185e-05,0.0,0.0,0.0,0.0,0.0,0.0,0.0,0.0,0.0,3.237461771086769e-05,-0.00023913157139989621,0.000537432437614494,0.0,0.0,0.0,0.0,0.0,0.0,0.0,0.0,0.0,0.7864580169783342,0.0002794497369945304,0.006496463336270623,0.0,0.0,0.0,0.0,0.0,0.0,0.0,0.0,0.0
1.3820000000000001,35,1,382000000,base_footprint,-0.0038565976268597245,-7.727233433802498e-06,0.9999925586249705,-9.638319135661935e-05,0.0,0.0,0.0,0.0,0.0,0.0,0.0,0.0,0.0,3.178326105316838e-05,-0.00028797858362347375,0.0005732228771767155,0.0,0.0,0.0,0.0,0.0,0.0,0.0,0.0,0.0,0.7861781219909149,0.00022097491013084496,0.006110475403365892,0.0,0.0,0.0,0.0,0.0,0.0,0.0,0.0,0.0
1.416,36,1,416000000,base_footprint,-0.003857641222739446,-7.853909335447333e-06,0.9999925537544431,-0.00010477681129928226,0.0,0.0,0.0,0.0,0.0,0.0,0.0,0.0,0.0,3.0020164069008014e-05,-0.00026861116845776345,0.0006158447288906931,0.0,0.0,0.0,0.0,0.0,0.0,0.0,0.0,0.0,0.7777782829663654,0.0002456400920688996,0.005972200811007852,0.0,0.0,0.0,0.0,0.0,0.0,0.0,0.0,0.0
1.45,37,1,450000000,base_footprint,-0.003859035351377796,-8.005921047391246e-06,0.9999925474152712,-0.00011356046238947129,0.0,0.0,0.0,0.0,0.0,0.0,0.0,0.0,0.0,2.96058163701572e-05,-0.00026938451959600425,0.0006199700129202281,0.0,0.0,0.0,0.0,0.0,0.0,0.0,0.0,0.0,0.7509915782233538,0.00017848119040907103,0.005792455597651552,0.0,0.0,0.0,0.0,0.0,0.0,0.0,0.0,0.0
1.484,38,1,484000000,base_footprint,-0.003860942225561898,-8.173585675967132e-06,0.9999925390849406,-0.00012178988922672464,0.0,0.0,0.0,0.0,0.0,0.0,0.0,0.0,0.0,2.9921363796402996e-05,-0.00023524173567184,0.000549218583433537,0.0,0.0,0.0,0.0,0.0,0.0,0.0,0.0,0.0,0.691885594636391,3.106300015302531e-05,0.0053044546550865,0.0,0.0,0.0,0.0,0.0,0.0,0.0,0.0,0.0
1.518,39,1,518000000,base_footprint,-0.003863305500263118,-8.335669756672515e-06,0.9999925290409843,-0.00012908657680812792,0.0,0.0,0.0,0.0,0.0,0.0,0.0,0.0,0.0,3.0141068535338627e-05,-0.00015154484161275,0.0004613764696691213,0.0,0.0,0.0,0.0,0.0,0.0,0.0,0.0,0.0,0.5891823088976665,-1.857089770431981e-05,0.004469467042743695,0.0,0.0,0.0,0.0,0.0,0.0,0.0,0.0,0.0
1.552,40,1,552000000,base_footprint,-0.003865746824567226,-8.473430711858376e-06,0.9999925186279405,-0.00013644719719328057,0.0,0.0,0.0,0.0,0.0,0.0,0.0,0.0,0.0,3.054128943920916e-05,-6.065586707036153e-05,0.00045172663910713457,0.0,0.0,0.0,0.0,0.0,0.0,0.0,0.0,0.0,0.4409932213100328,0.00010140615368491076,0.0033240173524731946,0.0,0.0,0.0,0.0,0.0,0.0,0.0,0.0,0.0
1.586,41,1,586000000,base_footprint,-0.003866696113296771,-8.476476904401608e-06,0.999992515731599,-0.00013065261050487832,0.0,0.0,0.0,0.0,0.0,0.0,0.0,0.0,0.0,5.740840775208161e-05,-0.0003172341233613655,-0.0017209723111459604,0.0,0.0,0.0,0.0,0.0,0.0,0.0,0.0,0.0,0.25699651732380174,-0.004147661908567558,0.00249426939510625,0.0,0.0,0.0,0.0,0.0,0.0,0.0,0.0,0.0
1.62,42,1,620000000,base_footprint,-0.00386123898778745,-8.228466913963906e-06,0.9999925436605471,-5.8215809042768995e-05,0.0,0.0,0.0,0.0,0.0,0.0,0.0,0.0,0.0,0.0003737450400443027,-0.0013329877336261142,-0.0077683829881959494,0.0,0.0,0.0,0.0,0.0,0.0,0.0,0.0,0.0,0.049085049040297916,-0.011719492439105646,0.001905117815647672,0.0,0.0,0.0,0.0,0.0,0.0,0.0,0.0,0.0
1.654,43,1,654000000,base_footprint,-0.0038476147097983616,-6.8924753677902205e-06,0.9999925972485193,-3.552040905703722e-05,0.0,0.0,0.0,0.0,0.0,0.0,0.0,0.0,0.0,-6.116652003795217e-05,0.0007438987182999333,0.007284414992728181,0.0,0.0,0.0,0.0,0.0,0.0,0.0,0.0,0.0,0.029030866279389795,0.029208096340971875,-0.0035538698201993874,0.0,0.0,0.0,0.0,0.0,0.0,0.0,0.0,0.0
1.6880000000000002,44,1,688000000,base_footprint,-0.003852886656084752,-7.432053083844808e-06,0.9999925731814528,-9.376095514180977e-05,0.0,0.0,0.0,0.0,0.0,0.0,0.0,0.0,0.0,1.71120265276061e-05,-0.00016576889140507926,0.001630538013677551,0.0,0.0,0.0,0.0,0.0,0.0,0.0,0.0,0.0,0.21152427397216392,-0.010938309466478158,0.003407471523051984,0.0,0.0,0.0,0.0,0.0,0.0,0.0,0.0,0.0
1.722,45,1,722000000,base_footprint,-0.003856897648762447,-1.0962874249183512e-05,0.9999925556381707,-0.00011352789247898876,0.0,0.0,0.0,0.0,0.0,0.0,0.0,0.0,0.0,-0.0019197998064554257,0.0025790616589323996,0.001068127206859184,0.0,0.0,0.0,0.0,0.0,0.0,0.0,0.0,0.0,0.36191452059580387,-0.001024507919191964,-0.0029431834600069707,0.0,0.0,0.0,0.0,0.0,0.0,0.0,0.0,0.0
1.756,46,1,756000000,base_footprint,-0.0038710346398696505,-1.3480051233876709e-05,0.999992078780096,-0.0009258974929425278,0.0,0.0,0.0,0.0,0.0,0.0,0.0,0.0,0.0,-0.0005936386278163808,-0.00042678173357547314,0.08194205754279664,0.0,0.0,0.0,0.0,0.0,0.0,0.0,0.0,0.0,0.20079530579514585,0.00817296419533787,0.008144359693730164,0.0,0.0,0.0,0.0,0.0,0.0,0.0,0.0,0.0
1.79,47,1,790000000,base_footprint,-0.003864415495605516,-1.7978463749860927e-05,0.9999898562442245,-0.0023137368708511684,0.0,0.0,0.0,0.0,0.0,0.0,0.0,0.0,0.0,-0.0005523439488350028,-0.0003975050067029546,0.08155112618552313,0.0,0.0,0.0,0.0,0.0,0.0,0.0,0.0,0.0,0.0017647887840093097,0.019876489539258333,-0.00033998189581947816,0.0,0.0,0.0,0.0,0.0,0.0,0.0,0.0,0.0
1.824,48,1,824000000,base_footprint,-0.003861010273684477,-1.9799196438229654e-05,0.9999882283060809,-0.0029386147967334405,0.0,0.0,0.0,0.0,0.0,0.0,0.0,0.0,0.0,-2.928044089598308e-05,-0.0002724268482306646,0.01262643592758191,0.0,0.0,0.0,0.0,0.0,0.0,0.0,0.0,0.0,-0.3089315721017959,0.0052386297587161,-0.002607877053850962,0.0,0.0,0.0,0.0,0.0,0.0,0.0,0.0,0.0
1.858,49,1,858000000,base_footprint,-0.0038616489228511124,-2.5201454120005673e-05,0.9999829144428872,-0.0043883772391017165,0.0,0.0,0.0,0.0,0.0,0.0,0.0,0.0,0.0,-0.000669410037411603,-0.0001734542460345768,0.09309812723417965,0.0,0.0,0.0,0.0,0.0,0.0,0.0,0.0,0.0,-0.02444354911771902,0.016585884341507425,-0.00037750339944148483,0.0,0.0,0.0,0.0,0.0,0.0,0.0,0.0,0.0
1.892,50,1,892000000,base_footprint,-0.003862424120992667,-3.119930726107265e-05,0.9999747337468035,-0.005967627210423367,0.0,0.0,0.0,0.0,0.0,0.0,0.0,0.0,0.0,-0.0006728657210104419,-0.00012730995067512587,0.09275903607538316,0.0,0.0,0.0,0.0,0.0,0.0,0.0,0.0,0.0,0.004889879085442409,0.01911160041373214,-6.979431232782861e-05,0.0,0.0,0.0,0.0,0.0,0.0,0.0,0.0,0.0
1.9260000000000002,51,1,926000000,base_footprint,-0.003863650134146671,-3.1019438217862993e-05,0.9999747734269196,-0.005960180803997458,0.0,0.0,0.0,0.0,0.0,0.0,0.0,0.0,0.0,0.0001229536297376411,-5.8365659602462996e-05,-0.00887078752242164,0.0,0.0,0.0,0.0,0.0,0.0,0.0,0.0,0.0,0.03202508581376945,0.0013099963891093672,0.00011123133454878313,0.0,0.0,0.0,0.0,0.0,0.0,0.0,0.0,0.0
1.96,52,1,960000000,base_footprint,-0.0038676319575142435,-3.06364834973798e-05,0.9999756613931141,-0.0058066432515993995,0.0,0.0,0.0,0.0,0.0,0.0,0.0,0.0,0.0,0.0001032761367619374,9.186249741826548e-05,-0.009214459985060203,0.0,0.0,0.0,0.0,0.0,0.0,0.0,0.0,0.0,0.005091030819704158,-0.001631670456838031,-0.00028497809532258004,0.0,0.0,0.0,0.0,0.0,0.0,0.0,0.0,0.0
1.9940000000000002,53,1,994000000,base_footprint,-0.0038709261881077436,-3.0386172414795023e-05,0.9999765506915519,-0.0056491657926814225,0.0,0.0,0.0,0.0,0.0,0.0,0.0,0.0,0.0,-0.00012704653165723217,-0.00028128748537413814,-0.008242961163394564,0.0,0.0,0.0,0.0,0.0,0.0,0.0,0.0,0.0,0.03459897582329693,-0.00425108066562837,-0.002163568149587446,0.0,0.0,0.0,0.0,0.0,0.0,0.0,0.0,0.0
2.028,54,2,28000000,base_footprint,-0.0038743892628001976,-3.2397166099454444e-05,0.9999759215096009,-0.005757122483365064,0.0,0.0,0.0,0.0,0.0,0.0,0.0,0.0,0.0,0.00021754168668854584,0.0009509880433843053,0.008768783861100238,0.0,0.0,0.0,0.0,0.0,0.0,0.0,0.0,0.0,0.3020768346474801,0.006904031046024391,0.0029814810959485744,0.0,0.0,0.0,0.0,0.0,0.0,0.0,0.0,0.0
2.062,55,2,62000000,base_footprint,-0.0038760898013951014,-2.9045182595895165e-05,0.999976060093491,-0.005731869165271815,0.0,0.0,0.0,0.0,0.0,0.0,0.0,0.0,0.0,0.00020094816993076182,-0.00025523228845906115,-0.0004898070667973046,0.0,0.0,0.0,0.0,0.0,0.0,0.0,0.0,0.0,-0.002754510586074675,-0.0002717790231348608,0.002235596546947072,0.0,0.0,0.0,0.0,0.0,0.0,0.0,0.0,0.0
2.096,56,2,96000000,base_footprint,-0.0038709772060392597,-2.7068204745814875e-05,0.9999759790744217,-0.005749441445421629,0.0,0.0,0.0,0.0,0.0,0.0,0.0,0.0,0.0,0.0003374778530531902,-0.00039344250361137773,0.003948354955640976,0.0,0.0,0.0,0.0,0.0,0.0,0.0,0.0,0.0,-0.013016310210581066,-0.0032833323186643973,0.0002750001586033458,0.0,0.0,0.0,0.0,0.0,0.0,0.0,0.0,0.0
2.13,57,2,130000000,base_footprint,-0.003867315263852161,-2.9792023975879023e-05,0.9999751169595013,-0.0058998683813502786,0.0,0.0,0.0,0.0,0.0,0.0,0.0,0.0,0.0,-0.0004800509230210243,0.0004652866475487804,0.007760185490090036,0.0,0.0,0.0,0.0,0.0,0.0,0.0,0.0,0.0,-0.0815469866007441,0.012741699261275054,-0.00288444242138913,0.0,0.0,0.0,0.0,0.0,0.0,0.0,0.0,0.0
2.164,58,2,164000000,base_footprint,-0.003873187178704511,-3.148095683554544e-05,0.9999746176210615,-0.0059800956212910554,0.0,0.0,0.0,0.0,0.0,0.0,0.0,0.0,0.0,-0.0006422206901779075,0.000828179868874135,-0.009136021278980666,0.0,0.0,0.0,0.0,0.0,0.0,0.0,0.0,0.0,0.06364696955266479,-0.0013916453159926094,0.0002650025095296034,0.0,0.0,0.0,0.0,0.0,0.0,0.0,0.0,0.0
2.198,59,2,198000000,base_footprint,-0.003871571330059307,-3.124149011949475e-05,0.9999753602146887,-0.005855674419665581,0.0,0.0,0.0,0.0,0.0,0.0,0.0,0.0,0.0,0.00024648047392406523,-0.0002449242395724253,-0.0035103746014774444,0.0,0.0,0.0,0.0,0.0,0.0,0.0,0.0,0.0,0.0002182138569889202,-0.002100630407080143,0.0022297387335584373,0.0,0.0,0.0,0.0,0.0,0.0,0.0,0.0,0.0
2.232,60,2,232000000,base_footprint,-0.003868088303180464,-3.1303284903035146e-05,0.999975721293136,-0.005796010460279411,0.0,0.0,0.0,0.0,0.0,0.0,0.0,0.0,0.0,-9.627470254099914e-05,-0.0003440941120992254,-0.00347249449603782,0.0,0.0,0.0,0.0,0.0,0.0,0.0,0.0,0.0,0.0029289465154546334,-0.0009600539285420795,0.00015890751758302986,0.0,0.0,0.0,0.0,0.0,0.0,0.0,0.0,0.0
2.266,61,2,266000000,base_footprint,-0.0038639915106455694,-3.0974166521007316e-05,0.9999760817661627,-0.005736244921499739,0.0,0.0,0.0,0.0,0.0,0.0,0.0,0.0,0.0,0.00013176338814239804,-0.00039208007807643524,-0.0037081187344380744,0.0,0.0,0.0,0.0,0.0,0.0,0.0,0.0,0.0,0.005207720526365059,-0.0007183644602009195,0.00032557059966466245,0.0,0.0,0.0,0.0,0.0,0.0,0.0,0.0,0.0
2.3,62,2,300000000,base_footprint,-0.0038617836411208675,-2.9572286751958344e-05,0.9999752021134769,-0.005889050067704507,0.0,0.0,0.0,0.0,0.0,0.0,0.0,0.0,0.0,0.0004031888404503126,-0.0008007097407390948,0.07147716530804332,0.0,0.0,0.0,0.0,0.0,0.0,0.0,0.0,0.0,-0.01497912604030028,0.004409810728921349,-7.589018677116766e-05,0.0,0.0,0.0,0.0,0.0,0.0,0.0,0.0,0.0
2.334,63,2,334000000,base_footprint,-0.00386173036116697,-3.524826276299871e-05,0.9999673839445304,-0.007093436636061094,0.0,0.0,0.0,0.0,0.0,0.0,0.0,0.0,0.0,-0.0004858897296121153,-0.0001900415577131128,0.0703261299438887,0.0,0.0,0.0,0.0,0.0,0.0,0.0,0.0,0.0,0.006748869706895357,0.012133728828758879,-0.000386018224568365,0.0,0.0,0.0,0.0,0.0,0.0,0.0,0.0,0.0
2.368,64,2,368000000,base_footprint,-0.003862428711320843,-3.97406458285318e-05,0.9999582196291052,-0.00828486942087726,0.0,0.0,0.0,0.0,0.0,0.0,0.0,0.0,0.0,-0.0004965782316247297,-0.00012495613140651603,0.06990674512122014,0.0,0.0,0.0,0.0,0.0,0.0,0.0,0.0,0.0,0.005157155004577401,0.015458485601523683,-0.0001101528769440403,0.0,0.0,0.0,0.0,0.0,0.0,0.0,0.0,0.0
2.402,65,2,402000000,base_footprint,-0.003864376298348631,-4.37807623324091e-05,0.9999480412471509,-0.009432893779529038,0.0,0.0,0.0,0.0,0.0,0.0,0.0,0.0,0.0,-0.00048446435412757773,-0.00022148213427871302,0.06167482407566096,0.0,0.0,0.0,0.0,0.0,0.0,0.0,0.0,0.0,0.007354887579794373,0.012544019041798806,0.0002037289255331806,0.0,0.0,0.0,0.0,0.0,0.0,0.0,0.0,0.0
2.436,66,2,436000000,base_footprint,-0.0038674532576763003,-4.798117206442209e-05,0.9999374825292409,-0.010491498281516779,0.0,0.0,0.0,0.0,0.0,0.0,0.0,0.0,0.0,-0.00044512028843015717,0.00011720340909185349,0.06195211091047006,0.0,0.0,0.0,0.0,0.0,0.0,0.0,0.0,0.0,0.004525112404931658,0.016302274014301826,-0.0006372932017036866,0.0,0.0,0.0,0.0,0.0,0.0,0.0,0.0,0.0
2.47,67,2,470000000,base_footprint,-0.003871891640578248,-5.2291220961313955e-05,0.9999258915212106,-0.011541974972429475,0.0,0.0,0.0,0.0,0.0,0.0,0.0,0.0,0.0,-0.0004620833472378372,8.262427987935034e-05,0.06163799310297098,0.0,0.0,0.0,0.0,0.0,0.0,0.0,0.0,0.0,0.0026607075462154123,0.012336050394491592,-0.00014847589694000606,0.0,0.0,0.0,0.0,0.0,0.0,0.0,0.0,0.0
2.504,68,2,504000000,base_footprint,-0.003867343451219947,-6.293162512659271e-05,0.9999128074006243,-0.012626056012981314,0.0,0.0,0.0,0.0,0.0,0.0,0.0,0.0,0.0,-0.002483608623527782,0.0032444605808901517,0.07015143545774362,0.0,0.0,0.0,0.0,0.0,0.0,0.0,0.0,0.0,-0.1453568652752247,0.002506876881421552,-0.0055734249131050755,0.0,0.0,0.0,0.0,0.0,0.0,0.0,0.0,0.0
2.5380000000000003,69,2,538000000,base_footprint,-0.003871644106413499,-6.427493257604915e-05,0.9999049627959146,-0.013231463137048937,0.0,0.0,0.0,0.0,0.0,0.0,0.0,0.0,0.0,0.0009921410946488623,0.0008503874271260245,0.011452884535336301,0.0,0.0,0.0,0.0,0.0,0.0,0.0,0.0,0.0,-0.13009782035059725,0.0008197398119520821,0.002288953841686245,0.0,0.0,0.0,0.0,0.0,0.0,0.0,0.0,0.0
2.572,70,2,572000000,base_footprint,-0.0038764244816501293,-5.29515499895778e-05,0.9999042476616612,-0.013284052000008512,0.0,0.0,0.0,0.0,0.0,0.0,0.0,0.0,0.0,0.0004545290088732212,-0.0003470686208606189,0.0017564189483312942,0.0,0.0,0.0,0.0,0.0,0.0,0.0,0.0,0.0,-0.043342615549691654,-0.005875591226958217,0.001956823447950989,0.0,0.0,0.0,0.0,0.0,0.0,0.0,0.0,0.0
2.606,71,2,606000000,base_footprint,-0.003865300767312518,-6.038416626028968e-05,0.9999037130750639,-0.013327429700848485,0.0,0.0,0.0,0.0,0.0,0.0,0.0,0.0,0.0,-0.0001839749983751439,0.0003754419300054987,-0.004108261977135052,0.0,0.0,0.0,0.0,0.0,0.0,0.0,0.0,0.0,-0.10127491065332211,0.013637147341456369,-0.002761777174920711,0.0,0.0,0.0,0.0,0.0,0.0,0.0,0.0,0.0
2.64,72,2,640000000,base_footprint,-0.003871831980482934,-5.941937815690693e-05,0.999903997580715,-0.013304172599525252,0.0,0.0,0.0,0.0,0.0,0.0,0.0,0.0,0.0,-0.00041581295589919904,0.0006216235986649866,-0.011272361784200876,0.0,0.0,0.0,0.0,0.0,0.0,0.0,0.0,0.0,0.0473141353591843,-0.0037126865885182114,0.0001835608885897931,0.0,0.0,0.0,0.0,0.0,0.0,0.0,0.0,0.0
2.674,73,2,674000000,base_footprint,-0.003871912797268804,-5.9643783142552745e-05,0.9999070594756854,-0.013071998492882209,0.0,0.0,0.0,0.0,0.0,0.0,0.0,0.0,0.0,0.00010165063864577319,-0.00022470728884220578,-0.012971807086789805,0.0,0.0,0.0,0.0,0.0,0.0,0.0,0.0,0.0,0.010340853961014768,-0.004488601182178801,0.0018083848376472655,0.0,0.0,0.0,0.0,0.0,0.0,0.0,0.0,0.0
2.708,74,2,708000000,base_footprint,-0.0038517491234093667,-5.707343950876449e-05,0.9999085727938247,-0.012961744663797315,0.0,0.0,0.0,0.0,0.0,0.0,0.0,0.0,0.0,2.338399839459576e-05,-0.0009798942008311573,0.0120624907481641,0.0,0.0,0.0,0.0,0.0,0.0,0.0,0.0,0.0,0.23507526123016179,0.011669356175379831,0.002930444156722477,0.0,0.0,0.0,0.0,0.0,0.0,0.0,0.0,0.0
2.742,75,2,742000000,base_footprint,-0.0038604309680970415,-5.993347742818026e-05,0.9999059182718743,-0.013162373858811065,0.0,0.0,0.0,0.0,0.0,0.0,0.0,0.0,0.0,0.0003907559692308204,0.00099851773728176,-0.019635601824314956,0.0,0.0,0.0,0.0,0.0,0.0,0.0,0.0,0.0,0.10815889782423932,0.006267649339510539,-0.001981754919516513,0.0,0.0,0.0,0.0,0.0,0.0,0.0,0.0,0.0
2.776,76,2,776000000,base_footprint,-0.003861442477138147,-5.7772990130354e-05,0.9999103575770404,-0.012820403052656162,0.0,0.0,0.0,0.0,0.0,0.0,0.0,0.0,0.0,0.0002567110299278405,-0.0002706090027199008,-0.020334883901547748,0.0,0.0,0.0,0.0,0.0,0.0,0.0,0.0,0.0,0.013539165857659956,-0.0018730710580388736,0.002156935826309805,0.0,0.0,0.0,0.0,0.0,0.0,0.0,0.0,0.0
2.81,77,2,810000000,base_footprint,-0.0038603591395465144,-5.589656642876758e-05,0.9999146293311674,-0.012483130713155178,0.0,0.0,0.0,0.0,0.0,0.0,0.0,0.0,0.0,0.00022955126477319633,-0.0002024530351844655,-0.01935320914865751,0.0,0.0,0.0,0.0,0.0,0.0,0.0,0.0,0.0,0.0057080187426718585,-0.004145502820881755,-0.00010987856151564786,0.0,0.0,0.0,0.0,0.0,0.0,0.0,0.0,0.0
2.8440000000000003,78,2,844000000,base_footprint,-0.003860911334791952,-5.434640805201865e-05,0.9999187281387926,-0.0121502068884659,0.0,0.0,0.0,0.0,0.0,0.0,0.0,0.0,0.0,0.000218075626430894,-0.00011970316607094133,-0.01981265812917282,0.0,0.0,0.0,0.0,0.0,0.0,0.0,0.0,0.0,0.00610552110251879,-0.0040775049700089985,-0.00013004970028534108,0.0,0.0,0.0,0.0,0.0,0.0,0.0,0.0,0.0
2.878,79,2,878000000,base_footprint,-0.0038630949746050166,-5.302007385637796e-05,0.9999227987253747,-0.01180975339720265,0.0,0.0,0.0,0.0,0.0,0.0,0.0,0.0,0.0,0.00020548005286470514,-2.3144220633779412e-05,-0.02024900397041514,0.0,0.0,0.0,0.0,0.0,0.0,0.0,0.0,0.0,0.0059820743700191945,-0.004266523414958489,-0.00016748542503043992,0.0,0.0,0.0,0.0,0.0,0.0,0.0,0.0,0.0
2.912,80,2,912000000,base_footprint,-0.003867298735502972,-5.1606870252676786e-05,0.9999277035375321,-0.011385474754209706,0.0,0.0,0.0,0.0,0.0,0.0,0.0,0.0,0.0,0.0002343776077011159,0.00012900271385566674,-0.028710127485666332,0.0,0.0,0.0,0.0,0.0,0.0,0.0,0.0,0.0,0.007757464674645314,-0.005110626819376178,-0.0002746069520436415,0.0,0.0,0.0,0.0,0.0,0.0,0.0,0.0,0.0
2.946,81,2,946000000,base_footprint,-0.003871791420306171,-4.994056963784623e-05,0.9999331418241508,-0.010895807396431267,0.0,0.0,0.0,0.0,0.0,0.0,0.0,0.0,0.0,0.00026837974552004084,3.849444234325155e-05,-0.028894953247536246,0.0,0.0,0.0,0.0,0.0,0.0,0.0,0.0,0.0,0.003876842351832821,-0.007323161684026868,-1.545880413888564e-05,0.0,0.0,0.0,0.0,0.0,0.0,0.0,0.0,0.0
2.98,82,2,980000000,base_footprint,-0.0038748820498735216,-4.757941785239354e-05,0.9999383720224438,-0.010403613910729099,0.0,0.0,0.0,0.0,0.0,0.0,0.0,0.0,0.0,0.0002564267929181074,6.45908453506686e-05,-0.028915243460009663,0.0,0.0,0.0,0.0,0.0,0.0,0.0,0.0,0.0,-0.0011472771754298006,-0.006594514013146083,-7.556607423507885e-05,0.0,0.0,0.0,0.0,0.0,0.0,0.0,0.0,0.0
3.014,83,3,14000000,base_footprint,-0.0038759743802793912,-4.5606612038678605e-05,0.9999424642652424,-0.010002144859739224,0.0,0.0,0.0,0.0,0.0,0.0,0.0,0.0,0.0,0.0004992507768610371,-0.00019808330743855627,-0.019514065532888005,0.0,0.0,0.0,0.0,0.0,0.0,0.0,0.0,0.0,-0.007929781191145104,-0.008868348806119686,0.0005489082431443954,0.0,0.0,0.0,0.0,0.0,0.0,0.0,0.0,0.0
3.048,84,3,48000000,base_footprint,-0.003871051989343642,-4.217261757001806e-05,0.9999457297776201,-0.009672159917469848,0.0,0.0,0.0,0.0,0.0,0.0,0.0,0.0,0.0,0.000320070344851857,-0.00045194948676290363,-0.01664112935141555,0.0,0.0,0.0,0.0,0.0,0.0,0.0,0.0,0.0,-0.015448335107572849,-0.007352915324846885,0.00035096180849525924,0.0,0.0,0.0,0.0,0.0,0.0,0.0,0.0,0.0
3.082,85,3,82000000,base_footprint,-0.0038692061599218002,-4.27140238263071e-05,0.9999473437415735,-0.009504586438969398,0.0,0.0,0.0,0.0,0.0,0.0,0.0,0.0,0.0,-0.00021071494656307773,0.000685204905289159,-0.004784176318363363,0.0,0.0,0.0,0.0,0.0,0.0,0.0,0.0,0.0,-0.07105386287151112,0.00648566270918833,-0.003163046875444098,0.0,0.0,0.0,0.0,0.0,0.0,0.0,0.0,0.0
3.116,86,3,116000000,base_footprint,-0.0038749948953480332,-4.5909754207315786e-05,0.9999482712152817,-0.009404105509031955,0.0,0.0,0.0,0.0,0.0,0.0,0.0,0.0,0.0,-0.00015148645975432176,0.0001399008890076352,-0.015213758766440752,0.0,0.0,0.0,0.0,0.0,0.0,0.0,0.0,0.0,0.05936421960517996,0.0003343530229925986,0.0019576722494300167,0.0,0.0,0.0,0.0,0.0,0.0,0.0,0.0,0.0
3.15,87,3,150000000,base_footprint,-0.0038713263672324415,-4.438040459841862e-05,0.9999501047690238,-0.009208628288550362,0.0,0.0,0.0,0.0,0.0,0.0,0.0,0.0,0.0,0.00011965301891945747,-0.0003029053593501307,-0.010967258100842335,0.0,0.0,0.0,0.0,0.0,0.0,0.0,0.0,0.0,-0.00780451702157057,-0.006184955291209079,0.0007254827648837485,0.0,0.0,0.0,0.0,0.0,0.0,0.0,0.0,0.0
3.184,88,3,184000000,base_footprint,-0.003868034499750952,-4.4150063139568487e-05,0.9999517796027069,-0.009026340856643352,0.0,0.0,0.0,0.0,0.0,0.0,0.0,0.0,0.0,-5.80617166770857e-05,-0.00032129083063325874,-0.010591944431826695,0.0,0.0,0.0,0.0,0.0,0.0,0.0,0.0,0.0,0.003831244008578622,-0.002537811502913426,0.00012894310954207947,0.0,0.0,0.0,0.0,0.0,0.0,0.0,0.0,0.0
3.218,89,3,218000000,base_footprint,-0.003863883242441177,-4.287800739384295e-05,0.999954174236496,-0.00875888090870498,0.0,0.0,0.0,0.0,0.0,0.0,0.0,0.0,0.0,0.00024208537767905436,-0.00035692029656362234,-0.017679954184741293,0.0,0.0,0.0,0.0,0.0,0.0,0.0,0.0,0.0,0.007480997587580261,-0.0030709198586968294,0.0003472865782816781,0.0,0.0,0.0,0.0,0.0,0.0,0.0,0.0,0.0
3.252,90,3,252000000,base_footprint,-0.0038612865540105746,-4.0966597918412414e-05,0.9999568006121573,-0.00845492148893928,0.0,0.0,0.0,0.0,0.0,0.0,0.0,0.0,0.0,0.00022709300024505575,-0.00027564175072042726,-0.01809776434122093,0.0,0.0,0.0,0.0,0.0,0.0,0.0,0.0,0.0,0.005967090775649169,-0.003654788891887366,-0.00012600808783937232,0.0,0.0,0.0,0.0,0.0,0.0,0.0,0.0,0.0
3.286,91,3,286000000,base_footprint,-0.0038604994332211854,-3.935897231193457e-05,0.9999593863808773,-0.008143745070725994,0.0,0.0,0.0,0.0,0.0,0.0,0.0,0.0,0.0,0.00021343771629185398,-0.00019147469349844166,-0.018527827672623624,0.0,0.0,0.0,0.0,0.0,0.0,0.0,0.0,0.0,0.006021440226799856,-0.0038737832389321076,-0.00012394123105771061,0.0,0.0,0.0,0.0,0.0,0.0,0.0,0.0,0.0
3.32,92,3,320000000,base_footprint,-0.0038609865567683036,-4.0031031001233654e-05,0.9999575868575482,-0.008361558847146894,0.0,0.0,0.0,0.0,0.0,0.0,0.0,0.0,0.0,-0.00010894511472589688,-8.75974605680585e-05,0.02079623047745448,0.0,0.0,0.0,0.0,0.0,0.0,0.0,0.0,0.0,0.0013457269038740687,0.0025701676441635814,-0.00021294498644980299,0.0,0.0,0.0,0.0,0.0,0.0,0.0,0.0,0.0
3.354,93,3,354000000,base_footprint,-0.0038632878332505536,-4.058227901379206e-05,0.9999566922484159,-0.008466816863680074,0.0,0.0,0.0,0.0,0.0,0.0,0.0,0.0,0.0,0.00012869055764379173,-5.9458463602932694e-05,-0.009609296723918753,0.0,0.0,0.0,0.0,0.0,0.0,0.0,0.0,0.0,-0.33429661142404665,-0.010375854145562026,-0.002547767104983818,0.0,0.0,0.0,0.0,0.0,0.0,0.0,0.0,0.0
3.388,94,3,388000000,base_footprint,-0.0038676462614506244,-4.0262360468418334e-05,0.9999580904236132,-0.008298017094446634,0.0,0.0,0.0,0.0,0.0,0.0,0.0,0.0,0.0,0.00010546739923641111,9.36174603515582e-05,-0.010116785225987883,0.0,0.0,0.0,0.0,0.0,0.0,0.0,0.0,0.0,0.006367873022844286,-0.0016636058255899786,-0.0003968520620746274,0.0,0.0,0.0,0.0,0.0,0.0,0.0,0.0,0.0
3.422,95,3,422000000,base_footprint,-0.00387187328823839,-3.9290462748929194e-05,0.9999604870530043,-0.008001961398168268,0.0,0.0,0.0,0.0,0.0,0.0,0.0,0.0,0.0,0.00018467848405774468,2.2328225066807378e-05,-0.01865587424156494,0.0,0.0,0.0,0.0,0.0,0.0,0.0,0.0,0.0,0.005680136300764232,-0.004316971525436821,-4.384310110958108e-05,0.0,0.0,0.0,0.0,0.0,0.0,0.0,0.0,0.0
3.456,96,3,456000000,base_footprint,-0.0038747940587806704,-3.7550711938301184e-05,0.9999629569645512,-0.007685652845218009,0.0,0.0,0.0,0.0,0.0,0.0,0.0,0.0,0.0,0.00018335722671923202,5.131354782960571e-05,-0.018481384308673403,0.0,0.0,0.0,0.0,0.0,0.0,0.0,0.0,0.0,-0.0011125675902574073,-0.004052682769647123,-6.807742997307725e-05,0.0,0.0,0.0,0.0,0.0,0.0,0.0,0.0,0.0
3.49,97,3,490000000,base_footprint,-0.0038761181747649876,-3.559924087377691e-05,0.9999652720429028,-0.007377611317544913,0.0,0.0,0.0,0.0,0.0,0.0,0.0,0.0,0.0,0.00023820683255786616,-0.00017958865625668932,-0.017664396611697504,0.0,0.0,0.0,0.0,0.0,0.0,0.0,0.0,0.0,-0.005923025860995996,-0.00652036269554916,0.00040757770161057525,0.0,0.0,0.0,0.0,0.0,0.0,0.0,0.0,0.0
3.524,98,3,524000000,base_footprint,-0.003862048789747698,-3.535709385049098e-05,0.9999669158751053,-0.007158944353159403,0.0,0.0,0.0,0.0,0.0,0.0,0.0,0.0,0.0,-9.232229098706347e-05,-0.0011189374605059458,-0.009119822134070433,0.0,0.0,0.0,0.0,0.0,0.0,0.0,0.0,0.0,0.08782893915495259,-0.010709670870485449,0.0027231653378561875,0.0,0.0,0.0,0.0,0.0,0.0,0.0,0.0,0.0
3.558,99,3,558000000,base_footprint,-0.003859385815993596,-3.380826849442193e-05,0.9999665512357717,-0.0072111308240107525,0.0,0.0,0.0,0.0,0.0,0.0,0.0,0.0,0.0,-0.0006965657308836566,-0.00168631255617291,0.021282019825421376,0.0,0.0,0.0,0.0,0.0,0.0,0.0,0.0,0.0,-0.014377748666691073,0.010162358022341958,-0.00036969795431650906,0.0,0.0,0.0,0.0,0.0,0.0,0.0,0.0,0.0
3.592,100,3,592000000,base_footprint,-0.003862167868553625,-2.7243156188009042e-05,0.9999620225397383,-0.007812579305281323,0.0,0.0,0.0,0.0,0.0,0.0,0.0,0.0,0.0,-0.001028315611020378,0.0009823718908709101,0.033687222544459654,0.0,0.0,0.0,0.0,0.0,0.0,0.0,0.0,0.0,0.12661941421870426,0.016258359278227632,-0.0016107162832627677,0.0,0.0,0.0,0.0,0.0,0.0,0.0,0.0,0.0
3.626,101,3,626000000,base_footprint,-0.003872128053840935,-3.826773899273618e-05,0.9999620019615886,-0.007810236416837265,0.0,0.0,0.0,0.0,0.0,0.0,0.0,0.0,0.0,0.00022935076236516342,-0.00029700453370269723,-0.01675337903604634,0.0,0.0,0.0,0.0,0.0,0.0,0.0,0.0,0.0,0.11066826257944559,0.006706336956859586,0.001913048625172569,0.0,0.0,0.0,0.0,0.0,0.0,0.0,0.0,0.0
3.66,102,3,660000000,base_footprint,-0.0038681778770402217,-3.7535976499504737e-05,0.9999640168257183,-0.007549890379123154,0.0,0.0,0.0,0.0,0.0,0.0,0.0,0.0,0.0,-3.255339344616153e-05,-0.00031348502112105674,-0.015281534702119634,0.0,0.0,0.0,0.0,0.0,0.0,0.0,0.0,0.0,-0.0007568320303827232,-0.006952793067945071,0.00010722442737628348,0.0,0.0,0.0,0.0,0.0,0.0,0.0,0.0,0.0
3.694,103,3,694000000,base_footprint,-0.00386411861522216,-3.6196095755597486e-05,0.9999660172621067,-0.007282279734425374,0.0,0.0,0.0,0.0,0.0,0.0,0.0,0.0,0.0,0.0005090236982688825,-0.0004222315539439362,-0.019915877521129742,0.0,0.0,0.0,0.0,0.0,0.0,0.0,0.0,0.0,0.006095756340688337,-0.003331773261707855,0.0005414316564324131,0.0,0.0,0.0,0.0,0.0,0.0,0.0,0.0,0.0
3.728,104,3,728000000,base_footprint,-0.003861453259808334,-3.445142520776809e-05,0.9999687535790478,-0.00689781540687159,0.0,0.0,0.0,0.0,0.0,0.0,0.0,0.0,0.0,0.00025850513207802,-0.00028094634960416524,-0.02282316023522531,0.0,0.0,0.0,0.0,0.0,0.0,0.0,0.0,0.0,0.007398063141976297,-0.004498870395968957,-0.00029972106825690525,0.0,0.0,0.0,0.0,0.0,0.0,0.0,0.0,0.0
3.762,105,3,762000000,base_footprint,-0.0038605796373357673,-3.261257431914799e-05,0.9999713830141149,-0.006505998318631784,0.0,0.0,0.0,0.0,0.0,0.0,0.0,0.0,0.0,0.000244142191458417,-0.0001964691154010399,-0.023291758402236663,0.0,0.0,0.0,0.0,0.0,0.0,0.0,0.0,0.0,0.006039292181434019,-0.004949978908470579,-0.0001245550967377285,0.0,0.0,0.0,0.0,0.0,0.0,0.0,0.0,0.0
3.7960000000000003,106,3,796000000,base_footprint,-0.00386140390079436,-3.1285051004165616e-05,0.9999738207421219,-0.006119347315132548,0.0,0.0,0.0,0.0,0.0,0.0,0.0,0.0,0.0,-4.8320143166634104e-05,-4.2978188856945505e-05,-0.0151345009638687,0.0,0.0,0.0,0.0,0.0,0.0,0.0,0.0,0.0,0.004532630120286036,-0.004837021369369608,-0.0003154876969540504,0.0,0.0,0.0,0.0,0.0,0.0,0.0,0.0,0.0
3.829,107,3,830000000,base_footprint,-0.0038635809820684306,-3.0354603058526396e-05,0.9999753080699187,-0.005869844211238431,0.0,0.0,0.0,0.0,0.0,0.0,0.0,0.0,0.0,0.0001459241253499237,-1.5584461310504538e-05,-0.014987337620333663,0.0,0.0,0.0,0.0,0.0,0.0,0.0,0.0,0.0,0.0048804822047412615,-0.0035004098952222435,-9.457623237227859e-06,0.0,0.0,0.0,0.0,0.0,0.0,0.0,0.0,0.0
3.864,108,3,864000000,base_footprint,-0.0038679147723348936,-2.987115210765257e-05,0.9999767707862175,-0.005612150300647021,0.0,0.0,0.0,0.0,0.0,0.0,0.0,0.0,0.0,0.00012883518482346463,0.00011523669047046205,-0.015345610877829362,0.0,0.0,0.0,0.0,0.0,0.0,0.0,0.0,0.0,0.005356012836227261,-0.0034293849047405574,-0.0002519485975965866,0.0,0.0,0.0,0.0,0.0,0.0,0.0,0.0,0.0
3.898,109,3,898000000,base_footprint,-0.0038722669791184413,-2.896085871693876e-05,0.9999780893423086,-0.00536894263492727,0.0,0.0,0.0,0.0,0.0,0.0,0.0,0.0,0.0,-0.00031348524158455207,8.502653275702798e-06,-0.006754404315066125,0.0,0.0,0.0,0.0,0.0,0.0,0.0,0.0,0.0,0.0018042912779189374,-0.0042615730752847015,-0.0001715858287124822,0.0,0.0,0.0,0.0,0.0,0.0,0.0,0.0,0.0
3.932,110,3,932000000,base_footprint,-0.0038751676222491763,-2.7947108558213747e-05,0.9999787213287655,-0.005247779010774292,0.0,0.0,0.0,0.0,0.0,0.0,0.0,0.0,0.0,9.872578813548082e-05,4.954783697419388e-05,-0.0070293494999466586,0.0,0.0,0.0,0.0,0.0,0.0,0.0,0.0,0.0,-0.002738649075504908,-0.001647027565437426,6.403736034093688e-05,0.0,0.0,0.0,0.0,0.0,0.0,0.0,0.0,0.0
3.966,111,3,966000000,base_footprint,-0.003875730005265544,-2.6498076821247354e-05,0.9999792948075339,-0.005136922328180878,0.0,0.0,0.0,0.0,0.0,0.0,0.0,0.0,0.0,0.00017507694650758577,-0.00025467356626231635,-0.005821417866743991,0.0,0.0,0.0,0.0,0.0,0.0,0.0,0.0,0.0,-0.006823857853524602,-0.004936622175482283,0.0005560647434530938,0.0,0.0,0.0,0.0,0.0,0.0,0.0,0.0,0.0
4.0,112,4,0,base_footprint,-0.003870150985957772,-2.4111384910383975e-05,0.9999795909749989,-0.0050832060219020035,0.0,0.0,0.0,0.0,0.0,0.0,0.0,0.0,0.0,-0.0003057354437871797,-0.00020788313713699592,0.0023151388208016766,0.0,0.0,0.0,0.0,0.0,0.0,0.0,0.0,0.0,-0.0207846494186557,-0.007640606244250424,-0.00031443272646066914,0.0,0.0,0.0,0.0,0.0,0.0,0.0,0.0,0.0
4.034,113,4,34000000,base_footprint,-0.0038682810762705367,-2.8278306441617395e-05,0.9999780688944878,-0.005375623861805267,0.0,0.0,0.0,0.0,0.0,0.0,0.0,0.0,0.0,-0.001070036768161658,-0.004987796107501844,0.03011033112022075,0.0,0.0,0.0,0.0,0.0,0.0,0.0,0.0,0.0,-0.10820897888416636,0.026977405408509313,0.005838878007623405,0.0,0.0,0.0,0.0,0.0,0.0,0.0,0.0,0.0
4.068,114,4,68000000,base_footprint,-0.003871837418368954,-3.46478987276414e-05,0.9999760519503241,-0.0057361311327171925,0.0,0.0,0.0,0.0,0.0,0.0,0.0,0.0,0.0,-0.0008805617095222536,-0.0004905246041691475,-0.021178361260187215,0.0,0.0,0.0,0.0,0.0,0.0,0.0,0.0,0.0,-0.2450656849350983,-0.015503955117254251,-0.00884994957281108,0.0,0.0,0.0,0.0,0.0,0.0,0.0,0.0,0.0
4.102,115,4,102000000,base_footprint,-0.003871287087232232,-2.9797952491109158e-05,0.9999776538728418,-0.005450137919125985,0.0,0.0,0.0,0.0,0.0,0.0,0.0,0.0,0.0,7.904670995668688e-05,-0.00018290013890306594,-0.021414649299835657,0.0,0.0,0.0,0.0,0.0,0.0,0.0,0.0,0.0,0.004947719307211239,-0.002687692698105052,0.00035139884164769744,0.0,0.0,0.0,0.0,0.0,0.0,0.0,0.0,0.0
4.136,116,4,136000000,base_footprint,-0.0038687372192938332,-2.878382760854877e-05,0.9999794696086498,-0.005108072535014712,0.0,0.0,0.0,0.0,0.0,0.0,0.0,0.0,0.0,-1.1515416079359173e-05,-0.00031515850115960476,-0.020192187671880416,0.0,0.0,0.0,0.0,0.0,0.0,0.0,0.0,0.0,0.004164407146804789,-0.004673196608843347,0.00033939425986732506,0.0,0.0,0.0,0.0,0.0,0.0,0.0,0.0,0.0
4.17,117,4,170000000,base_footprint,-0.0038644169013934194,-2.7214851315796944e-05,0.999981198174612,-0.004761180382197219,0.0,0.0,0.0,0.0,0.0,0.0,0.0,0.0,0.0,0.00025221058625244253,-0.00038126782973629114,-0.020586448359827578,0.0,0.0,0.0,0.0,0.0,0.0,0.0,0.0,0.0,0.0053306933165215235,-0.0037955620841798134,0.00038465829119283576,0.0,0.0,0.0,0.0,0.0,0.0,0.0,0.0,0.0
4.204,118,4,204000000,base_footprint,-0.003853801209156635,-2.4850701636099445e-05,0.9999826815890329,-0.004447934429569008,0.0,0.0,0.0,0.0,0.0,0.0,0.0,0.0,0.0,0.00011003367977053128,-0.00041675729543085287,-0.00854088182500344,0.0,0.0,0.0,0.0,0.0,0.0,0.0,0.0,0.0,0.25563894976578777,0.00018309573530130745,0.001945318323285573,0.0,0.0,0.0,0.0,0.0,0.0,0.0,0.0,0.0
4.238,119,4,238000000,base_footprint,-0.003862026655662879,-2.550388023153443e-05,0.9999818094029662,-0.004633029552353862,0.0,0.0,0.0,0.0,0.0,0.0,0.0,0.0,0.0,-9.417624062545789e-05,-0.005948298992155819,-0.003948314058970278,0.0,0.0,0.0,0.0,0.0,0.0,0.0,0.0,0.0,0.11327182296884486,0.0028995364138616375,0.008257604465770129,0.0,0.0,0.0,0.0,0.0,0.0,0.0,0.0,0.0
4.272,120,4,272000000,base_footprint,-0.003861185578374643,-2.508323917917928e-05,0.9999826750842065,-0.0044429886557338085,0.0,0.0,0.0,0.0,0.0,0.0,0.0,0.0,0.0,0.00014055634639509505,-0.00010770022517105247,-0.011782067658171478,0.0,0.0,0.0,0.0,0.0,0.0,0.0,0.0,0.0,-0.013325879604368178,-0.000868313334447155,-0.00798903037153135,0.0,0.0,0.0,0.0,0.0,0.0,0.0,0.0,0.0
4.306,121,4,306000000,base_footprint,-0.0038633703875593788,-2.424271230145762e-05,0.9999837718309159,-0.00418686712880413,0.0,0.0,0.0,0.0,0.0,0.0,0.0,0.0,0.0,0.00016678482052224106,4.7646891249430964e-05,-0.02038602112880879,0.0,0.0,0.0,0.0,0.0,0.0,0.0,0.0,0.0,0.008065540651374952,-0.002802698064757355,-0.00025844803784731376,0.0,0.0,0.0,0.0,0.0,0.0,0.0,0.0,0.0
4.34,122,4,340000000,base_footprint,-0.0038676505050145075,-2.346017991983551e-05,0.9999851474617554,-0.0038399980576176596,0.0,0.0,0.0,0.0,0.0,0.0,0.0,0.0,0.0,0.00016887841884699703,0.00010669989489388204,-0.02056495609811678,0.0,0.0,0.0,0.0,0.0,0.0,0.0,0.0,0.0,0.005241653581113561,-0.0049733413261642415,-0.00013640524459146316,0.0,0.0,0.0,0.0,0.0,0.0,0.0,0.0,0.0
4.374,123,4,374000000,base_footprint,-0.003872081462761321,-2.2159335263873456e-05,0.9999864121896199,-0.003490262202360343,0.0,0.0,0.0,0.0,0.0,0.0,0.0,0.0,0.0,0.00019197882070366528,3.010827031155624e-05,-0.020549397108323597,0.0,0.0,0.0,0.0,0.0,0.0,0.0,0.0,0.0,0.0035527446637878403,-0.0054948873690883636,-4.699742716767819e-05,0.0,0.0,0.0,0.0,0.0,0.0,0.0,0.0,0.0
4.407,124,4,408000000,base_footprint,-0.003875108696416425,-2.0297806567271237e-05,0.999987555651362,-0.0031419202734035037,0.0,0.0,0.0,0.0,0.0,0.0,0.0,0.0,0.0,0.00019765982456808827,5.205816458383149e-05,-0.020399281848879423,0.0,0.0,0.0,0.0,0.0,0.0,0.0,0.0,0.0,-0.0017122616936131728,-0.004647767043472578,-5.977897241946301e-05,0.0,0.0,0.0,0.0,0.0,0.0,0.0,0.0,0.0
4.442,125,4,442000000,base_footprint,-0.0038759936720946615,-1.7955052347290887e-05,0.99998855482167,-0.0028047417595782683,0.0,0.0,0.0,0.0,0.0,0.0,0.0,0.0,0.0,0.0002740405586596069,-0.00023441105936009135,-0.019109817405712545,0.0,0.0,0.0,0.0,0.0,0.0,0.0,0.0,0.0,-0.006981276139622193,-0.0075921385131103945,0.0005167012525018156,0.0,0.0,0.0,0.0,0.0,0.0,0.0,0.0,0.0
4.476,126,4,476000000,base_footprint,-0.0038705685173164492,-1.3968833085252517e-05,0.9999893215707698,-0.002524925475308599,0.0,0.0,0.0,0.0,0.0,0.0,0.0,0.0,0.0,0.0003382727815961069,-0.0005334473117144448,-0.011330850504813349,0.0,0.0,0.0,0.0,0.0,0.0,0.0,0.0,0.0,-0.019969574068674296,-0.007580998722786431,0.0004443061911760511,0.0,0.0,0.0,0.0,0.0,0.0,0.0,0.0,0.0
4.51,127,4,510000000,base_footprint,-0.003869953763158949,-1.5713796094907996e-05,0.9999893443244141,-0.0025168330449206917,0.0,0.0,0.0,0.0,0.0,0.0,0.0,0.0,0.0,-0.00010700516131450998,6.56836817831054e-05,6.754715079529729e-05,0.0,0.0,0.0,0.0,0.0,0.0,0.0,0.0,0.0,-0.057529504537717165,0.012379201816489478,-0.0017435746655917906,0.0,0.0,0.0,0.0,0.0,0.0,0.0,0.0,0.0
4.5440000000000005,128,4,544000000,base_footprint,-0.003875126748163168,-1.7568430701278948e-05,0.9999895933588592,-0.0024075419040115254,0.0,0.0,0.0,0.0,0.0,0.0,0.0,0.0,0.0,0.00023271817731912526,-0.00043013037334092277,-0.012207459585878032,0.0,0.0,0.0,0.0,0.0,0.0,0.0,0.0,0.0,0.049136720090884135,0.0006777529017591354,0.00150498912298296,0.0,0.0,0.0,0.0,0.0,0.0,0.0,0.0,0.0
4.578,129,4,578000000,base_footprint,-0.0038711622532507286,-1.660953210078095e-05,0.9999900159719055,-0.0022319909140889175,0.0,0.0,0.0,0.0,0.0,0.0,0.0,0.0,0.0,7.867106741474798e-05,-0.0002645428029777551,-0.010338257400134731,0.0,0.0,0.0,0.0,0.0,0.0,0.0,0.0,0.0,-0.005724630041546141,-0.008493370658854395,-0.0003754630824827574,0.0,0.0,0.0,0.0,0.0,0.0,0.0,0.0,0.0
4.612,130,4,612000000,base_footprint,-0.003868258200011719,-1.6612423151762825e-05,0.9999903831548094,-0.002066373737520379,0.0,0.0,0.0,0.0,0.0,0.0,0.0,0.0,0.0,-8.222074017090293e-05,-0.00033532033549135665,-0.009276591687734438,0.0,0.0,0.0,0.0,0.0,0.0,0.0,0.0,0.0,0.003741939935732378,-0.002451553604122854,0.00022920641939284082,0.0,0.0,0.0,0.0,0.0,0.0,0.0,0.0,0.0
4.646,131,4,646000000,base_footprint,-0.003863799562371774,-1.570955626663912e-05,0.9999907217684569,-0.0019045165140127176,0.0,0.0,0.0,0.0,0.0,0.0,0.0,0.0,0.0,0.00015874934694098093,-0.00037672719274879087,-0.009757594432233,0.0,0.0,0.0,0.0,0.0,0.0,0.0,0.0,0.0,0.005693023592742251,-0.0018882390617166638,0.00031248178481057626,0.0,0.0,0.0,0.0,0.0,0.0,0.0,0.0,0.0
4.68,132,4,680000000,base_footprint,-0.003861282302022768,-1.461352443827947e-05,0.9999910395343902,-0.0017352626194952377,0.0,0.0,0.0,0.0,0.0,0.0,0.0,0.0,0.0,0.00014641682755953646,-0.0002754970489273778,-0.010187637338265977,0.0,0.0,0.0,0.0,0.0,0.0,0.0,0.0,0.0,0.005865309766369432,-0.0021318225680253726,-0.00014736278387741418,0.0,0.0,0.0,0.0,0.0,0.0,0.0,0.0,0.0
4.714,133,4,714000000,base_footprint,-0.0038604395651128365,-1.4142270200927326e-05,0.999991170163165,-0.0016602415680795515,0.0,0.0,0.0,0.0,0.0,0.0,0.0,0.0,0.0,5.945091676872318e-05,-0.00018802096453650457,-0.0010052379069030466,0.0,0.0,0.0,0.0,0.0,0.0,0.0,0.0,0.0,0.003344833658931195,-0.0011020114686047648,-0.00014482369341071262,0.0,0.0,0.0,0.0,0.0,0.0,0.0,0.0,0.0
4.748,134,4,748000000,base_footprint,-0.0038613213874528554,-1.4138607627287084e-05,0.9999912010237177,-0.0016394732036159362,0.0,0.0,0.0,0.0,0.0,0.0,0.0,0.0,0.0,5.032094948732525e-05,-0.00010820590580946227,-0.0014488810418303052,0.0,0.0,0.0,0.0,0.0,0.0,0.0,0.0,0.0,0.005912399266454555,-0.0003228038072743468,-0.00013100066460901118,0.0,0.0,0.0,0.0,0.0,0.0,0.0,0.0,0.0
4.782,135,4,782000000,base_footprint,-0.0038638430485137547,-1.4366374090513608e-05,0.999991236282781,-0.0016117903521098334,0.0,0.0,0.0,0.0,0.0,0.0,0.0,0.0,0.0,3.547290941647333e-05,-7.1772572799941164e-06,-0.0018368081438758558,0.0,0.0,0.0,0.0,0.0,0.0,0.0,0.0,0.0,0.0057255945494281875,-0.0004649260606344369,-0.0001797287218883041,0.0,0.0,0.0,0.0,0.0,0.0,0.0,0.0,0.0
4.816,136,4,816000000,base_footprint,-0.0038698507510322453,-1.651184656971679e-05,0.9999908452763252,-0.0018257453448861588,0.0,0.0,0.0,0.0,0.0,0.0,0.0,0.0,0.0,-0.00017014240561976577,8.891084351507094e-05,0.019468780669515066,0.0,0.0,0.0,0.0,0.0,0.0,0.0,0.0,0.0,-0.013534673663105843,0.0017650699062217105,-0.00030351119057383803,0.0,0.0,0.0,0.0,0.0,0.0,0.0,0.0,0.0
4.85,137,4,850000000,base_footprint,-0.0038744469291660017,-1.6402890916351174e-05,0.99999050990434,-0.001992107727074723,0.0,0.0,0.0,0.0,0.0,0.0,0.0,0.0,0.0,0.00039903472482533033,-0.000697332805214219,-0.010513025015802643,0.0,0.0,0.0,0.0,0.0,0.0,0.0,0.0,0.0,-0.3202083921552585,-0.0019808505896821166,-0.0017009507251763952,0.0,0.0,0.0,0.0,0.0,0.0,0.0,0.0,0.0
4.884,138,4,884000000,base_footprint,-0.003875208250669131,-1.5464432392004545e-05,0.9999908221249579,-0.0018270708021221728,0.0,0.0,0.0,0.0,0.0,0.0,0.0,0.0,0.0,0.00012589028889576232,3.160860528975568e-05,-0.009343555986098376,0.0,0.0,0.0,0.0,0.0,0.0,0.0,0.0,0.0,0.0008809971468496718,-0.0007058636568685884,-0.0009071934890682866,0.0,0.0,0.0,0.0,0.0,0.0,0.0,0.0,0.0
4.918,139,4,918000000,base_footprint,-0.0038758669946694284,-1.3854094792948534e-05,0.9999909903928014,-0.0017310679732850853,0.0,0.0,0.0,0.0,0.0,0.0,0.0,0.0,0.0,0.0002188739299977153,-0.00030535838780288853,-0.004048748795157608,0.0,0.0,0.0,0.0,0.0,0.0,0.0,0.0,0.0,-0.008373331746033797,-0.004329054940158801,0.0006108581025999876,0.0,0.0,0.0,0.0,0.0,0.0,0.0,0.0,0.0
4.9510000000000005,140,4,952000000,base_footprint,-0.003870418357451465,-1.0971396986218682e-05,0.9999910605278844,-0.0017025292020035208,0.0,0.0,0.0,0.0,0.0,0.0,0.0,0.0,0.0,0.00020432301624795674,-0.0005725316561090387,0.003273376345885724,0.0,0.0,0.0,0.0,0.0,0.0,0.0,0.0,0.0,-0.017241877378407135,-0.0035538738869413237,0.000454032958244335,0.0,0.0,0.0,0.0,0.0,0.0,0.0,0.0,0.0
4.986,141,4,986000000,base_footprint,-0.0038706391388093914,-1.2687158326060598e-05,0.9999907892796897,-0.001854547782205515,0.0,0.0,0.0,0.0,0.0,0.0,0.0,0.0,0.0,-0.00017757880558842755,0.0003900269150789019,0.010166366375791061,0.0,0.0,0.0,0.0,0.0,0.0,0.0,0.0,0.0,-0.06182243924328071,0.010628664152833171,-0.0022841900835784456,0.0,0.0,0.0,0.0,0.0,0.0,0.0,0.0,0.0
5.02,142,5,20000000,base_footprint,-0.003853016535513194,-1.4612401756995346e-05,0.9999903934497896,-0.0020897507482666032,0.0,0.0,0.0,0.0,0.0,0.0,0.0,0.0,0.0,-0.00010451519807236467,0.0003583690570040208,0.016432820380100945,0.0,0.0,0.0,0.0,0.0,0.0,0.0,0.0,0.0,0.1561904549356575,0.007628670812697168,0.0014993373708647286,0.0,0.0,0.0,0.0,0.0,0.0,0.0,0.0,0.0
5.054,143,5,54000000,base_footprint,-0.003871299687106451,-1.642055918728274e-05,0.9999899599370428,-0.0022567220054033185,0.0,0.0,0.0,0.0,0.0,0.0,0.0,0.0,0.0,-0.0005241957841838984,0.00021869042625975298,-0.003729458665675966,0.0,0.0,0.0,0.0,0.0,0.0,0.0,0.0,0.0,0.23932230081420228,0.0017023720146599167,0.001797267607803271,0.0,0.0,0.0,0.0,0.0,0.0,0.0,0.0,0.0
5.088,144,5,88000000,base_footprint,-0.0038683614096187697,-1.690504304176541e-05,0.9999900266770095,-0.0022320485518844556,0.0,0.0,0.0,0.0,0.0,0.0,0.0,0.0,0.0,-0.0001145290199977813,-0.0002993211305668513,-0.0012670639174706898,0.0,0.0,0.0,0.0,0.0,0.0,0.0,0.0,0.0,-0.003854208975135976,-0.002767894413240217,0.0010547592669990803,0.0,0.0,0.0,0.0,0.0,0.0,0.0,0.0,0.0
5.122,145,5,122000000,base_footprint,-0.003864042513354724,-1.6395194110525225e-05,0.9999903077523112,-0.0021102862579713815,0.0,0.0,0.0,0.0,0.0,0.0,0.0,0.0,0.0,0.00014791204111017108,-0.0003820576137569441,-0.008349625887805592,0.0,0.0,0.0,0.0,0.0,0.0,0.0,0.0,0.0,0.007018411134893841,-0.0015775411470466871,0.00038162867782090223,0.0,0.0,0.0,0.0,0.0,0.0,0.0,0.0,0.0
5.156,146,5,156000000,base_footprint,-0.003861378380202514,-1.5388082552321047e-05,0.9999906142960892,-0.0019649020185117834,0.0,0.0,0.0,0.0,0.0,0.0,0.0,0.0,0.0,0.0001359429503196724,-0.00028150338555613916,-0.008788107360711858,0.0,0.0,0.0,0.0,0.0,0.0,0.0,0.0,0.0,0.00584403262751064,-0.0017872962101811286,-0.00014932605143570284,0.0,0.0,0.0,0.0,0.0,0.0,0.0,0.0,0.0
5.19,147,5,190000000,base_footprint,-0.003860548971678543,-1.4629624454430337e-05,0.9999909061889786,-0.001812039446830786,0.0,0.0,0.0,0.0,0.0,0.0,0.0,0.0,0.0,0.00012453847566036547,-0.0001968910506056029,-0.009228985842618078,0.0,0.0,0.0,0.0,0.0,0.0,0.0,0.0,0.0,0.005916860067814754,-0.001976168294200314,-0.00012383525262868003,0.0,0.0,0.0,0.0,0.0,0.0,0.0,0.0,0.0
5.224,148,5,224000000,base_footprint,-0.0038613558844031734,-1.3652635483978755e-05,0.9999913693062139,-0.0015333158261635607,0.0,0.0,0.0,0.0,0.0,0.0,0.0,0.0,0.0,0.0001706424123548252,-0.00011965361044337052,-0.017260927355173955,0.0,0.0,0.0,0.0,0.0,0.0,0.0,0.0,0.0,0.007893949851008912,-0.0036021201668321643,-0.00010670034378592667,0.0,0.0,0.0,0.0,0.0,0.0,0.0,0.0,0.0
5.258,149,5,258000000,base_footprint,-0.003863756375472916,-1.2891557509473786e-05,0.999991770825878,-0.001236729963882752,0.0,0.0,0.0,0.0,0.0,0.0,0.0,0.0,0.0,0.00015410991187592347,-1.4422886325420404e-05,-0.017661243042445554,0.0,0.0,0.0,0.0,0.0,0.0,0.0,0.0,0.0,0.00575229938677494,-0.003919854681822707,-0.00018548835334077999,0.0,0.0,0.0,0.0,0.0,0.0,0.0,0.0,0.0
5.292,150,5,292000000,base_footprint,-0.0038681591303617777,-1.2426811172328781e-05,0.9999920823716427,-0.0009340152796063026,0.0,0.0,0.0,0.0,0.0,0.0,0.0,0.0,0.0,0.0001339768214483677,0.00011816290825399382,-0.0179717563135963,0.0,0.0,0.0,0.0,0.0,0.0,0.0,0.0,0.0,0.0052508477021666194,-0.004105352694132899,-0.0002576841609526899,0.0,0.0,0.0,0.0,0.0,0.0,0.0,0.0,0.0
5.325,151,5,326000000,base_footprint,-0.0038720444939757777,-1.2004446984931843e-05,0.9999921014750068,-0.000896724556241794,0.0,0.0,0.0,0.0,0.0,0.0,0.0,0.0,0.0,3.8319436012252755e-05,4.300599015958932e-05,-0.0017542425196616417,0.0,0.0,0.0,0.0,0.0,0.0,0.0,0.0,0.0,-0.0009686846878844249,-0.0016711300833799224,-7.130916839327543e-05,0.0,0.0,0.0,0.0,0.0,0.0,0.0,0.0,0.0
5.36,152,5,360000000,base_footprint,-0.003875070811050589,-1.1461101716974757e-05,0.9999921109921669,-0.0008727246313781052,0.0,0.0,0.0,0.0,0.0,0.0,0.0,0.0,0.0,5.78639421293459e-05,4.258899454858523e-05,-0.000990933378015508,0.0,0.0,0.0,0.0,0.0,0.0,0.0,0.0,0.0,-0.002632316117139716,-0.0004064469079601232,-2.8473749408872567e-05,0.0,0.0,0.0,0.0,0.0,0.0,0.0,0.0,0.0
5.394,153,5,394000000,base_footprint,-0.003875477682282021,-1.0583062281767131e-05,0.9999921151699357,-0.0008661170193262611,0.0,0.0,0.0,0.0,0.0,0.0,0.0,0.0,0.0,-0.00015929373657917867,-0.0003950472493337469,-0.0004381904035451192,0.0,0.0,0.0,0.0,0.0,0.0,0.0,0.0,0.0,-0.0073257444430452606,-0.003762270521641574,0.0007549345168489787,0.0,0.0,0.0,0.0,0.0,0.0,0.0,0.0,0.0
5.428,154,5,428000000,base_footprint,-0.0038686665269226624,-6.416663101706327e-06,0.9999922259816281,-0.0007624660245287373,0.0,0.0,0.0,0.0,0.0,0.0,0.0,0.0,0.0,8.153607547189672e-05,-0.0004289547589884204,-0.0019359848133872104,0.0,0.0,0.0,0.0,0.0,0.0,0.0,0.0,0.0,-0.023491278479697297,-0.0077247785948848825,-8.748600647906983e-05,0.0,0.0,0.0,0.0,0.0,0.0,0.0,0.0,0.0
5.462,155,5,462000000,base_footprint,-0.003870720542353607,-7.843387514246783e-06,0.9999921680039373,-0.0008254645659499803,0.0,0.0,0.0,0.0,0.0,0.0,0.0,0.0,0.0,0.0003585513424516515,9.31168708913016e-06,0.003484497732831109,0.0,0.0,0.0,0.0,0.0,0.0,0.0,0.0,0.0,-0.050713172333427994,0.014088781852265544,-0.0008321118099365941,0.0,0.0,0.0,0.0,0.0,0.0,0.0,0.0,0.0
5.496,156,5,496000000,base_footprint,-0.0038746855923637827,-1.0684120921349548e-05,0.999992212236859,-0.0007497753282766129,0.0,0.0,0.0,0.0,0.0,0.0,0.0,0.0,0.0,0.0002342393708613298,-0.0003100937291693575,-0.007825327011795731,0.0,0.0,0.0,0.0,0.0,0.0,0.0,0.0,0.0,0.048144113273433924,0.002414265411405086,0.000633103118022097,0.0,0.0,0.0,0.0,0.0,0.0,0.0,0.0,0.0
5.53,157,5,530000000,base_footprint,-0.003870762645324433,-1.0118831231493915e-05,0.9999923019886277,-0.0006426956031803945,0.0,0.0,0.0,0.0,0.0,0.0,0.0,0.0,0.0,4.021014781541131e-05,-0.00026130544832567734,-0.006481387451246082,0.0,0.0,0.0,0.0,0.0,0.0,0.0,0.0,0.0,-0.0025571727551887075,-0.006149182752609897,-0.00010542813373904812,0.0,0.0,0.0,0.0,0.0,0.0,0.0,0.0,0.0
5.564,158,5,564000000,base_footprint,-0.003867868283884871,-1.0454818496836214e-05,0.9999923775091163,-0.0005333003848825869,0.0,0.0,0.0,0.0,0.0,0.0,0.0,0.0,0.0,-8.43896172838239e-05,-0.00035215936969015604,-0.006384663845159647,0.0,0.0,0.0,0.0,0.0,0.0,0.0,0.0,0.0,0.0037886024337729046,-0.001815394014440916,0.00029243385305552014,0.0,0.0,0.0,0.0,0.0,0.0,0.0,0.0,0.0
5.598,159,5,598000000,base_footprint,-0.0038636849005642022,-8.611397694821029e-06,0.9999924254157496,-0.00047008080106616734,0.0,0.0,0.0,0.0,0.0,0.0,0.0,0.0,0.0,0.0007269576795914141,0.0007569405012026267,0.014926456706500066,0.0,0.0,0.0,0.0,0.0,0.0,0.0,0.0,0.0,0.013672083535127907,0.005381553813328353,-0.0011897334735666524,0.0,0.0,0.0,0.0,0.0,0.0,0.0,0.0,0.0
5.632,160,5,632000000,base_footprint,-0.003877357664869256,-1.064933917539943e-05,0.9999922297474617,-0.0007116381313457678,0.0,0.0,0.0,0.0,0.0,0.0,0.0,0.0,0.0,-3.946556931021905e-05,0.0007486976687980648,0.01302507598209943,0.0,0.0,0.0,0.0,0.0,0.0,0.0,0.0,0.0,-0.1975730906628944,-0.004657365214885294,0.0029912483520108976,0.0,0.0,0.0,0.0,0.0,0.0,0.0,0.0,0.0
5.666,161,5,666000000,base_footprint,-0.003860622452742825,-9.69101024541084e-06,0.9999924087057339,-0.0005272867020447655,0.0,0.0,0.0,0.0,0.0,0.0,0.0,0.0,0.0,0.00016134497054035875,-0.00023766698689975233,-0.014583932344389103,0.0,0.0,0.0,0.0,0.0,0.0,0.0,0.0,0.0,-0.1377061754611799,-0.0014088440216176805,-0.004399277892906637,0.0,0.0,0.0,0.0,0.0,0.0,0.0,0.0,0.0
5.7,162,5,700000000,base_footprint,-0.0038615081991161737,-8.99344206592615e-06,0.9999925019762816,-0.00029097209939974757,0.0,0.0,0.0,0.0,0.0,0.0,0.0,0.0,0.0,0.00016345113160850155,-0.00011223679885686537,-0.010626186694476623,0.0,0.0,0.0,0.0,0.0,0.0,0.0,0.0,0.0,0.004397225150235756,-0.0031448296645345416,-0.00015586338278026317,0.0,0.0,0.0,0.0,0.0,0.0,0.0,0.0,0.0
5.734,163,5,734000000,base_footprint,-0.003863662833867571,-8.586637029031598e-06,0.9999925304681108,-0.00010508929725026062,0.0,0.0,0.0,0.0,0.0,0.0,0.0,0.0,0.0,0.0001037463138479428,-2.6015070891614675e-05,-0.011166931547399436,0.0,0.0,0.0,0.0,0.0,0.0,0.0,0.0,0.0,0.005430829217257818,-0.0023355782465459877,-0.00017257065000022369,0.0,0.0,0.0,0.0,0.0,0.0,0.0,0.0,0.0
5.768,164,5,768000000,base_footprint,-0.003867756731120843,-8.526015848942919e-06,0.999992516382636,8.69706821893911e-05,0.0,0.0,0.0,0.0,0.0,0.0,0.0,0.0,0.0,8.537810728581346e-05,9.198117110134491e-05,-0.0114532890196475,0.0,0.0,0.0,0.0,0.0,0.0,0.0,0.0,0.0,0.004996100033299432,-0.002544501089939659,-0.00022808331515462976,0.0,0.0,0.0,0.0,0.0,0.0,0.0,0.0,0.0
5.804,165,5,802000000,base_footprint,-0.003862213160778766,-7.349842377162355e-06,0.9999925105373239,0.00024924835154737783,0.0,0.0,0.0,0.0,0.0,0.0,0.0,0.0,0.0,0.0002761027551884046,-0.0017558787574746342,-0.001181665070099403,0.0,0.0,0.0,0.0,0.0,0.0,0.0,0.0,0.0,0.1697820380150585,-0.0017711719060998173,0.0044033370575043106,0.0,0.0,0.0,0.0,0.0,0.0,0.0,0.0,0.0
5.836,166,5,836000000,base_footprint,-0.0038730709848116443,-7.644906194734606e-06,0.9999924618401916,0.0002748190221392426,0.0,0.0,0.0,0.0,0.0,0.0,0.0,0.0,0.0,0.0012653012229445067,0.006148473865288675,-0.005428742069748588,0.0,0.0,0.0,0.0,0.0,0.0,0.0,0.0,0.0,0.19031026981723176,-0.008333481117181444,-0.011899015082941737,0.0,0.0,0.0,0.0,0.0,0.0,0.0,0.0,0.0
5.87,167,5,870000000,base_footprint,-0.0038766191921229044,-6.280736963731445e-06,0.9999924335100482,0.0003235843686209057,0.0,0.0,0.0,0.0,0.0,0.0,0.0,0.0,0.0,9.848246902866348e-05,-0.0001063929320279443,-0.00387475378131608,0.0,0.0,0.0,0.0,0.0,0.0,0.0,0.0,0.0,-0.025353741889727305,0.0030172601927126634,0.010266004630890028,0.0,0.0,0.0,0.0,0.0,0.0,0.0,0.0,0.0
5.904,168,5,904000000,base_footprint,-0.003872959728153983,-5.731720219644939e-06,0.999992419971213,0.00040018771683155455,0.0,0.0,0.0,0.0,0.0,0.0,0.0,0.0,0.0,0.0001920029675312495,-0.0005491297454216445,-0.005315452863372704,0.0,0.0,0.0,0.0,0.0,0.0,0.0,0.0,0.0,-0.0220799478013152,-0.0027714264150758864,0.0007250943568781267,0.0,0.0,0.0,0.0,0.0,0.0,0.0,0.0,0.0
5.938,169,5,938000000,base_footprint,-0.0038720040778142434,-5.26843619595086e-06,0.9999923952720818,0.00046578393003875526,0.0,0.0,0.0,0.0,0.0,0.0,0.0,0.0,0.0,0.00019348765570816525,0.0003478354323646046,-0.006669109248150976,0.0,0.0,0.0,0.0,0.0,0.0,0.0,0.0,0.0,-0.04591059968790645,0.0057651973510309765,-0.0024790971397087784,0.0,0.0,0.0,0.0,0.0,0.0,0.0,0.0,0.0
5.972,170,5,972000000,base_footprint,-0.003874010271876659,-5.448300921363034e-06,0.9999923144267049,0.0006025796642072771,0.0,0.0,0.0,0.0,0.0,0.0,0.0,0.0,0.0,0.00014262756883206694,-0.000368520872641505,-0.0093667268376167,0.0,0.0,0.0,0.0,0.0,0.0,0.0,0.0,0.0,0.03486544342691301,0.0027481624551034113,0.0019127787560949037,0.0,0.0,0.0,0.0,0.0,0.0,0.0,0.0,0.0
6.006,171,6,6000000,base_footprint,-0.003870876669576642,-4.965452303889697e-06,0.9999922248117933,0.0007527317671161249,0.0,0.0,0.0,0.0,0.0,0.0,0.0,0.0,0.0,3.582943005132271e-05,-0.00026689572404062266,-0.008508921656666859,0.0,0.0,0.0,0.0,0.0,0.0,0.0,0.0,0.0,0.0015671404177328189,-0.0069301647668483365,-5.8758488233808955e-05,0.0,0.0,0.0,0.0,0.0,0.0,0.0,0.0,0.0
6.04,172,6,40000000,base_footprint,-0.003868115904073442,-5.100326996594684e-06,0.9999921165284822,0.0008969583190111713,0.0,0.0,0.0,0.0,0.0,0.0,0.0,0.0,0.0,-8.276307359779991e-05,-0.0003611113436614898,-0.008407528275733225,0.0,0.0,0.0,0.0,0.0,0.0,0.0,0.0,0.0,0.003761202746862929,-0.0021346306389804157,0.0002864817971738219,0.0,0.0,0.0,0.0,0.0,0.0,0.0,0.0,0.0
6.074,173,6,74000000,base_footprint,-0.0038635508946246694,-4.2677084451189334e-06,0.9999919917923437,0.0010436989281957577,0.0,0.0,0.0,0.0,0.0,0.0,0.0,0.0,0.0,0.0001443388804203273,-0.0003778894821882818,-0.008862973104108666,0.0,0.0,0.0,0.0,0.0,0.0,0.0,0.0,0.0,0.005634535017776481,-0.0017744774400878323,0.00025152755319230466,0.0,0.0,0.0,0.0,0.0,0.0,0.0,0.0,0.0
6.108,174,6,108000000,base_footprint,-0.0038636547537832613,-3.4869594021268e-06,0.9999918870511643,0.0011392943590497358,0.0,0.0,0.0,0.0,0.0,0.0,0.0,0.0,0.0,2.317365920995869e-05,-0.0005130347334048654,-0.0005381139097360611,0.0,0.0,0.0,0.0,0.0,0.0,0.0,0.0,0.0,0.00443737418116418,-0.0024665949194073813,0.000155854686007387,0.0,0.0,0.0,0.0,0.0,0.0,0.0,0.0,0.0
6.142,175,6,142000000,base_footprint,-0.003862331969485622,-3.5482722811975388e-06,0.9999918717638131,0.001157058975559156,0.0,0.0,0.0,0.0,0.0,0.0,0.0,0.0,0.0,4.142991881178631e-05,-0.0001914573278108212,-0.0012902470636305904,0.0,0.0,0.0,0.0,0.0,0.0,0.0,0.0,0.0,0.0053076108050269105,0.0008506324531587377,-0.0004491740836104625,0.0,0.0,0.0,0.0,0.0,0.0,0.0,0.0,0.0
6.176,176,6,176000000,base_footprint,-0.0038632244679396694,-3.756229115722846e-06,0.9999918377410854,0.0011831879850108008,0.0,0.0,0.0,0.0,0.0,0.0,0.0,0.0,0.0,2.4769595586188467e-05,-0.00010855646733130296,-0.001741186567499064,0.0,0.0,0.0,0.0,0.0,0.0,0.0,0.0,0.0,0.005614178143741219,-0.0004289474056270578,-0.00013362249118140972,0.0,0.0,0.0,0.0,0.0,0.0,0.0,0.0,0.0
6.21,177,6,210000000,base_footprint,-0.0038638119608338218,-3.3758585391180597e-06,0.9999917133250383,0.0012822741475338793,0.0,0.0,0.0,0.0,0.0,0.0,0.0,0.0,0.0,9.395258304086392e-05,-0.00010744108578224686,-0.009539985359357243,0.0,0.0,0.0,0.0,0.0,0.0,0.0,0.0,0.0,0.007917650607872166,-0.0029618836570881706,6.4466471830623e-05,0.0,0.0,0.0,0.0,0.0,0.0,0.0,0.0,0.0
6.244,178,6,244000000,base_footprint,-0.0038683974746153943,-3.446704658324578e-06,0.9999914656901319,0.0014505295586446317,0.0,0.0,0.0,0.0,0.0,0.0,0.0,0.0,0.0,4.504567372751029e-05,0.0001422948932030687,-0.010042834772818523,0.0,0.0,0.0,0.0,0.0,0.0,0.0,0.0,0.0,0.005100995192971761,-0.0009878687920374086,-0.0005522636468905155,0.0,0.0,0.0,0.0,0.0,0.0,0.0,0.0,0.0
6.2780000000000005,179,6,278000000,base_footprint,-0.003872775730774297,-2.2776508470647094e-06,0.9999911818633184,0.0016241300918594134,0.0,0.0,0.0,0.0,0.0,0.0,0.0,0.0,0.0,8.945272440847419e-05,0.00015379371039165972,-0.01055158223672242,0.0,0.0,0.0,0.0,0.0,0.0,0.0,0.0,0.0,0.0026485670437885462,-0.00196340728667135,-0.0001708872085484795,0.0,0.0,0.0,0.0,0.0,0.0,0.0,0.0,0.0
6.312,180,6,312000000,base_footprint,-0.003878132952550179,-4.573608752828725e-06,0.9999914404254822,0.0014419222080690316,0.0,0.0,0.0,0.0,0.0,0.0,0.0,0.0,0.0,7.782920421047346e-05,-0.0006697999617135438,0.030338571927378998,0.0,0.0,0.0,0.0,0.0,0.0,0.0,0.0,0.0,-0.037312410781169036,0.0004575391361498091,0.0010014475613994262,0.0,0.0,0.0,0.0,0.0,0.0,0.0,0.0,0.0
6.346,181,6,346000000,base_footprint,-0.0038655043453200825,-8.461680740239483e-06,0.9999919432390082,0.0010822484135471712,0.0,0.0,0.0,0.0,0.0,0.0,0.0,0.0,0.0,0.0007300273603568731,0.002635515180435567,0.0022391367738327584,0.0,0.0,0.0,0.0,0.0,0.0,0.0,0.0,0.0,-0.1716335239704789,0.0029376286166176418,-0.005823450936486184,0.0,0.0,0.0,0.0,0.0,0.0,0.0,0.0,0.0
6.38,182,6,380000000,base_footprint,-0.0038815954086718917,-1.5668206818264508e-06,0.9999916884571189,0.001247490003584262,0.0,0.0,0.0,0.0,0.0,0.0,0.0,0.0,0.0,-0.00041387486484862067,6.496350410159366e-05,-0.011815545100456019,0.0,0.0,0.0,0.0,0.0,0.0,0.0,0.0,0.0,-0.13115827751587172,-0.005037853228621965,0.0021150777460551807,0.0,0.0,0.0,0.0,0.0,0.0,0.0,0.0,0.0
6.414,183,6,414000000,base_footprint,-0.0038738721066437156,-2.8325937868054865e-07,0.9999914987660616,0.0014126253668200182,0.0,0.0,0.0,0.0,0.0,0.0,0.0,0.0,0.0,-0.00021411024287951638,-6.651843778076377e-06,-0.00669235192252805,0.0,0.0,0.0,0.0,0.0,0.0,0.0,0.0,0.0,-0.04703236607815291,0.010081525525851712,-0.00011903393395758043,0.0,0.0,0.0,0.0,0.0,0.0,0.0,0.0,0.0
6.448,184,6,448000000,base_footprint,-0.0038745557750456665,-8.765649849427657e-07,0.9999912358164372,0.0015862241621555503,0.0,0.0,0.0,0.0,0.0,0.0,0.0,0.0,0.0,-1.5447737047614872e-05,-0.00023651951681866266,-0.00973246153577937,0.0,0.0,0.0,0.0,0.0,0.0,0.0,0.0,0.0,0.006758139194411974,-0.0027232388861963895,0.0006086153564260878,0.0,0.0,0.0,0.0,0.0,0.0,0.0,0.0,0.0
6.482,185,6,482000000,base_footprint,-0.0038711280299679554,-6.336451073418909e-07,0.9999909587931953,0.0017597440836840668,0.0,0.0,0.0,0.0,0.0,0.0,0.0,0.0,0.0,7.67214439147454e-05,-0.00022488197491962684,-0.010321958683694512,0.0,0.0,0.0,0.0,0.0,0.0,0.0,0.0,0.0,-0.0005330546153128156,-0.004347717625460447,5.1832204844700834e-05,0.0,0.0,0.0,0.0,0.0,0.0,0.0,0.0,0.0
6.516,186,6,516000000,base_footprint,-0.0038525721868934615,7.367397846633054e-07,0.9999906774044142,0.001950074681413779,0.0,0.0,0.0,0.0,0.0,0.0,0.0,0.0,0.0,0.00014215654294114687,-2.295228120125533e-05,-0.012595876111403297,0.0,0.0,0.0,0.0,0.0,0.0,0.0,0.0,0.0,0.3549425020037314,-0.005804928482005636,0.002735992798223055,0.0,0.0,0.0,0.0,0.0,0.0,0.0,0.0,0.0
6.55,187,6,550000000,base_footprint,-0.0038678585109202645,-1.9336414254350657e-07,0.9999904034459391,0.002057349394220315,0.0,0.0,0.0,0.0,0.0,0.0,0.0,0.0,0.0,8.302959230755997e-05,-0.002622607467930326,-0.0016742342735878134,0.0,0.0,0.0,0.0,0.0,0.0,0.0,0.0,0.0,-0.003679502758481316,-0.002256169276636921,0.003422122864415239,0.0,0.0,0.0,0.0,0.0,0.0,0.0,0.0,0.0
6.584,188,6,584000000,base_footprint,-0.0038629194291197808,2.5610355964293185e-07,0.9999903470776996,0.002093706006259331,0.0,0.0,0.0,0.0,0.0,0.0,0.0,0.0,0.0,6.62565897209869e-05,-0.0003001490160964376,-0.002329468038436625,0.0,0.0,0.0,0.0,0.0,0.0,0.0,0.0,0.0,0.002651068676192426,0.0005064653053601746,-0.0030633151369749375,0.0,0.0,0.0,0.0,0.0,0.0,0.0,0.0,0.0
6.618,189,6,618000000,base_footprint,-0.003862253089009371,4.276247862220495e-07,0.9999902512414064,0.0021401922910445383,0.0,0.0,0.0,0.0,0.0,0.0,0.0,0.0,0.0,5.499116155273823e-05,-0.0001924155499322217,-0.0029991117649965987,0.0,0.0,0.0,0.0,0.0,0.0,0.0,0.0,0.0,0.005750131929710789,-0.000697189188965609,-0.00014742600446181447,0.0,0.0,0.0,0.0,0.0,0.0,0.0,0.0,0.0
6.651,190,6,652000000,base_footprint,-0.00386304473060136,3.60278461833178e-07,0.9999901285197644,0.002195392517206312,0.0,0.0,0.0,0.0,0.0,0.0,0.0,0.0,0.0,3.933386070615266e-05,-0.0001145174812966681,-0.0034540582965729267,0.0,0.0,0.0,0.0,0.0,0.0,0.0,0.0,0.0,0.005629210382091966,-0.0008598555979997621,-0.00012468703139465056,0.0,0.0,0.0,0.0,0.0,0.0,0.0,0.0,0.0
6.686,191,6,686000000,base_footprint,-0.003865408969430799,4.814487532457277e-09,0.9999899796140446,0.0022581596493221234,0.0,0.0,0.0,0.0,0.0,0.0,0.0,0.0,0.0,1.9142356652914627e-05,-1.95714088942969e-05,-0.0038859289716862444,0.0,0.0,0.0,0.0,0.0,0.0,0.0,0.0,0.0,0.005487634050735649,-0.0010007382407543285,-0.00017021843644371255,0.0,0.0,0.0,0.0,0.0,0.0,0.0,0.0,0.0
6.72,192,6,720000000,base_footprint,-0.003869664155384789,-8.294302632374183e-07,0.9999898759404771,0.0022964570943388557,0.0,0.0,0.0,0.0,0.0,0.0,0.0,0.0,0.0,-2.5188261767250457e-05,0.00010937073500018885,-0.0019459841341588947,0.0,0.0,0.0,0.0,0.0,0.0,0.0,0.0,0.0,0.004406018339863189,-0.0007332933173680539,-0.00025895252024150613,0.0,0.0,0.0,0.0,0.0,0.0,0.0,0.0,0.0
6.754,193,6,754000000,base_footprint,-0.003874525075220394,-4.1735437078499185e-07,0.9999897812497137,0.002329259843177477,0.0,0.0,0.0,0.0,0.0,0.0,0.0,0.0,0.0,2.661484688766528e-05,8.969457218370996e-05,-0.0018189284322977573,0.0,0.0,0.0,0.0,0.0,0.0,0.0,0.0,0.0,0.0030923708090378377,-0.0011044003060912118,-0.00013709403204533463,0.0,0.0,0.0,0.0,0.0,0.0,0.0,0.0,0.0
6.788,194,6,788000000,base_footprint,-0.003877392139814588,-4.682628829132703e-07,0.9999897006914285,0.002358885550884803,0.0,0.0,0.0,0.0,0.0,0.0,0.0,0.0,0.0,-1.900290029710202e-06,2.568893158449389e-05,-0.0016288623064406329,0.0,0.0,0.0,0.0,0.0,0.0,0.0,0.0,0.0,-0.0027311899198735217,-0.000681457605716021,7.187754204462541e-05,0.0,0.0,0.0,0.0,0.0,0.0,0.0,0.0,0.0
6.822,195,6,822000000,base_footprint,-0.0038786411819856045,-8.467469085784251e-07,0.9999896271422675,0.002387833690479705,0.0,0.0,0.0,0.0,0.0,0.0,0.0,0.0,0.0,-1.0998563574421985e-05,-0.00019465126331821427,-0.0019147924137213454,0.0,0.0,0.0,0.0,0.0,0.0,0.0,0.0,0.0,-0.007758511753207386,-0.002368338533428518,0.00035108941564778134,0.0,0.0,0.0,0.0,0.0,0.0,0.0,0.0,0.0
6.856,196,6,856000000,base_footprint,-0.0038739246026703988,-5.331678613419299e-07,0.9999894606165276,0.002464013748899706,0.0,0.0,0.0,0.0,0.0,0.0,0.0,0.0,0.0,-0.00017624336732823817,-0.0005857536080997086,-0.01016648468664575,0.0,0.0,0.0,0.0,0.0,0.0,0.0,0.0,0.0,-0.017575178787671158,0.008739457060738158,0.0006023070284941551,0.0,0.0,0.0,0.0,0.0,0.0,0.0,0.0,0.0
6.89,197,6,890000000,base_footprint,-0.0038731336798283503,1.6730882693556992e-06,0.9999888147820866,0.0027146166242790135,0.0,0.0,0.0,0.0,0.0,0.0,0.0,0.0,0.0,-0.0005383306435689885,9.521966619239885e-05,-0.015914583976569495,0.0,0.0,0.0,0.0,0.0,0.0,0.0,0.0,0.0,-0.057854076144947135,-0.005658663768667176,-0.0014713174446095835,0.0,0.0,0.0,0.0,0.0,0.0,0.0,0.0,0.0
6.924,198,6,924000000,base_footprint,-0.003877425463863976,3.4743230733775735e-06,0.999988226019736,0.0029177699708415224,0.0,0.0,0.0,0.0,0.0,0.0,0.0,0.0,0.0,0.00027377253737256217,0.0001503314678036255,-0.0002571294709034026,0.0,0.0,0.0,0.0,0.0,0.0,0.0,0.0,0.0,0.04921155743028628,-0.007881107099249492,0.0003452115303274095,0.0,0.0,0.0,0.0,0.0,0.0,0.0,0.0,0.0
6.958,199,6,958000000,base_footprint,-0.003872849036532724,1.7067568629636075e-06,0.9999881073940643,0.0029641369510473073,0.0,0.0,0.0,0.0,0.0,0.0,0.0,0.0,0.0,-3.7579629925896134e-05,-0.0002782143936881761,-0.002833940620300623,0.0,0.0,0.0,0.0,0.0,0.0,0.0,0.0,0.0,-0.001508795148628814,0.0017815696618645365,0.0005277350902542378,0.0,0.0,0.0,0.0,0.0,0.0,0.0,0.0,0.0
6.992,200,6,992000000,base_footprint,-0.0038693038835148665,2.318801611329373e-06,0.9999879764173885,0.0030125575076075683,0.0,0.0,0.0,0.0,0.0,0.0,0.0,0.0,0.0,9.543292142882682e-05,-0.0004878038499135405,-0.0029317484017029483,0.0,0.0,0.0,0.0,0.0,0.0,0.0,0.0,0.0,0.003939890900054118,-0.0014447417582786094,0.0006923434012414295,0.0,0.0,0.0,0.0,0.0,0.0,0.0,0.0,0.0
7.026,201,7,26000000,base_footprint,-0.0038648865956841536,2.7470789612543137e-06,0.9999879982636073,0.0030109753901584107,0.0,0.0,0.0,0.0,0.0,0.0,0.0,0.0,0.0,5.9882868259793185e-05,-0.0003538301847724277,2.387634633266041e-05,0.0,0.0,0.0,0.0,0.0,0.0,0.0,0.0,0.0,0.004403299267308209,7.955877707913189e-05,-0.00020036789364056293,0.0,0.0,0.0,0.0,0.0,0.0,0.0,0.0,0.0
7.059,202,7,60000000,base_footprint,-0.0038627189769597854,2.983894819381146e-06,0.9999879973952841,0.003014043558202261,0.0,0.0,0.0,0.0,0.0,0.0,0.0,0.0,0.0,5.023695823783513e-05,-0.0002609027583108298,-0.00035004764472866735,0.0,0.0,0.0,0.0,0.0,0.0,0.0,0.0,0.0,0.005629702026209614,-0.00011877021823443457,-0.00013323036048753758,0.0,0.0,0.0,0.0,0.0,0.0,0.0,0.0,0.0
7.094,203,7,94000000,base_footprint,-0.003862746713840975,2.3597498430781677e-06,0.9999880291130235,0.0030034668147283145,0.0,0.0,0.0,0.0,0.0,0.0,0.0,0.0,0.0,-0.0007276564451754192,0.00039402273494993197,0.024868119238576347,0.0,0.0,0.0,0.0,0.0,0.0,0.0,0.0,0.0,-0.003167014720710285,0.0014344808729042265,-0.000964120843974592,0.0,0.0,0.0,0.0,0.0,0.0,0.0,0.0,0.0
7.128,204,7,128000000,base_footprint,-0.003868439435324945,6.032101103765436e-07,0.9999897927580117,0.0023344283583609073,0.0,0.0,0.0,0.0,0.0,0.0,0.0,0.0,0.0,4.1645595519421575e-05,0.0030684030869374515,0.03808181505327172,0.0,0.0,0.0,0.0,0.0,0.0,0.0,0.0,0.0,-0.08994091413214596,0.006695879599320511,-0.0029740199782166397,0.0,0.0,0.0,0.0,0.0,0.0,0.0,0.0,0.0
7.162,205,7,162000000,base_footprint,-0.0038656683031919907,-8.794031368886087e-07,0.99999008578665,0.0022101891784632164,0.0,0.0,0.0,0.0,0.0,0.0,0.0,0.0,0.0,1.2001820778621246e-05,-5.0182055383450574e-05,-0.0015064581623666113,0.0,0.0,0.0,0.0,0.0,0.0,0.0,0.0,0.0,-0.23095906838187932,0.004705057794152521,0.0009567014885299083,0.0,0.0,0.0,0.0,0.0,0.0,0.0,0.0,0.0
7.196,206,7,196000000,base_footprint,-0.0038698076293746074,-1.2768673787636885e-06,0.999989979108993,0.002250837372426665,0.0,0.0,0.0,0.0,0.0,0.0,0.0,0.0,0.0,0.0009418734957148673,1.769234401872409e-05,-0.010458074261596543,0.0,0.0,0.0,0.0,0.0,0.0,0.0,0.0,0.0,0.0059446726805418276,0.0001143481666053304,0.00016062386098493435,0.0,0.0,0.0,0.0,0.0,0.0,0.0,0.0,0.0
7.23,207,7,230000000,base_footprint,-0.003874806820771733,-8.138636213115753e-07,0.999989515882575,0.0024400812225548814,0.0,0.0,0.0,0.0,0.0,0.0,0.0,0.0,0.0,0.00010856325955462024,6.181651047594455e-05,-0.010732831415781525,0.0,0.0,0.0,0.0,0.0,0.0,0.0,0.0,0.0,0.003984449918362562,-0.003584735474306242,-0.0005249342456155352,0.0,0.0,0.0,0.0,0.0,0.0,0.0,0.0,0.0
7.264,208,7,264000000,base_footprint,-0.0038773687449267934,-3.68506142278523e-08,0.9999890498755993,0.002620332137492162,0.0,0.0,0.0,0.0,0.0,0.0,0.0,0.0,0.0,7.895845671525132e-05,1.4568965002721623e-05,-0.010456335495372946,0.0,0.0,0.0,0.0,0.0,0.0,0.0,0.0,0.0,-0.002261055951767202,-0.002522824593464145,4.353464516857939e-05,0.0,0.0,0.0,0.0,0.0,0.0,0.0,0.0,0.0
7.298,209,7,298000000,base_footprint,-0.003877633217823962,5.662432753253745e-07,0.9999885388567695,0.0028082228206723916,0.0,0.0,0.0,0.0,0.0,0.0,0.0,0.0,0.0,0.0012129167588221866,-0.0038388551985500236,-0.015364549490307923,0.0,0.0,0.0,0.0,0.0,0.0,0.0,0.0,0.0,0.03371299174470619,-0.001574410976901353,0.008261537986414564,0.0,0.0,0.0,0.0,0.0,0.0,0.0,0.0,0.0
7.332,210,7,332000000,base_footprint,-0.0038629176356675936,4.95117884816764e-06,0.9999874863605986,0.0031788307657666503,0.0,0.0,0.0,0.0,0.0,0.0,0.0,0.0,0.0,0.0006636661383554316,-0.0018137580458641453,-0.023926304467157544,0.0,0.0,0.0,0.0,0.0,0.0,0.0,0.0,0.0,0.07297040228353778,-0.012821672692640888,-0.004060273521619505,0.0,0.0,0.0,0.0,0.0,0.0,0.0,0.0,0.0
7.366,211,7,366000000,base_footprint,-0.0038602057969880886,5.776539850069432e-06,0.9999863114518549,0.0035320938195939023,0.0,0.0,0.0,0.0,0.0,0.0,0.0,0.0,0.0,-6.0570793380881226e-05,-0.0006207294487763548,-0.01904496280509087,0.0,0.0,0.0,0.0,0.0,0.0,0.0,0.0,0.0,-0.008954267332639404,0.00953075122168005,-0.000568768675660297,0.0,0.0,0.0,0.0,0.0,0.0,0.0,0.0,0.0
7.4,212,7,400000000,base_footprint,-0.0038672270400334175,5.107562416565439e-07,0.9999849245791145,0.0038980981597197917,0.0,0.0,0.0,0.0,0.0,0.0,0.0,0.0,0.0,0.0007152089968922837,0.001740030334521483,-0.024201831304871697,0.0,0.0,0.0,0.0,0.0,0.0,0.0,0.0,0.0,0.15530468570532527,-0.011219426044081151,-0.005823296774366379,0.0,0.0,0.0,0.0,0.0,0.0,0.0,0.0,0.0
7.434,213,7,434000000,base_footprint,-0.003872507544224543,6.226816626874462e-06,0.9999845639625277,0.0039844050020465685,0.0,0.0,0.0,0.0,0.0,0.0,0.0,0.0,0.0,-3.007952962762202e-05,-0.00032377432454644704,0.00034756605799283774,0.0,0.0,0.0,0.0,0.0,0.0,0.0,0.0,0.0,0.04737827360857857,-0.002235580811865457,0.005182461342219,0.0,0.0,0.0,0.0,0.0,0.0,0.0,0.0,0.0
7.468,214,7,468000000,base_footprint,-0.003869625611054797,6.285264387908262e-06,0.9999846137098913,0.003974707738361651,0.0,0.0,0.0,0.0,0.0,0.0,0.0,0.0,0.0,7.141547763033033e-05,-0.00047516820057279783,0.0005257763402944009,0.0,0.0,0.0,0.0,0.0,0.0,0.0,0.0,0.0,0.004400239893038702,-0.001835710754846148,0.0006180999589450789,0.0,0.0,0.0,0.0,0.0,0.0,0.0,0.0,0.0
7.502,215,7,502000000,base_footprint,-0.003865107029808642,6.76105449633014e-06,0.9999846527409377,0.003969280101316501,0.0,0.0,0.0,0.0,0.0,0.0,0.0,0.0,0.0,5.9836418322709535e-05,-0.00036418052078483846,0.0001543916879320654,0.0,0.0,0.0,0.0,0.0,0.0,0.0,0.0,0.0,0.005364932917164214,0.00018198170199083604,-0.00015932659539087926,0.0,0.0,0.0,0.0,0.0,0.0,0.0,0.0,0.0
7.536,216,7,536000000,base_footprint,-0.003862801722596331,7.0235990187319385e-06,0.9999846571515026,0.003970412461298487,0.0,0.0,0.0,0.0,0.0,0.0,0.0,0.0,0.0,4.9662302937872344e-05,-0.0002671714353100991,-0.00024927714249597027,0.0,0.0,0.0,0.0,0.0,0.0,0.0,0.0,0.0,0.005628948676218355,-0.00010976345194527898,-0.00013915726019561646,0.0,0.0,0.0,0.0,0.0,0.0,0.0,0.0,0.0
7.57,217,7,570000000,base_footprint,-0.0038621968430825318,7.081615772900061e-06,0.9999846270319224,0.003978578291707115,0.0,0.0,0.0,0.0,0.0,0.0,0.0,0.0,0.0,3.796036871267131e-05,-0.0001882226486414823,-0.0006720191891722359,0.0,0.0,0.0,0.0,0.0,0.0,0.0,0.0,0.0,0.005666355444892604,-0.0002555033421088178,-0.00011519223279045098,0.0,0.0,0.0,0.0,0.0,0.0,0.0,0.0,0.0
7.604,218,7,604000000,base_footprint,-0.0038630892298844046,6.91353693027542e-06,0.99998456218774,0.003993980470541382,0.0,0.0,0.0,0.0,0.0,0.0,0.0,0.0,0.0,2.357587141756102e-05,-0.00010895973379371099,-0.0010994980091069985,0.0,0.0,0.0,0.0,0.0,0.0,0.0,0.0,0.0,0.00562564417653501,-0.00038903982010177017,-0.00012702015153236948,0.0,0.0,0.0,0.0,0.0,0.0,0.0,0.0,0.0
7.638,219,7,638000000,base_footprint,-0.003865571552321836,6.470403421990449e-06,0.9999844622176726,0.004016545523215995,0.0,0.0,0.0,0.0,0.0,0.0,0.0,0.0,0.0,4.6300769242458925e-06,-1.2012377025274852e-05,-0.0015111076490580484,0.0,0.0,0.0,0.0,0.0,0.0,0.0,0.0,0.0,0.005473391006115962,-0.0005209989124424902,-0.0001745179190380733,0.0,0.0,0.0,0.0,0.0,0.0,0.0,0.0,0.0
7.672,220,7,672000000,base_footprint,-0.0038700045187318103,5.67045552130311e-06,0.9999843276409669,0.004045677361646565,0.0,0.0,0.0,0.0,0.0,0.0,0.0,0.0,0.0,-2.0771112935920904e-05,0.000118662897063821,-0.0018624232549794286,0.0,0.0,0.0,0.0,0.0,0.0,0.0,0.0,0.0,0.004944323911628592,-0.0006507261884235824,-0.00025814369225906746,0.0,0.0,0.0,0.0,0.0,0.0,0.0,0.0,0.0
7.706,221,7,706000000,base_footprint,-0.0038747608211390514,6.05169159994022e-06,0.999984181716759,0.004077071034465402,0.0,0.0,0.0,0.0,0.0,0.0,0.0,0.0,0.0,1.975729450749129e-05,5.911524987739232e-05,-0.00178550049567504,0.0,0.0,0.0,0.0,0.0,0.0,0.0,0.0,0.0,0.0028443212923323774,-0.0012076409053097573,-7.738955177366048e-05,0.0,0.0,0.0,0.0,0.0,0.0,0.0,0.0,0.0
7.74,222,7,740000000,base_footprint,-0.003877501958756083,6.058996097977989e-06,0.9999840528885854,0.004105960346545092,0.0,0.0,0.0,0.0,0.0,0.0,0.0,0.0,0.0,5.967823718840742e-09,2.4942503057072452e-05,-0.0015977868792063673,0.0,0.0,0.0,0.0,0.0,0.0,0.0,0.0,0.0,-0.0032351398987820797,-0.00047265721291611353,2.5367322965000883e-05,0.0,0.0,0.0,0.0,0.0,0.0,0.0,0.0,0.0
7.774,223,7,774000000,base_footprint,-0.0038784780514120308,5.709099770738121e-06,0.9999839287916882,0.00413515824981865,0.0,0.0,0.0,0.0,0.0,0.0,0.0,0.0,0.0,-1.2838336141187731e-05,-0.0002252433797175357,-0.002008177711450352,0.0,0.0,0.0,0.0,0.0,0.0,0.0,0.0,0.0,-0.007997976599552429,-0.002543472818944072,0.0004074295965568471,0.0,0.0,0.0,0.0,0.0,0.0,0.0,0.0,0.0
7.808,224,7,808000000,base_footprint,-0.0038730955551696256,5.936682808342466e-06,0.9999835767675844,0.004224368672969385,0.0,0.0,0.0,0.0,0.0,0.0,0.0,0.0,0.0,-0.00017656119084712065,-0.0006842086244419499,-0.012127270074383856,0.0,0.0,0.0,0.0,0.0,0.0,0.0,0.0,0.0,-0.020748558007922413,0.011551604569258533,0.0006580284985266234,0.0,0.0,0.0,0.0,0.0,0.0,0.0,0.0,0.0
7.8420000000000005,225,7,842000000,base_footprint,-0.0038715178329364755,6.607718390922608e-06,0.9999819511993524,0.0045944076379339635,0.0,0.0,0.0,0.0,0.0,0.0,0.0,0.0,0.0,-0.00047323850895056454,-0.00017250954898939629,-0.021419372415745926,0.0,0.0,0.0,0.0,0.0,0.0,0.0,0.0,0.0,-0.06551528219717291,-0.010241704265202914,-0.0009814957918998545,0.0,0.0,0.0,0.0,0.0,0.0,0.0,0.0,0.0
7.876,226,7,876000000,base_footprint,-0.003875402126659738,8.600436072723936e-06,0.9999807882412365,0.004837802478902676,0.0,0.0,0.0,0.0,0.0,0.0,0.0,0.0,0.0,0.000908978616860855,0.0007601094487794814,0.0008711000725593231,0.0,0.0,0.0,0.0,0.0,0.0,0.0,0.0,0.0,0.05554640317880526,-0.008120887278636961,-0.0013729308550406271,0.0,0.0,0.0,0.0,0.0,0.0,0.0,0.0,0.0
7.91,227,7,910000000,base_footprint,-0.0038727106512098514,7.816191602236812e-06,0.9999826059645311,0.004448574997074093,0.0,0.0,0.0,0.0,0.0,0.0,0.0,0.0,0.0,-0.0009276592197805465,0.00017005349558272382,0.04784259569678129,0.0,0.0,0.0,0.0,0.0,0.0,0.0,0.0,0.0,-0.007607006964307647,0.005158202030242655,0.000671446223821917,0.0,0.0,0.0,0.0,0.0,0.0,0.0,0.0,0.0
7.944,228,7,944000000,base_footprint,-0.0038667884688833257,3.819607013974076e-06,0.999985408908063,0.0037722544084235663,0.0,0.0,0.0,0.0,0.0,0.0,0.0,0.0,0.0,-0.0024460340176112993,-0.0005966397600305841,-0.0005397598244911745,0.0,0.0,0.0,0.0,0.0,0.0,0.0,0.0,0.0,-0.32797974916190004,0.01626522095362607,-0.0014162780351854344,0.0,0.0,0.0,0.0,0.0,0.0,0.0,0.0,0.0
7.978,229,7,978000000,base_footprint,-0.0038648883747806197,5.399028014261164e-06,0.9999854092717028,0.003774102861099833,0.0,0.0,0.0,0.0,0.0,0.0,0.0,0.0,0.0,5.666357895613855e-05,-0.00046125490630559885,6.767746567954767e-05,0.0,0.0,0.0,0.0,0.0,0.0,0.0,0.0,0.0,0.0071796289097403885,-0.0007656575703421671,0.0003746629485942347,0.0,0.0,0.0,0.0,0.0,0.0,0.0,0.0,0.0
8.012,230,8,12000000,base_footprint,-0.0038627809078729818,5.68057174879402e-06,0.9999854101327893,0.0037760313751523784,0.0,0.0,0.0,0.0,0.0,0.0,0.0,0.0,0.0,5.191584574080592e-05,-0.00026107074413913466,-0.0002619085001343026,0.0,0.0,0.0,0.0,0.0,0.0,0.0,0.0,0.0,0.005287336261571818,-0.00013959920911009823,-0.0002587706594574753,0.0,0.0,0.0,0.0,0.0,0.0,0.0,0.0,0.0
8.046,231,8,46000000,base_footprint,-0.003862190325674232,5.794569279789244e-06,0.9999853827838814,0.003783869829347261,0.0,0.0,0.0,0.0,0.0,0.0,0.0,0.0,0.0,4.225493886137854e-05,-0.0001914070460579686,-0.0006225982478734155,0.0,0.0,0.0,0.0,0.0,0.0,0.0,0.0,0.0,0.005359898370375073,-0.00022977459277295602,-9.891289535825447e-05,0.0,0.0,0.0,0.0,0.0,0.0,0.0,0.0,0.0
8.08,232,8,80000000,base_footprint,-0.0038629412685502688,5.721520256066145e-06,0.9999853264733751,0.0037979586566422373,0.0,0.0,0.0,0.0,0.0,0.0,0.0,0.0,0.0,3.027355765791024e-05,-0.0001213346017495934,-0.0009959338553555213,0.0,0.0,0.0,0.0,0.0,0.0,0.0,0.0,0.0,0.005327893605394786,-0.0003418622106372468,-0.0001094099163384106,0.0,0.0,0.0,0.0,0.0,0.0,0.0,0.0,0.0
8.114,233,8,114000000,base_footprint,-0.003864756627567579,3.5330960240950147e-06,0.9999870312866249,0.003316760812861798,0.0,0.0,0.0,0.0,0.0,0.0,0.0,0.0,0.0,-0.00034917861953781017,-1.1834037709674647e-05,0.04729781580705465,0.0,0.0,0.0,0.0,0.0,0.0,0.0,0.0,0.0,-0.016589839100930828,0.005324553277537647,-0.00029312073253574236,0.0,0.0,0.0,0.0,0.0,0.0,0.0,0.0,0.0
8.148,234,8,148000000,base_footprint,-0.003870474561685981,8.390443755282331e-07,0.9999885942174895,0.0027983675406394394,0.0,0.0,0.0,0.0,0.0,0.0,0.0,0.0,0.0,-0.0003384181706663311,-0.0005710226021433414,-0.0014679316403708538,0.0,0.0,0.0,0.0,0.0,0.0,0.0,0.0,0.0,-0.3160586280149145,0.011276530684233165,-0.0017587468805740961,0.0,0.0,0.0,0.0,0.0,0.0,0.0,0.0,0.0
8.182,235,8,182000000,base_footprint,-0.003873748869347731,4.734977145069616e-07,0.9999884986536342,0.002827831311073739,0.0,0.0,0.0,0.0,0.0,0.0,0.0,0.0,0.0,-7.7180916433125e-06,4.858574710366736e-05,-0.0016570534380277318,0.0,0.0,0.0,0.0,0.0,0.0,0.0,0.0,0.0,0.005496050331744218,-0.0017632284429631164,-0.001023322762530118,0.0,0.0,0.0,0.0,0.0,0.0,0.0,0.0,0.0
8.216,236,8,216000000,base_footprint,-0.0038660073254147827,2.318711509586837e-06,0.9999879744582025,0.003017436157543118,0.0,0.0,0.0,0.0,0.0,0.0,0.0,0.0,0.0,0.00020286619822315402,-0.00030892541143830344,-0.01979580561440339,0.0,0.0,0.0,0.0,0.0,0.0,0.0,0.0,0.0,0.3321237399997298,-0.007536556103045684,0.0035330869909415063,0.0,0.0,0.0,0.0,0.0,0.0,0.0,0.0,0.0
8.25,237,8,250000000,base_footprint,-0.0038655823141874554,5.742780152841414e-06,0.9999868648951834,0.0033656020999447357,0.0,0.0,0.0,0.0,0.0,0.0,0.0,0.0,0.0,-0.0002257491610368567,0.00013316806205879072,-0.021828789699260946,0.0,0.0,0.0,0.0,0.0,0.0,0.0,0.0,0.0,0.3136631035349696,-0.006072398319700399,0.0011900676093025723,0.0,0.0,0.0,0.0,0.0,0.0,0.0,0.0,0.0
8.284,238,8,284000000,base_footprint,-0.0038758387396112147,1.4336684140930376e-06,0.9999863420140025,0.0035062312336283743,0.0,0.0,0.0,0.0,0.0,0.0,0.0,0.0,0.0,0.000350941379537598,-0.00012776293363402907,-0.001286988458337419,0.0,0.0,0.0,0.0,0.0,0.0,0.0,0.0,0.0,0.021673159889225475,-0.003562270379882951,0.0007042415196285971,0.0,0.0,0.0,0.0,0.0,0.0,0.0,0.0,0.0
8.318,239,8,318000000,base_footprint,-0.0038680373733016374,4.246728621659687e-06,0.9999856091039239,0.0037175064086825546,0.0,0.0,0.0,0.0,0.0,0.0,0.0,0.0,0.0,0.0005485923903514838,-0.0003172375923458109,-0.022702000912161218,0.0,0.0,0.0,0.0,0.0,0.0,0.0,0.0,0.0,-0.1035831700205309,0.0024917464894774672,-0.0005186577684978442,0.0,0.0,0.0,0.0,0.0,0.0,0.0,0.0,0.0
8.352,240,8,352000000,base_footprint,-0.0038752214012062586,8.679974253077568e-06,0.9999859602108666,0.003614134045796169,0.0,0.0,0.0,0.0,0.0,0.0,0.0,0.0,0.0,-0.0008237562257028076,-0.0004623068020837678,0.04956289950863207,0.0,0.0,0.0,0.0,0.0,0.0,0.0,0.0,0.0,-0.16305733995614044,0.0033739594942868503,-0.0007812362316308504,0.0,0.0,0.0,0.0,0.0,0.0,0.0,0.0,0.0
8.386,241,8,386000000,base_footprint,-0.003874029836718954,-1.320317666150046e-06,0.9999900326152145,0.0022195858405238,0.0,0.0,0.0,0.0,0.0,0.0,0.0,0.0,0.0,-0.0007728395763145697,0.000240158123885642,0.08974296554192647,0.0,0.0,0.0,0.0,0.0,0.0,0.0,0.0,0.0,-0.11961315599641924,0.014347843211443487,-0.0020995561975463923,0.0,0.0,0.0,0.0,0.0,0.0,0.0,0.0,0.0
8.42,242,8,420000000,base_footprint,-0.0038538665551990444,-4.69518576974587e-06,0.9999921088714405,0.0009643056460717096,0.0,0.0,0.0,0.0,0.0,0.0,0.0,0.0,0.0,-0.0003580281149865708,-0.0002838896417218681,0.051803636376510295,0.0,0.0,0.0,0.0,0.0,0.0,0.0,0.0,0.0,0.379159698557336,0.015568563141872991,0.0037944884657643892,0.0,0.0,0.0,0.0,0.0,0.0,0.0,0.0,0.0
8.454,243,8,454000000,base_footprint,-0.0038649358060395874,-1.0920064785735025e-05,0.9999924746781219,-0.00033576642668450694,0.0,0.0,0.0,0.0,0.0,0.0,0.0,0.0,0.0,-0.0005641155150444028,-0.001068834462514334,0.08541778606544365,0.0,0.0,0.0,0.0,0.0,0.0,0.0,0.0,0.0,-0.033638458786158426,0.015838407591108817,0.0009080874360336007,0.0,0.0,0.0,0.0,0.0,0.0,0.0,0.0,0.0
8.488,244,8,488000000,base_footprint,-0.0038627989801901176,-1.5936289652960035e-05,0.9999909431238635,-0.0017866729749602525,0.0,0.0,0.0,0.0,0.0,0.0,0.0,0.0,0.0,-0.0005890776454218419,-0.0002829152266507287,0.08524022583993567,0.0,0.0,0.0,0.0,0.0,0.0,0.0,0.0,0.0,0.0062592525011143495,0.01888229388484531,-0.000966857427380495,0.0,0.0,0.0,0.0,0.0,0.0,0.0,0.0,0.0
8.522,245,8,522000000,base_footprint,-0.0038612927107891867,-2.0983043911883002e-05,0.999987445529844,-0.0031935499074031157,0.0,0.0,0.0,0.0,0.0,0.0,0.0,0.0,0.0,-0.0005637907961443599,-0.0005764441893487299,0.08186586293689652,0.0,0.0,0.0,0.0,0.0,0.0,0.0,0.0,0.0,-0.32994359749594393,0.013801833085437521,-0.0023104517531951055,0.0,0.0,0.0,0.0,0.0,0.0,0.0,0.0,0.0
8.556000000000001,246,8,556000000,base_footprint,-0.00386210357730273,-2.6168812765082935e-05,0.9999820189500358,-0.004587509974025918,0.0,0.0,0.0,0.0,0.0,0.0,0.0,0.0,0.0,-0.0005831617421449096,-0.00014114047850574481,0.08191336320547757,0.0,0.0,0.0,0.0,0.0,0.0,0.0,0.0,0.0,0.0004203560483381456,0.017096057030426055,-0.000526519096827183,0.0,0.0,0.0,0.0,0.0,0.0,0.0,0.0,0.0
8.59,247,8,590000000,base_footprint,-0.0038637743867796443,-3.1479562453560074e-05,0.99997467542852,-0.005976517225874305,0.0,0.0,0.0,0.0,0.0,0.0,0.0,0.0,0.0,-0.0005905296717093858,-7.255353006229865e-05,0.08156305293742433,0.0,0.0,0.0,0.0,0.0,0.0,0.0,0.0,0.0,0.0048990172240544584,0.016997412437530935,-0.00012362956065150888,0.0,0.0,0.0,0.0,0.0,0.0,0.0,0.0,0.0
8.624,248,8,624000000,base_footprint,-0.0038671696607495715,-3.670438273746502e-05,0.9999660084490556,-0.007281867759479613,0.0,0.0,0.0,0.0,0.0,0.0,0.0,0.0,0.0,-0.0005473144114789933,5.514703321701188e-05,0.07293432454189006,0.0,0.0,0.0,0.0,0.0,0.0,0.0,0.0,0.0,-0.3391626871381291,0.006193696807685658,-0.0027777985457885404,0.0,0.0,0.0,0.0,0.0,0.0,0.0,0.0,0.0
8.658,249,8,658000000,base_footprint,-0.003871629595946159,-4.176167494382362e-05,0.9999562693947398,-0.00851281612564069,0.0,0.0,0.0,0.0,0.0,0.0,0.0,0.0,0.0,-0.0005681892552290527,8.848956796338891e-05,0.07223102070928963,0.0,0.0,0.0,0.0,0.0,0.0,0.0,0.0,0.0,0.008944287570187016,0.014228696003527615,-0.00018535109275726413,0.0,0.0,0.0,0.0,0.0,0.0,0.0,0.0,0.0
8.692,250,8,692000000,base_footprint,-0.003875307101715736,-4.6795098182975695e-05,0.9999450814545486,-0.009737241906336897,0.0,0.0,0.0,0.0,0.0,0.0,0.0,0.0,0.0,-0.0005890201835625987,4.5595017232647634e-05,0.07162738036160309,0.0,0.0,0.0,0.0,0.0,0.0,0.0,0.0,0.0,0.0009695226862450443,0.01319432727546574,-0.00010577396064341596,0.0,0.0,0.0,0.0,0.0,0.0,0.0,0.0,0.0
8.726,251,8,726000000,base_footprint,-0.0038643026824551688,-5.044524117953241e-05,0.9999349645777241,-0.01072992241359569,0.0,0.0,0.0,0.0,0.0,0.0,0.0,0.0,0.0,-0.00036412603382777315,-0.00024516800570886576,0.05511114800890058,0.0,0.0,0.0,0.0,0.0,0.0,0.0,0.0,0.0,0.3896694711922706,0.02919042459416497,0.0038449598229638293,0.0,0.0,0.0,0.0,0.0,0.0,0.0,0.0,0.0
8.76,252,8,760000000,base_footprint,-0.0038634461162082613,-5.328300390118645e-05,0.9999256682388715,-0.011564123056900072,0.0,0.0,0.0,0.0,0.0,0.0,0.0,0.0,0.0,-0.0002154484539511543,-0.00039039653200413085,0.041850067716513006,0.0,0.0,0.0,0.0,0.0,0.0,0.0,0.0,0.0,0.20008411825673988,0.015779172026873223,0.0020132279529625624,0.0,0.0,0.0,0.0,0.0,0.0,0.0,0.0,0.0
8.794,253,8,794000000,base_footprint,-0.0038663087882186606,-4.880262099578348e-05,0.9999187984897457,-0.01214272216109589,0.0,0.0,0.0,0.0,0.0,0.0,0.0,0.0,0.0,0.0015996622413601354,0.0039009642849564957,0.03355546956779452,0.0,0.0,0.0,0.0,0.0,0.0,0.0,0.0,0.0,0.0009812307145779385,0.00877324351859729,-0.0063208487691083,0.0,0.0,0.0,0.0,0.0,0.0,0.0,0.0,0.0
8.828,254,8,828000000,base_footprint,-0.003866397862333933,-5.904213800596243e-05,0.9999145544795524,-0.012487242351877438,0.0,0.0,0.0,0.0,0.0,0.0,0.0,0.0,0.0,-0.00017042554548715678,-0.0010929522709648665,0.01026603543964329,0.0,0.0,0.0,0.0,0.0,0.0,0.0,0.0,0.0,-0.21467911759206942,0.0007411682187353544,0.0045978761335937375,0.0,0.0,0.0,0.0,0.0,0.0,0.0,0.0,0.0
8.862,255,8,862000000,base_footprint,-0.003873421178566228,-6.19539020127404e-05,0.9999047478985363,-0.013247184608515632,0.0,0.0,0.0,0.0,0.0,0.0,0.0,0.0,0.0,-0.0007836240333622075,0.0005830987411094595,0.045943729146682814,0.0,0.0,0.0,0.0,0.0,0.0,0.0,0.0,0.0,-0.06576760037868629,-0.00013698598327853688,-0.0024910109644415614,0.0,0.0,0.0,0.0,0.0,0.0,0.0,0.0,0.0
8.896,256,8,896000000,base_footprint,-0.0038590999160364988,-6.514012622760106e-05,0.9998935075409451,-0.014073971794348644,0.0,0.0,0.0,0.0,0.0,0.0,0.0,0.0,0.0,0.0007851056610344319,-0.0071179375674275255,0.0557356748342426,0.0,0.0,0.0,0.0,0.0,0.0,0.0,0.0,0.0,0.05672460154437496,0.01753718432715759,0.014112291639133702,0.0,0.0,0.0,0.0,0.0,0.0,0.0,0.0,0.0
8.93,257,8,930000000,base_footprint,-0.0038598545468437676,-6.248732281374031e-05,0.9998878626812326,-0.014469266773687647,0.0,0.0,0.0,0.0,0.0,0.0,0.0,0.0,0.0,-0.0016407068684779153,0.002807072922671043,-0.0266175491483236,0.0,0.0,0.0,0.0,0.0,0.0,0.0,0.0,0.0,0.29153929855235183,0.01923488654636432,-0.015358274362618173,0.0,0.0,0.0,0.0,0.0,0.0,0.0,0.0,0.0
8.964,258,8,964000000,base_footprint,-0.003862903019213029,-6.367216298336562e-05,0.999895050823229,-0.013962853051298902,0.0,0.0,0.0,0.0,0.0,0.0,0.0,0.0,0.0,0.0003493387534718105,-0.0003023597210370377,-0.029876150772085098,0.0,0.0,0.0,0.0,0.0,0.0,0.0,0.0,0.0,0.016660654160863913,-0.00416861726799805,0.005913755524135721,0.0,0.0,0.0,0.0,0.0,0.0,0.0,0.0,0.0
8.998,259,8,998000000,base_footprint,-0.0038758586191875023,-6.153640897638362e-05,0.9999019938750274,-0.013452753546357218,0.0,0.0,0.0,0.0,0.0,0.0,0.0,0.0,0.0,0.0002305407488078863,0.0020193684747703963,-0.03006058482992771,0.0,0.0,0.0,0.0,0.0,0.0,0.0,0.0,0.0,-0.16935923705924472,-0.011201506326531076,0.0005743155792696428,0.0,0.0,0.0,0.0,0.0,0.0,0.0,0.0,0.0
9.032,260,9,32000000,base_footprint,-0.003852803747410823,-6.000430783976457e-05,0.9999002321534124,-0.01358962995519609,0.0,0.0,0.0,0.0,0.0,0.0,0.0,0.0,0.0,-0.0003707838788544013,0.0016539011024237858,0.04519695300477299,0.0,0.0,0.0,0.0,0.0,0.0,0.0,0.0,0.0,-0.3935852565405129,-0.03136452386929597,-0.006541514404965911,0.0,0.0,0.0,0.0,0.0,0.0,0.0,0.0,0.0
9.066,261,9,66000000,base_footprint,-0.0038616242545588585,-5.914978861922088e-05,0.9999043702665611,-0.013279106944789799,0.0,0.0,0.0,0.0,0.0,0.0,0.0,0.0,0.0,0.0003770281436757615,-9.985331388047812e-05,-0.03750147711513893,0.0,0.0,0.0,0.0,0.0,0.0,0.0,0.0,0.0,0.24202379701153115,0.016085358115993785,0.0030360350843578747,0.0,0.0,0.0,0.0,0.0,0.0,0.0,0.0,0.0
9.1,262,9,100000000,base_footprint,-0.003864446031286608,-5.725988195974339e-05,0.9999124653714773,-0.012654025956649254,0.0,0.0,0.0,0.0,0.0,0.0,0.0,0.0,0.0,0.0003014608170188005,-0.0023169907823598276,-0.03128374766528334,0.0,0.0,0.0,0.0,0.0,0.0,0.0,0.0,0.0,-0.19629626139407652,-0.014012537181266129,0.0009491435448971171,0.0,0.0,0.0,0.0,0.0,0.0,0.0,0.0,0.0
9.134,263,9,134000000,base_footprint,-0.0038594650675990144,-5.771374782830781e-05,0.9999107777118587,-0.012788190418564575,0.0,0.0,0.0,0.0,0.0,0.0,0.0,0.0,0.0,-0.0010498538162925285,-0.0026155909128270606,0.0413089553841731,0.0,0.0,0.0,0.0,0.0,0.0,0.0,0.0,0.0,-0.3329022252721753,-0.024426985780324456,-0.0006228065745041136,0.0,0.0,0.0,0.0,0.0,0.0,0.0,0.0,0.0
9.168,264,9,168000000,base_footprint,-0.0038714776178999277,-5.612943340220145e-05,0.9999139862153887,-0.012531108546021278,0.0,0.0,0.0,0.0,0.0,0.0,0.0,0.0,0.0,0.00021534570082340254,0.00018514326042518933,-0.031716043081825705,0.0,0.0,0.0,0.0,0.0,0.0,0.0,0.0,0.0,0.20056474869287474,0.011767513072732898,-0.00378529740059358,0.0,0.0,0.0,0.0,0.0,0.0,0.0,0.0,0.0
9.202,265,9,202000000,base_footprint,-0.003863013549889081,-5.509177305819688e-05,0.9999177065635931,-0.012233323007836083,0.0,0.0,0.0,0.0,0.0,0.0,0.0,0.0,0.0,-0.0033114149359282866,0.0010524712258636647,0.04996218155348552,0.0,0.0,0.0,0.0,0.0,0.0,0.0,0.0,0.0,-0.04129373526056402,-0.008650806291820724,-0.003995856124004481,0.0,0.0,0.0,0.0,0.0,0.0,0.0,0.0,0.0
9.236,266,9,236000000,base_footprint,-0.003863596645440716,-5.911527202711772e-05,0.9999070822745959,-0.013072717523551018,0.0,0.0,0.0,0.0,0.0,0.0,0.0,0.0,0.0,-0.00027821345930828653,-0.0023599963232778546,0.04386036360332591,0.0,0.0,0.0,0.0,0.0,0.0,0.0,0.0,0.0,0.06830608828707461,0.014509693965052708,0.008560621902861996,0.0,0.0,0.0,0.0,0.0,0.0,0.0,0.0,0.0
9.27,267,9,270000000,base_footprint,-0.0038617479608877786,-6.209789931226886e-05,0.9998993232867027,-0.013653803035479422,0.0,0.0,0.0,0.0,0.0,0.0,0.0,0.0,0.0,-1.4762232800179394e-06,-0.0003177582010873462,0.023976736559258065,0.0,0.0,0.0,0.0,0.0,0.0,0.0,0.0,0.0,0.14488097709109127,0.011707663701778726,-0.0017933675905028735,0.0,0.0,0.0,0.0,0.0,0.0,0.0,0.0,0.0
9.304,268,9,304000000,base_footprint,-0.0038608248605026584,-6.101645902125211e-05,0.999895351319096,-0.013941905137024405,0.0,0.0,0.0,0.0,0.0,0.0,0.0,0.0,0.0,-0.0001474854018806091,-1.9724300769458502e-05,0.026931276369864275,0.0,0.0,0.0,0.0,0.0,0.0,0.0,0.0,0.0,-0.019662219695734038,0.0044887654679863,-0.001602977384934344,0.0,0.0,0.0,0.0,0.0,0.0,0.0,0.0,0.0
9.338,269,9,338000000,base_footprint,-0.0038520245680264743,-6.188441776447802e-05,0.9998793182780281,-0.015050148069442291,0.0,0.0,0.0,0.0,0.0,0.0,0.0,0.0,0.0,-0.000920641000759599,0.0018423573727295605,0.09595330013838782,0.0,0.0,0.0,0.0,0.0,0.0,0.0,0.0,0.0,0.06807927918968767,0.024631861096625494,-6.871387318647498e-05,0.0,0.0,0.0,0.0,0.0,0.0,0.0,0.0,0.0
9.372,270,9,372000000,base_footprint,-0.003858924609143004,-6.32422482403658e-05,0.9998559572661574,-0.016527837748940868,0.0,0.0,0.0,0.0,0.0,0.0,0.0,0.0,0.0,-0.0003706438693902856,9.651128530640693e-05,0.06159993603000059,0.0,0.0,0.0,0.0,0.0,0.0,0.0,0.0,0.0,0.15537960528227104,0.02599427564791834,0.002282172482447848,0.0,0.0,0.0,0.0,0.0,0.0,0.0,0.0,0.0
9.406,271,9,406000000,base_footprint,-0.003869299859458416,-7.297718122929512e-05,0.9998483424638054,-0.016979848801139574,0.0,0.0,0.0,0.0,0.0,0.0,0.0,0.0,0.0,-0.00012846098128511092,0.0005043385705445009,0.006266776931279125,0.0,0.0,0.0,0.0,0.0,0.0,0.0,0.0,0.0,-0.16926106986043626,-0.007765710180249082,-0.0015496638657340948,0.0,0.0,0.0,0.0,0.0,0.0,0.0,0.0,0.0
9.44,272,9,440000000,base_footprint,-0.0038575769878352066,-7.051968834212026e-05,0.9998373860794156,-0.017615774880433085,0.0,0.0,0.0,0.0,0.0,0.0,0.0,0.0,0.0,-0.000477327621407761,-0.0007427769022625083,0.043773315095505354,0.0,0.0,0.0,0.0,0.0,0.0,0.0,0.0,0.0,-0.10266105292520997,0.0009229688924215322,0.000690757497613324,0.0,0.0,0.0,0.0,0.0,0.0,0.0,0.0,0.0
9.474,273,9,474000000,base_footprint,-0.0038621038448475647,-7.507322245014278e-05,0.9998410537074632,-0.017405339383441725,0.0,0.0,0.0,0.0,0.0,0.0,0.0,0.0,0.0,0.00034670917754677796,-0.00029759286117193347,-0.03242316077321514,0.0,0.0,0.0,0.0,0.0,0.0,0.0,0.0,0.0,0.20418628535207708,0.011881036610591166,0.0011749320651351857,0.0,0.0,0.0,0.0,0.0,0.0,0.0,0.0,0.0
9.508,274,9,508000000,base_footprint,-0.003866824532925775,-7.279154296827299e-05,0.9998506052933628,-0.016846645479706702,0.0,0.0,0.0,0.0,0.0,0.0,0.0,0.0,0.0,0.00047533724784874147,0.0001765282216798721,-0.03276143595266291,0.0,0.0,0.0,0.0,0.0,0.0,0.0,0.0,0.0,-0.4541663903208475,-0.038691253377456915,-0.00395096450003999,0.0,0.0,0.0,0.0,0.0,0.0,0.0,0.0,0.0
9.542,275,9,542000000,base_footprint,-0.0038592074921483103,-7.317901849939964e-05,0.9998454277881442,-0.017152891695186676,0.0,0.0,0.0,0.0,0.0,0.0,0.0,0.0,0.0,-0.00017686397721174897,-0.0013839565554756462,0.04599097445712097,0.0,0.0,0.0,0.0,0.0,0.0,0.0,0.0,0.0,-0.2328630916874402,-0.008984902165804148,-0.0005102655200473582,0.0,0.0,0.0,0.0,0.0,0.0,0.0,0.0,0.0
9.576,276,9,576000000,base_footprint,-0.0038604303818076235,-7.580633253941507e-05,0.9998316652008581,-0.017936905874379495,0.0,0.0,0.0,0.0,0.0,0.0,0.0,0.0,0.0,-0.00028315168016881037,-0.00013155363081254634,0.04597165975164227,0.0,0.0,0.0,0.0,0.0,0.0,0.0,0.0,0.0,0.001069806388058651,0.005408420640613887,-0.0012005949446813379,0.0,0.0,0.0,0.0,0.0,0.0,0.0,0.0,0.0
9.61,277,9,610000000,base_footprint,-0.0038651384071695795,-8.002849446064695e-05,0.9998160904519557,-0.01878402443302318,0.0,0.0,0.0,0.0,0.0,0.0,0.0,0.0,0.0,-0.0004902805815538496,-0.0005913529390225677,0.06092193610905346,0.0,0.0,0.0,0.0,0.0,0.0,0.0,0.0,0.0,-0.4729799547898107,-0.026886565907697228,-0.0029007568231507143,0.0,0.0,0.0,0.0,0.0,0.0,0.0,0.0,0.0
9.644,278,9,644000000,base_footprint,-0.0038588736143003468,-8.545414628623722e-05,0.9997837121912432,-0.020436013043529298,0.0,0.0,0.0,0.0,0.0,0.0,0.0,0.0,0.0,0.00010459405085889691,-4.9925232008742995e-05,0.06446729398112792,0.0,0.0,0.0,0.0,0.0,0.0,0.0,0.0,0.0,0.09332510703807677,0.018690266014933798,9.987235594940595e-05,0.0,0.0,0.0,0.0,0.0,0.0,0.0,0.0,0.0
9.678,279,9,678000000,base_footprint,-0.0038685672718563654,-8.843061424407998e-05,0.9997668858856845,-0.021241474848290157,0.0,0.0,0.0,0.0,0.0,0.0,0.0,0.0,0.0,-0.00027189301177228285,1.7320323241770993e-05,0.046604927065165835,0.0,0.0,0.0,0.0,0.0,0.0,0.0,0.0,0.0,0.04934974041542106,0.01756323946610211,-0.00018902920148614513,0.0,0.0,0.0,0.0,0.0,0.0,0.0,0.0,0.0
9.712,280,9,712000000,base_footprint,-0.003858853985222549,-9.264950067115555e-05,0.9997459371062033,-0.022207248853248998,0.0,0.0,0.0,0.0,0.0,0.0,0.0,0.0,0.0,-0.0005073304879576433,-0.0010582065480276921,0.08104502562911839,0.0,0.0,0.0,0.0,0.0,0.0,0.0,0.0,0.0,-0.36335419187873347,-0.02160752535962391,-0.0012691035638526657,0.0,0.0,0.0,0.0,0.0,0.0,0.0,0.0,0.0
9.746,281,9,746000000,base_footprint,-0.003866293407851484,-9.584883004991785e-05,0.9997123575797158,-0.023669488602265802,0.0,0.0,0.0,0.0,0.0,0.0,0.0,0.0,0.0,6.018723950449386e-05,2.926889826812014e-05,0.04600225204396453,0.0,0.0,0.0,0.0,0.0,0.0,0.0,0.0,0.0,-0.005447231789191824,0.013085579249516704,-0.001615092479003717,0.0,0.0,0.0,0.0,0.0,0.0,0.0,0.0,0.0
9.78,282,9,780000000,base_footprint,-0.0038744442575114296,-9.91016167036536e-05,0.9996984635533686,-0.024247903612464632,0.0,0.0,0.0,0.0,0.0,0.0,0.0,0.0,0.0,-0.000248089175267894,-0.00019467931844851177,0.033533910877044625,0.0,0.0,0.0,0.0,0.0,0.0,0.0,0.0,0.0,0.03223716209970311,0.00585596350045597,0.0005027140275939899,0.0,0.0,0.0,0.0,0.0,0.0,0.0,0.0,0.0
9.814,283,9,814000000,base_footprint,-0.0038518355826631916,-0.0001026157116054612,0.9996770342830492,-0.02511931447526128,0.0,0.0,0.0,0.0,0.0,0.0,0.0,0.0,0.0,0.001540766748229823,0.001420533242321107,0.08627775596888455,0.0,0.0,0.0,0.0,0.0,0.0,0.0,0.0,0.0,-0.17406784043146364,-0.0025441017329099922,-0.005303481231281821,0.0,0.0,0.0,0.0,0.0,0.0,0.0,0.0,0.0
9.848,284,9,848000000,base_footprint,-0.0038640601834301425,-0.00011024660095925298,0.9996335508467094,-0.026792179944625346,0.0,0.0,0.0,0.0,0.0,0.0,0.0,0.0,0.0,-0.0018687482366787414,-0.002329834226240593,0.08159135381403076,0.0,0.0,0.0,0.0,0.0,0.0,0.0,0.0,0.0,-0.0341765104553255,0.004685183542864607,0.006283999722259191,0.0,0.0,0.0,0.0,0.0,0.0,0.0,0.0,0.0
9.882,285,9,882000000,base_footprint,-0.0038670078785073294,-0.00011850175379746113,0.9996051683870472,-0.027830550503092223,0.0,0.0,0.0,0.0,0.0,0.0,0.0,0.0,0.0,-0.00042758419092257875,-0.00012076573957309097,0.03900428169163509,0.0,0.0,0.0,0.0,0.0,0.0,0.0,0.0,0.0,-0.10567161703093118,0.000523903819176112,-0.003389726456504861,0.0,0.0,0.0,0.0,0.0,0.0,0.0,0.0,0.0
9.916,286,9,916000000,base_footprint,-0.0038650631936234955,-0.00011682028370600808,0.9996016685459906,-0.02795624938367614,0.0,0.0,0.0,0.0,0.0,0.0,0.0,0.0,0.0,9.186510787032777e-05,-0.00032721624259880283,-0.02312483336572029,0.0,0.0,0.0,0.0,0.0,0.0,0.0,0.0,0.0,-0.21508994518175495,-0.022661784731212557,-0.001280304958165765,0.0,0.0,0.0,0.0,0.0,0.0,0.0,0.0,0.0
9.95,287,9,950000000,base_footprint,-0.003867040676581615,-0.0001144858009889293,0.9996059112806869,-0.027803867035269145,0.0,0.0,0.0,0.0,0.0,0.0,0.0,0.0,0.0,0.0006737055217341473,-0.0010196478747426488,0.025761112403687884,0.0,0.0,0.0,0.0,0.0,0.0,0.0,0.0,0.0,-0.18157985958202008,-0.016718249447662446,0.0003999745405333081,0.0,0.0,0.0,0.0,0.0,0.0,0.0,0.0,0.0
9.984,288,9,984000000,base_footprint,-0.00387214050321659,-0.0001224212313212934,0.9995895967601255,-0.028383614813750253,0.0,0.0,0.0,0.0,0.0,0.0,0.0,0.0,0.0,-0.0001504950615070643,-0.00013821566417620992,0.02779934006821944,0.0,0.0,0.0,0.0,0.0,0.0,0.0,0.0,0.0,-0.0019291250737184442,0.0028682863625580585,-0.0021038583718149236,0.0,0.0,0.0,0.0,0.0,0.0,0.0,0.0,0.0
10.018,289,10,18000000,base_footprint,-0.0038695655160019765,-0.00012292842582402018,0.9995790263907867,-0.028753805851860225,0.0,0.0,0.0,0.0,0.0,0.0,0.0,0.0,0.0,-3.643145120934294e-05,-0.00031848480212188574,0.019238387694472833,0.0,0.0,0.0,0.0,0.0,0.0,0.0,0.0,0.0,-0.004593808487288383,0.0007619902156467484,0.00016196653896533405,0.0,0.0,0.0,0.0,0.0,0.0,0.0,0.0,0.0
10.052,290,10,52000000,base_footprint,-0.0038672003370433276,-0.0001240955222875396,0.9995695476420532,-0.029081760409499557,0.0,0.0,0.0,0.0,0.0,0.0,0.0,0.0,0.0,-0.00019684660994823963,-0.0002891315105757188,0.019473280061338333,0.0,0.0,0.0,0.0,0.0,0.0,0.0,0.0,0.0,0.0020264581255684134,0.0021731421912287107,5.6013339855397446e-05,0.0,0.0,0.0,0.0,0.0,0.0,0.0,0.0,0.0
10.086,291,10,86000000,base_footprint,-0.003864973798660853,-0.00012556259697823729,0.9995597953127232,-0.029415332837770643,0.0,0.0,0.0,0.0,0.0,0.0,0.0,0.0,0.0,-0.00021429821213651018,-0.0002415106880036065,0.019775632741831143,0.0,0.0,0.0,0.0,0.0,0.0,0.0,0.0,0.0,0.002178050623203688,0.0030911852002239457,-7.058675489508179e-05,0.0,0.0,0.0,0.0,0.0,0.0,0.0,0.0,0.0
10.12,292,10,120000000,base_footprint,-0.003866058001146661,-0.00012625514909725158,0.999550011385938,-0.02974579623308662,0.0,0.0,0.0,0.0,0.0,0.0,0.0,0.0,0.0,-0.00034868979477604354,0.0011084672676564568,0.06427588060217383,0.0,0.0,0.0,0.0,0.0,0.0,0.0,0.0,0.0,-0.6081885265679982,-0.07070668362484409,-0.006093503560352594,0.0,0.0,0.0,0.0,0.0,0.0,0.0,0.0,0.0
10.154,293,10,154000000,base_footprint,-0.003857710029841091,-0.00012916764248992535,0.9995121838484412,-0.030991865506382034,0.0,0.0,0.0,0.0,0.0,0.0,0.0,0.0,0.0,-0.0018007916280547885,0.0024623363240125454,0.025741887161258255,0.0,0.0,0.0,0.0,0.0,0.0,0.0,0.0,0.0,0.26872765971136214,0.04369838020356009,-0.0010045148570786736,0.0,0.0,0.0,0.0,0.0,0.0,0.0,0.0,0.0
10.188,294,10,188000000,base_footprint,-0.0038596064084127886,-0.00013102362988384346,0.999499100392594,-0.031410739971795165,0.0,0.0,0.0,0.0,0.0,0.0,0.0,0.0,0.0,-8.1694044086646e-05,-0.0002272818994593779,0.024702683445085524,0.0,0.0,0.0,0.0,0.0,0.0,0.0,0.0,0.0,0.007062970685608806,0.003220018808119622,0.004693415334807875,0.0,0.0,0.0,0.0,0.0,0.0,0.0,0.0,0.0
10.222,295,10,222000000,base_footprint,-0.003865269204964545,-0.00013383523653994698,0.9994772690038232,-0.032097204344958365,0.0,0.0,0.0,0.0,0.0,0.0,0.0,0.0,0.0,0.0001490910227371873,-0.0006622064330351604,0.1063231874886046,0.0,0.0,0.0,0.0,0.0,0.0,0.0,0.0,0.0,-0.7189885567464553,-0.08669968232183423,-0.004079441353124851,0.0,0.0,0.0,0.0,0.0,0.0,0.0,0.0,0.0
10.256,296,10,256000000,base_footprint,-0.0038586637960303536,-0.0001374629326708972,0.9994373191257154,-0.03331871780928002,0.0,0.0,0.0,0.0,0.0,0.0,0.0,0.0,0.0,-6.223913289636057e-05,0.0006646812914852688,0.023175529678347316,0.0,0.0,0.0,0.0,0.0,0.0,0.0,0.0,0.0,0.387275034224196,0.06285182036394923,0.000314655542105234,0.0,0.0,0.0,0.0,0.0,0.0,0.0,0.0,0.0
10.29,297,10,290000000,base_footprint,-0.003858768993552451,-0.00013805647996642422,0.9994240268479032,-0.03371506193653761,0.0,0.0,0.0,0.0,0.0,0.0,0.0,0.0,0.0,-7.616450814555693e-05,-0.00016636645475747358,0.023350365749659457,0.0,0.0,0.0,0.0,0.0,0.0,0.0,0.0,0.0,0.0007468937693386399,-0.0016635969202337263,0.0010629031551642062,0.0,0.0,0.0,0.0,0.0,0.0,0.0,0.0,0.0
10.324,298,10,324000000,base_footprint,-0.0038594969720079217,-0.00013816015591484296,0.9994182564429757,-0.03388559994123067,0.0,0.0,0.0,0.0,0.0,0.0,0.0,0.0,0.0,3.7777563856511145e-05,-0.00014035409983899865,0.008751580586977755,0.0,0.0,0.0,0.0,0.0,0.0,0.0,0.0,0.0,0.006631557612373825,0.0020569947816438416,1.6076834467483787e-05,0.0,0.0,0.0,0.0,0.0,0.0,0.0,0.0,0.0
10.358,299,10,358000000,base_footprint,-0.0038606489100957994,-0.00013820236769075371,0.9994132787641002,-0.03403196321239225,0.0,0.0,0.0,0.0,0.0,0.0,0.0,0.0,0.0,3.8994714828285526e-05,-0.00011443394288444007,0.008517359453294323,0.0,0.0,0.0,0.0,0.0,0.0,0.0,0.0,0.0,0.002869350115981814,0.0014117303181780613,-4.27562512862776e-05,0.0,0.0,0.0,0.0,0.0,0.0,0.0,0.0,0.0
10.392,300,10,392000000,base_footprint,-0.0038623344213373715,-0.00013824227926370882,0.9994084210930723,-0.03417412925214619,0.0,0.0,0.0,0.0,0.0,0.0,0.0,0.0,0.0,4.1573539016017296e-05,-8.240385455181305e-05,0.008252896309321205,0.0,0.0,0.0,0.0,0.0,0.0,0.0,0.0,0.0,0.002783754600291494,0.001296536101499074,-5.168306708099535e-05,0.0,0.0,0.0,0.0,0.0,0.0,0.0,0.0,0.0
10.426,301,10,426000000,base_footprint,-0.0038644678375426168,-0.00013796931606910358,0.9994077500702916,-0.0341935074573834,0.0,0.0,0.0,0.0,0.0,0.0,0.0,0.0,0.0,0.0001420549214929846,-2.5578955779140157e-05,0.0007865369185731878,0.0,0.0,0.0,0.0,0.0,0.0,0.0,0.0,0.0,0.004548202316758676,0.0007118626106979008,-0.0001377319453799999,0.0,0.0,0.0,0.0,0.0,0.0,0.0,0.0,0.0
10.46,302,10,460000000,base_footprint,-0.0038662417155630284,-0.00013811462233871043,0.9994074173921,-0.03420302853550767,0.0,0.0,0.0,0.0,0.0,0.0,0.0,0.0,0.0,0.0001270677923839465,-3.284286911317118e-05,0.00032660803017003275,0.0,0.0,0.0,0.0,0.0,0.0,0.0,0.0,0.0,0.0023814407228486137,0.0002038642609298635,-6.873911959077844e-06,0.0,0.0,0.0,0.0,0.0,0.0,0.0,0.0,0.0
10.494,303,10,494000000,base_footprint,-0.0038694422432528704,-0.00013508413928057096,0.9994068279064628,-0.03421989922462219,0.0,0.0,0.0,0.0,0.0,0.0,0.0,0.0,0.0,0.0033743900563804013,0.0012029917804072974,0.02217439969776306,0.0,0.0,0.0,0.0,0.0,0.0,0.0,0.0,0.0,-0.013296056861049482,0.0022404574964544964,0.00186380272121923,0.0,0.0,0.0,0.0,0.0,0.0,0.0,0.0,0.0
10.528,304,10,528000000,base_footprint,-0.0038707496607042566,-0.00014422005582295522,0.9993476827501324,-0.03590550764966978,0.0,0.0,0.0,0.0,0.0,0.0,0.0,0.0,0.0,-0.0007868422198291043,-0.00013351296135279361,0.10652728671685635,0.0,0.0,0.0,0.0,0.0,0.0,0.0,0.0,0.0,-0.01358521267948055,0.004427812938767305,-0.0021855012719595055,0.0,0.0,0.0,0.0,0.0,0.0,0.0,0.0,0.0
10.562,305,10,562000000,base_footprint,-0.0038719087442831792,-0.00015114496940054392,0.9992812539652792,-0.037708897510445163,0.0,0.0,0.0,0.0,0.0,0.0,0.0,0.0,0.0,-0.0007732140865702658,-0.00011294769462305223,0.10590855883764187,0.0,0.0,0.0,0.0,0.0,0.0,0.0,0.0,0.0,-0.0006042983383129936,0.011370886132978866,-3.2640548017206714e-05,0.0,0.0,0.0,0.0,0.0,0.0,0.0,0.0,0.0
10.596,306,10,596000000,base_footprint,-0.003871476149496997,-0.00015938094927633753,0.9992115480057013,-0.03951289159485996,0.0,0.0,0.0,0.0,0.0,0.0,0.0,0.0,0.0,-0.000649827091357904,-0.00047218653242984466,0.10302773474426483,0.0,0.0,0.0,0.0,0.0,0.0,0.0,0.0,0.0,0.007528303844336228,0.012662999126545189,0.0008535676412773749,0.0,0.0,0.0,0.0,0.0,0.0,0.0,0.0,0.0
10.63,307,10,630000000,base_footprint,-0.0038715786790749157,-0.0001665623444167451,0.9991441731760234,-0.041181359180065547,0.0,0.0,0.0,0.0,0.0,0.0,0.0,0.0,0.0,-0.0010064953594765649,-0.0002751637396820998,0.09727779482085462,0.0,0.0,0.0,0.0,0.0,0.0,0.0,0.0,0.0,-0.009076222949216966,0.012995745012449487,-0.000735213334862915,0.0,0.0,0.0,0.0,0.0,0.0,0.0,0.0,0.0
10.664,308,10,664000000,base_footprint,-0.0038688666063186293,-0.00017676202986375533,0.9990768319041118,-0.04278416271017216,0.0,0.0,0.0,0.0,0.0,0.0,0.0,0.0,0.0,-0.0007313750024411203,-0.00030421171510932503,0.08809857773840067,0.0,0.0,0.0,0.0,0.0,0.0,0.0,0.0,0.0,-0.02024964618934948,0.005917035243873532,2.324750431719459e-05,0.0,0.0,0.0,0.0,0.0,0.0,0.0,0.0,0.0
10.697,309,10,698000000,base_footprint,-0.003864206961227247,-0.00018046061416091743,0.9990122910264035,-0.044265988260783776,0.0,0.0,0.0,0.0,0.0,0.0,0.0,0.0,0.0,-0.0011751306792574438,-0.0032135441168794107,0.108886459577471,0.0,0.0,0.0,0.0,0.0,0.0,0.0,0.0,0.0,-0.01859371761342544,0.0056335850503669415,0.001891979662299039,0.0,0.0,0.0,0.0,0.0,0.0,0.0,0.0,0.0
10.732,310,10,732000000,base_footprint,-0.0038723523514860255,-0.00019069267033553573,0.9988961069420014,-0.04681384474368083,0.0,0.0,0.0,0.0,0.0,0.0,0.0,0.0,0.0,-0.0014920005404446663,-0.0006304239180574883,0.16348909614196042,0.0,0.0,0.0,0.0,0.0,0.0,0.0,0.0,0.0,-0.007424578131050518,0.016039718796596544,-0.0015601065557110253,0.0,0.0,0.0,0.0,0.0,0.0,0.0,0.0,0.0
10.766,311,10,766000000,base_footprint,-0.0038639956978521756,-0.000200915607671204,0.9987616182307437,-0.04960099917614364,0.0,0.0,0.0,0.0,0.0,0.0,0.0,0.0,0.0,-0.0007986847443098871,-0.0006007203437173674,0.1686207019487558,0.0,0.0,0.0,0.0,0.0,0.0,0.0,0.0,0.0,-0.029409498335286756,0.020336382031811776,0.00010997097743420006,0.0,0.0,0.0,0.0,0.0,0.0,0.0,0.0,0.0
10.8,312,10,800000000,base_footprint,-0.0038547022860051373,-0.00021379001726633528,0.9986041433202667,-0.052676944745411076,0.0,0.0,0.0,0.0,0.0,0.0,0.0,0.0,0.0,-0.001714162569040462,0.0007381906726549929,0.20849431879223446,0.0,0.0,0.0,0.0,0.0,0.0,0.0,0.0,0.0,-0.015709829314211717,0.021024996806371467,-0.0024183637081207168,0.0,0.0,0.0,0.0,0.0,0.0,0.0,0.0,0.0
10.834,313,10,834000000,base_footprint,-0.003865742171879876,-0.0002267407953128759,0.9983934470041289,-0.05652901560513842,0.0,0.0,0.0,0.0,0.0,0.0,0.0,0.0,0.0,-0.0022000589057452604,-3.19402078616338e-05,0.2316393196872912,0.0,0.0,0.0,0.0,0.0,0.0,0.0,0.0,0.0,-0.018629324434613286,0.012196874259725678,0.00025923885821932803,0.0,0.0,0.0,0.0,0.0,0.0,0.0,0.0,0.0
10.868,314,10,868000000,base_footprint,-0.0038659767326704396,-0.00024469978373301644,0.9981713878604389,-0.06032308681328833,0.0,0.0,0.0,0.0,0.0,0.0,0.0,0.0,0.0,-0.0014658850829995054,-0.0006963237866714968,0.2221692724298895,0.0,0.0,0.0,0.0,0.0,0.0,0.0,0.0,0.0,0.02137942571490444,0.033842777401900725,0.0021006980739725874,0.0,0.0,0.0,0.0,0.0,0.0,0.0,0.0,0.0
10.902,315,10,902000000,base_footprint,-0.003850223114181071,-0.0002530790457585348,0.9979482043675382,-0.0639100393723402,0.0,0.0,0.0,0.0,0.0,0.0,0.0,0.0,0.0,-0.0010854322377992886,-0.004438043905559615,0.15206779032989814,0.0,0.0,0.0,0.0,0.0,0.0,0.0,0.0,0.0,-0.060242108198516144,0.004515910272685678,0.003972578361258388,0.0,0.0,0.0,0.0,0.0,0.0,0.0,0.0,0.0
10.936,316,10,936000000,base_footprint,-0.003860468337835989,-0.0002682303245718716,0.9977974808360344,-0.0662209338047219,0.0,0.0,0.0,0.0,0.0,0.0,0.0,0.0,0.0,-0.0008613460941683841,-0.0004661850842927787,0.12707202642709647,0.0,0.0,0.0,0.0,0.0,0.0,0.0,0.0,0.0,0.07131401405450825,0.040750159858469706,-0.00420859545463293,0.0,0.0,0.0,0.0,0.0,0.0,0.0,0.0,0.0
10.97,317,10,970000000,base_footprint,-0.0038573315821408705,-0.00027584750704383136,0.9976504020997822,-0.06840117024847964,0.0,0.0,0.0,0.0,0.0,0.0,0.0,0.0,0.0,-0.0009838045530472476,-0.00036763022791363087,0.12872828343412185,0.0,0.0,0.0,0.0,0.0,0.0,0.0,0.0,0.0,-0.0056966288819857765,0.0114948534589296,-0.00028517623503402013,0.0,0.0,0.0,0.0,0.0,0.0,0.0,0.0,0.0
11.004,318,11,4000000,base_footprint,-0.0038542374790862363,-0.000282842106644681,0.9975167320670298,-0.0703237804736847,0.0,0.0,0.0,0.0,0.0,0.0,0.0,0.0,0.0,-0.0014305918665512602,0.0022002273047558585,0.07299202704305306,0.0,0.0,0.0,0.0,0.0,0.0,0.0,0.0,0.0,0.014460691665557093,0.0170203247306466,-0.0031207283583604235,0.0,0.0,0.0,0.0,0.0,0.0,0.0,0.0,0.0
11.038,319,11,38000000,base_footprint,-0.003854406992068129,-0.00028760069957250376,0.9974261756027111,-0.07159668326903754,0.0,0.0,0.0,0.0,0.0,0.0,0.0,0.0,0.0,-0.0005884343985972608,-0.00026900853062495646,0.07555455214871058,0.0,0.0,0.0,0.0,0.0,0.0,0.0,0.0,0.0,-0.002908118615391815,0.009327125655267261,0.0031545212945916826,0.0,0.0,0.0,0.0,0.0,0.0,0.0,0.0,0.0
11.072,320,11,72000000,base_footprint,-0.0038535849409522694,-0.00029223788363282754,0.9973334193697251,-0.0728773976512225,0.0,0.0,0.0,0.0,0.0,0.0,0.0,0.0,0.0,-0.0004719706740958907,-0.00028761847090408375,0.07564474319536088,0.0,0.0,0.0,0.0,0.0,0.0,0.0,0.0,0.0,-0.00014920194512042123,0.008994061050269057,0.00020603153577998816,0.0,0.0,0.0,0.0,0.0,0.0,0.0,0.0,0.0
11.106,321,11,106000000,base_footprint,-0.0038518725701248997,-0.00029603925839532147,0.997232854687073,-0.07424088476797863,0.0,0.0,0.0,0.0,0.0,0.0,0.0,0.0,0.0,-0.0006699957453931175,-7.739419349230865e-06,0.08844456738555531,0.0,0.0,0.0,0.0,0.0,0.0,0.0,0.0,0.0,-0.0033684932872332304,0.007900645087900535,-0.00038519736394004183,0.0,0.0,0.0,0.0,0.0,0.0,0.0,0.0,0.0
11.14,322,11,140000000,base_footprint,-0.0038510624631203066,-0.00030063528845679637,0.9971205578249203,-0.07573422013362457,0.0,0.0,0.0,0.0,0.0,0.0,0.0,0.0,0.0,-0.0005084053678140754,-0.00027138702238602006,0.08805904234914283,0.0,0.0,0.0,0.0,0.0,0.0,0.0,0.0,0.0,0.00016725437363648724,0.011225249817810085,0.000394454495284319,0.0,0.0,0.0,0.0,0.0,0.0,0.0,0.0,0.0
11.173,323,11,174000000,base_footprint,-0.0038506502845666534,-0.0003051715719002749,0.9970062680030495,-0.07722422499014893,0.0,0.0,0.0,0.0,0.0,0.0,0.0,0.0,0.0,-0.0005066914647845263,-0.00024212213814295115,0.08788162228580877,0.0,0.0,0.0,0.0,0.0,0.0,0.0,0.0,0.0,-0.000184039719209589,0.010543189440458981,-4.440189408049046e-05,0.0,0.0,0.0,0.0,0.0,0.0,0.0,0.0,0.0
11.208,324,11,208000000,base_footprint,-0.0038542052737390747,-0.00031466417741812786,0.9968811782408499,-0.07882234808287655,0.0,0.0,0.0,0.0,0.0,0.0,0.0,0.0,0.0,-0.0013231340679520254,0.0014089928043547438,0.11535928043622334,0.0,0.0,0.0,0.0,0.0,0.0,0.0,0.0,0.0,-0.40491917382690296,-0.1217664410598616,-0.005150974945357146,0.0,0.0,0.0,0.0,0.0,0.0,0.0,0.0,0.0
