Time,header.seq,header.stamp.secs,header.stamp.nsecs,header.frame_id,orientation.x,orientation.y,orientation.z,orientation.w,orientation_covariance_0,orientation_covariance_1,orientation_covariance_2,orientation_covariance_3,orientation_covariance_4,orientation_covariance_5,orientation_covariance_6,orientation_covariance_7,orientation_covariance_8,angular_velocity.x,angular_velocity.y,angular_velocity.z,angular_velocity_covariance_0,angular_velocity_covariance_1,angular_velocity_covariance_2,angular_velocity_covariance_3,angular_velocity_covariance_4,angular_velocity_covariance_5,angular_velocity_covariance_6,angular_velocity_covariance_7,angular_velocity_covariance_8,linear_acceleration.x,linear_acceleration.y,linear_acceleration.z,linear_acceleration_covariance_0,linear_acceleration_covariance_1,linear_acceleration_covariance_2,linear_acceleration_covariance_3,linear_acceleration_covariance_4,linear_acceleration_covariance_5,linear_acceleration_covariance_6,linear_acceleration_covariance_7,linear_acceleration_covariance_8
0.304,0,0,303000000,base_footprint,0.0013143384656014807,-6.267174880511466e-06,0.9999991351692779,4.6214898487392426e-05,0.0,0.0,0.0,0.0,0.0,0.0,0.0,0.0,0.0,-1.6980355118362776e-05,-0.1569133548914,5.901202903403473e-06,0.0,0.0,0.0,0.0,0.0,0.0,0.0,0.0,0.0,0.00021882259904276003,-2.035983756641874e-06,-0.1391836211169423,0.0,0.0,0.0,0.0,0.0,0.0,0.0,0.0,0.0
0.337,1,0,337000000,base_footprint,0.0009554417895071302,-1.7732122100784638e-05,0.9999995423200252,4.665081889743661e-05,0.0,0.0,0.0,0.0,0.0,0.0,0.0,0.0,0.0,-0.00028337632992349624,0.04758799142272875,2.6468244875220054e-06,0.0,0.0,0.0,0.0,0.0,0.0,0.0,0.0,0.0,-0.0003408917599287301,2.3265465853180545e-06,0.005131748679945535,0.0,0.0,0.0,0.0,0.0,0.0,0.0,0.0,0.0
0.371,2,0,371000000,base_footprint,0.0001442680945152505,-2.2781257577155877e-05,0.9999999882474448,4.661374986343369e-05,0.0,0.0,0.0,0.0,0.0,0.0,0.0,0.0,0.0,-0.0002837837375476409,0.04756041008294899,3.2315359380251014e-06,0.0,0.0,0.0,0.0,0.0,0.0,0.0,0.0,0.0,-0.000214976847746328,2.998747221342312e-07,7.846402313990019e-05,0.0,0.0,0.0,0.0,0.0,0.0,0.0,0.0,0.0
0.405,3,0,405000000,base_footprint,-0.0009389499799981795,-3.0715217152883674e-05,0.9999995576302639,4.657023893846026e-05,0.0,0.0,0.0,0.0,0.0,0.0,0.0,0.0,0.0,-0.0004203212577189502,0.06777050692349584,6.819772988770117e-06,0.0,0.0,0.0,0.0,0.0,0.0,0.0,0.0,0.0,-0.0003673309727730065,3.44486204116624e-08,0.0028139967223474826,0.0,0.0,0.0,0.0,0.0,0.0,0.0,0.0,0.0
0.439,4,0,439000000,base_footprint,-0.002092468497588257,-3.817498468482086e-05,0.9999978089770054,4.646983662155763e-05,0.0,0.0,0.0,0.0,0.0,0.0,0.0,0.0,0.0,-0.0004207755261393115,0.06769334313062904,8.03064481510863e-06,0.0,0.0,0.0,0.0,0.0,0.0,0.0,0.0,0.0,-0.0002958506533429006,3.970697042179586e-07,0.0001509395746004907,0.0,0.0,0.0,0.0,0.0,0.0,0.0,0.0,0.0
0.47300000000000003,5,0,473000000,base_footprint,-0.0032446826301795045,-4.5641898063222704e-05,0.999994733887676,4.635043474905583e-05,0.0,0.0,0.0,0.0,0.0,0.0,0.0,0.0,0.0,-0.0004212576839605158,0.06761697244587432,9.061244986367185e-06,0.0,0.0,0.0,0.0,0.0,0.0,0.0,0.0,0.0,-0.000294711323579689,4.589119685188194e-08,0.0001497907256323983,0.0,0.0,0.0,0.0,0.0,0.0,0.0,0.0,0.0
0.507,6,0,507000000,base_footprint,-0.003936843275214827,-6.8278122561128905e-06,0.9999922494422285,4.7685211079760545e-05,0.0,0.0,0.0,0.0,0.0,0.0,0.0,0.0,0.0,-4.566823077494664e-05,-0.024601802989128712,-0.0001274772500912432,0.0,0.0,0.0,0.0,0.0,0.0,0.0,0.0,0.0,0.000936220786891887,0.00015259720156454758,0.13220735442215284,0.0,0.0,0.0,0.0,0.0,0.0,0.0,0.0,0.0
0.541,7,0,541000000,base_footprint,-0.003852785283229284,-6.878840237996296e-06,0.9999925768028257,4.8347573084518076e-05,0.0,0.0,0.0,0.0,0.0,0.0,0.0,0.0,0.0,8.267225892068879e-05,-0.000947393252781674,9.497934361464165e-06,0.0,0.0,0.0,0.0,0.0,0.0,0.0,0.0,0.0,-0.0010244578957106499,-0.00013511091398164408,0.0005630172074973087,0.0,0.0,0.0,0.0,0.0,0.0,0.0,0.0,0.0
0.5740000000000001,8,0,575000000,base_footprint,-0.0038531032113110213,-6.875268870228815e-06,0.9999925755838447,4.822408793604715e-05,0.0,0.0,0.0,0.0,0.0,0.0,0.0,0.0,0.0,3.850280044278241e-05,-0.0001628401448581696,9.087462230120563e-06,0.0,0.0,0.0,0.0,0.0,0.0,0.0,0.0,0.0,-1.6315238767311524e-05,-1.4120513855794713e-06,-0.0008733597945344641,0.0,0.0,0.0,0.0,0.0,0.0,0.0,0.0,0.0
0.609,9,0,609000000,base_footprint,-0.0038531018079711933,-6.875956101648118e-06,0.9999925755963621,4.8076322566680484e-05,0.0,0.0,0.0,0.0,0.0,0.0,0.0,0.0,0.0,3.871533685997682e-05,-0.0001807850359416175,9.762092612639765e-06,0.0,0.0,0.0,0.0,0.0,0.0,0.0,0.0,0.0,1.8096583387897878e-07,1.3156325576915823e-06,1.9514691703173193e-05,0.0,0.0,0.0,0.0,0.0,0.0,0.0,0.0,0.0
0.647,10,0,643000000,base_footprint,-0.0038531016370920127,-6.876598599275118e-06,0.9999925756043501,4.792353382888699e-05,0.0,0.0,0.0,0.0,0.0,0.0,0.0,0.0,0.0,3.871122221711987e-05,-0.00018040491969233485,9.859188774456866e-06,0.0,0.0,0.0,0.0,0.0,0.0,0.0,0.0,0.0,-3.6336513530958616e-08,1.8880755778599317e-07,-4.2472268148805577e-07,0.0,0.0,0.0,0.0,0.0,0.0,0.0,0.0,0.0
0.677,11,0,677000000,base_footprint,-0.003853101627857904,-6.87723253474501e-06,0.9999925756117262,4.7770025482364684e-05,0.0,0.0,0.0,0.0,0.0,0.0,0.0,0.0,0.0,3.871155771984309e-05,-0.00018041050900687852,9.87315584602501e-06,0.0,0.0,0.0,0.0,0.0,0.0,0.0,0.0,0.0,-3.96638695618146e-09,2.7169805790397646e-08,4.964167748010605e-09,0.0,0.0,0.0,0.0,0.0,0.0,0.0,0.0,0.0
0.7110000000000001,12,0,711000000,base_footprint,-0.0038531016253237206,-6.87786278403665e-06,0.999992575619058,4.7616411692306825e-05,0.0,0.0,0.0,0.0,0.0,0.0,0.0,0.0,0.0,3.8711811665699207e-05,-0.00018041015314971897,9.875075665826072e-06,0.0,0.0,0.0,0.0,0.0,0.0,0.0,0.0,0.0,-5.740592540649266e-10,3.734036997022757e-09,-5.206040077012712e-10,0.0,0.0,0.0,0.0,0.0,0.0,0.0,0.0,0.0
0.745,13,0,745000000,base_footprint,-0.0038531016244440974,-6.878490439300146e-06,0.9999925756263607,4.7462782124459694e-05,0.0,0.0,0.0,0.0,0.0,0.0,0.0,0.0,0.0,3.871205515063708e-05,-0.00018041010119536238,9.875251814902946e-06,0.0,0.0,0.0,0.0,0.0,0.0,0.0,0.0,0.0,-5.865270505152875e-11,3.4205349134663743e-10,-3.499268744899313e-11,0.0,0.0,0.0,0.0,0.0,0.0,0.0,0.0,0.0
0.779,14,0,779000000,base_footprint,-0.0038531016237758915,-6.879115800192219e-06,0.9999925756336389,4.730914987530147e-05,0.0,0.0,0.0,0.0,0.0,0.0,0.0,0.0,0.0,3.871229081129911e-05,-0.00018041007300015008,9.875189761031286e-06,0.0,0.0,0.0,0.0,0.0,0.0,0.0,0.0,0.0,1.1367439517237267e-11,-1.2144743034658755e-10,1.1396991622869409e-11,0.0,0.0,0.0,0.0,0.0,0.0,0.0,0.0,0.0
0.8130000000000001,15,0,813000000,base_footprint,-0.0038531016231300196,-6.8797390316605385e-06,0.9999925756408937,4.7155516866463744e-05,0.0,0.0,0.0,0.0,0.0,0.0,0.0,0.0,0.0,3.8712519661295614e-05,-0.0001804100481212602,9.875107445689469e-06,0.0,0.0,0.0,0.0,0.0,0.0,0.0,0.0,0.0,1.7330532835594865e-11,-1.609914516412657e-10,1.649490810213187e-11,0.0,0.0,0.0,0.0,0.0,0.0,0.0,0.0,0.0
0.8470000000000001,16,0,847000000,base_footprint,-0.0038531016224789545,-6.880360272161518e-06,0.9999925756481247,4.700188338203065e-05,0.0,0.0,0.0,0.0,0.0,0.0,0.0,0.0,0.0,3.8712742090639486e-05,-0.00018041002332995417,9.875036658672528e-06,0.0,0.0,0.0,0.0,0.0,0.0,0.0,0.0,0.0,1.3947458655781085e-11,-1.3868975739594023e-10,1.53444117432752e-11,0.0,0.0,0.0,0.0,0.0,0.0,0.0,0.0,0.0
0.881,17,0,881000000,base_footprint,-0.003853101621818812,-6.880979648386592e-06,0.9999925756553323,4.684824946414197e-05,0.0,0.0,0.0,0.0,0.0,0.0,0.0,0.0,0.0,3.871295856504348e-05,-0.00018040999810470487,9.874981251310202e-06,0.0,0.0,0.0,0.0,0.0,0.0,0.0,0.0,0.0,9.42807327698881e-12,-1.0888838700315783e-10,1.3483908205694667e-11,0.0,0.0,0.0,0.0,0.0,0.0,0.0,0.0,0.0
0.915,18,0,915000000,base_footprint,-0.00385310162114975,-6.88159727870321e-06,0.9999925756625164,4.66946151203081e-05,0.0,0.0,0.0,0.0,0.0,0.0,0.0,0.0,0.0,3.8713169473633464e-05,-0.0001804099725300439,9.874940675923078e-06,0.0,0.0,0.0,0.0,0.0,0.0,0.0,0.0,0.0,5.073103203490705e-12,-8.014558153548717e-11,1.149503246905339e-11,0.0,0.0,0.0,0.0,0.0,0.0,0.0,0.0,0.0
0.9490000000000001,19,0,949000000,base_footprint,-0.0038531016204726163,-6.882213273703895e-06,0.9999925756696769,4.6540980360277216e-05,0.0,0.0,0.0,0.0,0.0,0.0,0.0,0.0,0.0,3.8713375189271294e-05,-0.00018040994645528353,9.87491368852855e-06,0.0,0.0,0.0,0.0,0.0,0.0,0.0,0.0,0.0,1.07878056043836e-12,-5.3813800968464375e-11,9.607412903885189e-12,0.0,0.0,0.0,0.0,0.0,0.0,0.0,0.0,0.0
0.9830000000000001,20,0,983000000,base_footprint,-0.0038531016197875453,-6.882827738562633e-06,0.9999925756768141,4.6387345186186805e-05,0.0,0.0,0.0,0.0,0.0,0.0,0.0,0.0,0.0,3.8713575827302995e-05,-0.0001804099200696897,9.874899745196849e-06,0.0,0.0,0.0,0.0,0.0,0.0,0.0,0.0,0.0,-2.751804486453801e-12,-2.8538812703901183e-11,7.90587238557397e-12,0.0,0.0,0.0,0.0,0.0,0.0,0.0,0.0,0.0
1.017,21,1,17000000,base_footprint,-0.0038531016190949787,-6.883440778154074e-06,0.9999925756839274,4.62337096086907e-05,0.0,0.0,0.0,0.0,0.0,0.0,0.0,0.0,0.0,3.871377345758381e-05,-0.00018040989335300675,9.874899103749481e-06,0.0,0.0,0.0,0.0,0.0,0.0,0.0,0.0,0.0,-6.656685009566127e-12,-2.7300211631271753e-12,6.650526366478568e-12,0.0,0.0,0.0,0.0,0.0,0.0,0.0,0.0,0.0
1.051,22,1,51000000,base_footprint,-0.0038531016183954384,-6.884052474840068e-06,0.9999925756910174,4.608007362307235e-05,0.0,0.0,0.0,0.0,0.0,0.0,0.0,0.0,0.0,3.871396697598993e-05,-0.00018040986625281693,9.874909852293192e-06,0.0,0.0,0.0,0.0,0.0,0.0,0.0,0.0,0.0,-1.0004478386098818e-11,1.934483204439056e-11,5.1862690128236826e-12,0.0,0.0,0.0,0.0,0.0,0.0,0.0,0.0,0.0
1.085,23,1,85000000,base_footprint,-0.003853101617689624,-6.884662913204665e-06,0.9999925756980836,4.5926437235686534e-05,0.0,0.0,0.0,0.0,0.0,0.0,0.0,0.0,0.0,3.8714156424945834e-05,-0.00018040983885828416,9.874931373275227e-06,0.0,0.0,0.0,0.0,0.0,0.0,0.0,0.0,0.0,-1.316817571696715e-11,4.0220497727809564e-11,3.659920310746665e-12,0.0,0.0,0.0,0.0,0.0,0.0,0.0,0.0,0.0
1.121,24,1,119000000,base_footprint,-0.003853101616977305,-6.885272173195812e-06,0.9999925757051266,4.57728004460592e-05,0.0,0.0,0.0,0.0,0.0,0.0,0.0,0.0,0.0,3.871434202571209e-05,-0.0001804098112312068,9.874963506019317e-06,0.0,0.0,0.0,0.0,0.0,0.0,0.0,0.0,0.0,-1.62837931534086e-11,6.078759031108043e-11,2.3995707266196266e-12,0.0,0.0,0.0,0.0,0.0,0.0,0.0,0.0,0.0
1.153,25,1,153000000,base_footprint,-0.0038531016162593906,-6.885880329715583e-06,0.9999925757121458,4.561916325260613e-05,0.0,0.0,0.0,0.0,0.0,0.0,0.0,0.0,0.0,3.871452409470527e-05,-0.0001804097831019944,9.875004159297225e-06,0.0,0.0,0.0,0.0,0.0,0.0,0.0,0.0,0.0,-1.8792676409216764e-11,7.72959770737168e-11,9.305939221806674e-13,0.0,0.0,0.0,0.0,0.0,0.0,0.0,0.0,0.0
1.187,26,1,187000000,base_footprint,-0.003853101615536528,-6.886487452704722e-06,0.9999925757191414,4.546552566384955e-05,0.0,0.0,0.0,0.0,0.0,0.0,0.0,0.0,0.0,3.871470298750416e-05,-0.00018040975484942816,9.875053512114547e-06,0.0,0.0,0.0,0.0,0.0,0.0,0.0,0.0,0.0,-2.1345240361783976e-11,9.415624283213074e-11,-1.0474590843735639e-13,0.0,0.0,0.0,0.0,0.0,0.0,0.0,0.0,0.0
1.221,27,1,221000000,base_footprint,-0.0038531016148084527,-6.887093607574266e-06,0.9999925757261136,4.531188767848249e-05,0.0,0.0,0.0,0.0,0.0,0.0,0.0,0.0,0.0,3.871487866179129e-05,-0.0001804097264435538,9.8751121047321e-06,0.0,0.0,0.0,0.0,0.0,0.0,0.0,0.0,0.0,-2.4059419509673816e-11,1.1206597393900204e-10,-8.819506368108399e-13,0.0,0.0,0.0,0.0,0.0,0.0,0.0,0.0,0.0
1.255,28,1,255000000,base_footprint,-0.0038531016140753815,-6.887698855925778e-06,0.9999925757330621,4.5158249297406236e-05,0.0,0.0,0.0,0.0,0.0,0.0,0.0,0.0,0.0,3.871505144841111e-05,-0.00018040969781326174,9.875178613389639e-06,0.0,0.0,0.0,0.0,0.0,0.0,0.0,0.0,0.0,-2.6383533273729756e-11,1.274072411305395e-10,-2.083805413355896e-12,0.0,0.0,0.0,0.0,0.0,0.0,0.0,0.0,0.0
1.2890000000000001,29,1,289000000,base_footprint,-0.0038531016133384983,-6.8883032555049776e-06,0.999992575739987,4.500461053086259e-05,0.0,0.0,0.0,0.0,0.0,0.0,0.0,0.0,0.0,3.87152215994427e-05,-0.00018040966880520162,9.875250543789565e-06,0.0,0.0,0.0,0.0,0.0,0.0,0.0,0.0,0.0,-2.7979975641073452e-11,1.3790642858564056e-10,-3.344660075429109e-12,0.0,0.0,0.0,0.0,0.0,0.0,0.0,0.0,0.0
1.323,30,1,323000000,base_footprint,-0.003853101612597116,-6.888906859956377e-06,0.9999925757468885,4.485097136690258e-05,0.0,0.0,0.0,0.0,0.0,0.0,0.0,0.0,0.0,3.871538919610171e-05,-0.0001804096396916823,9.87533129137701e-06,0.0,0.0,0.0,0.0,0.0,0.0,0.0,0.0,0.0,-3.056942224671007e-11,1.5500381243951703e-10,-3.899367496828402e-12,0.0,0.0,0.0,0.0,0.0,0.0,0.0,0.0,0.0
1.358,31,1,357000000,base_footprint,-0.0038531016118519934,-6.8895097199289445e-06,0.9999925757537662,4.4697331815018864e-05,0.0,0.0,0.0,0.0,0.0,0.0,0.0,0.0,0.0,3.8715554318051886e-05,-0.00018040961040395812,9.875416812019542e-06,0.0,0.0,0.0,0.0,0.0,0.0,0.0,0.0,0.0,-3.197183348950347e-11,1.642440806107697e-10,-4.8614715300143725e-12,0.0,0.0,0.0,0.0,0.0,0.0,0.0,0.0,0.0
1.391,32,1,391000000,base_footprint,-0.0038531016111036697,-6.890111882331984e-06,0.9999925757606206,4.454369189244035e-05,0.0,0.0,0.0,0.0,0.0,0.0,0.0,0.0,0.0,3.871571726409185e-05,-0.00018040958080168415,9.875507201662463e-06,0.0,0.0,0.0,0.0,0.0,0.0,0.0,0.0,0.0,-3.340594901749229e-11,1.7367485022048952e-10,-5.8168656282395236e-12,0.0,0.0,0.0,0.0,0.0,0.0,0.0,0.0,0.0
1.425,33,1,425000000,base_footprint,-0.0038531016103514927,-6.890713391655923e-06,0.9999925757674513,4.439005160134508e-05,0.0,0.0,0.0,0.0,0.0,0.0,0.0,0.0,0.0,3.8715878035449006e-05,-0.00018040955137428708,9.875605149744679e-06,0.0,0.0,0.0,0.0,0.0,0.0,0.0,0.0,0.0,-3.561803048986467e-11,1.883321919636046e-10,-6.167446479286754e-12,0.0,0.0,0.0,0.0,0.0,0.0,0.0,0.0,0.0
1.459,34,1,459000000,base_footprint,-0.0038531016095963554,-6.891314288975741e-06,0.9999925757742585,4.423641092659535e-05,0.0,0.0,0.0,0.0,0.0,0.0,0.0,0.0,0.0,3.871603690098138e-05,-0.00018040952155816734,9.87570781555868e-06,0.0,0.0,0.0,0.0,0.0,0.0,0.0,0.0,0.0,-3.7010745027693865e-11,1.9747303888139992e-10,-7.0000835710774036e-12,0.0,0.0,0.0,0.0,0.0,0.0,0.0,0.0,0.0
1.493,35,1,493000000,base_footprint,-0.0038531016088378415,-6.891914614442075e-06,0.999992575781042,4.408276987007039e-05,0.0,0.0,0.0,0.0,0.0,0.0,0.0,0.0,0.0,3.8716194005942726e-05,-0.00018040949138283527,9.875815227726042e-06,0.0,0.0,0.0,0.0,0.0,0.0,0.0,0.0,0.0,-3.840827382488234e-11,2.0667181488096384e-10,-8.040599287896502e-12,0.0,0.0,0.0,0.0,0.0,0.0,0.0,0.0,0.0
1.5270000000000001,36,1,527000000,base_footprint,-0.0038531016080767273,-6.892514403223684e-06,0.999992575787802,4.392912843249295e-05,0.0,0.0,0.0,0.0,0.0,0.0,0.0,0.0,0.0,3.871634929147144e-05,-0.00018040946148787434,9.87592767632572e-06,0.0,0.0,0.0,0.0,0.0,0.0,0.0,0.0,0.0,-3.988099498246684e-11,2.1643309699661072e-10,-7.964351852381316e-12,0.0,0.0,0.0,0.0,0.0,0.0,0.0,0.0,0.0
1.561,37,1,561000000,base_footprint,-0.0038531016073129767,-6.893113689728158e-06,0.9999925757945384,4.377548661940793e-05,0.0,0.0,0.0,0.0,0.0,0.0,0.0,0.0,0.0,3.8716503036852685e-05,-0.00018040943129405275,9.87604449446366e-06,0.0,0.0,0.0,0.0,0.0,0.0,0.0,0.0,0.0,-4.1166306195527265e-11,2.2490127407589534e-10,-9.044385297763966e-12,0.0,0.0,0.0,0.0,0.0,0.0,0.0,0.0,0.0
1.5950000000000002,38,1,595000000,base_footprint,-0.003853101606546811,-6.893712505956846e-06,0.9999925758012513,4.362184443122215e-05,0.0,0.0,0.0,0.0,0.0,0.0,0.0,0.0,0.0,3.871665524659471e-05,-0.00018040940103669815,9.876164881390584e-06,0.0,0.0,0.0,0.0,0.0,0.0,0.0,0.0,0.0,-4.2216176494928075e-11,2.318158811235922e-10,-9.242152358145694e-12,0.0,0.0,0.0,0.0,0.0,0.0,0.0,0.0,0.0
1.629,39,1,629000000,base_footprint,-0.003853101605778012,-6.8943108819400645e-06,0.9999925758079404,4.346820186381389e-05,0.0,0.0,0.0,0.0,0.0,0.0,0.0,0.0,0.0,3.871680602205782e-05,-0.00018040937056236907,9.876288469226086e-06,0.0,0.0,0.0,0.0,0.0,0.0,0.0,0.0,0.0,-4.315792829982231e-11,2.3801590609012363e-10,-1.0031004252190758e-11,0.0,0.0,0.0,0.0,0.0,0.0,0.0,0.0,0.0
1.663,40,1,663000000,base_footprint,-0.0038531016050072915,-6.8949088452647355e-06,0.9999925758146062,4.3314558922932526e-05,0.0,0.0,0.0,0.0,0.0,0.0,0.0,0.0,0.0,3.871695545597918e-05,-0.00018040934001861063,9.876416799711847e-06,0.0,0.0,0.0,0.0,0.0,0.0,0.0,0.0,0.0,-4.4550745299660666e-11,2.472122572697834e-10,-1.0413010814343742e-11,0.0,0.0,0.0,0.0,0.0,0.0,0.0,0.0,0.0
1.697,41,1,697000000,base_footprint,-0.0038531016042344136,-6.895506422400773e-06,0.9999925758212482,4.316091560802328e-05,0.0,0.0,0.0,0.0,0.0,0.0,0.0,0.0,0.0,3.871710373457632e-05,-0.0001804093094098236,9.87654742869003e-06,0.0,0.0,0.0,0.0,0.0,0.0,0.0,0.0,0.0,-4.5225988439113177e-11,2.5166271378566353e-10,-1.0834002928890508e-11,0.0,0.0,0.0,0.0,0.0,0.0,0.0,0.0,0.0
1.731,42,1,731000000,base_footprint,-0.0038531016034596176,-6.8961036378426964e-06,0.9999925758278667,4.3007271916572846e-05,0.0,0.0,0.0,0.0,0.0,0.0,0.0,0.0,0.0,3.8717250783048816e-05,-0.00018040927876435866,9.87668217875374e-06,0.0,0.0,0.0,0.0,0.0,0.0,0.0,0.0,0.0,-4.643504355580052e-11,2.59653156417761e-10,-1.1214242384997959e-11,0.0,0.0,0.0,0.0,0.0,0.0,0.0,0.0,0.0
1.77,43,1,765000000,base_footprint,-0.003847807422296854,-6.955402731787905e-06,0.999992596257704,4.1945681429803696e-05,0.0,0.0,0.0,0.0,0.0,0.0,0.0,0.0,0.0,4.0562224061266335e-05,-0.00028888485143704874,-2.20679271459796e-05,0.0,0.0,0.0,0.0,0.0,0.0,0.0,0.0,0.0,0.6686100995575108,-0.00011833205227826037,0.005251451881457736,0.0,0.0,0.0,0.0,0.0,0.0,0.0,0.0,0.0
1.8,44,1,799000000,base_footprint,-0.0038482154812478036,-6.997313451611183e-06,0.9999925946463619,4.2907860414103566e-05,0.0,0.0,0.0,0.0,0.0,0.0,0.0,0.0,0.0,3.547746416799957e-05,-0.00014033217855229378,-7.312149457925942e-05,0.0,0.0,0.0,0.0,0.0,0.0,0.0,0.0,0.0,0.7859876821392338,-0.00016667731328184912,0.00587225705399186,0.0,0.0,0.0,0.0,0.0,0.0,0.0,0.0,0.0
1.8330000000000002,45,1,833000000,base_footprint,-0.003848906001483947,-7.057468785703693e-06,0.999992591887525,4.5197941178090895e-05,0.0,0.0,0.0,0.0,0.0,0.0,0.0,0.0,0.0,3.447030835178053e-05,-0.00012861501282013355,-0.0001531064507219338,0.0,0.0,0.0,0.0,0.0,0.0,0.0,0.0,0.0,0.7853888478981202,-0.0002263233652751929,0.006024079071577308,0.0,0.0,0.0,0.0,0.0,0.0,0.0,0.0,0.0
1.867,46,1,867000000,base_footprint,-0.0038499661277522027,-7.134871310982339e-06,0.9999925876006962,4.95335539559354e-05,0.0,0.0,0.0,0.0,0.0,0.0,0.0,0.0,0.0,3.3822434723823484e-05,-8.570029436128862e-05,-0.00027605618545024723,0.0,0.0,0.0,0.0,0.0,0.0,0.0,0.0,0.0,0.7745203781931955,-0.000315458225152726,0.005909223976028455,0.0,0.0,0.0,0.0,0.0,0.0,0.0,0.0,0.0
1.9020000000000001,47,1,901000000,base_footprint,-0.003851437825032746,-7.220737190698139e-06,0.9999925815316575,5.706305496933704e-05,0.0,0.0,0.0,0.0,0.0,0.0,0.0,0.0,0.0,3.4522240187338815e-05,-5.311649874719585e-05,-0.0004732666329118881,0.0,0.0,0.0,0.0,0.0,0.0,0.0,0.0,0.0,0.7427559105809143,-0.00046763631568930386,0.005681902231990843,0.0,0.0,0.0,0.0,0.0,0.0,0.0,0.0,0.0
1.9340000000000002,48,1,935000000,base_footprint,-0.00385327485781378,-7.43997741794136e-06,0.9999925737421614,6.839623508720989e-05,0.0,0.0,0.0,0.0,0.0,0.0,0.0,0.0,0.0,2.73885297864189e-05,-4.435832781610976e-05,-0.0007075907818339139,0.0,0.0,0.0,0.0,0.0,0.0,0.0,0.0,0.0,0.6787777566744382,-0.0005479129152363534,0.0052220816475369814,0.0,0.0,0.0,0.0,0.0,0.0,0.0,0.0,0.0
1.972,49,1,969000000,base_footprint,-0.0038554797161362035,-7.916150818308986e-06,0.9999925638982811,8.579997217631594e-05,0.0,0.0,0.0,0.0,0.0,0.0,0.0,0.0,0.0,3.612034043779143e-05,-1.8766697104718954e-05,-0.0011228382481028095,0.0,0.0,0.0,0.0,0.0,0.0,0.0,0.0,0.0,0.569421192136682,-0.0009038269585465027,0.004329915659001544,0.0,0.0,0.0,0.0,0.0,0.0,0.0,0.0,0.0
2.003,50,2,3000000,base_footprint,-0.003857483316504192,-7.988934500432964e-06,0.9999925543896864,0.00010451712809694569,0.0,0.0,0.0,0.0,0.0,0.0,0.0,0.0,0.0,0.00012852637110539862,-6.372183510956669e-05,-0.0005594100069503086,0.0,0.0,0.0,0.0,0.0,0.0,0.0,0.0,0.0,0.41494543833045644,0.00100811645108532,0.0032482922360725546,0.0,0.0,0.0,0.0,0.0,0.0,0.0,0.0,0.0
2.064,51,2,37000000,base_footprint,-0.0038595921756198717,-7.4281372188415605e-06,0.9999925457405758,0.00010934506455922226,0.0,0.0,0.0,0.0,0.0,0.0,0.0,0.0,0.0,3.28843003967833e-05,-9.12242073849723e-05,0.0008179986500343072,0.0,0.0,0.0,0.0,0.0,0.0,0.0,0.0,0.0,0.22369932641998494,-9.432090940877908e-05,0.0018273750846545464,0.0,0.0,0.0,0.0,0.0,0.0,0.0,0.0,0.0
2.071,52,2,71000000,base_footprint,-0.00385261023981832,-1.4270743571389228e-06,0.9999925785231346,1.705743264351725e-05,0.0,0.0,0.0,0.0,0.0,0.0,0.0,0.0,0.0,-6.390562799460526e-05,-0.0008536452349011656,0.004677602161814626,0.0,0.0,0.0,0.0,0.0,0.0,0.0,0.0,0.0,0.04799081736781672,0.010208212077669736,0.0012393708036226292,0.0,0.0,0.0,0.0,0.0,0.0,0.0,0.0,0.0
2.137,53,2,105000000,base_footprint,-0.0038482250232899154,-4.093933950638788e-06,0.9999925776965971,0.0001889421210598209,0.0,0.0,0.0,0.0,0.0,0.0,0.0,0.0,0.0,-0.00020032996544838984,-0.0010547969646224288,-0.03459068087316763,0.0,0.0,0.0,0.0,0.0,0.0,0.0,0.0,0.0,0.06235465345562375,-0.008415302263221161,0.0007773184052028041,0.0,0.0,0.0,0.0,0.0,0.0,0.0,0.0,0.0
2.137,54,2,139000000,base_footprint,-0.003849644485563432,1.1675336860093382e-06,0.9999918620965358,0.0012066385849320833,0.0,0.0,0.0,0.0,0.0,0.0,0.0,0.0,0.0,0.0007817421296902639,-0.000190538051719688,-0.09590109489405065,0.0,0.0,0.0,0.0,0.0,0.0,0.0,0.0,0.0,0.2099718610265682,-0.01393339368956595,0.0002751332211938797,0.0,0.0,0.0,0.0,0.0,0.0,0.0,0.0,0.0
2.173,55,2,173000000,base_footprint,-0.0038490425881515336,1.0368235768918552e-05,0.9999854241536111,0.0037863232794771795,0.0,0.0,0.0,0.0,0.0,0.0,0.0,0.0,0.0,0.0016570689116202032,-8.926557787695171e-05,-0.21070916812453314,0.0,0.0,0.0,0.0,0.0,0.0,0.0,0.0,0.0,0.2996044245839369,-0.034523149840010724,0.002142021532561971,0.0,0.0,0.0,0.0,0.0,0.0,0.0,0.0,0.0
2.208,56,2,207000000,base_footprint,-0.0038553991852062733,2.672270013391157e-05,0.9999561684374416,0.008532079871342881,0.0,0.0,0.0,0.0,0.0,0.0,0.0,0.0,0.0,0.0024539980805740966,5.632181182327268e-05,-0.32034890136115546,0.0,0.0,0.0,0.0,0.0,0.0,0.0,0.0,0.0,0.2868128600034503,-0.06818336557559275,0.0017993175839970425,0.0,0.0,0.0,0.0,0.0,0.0,0.0,0.0,0.0
2.241,57,2,241000000,base_footprint,-0.0038534828110739685,4.7491996838304165e-05,0.9998945781584091,0.013999320846103369,0.0,0.0,0.0,0.0,0.0,0.0,0.0,0.0,0.0,0.002040585209308579,-0.00031031516074792064,-0.32875222191546755,0.0,0.0,0.0,0.0,0.0,0.0,0.0,0.0,0.0,-0.0013207325401735563,-0.07164705658807206,0.0008054753688318189,0.0,0.0,0.0,0.0,0.0,0.0,0.0,0.0,0.0
2.274,58,2,275000000,base_footprint,-0.0038529649176359897,6.869428460516854e-05,0.9998008275594539,0.019582010976148877,0.0,0.0,0.0,0.0,0.0,0.0,0.0,0.0,0.0,0.0025443306533953756,-0.0002574125198581787,-0.32862876152544857,0.0,0.0,0.0,0.0,0.0,0.0,0.0,0.0,0.0,-0.0037669610357819548,-0.07319354088212114,-1.1457698687225088e-05,0.0,0.0,0.0,0.0,0.0,0.0,0.0,0.0,0.0
2.309,59,2,309000000,base_footprint,-0.003852715447400088,8.990622319970087e-05,0.9996758210435068,0.0251674655367403,0.0,0.0,0.0,0.0,0.0,0.0,0.0,0.0,0.0,0.002485141662094561,-0.00026793767648652543,-0.3288532766110704,0.0,0.0,0.0,0.0,0.0,0.0,0.0,0.0,0.0,-0.00562513333605895,-0.07307036486486268,-0.00010273617699660376,0.0,0.0,0.0,0.0,0.0,0.0,0.0,0.0,0.0
2.343,60,2,343000000,base_footprint,-0.003856575972848245,0.00011307990811198064,0.9995143075890567,0.03092350173361263,0.0,0.0,0.0,0.0,0.0,0.0,0.0,0.0,0.0,0.0035656715170812774,-0.0001619375763614147,-0.40263319919204366,0.0,0.0,0.0,0.0,0.0,0.0,0.0,0.0,0.0,-0.06422975780905806,-0.066862129839998,-0.00040590025493059036,0.0,0.0,0.0,0.0,0.0,0.0,0.0,0.0,0.0
2.377,61,2,377000000,base_footprint,-0.0038519703024698353,0.00013763630980341996,0.9992619322782941,0.03821955102411944,0.0,0.0,0.0,0.0,0.0,0.0,0.0,0.0,0.0,0.003810192511485203,-0.0009446924104141495,-0.4688408254837119,0.0,0.0,0.0,0.0,0.0,0.0,0.0,0.0,0.0,0.00247531159935667,-0.09638243824806529,0.000934312715663497,0.0,0.0,0.0,0.0,0.0,0.0,0.0,0.0,0.0
2.412,62,2,411000000,base_footprint,-0.0038524579238109627,0.0001711468152055372,0.9989026527937491,0.046675684444082974,0.0,0.0,0.0,0.0,0.0,0.0,0.0,0.0,0.0,0.0037137865088013953,-0.0004044889069209302,-0.501312566414877,0.0,0.0,0.0,0.0,0.0,0.0,0.0,0.0,0.0,0.06578380283608451,-0.12411664565473852,-0.0006040282872155312,0.0,0.0,0.0,0.0,0.0,0.0,0.0,0.0,0.0
2.445,63,2,445000000,base_footprint,-0.003844473095786387,0.00020717997993638834,0.9984807335873638,0.05496727897496642,0.0,0.0,0.0,0.0,0.0,0.0,0.0,0.0,0.0,0.0029931439618051036,0.0009284402713659841,-0.42488732474997265,0.0,0.0,0.0,0.0,0.0,0.0,0.0,0.0,0.0,0.009373786955770128,-0.11527791645827652,0.0005104468978700218,0.0,0.0,0.0,0.0,0.0,0.0,0.0,0.0,0.0
2.479,64,2,479000000,base_footprint,-0.003848475388406496,0.00023142169167139775,0.9980767779438475,0.06186987158878899,0.0,0.0,0.0,0.0,0.0,0.0,0.0,0.0,0.0,0.0027758349671040943,-0.0002683898412331682,-0.39964090788112333,0.0,0.0,0.0,0.0,0.0,0.0,0.0,0.0,0.0,-0.0876370688263612,-0.07345158209619343,-0.0012581666819517492,0.0,0.0,0.0,0.0,0.0,0.0,0.0,0.0,0.0
2.513,65,2,513000000,base_footprint,-0.0038481845435457897,0.00025727720322114644,0.9976296445324053,0.06870384002591191,0.0,0.0,0.0,0.0,0.0,0.0,0.0,0.0,0.0,0.0031773577186864485,-0.0010074989893317826,-0.40042149376188535,0.0,0.0,0.0,0.0,0.0,0.0,0.0,0.0,0.0,-0.021600853183129144,-0.08685418160886556,0.0009315377067447877,0.0,0.0,0.0,0.0,0.0,0.0,0.0,0.0,0.0
2.547,66,2,547000000,base_footprint,-0.0038454305133568773,0.0002840741460287354,0.9971554507273839,0.0752737607052713,0.0,0.0,0.0,0.0,0.0,0.0,0.0,0.0,0.0,0.0014751563063305846,-0.005944182775735513,-0.3326192554862206,0.0,0.0,0.0,0.0,0.0,0.0,0.0,0.0,0.0,-0.04287620939266355,-0.07838776824738773,0.007538581822727473,0.0,0.0,0.0,0.0,0.0,0.0,0.0,0.0,0.0
2.581,67,2,581000000,base_footprint,-0.0038442560080638364,0.000306491279816755,0.996703185531358,0.08104250557876098,0.0,0.0,0.0,0.0,0.0,0.0,0.0,0.0,0.0,0.002668790453402555,-0.0005514047831883884,-0.3406472905175249,0.0,0.0,0.0,0.0,0.0,0.0,0.0,0.0,0.0,-0.02001069919352121,-0.07286899406527016,-0.008553640443310077,0.0,0.0,0.0,0.0,0.0,0.0,0.0,0.0,0.0
2.617,68,2,615000000,base_footprint,-0.003843428972451827,0.00033017966397341883,0.9962149486951886,0.08683832697240305,0.0,0.0,0.0,0.0,0.0,0.0,0.0,0.0,0.0,0.0025955449342608423,-0.0005516037083238562,-0.34446239803831996,0.0,0.0,0.0,0.0,0.0,0.0,0.0,0.0,0.0,-0.031475156163604745,-0.06918975953709666,0.00019015299106922703,0.0,0.0,0.0,0.0,0.0,0.0,0.0,0.0,0.0
2.649,69,2,649000000,base_footprint,-0.003835117549111684,0.0003475265430072941,0.9956789097416505,0.09278297146763831,0.0,0.0,0.0,0.0,0.0,0.0,0.0,0.0,0.0,0.0026933536481773546,8.83535698039853e-05,-0.35212102806992074,0.0,0.0,0.0,0.0,0.0,0.0,0.0,0.0,0.0,-0.09737623161284054,-0.046041212400897126,-0.0013871748341914164,0.0,0.0,0.0,0.0,0.0,0.0,0.0,0.0,0.0
2.683,70,2,683000000,base_footprint,-0.003832579176269432,0.00036987621611937104,0.9951110783031412,0.09868696148327825,0.0,0.0,0.0,0.0,0.0,0.0,0.0,0.0,0.0,0.0025288624514123023,-0.0007309307518429992,-0.33972247318165016,0.0,0.0,0.0,0.0,0.0,0.0,0.0,0.0,0.0,-0.004359527082319736,-0.0819702448121945,0.0009284601627593241,0.0,0.0,0.0,0.0,0.0,0.0,0.0,0.0,0.0
2.724,71,2,717000000,base_footprint,-0.0038339473380421345,0.0003939124441796331,0.9945536861451926,0.1041542656630305,0.0,0.0,0.0,0.0,0.0,0.0,0.0,0.0,0.0,0.0021702219793689388,-0.0010216197578217835,-0.31749638658710805,0.0,0.0,0.0,0.0,0.0,0.0,0.0,0.0,0.0,0.015176354584048857,-0.08529478215480517,0.0005428031505605468,0.0,0.0,0.0,0.0,0.0,0.0,0.0,0.0,0.0
2.754,72,2,751000000,base_footprint,-0.003829788031137578,0.0004124837063773179,0.9939972847899,0.10933691239071566,0.0,0.0,0.0,0.0,0.0,0.0,0.0,0.0,0.0,0.002696617837500765,-0.00021133207309603425,-0.2838194469098727,0.0,0.0,0.0,0.0,0.0,0.0,0.0,0.0,0.0,-0.15133209708120673,-0.00480407560313496,-0.002134115297856327,0.0,0.0,0.0,0.0,0.0,0.0,0.0,0.0,0.0
2.785,73,2,785000000,base_footprint,-0.003827632582638216,0.0004273959673245274,0.9935119627495669,0.11366242314416315,0.0,0.0,0.0,0.0,0.0,0.0,0.0,0.0,0.0,0.0011304061219101621,-0.000749114931123666,-0.19402685144345633,0.0,0.0,0.0,0.0,0.0,0.0,0.0,0.0,0.0,0.03878195996794095,-0.08255741828868654,0.0012340649326933234,0.0,0.0,0.0,0.0,0.0,0.0,0.0,0.0,0.0
2.819,74,2,819000000,base_footprint,-0.0038297412525275226,0.0004408094323976658,0.9931601428224862,0.1166964844277753,0.0,0.0,0.0,0.0,0.0,0.0,0.0,0.0,0.0,0.0012391879675553302,-0.0003746653690779696,-0.1790943872744853,0.0,0.0,0.0,0.0,0.0,0.0,0.0,0.0,0.0,0.01027021747093311,-0.04972744279221566,-0.0003483792997394326,0.0,0.0,0.0,0.0,0.0,0.0,0.0,0.0,0.0
2.854,75,2,853000000,base_footprint,-0.003827958372567578,0.00045936264744084675,0.9927479096920921,0.1201529172456409,0.0,0.0,0.0,0.0,0.0,0.0,0.0,0.0,0.0,0.0020632570067450388,-0.000674214660725574,-0.27973841883734946,0.0,0.0,0.0,0.0,0.0,0.0,0.0,0.0,0.0,-0.29690459324046187,0.10568338527417803,-0.002021288970894508,0.0,0.0,0.0,0.0,0.0,0.0,0.0,0.0,0.0
2.887,76,2,887000000,base_footprint,-0.0038239700275053625,0.0004730900890984425,0.9922393244137183,0.12428305003500772,0.0,0.0,0.0,0.0,0.0,0.0,0.0,0.0,0.0,0.0019073572458711675,0.0011443976974415755,-0.16699854476507195,0.0,0.0,0.0,0.0,0.0,0.0,0.0,0.0,0.0,-0.04088051187663829,-0.03816468356551409,-0.0028928127303728323,0.0,0.0,0.0,0.0,0.0,0.0,0.0,0.0,0.0
2.9210000000000003,77,2,921000000,base_footprint,-0.0038261110983802854,0.0004809907339455223,0.991891323126391,0.1270304397707668,0.0,0.0,0.0,0.0,0.0,0.0,0.0,0.0,0.0,0.0010135266215821333,-0.000452083454035983,-0.15978137892568664,0.0,0.0,0.0,0.0,0.0,0.0,0.0,0.0,0.0,-0.03357350984613949,-0.021071249885289647,0.002260217073969988,0.0,0.0,0.0,0.0,0.0,0.0,0.0,0.0,0.0
2.955,78,2,955000000,base_footprint,-0.0038162277580483656,0.0004937944072435098,0.9915964112131831,0.12931260511612166,0.0,0.0,0.0,0.0,0.0,0.0,0.0,0.0,0.0,0.0005292116740457253,-7.3039169730056185e-06,-0.08402218079133211,0.0,0.0,0.0,0.0,0.0,0.0,0.0,0.0,0.0,0.18916447085960597,-0.14133159597098693,0.002368918085532702,0.0,0.0,0.0,0.0,0.0,0.0,0.0,0.0,0.0
2.989,79,2,989000000,base_footprint,-0.0038221813234503525,0.0004983965978994256,0.9913481987327963,0.13120172026312046,0.0,0.0,0.0,0.0,0.0,0.0,0.0,0.0,0.0,0.0008168691255198515,-0.0005136183251131428,-0.11972798220224229,0.0,0.0,0.0,0.0,0.0,0.0,0.0,0.0,0.0,0.07030991822857248,-0.06870938901954328,0.00019890597804837727,0.0,0.0,0.0,0.0,0.0,0.0,0.0,0.0,0.0
3.023,80,3,23000000,base_footprint,-0.003821368741780109,0.0005069012487290532,0.9910779372720592,0.133227859115967,0.0,0.0,0.0,0.0,0.0,0.0,0.0,0.0,0.0,0.0008707721752334274,-0.00036122987650091907,-0.12004703852454762,0.0,0.0,0.0,0.0,0.0,0.0,0.0,0.0,0.0,-0.01183485647627052,-0.02380558394603016,-0.00041432553235947427,0.0,0.0,0.0,0.0,0.0,0.0,0.0,0.0,0.0
3.057,81,3,57000000,base_footprint,-0.0038242760365169476,0.0005096248502950875,0.9908437265366785,0.1349586039429004,0.0,0.0,0.0,0.0,0.0,0.0,0.0,0.0,0.0,0.0002064707490161746,-0.00073496968901397,-0.06292717981249986,0.0,0.0,0.0,0.0,0.0,0.0,0.0,0.0,0.0,-0.4000579696631714,0.21397463682837395,-0.0024537377704868376,0.0,0.0,0.0,0.0,0.0,0.0,0.0,0.0,0.0
3.091,82,3,91000000,base_footprint,-0.0038202179270909976,0.0005170799110561921,0.9907510321055483,0.13563749830023428,0.0,0.0,0.0,0.0,0.0,0.0,0.0,0.0,0.0,0.000557031287362556,0.00015876286164113698,-0.04082578494551315,0.0,0.0,0.0,0.0,0.0,0.0,0.0,0.0,0.0,-0.21705967519230024,0.12088023145475718,-0.003275854873387067,0.0,0.0,0.0,0.0,0.0,0.0,0.0,0.0,0.0
3.126,83,3,125000000,base_footprint,-0.003820655782784076,0.0005206439340709319,0.9906557837484361,0.13633139640249858,0.0,0.0,0.0,0.0,0.0,0.0,0.0,0.0,0.0,0.00048355183136568726,-0.00026168092231225004,-0.041690287340931706,0.0,0.0,0.0,0.0,0.0,0.0,0.0,0.0,0.0,-0.004949999964641469,-0.00654145205481773,0.0004059001846339895,0.0,0.0,0.0,0.0,0.0,0.0,0.0,0.0,0.0
3.159,84,3,159000000,base_footprint,-0.003817235680682451,0.0005264243731033891,0.9903983911036459,0.13818892317565554,0.0,0.0,0.0,0.0,0.0,0.0,0.0,0.0,0.0,3.4104572232994466e-05,-0.0007166880998695179,-0.23869077960302595,0.0,0.0,0.0,0.0,0.0,0.0,0.0,0.0,0.0,0.2330414286018302,-0.16758737917588373,0.004226528127179325,0.0,0.0,0.0,0.0,0.0,0.0,0.0,0.0,0.0
3.193,85,3,193000000,base_footprint,-0.0038124969659162015,0.0005437312860970876,0.9895932636388483,0.14384137716174195,0.0,0.0,0.0,0.0,0.0,0.0,0.0,0.0,0.0,0.0025206593777030366,-0.0009655390777042593,-0.35661198251096377,0.0,0.0,0.0,0.0,0.0,0.0,0.0,0.0,0.0,0.11094446885825952,-0.15306645616806414,-0.0006120906220917444,0.0,0.0,0.0,0.0,0.0,0.0,0.0,0.0,0.0
3.228,86,3,227000000,base_footprint,-0.0038093341963642,0.0005653492878633918,0.9887389799818775,0.149600798184901,0.0,0.0,0.0,0.0,0.0,0.0,0.0,0.0,0.0,0.002286903746365192,-0.0008868692762864158,-0.32294975431048406,0.0,0.0,0.0,0.0,0.0,0.0,0.0,0.0,0.0,0.01783884024822638,-0.10119936788309003,0.00022028719493023076,0.0,0.0,0.0,0.0,0.0,0.0,0.0,0.0,0.0
3.261,87,3,261000000,base_footprint,-0.003807245484097587,0.000581069017196672,0.9880975618891985,0.15378028296645424,0.0,0.0,0.0,0.0,0.0,0.0,0.0,0.0,0.0,0.001187989960034472,-0.0005359148855059985,-0.18430325639192746,0.0,0.0,0.0,0.0,0.0,0.0,0.0,0.0,0.0,0.0006339873691627394,-0.06821229385352152,-2.3324237933681583e-05,0.0,0.0,0.0,0.0,0.0,0.0,0.0,0.0,0.0
3.295,88,3,295000000,base_footprint,-0.0038092381250702883,0.000592735175501567,0.9877273266907628,0.1561405343856534,0.0,0.0,0.0,0.0,0.0,0.0,0.0,0.0,0.0,0.0005684071779903236,-0.0005031202756720215,-0.1217783573301157,0.0,0.0,0.0,0.0,0.0,0.0,0.0,0.0,0.0,0.08746327832290912,-0.10115678816633869,0.0009774257634424042,0.0,0.0,0.0,0.0,0.0,0.0,0.0,0.0,0.0
3.329,89,3,329000000,base_footprint,-0.003808739240042802,0.0006005836254241091,0.9874037947796355,0.15817357193755752,0.0,0.0,0.0,0.0,0.0,0.0,0.0,0.0,0.0,0.0007670093872105761,-0.000285778563137688,-0.12092677981177306,0.0,0.0,0.0,0.0,0.0,0.0,0.0,0.0,0.0,-0.016432197733966578,-0.02140061122782032,-0.00038404031758805274,0.0,0.0,0.0,0.0,0.0,0.0,0.0,0.0,0.0
3.366,90,3,363000000,base_footprint,-0.0038040428793646264,0.0006200081553023885,0.9868512826632801,0.1615849335597173,0.0,0.0,0.0,0.0,0.0,0.0,0.0,0.0,0.0,0.002379375427204026,-0.000819284256852724,-0.32798131142511644,0.0,0.0,0.0,0.0,0.0,0.0,0.0,0.0,0.0,-0.33945740851898903,0.20361639669014664,-0.0026322642914190985,0.0,0.0,0.0,0.0,0.0,0.0,0.0,0.0,0.0
3.398,91,3,397000000,base_footprint,-0.003807397157390516,0.0006321861542771241,0.9860211074422868,0.16657574777211337,0.0,0.0,0.0,0.0,0.0,0.0,0.0,0.0,0.0,0.0012957893140218592,-0.0008445223446648278,-0.22183894897388792,0.0,0.0,0.0,0.0,0.0,0.0,0.0,0.0,0.0,-0.014144897129337811,-0.06989654180111966,0.0004972346487074493,0.0,0.0,0.0,0.0,0.0,0.0,0.0,0.0,0.0
3.431,92,3,431000000,base_footprint,-0.003799504523940586,0.0006435429638433516,0.9856242692828463,0.16890810939230122,0.0,0.0,0.0,0.0,0.0,0.0,0.0,0.0,0.0,0.0010838654063479824,0.0011096586352812806,-0.10499871561451045,0.0,0.0,0.0,0.0,0.0,0.0,0.0,0.0,0.0,-0.004663203720536932,-0.03465595310778277,-0.002732483869484385,0.0,0.0,0.0,0.0,0.0,0.0,0.0,0.0,0.0
3.465,93,3,465000000,base_footprint,-0.003799402943106523,0.0006484026036114909,0.9854157639617671,0.17012029933839962,0.0,0.0,0.0,0.0,0.0,0.0,0.0,0.0,0.0,0.0007937719877304216,0.0015820997742414143,-0.0590311269795095,0.0,0.0,0.0,0.0,0.0,0.0,0.0,0.0,0.0,0.24425479647854362,-0.2191068681982101,0.00187340210861332,0.0,0.0,0.0,0.0,0.0,0.0,0.0,0.0,0.0
3.499,94,3,499000000,base_footprint,-0.0037985580267684725,0.0006522782481348012,0.9852469043388985,0.17109553758243304,0.0,0.0,0.0,0.0,0.0,0.0,0.0,0.0,0.0,0.00029607985713980893,-0.00023568786276247005,-0.05804814185674906,0.0,0.0,0.0,0.0,0.0,0.0,0.0,0.0,0.0,-0.009506031002937527,-0.008917828835024068,0.002777287692753565,0.0,0.0,0.0,0.0,0.0,0.0,0.0,0.0,0.0
3.533,95,3,533000000,base_footprint,-0.003797877288639006,0.0006566313756973601,0.9850769214243462,0.1720715079275748,0.0,0.0,0.0,0.0,0.0,0.0,0.0,0.0,0.0,0.0003992784965937368,-0.00030135270041401234,-0.058120239235225274,0.0,0.0,0.0,0.0,0.0,0.0,0.0,0.0,0.0,-0.007213919226113592,-0.010620484979528576,-9.053205771508355e-05,0.0,0.0,0.0,0.0,0.0,0.0,0.0,0.0,0.0
3.567,96,3,567000000,base_footprint,-0.0037981171301082464,0.0006562419665866471,0.9851265429419114,0.17178718824192288,0.0,0.0,0.0,0.0,0.0,0.0,0.0,0.0,0.0,-0.00013138027327579441,0.00013096950392681,0.032963360608804095,0.0,0.0,0.0,0.0,0.0,0.0,0.0,0.0,0.0,-0.01606103149019569,0.016868290681951614,-0.000416421660517351,0.0,0.0,0.0,0.0,0.0,0.0,0.0,0.0,0.0
3.6020000000000003,97,3,601000000,base_footprint,-0.003799032227406845,0.0006547863346626202,0.985221576449184,0.17124130316011993,0.0,0.0,0.0,0.0,0.0,0.0,0.0,0.0,0.0,-0.0001653952822733648,-0.00011088072357015512,0.03245138890606671,0.0,0.0,0.0,0.0,0.0,0.0,0.0,0.0,0.0,0.004746709267688226,0.005408199762123229,0.00026990621071074317,0.0,0.0,0.0,0.0,0.0,0.0,0.0,0.0,0.0
3.635,98,3,635000000,base_footprint,-0.003800492955237054,0.000653744578071652,0.9853138542188239,0.17070951220061018,0.0,0.0,0.0,0.0,0.0,0.0,0.0,0.0,0.0,-6.787969407128007e-05,-8.279794088011851e-05,0.030786681015304213,0.0,0.0,0.0,0.0,0.0,0.0,0.0,0.0,0.0,0.0027856437485725043,0.006760619209265778,-0.0001614959073231904,0.0,0.0,0.0,0.0,0.0,0.0,0.0,0.0,0.0
3.669,99,3,669000000,base_footprint,-0.003797595298826418,0.0006502535653068453,0.9852862863208016,0.17086863207859643,0.0,0.0,0.0,0.0,0.0,0.0,0.0,0.0,0.0,-0.00045299216017508304,-0.00028182309718491696,-0.02408470167184042,0.0,0.0,0.0,0.0,0.0,0.0,0.0,0.0,0.0,-0.014322443381487217,0.009832989613029487,0.0006776442315680073,0.0,0.0,0.0,0.0,0.0,0.0,0.0,0.0,0.0
3.702,100,3,703000000,base_footprint,-0.0037958206783300936,0.0006494881978721629,0.9852188923953128,0.17125683629511498,0.0,0.0,0.0,0.0,0.0,0.0,0.0,0.0,0.0,5.3217725750636334e-05,-0.0002716616243869951,-0.015262469460448095,0.0,0.0,0.0,0.0,0.0,0.0,0.0,0.0,0.0,0.011684434955153221,-0.016400982554648145,-0.0007488414083773439,0.0,0.0,0.0,0.0,0.0,0.0,0.0,0.0,0.0
3.737,101,3,737000000,base_footprint,-0.0038016034295157404,0.0006551091534680589,0.9851877335325543,0.17143584321941116,0.0,0.0,0.0,0.0,0.0,0.0,0.0,0.0,0.0,0.006277391378612321,0.0016742316957734761,-0.010897022404050456,0.0,0.0,0.0,0.0,0.0,0.0,0.0,0.0,0.0,-0.010340559368801612,0.004860121876887686,-0.0026994033672915704,0.0,0.0,0.0,0.0,0.0,0.0,0.0,0.0,0.0
3.771,102,3,771000000,base_footprint,-0.0037964869727931923,0.000652171747991061,0.9851031452405172,0.17192136166258476,0.0,0.0,0.0,0.0,0.0,0.0,0.0,0.0,0.0,-0.008975215332263389,0.0008843989106110496,-0.05680981921940882,0.0,0.0,0.0,0.0,0.0,0.0,0.0,0.0,0.0,-0.3890964500920112,0.3141435848901941,0.0021228700862104015,0.0,0.0,0.0,0.0,0.0,0.0,0.0,0.0,0.0
3.805,103,3,805000000,base_footprint,-0.0037991615432564655,0.0006563179048722059,0.9849994246242558,0.1725145475264647,0.0,0.0,0.0,0.0,0.0,0.0,0.0,0.0,0.0,-0.0002794621124036969,-0.0002753643586723589,-0.01742710821142523,0.0,0.0,0.0,0.0,0.0,0.0,0.0,0.0,0.0,0.13645516696286722,-0.12268271613484633,-0.0014206160491541894,0.0,0.0,0.0,0.0,0.0,0.0,0.0,0.0,0.0
3.839,104,3,839000000,base_footprint,-0.003798402863660075,0.0006533535722682717,0.9849558254918589,0.17276332682153825,0.0,0.0,0.0,0.0,0.0,0.0,0.0,0.0,0.0,-0.002002411607528663,0.00028566882306090626,0.0021534743312409247,0.0,0.0,0.0,0.0,0.0,0.0,0.0,0.0,0.0,0.013272602679978242,-0.01408910404048698,0.00047692874811224516,0.0,0.0,0.0,0.0,0.0,0.0,0.0,0.0,0.0
3.873,105,3,873000000,base_footprint,-0.003792626837311712,0.0006559003797409368,0.9851924763776191,0.1714087811790843,0.0,0.0,0.0,0.0,0.0,0.0,0.0,0.0,0.0,-0.0006188412483163343,0.0003200159794964478,0.10108716721559499,0.0,0.0,0.0,0.0,0.0,0.0,0.0,0.0,0.0,0.13601479332849592,-0.09216701461243591,0.0005897359868537458,0.0,0.0,0.0,0.0,0.0,0.0,0.0,0.0,0.0
3.91,106,3,907000000,base_footprint,-0.0037934484480171868,0.0006507360709133242,0.9854225026875091,0.17008138489712685,0.0,0.0,0.0,0.0,0.0,0.0,0.0,0.0,0.0,-0.000614623274854375,0.0005749307152577771,0.05239493027759659,0.0,0.0,0.0,0.0,0.0,0.0,0.0,0.0,0.0,0.10997154995627843,-0.06704087399436987,-0.00010766305442116042,0.0,0.0,0.0,0.0,0.0,0.0,0.0,0.0,0.0
3.941,107,3,941000000,base_footprint,-0.00379521786662015,0.0006476258765715425,0.9855496354310423,0.1693431221036398,0.0,0.0,0.0,0.0,0.0,0.0,0.0,0.0,0.0,-0.0015789386764281546,-0.002649795591510877,0.00471609620651904,0.0,0.0,0.0,0.0,0.0,0.0,0.0,0.0,0.0,0.015509811086695678,0.0004960443889156754,0.0037034962763821703,0.0,0.0,0.0,0.0,0.0,0.0,0.0,0.0,0.0
3.975,108,3,975000000,base_footprint,-0.003799525460592006,0.0006458740609594994,0.9855521715006083,0.16932827201447354,0.0,0.0,0.0,0.0,0.0,0.0,0.0,0.0,0.0,-0.00014368777832880495,-0.00011274876445218948,0.0011892027844243617,0.0,0.0,0.0,0.0,0.0,0.0,0.0,0.0,0.0,0.008733430610446916,-0.007293804091652375,-0.002206247231158434,0.0,0.0,0.0,0.0,0.0,0.0,0.0,0.0,0.0
4.01,109,4,9000000,base_footprint,-0.0037994867119471943,0.0006463505188914155,0.9855548462973934,0.16931270203813334,0.0,0.0,0.0,0.0,0.0,0.0,0.0,0.0,0.0,-0.00010080529982870011,-9.348914199334795e-05,0.0010963542512788763,0.0,0.0,0.0,0.0,0.0,0.0,0.0,0.0,0.0,0.0012117828595565197,-0.0007322145770916486,-7.824182640917671e-05,0.0,0.0,0.0,0.0,0.0,0.0,0.0,0.0,0.0
4.044,110,4,43000000,base_footprint,-0.003793831052592047,0.0006453942475139814,0.9855289622388773,0.16946343234034644,0.0,0.0,0.0,0.0,0.0,0.0,0.0,0.0,0.0,0.002209985348183493,0.001152243655263494,-0.07228415236609013,0.0,0.0,0.0,0.0,0.0,0.0,0.0,0.0,0.0,0.014177784800430882,-0.012529717018476175,-0.0038053141567584796,0.0,0.0,0.0,0.0,0.0,0.0,0.0,0.0,0.0
4.077,111,4,77000000,base_footprint,-0.0037993709590469645,0.0006527204566529956,0.9853194686043991,0.1706771324034528,0.0,0.0,0.0,0.0,0.0,0.0,0.0,0.0,0.0,0.0005688026819373848,-0.00034470485779992624,-0.07236574934306648,0.0,0.0,0.0,0.0,0.0,0.0,0.0,0.0,0.0,-0.009082944977087594,-0.013563492879060987,0.0038033129952411383,0.0,0.0,0.0,0.0,0.0,0.0,0.0,0.0,0.0
4.11,112,4,111000000,base_footprint,-0.0037994658655440953,0.0006580026995896722,0.98510708472843,0.1718986989754077,0.0,0.0,0.0,0.0,0.0,0.0,0.0,0.0,0.0,0.0006620238399569747,-0.0003478053890077447,-0.07354033213927433,0.0,0.0,0.0,0.0,0.0,0.0,0.0,0.0,0.0,-0.01068036892683925,-0.011289309191948062,-0.0001748217692468552,0.0,0.0,0.0,0.0,0.0,0.0,0.0,0.0,0.0
4.145,113,4,145000000,base_footprint,-0.00380063921129625,0.0006637907539301254,0.9849079271527561,0.17303609321491809,0.0,0.0,0.0,0.0,0.0,0.0,0.0,0.0,0.0,-0.00016188004988329868,-0.0006767104985493256,-0.018554515279328554,0.0,0.0,0.0,0.0,0.0,0.0,0.0,0.0,0.0,-0.12521846111283558,0.08342735537622803,-9.472905238987748e-05,0.0,0.0,0.0,0.0,0.0,0.0,0.0,0.0,0.0
4.179,114,4,179000000,base_footprint,-0.0037963712534982543,0.0006540540983595659,0.9850776767850059,0.17206722662493767,0.0,0.0,0.0,0.0,0.0,0.0,0.0,0.0,0.0,-0.000504045288914095,0.00013634582268464465,0.07991588629430808,0.0,0.0,0.0,0.0,0.0,0.0,0.0,0.0,0.0,-0.17430532808593346,0.15936343297986716,-0.0029259523744331922,0.0,0.0,0.0,0.0,0.0,0.0,0.0,0.0,0.0
4.213,115,4,213000000,base_footprint,-0.003799675178521164,0.0006502859939934248,0.9853169435228634,0.1706917115838564,0.0,0.0,0.0,0.0,0.0,0.0,0.0,0.0,0.0,-0.0005320409648770269,0.00019396902695374455,0.08184182601921713,0.0,0.0,0.0,0.0,0.0,0.0,0.0,0.0,0.0,0.014956434757160337,0.00976232666329438,0.00012969561152226456,0.0,0.0,0.0,0.0,0.0,0.0,0.0,0.0,0.0
4.247,116,4,247000000,base_footprint,-0.0037967754595629767,0.000644680471633113,0.9855149148647828,0.16954504257647568,0.0,0.0,0.0,0.0,0.0,0.0,0.0,0.0,0.0,-0.001058186320235748,-0.0019191541351032328,0.030793447110332012,0.0,0.0,0.0,0.0,0.0,0.0,0.0,0.0,0.0,0.02320442021709999,0.00070106365760311,0.0029910458240890573,0.0,0.0,0.0,0.0,0.0,0.0,0.0,0.0,0.0
4.281,117,4,281000000,base_footprint,-0.003801388591382125,0.0006424694778428686,0.9856130031610869,0.16897379879002175,0.0,0.0,0.0,0.0,0.0,0.0,0.0,0.0,0.0,-0.00034679623601942657,5.525397256123777e-05,0.033627661237449535,0.0,0.0,0.0,0.0,0.0,0.0,0.0,0.0,0.0,0.0011410760053116604,0.007236191978851686,-0.002702616307813085,0.0,0.0,0.0,0.0,0.0,0.0,0.0,0.0,0.0
4.315,118,4,315000000,base_footprint,-0.003802474196003151,0.0006401934712155255,0.985709613427629,0.168409291129268,0.0,0.0,0.0,0.0,0.0,0.0,0.0,0.0,0.0,-0.0003766121531411903,0.00017836053356358206,0.03408229042120456,0.0,0.0,0.0,0.0,0.0,0.0,0.0,0.0,0.0,0.004767613932515695,0.00631012490168705,-0.00011492522965894933,0.0,0.0,0.0,0.0,0.0,0.0,0.0,0.0,0.0
4.349,119,4,349000000,base_footprint,-0.0037989232328432885,0.0006450375756514566,0.9857463933102408,0.16819393623031983,0.0,0.0,0.0,0.0,0.0,0.0,0.0,0.0,0.0,0.0006162179282701459,-0.00046016198895746643,-0.0814674177816618,0.0,0.0,0.0,0.0,0.0,0.0,0.0,0.0,0.0,-0.134155625948087,0.11252836757836074,-0.0004186555672098894,0.0,0.0,0.0,0.0,0.0,0.0,0.0,0.0,0.0
4.383,120,4,383000000,base_footprint,-0.003791613173576531,0.0006504295874733927,0.9854006748031338,0.17020784561359859,0.0,0.0,0.0,0.0,0.0,0.0,0.0,0.0,0.0,0.00015662976798472598,-0.0008071371391388804,-0.08002803521353732,0.0,0.0,0.0,0.0,0.0,0.0,0.0,0.0,0.0,0.10729684557280192,-0.11960093419637037,0.0014474235207676644,0.0,0.0,0.0,0.0,0.0,0.0,0.0,0.0,0.0
4.417,121,4,417000000,base_footprint,-0.003800277086002848,0.0006492299282697437,0.985375906921186,0.17035098606647378,0.0,0.0,0.0,0.0,0.0,0.0,0.0,0.0,0.0,-0.00037556978233710837,0.00048312312469824594,0.0428550662230708,0.0,0.0,0.0,0.0,0.0,0.0,0.0,0.0,0.0,0.27007161657578915,-0.224773887183299,0.0011348188220603895,0.0,0.0,0.0,0.0,0.0,0.0,0.0,0.0,0.0
4.452,122,4,451000000,base_footprint,-0.003799051448816737,0.0006464421201518144,0.9855269782785678,0.16947484888852926,0.0,0.0,0.0,0.0,0.0,0.0,0.0,0.0,0.0,-0.0002710234694267009,0.000520783365774369,0.06419174754896348,0.0,0.0,0.0,0.0,0.0,0.0,0.0,0.0,0.0,0.002498126535877141,0.012649205080041066,3.084771431081681e-05,0.0,0.0,0.0,0.0,0.0,0.0,0.0,0.0,0.0
4.485,123,4,485000000,base_footprint,-0.003800023758276178,0.0006427169657265877,0.9857110696112236,0.16840081347854655,0.0,0.0,0.0,0.0,0.0,0.0,0.0,0.0,0.0,-0.0005677994806598404,6.772087503949637e-05,0.06428349453226943,0.0,0.0,0.0,0.0,0.0,0.0,0.0,0.0,0.0,0.009644806087209922,0.010165340483892832,0.0006147710954743966,0.0,0.0,0.0,0.0,0.0,0.0,0.0,0.0,0.0
4.519,124,4,519000000,base_footprint,-0.0038009394694745605,0.0006391984693381537,0.985893738634592,0.16732806221782762,0.0,0.0,0.0,0.0,0.0,0.0,0.0,0.0,0.0,-0.0004808641741379235,4.2444057245183856e-05,0.06412008196924818,0.0,0.0,0.0,0.0,0.0,0.0,0.0,0.0,0.0,0.00965203695400082,0.010350610122886822,-7.963678429562251e-05,0.0,0.0,0.0,0.0,0.0,0.0,0.0,0.0,0.0
4.553,125,4,553000000,base_footprint,-0.003802428926994163,0.0006343712712664381,0.9861293509797157,0.16593384899914174,0.0,0.0,0.0,0.0,0.0,0.0,0.0,0.0,0.0,-6.027806436545167e-05,0.0006659961709942538,0.10512960146060688,0.0,0.0,0.0,0.0,0.0,0.0,0.0,0.0,0.0,0.0015741463637272196,0.021433839103529057,-0.001289159900305818,0.0,0.0,0.0,0.0,0.0,0.0,0.0,0.0,0.0
4.587,126,4,587000000,base_footprint,-0.0038040982187651368,0.0006282792068511925,0.9864249000554937,0.16416775156068192,0.0,0.0,0.0,0.0,0.0,0.0,0.0,0.0,0.0,-0.0006514200360200038,0.00011503601611119,0.1049007914177321,0.0,0.0,0.0,0.0,0.0,0.0,0.0,0.0,0.0,0.015095674034813362,0.01837521420684837,0.001197994472768924,0.0,0.0,0.0,0.0,0.0,0.0,0.0,0.0,0.0
4.621,127,4,621000000,base_footprint,-0.0038063028887965395,0.0006216193250990411,0.9867032847896016,0.16248616382062783,0.0,0.0,0.0,0.0,0.0,0.0,0.0,0.0,0.0,-0.0011237647497426048,3.225305618604908e-05,0.08981750791660834,0.0,0.0,0.0,0.0,0.0,0.0,0.0,0.0,0.0,-0.010523818691708039,0.035528244997071884,0.0005613977135509334,0.0,0.0,0.0,0.0,0.0,0.0,0.0,0.0,0.0
4.655,128,4,655000000,base_footprint,-0.003802147490737772,0.0006110989623432749,0.9869129372937664,0.16120801603737658,0.0,0.0,0.0,0.0,0.0,0.0,0.0,0.0,0.0,-0.0005037986552819085,3.489225563876903e-05,0.07347043981125272,0.0,0.0,0.0,0.0,0.0,0.0,0.0,0.0,0.0,0.029283166235292868,-0.0013269806555792994,-0.0008409759006553054,0.0,0.0,0.0,0.0,0.0,0.0,0.0,0.0,0.0
4.689,129,4,689000000,base_footprint,-0.003806200878435054,0.0006086499408583627,0.9871282735910712,0.1598840638000978,0.0,0.0,0.0,0.0,0.0,0.0,0.0,0.0,0.0,-0.0004560464278195533,0.0002024029982718097,0.07920325485155358,0.0,0.0,0.0,0.0,0.0,0.0,0.0,0.0,0.0,0.02107084146390311,0.005595583539900314,0.0002567344880554282,0.0,0.0,0.0,0.0,0.0,0.0,0.0,0.0,0.0
4.722,130,4,723000000,base_footprint,-0.0038075042612508254,0.0006028369525645599,0.9873428334152151,0.15855367798485193,0.0,0.0,0.0,0.0,0.0,0.0,0.0,0.0,0.0,-0.0006504536630501651,0.00014000574771667122,0.07911550124104841,0.0,0.0,0.0,0.0,0.0,0.0,0.0,0.0,0.0,0.010494429122073646,0.01381386943098656,0.0002379747276782827,0.0,0.0,0.0,0.0,0.0,0.0,0.0,0.0,0.0
4.757,131,4,757000000,base_footprint,-0.003808198059249506,0.0006053623255841343,0.9874872593702502,0.15765165316427443,0.0,0.0,0.0,0.0,0.0,0.0,0.0,0.0,0.0,-0.0003170782530215818,-0.0005336525271548175,-0.005204409316158482,0.0,0.0,0.0,0.0,0.0,0.0,0.0,0.0,0.0,-0.2862316386220739,0.22607737478550788,-0.0016245137093436302,0.0,0.0,0.0,0.0,0.0,0.0,0.0,0.0,0.0
4.791,132,4,791000000,base_footprint,-0.003808660709226782,0.0005959541687775481,0.9874538002117758,0.15786111424145408,0.0,0.0,0.0,0.0,0.0,0.0,0.0,0.0,0.0,-0.0003159637821477714,-2.3908177413309943e-05,0.05446518216348817,0.0,0.0,0.0,0.0,0.0,0.0,0.0,0.0,0.0,-0.033875462028316025,0.020101902117088115,-0.000799845062400205,0.0,0.0,0.0,0.0,0.0,0.0,0.0,0.0,0.0
4.825,133,4,825000000,base_footprint,-0.0038116376051007222,0.0005938599829754382,0.9876525645794527,0.15661267646240495,0.0,0.0,0.0,0.0,0.0,0.0,0.0,0.0,0.0,-0.000688373144686336,8.115259011000747e-05,0.07825795337213334,0.0,0.0,0.0,0.0,0.0,0.0,0.0,0.0,0.0,0.05098174056772627,-0.01787680469177321,0.00018435423580639166,0.0,0.0,0.0,0.0,0.0,0.0,0.0,0.0,0.0
4.859,134,4,859000000,base_footprint,-0.00380289881719172,0.0005923041635214776,0.9879283120378879,0.15486393192197434,0.0,0.0,0.0,0.0,0.0,0.0,0.0,0.0,0.0,-0.0006302962530541421,0.0004940175549737767,0.10959863081939239,0.0,0.0,0.0,0.0,0.0,0.0,0.0,0.0,0.0,0.09181201638069715,-0.03919517248916729,0.00035956278734136784,0.0,0.0,0.0,0.0,0.0,0.0,0.0,0.0,0.0
4.893,135,4,893000000,base_footprint,-0.0038035568207335844,0.000587270762872951,0.9881364175810234,0.1535304800966368,0.0,0.0,0.0,0.0,0.0,0.0,0.0,0.0,0.0,-0.00046746726481742054,-1.4428421748949449e-05,0.04413890666728008,0.0,0.0,0.0,0.0,0.0,0.0,0.0,0.0,0.0,0.15015105182216468,-0.08536176221830957,0.0017516753880167137,0.0,0.0,0.0,0.0,0.0,0.0,0.0,0.0,0.0
4.927,136,4,927000000,base_footprint,-0.0038096414446742366,0.0005840935176578328,0.9881719199441843,0.15330167024742541,0.0,0.0,0.0,0.0,0.0,0.0,0.0,0.0,0.0,-8.163540868706631e-05,9.579770452420877e-05,0.006677162686365929,0.0,0.0,0.0,0.0,0.0,0.0,0.0,0.0,0.0,0.08262014757493263,-0.0546624564172419,0.00047474095620739915,0.0,0.0,0.0,0.0,0.0,0.0,0.0,0.0,0.0
4.961,137,4,961000000,base_footprint,-0.0038097194905392963,0.0005842971300974956,0.9881868360024266,0.15320548875866194,0.0,0.0,0.0,0.0,0.0,0.0,0.0,0.0,0.0,-0.0001578917651003081,-8.568029691475852e-05,0.005646023025923859,0.0,0.0,0.0,0.0,0.0,0.0,0.0,0.0,0.0,0.0019375450120268831,0.00014489015171192243,0.0002379949211963082,0.0,0.0,0.0,0.0,0.0,0.0,0.0,0.0,0.0
4.996,138,4,995000000,base_footprint,-0.0038098450777459118,0.00058451142616804,0.9882007930292285,0.15311543385067436,0.0,0.0,0.0,0.0,0.0,0.0,0.0,0.0,0.0,-6.925711781919895e-05,-0.00010311205405598518,0.005519981139869866,0.0,0.0,0.0,0.0,0.0,0.0,0.0,0.0,0.0,0.0016706949866005085,0.00028215694493325294,-0.0001484256748658875,0.0,0.0,0.0,0.0,0.0,0.0,0.0,0.0,0.0
5.029,139,5,29000000,base_footprint,-0.003810149159383235,0.0005846251800313152,0.9882141983650294,0.15302888330816647,0.0,0.0,0.0,0.0,0.0,0.0,0.0,0.0,0.0,-9.978371855334067e-06,-0.0001111238171035084,0.005152734951105703,0.0,0.0,0.0,0.0,0.0,0.0,0.0,0.0,0.0,0.001413621306821901,0.0009983886641244113,-3.397628874031585e-05,0.0,0.0,0.0,0.0,0.0,0.0,0.0,0.0,0.0
5.063,140,5,63000000,base_footprint,-0.0038111492014449564,0.0005827630201397663,0.988306583666425,0.15243107363863406,0.0,0.0,0.0,0.0,0.0,0.0,0.0,0.0,0.0,5.7077934280630964e-05,8.004563787921728e-05,0.045623285355304286,0.0,0.0,0.0,0.0,0.0,0.0,0.0,0.0,0.0,-0.006596895460348866,0.013927977673383095,-0.00048037119574883305,0.0,0.0,0.0,0.0,0.0,0.0,0.0,0.0,0.0
5.097,141,5,97000000,base_footprint,-0.00381237005925426,0.0005796845194447214,0.988409305369863,0.1517635491765204,0.0,0.0,0.0,0.0,0.0,0.0,0.0,0.0,0.0,-0.0009494027746780667,-0.0003366753328927441,0.028330071294245453,0.0,0.0,0.0,0.0,0.0,0.0,0.0,0.0,0.0,-0.023404906861805422,0.026821197974432637,0.001330407996069613,0.0,0.0,0.0,0.0,0.0,0.0,0.0,0.0,0.0
5.131,142,5,131000000,base_footprint,-0.0038077058399053148,0.0005727658040772137,0.9884725985850121,0.1513509007642973,0.0,0.0,0.0,0.0,0.0,0.0,0.0,0.0,0.0,-0.0003277352318275279,-9.62811286177332e-05,0.02978013536471863,0.0,0.0,0.0,0.0,0.0,0.0,0.0,0.0,0.0,0.006194891127997287,0.0020276673598070257,-0.0008513050015483559,0.0,0.0,0.0,0.0,0.0,0.0,0.0,0.0,0.0
5.165,143,5,165000000,base_footprint,-0.0038114708218351698,0.0005743189822615964,0.9885254971864313,0.15100491468889274,0.0,0.0,0.0,0.0,0.0,0.0,0.0,0.0,0.0,-7.280969664183798e-05,1.6146715871016943e-05,0.01808779443775614,0.0,0.0,0.0,0.0,0.0,0.0,0.0,0.0,0.0,0.03546676962761496,-0.019110899655319088,-0.0001550304899676126,0.0,0.0,0.0,0.0,0.0,0.0,0.0,0.0,0.0
5.199,144,5,199000000,base_footprint,-0.003812013488061929,0.0005725374042374612,0.9885720232292017,0.15070001872133393,0.0,0.0,0.0,0.0,0.0,0.0,0.0,0.0,0.0,-0.00020505191470536802,-2.420577291972611e-05,0.01777844786362294,0.0,0.0,0.0,0.0,0.0,0.0,0.0,0.0,0.0,0.003092603696495169,0.0024805941459484053,0.00014702898295461964,0.0,0.0,0.0,0.0,0.0,0.0,0.0,0.0,0.0
5.233,145,5,233000000,base_footprint,-0.0038124345469572924,0.0005708656626555696,0.9886180726464742,0.15039762595197845,0.0,0.0,0.0,0.0,0.0,0.0,0.0,0.0,0.0,-0.00023243035985921946,1.5828451550900778e-05,0.01783978772361561,0.0,0.0,0.0,0.0,0.0,0.0,0.0,0.0,0.0,0.002743669070505321,0.0028250488271767886,-5.25228053168675e-05,0.0,0.0,0.0,0.0,0.0,0.0,0.0,0.0,0.0
5.269,146,5,267000000,base_footprint,-0.0038109500647765847,0.0005812703630016259,0.9884559379955451,0.15145955706298606,0.0,0.0,0.0,0.0,0.0,0.0,0.0,0.0,0.0,0.0010854719094480687,-0.0006546295400746488,-0.16441140289276004,0.0,0.0,0.0,0.0,0.0,0.0,0.0,0.0,0.0,-0.42667701572467864,0.2842134062869675,-0.0031185306746560793,0.0,0.0,0.0,0.0,0.0,0.0,0.0,0.0,0.0
5.301,147,5,301000000,base_footprint,-0.0038099358320929453,0.0005824368200311143,0.9882159519223744,0.15301757259367754,0.0,0.0,0.0,0.0,0.0,0.0,0.0,0.0,0.0,0.00037811833268604233,0.0004265541754652473,-0.05481208621767835,0.0,0.0,0.0,0.0,0.0,0.0,0.0,0.0,0.0,0.029525046692771284,-0.04733836037288402,-0.0011575801484489678,0.0,0.0,0.0,0.0,0.0,0.0,0.0,0.0,0.0
5.335,148,5,335000000,base_footprint,-0.0038107202361002054,0.0005813558730173242,0.9882382353060445,0.15287357755945358,0.0,0.0,0.0,0.0,0.0,0.0,0.0,0.0,0.0,-0.00037317951272683805,0.00033152339800688604,0.025797323781706252,0.0,0.0,0.0,0.0,0.0,0.0,0.0,0.0,0.0,0.09651481976204719,-0.06632994546693524,0.0013696997162738816,0.0,0.0,0.0,0.0,0.0,0.0,0.0,0.0,0.0
5.37,149,5,369000000,base_footprint,-0.0038087325536816687,0.000576794430196365,0.9884694620881411,0.15137134267654803,0.0,0.0,0.0,0.0,0.0,0.0,0.0,0.0,0.0,-0.0008254757621601296,0.0021741272040803083,0.10850658265207258,0.0,0.0,0.0,0.0,0.0,0.0,0.0,0.0,0.0,0.27230292314254023,-0.16787997763728038,-9.548409226637451e-05,0.0,0.0,0.0,0.0,0.0,0.0,0.0,0.0,0.0
5.4030000000000005,150,5,403000000,base_footprint,-0.0038121674816010364,0.0005690394937177933,0.9887505952422081,0.14952392444463913,0.0,0.0,0.0,0.0,0.0,0.0,0.0,0.0,0.0,-0.000943650645215752,0.0001261684697558983,0.1104009161352592,0.0,0.0,0.0,0.0,0.0,0.0,0.0,0.0,0.0,0.010457018720998863,0.022020532112652515,0.003170223812825126,0.0,0.0,0.0,0.0,0.0,0.0,0.0,0.0,0.0
5.436,151,5,437000000,base_footprint,-0.0038148987845833438,0.0005615665161403404,0.9890288794553527,0.14767195669320873,0.0,0.0,0.0,0.0,0.0,0.0,0.0,0.0,0.0,-0.0010274939771042295,0.004477002870737268,0.11068531359066634,0.0,0.0,0.0,0.0,0.0,0.0,0.0,0.0,0.0,-0.0071509987560102635,0.03351649160609017,-0.0025080215156856257,0.0,0.0,0.0,0.0,0.0,0.0,0.0,0.0,0.0
5.471,152,5,471000000,base_footprint,-0.003813933573232965,0.0005581422523053214,0.9892205263999357,0.14638269206760493,0.0,0.0,0.0,0.0,0.0,0.0,0.0,0.0,0.0,-0.00035099578076318793,9.232339763782641e-05,0.0522428624913517,0.0,0.0,0.0,0.0,0.0,0.0,0.0,0.0,0.0,-0.23831816277062343,0.18008131341049388,-0.0001518728424899714,0.0,0.0,0.0,0.0,0.0,0.0,0.0,0.0,0.0
5.508,153,5,505000000,base_footprint,-0.0038146005478808813,0.0005554227454866364,0.9893492168550536,0.1455103688282255,0.0,0.0,0.0,0.0,0.0,0.0,0.0,0.0,0.0,-0.00033248777963948146,-4.5153435896739215e-05,0.051859287749383094,0.0,0.0,0.0,0.0,0.0,0.0,0.0,0.0,0.0,0.006167706614036107,0.00886284053774035,0.00024374385866492924,0.0,0.0,0.0,0.0,0.0,0.0,0.0,0.0,0.0
5.538,154,5,539000000,base_footprint,-0.003811838248392414,0.0005529175578266876,0.9894722475920531,0.14467147409380027,0.0,0.0,0.0,0.0,0.0,0.0,0.0,0.0,0.0,-0.0008760780582855378,-0.0025484981109496155,0.02670719433895537,0.0,0.0,0.0,0.0,0.0,0.0,0.0,0.0,0.0,0.04013697927439021,-0.01356086778894932,0.0027565735008896106,0.0,0.0,0.0,0.0,0.0,0.0,0.0,0.0,0.0
5.573,155,5,573000000,base_footprint,-0.003817921905344398,0.000555995146187331,0.9893816824826852,0.14528936887967098,0.0,0.0,0.0,0.0,0.0,0.0,0.0,0.0,0.0,5.5919259502169635e-05,-0.00018943017758981802,-0.03936278453387096,0.0,0.0,0.0,0.0,0.0,0.0,0.0,0.0,0.0,0.07109565284772552,-0.05508930717234347,-0.0022000062351194044,0.0,0.0,0.0,0.0,0.0,0.0,0.0,0.0,0.0
5.607,156,5,607000000,base_footprint,-0.0038107300134629803,0.0005525580945008843,0.9892662805543456,0.14607326646066207,0.0,0.0,0.0,0.0,0.0,0.0,0.0,0.0,0.0,0.00019971300025531754,-0.0003111761815203443,-0.04594188396493371,0.0,0.0,0.0,0.0,0.0,0.0,0.0,0.0,0.0,-0.015795209484921732,-0.0010819613306740838,0.0006645041577117904,0.0,0.0,0.0,0.0,0.0,0.0,0.0,0.0,0.0
5.641,157,5,641000000,base_footprint,-0.0038104169138310847,0.0005540099954296179,0.9891914333445941,0.14657926863487628,0.0,0.0,0.0,0.0,0.0,0.0,0.0,0.0,0.0,0.00019680737154284316,-0.00026430004733677325,-0.010830804470205995,0.0,0.0,0.0,0.0,0.0,0.0,0.0,0.0,0.0,0.06894500018497529,-0.05430840936262096,0.0006094444837448892,0.0,0.0,0.0,0.0,0.0,0.0,0.0,0.0,0.0
5.675,158,5,675000000,base_footprint,-0.003814494840500773,0.0005549219912349855,0.989255908844467,0.14614338338427502,0.0,0.0,0.0,0.0,0.0,0.0,0.0,0.0,0.0,0.0006724857140644344,0.0007641723725838592,0.05396021792622775,0.0,0.0,0.0,0.0,0.0,0.0,0.0,0.0,0.0,0.11605265443413253,-0.07168534431961227,-0.000873581688029167,0.0,0.0,0.0,0.0,0.0,0.0,0.0,0.0,0.0
5.709,159,5,709000000,base_footprint,-0.003815400337740647,0.0005509156593491223,0.989388933490191,0.14524006850501553,0.0,0.0,0.0,0.0,0.0,0.0,0.0,0.0,0.0,-0.0004750674107387322,6.792007819160433e-05,0.05366793161281549,0.0,0.0,0.0,0.0,0.0,0.0,0.0,0.0,0.0,0.005587646484836808,0.010500470541769138,0.0014070327051877067,0.0,0.0,0.0,0.0,0.0,0.0,0.0,0.0,0.0
5.743,160,5,743000000,base_footprint,-0.0038111858019818606,0.0005489958194655585,0.9895348447438276,0.14424272773412902,0.0,0.0,0.0,0.0,0.0,0.0,0.0,0.0,0.0,0.000182590536533268,0.0020494568893132665,0.0885451729608537,0.0,0.0,0.0,0.0,0.0,0.0,0.0,0.0,0.0,0.00290456974566741,0.013564471460810046,-0.0025379112733423807,0.0,0.0,0.0,0.0,0.0,0.0,0.0,0.0,0.0
5.777,161,5,777000000,base_footprint,-0.003818100187950736,0.0005407643017001938,0.9897564245639395,0.14271422395588806,0.0,0.0,0.0,0.0,0.0,0.0,0.0,0.0,0.0,-0.0008392414466745251,0.00029153141452326905,0.08931565313236176,0.0,0.0,0.0,0.0,0.0,0.0,0.0,0.0,0.0,0.00897441979592719,0.018398224848109768,0.002422032933018605,0.0,0.0,0.0,0.0,0.0,0.0,0.0,0.0,0.0
5.811,162,5,811000000,base_footprint,-0.003816756237372089,0.0005364372288303576,0.9899821824097694,0.1411397290564,0.0,0.0,0.0,0.0,0.0,0.0,0.0,0.0,0.0,-0.0008648535236280002,-0.000675701753963771,0.09926586035677255,0.0,0.0,0.0,0.0,0.0,0.0,0.0,0.0,0.0,-0.010498356369094037,0.030536648001831816,0.001434691842483581,0.0,0.0,0.0,0.0,0.0,0.0,0.0,0.0,0.0
5.845,163,5,845000000,base_footprint,-0.003817362587157512,0.000530494824571793,0.9901976539399393,0.1396200288281004,0.0,0.0,0.0,0.0,0.0,0.0,0.0,0.0,0.0,-0.0006904446780124052,0.00010708265896611299,0.08260566581725631,0.0,0.0,0.0,0.0,0.0,0.0,0.0,0.0,0.0,0.02823372850869549,0.005318962872837313,-0.0010351127069811675,0.0,0.0,0.0,0.0,0.0,0.0,0.0,0.0,0.0
5.879,164,5,879000000,base_footprint,-0.003818873022101896,0.0005254735008553537,0.990391946865826,0.13823505948116097,0.0,0.0,0.0,0.0,0.0,0.0,0.0,0.0,0.0,-0.0007548776836244587,7.712550830465376e-05,0.08273557575555747,0.0,0.0,0.0,0.0,0.0,0.0,0.0,0.0,0.0,0.010245719933492933,0.01476952931098204,9.038372250343834e-05,0.0,0.0,0.0,0.0,0.0,0.0,0.0,0.0,0.0
5.913,165,5,913000000,base_footprint,-0.003819236669452001,0.0005208342264471434,0.9905848202034438,0.13684610387395832,0.0,0.0,0.0,0.0,0.0,0.0,0.0,0.0,0.0,-0.0006364684241552227,6.841336781194091e-05,0.0826819124958435,0.0,0.0,0.0,0.0,0.0,0.0,0.0,0.0,0.0,0.010394449427145692,0.014905045900899905,-9.50112076986772e-05,0.0,0.0,0.0,0.0,0.0,0.0,0.0,0.0,0.0
5.947,166,5,947000000,base_footprint,-0.00381934151623722,0.0005132360981658447,0.9907847018161027,0.13539137293884865,0.0,0.0,0.0,0.0,0.0,0.0,0.0,0.0,0.0,-0.001621244244796307,-0.004152559416275632,0.09351080886314932,0.0,0.0,0.0,0.0,0.0,0.0,0.0,0.0,0.0,-0.15901690704975702,0.11832982802479947,0.00438744978604767,0.0,0.0,0.0,0.0,0.0,0.0,0.0,0.0,0.0
5.981,167,5,981000000,base_footprint,-0.003818790079110123,0.0005141643791791245,0.990886694909522,0.13464289928773399,0.0,0.0,0.0,0.0,0.0,0.0,0.0,0.0,0.0,-0.0005772293926210733,-4.743290230355441e-05,0.05777820491520109,0.0,0.0,0.0,0.0,0.0,0.0,0.0,0.0,0.0,-0.1477005667110351,0.09969964683699964,-0.006792313192250283,0.0,0.0,0.0,0.0,0.0,0.0,0.0,0.0,0.0
6.015,168,6,15000000,base_footprint,-0.0038222651903689355,0.0005100232709006046,0.991051152955396,0.1334269177896948,0.0,0.0,0.0,0.0,0.0,0.0,0.0,0.0,0.0,-0.00019557135665023838,2.9123591611243473e-05,0.07261236617415573,0.0,0.0,0.0,0.0,0.0,0.0,0.0,0.0,0.0,0.03625276353990256,-0.004259930039662713,-0.00030188740644311574,0.0,0.0,0.0,0.0,0.0,0.0,0.0,0.0,0.0
6.049,169,6,49000000,base_footprint,-0.0038210035974607106,0.0005026292988875343,0.9912120878106051,0.1322261104072769,0.0,0.0,0.0,0.0,0.0,0.0,0.0,0.0,0.0,-0.0018861243573461564,-0.00034145027175267714,0.06741006880317593,0.0,0.0,0.0,0.0,0.0,0.0,0.0,0.0,0.0,-0.04260652034102866,0.04222102971682981,0.001656787671484218,0.0,0.0,0.0,0.0,0.0,0.0,0.0,0.0,0.0
6.083,170,6,83000000,base_footprint,-0.0038181962089167483,0.0004950165173292628,0.9913602011037163,0.1311111284520009,0.0,0.0,0.0,0.0,0.0,0.0,0.0,0.0,0.0,-0.0005958006753867423,-5.683937645606108e-05,0.07242959784790398,0.0,0.0,0.0,0.0,0.0,0.0,0.0,0.0,0.0,0.016839882844874848,0.006063869274987451,-0.0013777473762514075,0.0,0.0,0.0,0.0,0.0,0.0,0.0,0.0,0.0
6.117,171,6,117000000,base_footprint,-0.003822446324835573,0.0004922852633089435,0.9915549259082754,0.12963014875540244,0.0,0.0,0.0,0.0,0.0,0.0,0.0,0.0,0.0,-0.0010602418216432436,-0.00032890864167485896,0.09305075723019274,0.0,0.0,0.0,0.0,0.0,0.0,0.0,0.0,0.0,0.04747849424404923,-0.00675874009231607,0.0007639141908430974,0.0,0.0,0.0,0.0,0.0,0.0,0.0,0.0,0.0
6.151,172,6,151000000,base_footprint,-0.003824606247496492,0.00048505458195318086,0.991797389129235,0.12776179407607458,0.0,0.0,0.0,0.0,0.0,0.0,0.0,0.0,0.0,-0.0010564326626231677,0.0001624836135037807,0.1371508129104839,0.0,0.0,0.0,0.0,0.0,0.0,0.0,0.0,0.0,0.003308522981915195,0.023932312975915804,-0.0009722757741857451,0.0,0.0,0.0,0.0,0.0,0.0,0.0,0.0,0.0
6.185,173,6,185000000,base_footprint,-0.003825056218936623,0.0004751132787261086,0.992092748932538,0.12544768123713743,0.0,0.0,0.0,0.0,0.0,0.0,0.0,0.0,0.0,-0.001095079208396633,0.0001993690883355186,0.13706154482621244,0.0,0.0,0.0,0.0,0.0,0.0,0.0,0.0,0.0,0.014290627903199068,0.024599939606909562,0.0002181772912132355,0.0,0.0,0.0,0.0,0.0,0.0,0.0,0.0,0.0
6.219,174,6,219000000,base_footprint,-0.003826648350356282,0.0004658053946051802,0.9923831350193068,0.1231294161319279,0.0,0.0,0.0,0.0,0.0,0.0,0.0,0.0,0.0,-0.0011400223373943614,0.00020195159229377185,0.13740535727044886,0.0,0.0,0.0,0.0,0.0,0.0,0.0,0.0,0.0,0.01357006095252623,0.024976700642627407,7.381996375117265e-05,0.0,0.0,0.0,0.0,0.0,0.0,0.0,0.0,0.0
6.253,175,6,253000000,base_footprint,-0.0038296616683635995,0.0004543989510228305,0.9926882465163297,0.12064481937254501,0.0,0.0,0.0,0.0,0.0,0.0,0.0,0.0,0.0,-0.0011817158946073616,-6.614437155162112e-05,0.15404498024729593,0.0,0.0,0.0,0.0,0.0,0.0,0.0,0.0,0.0,0.1542450205649804,-0.04666030359934053,0.0017970624744970852,0.0,0.0,0.0,0.0,0.0,0.0,0.0,0.0,0.0
6.287,176,6,287000000,base_footprint,-0.0038312311174823915,0.00044615315686998615,0.9929637187080825,0.11835614029234509,0.0,0.0,0.0,0.0,0.0,0.0,0.0,0.0,0.0,-0.0009647241442727848,0.00011607674517756763,0.1265970041818813,0.0,0.0,0.0,0.0,0.0,0.0,0.0,0.0,0.0,0.07869489064853459,-0.0068202231696603745,0.0003762913403956647,0.0,0.0,0.0,0.0,0.0,0.0,0.0,0.0,0.0
6.322,177,6,321000000,base_footprint,-0.0038236338776422843,0.0004437010539926932,0.9932161323631583,0.11621917813731797,0.0,0.0,0.0,0.0,0.0,0.0,0.0,0.0,0.0,-0.0009515961513271951,-1.6127282133819945e-05,0.12013230069146688,0.0,0.0,0.0,0.0,0.0,0.0,0.0,0.0,0.0,0.027731390569677626,0.016058591756661966,0.00030743829181940755,0.0,0.0,0.0,0.0,0.0,0.0,0.0,0.0,0.0
6.356,178,6,355000000,base_footprint,-0.003829109644890622,0.0004351692552707211,0.9934078220966517,0.11456896414053017,0.0,0.0,0.0,0.0,0.0,0.0,0.0,0.0,0.0,-0.0008218035006019807,0.002025092817599017,0.07624001100117064,0.0,0.0,0.0,0.0,0.0,0.0,0.0,0.0,0.0,0.10795822076938133,-0.029819514842155087,-0.002496766767376064,0.0,0.0,0.0,0.0,0.0,0.0,0.0,0.0,0.0
6.389,179,6,389000000,base_footprint,-0.0038310932691248928,0.0004297881142179307,0.993559482203629,0.11324616253894365,0.0,0.0,0.0,0.0,0.0,0.0,0.0,0.0,0.0,-0.0006512635636217131,-1.2671458346244491e-05,0.07888748921089173,0.0,0.0,0.0,0.0,0.0,0.0,0.0,0.0,0.0,0.002211667405720211,0.018084420604688307,0.0030492400458563824,0.0,0.0,0.0,0.0,0.0,0.0,0.0,0.0,0.0
6.424,180,6,423000000,base_footprint,-0.0038315078883504133,0.0004254906743098551,0.9937097392614114,0.11192002770731305,0.0,0.0,0.0,0.0,0.0,0.0,0.0,0.0,0.0,-0.0005867883920973163,1.7884712507140128e-05,0.07861632334451654,0.0,0.0,0.0,0.0,0.0,0.0,0.0,0.0,0.0,0.008202308485330977,0.015137089149247605,-8.703294925543323e-05,0.0,0.0,0.0,0.0,0.0,0.0,0.0,0.0,0.0
6.457,181,6,457000000,base_footprint,-0.003832385056122014,0.00042080172614538953,0.9938695445991097,0.11049191856894913,0.0,0.0,0.0,0.0,0.0,0.0,0.0,0.0,0.0,-0.0006390077293018816,-3.953531048635193e-05,0.08855004373927396,0.0,0.0,0.0,0.0,0.0,0.0,0.0,0.0,0.0,0.005640063233933547,0.018073377128796586,2.2291453284487243e-05,0.0,0.0,0.0,0.0,0.0,0.0,0.0,0.0,0.0
6.491,182,6,491000000,base_footprint,-0.0038341143945988553,0.00041615798592330394,0.9940327788907846,0.10901358112641105,0.0,0.0,0.0,0.0,0.0,0.0,0.0,0.0,0.0,-0.00040334247614266534,8.676949789829366e-05,0.08569971282134797,0.0,0.0,0.0,0.0,0.0,0.0,0.0,0.0,0.0,0.004287832251073539,0.01984018001124138,-0.00021327184228284114,0.0,0.0,0.0,0.0,0.0,0.0,0.0,0.0,0.0
6.525,183,6,525000000,base_footprint,-0.0038295404281880356,0.00040599681010872234,0.9941696991180057,0.10775796556317045,0.0,0.0,0.0,0.0,0.0,0.0,0.0,0.0,0.0,-0.0009087048545897965,-4.328634842666685e-05,0.06454946889721985,0.0,0.0,0.0,0.0,0.0,0.0,0.0,0.0,0.0,-0.032251001363244595,0.03248139281010782,0.00048201008421274035,0.0,0.0,0.0,0.0,0.0,0.0,0.0,0.0,0.0
6.559,184,6,559000000,base_footprint,-0.003835694662280622,0.00040468739591589657,0.9943647354113603,0.1059428933193018,0.0,0.0,0.0,0.0,0.0,0.0,0.0,0.0,0.0,-0.0017083688432592598,-0.001169278199216936,0.14711548872848448,0.0,0.0,0.0,0.0,0.0,0.0,0.0,0.0,0.0,-0.3430252617838878,0.17832142666949874,-0.0014579391189095538,0.0,0.0,0.0,0.0,0.0,0.0,0.0,0.0,0.0
6.594,185,6,593000000,base_footprint,-0.0038315541696585837,0.0003941075573387636,0.9945392649233319,0.10429196708106059,0.0,0.0,0.0,0.0,0.0,0.0,0.0,0.0,0.0,0.0008386550703801427,0.0012861229701478978,0.09616974220863246,0.0,0.0,0.0,0.0,0.0,0.0,0.0,0.0,0.0,0.09404976563464625,-0.018369411052816403,-0.003495152709475758,0.0,0.0,0.0,0.0,0.0,0.0,0.0,0.0,0.0
6.627,186,6,627000000,base_footprint,-0.003834067854558313,0.0003885899964489835,0.9947069291571378,0.10268044608531,0.0,0.0,0.0,0.0,0.0,0.0,0.0,0.0,0.0,-0.0007296767556504117,7.257118848586513e-05,0.09501266882051689,0.0,0.0,0.0,0.0,0.0,0.0,0.0,0.0,0.0,0.007274694769075694,0.018583845637538374,0.0022461249243827157,0.0,0.0,0.0,0.0,0.0,0.0,0.0,0.0,0.0
6.662,187,6,661000000,base_footprint,-0.0038381403837877176,0.0003875156143690464,0.9948561157463713,0.1012246386611769,0.0,0.0,0.0,0.0,0.0,0.0,0.0,0.0,0.0,-0.0007800951675471779,-0.00029476977966127094,0.06424403694585971,0.0,0.0,0.0,0.0,0.0,0.0,0.0,0.0,0.0,-0.5141223397377039,0.24096925028434288,-0.0040088727723746505,0.0,0.0,0.0,0.0,0.0,0.0,0.0,0.0,0.0
6.695,188,6,695000000,base_footprint,-0.0038331574206905057,0.00037857383411554215,0.9949076183773339,0.10071739909658933,0.0,0.0,0.0,0.0,0.0,0.0,0.0,0.0,0.0,-0.0007870570152463532,-1.3367162159589436e-05,0.07549997890887146,0.0,0.0,0.0,0.0,0.0,0.0,0.0,0.0,0.0,0.19587320693480859,-0.07815913902698075,0.0014462774102404529,0.0,0.0,0.0,0.0,0.0,0.0,0.0,0.0,0.0
6.729,189,6,729000000,base_footprint,-0.0038368957084335114,0.00037438358757398843,0.9950521535872633,0.09927915042747669,0.0,0.0,0.0,0.0,0.0,0.0,0.0,0.0,0.0,-0.0007858410211148358,8.752048030944409e-05,0.0852035754768718,0.0,0.0,0.0,0.0,0.0,0.0,0.0,0.0,0.0,0.0254959920718529,0.007237437898528027,0.00011385925125841369,0.0,0.0,0.0,0.0,0.0,0.0,0.0,0.0,0.0
6.763,190,6,763000000,base_footprint,-0.003839271770564517,0.000364973860163712,0.9952470848450933,0.09730553372597527,0.0,0.0,0.0,0.0,0.0,0.0,0.0,0.0,0.0,-0.001274656007724596,-0.0003800321096434979,0.13374602163552124,0.0,0.0,0.0,0.0,0.0,0.0,0.0,0.0,0.0,0.27780750205991167,-0.09008174798500551,0.003122203856621453,0.0,0.0,0.0,0.0,0.0,0.0,0.0,0.0,0.0
6.797,191,6,797000000,base_footprint,-0.0038394655275695326,0.0003584702490543298,0.9954409108971559,0.09530227130443372,0.0,0.0,0.0,0.0,0.0,0.0,0.0,0.0,0.0,-0.0010572557063069977,0.00028010931102622307,0.11380191120233295,0.0,0.0,0.0,0.0,0.0,0.0,0.0,0.0,0.0,0.05898445732038188,0.003327067903490427,-0.0007311016917601868,0.0,0.0,0.0,0.0,0.0,0.0,0.0,0.0,0.0
6.831,192,6,831000000,base_footprint,-0.0038385012328174964,0.00035227368082175114,0.9956326855801266,0.09327752792631375,0.0,0.0,0.0,0.0,0.0,0.0,0.0,0.0,0.0,-0.0009231932111496211,-0.0006288195388416862,0.1258407088829686,0.0,0.0,0.0,0.0,0.0,0.0,0.0,0.0,0.0,-0.019612799452916767,0.03426941078019905,0.0012378210328874552,0.0,0.0,0.0,0.0,0.0,0.0,0.0,0.0,0.0
6.874,193,6,865000000,base_footprint,-0.003840335369559753,0.0003461117143270687,0.9957321660926336,0.09220946502069434,0.0,0.0,0.0,0.0,0.0,0.0,0.0,0.0,0.0,8.335450560931166e-05,-0.002037822741379908,-0.008601071191797089,0.0,0.0,0.0,0.0,0.0,0.0,0.0,0.0,0.0,-0.3971924781233006,0.16922950229959177,-0.0015070907190856994,0.0,0.0,0.0,0.0,0.0,0.0,0.0,0.0,0.0
6.9,194,6,899000000,base_footprint,-0.00383355900202304,0.00035304951339003315,0.9957256820535744,0.09227971218184046,0.0,0.0,0.0,0.0,0.0,0.0,0.0,0.0,0.0,-9.812017980788564e-05,-0.00015745168290326223,0.008379991622702199,0.0,0.0,0.0,0.0,0.0,0.0,0.0,0.0,0.0,0.3153456066357105,-0.12367146486923507,-2.633807158769941e-05,0.0,0.0,0.0,0.0,0.0,0.0,0.0,0.0,0.0
6.909,195,6,933000000,base_footprint,-0.0038398899044009287,0.00034992500255336264,0.9957562055296406,0.0919495075964359,0.0,0.0,0.0,0.0,0.0,0.0,0.0,0.0,0.0,-0.0004411532711632055,0.00020281778851896027,0.05108996162516441,0.0,0.0,0.0,0.0,0.0,0.0,0.0,0.0,0.0,0.25034094179798316,-0.09254675014302384,0.0016418052294884162,0.0,0.0,0.0,0.0,0.0,0.0,0.0,0.0,0.0
6.909,196,6,967000000,base_footprint,-0.0038408860259006054,0.00034516180705672107,0.995874493056712,0.09065937644226327,0.0,0.0,0.0,0.0,0.0,0.0,0.0,0.0,0.0,-0.0008029681865148412,6.462053334138932e-05,0.09143498847592839,0.0,0.0,0.0,0.0,0.0,0.0,0.0,0.0,0.0,0.08570579630477711,-0.015338527061206043,0.0009319014994861743,0.0,0.0,0.0,0.0,0.0,0.0,0.0,0.0,0.0
6.996,197,7,1000000,base_footprint,-0.0038376525037876474,0.0003349210531354533,0.9960095935532702,0.0891630517703262,0.0,0.0,0.0,0.0,0.0,0.0,0.0,0.0,0.0,-0.0023997568126230763,-0.0016820491460852068,0.07897076559809676,0.0,0.0,0.0,0.0,0.0,0.0,0.0,0.0,0.0,-0.01659485056219037,0.026493870642919415,0.0025704331308910333,0.0,0.0,0.0,0.0,0.0,0.0,0.0,0.0,0.0
7.035,198,7,35000000,base_footprint,-0.0038358904644274086,0.00032865711888019914,0.9961229053671916,0.08788819790886761,0.0,0.0,0.0,0.0,0.0,0.0,0.0,0.0,0.0,-0.0006313252268999234,-8.722378020621249e-05,0.08158822547806804,0.0,0.0,0.0,0.0,0.0,0.0,0.0,0.0,0.0,0.017564431460198912,0.010821516726111112,-0.00245907321645276,0.0,0.0,0.0,0.0,0.0,0.0,0.0,0.0,0.0
7.069,199,7,69000000,base_footprint,-0.0038360217432174748,0.0003231620649124967,0.9962742989885595,0.08615510245087062,0.0,0.0,0.0,0.0,0.0,0.0,0.0,0.0,0.0,-0.0007927399133493627,-0.0013475583012222125,0.07992155053314833,0.0,0.0,0.0,0.0,0.0,0.0,0.0,0.0,0.0,-0.3211946769612715,0.13877983660030982,-0.0012162953092160738,0.0,0.0,0.0,0.0,0.0,0.0,0.0,0.0,0.0
7.103,200,7,103000000,base_footprint,-0.0038407272620901776,0.00031732581798381954,0.9964398505266278,0.08421859890128348,0.0,0.0,0.0,0.0,0.0,0.0,0.0,0.0,0.0,-0.0011508744047119047,-0.0004786447552612546,0.13175868628134307,0.0,0.0,0.0,0.0,0.0,0.0,0.0,0.0,0.0,0.11381268790809719,-0.016053374412849923,-7.775049427436142e-05,0.0,0.0,0.0,0.0,0.0,0.0,0.0,0.0,0.0
7.1370000000000005,201,7,137000000,base_footprint,-0.003839731940207182,0.0003072246349298535,0.9966264270494414,0.0819812599214956,0.0,0.0,0.0,0.0,0.0,0.0,0.0,0.0,0.0,-0.0037548644361181504,-0.0022034427444103106,0.13017556376491843,0.0,0.0,0.0,0.0,0.0,0.0,0.0,0.0,0.0,0.032043009421379984,0.017380643624037816,0.0011631656680666084,0.0,0.0,0.0,0.0,0.0,0.0,0.0,0.0,0.0
7.171,202,7,171000000,base_footprint,-0.0038400292456667972,0.00030110947959933635,0.9967413144106899,0.08057242490656509,0.0,0.0,0.0,0.0,0.0,0.0,0.0,0.0,0.0,-0.0025867206708301746,-0.00179118225356006,0.07974204375052729,0.0,0.0,0.0,0.0,0.0,0.0,0.0,0.0,0.0,0.23064495382511796,-0.0577256920837751,0.0026615471167419653,0.0,0.0,0.0,0.0,0.0,0.0,0.0,0.0,0.0
7.207,203,7,205000000,base_footprint,-0.0038431864402756117,0.0002945416242333556,0.9968971076210484,0.07862124382127757,0.0,0.0,0.0,0.0,0.0,0.0,0.0,0.0,0.0,-0.0010627690790078787,1.0198219642010376e-05,0.11967858919043686,0.0,0.0,0.0,0.0,0.0,0.0,0.0,0.0,0.0,0.08939873472391709,-0.0034722478779734838,-0.001752492407124222,0.0,0.0,0.0,0.0,0.0,0.0,0.0,0.0,0.0
7.241,204,7,239000000,base_footprint,-0.003846378673074668,0.0002896490803820387,0.9970541681686046,0.0766035717974403,0.0,0.0,0.0,0.0,0.0,0.0,0.0,0.0,0.0,0.0011613107813454354,-0.00033862203604383254,0.10393092168628794,0.0,0.0,0.0,0.0,0.0,0.0,0.0,0.0,0.0,-0.04737437301149908,0.042219657025651496,0.0011248839800475927,0.0,0.0,0.0,0.0,0.0,0.0,0.0,0.0,0.0
7.273,205,7,273000000,base_footprint,-0.0038456513475063512,0.00028253637073924714,0.9971217926243054,0.0757183056638518,0.0,0.0,0.0,0.0,0.0,0.0,0.0,0.0,0.0,-0.0003593627506833826,-0.00018296198105140796,0.04396100621651105,0.0,0.0,0.0,0.0,0.0,0.0,0.0,0.0,0.0,-0.24526656877298061,0.0896253890435112,-0.003360976199141005,0.0,0.0,0.0,0.0,0.0,0.0,0.0,0.0,0.0
7.308,206,7,307000000,base_footprint,-0.003846455981259831,0.0002804068293915601,0.9971772610607277,0.0749842394895072,0.0,0.0,0.0,0.0,0.0,0.0,0.0,0.0,0.0,-0.0004904403507757921,8.143075968588791e-05,0.044439017276176974,0.0,0.0,0.0,0.0,0.0,0.0,0.0,0.0,0.0,0.0023913434941594336,0.009115004085761977,-0.0005055593154094637,0.0,0.0,0.0,0.0,0.0,0.0,0.0,0.0,0.0
7.34,207,7,341000000,base_footprint,-0.0038403932498867473,0.00028230354155582034,0.9972400149434406,0.07414529169140133,0.0,0.0,0.0,0.0,0.0,0.0,0.0,0.0,0.0,5.5028700560928864e-05,-0.0009676231233931191,0.06711347429985419,0.0,0.0,0.0,0.0,0.0,0.0,0.0,0.0,0.0,0.03468336789918235,-2.18266521056199e-05,0.002840832464607974,0.0,0.0,0.0,0.0,0.0,0.0,0.0,0.0,0.0
7.375,208,7,375000000,base_footprint,-0.0038371352746238378,0.00027265972329773553,0.9973710388931192,0.07236168065226165,0.0,0.0,0.0,0.0,0.0,0.0,0.0,0.0,0.0,-0.0003496096948420187,-0.0006854147055871418,0.08264559993625634,0.0,0.0,0.0,0.0,0.0,0.0,0.0,0.0,0.0,0.25423717299122744,-0.05363477788836999,0.00045315630849229326,0.0,0.0,0.0,0.0,0.0,0.0,0.0,0.0,0.0
7.405,209,7,409000000,base_footprint,-0.003846792277952581,0.00026936694130011966,0.9974399255931293,0.07140535318443633,0.0,0.0,0.0,0.0,0.0,0.0,0.0,0.0,0.0,-0.0004317952616018796,5.3912410980935625e-05,0.0547601705601707,0.0,0.0,0.0,0.0,0.0,0.0,0.0,0.0,0.0,0.042185885700830185,0.0012880941591939055,-0.0006662976996581294,0.0,0.0,0.0,0.0,0.0,0.0,0.0,0.0,0.0
7.443,210,7,443000000,base_footprint,-0.0038480731796038986,0.0002672327491521933,0.9975054267441041,0.07048435667241984,0.0,0.0,0.0,0.0,0.0,0.0,0.0,0.0,0.0,-0.00024643072533492023,-0.00018880039475450557,0.05565251187319683,0.0,0.0,0.0,0.0,0.0,0.0,0.0,0.0,0.0,-0.0021346268092995633,0.013411970267993945,8.670855022877423e-05,0.0,0.0,0.0,0.0,0.0,0.0,0.0,0.0,0.0
7.478,211,7,477000000,base_footprint,-0.0038426080008044108,0.00025966029622258573,0.9975598602693414,0.06971005752181549,0.0,0.0,0.0,0.0,0.0,0.0,0.0,0.0,0.0,-0.0003301310892605113,-0.0007014400129424044,0.03419433746689646,0.0,0.0,0.0,0.0,0.0,0.0,0.0,0.0,0.0,-0.03923488548241719,0.02171049298949957,0.0006122854317204903,0.0,0.0,0.0,0.0,0.0,0.0,0.0,0.0,0.0
7.511,212,7,511000000,base_footprint,-0.003841465565974506,0.00025620708718482603,0.9976046512490993,0.06906618062696789,0.0,0.0,0.0,0.0,0.0,0.0,0.0,0.0,0.0,-0.0002745572043228225,-0.00011538248939046704,0.04931425005033602,0.0,0.0,0.0,0.0,0.0,0.0,0.0,0.0,0.0,0.033802770519115996,-0.0017199068156978654,-0.00039118868377199844,0.0,0.0,0.0,0.0,0.0,0.0,0.0,0.0,0.0
7.546,213,7,545000000,base_footprint,-0.0038453661358907724,0.00025549574028445484,0.9976661842772707,0.068171347579747,0.0,0.0,0.0,0.0,0.0,0.0,0.0,0.0,0.0,-0.0003740059347416111,-0.0005165844560510024,0.04434170502522316,0.0,0.0,0.0,0.0,0.0,0.0,0.0,0.0,0.0,0.02047312888563405,0.006414123068224051,0.0006292168214570029,0.0,0.0,0.0,0.0,0.0,0.0,0.0,0.0,0.0
7.579,214,7,579000000,base_footprint,-0.0038450423549126747,0.0002524193952273979,0.9977176861021329,0.06741343169386896,0.0,0.0,0.0,0.0,0.0,0.0,0.0,0.0,0.0,-0.00027332584250435365,-0.00012429567501323662,0.04450240097384625,0.0,0.0,0.0,0.0,0.0,0.0,0.0,0.0,0.0,0.004240677315129881,0.008913505285936107,-0.00042817079960220635,0.0,0.0,0.0,0.0,0.0,0.0,0.0,0.0,0.0
7.6129999999999995,215,7,613000000,base_footprint,-0.0038453627889560547,0.0002491739375835691,0.9977685032817957,0.06665706981390301,0.0,0.0,0.0,0.0,0.0,0.0,0.0,0.0,0.0,-0.0002932980420763617,-0.0001077965423459944,0.04438745296592271,0.0,0.0,0.0,0.0,0.0,0.0,0.0,0.0,0.0,0.0038759609019851024,0.009057563849363964,-1.1109089728749653e-05,0.0,0.0,0.0,0.0,0.0,0.0,0.0,0.0,0.0
7.647,216,7,647000000,base_footprint,-0.003846458878101525,0.000245560760478383,0.9978268480725219,0.06577785128497726,0.0,0.0,0.0,0.0,0.0,0.0,0.0,0.0,0.0,-0.000527064808104388,6.009747523532896e-05,0.06812312292001195,0.0,0.0,0.0,0.0,0.0,0.0,0.0,0.0,0.0,-0.001858331162268822,0.011959696892177718,-0.0003857537255383837,0.0,0.0,0.0,0.0,0.0,0.0,0.0,0.0,0.0
7.68,217,7,681000000,base_footprint,-0.003846825490827169,0.00024070746500424187,0.99790237262809,0.06462196760226477,0.0,0.0,0.0,0.0,0.0,0.0,0.0,0.0,0.0,-0.0006352784539197596,-2.7434218403966687e-05,0.06797851842197625,0.0,0.0,0.0,0.0,0.0,0.0,0.0,0.0,0.0,0.00506248583793241,0.01415984172134049,0.00025911099441554774,0.0,0.0,0.0,0.0,0.0,0.0,0.0,0.0,0.0
7.715,218,7,715000000,base_footprint,-0.0038478657328276512,0.00023598178686474178,0.9979766564062499,0.06346441136653376,0.0,0.0,0.0,0.0,0.0,0.0,0.0,0.0,0.0,-0.0006447355361063717,-2.214262251760522e-05,0.06829418025847932,0.0,0.0,0.0,0.0,0.0,0.0,0.0,0.0,0.0,0.0038691627000292123,0.014410775750194345,-4.3558372652946165e-05,0.0,0.0,0.0,0.0,0.0,0.0,0.0,0.0,0.0
7.749,219,7,749000000,base_footprint,-0.0038485020488879984,0.00023166684642129728,0.9980462359295638,0.062360615048936016,0.0,0.0,0.0,0.0,0.0,0.0,0.0,0.0,0.0,-0.00046904730275796073,-0.00021337811585548015,0.058074964964046266,0.0,0.0,0.0,0.0,0.0,0.0,0.0,0.0,0.0,0.008884442918460526,0.012592182891291022,0.0003435132137811874,0.0,0.0,0.0,0.0,0.0,0.0,0.0,0.0,0.0
7.784,220,7,783000000,base_footprint,-0.0038500969097192035,0.00022786115222328296,0.9981073425520836,0.06137473076681518,0.0,0.0,0.0,0.0,0.0,0.0,0.0,0.0,0.0,-0.0005437279657201184,9.380302431879299e-05,0.05761834589851141,0.0,0.0,0.0,0.0,0.0,0.0,0.0,0.0,0.0,0.005021682103777632,0.012499768641071647,-0.0006222050155204739,0.0,0.0,0.0,0.0,0.0,0.0,0.0,0.0,0.0
7.816,221,7,817000000,base_footprint,-0.00384876276453992,0.00022584399408418502,0.9981708646549639,0.06033291782795414,0.0,0.0,0.0,0.0,0.0,0.0,0.0,0.0,0.0,-0.0003378421841105781,-0.0005135188608852676,0.06521492127144175,0.0,0.0,0.0,0.0,0.0,0.0,0.0,0.0,0.0,-0.015614582040210967,0.017419563221936614,0.000852038172968003,0.0,0.0,0.0,0.0,0.0,0.0,0.0,0.0,0.0
7.851,222,7,851000000,base_footprint,-0.0038492719175047636,0.00022213786955978035,0.9982358328504043,0.05924825545053449,0.0,0.0,0.0,0.0,0.0,0.0,0.0,0.0,0.0,-0.0003472363359622737,-0.00021343714162926487,0.06862371432236315,0.0,0.0,0.0,0.0,0.0,0.0,0.0,0.0,0.0,0.007971175599233521,0.01222698926510179,-0.0004353597865949314,0.0,0.0,0.0,0.0,0.0,0.0,0.0,0.0,0.0
7.885,223,7,885000000,base_footprint,-0.0038505496571747243,0.00021813391697753968,0.9983031266104484,0.05810329667699669,0.0,0.0,0.0,0.0,0.0,0.0,0.0,0.0,0.0,-0.00042780270243434183,-1.6613796720862832e-05,0.06752212554118414,0.0,0.0,0.0,0.0,0.0,0.0,0.0,0.0,0.0,0.005007267530292975,0.013984627440217012,-0.00029231115209474794,0.0,0.0,0.0,0.0,0.0,0.0,0.0,0.0,0.0
7.9190000000000005,224,7,919000000,base_footprint,-0.0038515308854984486,0.00021494557444244202,0.9983667570243759,0.05699945593484858,0.0,0.0,0.0,0.0,0.0,0.0,0.0,0.0,0.0,-0.0005824516276896376,-7.831234780371776e-05,0.059436835623935036,0.0,0.0,0.0,0.0,0.0,0.0,0.0,0.0,0.0,-0.011596601545954486,0.018043619445926494,0.00029908446204839686,0.0,0.0,0.0,0.0,0.0,0.0,0.0,0.0,0.0
7.953,225,7,953000000,base_footprint,-0.0038487289762264916,0.00020850590290603918,0.9984244478917182,0.055980047004926065,0.0,0.0,0.0,0.0,0.0,0.0,0.0,0.0,0.0,-0.0012400384476495495,-0.00022659345588402376,0.06689654435435415,0.0,0.0,0.0,0.0,0.0,0.0,0.0,0.0,0.0,-0.1079881046239437,0.03751738822664963,-0.0007083723155277503,0.0,0.0,0.0,0.0,0.0,0.0,0.0,0.0,0.0
7.987,226,7,987000000,base_footprint,-0.0038530355125905354,0.00020622971463838652,0.9984966802569893,0.05467623891980338,0.0,0.0,0.0,0.0,0.0,0.0,0.0,0.0,0.0,-0.0005670738829834504,0.0014846474910965987,0.05902907881285869,0.0,0.0,0.0,0.0,0.0,0.0,0.0,0.0,0.0,-0.1999248830987942,0.06134772004036463,-0.003264855309485076,0.0,0.0,0.0,0.0,0.0,0.0,0.0,0.0,0.0
8.021,227,8,21000000,base_footprint,-0.003848353255331757,0.00019989685042588837,0.9985507353718704,0.053680341902490276,0.0,0.0,0.0,0.0,0.0,0.0,0.0,0.0,0.0,-0.0002799758330193857,3.2103577220443156e-05,0.05920320181720742,0.0,0.0,0.0,0.0,0.0,0.0,0.0,0.0,0.0,0.0025611556250690164,0.011969185786093127,0.001320057946590621,0.0,0.0,0.0,0.0,0.0,0.0,0.0,0.0,0.0
8.055,228,8,55000000,base_footprint,-0.00384830585340301,0.0001961940924730421,0.9985982050039504,0.05278993287384634,0.0,0.0,0.0,0.0,0.0,0.0,0.0,0.0,0.0,-0.0002533141247259681,-9.817242142685897e-05,0.046947743917708944,0.0,0.0,0.0,0.0,0.0,0.0,0.0,0.0,0.0,0.006398348263353518,0.00990105036667846,0.00021909121187790124,0.0,0.0,0.0,0.0,0.0,0.0,0.0,0.0,0.0
8.089,229,8,89000000,base_footprint,-0.00384846389800947,0.00019287814425646398,0.998640064064696,0.05199206255292417,0.0,0.0,0.0,0.0,0.0,0.0,0.0,0.0,0.0,-0.0003217834925335717,-0.000134669039547729,0.04681950998659878,0.0,0.0,0.0,0.0,0.0,0.0,0.0,0.0,0.0,0.0032134524427460684,0.009272898892100945,9.232503585429365e-05,0.0,0.0,0.0,0.0,0.0,0.0,0.0,0.0,0.0
8.123,230,8,123000000,base_footprint,-0.0038489347038586684,0.00018954622350945104,0.9986812002418299,0.051195801169753245,0.0,0.0,0.0,0.0,0.0,0.0,0.0,0.0,0.0,-0.00044250437572735117,-8.132066040600062e-05,0.04674036689959405,0.0,0.0,0.0,0.0,0.0,0.0,0.0,0.0,0.0,0.0031653141927330685,0.009267662988973432,-0.00010214490386245011,0.0,0.0,0.0,0.0,0.0,0.0,0.0,0.0,0.0
8.157,231,8,157000000,base_footprint,-0.0038473054902545853,0.0001854456239929368,0.9987254637120689,0.05032506317431002,0.0,0.0,0.0,0.0,0.0,0.0,0.0,0.0,0.0,-0.0003454686537947586,0.0010003527376099687,0.08673903796038149,0.0,0.0,0.0,0.0,0.0,0.0,0.0,0.0,0.0,0.325942519264929,-0.056126276033797405,0.001555676187250521,0.0,0.0,0.0,0.0,0.0,0.0,0.0,0.0,0.0
8.19,232,8,191000000,base_footprint,-0.0038506818533062385,0.00017997817109307332,0.9987987507194533,0.04884869924964126,0.0,0.0,0.0,0.0,0.0,0.0,0.0,0.0,0.0,-0.0007855818624224631,-4.088950753721371e-05,0.08696703731584343,0.0,0.0,0.0,0.0,0.0,0.0,0.0,0.0,0.0,0.005176444044098419,0.018387939113631763,0.0009069639112239211,0.0,0.0,0.0,0.0,0.0,0.0,0.0,0.0,0.0
8.225,233,8,225000000,base_footprint,-0.003851708858384557,0.0001741325122289497,0.9988700997236017,0.04736726606951803,0.0,0.0,0.0,0.0,0.0,0.0,0.0,0.0,0.0,-0.0007656320677659454,-1.1654585783522092e-05,0.08739886524314512,0.0,0.0,0.0,0.0,0.0,0.0,0.0,0.0,0.0,0.003339064585141662,0.01882959978853657,-0.00014169295756263136,0.0,0.0,0.0,0.0,0.0,0.0,0.0,0.0,0.0
8.259,234,8,259000000,base_footprint,-0.003853265533350948,0.00016757143505339445,0.9989434763557059,0.04579361648658866,0.0,0.0,0.0,0.0,0.0,0.0,0.0,0.0,0.0,-0.0008136546982451776,3.48526117255917e-06,0.09557641078541457,0.0,0.0,0.0,0.0,0.0,0.0,0.0,0.0,0.0,-3.371785659591145e-05,0.021017573872573872,-0.00011884303293720829,0.0,0.0,0.0,0.0,0.0,0.0,0.0,0.0,0.0
8.293,235,8,293000000,base_footprint,-0.00385493900741293,0.00016148917187441207,0.9990160465393907,0.04418203394257219,0.0,0.0,0.0,0.0,0.0,0.0,0.0,0.0,0.0,-0.0007473012680886243,-4.737732563225946e-05,0.09750618434871096,0.0,0.0,0.0,0.0,0.0,0.0,0.0,0.0,0.0,-0.0008316920867943382,0.0205425994244845,0.00012991998188469206,0.0,0.0,0.0,0.0,0.0,0.0,0.0,0.0,0.0
8.324,236,8,327000000,base_footprint,-0.0038543877645577872,0.00015662272316251504,0.9990884577234523,0.04251320745434971,0.0,0.0,0.0,0.0,0.0,0.0,0.0,0.0,0.0,-0.0010504344536520717,0.0006572446355164385,0.0938473867020106,0.0,0.0,0.0,0.0,0.0,0.0,0.0,0.0,0.0,0.012788657424887708,0.019920452975808127,-0.0010859226586596973,0.0,0.0,0.0,0.0,0.0,0.0,0.0,0.0,0.0
8.359,237,8,361000000,base_footprint,-0.0038545358312492015,0.00015354642155637375,0.9991315170840953,0.04148892076514418,0.0,0.0,0.0,0.0,0.0,0.0,0.0,0.0,0.0,-0.0006141173134385444,-0.0011109738984305072,0.041678461216372524,0.0,0.0,0.0,0.0,0.0,0.0,0.0,0.0,0.0,0.012750532746155636,0.01250771446845663,0.0028356033706362633,0.0,0.0,0.0,0.0,0.0,0.0,0.0,0.0,0.0
8.395,238,8,395000000,base_footprint,-0.0038547801661316947,0.00015218843353968623,0.999155233837573,0.040913765452918416,0.0,0.0,0.0,0.0,0.0,0.0,0.0,0.0,0.0,-0.0004592461052339023,-0.00024646190820694445,0.023013244964664527,0.0,0.0,0.0,0.0,0.0,0.0,0.0,0.0,0.0,-0.03370294154331102,0.013053632299796428,-0.0013452865479477035,0.0,0.0,0.0,0.0,0.0,0.0,0.0,0.0,0.0
8.43,239,8,429000000,base_footprint,-0.0038478641680843163,0.00014634547370110274,0.999166298316527,0.040643336880667576,0.0,0.0,0.0,0.0,0.0,0.0,0.0,0.0,0.0,-0.00021840512220601342,-0.00015927360782825675,0.01891818405827753,0.0,0.0,0.0,0.0,0.0,0.0,0.0,0.0,0.0,-0.007342934468632727,0.004672790021588413,-0.00028618671540236724,0.0,0.0,0.0,0.0,0.0,0.0,0.0,0.0,0.0
8.463,240,8,463000000,base_footprint,-0.003847890154119814,0.00014369321538919484,0.9992103520249281,0.03954548646610715,0.0,0.0,0.0,0.0,0.0,0.0,0.0,0.0,0.0,0.00043681283254915155,0.0008808014261221351,0.09594535610805346,0.0,0.0,0.0,0.0,0.0,0.0,0.0,0.0,0.0,0.025656271689068734,0.00919082480716378,-0.0015065213325436194,0.0,0.0,0.0,0.0,0.0,0.0,0.0,0.0,0.0
8.496,241,8,497000000,base_footprint,-0.0038507823466924027,0.00013886637743403422,0.9992732053163595,0.03792378314747124,0.0,0.0,0.0,0.0,0.0,0.0,0.0,0.0,0.0,-0.0006392056118714128,-0.00010182945061496173,0.09522261017211217,0.0,0.0,0.0,0.0,0.0,0.0,0.0,0.0,0.0,0.0035231631954982688,0.020644299989381023,0.00173993406002969,0.0,0.0,0.0,0.0,0.0,0.0,0.0,0.0,0.0
8.531,242,8,531000000,base_footprint,-0.0038508160843940013,0.00013248856604785802,0.9993333089567544,0.03630552673916606,0.0,0.0,0.0,0.0,0.0,0.0,0.0,0.0,0.0,-0.0006436891722142132,-0.00010297248138711927,0.0951298281330156,0.0,0.0,0.0,0.0,0.0,0.0,0.0,0.0,0.0,0.004348180845823965,0.02043316026448401,2.996070179747167e-05,0.0,0.0,0.0,0.0,0.0,0.0,0.0,0.0,0.0
8.565,243,8,565000000,base_footprint,-0.0038509627428548686,0.00012990757015245892,0.9993554304817287,0.035691410404397154,0.0,0.0,0.0,0.0,0.0,0.0,0.0,0.0,0.0,-7.120656793073914e-05,-3.0379142221300758e-05,0.02134098045675575,0.0,0.0,0.0,0.0,0.0,0.0,0.0,0.0,0.0,0.02185286025465405,0.0056530182457752405,4.2229960525589674e-05,0.0,0.0,0.0,0.0,0.0,0.0,0.0,0.0,0.0
8.599,244,8,599000000,base_footprint,-0.0038513914697219003,0.0001283078900318659,0.9993683347778213,0.035328200693452425,0.0,0.0,0.0,0.0,0.0,0.0,0.0,0.0,0.0,-0.00018853065991021346,-0.0001352225552204339,0.02122595288883218,0.0,0.0,0.0,0.0,0.0,0.0,0.0,0.0,0.0,0.0019814150988325453,0.004442193190730731,0.00012633557132585608,0.0,0.0,0.0,0.0,0.0,0.0,0.0,0.0,0.0
8.633,245,8,633000000,base_footprint,-0.0038520477298453876,0.00012665410671252767,0.9993810355039697,0.034967006764055376,0.0,0.0,0.0,0.0,0.0,0.0,0.0,0.0,0.0,-0.0002530164271069987,-0.00011013581995268298,0.02113514354114371,0.0,0.0,0.0,0.0,0.0,0.0,0.0,0.0,0.0,0.0019564280230162643,0.004411937743878442,-0.00010877957487544692,0.0,0.0,0.0,0.0,0.0,0.0,0.0,0.0,0.0
8.667,246,8,667000000,base_footprint,-0.0038505253091342963,0.00012792249845483016,0.9993960073755505,0.03453661147951538,0.0,0.0,0.0,0.0,0.0,0.0,0.0,0.0,0.0,-0.0008456703935430503,-0.0002535838698192222,0.07504256200896368,0.0,0.0,0.0,0.0,0.0,0.0,0.0,0.0,0.0,-0.46207220095240414,0.06981893568960465,-0.004137893836109461,0.0,0.0,0.0,0.0,0.0,0.0,0.0,0.0,0.0
8.701,247,8,701000000,base_footprint,-0.003853376128800778,0.00012234895084503694,0.999419157964477,0.03385975807238081,0.0,0.0,0.0,0.0,0.0,0.0,0.0,0.0,0.0,-0.00026232657650954795,-0.00016463106919821843,0.028204024949902103,0.0,0.0,0.0,0.0,0.0,0.0,0.0,0.0,0.0,0.12759715225762833,-0.00937430717776841,0.0014584071256498027,0.0,0.0,0.0,0.0,0.0,0.0,0.0,0.0,0.0
8.735,248,8,735000000,base_footprint,-0.003854154135436489,0.00012051265660213536,0.9994353402127742,0.03337861151061081,0.0,0.0,0.0,0.0,0.0,0.0,0.0,0.0,0.0,-0.0002836724726069291,-3.809112089306007e-05,0.028363120622144217,0.0,0.0,0.0,0.0,0.0,0.0,0.0,0.0,0.0,0.0013161141974846573,0.0062303352453325815,-0.0002490169524279514,0.0,0.0,0.0,0.0,0.0,0.0,0.0,0.0,0.0
8.77,249,8,769000000,base_footprint,-0.0038553890077398594,0.00011975714319127709,0.9994462830721058,0.03304918890348081,0.0,0.0,0.0,0.0,0.0,0.0,0.0,0.0,0.0,-0.00020445836975678986,2.3710254097562105e-05,0.01860838333099584,0.0,0.0,0.0,0.0,0.0,0.0,0.0,0.0,0.0,0.0049059428850050674,0.0037086234323658244,-0.00012432783241438843,0.0,0.0,0.0,0.0,0.0,0.0,0.0,0.0,0.0
8.803,250,8,803000000,base_footprint,-0.0038549285311366204,0.00011957901675534736,0.9994581334562824,0.03268890782762194,0.0,0.0,0.0,0.0,0.0,0.0,0.0,0.0,0.0,-6.005016565362588e-05,-0.00025144105334342894,0.02330823536408543,0.0,0.0,0.0,0.0,0.0,0.0,0.0,0.0,0.0,-0.0130850790739465,0.005841889223961798,0.0003690757773172346,0.0,0.0,0.0,0.0,0.0,0.0,0.0,0.0,0.0
8.837,251,8,837000000,base_footprint,-0.003854821650599208,0.00011990781482930702,0.9994699251228701,0.03232637850181516,0.0,0.0,0.0,0.0,0.0,0.0,0.0,0.0,0.0,0.002101878796608808,-0.0021445264306764497,0.018502154995809778,0.0,0.0,0.0,0.0,0.0,0.0,0.0,0.0,0.0,0.01010289852033723,0.005039547964910698,0.002964781316615407,0.0,0.0,0.0,0.0,0.0,0.0,0.0,0.0,0.0
8.871,252,8,871000000,base_footprint,-0.003849779859726382,0.00011683078990630865,0.9994707402297165,0.03230177967637178,0.0,0.0,0.0,0.0,0.0,0.0,0.0,0.0,0.0,-0.0005124590036484083,-0.006327446936266405,-0.016811473324627103,0.0,0.0,0.0,0.0,0.0,0.0,0.0,0.0,0.0,0.02307382056104017,-0.004835534275482981,0.008284088413237543,0.0,0.0,0.0,0.0,0.0,0.0,0.0,0.0,0.0
8.905,253,8,905000000,base_footprint,-0.00384917450948022,0.00011858298159655446,0.9994318125217564,0.03348465190425477,0.0,0.0,0.0,0.0,0.0,0.0,0.0,0.0,0.0,0.0004991466204734512,-8.214505476725065e-05,-0.07547742786410212,0.0,0.0,0.0,0.0,0.0,0.0,0.0,0.0,0.0,0.09140152661874372,-0.025503977757744097,-0.01032257009435484,0.0,0.0,0.0,0.0,0.0,0.0,0.0,0.0,0.0
8.939,254,8,939000000,base_footprint,-0.0038522565993613918,0.0001207110483168879,0.9994001222971672,0.034417162874690335,0.0,0.0,0.0,0.0,0.0,0.0,0.0,0.0,0.0,-0.0004804861307237825,0.003181051450230078,-0.006512515547786619,0.0,0.0,0.0,0.0,0.0,0.0,0.0,0.0,0.0,0.04471850158844884,-0.01864474220987752,-0.0034244620150625338,0.0,0.0,0.0,0.0,0.0,0.0,0.0,0.0,0.0
8.973,255,8,973000000,base_footprint,-0.0038477588680906646,0.00011730522353607113,0.9994475646432206,0.03301130897000693,0.0,0.0,0.0,0.0,0.0,0.0,0.0,0.0,0.0,-0.000899290338531055,-0.0001462677584013317,0.13132313195938294,0.0,0.0,0.0,0.0,0.0,0.0,0.0,0.0,0.0,0.09914991166516468,0.0028456400188018806,0.00477212362199988,0.0,0.0,0.0,0.0,0.0,0.0,0.0,0.0,0.0
9.007,256,9,7000000,base_footprint,-0.003851427428134671,0.00010978536834442966,0.9995274019115034,0.030497988162812142,0.0,0.0,0.0,0.0,0.0,0.0,0.0,0.0,0.0,-0.0010684360519105484,-0.00015256359210254466,0.14907438587612404,0.0,0.0,0.0,0.0,0.0,0.0,0.0,0.0,0.0,0.04242761488073804,0.027011749397239673,0.00035736951143716455,0.0,0.0,0.0,0.0,0.0,0.0,0.0,0.0,0.0
9.041,257,9,41000000,base_footprint,-0.003851864541484606,0.00010042511801496247,0.9995991897380809,0.028046620639961772,0.0,0.0,0.0,0.0,0.0,0.0,0.0,0.0,0.0,-0.0018800507078080148,-0.0004054432148915359,0.1097788476026549,0.0,0.0,0.0,0.0,0.0,0.0,0.0,0.0,0.0,0.014531440432953147,0.030716294352613676,0.0009302247760689502,0.0,0.0,0.0,0.0,0.0,0.0,0.0,0.0,0.0
9.075,258,9,75000000,base_footprint,-0.0038521038533875247,9.29107555264427e-05,0.9996500012432675,0.026173033409016805,0.0,0.0,0.0,0.0,0.0,0.0,0.0,0.0,0.0,-0.000785912416783629,-0.00011254134253528883,0.11015898024841553,0.0,0.0,0.0,0.0,0.0,0.0,0.0,0.0,0.0,0.004596677369258095,0.023573407770137913,-0.0008912375342831572,0.0,0.0,0.0,0.0,0.0,0.0,0.0,0.0,0.0
9.109,259,9,109000000,base_footprint,-0.0038527860038202653,8.553790406361026e-05,0.9996972867713336,0.024299867187083178,0.0,0.0,0.0,0.0,0.0,0.0,0.0,0.0,0.0,-0.0008556444170771674,-7.63345438398116e-05,0.11011480587167286,0.0,0.0,0.0,0.0,0.0,0.0,0.0,0.0,0.0,0.003697586021442191,0.023889085073984,-0.0001333680136187959,0.0,0.0,0.0,0.0,0.0,0.0,0.0,0.0,0.0
9.143,260,9,143000000,base_footprint,-0.0038533564523979555,7.8863788283613e-05,0.99973916879179,0.022510881991929424,0.0,0.0,0.0,0.0,0.0,0.0,0.0,0.0,0.0,-0.00020188821966223326,-0.0006299001230413706,0.08402597358778917,0.0,0.0,0.0,0.0,0.0,0.0,0.0,0.0,0.0,0.012203392844056415,0.02245877651681946,0.0009121119943941531,0.0,0.0,0.0,0.0,0.0,0.0,0.0,0.0,0.0
9.177,261,9,177000000,base_footprint,-0.0038547501052545573,7.283974598392491e-05,0.9997706225622965,0.021067459680646498,0.0,0.0,0.0,0.0,0.0,0.0,0.0,0.0,0.0,-0.0006928940353531589,-6.119526397010432e-05,0.08503592564414407,0.0,0.0,0.0,0.0,0.0,0.0,0.0,0.0,0.0,2.98477621836305e-05,0.01849826064336081,-0.00101396368678888,0.0,0.0,0.0,0.0,0.0,0.0,0.0,0.0,0.0
9.211,262,9,211000000,base_footprint,-0.003855770295014965,6.739478786279329e-05,0.9998001149346871,0.019617815116905232,0.0,0.0,0.0,0.0,0.0,0.0,0.0,0.0,0.0,-0.0006988571396647322,-4.110825424867619e-05,0.0855086938707059,0.0,0.0,0.0,0.0,0.0,0.0,0.0,0.0,0.0,0.0011035271886681037,0.018661763884136713,-9.983205451141553e-05,0.0,0.0,0.0,0.0,0.0,0.0,0.0,0.0,0.0
9.245,263,9,245000000,base_footprint,-0.0038582051957258418,6.168427254296999e-05,0.99982704242917,0.018193286538089933,0.0,0.0,0.0,0.0,0.0,0.0,0.0,0.0,0.0,-0.0005558264971088258,0.00016086737212136929,0.07743631553747585,0.0,0.0,0.0,0.0,0.0,0.0,0.0,0.0,0.0,-0.000569304789248889,0.01915504429296247,-0.0002575549674988586,0.0,0.0,0.0,0.0,0.0,0.0,0.0,0.0,0.0
9.279,264,9,279000000,base_footprint,-0.0038585286094146264,5.7223759356562795e-05,0.9998499522665807,0.016887315799975863,0.0,0.0,0.0,0.0,0.0,0.0,0.0,0.0,0.0,-0.0003835351596307075,-0.00030143813179069073,0.08145893327860768,0.0,0.0,0.0,0.0,0.0,0.0,0.0,0.0,0.0,-0.00944251014329636,0.017166174322804127,0.0006593837678052875,0.0,0.0,0.0,0.0,0.0,0.0,0.0,0.0,0.0
9.313,265,9,313000000,base_footprint,-0.0038594217466056055,5.3662207359501716e-05,0.9998712400317747,0.015575793445939571,0.0,0.0,0.0,0.0,0.0,0.0,0.0,0.0,0.0,-0.0006005344121819297,-0.00029023074417451286,0.07356630238775405,0.0,0.0,0.0,0.0,0.0,0.0,0.0,0.0,0.0,0.0013707504214126207,0.01749161101953015,0.00020527464705712929,0.0,0.0,0.0,0.0,0.0,0.0,0.0,0.0,0.0
9.347,266,9,347000000,base_footprint,-0.0038624945747983215,4.807743650344296e-05,0.9998881752377677,0.014447001208104082,0.0,0.0,0.0,0.0,0.0,0.0,0.0,0.0,0.0,-0.000579935771192867,-0.002646764550053121,0.08433244357472557,0.0,0.0,0.0,0.0,0.0,0.0,0.0,0.0,0.0,-0.16230231463614753,0.02237542901072908,0.0018826013390638163,0.0,0.0,0.0,0.0,0.0,0.0,0.0,0.0,0.0
9.381,267,9,381000000,base_footprint,-0.0038498127330279176,4.0316692130309844e-05,0.9999111644543857,0.012760897929206932,0.0,0.0,0.0,0.0,0.0,0.0,0.0,0.0,0.0,-0.0015115764214833135,0.0029614334167984892,0.07640371872101151,0.0,0.0,0.0,0.0,0.0,0.0,0.0,0.0,0.0,-0.18514863888156788,0.03159705824429606,-0.009411979442735563,0.0,0.0,0.0,0.0,0.0,0.0,0.0,0.0,0.0
9.415,268,9,415000000,base_footprint,-0.0038539646890513135,3.646982875546733e-05,0.9999284966965989,0.011320208487788396,0.0,0.0,0.0,0.0,0.0,0.0,0.0,0.0,0.0,-0.0006176641284726734,-5.555173290856138e-05,0.08510586336289581,0.0,0.0,0.0,0.0,0.0,0.0,0.0,0.0,0.0,0.014782074047960843,0.016733188119510602,0.004437386852771495,0.0,0.0,0.0,0.0,0.0,0.0,0.0,0.0,0.0
9.449,269,9,449000000,base_footprint,-0.0038483910612766704,2.908449331243697e-05,0.9999482517868136,0.009417153966414245,0.0,0.0,0.0,0.0,0.0,0.0,0.0,0.0,0.0,-0.0009370900012471502,0.0003281144025809445,0.18345459820399987,0.0,0.0,0.0,0.0,0.0,0.0,0.0,0.0,0.0,-0.02535344481020803,0.022902235592432457,-0.0007945993989842784,0.0,0.0,0.0,0.0,0.0,0.0,0.0,0.0,0.0
9.483,270,9,483000000,base_footprint,-0.0038529753376496194,1.7133606327366272e-05,0.9999727108882198,0.006303313918242719,0.0,0.0,0.0,0.0,0.0,0.0,0.0,0.0,0.0,-0.001309991443979861,-8.452226767371444e-05,0.18309296629789104,0.0,0.0,0.0,0.0,0.0,0.0,0.0,0.0,0.0,0.0034969406389312387,0.038038822391066866,0.0008515924088719865,0.0,0.0,0.0,0.0,0.0,0.0,0.0,0.0,0.0
9.517,271,9,517000000,base_footprint,-0.003852903814314091,5.149721274916781e-06,0.9999874861981602,0.003191011244492587,0.0,0.0,0.0,0.0,0.0,0.0,0.0,0.0,0.0,-0.0013559425814023305,-0.00016378052945127807,0.1830039604138396,0.0,0.0,0.0,0.0,0.0,0.0,0.0,0.0,0.0,0.0018610645405674339,0.03777242942749817,0.00016906833288329257,0.0,0.0,0.0,0.0,0.0,0.0,0.0,0.0,0.0
9.551,272,9,551000000,base_footprint,-0.003848541160508793,-7.010215084054065e-06,0.9999925752962229,0.00019502364195189836,0.0,0.0,0.0,0.0,0.0,0.0,0.0,0.0,0.0,-0.0011158312950215856,-0.00021572407549471748,0.15725148300192848,0.0,0.0,0.0,0.0,0.0,0.0,0.0,0.0,0.0,0.34036626985910085,0.036526483598982244,0.0031656890237061345,0.0,0.0,0.0,0.0,0.0,0.0,0.0,0.0,0.0
9.585,273,9,585000000,base_footprint,-0.003853428202798813,-1.6850019711725734e-05,0.9999894682452046,-0.0024928308878822782,0.0,0.0,0.0,0.0,0.0,0.0,0.0,0.0,0.0,-0.0012566372623021278,-0.00011711794214111187,0.15808741205752563,0.0,0.0,0.0,0.0,0.0,0.0,0.0,0.0,0.0,0.009272223095735279,0.03448341809912639,-0.0006788303373907104,0.0,0.0,0.0,0.0,0.0,0.0,0.0,0.0,0.0
9.619,274,9,619000000,base_footprint,-0.0038539801627074078,-2.724494258544723e-05,0.9999791575877144,-0.00517981513026876,0.0,0.0,0.0,0.0,0.0,0.0,0.0,0.0,0.0,-0.0012358302998486468,-0.00012859111539088356,0.1580000214449764,0.0,0.0,0.0,0.0,0.0,0.0,0.0,0.0,0.0,0.0007756576816422313,0.03458104053306427,-9.939974658739153e-05,0.0,0.0,0.0,0.0,0.0,0.0,0.0,0.0,0.0
9.653,275,9,653000000,base_footprint,-0.0038549013633611107,-3.685778215659498e-05,0.9999632455918197,-0.007658057355287439,0.0,0.0,0.0,0.0,0.0,0.0,0.0,0.0,0.0,-0.0010384044708261282,-8.5487621173773e-05,0.13290396784728153,0.0,0.0,0.0,0.0,0.0,0.0,0.0,0.0,0.0,0.0070631810660882095,0.032401424028607004,-0.00011388514118151899,0.0,0.0,0.0,0.0,0.0,0.0,0.0,0.0,0.0
9.687,276,9,687000000,base_footprint,-0.0038559844280622647,-4.5548317185795896e-05,0.9999433703887873,-0.009918937692815648,0.0,0.0,0.0,0.0,0.0,0.0,0.0,0.0,0.0,-0.001026408062466236,-9.35585238445664e-05,0.13309161719583354,0.0,0.0,0.0,0.0,0.0,0.0,0.0,0.0,0.0,-0.001005657776357842,0.02904818099199847,-4.9786463907231234e-05,0.0,0.0,0.0,0.0,0.0,0.0,0.0,0.0,0.0
9.721,277,9,721000000,base_footprint,-0.0038568890467084536,-5.4115495773868274e-05,0.999918359080134,-0.012181816485512274,0.0,0.0,0.0,0.0,0.0,0.0,0.0,0.0,0.0,-0.001023755804895862,-7.26363651113912e-05,0.13316267849634636,0.0,0.0,0.0,0.0,0.0,0.0,0.0,0.0,0.0,-0.002720037739099094,0.02905948196336778,-0.00013408136757151712,0.0,0.0,0.0,0.0,0.0,0.0,0.0,0.0,0.0
9.755,278,9,755000000,base_footprint,-0.0038595410057503674,-6.120978081716864e-05,0.9998916829283391,-0.014202908410653551,0.0,0.0,0.0,0.0,0.0,0.0,0.0,0.0,0.0,-0.001006141664297514,-0.0008069388232980051,0.1006171899215707,0.0,0.0,0.0,0.0,0.0,0.0,0.0,0.0,0.0,0.010606521061063608,0.027231212785638625,0.001566397875309665,0.0,0.0,0.0,0.0,0.0,0.0,0.0,0.0,0.0
9.789,279,9,789000000,base_footprint,-0.003858970181991004,-6.85948430226805e-05,0.9998657183635106,-0.015926358193352325,0.0,0.0,0.0,0.0,0.0,0.0,0.0,0.0,0.0,-0.0006454395902336281,-0.0008552190766957494,0.10542105092708363,0.0,0.0,0.0,0.0,0.0,0.0,0.0,0.0,0.0,-0.04309539012373708,0.0198898454974425,-0.000231542488481538,0.0,0.0,0.0,0.0,0.0,0.0,0.0,0.0,0.0
9.823,280,9,823000000,base_footprint,-0.0038562855503375066,-7.476497716786902e-05,0.9998346429247936,-0.017771051724726056,0.0,0.0,0.0,0.0,0.0,0.0,0.0,0.0,0.0,-0.0011411540622276077,0.0011450680052835904,0.10847672975583872,0.0,0.0,0.0,0.0,0.0,0.0,0.0,0.0,0.0,0.03664532338944469,0.025816749108651157,-0.0032531777474750353,0.0,0.0,0.0,0.0,0.0,0.0,0.0,0.0,0.0
9.857,281,9,857000000,base_footprint,-0.0038548418746208513,-8.182209322521768e-05,0.9998035577357355,-0.019441693296437093,0.0,0.0,0.0,0.0,0.0,0.0,0.0,0.0,0.0,-0.0006841691634958398,-0.00030761080998365284,0.09149367897301178,0.0,0.0,0.0,0.0,0.0,0.0,0.0,0.0,0.0,-0.008170583612811203,0.02110671580147499,0.0024011633485457474,0.0,0.0,0.0,0.0,0.0,0.0,0.0,0.0,0.0
9.891,282,9,891000000,base_footprint,-0.0038532482107452794,-8.794066844612605e-05,0.9997721472794247,-0.020995196330438334,0.0,0.0,0.0,0.0,0.0,0.0,0.0,0.0,0.0,-0.0006914869591113544,-0.0001301982545029191,0.09138385071128106,0.0,0.0,0.0,0.0,0.0,0.0,0.0,0.0,0.0,-0.00045576226643688944,0.020049399252194143,-0.00016284380529269489,0.0,0.0,0.0,0.0,0.0,0.0,0.0,0.0,0.0
9.925,283,9,925000000,base_footprint,-0.003852443378139641,-9.394655018475516e-05,0.9997383339310868,-0.02254802702585681,0.0,0.0,0.0,0.0,0.0,0.0,0.0,0.0,0.0,-0.0006873535452068723,-0.00013847411361159702,0.09132005022371899,0.0,0.0,0.0,0.0,0.0,0.0,0.0,0.0,0.0,-0.000668528561104955,0.020040196507208806,4.145264456648611e-05,0.0,0.0,0.0,0.0,0.0,0.0,0.0,0.0,0.0
9.959,284,9,959000000,base_footprint,-0.003851266267085565,-9.935082208692072e-05,0.9997051714219365,-0.023973487643454354,0.0,0.0,0.0,0.0,0.0,0.0,0.0,0.0,0.0,-0.0004735573976002391,0.0013323382419689275,0.0670538258899867,0.0,0.0,0.0,0.0,0.0,0.0,0.0,0.0,0.0,-0.33285269406402923,-0.013299338072158058,-0.004060481507077565,0.0,0.0,0.0,0.0,0.0,0.0,0.0,0.0,0.0
9.993,285,9,993000000,base_footprint,-0.003851659974351177,-0.00010382491459380812,0.9996772432387139,-0.02511101922412738,0.0,0.0,0.0,0.0,0.0,0.0,0.0,0.0,0.0,-0.000460447978581591,-0.00019598289354915907,0.06689165969375861,0.0,0.0,0.0,0.0,0.0,0.0,0.0,0.0,0.0,-0.000507885216844717,0.01391551611620925,0.00182120836898894,0.0,0.0,0.0,0.0,0.0,0.0,0.0,0.0,0.0
10.027,286,10,27000000,base_footprint,-0.0038515562373598227,-0.0001082418568854912,0.9996480621848924,-0.026247010653415916,0.0,0.0,0.0,0.0,0.0,0.0,0.0,0.0,0.0,-0.00045776235577936247,-0.00020563744623367438,0.06678868766168852,0.0,0.0,0.0,0.0,0.0,0.0,0.0,0.0,0.0,-0.0001797537378798594,0.013958054600289064,6.6913270119100256e-06,0.0,0.0,0.0,0.0,0.0,0.0,0.0,0.0,0.0
10.061,287,10,61000000,base_footprint,-0.003851790204378181,-0.00011232551089388057,0.9996203609522878,-0.027281588385192873,0.0,0.0,0.0,0.0,0.0,0.0,0.0,0.0,0.0,-0.00040988419160794534,-0.00018359718002966346,0.058673304490193874,0.0,0.0,0.0,0.0,0.0,0.0,0.0,0.0,0.0,0.0020424924459581046,0.013020621473013439,-7.082394347320436e-05,0.0,0.0,0.0,0.0,0.0,0.0,0.0,0.0,0.0
10.095,288,10,95000000,base_footprint,-0.0038522942278193576,-0.00011629223898931598,0.9995926684160117,-0.02827796941534066,0.0,0.0,0.0,0.0,0.0,0.0,0.0,0.0,0.0,-0.000434597953082686,-0.0001291968501176301,0.05859185547382433,0.0,0.0,0.0,0.0,0.0,0.0,0.0,0.0,0.0,-0.00013774407475417724,0.012274074109690464,-0.0002788002813363248,0.0,0.0,0.0,0.0,0.0,0.0,0.0,0.0,0.0
10.129,289,10,129000000,base_footprint,-0.0038529878392649284,-0.00012024331891744515,0.9995640224745675,-0.029272939734796097,0.0,0.0,0.0,0.0,0.0,0.0,0.0,0.0,0.0,-0.00043245588879087097,-0.0001168051787103166,0.05852257439568298,0.0,0.0,0.0,0.0,0.0,0.0,0.0,0.0,0.0,-7.34461922822489e-05,0.012236663057953064,-7.324749126343595e-05,0.0,0.0,0.0,0.0,0.0,0.0,0.0,0.0,0.0
10.163,290,10,163000000,base_footprint,-0.003854310797117236,-0.00012308239124103187,0.999544269590789,-0.02993964373903515,0.0,0.0,0.0,0.0,0.0,0.0,0.0,0.0,0.0,-0.00025798795776694084,-7.04655820386367e-05,0.033720636520981756,0.0,0.0,0.0,0.0,0.0,0.0,0.0,0.0,0.0,0.006167977077998141,0.009164006692512178,-7.87158564416729e-05,0.0,0.0,0.0,0.0,0.0,0.0,0.0,0.0,0.0
10.197,291,10,197000000,base_footprint,-0.003855186698476659,-0.00012549247197486677,0.9995269029084565,-0.030513802604532077,0.0,0.0,0.0,0.0,0.0,0.0,0.0,0.0,0.0,-0.0002521231873112611,-0.00010011708503918527,0.033840034342236085,0.0,0.0,0.0,0.0,0.0,0.0,0.0,0.0,0.0,-0.0013523738053074586,0.006763249902727058,-5.8383237991454736e-05,0.0,0.0,0.0,0.0,0.0,0.0,0.0,0.0,0.0
10.231,292,10,231000000,base_footprint,-0.00385534465345571,-0.0001281608342369708,0.9995089219552491,-0.03109718354223764,0.0,0.0,0.0,0.0,0.0,0.0,0.0,0.0,0.0,-0.00025425203965121363,-3.116616384084617e-05,0.03465824479507357,0.0,0.0,0.0,0.0,0.0,0.0,0.0,0.0,0.0,0.0025307053840633083,0.007129270627747075,-0.00013061836030241943,0.0,0.0,0.0,0.0,0.0,0.0,0.0,0.0,0.0
10.265,293,10,265000000,base_footprint,-0.0038531992873931564,-0.00013437342503689115,0.9994898986367903,-0.03170295446883668,0.0,0.0,0.0,0.0,0.0,0.0,0.0,0.0,0.0,-0.0007402743936268669,-0.0020491774076788097,0.0386960957887268,0.0,0.0,0.0,0.0,0.0,0.0,0.0,0.0,0.0,0.01717572243786441,-0.004737896444707234,0.0026240349212570103,0.0,0.0,0.0,0.0,0.0,0.0,0.0,0.0,0.0
10.299,294,10,299000000,base_footprint,-0.0038438334096433597,-0.00013225762032740898,0.9994564452068369,-0.03274174074715646,0.0,0.0,0.0,0.0,0.0,0.0,0.0,0.0,0.0,-0.0005352631303629438,-0.00029756198003188275,0.0822550211936158,0.0,0.0,0.0,0.0,0.0,0.0,0.0,0.0,0.0,0.03775613276409254,0.033546699780719995,-0.0013668685525578693,0.0,0.0,0.0,0.0,0.0,0.0,0.0,0.0,0.0
10.333,295,10,333000000,base_footprint,-0.0038469783938294517,-0.00013495470367623464,0.999408617414476,-0.03417013289630458,0.0,0.0,0.0,0.0,0.0,0.0,0.0,0.0,0.0,-0.0003596507039598325,0.00010670876560433408,0.06443170510881154,0.0,0.0,0.0,0.0,0.0,0.0,0.0,0.0,0.0,0.12988309523167624,0.03501901067405985,0.0003372182487571,0.0,0.0,0.0,0.0,0.0,0.0,0.0,0.0,0.0
10.367,296,10,367000000,base_footprint,-0.00385202980258541,-0.000142235143268302,0.9993746619587498,-0.03514863682134396,0.0,0.0,0.0,0.0,0.0,0.0,0.0,0.0,0.0,-0.0003269379274427883,-0.00044457502070708563,0.05235464362134126,0.0,0.0,0.0,0.0,0.0,0.0,0.0,0.0,0.0,0.12792597129797748,0.03049745790896464,0.0016852022480287224,0.0,0.0,0.0,0.0,0.0,0.0,0.0,0.0,0.0
10.401,297,10,401000000,base_footprint,-0.0038510539124955684,-0.00014558890317670423,0.9993430685153141,-0.036035809939987014,0.0,0.0,0.0,0.0,0.0,0.0,0.0,0.0,0.0,-0.0004287835672479934,-0.00017852737160439802,0.052172173819214074,0.0,0.0,0.0,0.0,0.0,0.0,0.0,0.0,0.0,0.00014164410902064984,0.011480011328783294,-0.00024768237820358265,0.0,0.0,0.0,0.0,0.0,0.0,0.0,0.0,0.0
10.435,298,10,435000000,base_footprint,-0.0038504206838085578,-0.00014897468915636093,0.9993107488665111,-0.03692125765670393,0.0,0.0,0.0,0.0,0.0,0.0,0.0,0.0,0.0,-0.0004293368164504202,-0.00017608097043248977,0.052061486346585174,0.0,0.0,0.0,0.0,0.0,0.0,0.0,0.0,0.0,-0.0004869095580086128,0.011515932221243103,3.903162103381445e-05,0.0,0.0,0.0,0.0,0.0,0.0,0.0,0.0,0.0
10.468,299,10,469000000,base_footprint,-0.003850066423693522,-0.0001519045402826731,0.9992824475078282,-0.03767949065882068,0.0,0.0,0.0,0.0,0.0,0.0,0.0,0.0,0.0,-0.0003387177555199115,-0.00019415825779612656,0.04433444119206303,0.0,0.0,0.0,0.0,0.0,0.0,0.0,0.0,0.0,0.001710253882954305,0.010289786563684818,9.728700195366767e-05,0.0,0.0,0.0,0.0,0.0,0.0,0.0,0.0,0.0
10.504,300,10,503000000,base_footprint,-0.0038499497864949005,-0.00015481149076246079,0.9992538175927547,-0.03843126261716807,0.0,0.0,0.0,0.0,0.0,0.0,0.0,0.0,0.0,-0.00031075969792435483,-0.00019281438910273763,0.04421075370781281,0.0,0.0,0.0,0.0,0.0,0.0,0.0,0.0,0.0,-0.0001736429103677608,0.009822628358281198,4.669804343217915e-05,0.0,0.0,0.0,0.0,0.0,0.0,0.0,0.0,0.0
10.537,301,10,537000000,base_footprint,-0.003850033183564857,-0.0001578607291256797,0.9992248341893482,-0.039177583689471614,0.0,0.0,0.0,0.0,0.0,0.0,0.0,0.0,0.0,-0.0005182575442989369,-0.0003686719663976273,0.037629283403739146,0.0,0.0,0.0,0.0,0.0,0.0,0.0,0.0,0.0,0.0009769249185920062,0.009634509704262297,0.00015781959120049024,0.0,0.0,0.0,0.0,0.0,0.0,0.0,0.0,0.0
10.571,302,10,571000000,base_footprint,-0.003850607946281369,-0.0001602067391609527,0.9992006672328321,-0.03978911602069133,0.0,0.0,0.0,0.0,0.0,0.0,0.0,0.0,0.0,-0.0002862674225449695,-0.00015162290883484838,0.035991426599728114,0.0,0.0,0.0,0.0,0.0,0.0,0.0,0.0,0.0,0.0010970616849160374,0.008512057376996066,-0.0003587715166890652,0.0,0.0,0.0,0.0,0.0,0.0,0.0,0.0,0.0
10.605,303,10,605000000,base_footprint,-0.0038513771782279554,-0.0001626659456241009,0.999176187167941,-0.040399101848396686,0.0,0.0,0.0,0.0,0.0,0.0,0.0,0.0,0.0,-0.00024904107470385744,-0.000106912944809982,0.035888430863507674,0.0,0.0,0.0,0.0,0.0,0.0,0.0,0.0,0.0,0.00011905509407673817,0.008069195488075245,-0.00015942814796986155,0.0,0.0,0.0,0.0,0.0,0.0,0.0,0.0,0.0
10.639,304,10,639000000,base_footprint,-0.0038540767376394583,-0.00016493150216987697,0.9991512835920269,-0.04101013760651282,0.0,0.0,0.0,0.0,0.0,0.0,0.0,0.0,0.0,0.0003277699800533071,-0.0016182044259046271,0.038969764984905564,0.0,0.0,0.0,0.0,0.0,0.0,0.0,0.0,0.0,-0.047178952677548014,0.0010242422843240563,0.002869269509567085,0.0,0.0,0.0,0.0,0.0,0.0,0.0,0.0,0.0
10.673,305,10,673000000,base_footprint,-0.003849674253003396,-0.00017092448362067671,0.9991068896806905,-0.04207818657622333,0.0,0.0,0.0,0.0,0.0,0.0,0.0,0.0,0.0,-0.0015290976728826325,0.003859210947420873,0.07170975963165978,0.0,0.0,0.0,0.0,0.0,0.0,0.0,0.0,0.0,-0.41098288676987493,-0.05753559429860959,-0.011254663859364538,0.0,0.0,0.0,0.0,0.0,0.0,0.0,0.0,0.0
10.707,306,10,707000000,base_footprint,-0.003853035987016361,-0.0001723255387393162,0.9990789662495256,-0.04273574166164337,0.0,0.0,0.0,0.0,0.0,0.0,0.0,0.0,0.0,-0.0005448910217153632,0.00018498217617482626,0.029894200763670997,0.0,0.0,0.0,0.0,0.0,0.0,0.0,0.0,0.0,0.12223811291778862,0.029714195987932384,0.004850582006194941,0.0,0.0,0.0,0.0,0.0,0.0,0.0,0.0,0.0
10.741,307,10,741000000,base_footprint,-0.0038550900532833042,-0.00017535098332864126,0.999058975083657,-0.04320036848808737,0.0,0.0,0.0,0.0,0.0,0.0,0.0,0.0,0.0,-0.0003924593683865103,5.934622747737568e-05,0.025993688677933464,0.0,0.0,0.0,0.0,0.0,0.0,0.0,0.0,0.0,-0.015047357040414456,0.003168713067534924,0.0003084517821458288,0.0,0.0,0.0,0.0,0.0,0.0,0.0,0.0,0.0
10.775,308,10,775000000,base_footprint,-0.0038490095166678804,-0.00017304941443970918,0.9990323048816002,-0.04381334251798384,0.0,0.0,0.0,0.0,0.0,0.0,0.0,0.0,0.0,0.0004161821027200731,-0.001000910503360884,0.04297259161579231,0.0,0.0,0.0,0.0,0.0,0.0,0.0,0.0,0.0,-0.04630942203241738,0.0004138008640796934,0.002422666758588333,0.0,0.0,0.0,0.0,0.0,0.0,0.0,0.0,0.0
10.809,309,10,809000000,base_footprint,-0.0038492717743881513,-0.00017673555641044256,0.9990050969271315,-0.044429361743817286,0.0,0.0,0.0,0.0,0.0,0.0,0.0,0.0,0.0,-0.0008877093818025076,0.0006445012397753962,0.025297795514077716,0.0,0.0,0.0,0.0,0.0,0.0,0.0,0.0,0.0,0.048449866797703044,0.015624143892839578,-0.0036926960074288658,0.0,0.0,0.0,0.0,0.0,0.0,0.0,0.0,0.0
10.843,310,10,843000000,base_footprint,-0.003850360165222326,-0.00017996340175852402,0.9989868022107788,-0.044838725990537384,0.0,0.0,0.0,0.0,0.0,0.0,0.0,0.0,0.0,-0.0006038159859726814,-0.00026938047993533025,0.017408507845920056,0.0,0.0,0.0,0.0,0.0,0.0,0.0,0.0,0.0,-7.1097449605244094e-06,0.00521181204932413,0.0017021502796269357,0.0,0.0,0.0,0.0,0.0,0.0,0.0,0.0,0.0
10.877,311,10,877000000,base_footprint,-0.0038498499353249766,-0.00018105502950636914,0.9989728231849372,-0.04514913523499695,0.0,0.0,0.0,0.0,0.0,0.0,0.0,0.0,0.0,-0.0001417168634683862,-0.00015051907295074421,0.01830235969865844,0.0,0.0,0.0,0.0,0.0,0.0,0.0,0.0,0.0,-0.0005483400743768519,0.003721580256664363,0.0002886335353017306,0.0,0.0,0.0,0.0,0.0,0.0,0.0,0.0,0.0
10.911,312,10,911000000,base_footprint,-0.003849214507350552,-0.00018212244181290226,0.9989587686282317,-0.04545909105843889,0.0,0.0,0.0,0.0,0.0,0.0,0.0,0.0,0.0,-0.000167299605539958,-0.00015395264680271366,0.018222290385986512,0.0,0.0,0.0,0.0,0.0,0.0,0.0,0.0,0.0,0.00040395481723295035,0.003916100465465599,9.374443832524264e-05,0.0,0.0,0.0,0.0,0.0,0.0,0.0,0.0,0.0
10.945,313,10,945000000,base_footprint,-0.003841409764734081,-0.00018237165741651602,0.9989433213018706,-0.04579793814120807,0.0,0.0,0.0,0.0,0.0,0.0,0.0,0.0,0.0,-0.0005249024649219167,0.0018503435427273385,0.030592472766872342,0.0,0.0,0.0,0.0,0.0,0.0,0.0,0.0,0.0,0.1810992412054811,0.03770953165806869,-0.0007647687554864503,0.0,0.0,0.0,0.0,0.0,0.0,0.0,0.0,0.0
10.979,314,10,979000000,base_footprint,-0.0038487662177160826,-0.00018470016616848028,0.9989276244847667,-0.04613842136084698,0.0,0.0,0.0,0.0,0.0,0.0,0.0,0.0,0.0,2.764573980517785e-05,-0.0001968411183695351,0.010295898558706993,0.0,0.0,0.0,0.0,0.0,0.0,0.0,0.0,0.0,0.15654362349516762,0.03383732661005369,0.00362579102016564,0.0,0.0,0.0,0.0,0.0,0.0,0.0,0.0,0.0
11.013,315,11,13000000,base_footprint,-0.0038487719004490694,-0.00018533198233020048,0.9989195876879292,-0.04631209280838383,0.0,0.0,0.0,0.0,0.0,0.0,0.0,0.0,0.0,-1.7487444056768167e-05,-0.00017661528887038687,0.010196090801864864,0.0,0.0,0.0,0.0,0.0,0.0,0.0,0.0,0.0,0.0009146348215656093,0.002429157715591389,-5.1599877592736435e-05,0.0,0.0,0.0,0.0,0.0,0.0,0.0,0.0,0.0
11.047,316,11,47000000,base_footprint,-0.0038493217075161994,-0.00018583332914593934,0.9989141610217139,-0.04642894677516713,0.0,0.0,0.0,0.0,0.0,0.0,0.0,0.0,0.0,-4.10266872565087e-05,-0.0001673912081990735,-3.539949158761805e-05,0.0,0.0,0.0,0.0,0.0,0.0,0.0,0.0,0.0,0.003753453778078469,0.0023681653096105574,-0.00017767279102673769,0.0,0.0,0.0,0.0,0.0,0.0,0.0,0.0,0.0
11.081,317,11,81000000,base_footprint,-0.003849983774851569,-0.00018591275808395555,0.9989142365398587,-0.04642726676610488,0.0,0.0,0.0,0.0,0.0,0.0,0.0,0.0,0.0,3.609386534137838e-05,-9.565102311381233e-05,-0.00012509775658335156,0.0,0.0,0.0,0.0,0.0,0.0,0.0,0.0,0.0,0.0012997142903724897,0.0002118422605162311,-0.0001674535945371745,0.0,0.0,0.0,0.0,0.0,0.0,0.0,0.0,0.0
11.115,318,11,115000000,base_footprint,-0.0038510482581455194,-0.00018600108843360406,0.9989143953732224,-0.04642376058720751,0.0,0.0,0.0,0.0,0.0,0.0,0.0,0.0,0.0,3.3919389787897893e-05,-6.884327614890784e-05,-0.00029254248073064753,0.0,0.0,0.0,0.0,0.0,0.0,0.0,0.0,0.0,0.0010950499753754799,0.00015053332543792442,-0.00010343035964703349,0.0,0.0,0.0,0.0,0.0,0.0,0.0,0.0,0.0
11.149000000000001,319,11,149000000,base_footprint,-0.0038522290044529,-0.0001862729537676507,0.998914711518348,-0.04641685842772726,0.0,0.0,0.0,0.0,0.0,0.0,0.0,0.0,0.0,3.699650675154113e-05,-5.792686587047552e-05,-0.00043171976422646906,0.0,0.0,0.0,0.0,0.0,0.0,0.0,0.0,0.0,-0.00045046214583409664,-0.0002058392069686969,-9.247251868888471e-05,0.0,0.0,0.0,0.0,0.0,0.0,0.0,0.0,0.0
11.183,320,11,183000000,base_footprint,-0.0038532462570546743,-0.00018651166519005453,0.9989150211326031,-0.046410109484165386,0.0,0.0,0.0,0.0,0.0,0.0,0.0,0.0,0.0,3.1073078180976184e-05,-1.550571732600976e-05,-0.00043677368108077256,0.0,0.0,0.0,0.0,0.0,0.0,0.0,0.0,0.0,-0.002086728545579507,-0.000577748242566227,-0.00015722328151061553,0.0,0.0,0.0,0.0,0.0,0.0,0.0,0.0,0.0
11.217,321,11,217000000,base_footprint,-0.00385427876189374,-0.00018736777194334876,0.9989156999544209,-0.04639540724159059,0.0,0.0,0.0,0.0,0.0,0.0,0.0,0.0,0.0,-0.00012169611063538022,-0.00011875112633702857,-0.0022470732633098666,0.0,0.0,0.0,0.0,0.0,0.0,0.0,0.0,0.0,-0.011220432966307106,-0.0023067209866546963,5.507231504798411e-06,0.0,0.0,0.0,0.0,0.0,0.0,0.0,0.0,0.0
11.25,322,11,251000000,base_footprint,-0.0038499789205188512,-0.00019264761101204117,0.9989049371673052,-0.04662689194007953,0.0,0.0,0.0,0.0,0.0,0.0,0.0,0.0,0.0,-0.00041047379470069746,-0.0002482985066981742,0.05108750746810509,0.0,0.0,0.0,0.0,0.0,0.0,0.0,0.0,0.0,-0.014006808052978964,7.937488988548768e-05,0.0005896459892621365,0.0,0.0,0.0,0.0,0.0,0.0,0.0,0.0,0.0
11.283,323,11,285000000,base_footprint,-0.0038488114707992444,-0.00019039437549520088,0.9988430086278477,-0.047935315952993836,0.0,0.0,0.0,0.0,0.0,0.0,0.0,0.0,0.0,-0.0012631712109789281,0.0004876472766964361,0.07258418750942439,0.0,0.0,0.0,0.0,0.0,0.0,0.0,0.0,0.0,-0.001180387731724517,0.0166557746726239,-0.002119317410754895,0.0,0.0,0.0,0.0,0.0,0.0,0.0,0.0,0.0
11.319,324,11,319000000,base_footprint,-0.003850046682205742,-0.000197008349025623,0.9987824222914361,-0.0491814116298692,0.0,0.0,0.0,0.0,0.0,0.0,0.0,0.0,0.0,-0.0005746344791236829,-0.00016210685955828248,0.07389175670884505,0.0,0.0,0.0,0.0,0.0,0.0,0.0,0.0,0.0,-0.006107897006917653,0.015179710469441218,0.0016278950295178533,0.0,0.0,0.0,0.0,0.0,0.0,0.0,0.0,0.0
11.353,325,11,353000000,base_footprint,-0.003850522638684226,-0.00019880473270389342,0.9987266181451795,-0.050301850466759085,0.0,0.0,0.0,0.0,0.0,0.0,0.0,0.0,0.0,-0.0003823117533018216,-0.0008675030860008093,0.023074755034665346,0.0,0.0,0.0,0.0,0.0,0.0,0.0,0.0,0.0,-0.3106330667349769,-0.04818256625076625,-0.0015840246052535615,0.0,0.0,0.0,0.0,0.0,0.0,0.0,0.0,0.0
11.387,326,11,387000000,base_footprint,-0.0038482485673747096,-0.00020390077695391624,0.9986874061145138,-0.0510745952083941,0.0,0.0,0.0,0.0,0.0,0.0,0.0,0.0,0.0,-0.0006722131150866601,0.0005081121637209259,0.07318558513541136,0.0,0.0,0.0,0.0,0.0,0.0,0.0,0.0,0.0,-0.025363216490581,0.004037545758602203,-0.001778596820184012,0.0,0.0,0.0,0.0,0.0,0.0,0.0,0.0,0.0
11.421,327,11,421000000,base_footprint,-0.0038475157872633376,-0.00020867585332132312,0.9986231061024439,-0.052316775846398246,0.0,0.0,0.0,0.0,0.0,0.0,0.0,0.0,0.0,-0.0005540530233233362,-0.00023177711208966387,0.07314999376292813,0.0,0.0,0.0,0.0,0.0,0.0,0.0,0.0,0.0,-0.002535467030598419,0.01495912593301933,0.001064591810232235,0.0,0.0,0.0,0.0,0.0,0.0,0.0,0.0,0.0
