Time,header.seq,header.stamp.secs,header.stamp.nsecs,header.frame_id,orientation.x,orientation.y,orientation.z,orientation.w,orientation_covariance_0,orientation_covariance_1,orientation_covariance_2,orientation_covariance_3,orientation_covariance_4,orientation_covariance_5,orientation_covariance_6,orientation_covariance_7,orientation_covariance_8,angular_velocity.x,angular_velocity.y,angular_velocity.z,angular_velocity_covariance_0,angular_velocity_covariance_1,angular_velocity_covariance_2,angular_velocity_covariance_3,angular_velocity_covariance_4,angular_velocity_covariance_5,angular_velocity_covariance_6,angular_velocity_covariance_7,angular_velocity_covariance_8,linear_acceleration.x,linear_acceleration.y,linear_acceleration.z,linear_acceleration_covariance_0,linear_acceleration_covariance_1,linear_acceleration_covariance_2,linear_acceleration_covariance_3,linear_acceleration_covariance_4,linear_acceleration_covariance_5,linear_acceleration_covariance_6,linear_acceleration_covariance_7,linear_acceleration_covariance_8
0.42900000000000005,0,0,429000000,base_footprint,-0.0006746289227613285,-0.000643142703978346,-0.7079536047942919,0.7062583271735962,0.0,0.0,0.0,0.0,0.0,0.0,0.0,0.0,0.0,0.00021974398914253665,-0.04766520328696117,4.129120348973772e-05,0.0,0.0,0.0,0.0,0.0,0.0,0.0,0.0,0.0,-0.0005752427895581814,-5.419695349250875e-05,-0.06617712925819776,0.0,0.0,0.0,0.0,0.0,0.0,0.0,0.0,0.0
0.463,1,0,463000000,base_footprint,-0.00010462595897271957,-6.358080524654824e-05,-0.7079541086955642,0.7062584264927105,0.0,0.0,0.0,0.0,0.0,0.0,0.0,0.0,0.0,0.00021475642079545748,-0.04764189956258102,4.2958761939008265e-06,0.0,0.0,0.0,0.0,0.0,0.0,0.0,0.0,0.0,0.0002024720829337683,-0.00011375847943245664,6.820724536174707e-05,0.0,0.0,0.0,0.0,0.0,0.0,0.0,0.0,0.0
0.49700000000000005,2,0,497000000,base_footprint,0.0006629183039939478,0.0007175586978423731,-0.7079541026449943,0.7062577675303533,0.0,0.0,0.0,0.0,0.0,0.0,0.0,0.0,0.0,0.0002815049234941025,-0.06780430277465109,-0.0001539869512657291,0.0,0.0,0.0,0.0,0.0,0.0,0.0,0.0,0.0,0.0011878633187757984,1.704541106612161e-05,0.002981943699754859,0.0,0.0,0.0,0.0,0.0,0.0,0.0,0.0,0.0
0.531,3,0,531000000,base_footprint,0.0014727974157085061,0.001540315570982708,-0.7079529119108665,0.7062564214310827,0.0,0.0,0.0,0.0,0.0,0.0,0.0,0.0,0.0,0.00027907317677321186,-0.06772820099274696,-0.0002898644690900261,0.0,0.0,0.0,0.0,0.0,0.0,0.0,0.0,0.0,0.00023170101218844525,-3.89396173240316e-05,0.00014987835666165674,0.0,0.0,0.0,0.0,0.0,0.0,0.0,0.0,0.0
0.5650000000000001,4,0,565000000,base_footprint,0.00228177703777044,0.0023621404123907353,-0.7079506408513996,0.7062542770874487,0.0,0.0,0.0,0.0,0.0,0.0,0.0,0.0,0.0,0.0002789080430217472,-0.06765130576795184,-0.0004391699470115011,0.0,0.0,0.0,0.0,0.0,0.0,0.0,0.0,0.0,0.0002328782642274438,-1.2056856233045451e-05,0.00015133429658541187,0.0,0.0,0.0,0.0,0.0,0.0,0.0,0.0,0.0
0.5990000000000001,5,0,599000000,base_footprint,0.0027358218605961996,0.002740476066859269,-0.7079534618483209,0.7062484696809277,0.0,0.0,0.0,0.0,0.0,0.0,0.0,0.0,0.0,0.00011908182282117583,0.034788540468048884,-0.00031502071082732566,0.0,0.0,0.0,0.0,0.0,0.0,0.0,0.0,0.0,-0.006845030124290393,-0.004659299432344631,0.13122976014716187,0.0,0.0,0.0,0.0,0.0,0.0,0.0,0.0,0.0
0.633,6,0,633000000,base_footprint,0.002728136134403305,0.0027317611855489222,-0.7079570518438651,0.7062449344941175,0.0,0.0,0.0,0.0,0.0,0.0,0.0,0.0,0.0,-3.3805774427150424e-05,-0.00026553327298397574,8.242636473862738e-05,0.0,0.0,0.0,0.0,0.0,0.0,0.0,0.0,0.0,0.006187433554805628,0.0034865206733309465,0.0003162703158804783,0.0,0.0,0.0,0.0,0.0,0.0,0.0,0.0,0.0
0.667,7,0,667000000,base_footprint,0.0027280370989962834,0.0027318497205264343,-0.7079546281002936,0.7062473641452164,0.0,0.0,0.0,0.0,0.0,0.0,0.0,0.0,0.0,-2.8852129509991382e-05,0.000194379521061661,0.0002880491825693344,0.0,0.0,0.0,0.0,0.0,0.0,0.0,0.0,0.0,4.2718152285742386e-05,-0.0003984874359699006,0.0004730202514038079,0.0,0.0,0.0,0.0,0.0,0.0,0.0,0.0,0.0
0.7010000000000001,8,0,701000000,base_footprint,0.0027279278420668665,0.002731820787443234,-0.7079511024566526,0.7062508988279477,0.0,0.0,0.0,0.0,0.0,0.0,0.0,0.0,0.0,-3.103411088830082e-05,0.00017836125764577603,0.0003303216563049491,0.0,0.0,0.0,0.0,0.0,0.0,0.0,0.0,0.0,1.2167042957833804e-05,-8.309382609626098e-05,-2.302867315350057e-05,0.0,0.0,0.0,0.0,0.0,0.0,0.0,0.0,0.0
0.7350000000000001,9,0,735000000,base_footprint,0.002727886557390071,0.0027318300526675363,-0.7079473015435032,0.7062547089944008,0.0,0.0,0.0,0.0,0.0,0.0,0.0,0.0,0.0,-3.1658299499226744e-05,0.00017655097987908386,0.00034133925354849954,0.0,0.0,0.0,0.0,0.0,0.0,0.0,0.0,0.0,3.087088658504525e-06,-2.1682688210679875e-05,-3.356557204359772e-06,0.0,0.0,0.0,0.0,0.0,0.0,0.0,0.0,0.0
0.769,10,0,769000000,base_footprint,0.002727861973355325,0.00273184639524913,-0.7079434287350064,0.7062585910948269,0.0,0.0,0.0,0.0,0.0,0.0,0.0,0.0,0.0,-3.1854352310601696e-05,0.00017603647798535428,0.00034426235547837803,0.0,0.0,0.0,0.0,0.0,0.0,0.0,0.0,0.0,8.275034611405701e-07,-5.748945492672336e-06,-9.20484232521829e-07,0.0,0.0,0.0,0.0,0.0,0.0,0.0,0.0,0.0
0.803,11,0,803000000,base_footprint,0.00272784210638836,0.0027318643982080127,-0.7079395367745507,0.7062624923254718,0.0,0.0,0.0,0.0,0.0,0.0,0.0,0.0,0.0,-3.193178777839878e-05,0.0001759001692724983,0.000345047993628662,0.0,0.0,0.0,0.0,0.0,0.0,0.0,0.0,0.0,2.2955024937733607e-07,-1.5411212894322657e-06,-2.388613178772137e-07,0.0,0.0,0.0,0.0,0.0,0.0,0.0,0.0,0.0
0.8370000000000001,12,0,837000000,base_footprint,0.002727823721195544,0.0027318826069713752,-0.7079356396094989,0.706266398723497,0.0,0.0,0.0,0.0,0.0,0.0,0.0,0.0,0.0,-3.1976016791843733e-05,0.00017586341288826655,0.0003452683739565176,0.0,0.0,0.0,0.0,0.0,0.0,0.0,0.0,0.0,7.140548082970008e-08,-4.2831424406471945e-07,-5.964080305768498e-08,0.0,0.0,0.0,0.0,0.0,0.0,0.0,0.0,0.0
0.8710000000000001,13,0,871000000,base_footprint,0.0027278059413210296,0.002731900659552155,-0.707931740927918,0.7062703065967734,0.0,0.0,0.0,0.0,0.0,0.0,0.0,0.0,0.0,-3.200973083081028e-05,0.00017585298807303043,0.00034533929299615886,0.0,0.0,0.0,0.0,0.0,0.0,0.0,0.0,0.0,2.9578265925579408e-08,-1.340347507326426e-07,-1.272351130471125e-08,0.0,0.0,0.0,0.0,0.0,0.0,0.0,0.0,0.0
0.905,14,0,905000000,base_footprint,0.002727788515117954,0.0027319184798222217,-0.70792784170505,0.7062742149689922,0.0,0.0,0.0,0.0,0.0,0.0,0.0,0.0,0.0,-3.203909227184256e-05,0.00017584953016550097,0.00034537069472953823,0.0,0.0,0.0,0.0,0.0,0.0,0.0,0.0,0.0,1.8512879449285068e-08,-5.6191502002815046e-08,-7.487549888784905e-10,0.0,0.0,0.0,0.0,0.0,0.0,0.0,0.0,0.0
0.9390000000000001,15,0,939000000,base_footprint,0.0027277713580142935,0.0027319360654376656,-0.7079239421988043,0.7062781235819618,0.0,0.0,0.0,0.0,0.0,0.0,0.0,0.0,0.0,-3.206587653677835e-05,0.00017584791835712925,0.0003453916500043047,0.0,0.0,0.0,0.0,0.0,0.0,0.0,0.0,0.0,1.5583176955096105e-08,-3.558042628486397e-08,2.0269621852106113e-09,0.0,0.0,0.0,0.0,0.0,0.0,0.0,0.0,0.0
0.9730000000000001,16,0,973000000,base_footprint,0.0027277544312893334,0.002731953431911321,-0.7079200424774105,0.7062820323673752,0.0,0.0,0.0,0.0,0.0,0.0,0.0,0.0,0.0,-3.209068547416094e-05,0.0001758467984010368,0.00034540984558436726,0.0,0.0,0.0,0.0,0.0,0.0,0.0,0.0,0.0,1.4805498580709454e-08,-3.0105352932235466e-08,2.4062350258903253e-09,0.0,0.0,0.0,0.0,0.0,0.0,0.0,0.0,0.0
1.007,17,1,7000000,base_footprint,0.0027277377098656346,0.002731970597978785,-0.7079161425589394,0.7062859413071376,0.0,0.0,0.0,0.0,0.0,0.0,0.0,0.0,0.0,-3.211379846759644e-05,0.00017584581171242234,0.00034542731368692446,0.0,0.0,0.0,0.0,0.0,0.0,0.0,0.0,0.0,1.4597318795347384e-08,-2.863465927266226e-08,2.185131079929935e-09,0.0,0.0,0.0,0.0,0.0,0.0,0.0,0.0,0.0
1.041,18,1,41000000,base_footprint,0.0027277211736510955,0.0027319875818681266,-0.7079122424481955,0.7062898503964352,0.0,0.0,0.0,0.0,0.0,0.0,0.0,0.0,0.0,-3.213539849002565e-05,0.00017584486341971756,0.00034544459157990104,0.0,0.0,0.0,0.0,0.0,0.0,0.0,0.0,0.0,1.454012980313624e-08,-2.8225108902279623e-08,1.8349894015202073e-09,0.0,0.0,0.0,0.0,0.0,0.0,0.0,0.0,0.0
1.075,19,1,75000000,base_footprint,0.0027277048051227,0.002732004400440459,-0.707908342146472,0.7062937596339682,0.0,0.0,0.0,0.0,0.0,0.0,0.0,0.0,0.0,-3.2155632717725956e-05,0.0001758439279508061,0.00034546182114559453,0.0,0.0,0.0,0.0,0.0,0.0,0.0,0.0,0.0,1.4523204034039426e-08,-2.8098045232728793e-08,1.477794341890072e-09,0.0,0.0,0.0,0.0,0.0,0.0,0.0,0.0,0.0
1.109,20,1,109000000,base_footprint,0.0027276885885704994,0.0027320210690763504,-0.7079044416541311,0.7062976690193694,0.0,0.0,0.0,0.0,0.0,0.0,0.0,0.0,0.0,-3.2174629904143555e-05,0.0001758429984324076,0.00034547903981466577,0.0,0.0,0.0,0.0,0.0,0.0,0.0,0.0,0.0,1.451723871396736e-08,-2.8047557602441694e-08,1.1432597851884899e-09,0.0,0.0,0.0,0.0,0.0,0.0,0.0,0.0,0.0
1.143,21,1,143000000,base_footprint,0.0027276725097932016,0.0027320376017504694,-0.7079005409712861,0.7063015785525206,0.0,0.0,0.0,0.0,0.0,0.0,0.0,0.0,0.0,-3.2192505474686555e-05,0.00017584207265274444,0.00034549625733295886,0.0,0.0,0.0,0.0,0.0,0.0,0.0,0.0,0.0,1.4514443907101082e-08,-2.8018882612823688e-08,8.37096777923175e-10,0.0,0.0,0.0,0.0,0.0,0.0,0.0,0.0,0.0
1.177,22,1,177000000,base_footprint,0.0027276565559213686,0.002732054011145478,-0.707896640097982,0.7063054882333714,0.0,0.0,0.0,0.0,0.0,0.0,0.0,0.0,0.0,-3.220936364445998e-05,0.00017584114997180544,0.0003455134762585856,0.0,0.0,0.0,0.0,0.0,0.0,0.0,0.0,0.0,1.4512758562717994e-08,-2.7997614444318736e-08,5.585525166233978e-10,0.0,0.0,0.0,0.0,0.0,0.0,0.0,0.0,0.0
1.211,23,1,211000000,base_footprint,0.002727640715284662,0.0027320703087671053,-0.7078927390342434,0.7063093980618924,0.0,0.0,0.0,0.0,0.0,0.0,0.0,0.0,0.0,-3.222529909284165e-05,0.00017584023005139116,0.00034553069708345463,0.0,0.0,0.0,0.0,0.0,0.0,0.0,0.0,0.0,1.4511567047306154e-08,-2.7979481063816825e-08,3.0572729715640426e-10,0.0,0.0,0.0,0.0,0.0,0.0,0.0,0.0,0.0
1.245,24,1,245000000,base_footprint,0.002727624977297493,0.0027320865050528406,-0.7078888377800877,0.706313308038061,0.0,0.0,0.0,0.0,0.0,0.0,0.0,0.0,0.0,-3.2240397552391495e-05,0.00017583931248640444,0.0003455479199610757,0.0,0.0,0.0,0.0,0.0,0.0,0.0,0.0,0.0,1.451074870500499e-08,-2.7963606533611432e-08,7.626645686932132e-11,0.0,0.0,0.0,0.0,0.0,0.0,0.0,0.0,0.0
1.278,25,1,279000000,base_footprint,0.002727609332357935,0.0027321026094705323,-0.7078849363355284,0.7063172181618583,0.0,0.0,0.0,0.0,0.0,0.0,0.0,0.0,0.0,-3.22547367715278e-05,0.00017583839706901584,0.00034556514478904907,0.0,0.0,0.0,0.0,0.0,0.0,0.0,0.0,0.0,1.4510195963270675e-08,-2.794930660781859e-08,-1.319218890589418e-10,0.0,0.0,0.0,0.0,0.0,0.0,0.0,0.0,0.0
1.313,26,1,313000000,base_footprint,0.002727593771755959,0.002732118630608555,-0.7078810347005763,0.7063211284332688,0.0,0.0,0.0,0.0,0.0,0.0,0.0,0.0,0.0,-3.226838738269813e-05,0.00017583748354820194,0.0003455823714672896,0.0,0.0,0.0,0.0,0.0,0.0,0.0,0.0,0.0,1.4509882938631619e-08,-2.7936426277020527e-08,-3.2097758247140653e-10,0.0,0.0,0.0,0.0,0.0,0.0,0.0,0.0,0.0
1.347,27,1,347000000,base_footprint,0.002727578287590744,0.0027321345762575814,-0.70787713287524,0.706325038852278,0.0,0.0,0.0,0.0,0.0,0.0,0.0,0.0,0.0,-3.2281413232806356e-05,0.000175836571848273,0.00034559959994236243,0.0,0.0,0.0,0.0,0.0,0.0,0.0,0.0,0.0,1.450979534757527e-08,-2.792489548697203e-08,-4.922107469759423e-10,0.0,0.0,0.0,0.0,0.0,0.0,0.0,0.0,0.0
1.381,28,1,381000000,base_footprint,0.002727562872695102,0.0027321504534843248,-0.7078732308595264,0.7063289494188745,0.0,0.0,0.0,0.0,0.0,0.0,0.0,0.0,0.0,-3.229387255353024e-05,0.00017583566176310232,0.0003456168301703007,0.0,0.0,0.0,0.0,0.0,0.0,0.0,0.0,0.0,1.4509915613937198e-08,-2.791461195612956e-08,-6.475664381520465e-10,0.0,0.0,0.0,0.0,0.0,0.0,0.0,0.0,0.0
1.415,29,1,415000000,base_footprint,0.0027275475205678326,0.0027321662686990247,-0.7078693286534402,0.7063328601330473,0.0,0.0,0.0,0.0,0.0,0.0,0.0,0.0,0.0,-3.230581795580691e-05,0.00017583475308038206,0.0003456340620079812,0.0,0.0,0.0,0.0,0.0,0.0,0.0,0.0,0.0,1.4510197145444933e-08,-2.7905248366114576e-08,-7.887385378883734e-10,0.0,0.0,0.0,0.0,0.0,0.0,0.0,0.0,0.0
1.449,30,1,449000000,base_footprint,0.002727532225311562,0.002732182027716707,-0.707865426256985,0.7063367709947884,0.0,0.0,0.0,0.0,0.0,0.0,0.0,0.0,0.0,-3.2317297085807095e-05,0.00017583384565418353,0.00034565129547882694,0.0,0.0,0.0,0.0,0.0,0.0,0.0,0.0,0.0,1.4510666326479072e-08,-2.7897017404526296e-08,-9.168195581095493e-10,0.0,0.0,0.0,0.0,0.0,0.0,0.0,0.0,0.0
1.483,31,1,483000000,base_footprint,0.0027275169815766686,0.002732197735811802,-0.7078615236701626,0.7063406820040904,0.0,0.0,0.0,0.0,0.0,0.0,0.0,0.0,0.0,-3.232835342873095e-05,0.00017583293939675999,0.0003456685304322868,0.0,0.0,0.0,0.0,0.0,0.0,0.0,0.0,0.0,1.4511255513187772e-08,-2.7889488149157035e-08,-1.0328476249528617e-09,0.0,0.0,0.0,0.0,0.0,0.0,0.0,0.0,0.0
1.517,32,1,517000000,base_footprint,0.0027242570788188446,0.002728666519392841,-0.7078586632437828,0.706343574808407,0.0,0.0,0.0,0.0,0.0,0.0,0.0,0.0,0.0,-3.647226400549631e-05,1.8337192740473996e-05,-0.00017398964629487348,0.0,0.0,0.0,0.0,0.0,0.0,0.0,0.0,0.0,-0.5290791423944455,0.002144906449573214,-0.00018279425182502786,0.0,0.0,0.0,0.0,0.0,0.0,0.0,0.0,0.0
1.5510000000000002,33,1,551000000,base_footprint,0.0027243920827191336,0.0027287874155476,-0.7078674033037945,0.7063348149050588,0.0,0.0,0.0,0.0,0.0,0.0,0.0,0.0,0.0,-3.63637739999044e-05,0.0003136171750829571,-0.001045124138967647,0.0,0.0,0.0,0.0,0.0,0.0,0.0,0.0,0.0,-0.7864212455850093,0.0033978196296260976,0.0003290958527619851,0.0,0.0,0.0,0.0,0.0,0.0,0.0,0.0,0.0
1.585,34,1,585000000,base_footprint,0.002724857232357202,0.002729193972995884,-0.7078871631323875,0.7063150082829203,0.0,0.0,0.0,0.0,0.0,0.0,0.0,0.0,0.0,-3.5549072805869794e-05,0.000323255040492342,-0.0020322365196857608,0.0,0.0,0.0,0.0,0.0,0.0,0.0,0.0,0.0,-0.7860980208994268,0.0036645016457639845,2.061190634522394e-05,0.0,0.0,0.0,0.0,0.0,0.0,0.0,0.0,0.0
1.619,35,1,619000000,base_footprint,0.002725665122820934,0.002729885383164213,-0.7079192320889005,0.7062828606968278,0.0,0.0,0.0,0.0,0.0,0.0,0.0,0.0,0.0,-3.425594835082584e-05,0.0003170547517901677,-0.0031088468188874272,0.0,0.0,0.0,0.0,0.0,0.0,0.0,0.0,0.0,-0.7773948769886847,0.0038895157145448778,4.441572636370173e-06,0.0,0.0,0.0,0.0,0.0,0.0,0.0,0.0,0.0
1.653,36,1,653000000,base_footprint,0.002726770190068594,0.0027307969885007944,-0.707965236474637,0.7062367389307564,0.0,0.0,0.0,0.0,0.0,0.0,0.0,0.0,0.0,-3.362121429419858e-05,0.0002868341811238283,-0.004349350195494168,0.0,0.0,0.0,0.0,0.0,0.0,0.0,0.0,0.0,-0.74979688008575,0.004241515866654888,-1.947680280395053e-05,0.0,0.0,0.0,0.0,0.0,0.0,0.0,0.0,0.0
1.687,37,1,687000000,base_footprint,0.0027282994182031943,0.002732028267401923,-0.7080273716284186,0.7061744355531318,0.0,0.0,0.0,0.0,0.0,0.0,0.0,0.0,0.0,-3.3432799005892564e-05,0.0002359525801903559,-0.005789729521113683,0.0,0.0,0.0,0.0,0.0,0.0,0.0,0.0,0.0,-0.6895250966335658,0.004603679281154904,-3.7625161059217944e-05,0.0,0.0,0.0,0.0,0.0,0.0,0.0,0.0,0.0
1.721,38,1,721000000,base_footprint,0.0027302272701872285,0.0027334974475526214,-0.7081072627583667,0.7060943125954288,0.0,0.0,0.0,0.0,0.0,0.0,0.0,0.0,0.0,-3.4519243678409766e-05,0.00018819396610356617,-0.007341662709989003,0.0,0.0,0.0,0.0,0.0,0.0,0.0,0.0,0.0,-0.5854951844105806,0.004680363189491554,-2.2485884502855763e-05,0.0,0.0,0.0,0.0,0.0,0.0,0.0,0.0,0.0
1.755,39,1,755000000,base_footprint,0.002732303868461403,0.00273492080504113,-0.7082049352260812,0.7059963345833907,0.0,0.0,0.0,0.0,0.0,0.0,0.0,0.0,0.0,-3.62021275329296e-05,0.0001305131200727662,-0.00884404996453834,0.0,0.0,0.0,0.0,0.0,0.0,0.0,0.0,0.0,-0.43615634552741667,0.004279945677771291,-3.024379732950017e-05,0.0,0.0,0.0,0.0,0.0,0.0,0.0,0.0,0.0
1.7890000000000001,40,1,789000000,base_footprint,0.0027334220756456778,0.002734940382685205,-0.7083302672611514,0.7058705837379862,0.0,0.0,0.0,0.0,0.0,0.0,0.0,0.0,0.0,-5.224149109612629e-05,0.000423679087364628,-0.012524163833221538,0.0,0.0,0.0,0.0,0.0,0.0,0.0,0.0,0.0,-0.25130479446725557,0.008018901576396273,0.0005839648782704212,0.0,0.0,0.0,0.0,0.0,0.0,0.0,0.0,0.0
1.823,41,1,823000000,base_footprint,0.002729779863626303,0.002730574863421224,-0.7085183803326707,0.7056817958496454,0.0,0.0,0.0,0.0,0.0,0.0,0.0,0.0,0.0,-0.00012897014935554194,0.0010920531788141353,-0.019241547554772878,0.0,0.0,0.0,0.0,0.0,0.0,0.0,0.0,0.0,-0.04248171366018329,0.013207956990902448,0.001334658497670288,0.0,0.0,0.0,0.0,0.0,0.0,0.0,0.0,0.0
1.8570000000000002,42,1,857000000,base_footprint,0.002722813642505195,0.0027206517713047364,-0.7086616254368305,0.705538011005103,0.0,0.0,0.0,0.0,0.0,0.0,0.0,0.0,0.0,0.00014339001392472142,-0.0005402788833589955,-0.005788177902249796,0.0,0.0,0.0,0.0,0.0,0.0,0.0,0.0,0.0,-0.03516571503653255,-0.02595166220123974,-0.003704666590544853,0.0,0.0,0.0,0.0,0.0,0.0,0.0,0.0,0.0
1.891,43,1,891000000,base_footprint,0.002725732475510645,0.002722894255524434,-0.7087963687049632,0.705402625413319,0.0,0.0,0.0,0.0,0.0,0.0,0.0,0.0,0.0,-3.537633671008468e-05,0.00026413551120566697,-0.013268238665110094,0.0,0.0,0.0,0.0,0.0,0.0,0.0,0.0,0.0,-0.21611172769941356,0.015560413791716451,0.0018922615657688607,0.0,0.0,0.0,0.0,0.0,0.0,0.0,0.0,0.0
1.925,44,1,925000000,base_footprint,0.002736715435118039,0.0027232579548435165,-0.7090018406013713,0.7051960608785379,0.0,0.0,0.0,0.0,0.0,0.0,0.0,0.0,0.0,-0.0002036360208783725,0.0004305129166897064,-0.03461318117949638,0.0,0.0,0.0,0.0,0.0,0.0,0.0,0.0,0.0,-0.34309970765033704,0.011174505485487762,9.91321474032729e-05,0.0,0.0,0.0,0.0,0.0,0.0,0.0,0.0,0.0
1.959,45,1,959000000,base_footprint,0.0027417833904369755,0.0027290768716884276,-0.7101186281256393,0.7040714230475688,0.0,0.0,0.0,0.0,0.0,0.0,0.0,0.0,0.0,0.0005455544716498419,-0.00038235876996740094,-0.13570985530061272,0.0,0.0,0.0,0.0,0.0,0.0,0.0,0.0,0.0,-0.26792287588633723,0.017545688721002012,-0.002661668973723213,0.0,0.0,0.0,0.0,0.0,0.0,0.0,0.0,0.0
1.993,46,1,993000000,base_footprint,0.002745165033381079,0.0027191199122916926,-0.7118809555133354,0.7022895240805339,0.0,0.0,0.0,0.0,0.0,0.0,0.0,0.0,0.0,-4.92404577376215e-05,0.0015161033007718497,-0.14827641930492427,0.0,0.0,0.0,0.0,0.0,0.0,0.0,0.0,0.0,-0.0039085575669792,0.035346574586606505,0.0034944451299448245,0.0,0.0,0.0,0.0,0.0,0.0,0.0,0.0,0.0
2.027,47,2,27000000,base_footprint,0.0027506528450128723,0.0027105451624741205,-0.7136521273930448,0.700489634413836,0.0,0.0,0.0,0.0,0.0,0.0,0.0,0.0,0.0,-2.408518552007822e-05,0.0014074838392389838,-0.14884642654489705,0.0,0.0,0.0,0.0,0.0,0.0,0.0,0.0,0.0,-0.004673147172221745,0.03309556464119956,5.034088819664707e-05,0.0,0.0,0.0,0.0,0.0,0.0,0.0,0.0,0.0
2.061,48,2,61000000,base_footprint,0.002757079186615299,0.0027037638030624356,-0.7154196248696295,0.6986843697457779,0.0,0.0,0.0,0.0,0.0,0.0,0.0,0.0,0.0,0.0004649216007534088,0.0008054311694336224,-0.1326034368205875,0.0,0.0,0.0,0.0,0.0,0.0,0.0,0.0,0.0,0.0011134005622577513,0.03169040842270571,0.00035722917263394184,0.0,0.0,0.0,0.0,0.0,0.0,0.0,0.0,0.0
2.095,49,2,95000000,base_footprint,0.0027605244230955893,0.0027031975432839717,-0.7160115841866888,0.6980777059457062,0.0,0.0,0.0,0.0,0.0,0.0,0.0,0.0,0.0,2.338760169826467e-05,0.00040283717442874046,-0.043816457452926665,0.0,0.0,0.0,0.0,0.0,0.0,0.0,0.0,0.0,0.017245075454829957,0.012480625024203487,-0.0004162477020633814,0.0,0.0,0.0,0.0,0.0,0.0,0.0,0.0,0.0
2.129,50,2,129000000,base_footprint,0.00276393461819255,0.0027038929739689184,-0.7165340761729114,0.6975413731896082,0.0,0.0,0.0,0.0,0.0,0.0,0.0,0.0,0.0,4.974536700377038e-05,0.0003263250633688479,-0.04423873573368134,0.0,0.0,0.0,0.0,0.0,0.0,0.0,0.0,0.0,-0.004856777090447503,0.010353526596880321,-0.00011085973315646542,0.0,0.0,0.0,0.0,0.0,0.0,0.0,0.0,0.0
2.163,51,2,163000000,base_footprint,0.0027686583581862873,0.0027058040242766324,-0.7170563372890686,0.6970044636220514,0.0,0.0,0.0,0.0,0.0,0.0,0.0,0.0,0.0,0.00024758334468027353,0.0002760861095696913,-0.03920513762455259,0.0,0.0,0.0,0.0,0.0,0.0,0.0,0.0,0.0,-0.003736780219351901,0.010346794658025328,0.00010365758672987359,0.0,0.0,0.0,0.0,0.0,0.0,0.0,0.0,0.0
2.197,52,2,197000000,base_footprint,0.002773629718544313,0.0027068741369903966,-0.7175003968344466,0.6965473137935445,0.0,0.0,0.0,0.0,0.0,0.0,0.0,0.0,0.0,1.2423282182330894e-05,0.00019048952657384476,-0.03728263235985551,0.0,0.0,0.0,0.0,0.0,0.0,0.0,0.0,0.0,0.00011605017349073429,0.008878889374552865,-0.0003494091454775464,0.0,0.0,0.0,0.0,0.0,0.0,0.0,0.0,0.0
2.231,53,2,231000000,base_footprint,0.0027771049799643933,0.0027070851372521846,-0.7179358221526352,0.6960984949330158,0.0,0.0,0.0,0.0,0.0,0.0,0.0,0.0,0.0,1.7653924768420263e-05,0.0002654642007367584,-0.03640521885227123,0.0,0.0,0.0,0.0,0.0,0.0,0.0,0.0,0.0,0.005039299156423911,0.008087388545197777,0.00019628405951141426,0.0,0.0,0.0,0.0,0.0,0.0,0.0,0.0,0.0
2.265,54,2,265000000,base_footprint,0.0027791383078909983,0.0027044447930306267,-0.7183641433961951,0.6956564668363818,0.0,0.0,0.0,0.0,0.0,0.0,0.0,0.0,0.0,-0.00012792923032121153,0.0008345169585227228,-0.03481021130018051,0.0,0.0,0.0,0.0,0.0,0.0,0.0,0.0,0.0,0.005877129616393327,0.007063644908658821,0.001228065660409697,0.0,0.0,0.0,0.0,0.0,0.0,0.0,0.0,0.0
2.298,55,2,299000000,base_footprint,0.0027779535435550774,0.0027003128210114106,-0.7187653383269783,0.6952419576697618,0.0,0.0,0.0,0.0,0.0,0.0,0.0,0.0,0.0,0.00028578524030389765,0.001108334333572986,-0.036353406829385745,0.0,0.0,0.0,0.0,0.0,0.0,0.0,0.0,0.0,0.022430792237457736,0.0040195639849706175,0.0005734947777388825,0.0,0.0,0.0,0.0,0.0,0.0,0.0,0.0,0.0
2.333,56,2,333000000,base_footprint,0.0027775429920538913,0.002700262599289619,-0.7193070063788819,0.6946815273282235,0.0,0.0,0.0,0.0,0.0,0.0,0.0,0.0,0.0,0.0003517330429901943,0.0011218209632406233,-0.05364446424045146,0.0,0.0,0.0,0.0,0.0,0.0,0.0,0.0,0.0,0.06651224607237616,0.006845849541543141,-0.0008390046046426246,0.0,0.0,0.0,0.0,0.0,0.0,0.0,0.0,0.0
2.367,57,2,367000000,base_footprint,0.0027767146483402075,0.0026949128459762715,-0.7198566535048624,0.694111969141359,0.0,0.0,0.0,0.0,0.0,0.0,0.0,0.0,0.0,-0.0008771755772143267,0.0003755053078334135,-0.03362513899635635,0.0,0.0,0.0,0.0,0.0,0.0,0.0,0.0,0.0,-0.037186002255189775,0.013968119902689218,-0.0010713239537049981,0.0,0.0,0.0,0.0,0.0,0.0,0.0,0.0,0.0
2.401,58,2,401000000,base_footprint,0.002779660946819074,0.002691251959373925,-0.7201871891698943,0.693769012859092,0.0,0.0,0.0,0.0,0.0,0.0,0.0,0.0,0.0,0.00013970951322244107,0.0003706702891069699,-0.02810075220450342,0.0,0.0,0.0,0.0,0.0,0.0,0.0,0.0,0.0,-0.018445537914093195,0.007427752033354834,0.0008258446624239609,0.0,0.0,0.0,0.0,0.0,0.0,0.0,0.0,0.0
2.435,59,2,435000000,base_footprint,0.0027796084154187543,0.0026891470437508673,-0.720522012066622,0.6934212806027088,0.0,0.0,0.0,0.0,0.0,0.0,0.0,0.0,0.0,-1.9167515036970457e-05,0.0004065861058342428,-0.028059294912062563,0.0,0.0,0.0,0.0,0.0,0.0,0.0,0.0,0.0,-0.005507188648488222,0.005297562643340965,0.000139339667925551,0.0,0.0,0.0,0.0,0.0,0.0,0.0,0.0,0.0
2.469,60,2,469000000,base_footprint,0.0027822384469201916,0.002686170191026095,-0.720871813760646,0.6930576251397613,0.0,0.0,0.0,0.0,0.0,0.0,0.0,0.0,0.0,0.0013435293702346684,0.006501748553112618,-0.04823940830869737,0.0,0.0,0.0,0.0,0.0,0.0,0.0,0.0,0.0,0.1949976947615117,-0.006403548020577937,0.00645124615187348,0.0,0.0,0.0,0.0,0.0,0.0,0.0,0.0,0.0
2.503,61,2,503000000,base_footprint,0.00278230006088525,0.002680503012619364,-0.7220229205223835,0.6918583496282302,0.0,0.0,0.0,0.0,0.0,0.0,0.0,0.0,0.0,4.648461062533327e-05,0.0009092711222979307,-0.10327049024860932,0.0,0.0,0.0,0.0,0.0,0.0,0.0,0.0,0.0,0.1167826348930368,0.007958584302578807,-0.006244193520176314,0.0,0.0,0.0,0.0,0.0,0.0,0.0,0.0,0.0
2.537,62,2,537000000,base_footprint,0.00278657493263864,0.0026754871099096294,-0.7232382275936831,0.6905878241874942,0.0,0.0,0.0,0.0,0.0,0.0,0.0,0.0,0.0,2.7396085234554068e-05,0.000983179845148413,-0.10358156632702377,0.0,0.0,0.0,0.0,0.0,0.0,0.0,0.0,0.0,-0.0033882115290281706,0.022049018085154484,0.0002559425861439434,0.0,0.0,0.0,0.0,0.0,0.0,0.0,0.0,0.0
2.571,63,2,571000000,base_footprint,0.0027915120522371524,0.002673997179626715,-0.7242014109048521,0.6895776777441156,0.0,0.0,0.0,0.0,0.0,0.0,0.0,0.0,0.0,-0.0002864843484540828,-0.00035025837072693016,-0.013715937861447758,0.0,0.0,0.0,0.0,0.0,0.0,0.0,0.0,0.0,0.02028890326907486,0.0184624822014553,-0.0007274285785065421,0.0,0.0,0.0,0.0,0.0,0.0,0.0,0.0,0.0
2.605,64,2,605000000,base_footprint,0.0027924826352232787,0.0026741229977359886,-0.7243743157561073,0.6893960413142769,0.0,0.0,0.0,0.0,0.0,0.0,0.0,0.0,0.0,4.230977449264785e-05,0.0001214577630992912,-0.01510927245456252,0.0,0.0,0.0,0.0,0.0,0.0,0.0,0.0,0.0,-0.005182473965149188,0.001664784999828064,0.0004944483320498342,0.0,0.0,0.0,0.0,0.0,0.0,0.0,0.0,0.0
2.6390000000000002,65,2,639000000,base_footprint,0.0027955948747924965,0.002677267303279254,-0.7245513963640916,0.6892099033791723,0.0,0.0,0.0,0.0,0.0,0.0,0.0,0.0,0.0,0.00013241905505372657,-1.3362057072445686e-05,-0.015089194548483162,0.0,0.0,0.0,0.0,0.0,0.0,0.0,0.0,0.0,-0.0038306028282733863,0.003814836652477126,-0.0003637960589335383,0.0,0.0,0.0,0.0,0.0,0.0,0.0,0.0,0.0
2.673,66,2,673000000,base_footprint,0.0027982394278639714,0.0026820853427766108,-0.7245180373031009,0.6892449418724675,0.0,0.0,0.0,0.0,0.0,0.0,0.0,0.0,0.0,-0.0005421228226527384,-0.001490311944466404,0.043719858611174035,0.0,0.0,0.0,0.0,0.0,0.0,0.0,0.0,0.0,0.016382651428037465,0.0010811144235288069,-0.001323386451469454,0.0,0.0,0.0,0.0,0.0,0.0,0.0,0.0,0.0
2.707,67,2,707000000,base_footprint,0.002797930866805029,0.002684330097974258,-0.7240386621978484,0.6897484915514782,0.0,0.0,0.0,0.0,0.0,0.0,0.0,0.0,0.0,1.3917038013614035e-05,-0.00037762629784738027,0.041735441883175795,0.0,0.0,0.0,0.0,0.0,0.0,0.0,0.0,0.0,-0.006813175295133629,-0.008289825681325816,0.0012944256020392822,0.0,0.0,0.0,0.0,0.0,0.0,0.0,0.0,0.0
2.741,68,2,741000000,base_footprint,0.0027974997827523735,0.0026847826292357153,-0.7235464924624919,0.6902647602061288,0.0,0.0,0.0,0.0,0.0,0.0,0.0,0.0,0.0,-0.0003921732580567262,6.418738121434237e-05,0.04131037814314942,0.0,0.0,0.0,0.0,0.0,0.0,0.0,0.0,0.0,0.0008231193908315414,-0.011211917939439767,0.0007865596584037069,0.0,0.0,0.0,0.0,0.0,0.0,0.0,0.0,0.0
2.775,69,2,775000000,base_footprint,0.002793427625061242,0.0026755038529853075,-0.7230540337525553,0.6907806473225745,0.0,0.0,0.0,0.0,0.0,0.0,0.0,0.0,0.0,-0.0007456646966603332,0.0010755337175374058,0.046784008740507026,0.0,0.0,0.0,0.0,0.0,0.0,0.0,0.0,0.0,-0.014972845206639131,-0.008542160453381107,0.0027120421312317672,0.0,0.0,0.0,0.0,0.0,0.0,0.0,0.0,0.0
2.809,70,2,809000000,base_footprint,0.0027850534113519013,0.002665681497482488,-0.7228171229510794,0.6910286132920793,0.0,0.0,0.0,0.0,0.0,0.0,0.0,0.0,0.0,-0.0022176669243142684,0.0023658575776565717,-0.02319793331005957,0.0,0.0,0.0,0.0,0.0,0.0,0.0,0.0,0.0,-0.04784282774430055,-0.0046086692562611435,-0.00043844485762423684,0.0,0.0,0.0,0.0,0.0,0.0,0.0,0.0,0.0
2.843,71,2,843000000,base_footprint,0.0027801742723507464,0.002681988090333648,-0.7235827060398858,0.6902268794323319,0.0,0.0,0.0,0.0,0.0,0.0,0.0,0.0,0.0,-0.00023685231386623884,0.001739519068053886,-0.08016700045294761,0.0,0.0,0.0,0.0,0.0,0.0,0.0,0.0,0.0,-0.12215315213664434,0.028886631779951287,-0.0014710053169207944,0.0,0.0,0.0,0.0,0.0,0.0,0.0,0.0,0.0
2.877,72,2,877000000,base_footprint,0.00278570472029916,0.0026743015076272016,-0.7242588500823888,0.6895173718174138,0.0,0.0,0.0,0.0,0.0,0.0,0.0,0.0,0.0,-0.001244604331287868,-0.0005752512536289652,-0.03130539913954693,0.0,0.0,0.0,0.0,0.0,0.0,0.0,0.0,0.0,-0.10634220342155365,0.026004502787150885,-0.002805459102073555,0.0,0.0,0.0,0.0,0.0,0.0,0.0,0.0,0.0
2.911,73,2,911000000,base_footprint,0.0027939108730661174,0.0026723778746025385,-0.7245085655859642,0.6892549534469067,0.0,0.0,0.0,0.0,0.0,0.0,0.0,0.0,0.0,5.950198727886849e-05,0.0003620624624846031,-0.020774785852503974,0.0,0.0,0.0,0.0,0.0,0.0,0.0,0.0,0.0,-0.027932933498552512,0.005500665523186878,0.0019565952099836205,0.0,0.0,0.0,0.0,0.0,0.0,0.0,0.0,0.0
2.9450000000000003,74,2,945000000,base_footprint,0.002794076542110124,0.0026704050113855477,-0.7247502585127822,0.6890008162977802,0.0,0.0,0.0,0.0,0.0,0.0,0.0,0.0,0.0,7.598727025743217e-05,0.0004187647589950468,-0.0204905417904487,0.0,0.0,0.0,0.0,0.0,0.0,0.0,0.0,0.0,-0.004659328100689276,0.004841881533184878,0.00022542259266270485,0.0,0.0,0.0,0.0,0.0,0.0,0.0,0.0,0.0
2.978,75,2,979000000,base_footprint,0.0027933276370293333,0.0026685323104078365,-0.7249908487175851,0.6887476646289091,0.0,0.0,0.0,0.0,0.0,0.0,0.0,0.0,0.0,0.00011601402294052392,0.00036694437668184795,-0.020631437631453815,0.0,0.0,0.0,0.0,0.0,0.0,0.0,0.0,0.0,-0.00495528124411998,0.005154201292863869,-1.9313258584924828e-05,0.0,0.0,0.0,0.0,0.0,0.0,0.0,0.0,0.0
3.013,76,3,13000000,base_footprint,0.0027934155598536383,0.002667731426592305,-0.725190894981983,0.6885370330445386,0.0,0.0,0.0,0.0,0.0,0.0,0.0,0.0,0.0,9.914154850363283e-05,0.0002103874264443247,-0.014019267810762558,0.0,0.0,0.0,0.0,0.0,0.0,0.0,0.0,0.0,-0.003260964242792794,0.004270694991150795,-0.0001374318865814316,0.0,0.0,0.0,0.0,0.0,0.0,0.0,0.0,0.0
3.047,77,3,47000000,base_footprint,0.0027944213392285355,0.002668032629269462,-0.7253562618565537,0.6883628158149995,0.0,0.0,0.0,0.0,0.0,0.0,0.0,0.0,0.0,0.0001116392646608898,0.00017275414062309862,-0.01424133630551407,0.0,0.0,0.0,0.0,0.0,0.0,0.0,0.0,0.0,-0.005227378977660428,0.0038055861374906813,-9.741519443829808e-05,0.0,0.0,0.0,0.0,0.0,0.0,0.0,0.0,0.0
3.08,78,3,81000000,base_footprint,0.0027959800560229415,0.0026697337256226744,-0.7254374016900925,0.6882772924094533,0.0,0.0,0.0,0.0,0.0,0.0,0.0,0.0,0.0,0.00010776354879476482,-1.9876159614236634e-05,-0.0019299823096579855,0.0,0.0,0.0,0.0,0.0,0.0,0.0,0.0,0.0,-0.0017826976498822617,0.0019857686898833954,-0.00017813162256592844,0.0,0.0,0.0,0.0,0.0,0.0,0.0,0.0,0.0
3.115,79,3,115000000,base_footprint,0.0027984940689881753,0.0026729911877885785,-0.7254604750081824,0.6882529496848948,0.0,0.0,0.0,0.0,0.0,0.0,0.0,0.0,0.0,0.00011830350863491008,-0.00012158017291620409,-0.0019536853749680208,0.0,0.0,0.0,0.0,0.0,0.0,0.0,0.0,0.0,-0.004615586939425478,0.0011938367814718072,-0.00024046373446696723,0.0,0.0,0.0,0.0,0.0,0.0,0.0,0.0,0.0
3.149,80,3,149000000,base_footprint,0.0028018094798045643,0.0026766834583072012,-0.7254812116557999,0.6882310634981069,0.0,0.0,0.0,0.0,0.0,0.0,0.0,0.0,0.0,-5.170829635616987e-06,-3.165992559237899e-05,-0.0013589114935321886,0.0,0.0,0.0,0.0,0.0,0.0,0.0,0.0,0.0,-0.00232980734133787,0.0014182419245793618,7.10616786439867e-05,0.0,0.0,0.0,0.0,0.0,0.0,0.0,0.0,0.0
3.183,81,3,183000000,base_footprint,0.0028040107831891073,0.002677936484598187,-0.7254879553972834,0.6882239408456972,0.0,0.0,0.0,0.0,0.0,0.0,0.0,0.0,0.0,-4.6365951234345965e-05,-2.4457793991867046e-05,0.00015586140374018178,0.0,0.0,0.0,0.0,0.0,0.0,0.0,0.0,0.0,0.0034887441242527715,-8.655171044244839e-05,4.0082698745090367e-05,0.0,0.0,0.0,0.0,0.0,0.0,0.0,0.0,0.0
3.217,82,3,217000000,base_footprint,0.0028070755708594366,0.0026780181288832083,-0.7253294620658068,0.6883909644998025,0.0,0.0,0.0,0.0,0.0,0.0,0.0,0.0,0.0,-0.00042440792200904666,-2.2543283173563026e-06,0.024033994639884895,0.0,0.0,0.0,0.0,0.0,0.0,0.0,0.0,0.0,0.014442683965350867,-0.004735180250830133,0.0002921801124932135,0.0,0.0,0.0,0.0,0.0,0.0,0.0,0.0,0.0
3.251,83,3,251000000,base_footprint,0.002805693816518742,0.0026752170837217575,-0.7250454258107351,0.6886901348260283,0.0,0.0,0.0,0.0,0.0,0.0,0.0,0.0,0.0,-2.7138525899385736e-05,0.0004172558395503634,0.023745514074512968,0.0,0.0,0.0,0.0,0.0,0.0,0.0,0.0,0.0,0.018344242727942727,-0.004269288476465195,0.0008560833717690581,0.0,0.0,0.0,0.0,0.0,0.0,0.0,0.0,0.0
3.285,84,3,285000000,base_footprint,0.0027987056268272054,0.002674020178028163,-0.7246364099284309,0.6891205194078442,0.0,0.0,0.0,0.0,0.0,0.0,0.0,0.0,0.0,0.0015889720581731413,0.00240306446980023,0.05720173810866225,0.0,0.0,0.0,0.0,0.0,0.0,0.0,0.0,0.0,0.16348963437156794,-0.027283917781420627,0.003057975355437937,0.0,0.0,0.0,0.0,0.0,0.0,0.0,0.0,0.0
3.319,85,3,319000000,base_footprint,0.0027941204824388183,0.0026806889345902083,-0.7242320976210722,0.6895454122629977,0.0,0.0,0.0,0.0,0.0,0.0,0.0,0.0,0.0,0.00019264932020981123,0.0009400336051371672,-0.006285508356286453,0.0,0.0,0.0,0.0,0.0,0.0,0.0,0.0,0.0,0.18783945525978551,-0.02998000462100961,-0.0035743452694159718,0.0,0.0,0.0,0.0,0.0,0.0,0.0,0.0,0.0
3.353,86,3,353000000,base_footprint,0.0027976245671267196,0.0026775769456495713,-0.724259828776497,0.6895162828382815,0.0,0.0,0.0,0.0,0.0,0.0,0.0,0.0,0.0,-2.1568198313021896e-05,0.0005588043702138278,-0.0005561156903280155,0.0,0.0,0.0,0.0,0.0,0.0,0.0,0.0,0.0,-0.01218779671921551,0.003125906744627589,0.0002097760025007568,0.0,0.0,0.0,0.0,0.0,0.0,0.0,0.0,0.0
3.387,87,3,387000000,base_footprint,0.0027954604808708423,0.0026740343126360894,-0.7242861416230455,0.6894886656022683,0.0,0.0,0.0,0.0,0.0,0.0,0.0,0.0,0.0,-0.00013049046704325182,0.0003749334933988591,-0.003037877668391094,0.0,0.0,0.0,0.0,0.0,0.0,0.0,0.0,0.0,-0.005256403870096103,0.0020721980378940437,-0.0002736930381570852,0.0,0.0,0.0,0.0,0.0,0.0,0.0,0.0,0.0
3.4210000000000003,88,3,421000000,base_footprint,0.002793896061078318,0.002671489684923678,-0.7243243061965645,0.6894485889031385,0.0,0.0,0.0,0.0,0.0,0.0,0.0,0.0,0.0,9.548401507734731e-07,0.0004168967285380473,-0.0033886877355050874,0.0,0.0,0.0,0.0,0.0,0.0,0.0,0.0,0.0,-0.004738338151238084,0.0015227155576584132,0.00017667838645266248,0.0,0.0,0.0,0.0,0.0,0.0,0.0,0.0,0.0
3.455,89,3,455000000,base_footprint,0.002792055593159402,0.0026698866354170317,-0.724365675462925,0.6894051380299246,0.0,0.0,0.0,0.0,0.0,0.0,0.0,0.0,0.0,-1.4212232154338063e-06,0.00030383339806286147,-0.0036718441126844603,0.0,0.0,0.0,0.0,0.0,0.0,0.0,0.0,0.0,-0.005217630906430506,0.0012198701663501251,-0.00018891477244094756,0.0,0.0,0.0,0.0,0.0,0.0,0.0,0.0,0.0
3.489,90,3,489000000,base_footprint,0.0027911043014384666,0.00266589658495804,-0.7247992178475146,0.6889493425062599,0.0,0.0,0.0,0.0,0.0,0.0,0.0,0.0,0.0,0.0001566371671142835,0.0012884637114841612,-0.09896343934866719,0.0,0.0,0.0,0.0,0.0,0.0,0.0,0.0,0.0,-0.5970420655088661,0.0681123145679996,0.0005423940010525498,0.0,0.0,0.0,0.0,0.0,0.0,0.0,0.0,0.0
3.523,91,3,523000000,base_footprint,0.002795221621816134,0.0026666426389929583,-0.7254117513854299,0.6883043416287915,0.0,0.0,0.0,0.0,0.0,0.0,0.0,0.0,0.0,-3.147273270454745e-05,0.0004405689583626617,-0.0017116473794570645,0.0,0.0,0.0,0.0,0.0,0.0,0.0,0.0,0.0,0.2522640184060816,-0.013127758094628697,-4.672927422534113e-05,0.0,0.0,0.0,0.0,0.0,0.0,0.0,0.0,0.0
3.557,92,3,557000000,base_footprint,0.0027965494134501857,0.002668826323105435,-0.7254366363696474,0.6882781002546335,0.0,0.0,0.0,0.0,0.0,0.0,0.0,0.0,0.0,4.65352812433142e-05,2.6168077140098756e-05,-0.0023164984337220714,0.0,0.0,0.0,0.0,0.0,0.0,0.0,0.0,0.0,-0.008377068873886687,0.000665419559460448,-0.0007561187588979596,0.0,0.0,0.0,0.0,0.0,0.0,0.0,0.0,0.0
3.59,93,3,591000000,base_footprint,0.0027987975605532037,0.002672862373872009,-0.7254645779008173,0.6882486242268374,0.0,0.0,0.0,0.0,0.0,0.0,0.0,0.0,0.0,8.976323311613345e-05,-0.00011297814274662149,-0.002429898633402863,0.0,0.0,0.0,0.0,0.0,0.0,0.0,0.0,0.0,-0.00469749277513084,0.0012257454751752937,-0.0003213899082256097,0.0,0.0,0.0,0.0,0.0,0.0,0.0,0.0,0.0
3.625,94,3,625000000,base_footprint,0.0028022130486852815,0.002675482749699918,-0.7254894348389344,0.6882223981615023,0.0,0.0,0.0,0.0,0.0,0.0,0.0,0.0,0.0,1.8838985006845252e-05,-9.382665794801957e-05,-0.0016668870497270653,0.0,0.0,0.0,0.0,0.0,0.0,0.0,0.0,0.0,-0.0023063949866109277,0.0013629622337422583,-2.8841001477467736e-05,0.0,0.0,0.0,0.0,0.0,0.0,0.0,0.0,0.0
3.659,95,3,659000000,base_footprint,0.0028044568215468283,0.002677237701566488,-0.7254995638457751,0.6882117045501446,0.0,0.0,0.0,0.0,0.0,0.0,0.0,0.0,0.0,-2.9207460202978346e-05,-2.3253475986973034e-05,-5.427976118194653e-05,0.0,0.0,0.0,0.0,0.0,0.0,0.0,0.0,0.0,0.002894478174037562,0.00026830481133467915,5.239288405229933e-05,0.0,0.0,0.0,0.0,0.0,0.0,0.0,0.0,0.0
3.693,96,3,693000000,base_footprint,0.002805716618347952,0.002675720937640344,-0.7254962986483166,0.6882151474061831,0.0,0.0,0.0,0.0,0.0,0.0,0.0,0.0,0.0,-0.0004119977895012341,0.00047399586898261894,-0.00011338893698400862,0.0,0.0,0.0,0.0,0.0,0.0,0.0,0.0,0.0,0.005039916090124119,-0.0034785853224228525,0.0009466038773276982,0.0,0.0,0.0,0.0,0.0,0.0,0.0,0.0,0.0
3.7270000000000003,97,3,727000000,base_footprint,0.002807469751945241,0.0026712327514765506,-0.7255098509172098,0.6882008710044383,0.0,0.0,0.0,0.0,0.0,0.0,0.0,0.0,0.0,-3.109671603764296e-05,0.0004201590994287362,0.0009968183064260592,0.0,0.0,0.0,0.0,0.0,0.0,0.0,0.0,0.0,0.0182700799490298,0.0018531252780020456,-8.258003583636073e-05,0.0,0.0,0.0,0.0,0.0,0.0,0.0,0.0,0.0
3.761,98,3,761000000,base_footprint,0.002799916831926904,0.002676512848772494,-0.7255505625099347,0.6881579600543919,0.0,0.0,0.0,0.0,0.0,0.0,0.0,0.0,0.0,0.0003751939151824141,-0.00031348639319316756,-0.022536098282667137,0.0,0.0,0.0,0.0,0.0,0.0,0.0,0.0,0.0,0.04489163888668364,-0.009936726873802343,-0.0017591515918656741,0.0,0.0,0.0,0.0,0.0,0.0,0.0,0.0,0.0
3.795,99,3,795000000,base_footprint,0.0027971777582422416,0.0026732915501236085,-0.7257697308116515,0.6879268326984055,0.0,0.0,0.0,0.0,0.0,0.0,0.0,0.0,0.0,0.0006671146050323505,0.0005113493155497658,-0.014741172851694977,0.0,0.0,0.0,0.0,0.0,0.0,0.0,0.0,0.0,0.02145424918118218,0.003776330395053328,0.0021331429927501275,0.0,0.0,0.0,0.0,0.0,0.0,0.0,0.0,0.0
3.829,100,3,829000000,base_footprint,0.0028045104903923397,0.0026720031132515657,-0.7257712154616401,0.6879252415252732,0.0,0.0,0.0,0.0,0.0,0.0,0.0,0.0,0.0,0.00012312980400126474,0.0007154431124525231,0.00979234649818982,0.0,0.0,0.0,0.0,0.0,0.0,0.0,0.0,0.0,-0.05520829680485563,0.007561226816063572,0.000427519962150844,0.0,0.0,0.0,0.0,0.0,0.0,0.0,0.0,0.0
3.863,101,3,863000000,base_footprint,0.0027998505398706946,0.0026684714735326137,-0.7256720972001496,0.6880298303431954,0.0,0.0,0.0,0.0,0.0,0.0,0.0,0.0,0.0,-0.00012221790973645542,0.00024027541866613157,0.008557691853558654,0.0,0.0,0.0,0.0,0.0,0.0,0.0,0.0,0.0,-0.0009239495191681897,-0.0019007236363332391,-0.0008309022997014688,0.0,0.0,0.0,0.0,0.0,0.0,0.0,0.0,0.0
3.8970000000000002,102,3,897000000,base_footprint,0.0027979525806556744,0.0026666386910584833,-0.7255735535879583,0.6881337652180642,0.0,0.0,0.0,0.0,0.0,0.0,0.0,0.0,0.0,-1.2838075859485782e-05,0.0002634572524628857,0.00827150631806232,0.0,0.0,0.0,0.0,0.0,0.0,0.0,0.0,0.0,-0.0051568154253842785,-0.0009032560853188074,0.000137039740154474,0.0,0.0,0.0,0.0,0.0,0.0,0.0,0.0,0.0
3.931,103,3,931000000,base_footprint,0.002795638810865993,0.0026657406747101634,-0.7254781210828213,0.688234388897005,0.0,0.0,0.0,0.0,0.0,0.0,0.0,0.0,0.0,-6.495004265591459e-07,0.00020445745698278455,0.008037468500610665,0.0,0.0,0.0,0.0,0.0,0.0,0.0,0.0,0.0,-0.005784483425148323,-0.001178540129984913,-0.00013440762241526295,0.0,0.0,0.0,0.0,0.0,0.0,0.0,0.0,0.0
3.964,104,3,965000000,base_footprint,0.0027963626385125507,0.0026654382144760892,-0.725473694523292,0.6882390532001537,0.0,0.0,0.0,0.0,0.0,0.0,0.0,0.0,0.0,0.00020748039010041422,0.0007111668873454581,-0.0777727198968074,0.0,0.0,0.0,0.0,0.0,0.0,0.0,0.0,0.0,-0.00927826880984422,0.003907526195872679,0.00016744544215931503,0.0,0.0,0.0,0.0,0.0,0.0,0.0,0.0,0.0
3.999,105,3,999000000,base_footprint,0.002805058909383882,0.0026626830254610104,-0.7270068067947367,0.6866193593525755,0.0,0.0,0.0,0.0,0.0,0.0,0.0,0.0,0.0,-0.00021065113830210448,0.0010504631458694664,-0.09994211977603719,0.0,0.0,0.0,0.0,0.0,0.0,0.0,0.0,0.0,0.033636377521925144,0.021145723294034635,1.9006724851302137e-05,0.0,0.0,0.0,0.0,0.0,0.0,0.0,0.0,0.0
4.033,106,4,33000000,base_footprint,0.002802985220935806,0.0026622251781520424,-0.7271968443232361,0.6864180981277224,0.0,0.0,0.0,0.0,0.0,0.0,0.0,0.0,0.0,-4.44144041108644e-05,-0.00014631617611471527,0.014251185260667699,0.0,0.0,0.0,0.0,0.0,0.0,0.0,0.0,0.0,0.3046302144135594,-0.029877561565736566,-0.0005114840790782635,0.0,0.0,0.0,0.0,0.0,0.0,0.0,0.0,0.0
4.067,107,4,67000000,base_footprint,0.00280453054579066,0.0026670509752888187,-0.7270194399436258,0.6866059680716223,0.0,0.0,0.0,0.0,0.0,0.0,0.0,0.0,0.0,-0.0001127682883698897,-0.0002443202637106029,0.02064242146391329,0.0,0.0,0.0,0.0,0.0,0.0,0.0,0.0,0.0,-0.0046856718213052736,-0.0026967649683536394,-0.0002936397292916043,0.0,0.0,0.0,0.0,0.0,0.0,0.0,0.0,0.0
4.101,108,4,101000000,base_footprint,0.002806258628065035,0.002670552139231862,-0.7267811579408723,0.6868581669645555,0.0,0.0,0.0,0.0,0.0,0.0,0.0,0.0,0.0,6.345753508478109e-05,-0.0003093706879554628,0.02068068255869992,0.0,0.0,0.0,0.0,0.0,0.0,0.0,0.0,0.0,-0.0037328557016957906,-0.0028162819833527685,-0.00041935348585613925,0.0,0.0,0.0,0.0,0.0,0.0,0.0,0.0,0.0
4.135,109,4,135000000,base_footprint,0.002807206644624363,0.0026740558327686507,-0.7265296473356249,0.6871241813228742,0.0,0.0,0.0,0.0,0.0,0.0,0.0,0.0,0.0,-5.014324670134185e-05,-0.00018040100442655597,0.022358040715477624,0.0,0.0,0.0,0.0,0.0,0.0,0.0,0.0,0.0,0.00013492530811964952,-0.0035000428160477507,0.00022750568336691522,0.0,0.0,0.0,0.0,0.0,0.0,0.0,0.0,0.0
4.169,110,4,169000000,base_footprint,0.0028022744558490807,0.002667405449406345,-0.7262475118308256,0.6874224201795993,0.0,0.0,0.0,0.0,0.0,0.0,0.0,0.0,0.0,3.168976862429019e-05,0.004164088324736605,0.0332486722798868,0.0,0.0,0.0,0.0,0.0,0.0,0.0,0.0,0.0,-0.05659277272346033,-0.004434194850412545,0.007258056169333215,0.0,0.0,0.0,0.0,0.0,0.0,0.0,0.0,0.0
4.203,111,4,203000000,base_footprint,0.002801657266312402,0.0026655296492396714,-0.7256045976744444,0.6881010198379005,0.0,0.0,0.0,0.0,0.0,0.0,0.0,0.0,0.0,0.0003315111497020057,-0.0003665658643685775,0.07066549553467033,0.0,0.0,0.0,0.0,0.0,0.0,0.0,0.0,0.0,-0.08615943708312254,0.002841152607647446,-0.0055710340199153965,0.0,0.0,0.0,0.0,0.0,0.0,0.0,0.0,0.0
4.237,112,4,237000000,base_footprint,0.0027942751881052455,0.0026677539858482417,-0.7250479040928918,0.6886876010829215,0.0,0.0,0.0,0.0,0.0,0.0,0.0,0.0,0.0,0.0006789379844711046,-0.0009397427781959976,0.005942711055422415,0.0,0.0,0.0,0.0,0.0,0.0,0.0,0.0,0.0,-0.0631295188510329,-0.013098771572442717,-0.004418127861928994,0.0,0.0,0.0,0.0,0.0,0.0,0.0,0.0,0.0
4.271,113,4,271000000,base_footprint,0.002792966464160263,0.0026750036314199476,-0.7253196288269491,0.6884013943421663,0.0,0.0,0.0,0.0,0.0,0.0,0.0,0.0,0.0,0.0011783162822672107,0.0003386216740262527,-0.022384963355807454,0.0,0.0,0.0,0.0,0.0,0.0,0.0,0.0,0.0,-0.021759819261614778,0.013904847586134033,0.005079287722632978,0.0,0.0,0.0,0.0,0.0,0.0,0.0,0.0,0.0
4.305,114,4,305000000,base_footprint,0.002799440948265393,0.0026720400770776248,-0.7253972738136989,0.6883195613055446,0.0,0.0,0.0,0.0,0.0,0.0,0.0,0.0,0.0,-0.0009765352408853322,-0.0010200032141448087,0.011575658428958004,0.0,0.0,0.0,0.0,0.0,0.0,0.0,0.0,0.0,-0.07654035417713556,0.010953818138440631,-0.00388533838777203,0.0,0.0,0.0,0.0,0.0,0.0,0.0,0.0,0.0
4.339,115,4,339000000,base_footprint,0.0027977415185459443,0.002670029099001883,-0.7252551393148947,0.6884693359070821,0.0,0.0,0.0,0.0,0.0,0.0,0.0,0.0,0.0,3.330044373936792e-05,0.0002169798580234352,0.011715421005687465,0.0,0.0,0.0,0.0,0.0,0.0,0.0,0.0,0.0,-0.005535518514183326,-0.00368118288723741,0.0021484423788166625,0.0,0.0,0.0,0.0,0.0,0.0,0.0,0.0,0.0
4.373,116,4,373000000,base_footprint,0.0027958895868739403,0.002669162021284342,-0.7250747736275103,0.68865929981707,0.0,0.0,0.0,0.0,0.0,0.0,0.0,0.0,0.0,0.00011301042207223905,0.00010636434329790612,0.022469184937469154,0.0,0.0,0.0,0.0,0.0,0.0,0.0,0.0,0.0,-0.0022325328295917627,-0.002819844656919919,-7.581616410816925e-05,0.0,0.0,0.0,0.0,0.0,0.0,0.0,0.0,0.0
4.407,117,4,407000000,base_footprint,0.0027928956651084554,0.0026692751905061556,-0.7248150815146917,0.6889326326373372,0.0,0.0,0.0,0.0,0.0,0.0,0.0,0.0,0.0,9.784677549185015e-05,5.01944649402378e-05,0.02212832557787231,0.0,0.0,0.0,0.0,0.0,0.0,0.0,0.0,0.0,-0.0059644660590093285,-0.004072611274395515,-5.52764153823579e-06,0.0,0.0,0.0,0.0,0.0,0.0,0.0,0.0,0.0
4.441,118,4,441000000,base_footprint,0.0027910557995444786,0.0026702236571931955,-0.7245568280313374,0.6892042388626984,0.0,0.0,0.0,0.0,0.0,0.0,0.0,0.0,0.0,4.793933671382928e-05,-1.3154928767569691e-07,0.021966435341501424,0.0,0.0,0.0,0.0,0.0,0.0,0.0,0.0,0.0,-0.006043307010246455,-0.004193344918868435,-9.271968083133181e-05,0.0,0.0,0.0,0.0,0.0,0.0,0.0,0.0,0.0
4.475,119,4,475000000,base_footprint,0.002790453386261737,0.002671780786939082,-0.7243487172003215,0.6894229549758076,0.0,0.0,0.0,0.0,0.0,0.0,0.0,0.0,0.0,9.300880470569597e-05,-0.00017623808970631904,0.01176080907140878,0.0,0.0,0.0,0.0,0.0,0.0,0.0,0.0,0.0,-0.008704988993629753,-0.003322048666672471,-0.000470014434472348,0.0,0.0,0.0,0.0,0.0,0.0,0.0,0.0,0.0
4.509,120,4,509000000,base_footprint,0.0027910475378943186,0.0026741006370387824,-0.7242098873367115,0.6895687770796848,0.0,0.0,0.0,0.0,0.0,0.0,0.0,0.0,0.0,0.00010718046377739088,-7.237291300858653e-05,0.011772371403485275,0.0,0.0,0.0,0.0,0.0,0.0,0.0,0.0,0.0,-0.005340886956006057,-0.0011483879368494342,4.213731507242385e-05,0.0,0.0,0.0,0.0,0.0,0.0,0.0,0.0,0.0
4.543,121,4,543000000,base_footprint,0.0027924275289592133,0.002677401349933756,-0.7240713153668045,0.6897142626722262,0.0,0.0,0.0,0.0,0.0,0.0,0.0,0.0,0.0,0.00010615386120177992,-0.00018091491488380498,0.01189901883158185,0.0,0.0,0.0,0.0,0.0,0.0,0.0,0.0,0.0,-0.004942780632481153,-0.0018358649405148025,-0.0002499309678670077,0.0,0.0,0.0,0.0,0.0,0.0,0.0,0.0,0.0
4.577,122,4,577000000,base_footprint,0.0027941821310086853,0.0026818215795871548,-0.7238950162242648,0.6898992722600202,0.0,0.0,0.0,0.0,0.0,0.0,0.0,0.0,0.0,6.628207025113081e-05,-0.0002446504641189505,0.018773527901055735,0.0,0.0,0.0,0.0,0.0,0.0,0.0,0.0,0.0,-0.0018092812700530058,-0.0020259653615209714,-0.00011532998387415498,0.0,0.0,0.0,0.0,0.0,0.0,0.0,0.0,0.0
4.611,123,4,611000000,base_footprint,0.002795777726083677,0.0026862172289333066,-0.7236668942504784,0.690138532491682,0.0,0.0,0.0,0.0,0.0,0.0,0.0,0.0,0.0,-5.8154786957558905e-05,-0.00018425289021606822,0.02007266185050781,0.0,0.0,0.0,0.0,0.0,0.0,0.0,0.0,0.0,0.0008662960970542083,-0.00417838598842016,5.213877545387578e-05,0.0,0.0,0.0,0.0,0.0,0.0,0.0,0.0,0.0
4.645,124,4,645000000,base_footprint,0.0027973501167299656,0.0026834044739233376,-0.7234350380349192,0.690381575591476,0.0,0.0,0.0,0.0,0.0,0.0,0.0,0.0,0.0,-0.0005336802033486918,0.00018790298933887178,0.01785253214178154,0.0,0.0,0.0,0.0,0.0,0.0,0.0,0.0,0.0,0.0016446516094950972,-0.009892702500604776,0.0006655671573361953,0.0,0.0,0.0,0.0,0.0,0.0,0.0,0.0,0.0
4.679,125,4,679000000,base_footprint,0.002799149969824876,0.0026797767037656617,-0.723257957448211,0.6905670934414022,0.0,0.0,0.0,0.0,0.0,0.0,0.0,0.0,0.0,-4.680095974220723e-05,0.0003765562992133856,0.01366863346257535,0.0,0.0,0.0,0.0,0.0,0.0,0.0,0.0,0.0,0.027467126251480265,-0.00099504544653241,0.00023105332576647613,0.0,0.0,0.0,0.0,0.0,0.0,0.0,0.0,0.0
4.713,126,4,713000000,base_footprint,0.002791531655513081,0.002686118466250537,-0.7231999502399967,0.6906278477526575,0.0,0.0,0.0,0.0,0.0,0.0,0.0,0.0,0.0,-0.0002437181285168582,-7.038294655579504e-05,-0.015680283939299752,0.0,0.0,0.0,0.0,0.0,0.0,0.0,0.0,0.0,0.048707950644659936,-0.010183048117598053,-0.001277126676395185,0.0,0.0,0.0,0.0,0.0,0.0,0.0,0.0,0.0
4.747,127,4,747000000,base_footprint,0.0027872145391419673,0.0026829320483033907,-0.7233540531345509,0.6904664706736702,0.0,0.0,0.0,0.0,0.0,0.0,0.0,0.0,0.0,0.00018125273430116509,0.0004260967767450822,-0.007503213871265486,0.0,0.0,0.0,0.0,0.0,0.0,0.0,0.0,0.0,-0.0003455157660750914,0.003450281201149372,0.0006640988358294694,0.0,0.0,0.0,0.0,0.0,0.0,0.0,0.0,0.0
4.78,128,4,781000000,base_footprint,0.002790789691674118,0.002676103140727615,-0.7240427005582041,0.6897443133025889,0.0,0.0,0.0,0.0,0.0,0.0,0.0,0.0,0.0,0.0005682271746184511,-0.002723290101174585,-0.15293567070846606,0.0,0.0,0.0,0.0,0.0,0.0,0.0,0.0,0.0,-0.08591185180853587,0.018882580876091855,-0.006636531285726024,0.0,0.0,0.0,0.0,0.0,0.0,0.0,0.0,0.0
4.815,129,4,815000000,base_footprint,0.002801537818086057,0.0026714749014783803,-0.7252521896523914,0.6884724221144348,0.0,0.0,0.0,0.0,0.0,0.0,0.0,0.0,0.0,5.5112321529202104e-05,0.00028729412571421226,-0.015073040335496331,0.0,0.0,0.0,0.0,0.0,0.0,0.0,0.0,0.0,0.3076530868851464,-0.005089323981956939,0.007067698325494696,0.0,0.0,0.0,0.0,0.0,0.0,0.0,0.0,0.0
4.849,130,4,849000000,base_footprint,0.0027965936470365103,0.002668114039406092,-0.7251433396347431,0.6885871021263889,0.0,0.0,0.0,0.0,0.0,0.0,0.0,0.0,0.0,-2.2276182014953038e-05,0.00015118659783618224,0.010402035352593809,0.0,0.0,0.0,0.0,0.0,0.0,0.0,0.0,0.0,0.06815510718679807,-0.008928366534566624,0.00020482978814811636,0.0,0.0,0.0,0.0,0.0,0.0,0.0,0.0,0.0
4.883,131,4,883000000,base_footprint,0.0027939736291284845,0.0026675596531853525,-0.724965205370571,0.6887746575178723,0.0,0.0,0.0,0.0,0.0,0.0,0.0,0.0,0.0,-7.78537238813001e-06,0.00010105295022718278,0.017747463656102615,0.0,0.0,0.0,0.0,0.0,0.0,0.0,0.0,0.0,-0.0035738625108610875,-0.0026892770067813597,-5.6151912250674616e-05,0.0,0.0,0.0,0.0,0.0,0.0,0.0,0.0,0.0
4.917,132,4,917000000,base_footprint,0.002792392585987993,0.002668275559595465,-0.7247589576751433,0.6889916807326659,0.0,0.0,0.0,0.0,0.0,0.0,0.0,0.0,0.0,-2.860553837216468e-06,5.609611396645693e-05,0.0174749160136696,0.0,0.0,0.0,0.0,0.0,0.0,0.0,0.0,0.0,-0.005706996610600004,-0.0030216458498166284,-0.00014070123325212654,0.0,0.0,0.0,0.0,0.0,0.0,0.0,0.0,0.0
4.9510000000000005,133,4,951000000,base_footprint,0.0027917649809257733,0.0026700687946193675,-0.7245557157517304,0.6892054059222265,0.0,0.0,0.0,0.0,0.0,0.0,0.0,0.0,0.0,8.500604274181728e-06,-1.7024690682041154e-05,0.01720767879590957,0.0,0.0,0.0,0.0,0.0,0.0,0.0,0.0,0.0,-0.005657752667852314,-0.002972233477007918,-0.00018304229599965012,0.0,0.0,0.0,0.0,0.0,0.0,0.0,0.0,0.0
4.985,134,4,985000000,base_footprint,0.0027898861239662493,0.0026692734304974717,-0.7245681104809494,0.6891923859045712,0.0,0.0,0.0,0.0,0.0,0.0,0.0,0.0,0.0,9.181275965350458e-06,0.0004902210997085504,-0.05167528586221157,0.0,0.0,0.0,0.0,0.0,0.0,0.0,0.0,0.0,-0.49597569457523283,0.0496470886330197,0.0001530477227124434,0.0,0.0,0.0,0.0,0.0,0.0,0.0,0.0,0.0
5.019,135,5,19000000,base_footprint,0.0027989512287904497,0.002673899646459778,-0.7250292415550211,0.6887072055836576,0.0,0.0,0.0,0.0,0.0,0.0,0.0,0.0,0.0,0.0013408039844044002,-0.0032676947173755754,0.023732886042743685,0.0,0.0,0.0,0.0,0.0,0.0,0.0,0.0,0.0,0.149672463894136,-0.0032504926894324077,-0.0054190402035731045,0.0,0.0,0.0,0.0,0.0,0.0,0.0,0.0,0.0
5.053,136,5,53000000,base_footprint,0.0027988721336391085,0.0026791247573222507,-0.7247553538095568,0.6889954032718204,0.0,0.0,0.0,0.0,0.0,0.0,0.0,0.0,0.0,5.217367824042948e-05,-0.000299054475643332,0.023460941448917007,0.0,0.0,0.0,0.0,0.0,0.0,0.0,0.0,0.0,-0.004643708149195586,-0.005903424751433162,0.004764668758592267,0.0,0.0,0.0,0.0,0.0,0.0,0.0,0.0,0.0
5.087,137,5,87000000,base_footprint,0.0027998715116821743,0.002682156769928995,-0.7245054015426541,0.6892582171364352,0.0,0.0,0.0,0.0,0.0,0.0,0.0,0.0,0.0,-4.871052270189039e-05,-0.00017433436036515439,0.021443211082779228,0.0,0.0,0.0,0.0,0.0,0.0,0.0,0.0,0.0,0.00020117608454251054,-0.0038275498098978046,0.00011913042727798194,0.0,0.0,0.0,0.0,0.0,0.0,0.0,0.0,0.0
5.121,138,5,121000000,base_footprint,0.0028005100622123685,0.002680765249825435,-0.7242529955441513,0.6895234362125703,0.0,0.0,0.0,0.0,0.0,0.0,0.0,0.0,0.0,-0.0004812159351495149,0.0002462814926693206,0.020603587692580014,0.0,0.0,0.0,0.0,0.0,0.0,0.0,0.0,0.0,0.0026635186946913363,-0.009170429773305035,0.0007828051469785513,0.0,0.0,0.0,0.0,0.0,0.0,0.0,0.0,0.0
5.155,139,5,155000000,base_footprint,0.0028017110601102793,0.0026768657384169336,-0.7240249380286407,0.6897629113815684,0.0,0.0,0.0,0.0,0.0,0.0,0.0,0.0,0.0,-9.256027327789673e-05,0.0002850207748768474,0.022049807137012198,0.0,0.0,0.0,0.0,0.0,0.0,0.0,0.0,0.0,0.018892373930232863,-0.0024981332161239603,6.877560480884445e-05,0.0,0.0,0.0,0.0,0.0,0.0,0.0,0.0,0.0
5.189,140,5,189000000,base_footprint,0.002792181285611491,0.002683422272441365,-0.723762340046815,0.6900384613183057,0.0,0.0,0.0,0.0,0.0,0.0,0.0,0.0,0.0,0.0001341549755795573,-0.0007892096376075396,0.004630513569597284,0.0,0.0,0.0,0.0,0.0,0.0,0.0,0.0,0.0,0.05873140536008578,-0.014556243739833791,-0.002321850303035512,0.0,0.0,0.0,0.0,0.0,0.0,0.0,0.0,0.0
5.223,141,5,223000000,base_footprint,0.002788170562291474,0.0026814795727646,-0.7237324948060617,0.6900697875823939,0.0,0.0,0.0,0.0,0.0,0.0,0.0,0.0,0.0,0.0004885234948711123,0.0002903701396334662,0.006827054476915395,0.0,0.0,0.0,0.0,0.0,0.0,0.0,0.0,0.0,0.00588456611687198,-0.001541370104405191,0.0021586888951671043,0.0,0.0,0.0,0.0,0.0,0.0,0.0,0.0,0.0
5.257,142,5,257000000,base_footprint,0.0027949018023042363,0.002681147456930452,-0.7234758845527688,0.6903387896118968,0.0,0.0,0.0,0.0,0.0,0.0,0.0,0.0,0.0,0.00016297953568978994,0.0007550197272440211,0.029716161949044223,0.0,0.0,0.0,0.0,0.0,0.0,0.0,0.0,0.0,-0.0496402838212145,0.0012501910928464054,0.0010300716333892057,0.0,0.0,0.0,0.0,0.0,0.0,0.0,0.0,0.0
5.291,143,5,291000000,base_footprint,0.0027902558996224913,0.0026783874230437645,-0.7231932030847338,0.6906349482359475,0.0,0.0,0.0,0.0,0.0,0.0,0.0,0.0,0.0,-0.00013844382791462805,0.0001329774359106037,0.02329880120053003,0.0,0.0,0.0,0.0,0.0,0.0,0.0,0.0,0.0,-0.004780852483242551,-0.004446269832061731,-0.0011003129897621815,0.0,0.0,0.0,0.0,0.0,0.0,0.0,0.0,0.0
5.325,144,5,325000000,base_footprint,0.00278761123339168,0.0026772719101937066,-0.7229219691089501,0.6909188722407056,0.0,0.0,0.0,0.0,0.0,0.0,0.0,0.0,0.0,-1.2981431029111535e-05,0.0001799952534956666,0.022959182475420205,0.0,0.0,0.0,0.0,0.0,0.0,0.0,0.0,0.0,-0.005532379673361093,-0.004126981291524245,0.00013574880088164194,0.0,0.0,0.0,0.0,0.0,0.0,0.0,0.0,0.0
5.359,145,5,359000000,base_footprint,0.0027846655916854545,0.002677023394948338,-0.7226535708852989,0.6911996062426625,0.0,0.0,0.0,0.0,0.0,0.0,0.0,0.0,0.0,-1.1895633160546014e-05,9.039100327367659e-05,0.022729784039312962,0.0,0.0,0.0,0.0,0.0,0.0,0.0,0.0,0.0,-0.006046502951751703,-0.004516450910555631,-0.00020698418998886948,0.0,0.0,0.0,0.0,0.0,0.0,0.0,0.0,0.0
5.393,146,5,393000000,base_footprint,0.0027826337056958347,0.00267831182814262,-0.7223054076454462,0.6915634328690009,0.0,0.0,0.0,0.0,0.0,0.0,0.0,0.0,0.0,-1.1329172043180987e-05,-5.5780477592921304e-05,0.02988912153125592,0.0,0.0,0.0,0.0,0.0,0.0,0.0,0.0,0.0,-0.004250034924739434,-0.006030241754568509,-0.0002224626633072696,0.0,0.0,0.0,0.0,0.0,0.0,0.0,0.0,0.0
5.427,147,5,427000000,base_footprint,0.002781632165292607,0.0026808265065675864,-0.7219553999664136,0.6919288085858795,0.0,0.0,0.0,0.0,0.0,0.0,0.0,0.0,0.0,1.9484988164032775e-06,-0.0001298595780975212,0.02962731222601811,0.0,0.0,0.0,0.0,0.0,0.0,0.0,0.0,0.0,-0.0061495547928527555,-0.005921403756188302,-0.00021557039187620837,0.0,0.0,0.0,0.0,0.0,0.0,0.0,0.0,0.0
5.461,148,5,461000000,base_footprint,0.002781167300742479,0.0026854080804288066,-0.7216134150341428,0.6922854418046425,0.0,0.0,0.0,0.0,0.0,0.0,0.0,0.0,0.0,0.0017813351273823388,-0.0006463889296779441,0.014216166319703741,0.0,0.0,0.0,0.0,0.0,0.0,0.0,0.0,0.0,-0.004680490307252464,-0.003227049751268283,-0.0021879567107594405,0.0,0.0,0.0,0.0,0.0,0.0,0.0,0.0,0.0
5.495,149,5,495000000,base_footprint,0.0027913296511026097,0.002682005308316075,-0.723072689826351,0.6907611023744684,0.0,0.0,0.0,0.0,0.0,0.0,0.0,0.0,0.0,-0.0021396886030972113,-0.0006069785425619208,-0.1387392716977534,0.0,0.0,0.0,0.0,0.0,0.0,0.0,0.0,0.0,-0.04014243608058806,0.01956062809488137,0.002226862654699145,0.0,0.0,0.0,0.0,0.0,0.0,0.0,0.0,0.0
5.529,150,5,529000000,base_footprint,0.002795276302316526,0.002669753067514835,-0.7237421380674749,0.6900596904866075,0.0,0.0,0.0,0.0,0.0,0.0,0.0,0.0,0.0,0.0014988944475979554,-0.0019383912617694167,0.003110469836263674,0.0,0.0,0.0,0.0,0.0,0.0,0.0,0.0,0.0,0.327497651756391,-0.008390384860895828,-0.004352740677837628,0.0,0.0,0.0,0.0,0.0,0.0,0.0,0.0,0.0
5.563,151,5,563000000,base_footprint,0.002798100799731458,0.002684276444849269,-0.7235037815686124,0.6903095272034133,0.0,0.0,0.0,0.0,0.0,0.0,0.0,0.0,0.0,-0.00022402411410783765,-0.0002924343064259938,0.028808161965692136,0.0,0.0,0.0,0.0,0.0,0.0,0.0,0.0,0.0,0.040564468477226494,-0.007455562451896696,0.004170141738090258,0.0,0.0,0.0,0.0,0.0,0.0,0.0,0.0,0.0
5.597,152,5,597000000,base_footprint,0.002796035356365821,0.002686259035872883,-0.7230480427350904,0.6907868658968792,0.0,0.0,0.0,0.0,0.0,0.0,0.0,0.0,0.0,-0.0001952106377577178,-4.1785002314294475e-05,0.03732537096348913,0.0,0.0,0.0,0.0,0.0,0.0,0.0,0.0,0.0,0.008445579699469715,-0.008212448689115989,0.00025164124846387896,0.0,0.0,0.0,0.0,0.0,0.0,0.0,0.0,0.0
5.631,153,5,631000000,base_footprint,0.0027964286031819134,0.0026826485966183282,-0.7226350518448534,0.6912188981999554,0.0,0.0,0.0,0.0,0.0,0.0,0.0,0.0,0.0,-0.00015219129702238234,0.0001223133071972908,0.035171328638449115,0.0,0.0,0.0,0.0,0.0,0.0,0.0,0.0,0.0,0.012403469576661295,-0.00761200972356202,0.0002444237764829476,0.0,0.0,0.0,0.0,0.0,0.0,0.0,0.0,0.0
5.665,154,5,665000000,base_footprint,0.002784224650716536,0.002680619938111351,-0.7222245164004136,0.6916478947268115,0.0,0.0,0.0,0.0,0.0,0.0,0.0,0.0,0.0,-0.002655196292692625,0.003746571898997948,0.012413294734526407,0.0,0.0,0.0,0.0,0.0,0.0,0.0,0.0,0.0,0.042834558740192756,-0.021488568349453653,0.007713894472257328,0.0,0.0,0.0,0.0,0.0,0.0,0.0,0.0,0.0
5.699,155,5,699000000,base_footprint,0.0027789856373420024,0.00268051298455631,-0.7226451498705895,0.6912084196951599,0.0,0.0,0.0,0.0,0.0,0.0,0.0,0.0,0.0,0.0012969199049087832,-0.002162096047091337,-0.06831161429391766,0.0,0.0,0.0,0.0,0.0,0.0,0.0,0.0,0.0,-0.14526837710881108,0.024723603053794632,-0.013379042233692255,0.0,0.0,0.0,0.0,0.0,0.0,0.0,0.0,0.0
5.7330000000000005,156,5,733000000,base_footprint,0.002781137001520853,0.00267685409392977,-0.7232260179873242,0.6906006274507265,0.0,0.0,0.0,0.0,0.0,0.0,0.0,0.0,0.0,2.8000147680278735e-05,0.0005625967818536693,-0.022614267660903953,0.0,0.0,0.0,0.0,0.0,0.0,0.0,0.0,0.0,-0.11247811543820693,0.023807694530000048,0.005884301456673778,0.0,0.0,0.0,0.0,0.0,0.0,0.0,0.0,0.0
5.767,157,5,767000000,base_footprint,0.0027888271396454317,0.0026781329371407775,-0.7230855911054956,0.6907476224952007,0.0,0.0,0.0,0.0,0.0,0.0,0.0,0.0,0.0,0.00017296463647925537,0.0002909524937870148,0.03548538636996658,0.0,0.0,0.0,0.0,0.0,0.0,0.0,0.0,0.0,-0.1038857499993862,0.005375165412935,-0.00010543259748257657,0.0,0.0,0.0,0.0,0.0,0.0,0.0,0.0,0.0
5.801,158,5,801000000,base_footprint,0.002786103140004913,0.0026788641749906556,-0.7226773716515755,0.6911747086075964,0.0,0.0,0.0,0.0,0.0,0.0,0.0,0.0,0.0,6.292685684784016e-05,-3.236970268554797e-05,0.03453376237906695,0.0,0.0,0.0,0.0,0.0,0.0,0.0,0.0,0.0,-0.005887470733142936,-0.006375802740591191,-0.00020764814609208027,0.0,0.0,0.0,0.0,0.0,0.0,0.0,0.0,0.0
5.835,159,5,835000000,base_footprint,0.002782781961494566,0.0026795322964926704,-0.7222716787818638,0.6915986540334321,0.0,0.0,0.0,0.0,0.0,0.0,0.0,0.0,0.0,9.167577684186368e-05,-5.2419310811485084e-05,0.03450511268480829,0.0,0.0,0.0,0.0,0.0,0.0,0.0,0.0,0.0,-0.006061229105786329,-0.006789505561479991,-7.087727913890778e-05,0.0,0.0,0.0,0.0,0.0,0.0,0.0,0.0,0.0
5.869,160,5,869000000,base_footprint,0.002780291649135892,0.0026806322901168646,-0.7218929090566465,0.6919940115655651,0.0,0.0,0.0,0.0,0.0,0.0,0.0,0.0,0.0,-4.9327839144297e-05,-1.2632739187318814e-05,0.02448657919993555,0.0,0.0,0.0,0.0,0.0,0.0,0.0,0.0,0.0,-0.008685552303031134,-0.006796695580541215,-4.565851156655375e-05,0.0,0.0,0.0,0.0,0.0,0.0,0.0,0.0,0.0
5.9030000000000005,161,5,903000000,base_footprint,0.00277984033139433,0.002682979698184693,-0.7216017218360921,0.6922976449121133,0.0,0.0,0.0,0.0,0.0,0.0,0.0,0.0,0.0,5.663920432379465e-05,-0.00010907194785326156,0.024721955078837017,0.0,0.0,0.0,0.0,0.0,0.0,0.0,0.0,0.0,-0.005911338244802901,-0.0044465713367554975,-0.0002795078181074731,0.0,0.0,0.0,0.0,0.0,0.0,0.0,0.0,0.0
5.937,162,5,937000000,base_footprint,0.0027800171766043796,0.0026858387484677317,-0.7213108233152208,0.6926007175444113,0.0,0.0,0.0,0.0,0.0,0.0,0.0,0.0,0.0,6.231951279346055e-05,-0.0001506701869106403,0.024697891834584908,0.0,0.0,0.0,0.0,0.0,0.0,0.0,0.0,0.0,-0.005419835290326749,-0.004539119775243768,-0.00018213713742961258,0.0,0.0,0.0,0.0,0.0,0.0,0.0,0.0,0.0
5.971,163,5,971000000,base_footprint,0.0027804928238306984,0.0026882718807006464,-0.720998891360394,0.6929254221855587,0.0,0.0,0.0,0.0,0.0,0.0,0.0,0.0,0.0,-2.6852314020971867e-05,-0.00012250213481949007,0.031286795525455685,0.0,0.0,0.0,0.0,0.0,0.0,0.0,0.0,0.0,-0.004107223551499562,-0.00386434059151408,4.645419406338484e-05,0.0,0.0,0.0,0.0,0.0,0.0,0.0,0.0,0.0
6.005,164,6,5000000,base_footprint,0.002780769015327883,0.0026925922924747295,-0.7206303348562082,0.6933086886484686,0.0,0.0,0.0,0.0,0.0,0.0,0.0,0.0,0.0,9.106635253720383e-05,-0.0003627337847596314,0.031621893521482494,0.0,0.0,0.0,0.0,0.0,0.0,0.0,0.0,0.0,-0.004542395066068642,-0.006248417705843343,-0.000590339370643671,0.0,0.0,0.0,0.0,0.0,0.0,0.0,0.0,0.0
6.039,165,6,39000000,base_footprint,0.002781857785739069,0.002698310745862662,-0.7202492008070949,0.693704597882355,0.0,0.0,0.0,0.0,0.0,0.0,0.0,0.0,0.0,5.6853109555797505e-05,-0.0004410067753786805,0.03281299920848099,0.0,0.0,0.0,0.0,0.0,0.0,0.0,0.0,0.0,2.7935669328369838e-05,-0.006823762613295991,-0.000207105870075851,0.0,0.0,0.0,0.0,0.0,0.0,0.0,0.0,0.0
6.072,166,6,73000000,base_footprint,0.0027836443116968394,0.0026989520990462045,-0.7198917121443272,0.69407556488312,0.0,0.0,0.0,0.0,0.0,0.0,0.0,0.0,0.0,-0.00038852320614400854,0.00038977624319208506,0.021614804639802677,0.0,0.0,0.0,0.0,0.0,0.0,0.0,0.0,0.0,0.005251655567258992,-0.009770511214772352,0.0013460501394077064,0.0,0.0,0.0,0.0,0.0,0.0,0.0,0.0,0.0
6.107,167,6,107000000,base_footprint,0.002783362697787694,0.0026933218971470912,-0.7196645877028625,0.6943110831001619,0.0,0.0,0.0,0.0,0.0,0.0,0.0,0.0,0.0,0.00011119478424825445,0.00048295526643171423,0.020014439310657602,0.0,0.0,0.0,0.0,0.0,0.0,0.0,0.0,0.0,0.012617833502868056,-0.004396753833158454,0.000243299010858888,0.0,0.0,0.0,0.0,0.0,0.0,0.0,0.0,0.0
6.141,168,6,141000000,base_footprint,0.002778239826828225,0.0027006374968314784,-0.7194779613377361,0.6945044644132036,0.0,0.0,0.0,0.0,0.0,0.0,0.0,0.0,0.0,-0.0003829575453811932,-0.0005387162083069646,-0.0034935858949006076,0.0,0.0,0.0,0.0,0.0,0.0,0.0,0.0,0.0,0.06700822744371665,-0.007923919321771493,-0.002495554500594111,0.0,0.0,0.0,0.0,0.0,0.0,0.0,0.0,0.0
6.175,169,6,175000000,base_footprint,0.0027736384808898142,0.002698844198463134,-0.7194506213098785,0.6945328117997015,0.0,0.0,0.0,0.0,0.0,0.0,0.0,0.0,0.0,2.863321250272821e-05,-0.00018732210580961638,0.013223083470896606,0.0,0.0,0.0,0.0,0.0,0.0,0.0,0.0,0.0,-0.015170102640718712,-0.0015530450750639128,0.0013633387998599267,0.0,0.0,0.0,0.0,0.0,0.0,0.0,0.0,0.0
6.209,170,6,209000000,base_footprint,0.0027766712531880444,0.002698382850051857,-0.7191533980341487,0.6948405564751411,0.0,0.0,0.0,0.0,0.0,0.0,0.0,0.0,0.0,-0.00018288873433043094,2.5632845852533213e-05,0.027668527382372896,0.0,0.0,0.0,0.0,0.0,0.0,0.0,0.0,0.0,-0.03256818253778089,-0.00335213737179545,0.0004070625796107019,0.0,0.0,0.0,0.0,0.0,0.0,0.0,0.0,0.0
6.243,171,6,243000000,base_footprint,0.0027733640737669756,0.0026961014205332716,-0.7188279550675737,0.695177251139747,0.0,0.0,0.0,0.0,0.0,0.0,0.0,0.0,0.0,-0.00016191040699810072,0.00011470529940149177,0.02732620794094119,0.0,0.0,0.0,0.0,0.0,0.0,0.0,0.0,0.0,-0.0052658811974502584,-0.0052417761934875325,0.00011362250534630689,0.0,0.0,0.0,0.0,0.0,0.0,0.0,0.0,0.0
6.277,172,6,277000000,base_footprint,0.002766776063183567,0.0026870407023871245,-0.7192347029742739,0.6947564802144619,0.0,0.0,0.0,0.0,0.0,0.0,0.0,0.0,0.0,0.000988655699039292,0.00068294757114451,-0.16782617663275148,0.0,0.0,0.0,0.0,0.0,0.0,0.0,0.0,0.0,-0.053731681237977544,0.010651955373068473,-0.002867696939474883,0.0,0.0,0.0,0.0,0.0,0.0,0.0,0.0,0.0
6.311,173,6,311000000,base_footprint,0.0027800504990849774,0.002688268563404489,-0.7207300613881109,0.693205036870653,0.0,0.0,0.0,0.0,0.0,0.0,0.0,0.0,0.0,0.00012808636125569636,0.0003542929150245887,-0.0271064611178016,0.0,0.0,0.0,0.0,0.0,0.0,0.0,0.0,0.0,0.25709313533386985,0.009643203870004086,0.0028066935409540943,0.0,0.0,0.0,0.0,0.0,0.0,0.0,0.0,0.0
6.345,174,6,345000000,base_footprint,0.0027761359290599287,0.0026851282788272575,-0.7205636687102168,0.6933780227915382,0.0,0.0,0.0,0.0,0.0,0.0,0.0,0.0,0.0,-1.8604331653238194e-05,-5.0872876538358915e-06,0.01790601735082087,0.0,0.0,0.0,0.0,0.0,0.0,0.0,0.0,0.0,0.12009729223107853,-0.01286806399066577,-3.0143378831199374e-05,0.0,0.0,0.0,0.0,0.0,0.0,0.0,0.0,0.0
6.379,175,6,379000000,base_footprint,0.00277749505121799,0.0026808790822494114,-0.7212240851244403,0.6926910692689788,0.0,0.0,0.0,0.0,0.0,0.0,0.0,0.0,0.0,0.0003052820205486761,0.00012158033780117986,-0.16225960023175706,0.0,0.0,0.0,0.0,0.0,0.0,0.0,0.0,0.0,-0.06373856212293677,0.01351048200054929,-0.0016497666400330864,0.0,0.0,0.0,0.0,0.0,0.0,0.0,0.0,0.0
6.413,176,6,413000000,base_footprint,0.002788025771443273,0.0026774241356213356,-0.7225865059876494,0.6912697011130001,0.0,0.0,0.0,0.0,0.0,0.0,0.0,0.0,0.0,-0.00015617311847993985,0.0007472567989764149,-0.026126471015298684,0.0,0.0,0.0,0.0,0.0,0.0,0.0,0.0,0.0,0.25863595299922315,0.005772216574393085,0.0024099527564070762,0.0,0.0,0.0,0.0,0.0,0.0,0.0,0.0,0.0
6.447,177,6,447000000,base_footprint,0.002786656981480154,0.002684301136674673,-0.7223739430699387,0.6914918043215438,0.0,0.0,0.0,0.0,0.0,0.0,0.0,0.0,0.0,4.515568640349526e-05,-0.00021511517938994532,0.02444912540140194,0.0,0.0,0.0,0.0,0.0,0.0,0.0,0.0,0.0,0.13422291847862217,-0.015831141406750654,-0.001094418416515051,0.0,0.0,0.0,0.0,0.0,0.0,0.0,0.0,0.0
6.481,178,6,481000000,base_footprint,0.0027831971065486964,0.0026808419883792537,-0.722127479432468,0.6917492105876306,0.0,0.0,0.0,0.0,0.0,0.0,0.0,0.0,0.0,3.675830417488147e-05,-2.0636513625973852e-05,0.015989746860837276,0.0,0.0,0.0,0.0,0.0,0.0,0.0,0.0,0.0,-0.3565666104400761,0.0265644126554197,0.000436439416119084,0.0,0.0,0.0,0.0,0.0,0.0,0.0,0.0,0.0
6.515,179,6,515000000,base_footprint,0.002788561083120144,0.0026820583548072983,-0.7222003014787807,0.6916731562190523,0.0,0.0,0.0,0.0,0.0,0.0,0.0,0.0,0.0,0.00039142835084567194,-0.0001605062583075823,-0.0369342948563586,0.0,0.0,0.0,0.0,0.0,0.0,0.0,0.0,0.0,-0.3476962689087945,0.03027933002400654,-0.0014671853135422646,0.0,0.0,0.0,0.0,0.0,0.0,0.0,0.0,0.0
6.549,180,6,549000000,base_footprint,0.0027947595623856814,0.0026890340663169197,-0.7225948596967356,0.6912608965901612,0.0,0.0,0.0,0.0,0.0,0.0,0.0,0.0,0.0,-0.0003460843366311496,0.0007977086145670156,-0.030799159398077095,0.0,0.0,0.0,0.0,0.0,0.0,0.0,0.0,0.0,0.02110501520898662,0.005290723752738946,0.002241436394835048,0.0,0.0,0.0,0.0,0.0,0.0,0.0,0.0,0.0
6.583,181,6,583000000,base_footprint,0.002797888705605959,0.0026824732549856254,-0.7229511373402864,0.6908882899386947,0.0,0.0,0.0,0.0,0.0,0.0,0.0,0.0,0.0,-0.00014218688653273238,0.0004928850743339569,-0.027436438775579292,0.0,0.0,0.0,0.0,0.0,0.0,0.0,0.0,0.0,0.007274681590047689,0.010310311369007374,-0.0003884406330376761,0.0,0.0,0.0,0.0,0.0,0.0,0.0,0.0,0.0
6.617,182,6,617000000,base_footprint,0.0027910700665063643,0.00268526212885609,-0.7232877344717242,0.6905359168486053,0.0,0.0,0.0,0.0,0.0,0.0,0.0,0.0,0.0,0.00045834568238774806,-0.00017391702370275503,-0.04584960335567766,0.0,0.0,0.0,0.0,0.0,0.0,0.0,0.0,0.0,0.048710506163068434,-0.005684470845081894,-0.0015294777551382135,0.0,0.0,0.0,0.0,0.0,0.0,0.0,0.0,0.0
6.651,183,6,651000000,base_footprint,0.0027902820547129233,0.0026795100093454285,-0.723880945855921,0.6899140604299221,0.0,0.0,0.0,0.0,0.0,0.0,0.0,0.0,0.0,8.032647150230706e-05,0.0014073986609522329,-0.04739443485075907,0.0,0.0,0.0,0.0,0.0,0.0,0.0,0.0,0.0,0.022489170695714815,0.012530343073414224,0.0029360799431021375,0.0,0.0,0.0,0.0,0.0,0.0,0.0,0.0,0.0
6.6850000000000005,184,6,685000000,base_footprint,0.0027977525283970957,0.002675314398471048,-0.7242935232637102,0.6894808970754016,0.0,0.0,0.0,0.0,0.0,0.0,0.0,0.0,0.0,0.0004114517398595341,0.0008011979649969099,-0.026949308262056434,0.0,0.0,0.0,0.0,0.0,0.0,0.0,0.0,0.0,-0.05096263363472358,0.01331950713910094,-0.0008190902150870184,0.0,0.0,0.0,0.0,0.0,0.0,0.0,0.0,0.0
6.718,185,6,719000000,base_footprint,0.0027952627070166815,0.0026725908605552923,-0.7246361925528051,0.6891207675052791,0.0,0.0,0.0,0.0,0.0,0.0,0.0,0.0,0.0,-6.274943543932345e-06,0.0004030494896950142,-0.02954382054549366,0.0,0.0,0.0,0.0,0.0,0.0,0.0,0.0,0.0,-0.0013626708732064224,0.0058515700568940975,-0.0005481269961542332,0.0,0.0,0.0,0.0,0.0,0.0,0.0,0.0,0.0
6.753,186,6,753000000,base_footprint,0.00279576150120949,0.002669692417013102,-0.7249788824227265,0.6887602460226067,0.0,0.0,0.0,0.0,0.0,0.0,0.0,0.0,0.0,7.936214507773583e-05,0.00046713671904543837,-0.02926131792941193,0.0,0.0,0.0,0.0,0.0,0.0,0.0,0.0,0.0,-0.005183384197011046,0.007119728701258097,0.00026993179480877874,0.0,0.0,0.0,0.0,0.0,0.0,0.0,0.0,0.0
6.787,187,6,787000000,base_footprint,0.00279516599156131,0.002667302565317058,-0.725322509320627,0.6883983803125437,0.0,0.0,0.0,0.0,0.0,0.0,0.0,0.0,0.0,0.00011347657927807414,0.0004515931533727995,-0.029469952431119065,0.0,0.0,0.0,0.0,0.0,0.0,0.0,0.0,0.0,-0.004770599899394806,0.007094406872259976,3.945166577344688e-05,0.0,0.0,0.0,0.0,0.0,0.0,0.0,0.0,0.0
6.821,188,6,821000000,base_footprint,0.002795374762449946,0.0026660353908399413,-0.7256026696824011,0.6881030764972678,0.0,0.0,0.0,0.0,0.0,0.0,0.0,0.0,0.0,6.71994894390775e-05,0.00034815237740029115,-0.022390105987013298,0.0,0.0,0.0,0.0,0.0,0.0,0.0,0.0,0.0,-0.0030695081028071763,0.00574746938724357,-1.2610961714838218e-05,0.0,0.0,0.0,0.0,0.0,0.0,0.0,0.0,0.0
6.855,189,6,855000000,base_footprint,0.0027966156816078176,0.0026660040751595743,-0.7258658211291711,0.6878254728341159,0.0,0.0,0.0,0.0,0.0,0.0,0.0,0.0,0.0,9.323940223554558e-05,0.0002466757723930141,-0.022628707742763016,0.0,0.0,0.0,0.0,0.0,0.0,0.0,0.0,0.0,-0.0049477153433645435,0.005651758751582536,-0.00018080842131344628,0.0,0.0,0.0,0.0,0.0,0.0,0.0,0.0,0.0
6.889,190,6,889000000,base_footprint,0.002798880105599454,0.002667110770288568,-0.7261385357321969,0.687537547858293,0.0,0.0,0.0,0.0,0.0,0.0,0.0,0.0,0.0,0.00013312316847487827,0.00015768184052182628,-0.023543982249710462,0.0,0.0,0.0,0.0,0.0,0.0,0.0,0.0,0.0,-0.004856452851970855,0.005878879446579657,-0.0002067499711979523,0.0,0.0,0.0,0.0,0.0,0.0,0.0,0.0,0.0
6.923,191,6,923000000,base_footprint,0.0028021602346966993,0.002669422013773965,-0.7264137621160424,0.6872467302887292,0.0,0.0,0.0,0.0,0.0,0.0,0.0,0.0,0.0,0.0001419340284684481,5.020090814922646e-05,-0.023524165278866804,0.0,0.0,0.0,0.0,0.0,0.0,0.0,0.0,0.0,-0.003972074840019961,0.005899477969829727,-0.00019880316592412579,0.0,0.0,0.0,0.0,0.0,0.0,0.0,0.0,0.0
6.957,192,6,957000000,base_footprint,0.0028064780305507293,0.002671787677454535,-0.7266855618496512,0.6869592996902566,0.0,0.0,0.0,0.0,0.0,0.0,0.0,0.0,0.0,-9.0465223238232e-06,9.125097068784684e-05,-0.02271654290663286,0.0,0.0,0.0,0.0,0.0,0.0,0.0,0.0,0.0,-0.0015524174383161529,0.005906638792132501,3.51396788932869e-05,0.0,0.0,0.0,0.0,0.0,0.0,0.0,0.0,0.0
6.991,193,6,991000000,base_footprint,0.002811140700849107,0.002655233144104735,-0.7283465095741013,0.6851980802776187,0.0,0.0,0.0,0.0,0.0,0.0,0.0,0.0,0.0,0.00022811952069057127,0.0015000407817588424,-0.21003261947539364,0.0,0.0,0.0,0.0,0.0,0.0,0.0,0.0,0.0,-0.021423126923433615,0.03294318289431421,0.0004341129970200765,0.0,0.0,0.0,0.0,0.0,0.0,0.0,0.0,0.0
7.025,194,7,25000000,base_footprint,0.00282448825800921,0.0026403114717698955,-0.7302593547037033,0.6831590780258602,0.0,0.0,0.0,0.0,0.0,0.0,0.0,0.0,0.0,0.0003236334686736257,0.000843466168656951,-0.14403190663346044,0.0,0.0,0.0,0.0,0.0,0.0,0.0,0.0,0.0,0.042538094927761776,0.026722611100763308,-0.0014870676800300955,0.0,0.0,0.0,0.0,0.0,0.0,0.0,0.0,0.0
7.059,195,7,59000000,base_footprint,0.00283213518047363,0.002641756174450046,-0.7318804617484997,0.6814220350454169,0.0,0.0,0.0,0.0,0.0,0.0,0.0,0.0,0.0,-9.187976815292349e-05,0.0007864840587018509,-0.1309427904362351,0.0,0.0,0.0,0.0,0.0,0.0,0.0,0.0,0.0,0.051171019164969356,0.029314085869686896,0.0024962880234352496,0.0,0.0,0.0,0.0,0.0,0.0,0.0,0.0,0.0
7.093,196,7,93000000,base_footprint,0.0028313094195551725,0.002639277671177003,-0.7330577865628143,0.6801553495047824,0.0,0.0,0.0,0.0,0.0,0.0,0.0,0.0,0.0,-1.2233020790488827e-05,0.0006531847010032044,-0.06787541865213566,0.0,0.0,0.0,0.0,0.0,0.0,0.0,0.0,0.0,0.1755789309774202,-0.0074372010074637285,-0.00015341060437842376,0.0,0.0,0.0,0.0,0.0,0.0,0.0,0.0,0.0
7.127,197,7,127000000,base_footprint,0.0028337080391092123,0.002640413095896975,-0.7333908276051955,0.6797962138038125,0.0,0.0,0.0,0.0,0.0,0.0,0.0,0.0,0.0,0.00042677681566607745,-0.00033757467976682116,-0.015179413366950428,0.0,0.0,0.0,0.0,0.0,0.0,0.0,0.0,0.0,0.1716045381172694,-0.016435283859228086,-0.0013565028822238008,0.0,0.0,0.0,0.0,0.0,0.0,0.0,0.0,0.0
7.161,198,7,161000000,base_footprint,0.0028349807556743685,0.0026400535282637056,-0.733480120318268,0.6796998647192614,0.0,0.0,0.0,0.0,0.0,0.0,0.0,0.0,0.0,0.00031712331080487385,0.0009271191998910285,-0.0038801075584838016,0.0,0.0,0.0,0.0,0.0,0.0,0.0,0.0,0.0,-0.025658706478998247,0.0029553642269617535,0.0027499690280944843,0.0,0.0,0.0,0.0,0.0,0.0,0.0,0.0,0.0
7.195,199,7,195000000,base_footprint,0.0028294929454458213,0.0026339944602583975,-0.7335369622242323,0.6796385665143646,0.0,0.0,0.0,0.0,0.0,0.0,0.0,0.0,0.0,-0.0002703330504137164,0.005537949998434104,-0.008308885693448358,0.0,0.0,0.0,0.0,0.0,0.0,0.0,0.0,0.0,-0.022657945051598818,0.0043947053124658245,0.005068787478886469,0.0,0.0,0.0,0.0,0.0,0.0,0.0,0.0,0.0
7.229,200,7,229000000,base_footprint,0.0028317358984312527,0.0026310880362244876,-0.7343190473148865,0.6787934850881414,0.0,0.0,0.0,0.0,0.0,0.0,0.0,0.0,0.0,0.001851096797438385,-0.004200265636785497,-0.10310296677040515,0.0,0.0,0.0,0.0,0.0,0.0,0.0,0.0,0.0,-0.4929719570775344,0.09253824287182683,-0.011186327101033153,0.0,0.0,0.0,0.0,0.0,0.0,0.0,0.0,0.0
7.263,201,7,263000000,base_footprint,0.0028331786054176028,0.0026275046634444224,-0.7344399669989009,0.678662658610953,0.0,0.0,0.0,0.0,0.0,0.0,0.0,0.0,0.0,-0.0012462179825814966,0.00045984083221144373,-0.04073603311316837,0.0,0.0,0.0,0.0,0.0,0.0,0.0,0.0,0.0,0.16885448488094695,-0.020293409989435934,0.006059830681219208,0.0,0.0,0.0,0.0,0.0,0.0,0.0,0.0,0.0
7.297,202,7,297000000,base_footprint,0.0028329068168913007,0.0026267557002926465,-0.7351808570056908,0.677860001981114,0.0,0.0,0.0,0.0,0.0,0.0,0.0,0.0,0.0,0.00015057466254841275,0.0006935410907665026,-0.06471949954125043,0.0,0.0,0.0,0.0,0.0,0.0,0.0,0.0,0.0,-0.0174373060032375,0.014145714858772649,-0.0006642717939982048,0.0,0.0,0.0,0.0,0.0,0.0,0.0,0.0,0.0
7.331,203,7,331000000,base_footprint,0.0028357856019283105,0.002624732573083523,-0.7359273415834003,0.6770494937660975,0.0,0.0,0.0,0.0,0.0,0.0,0.0,0.0,0.0,0.0001663325451201594,0.0005647420727986958,-0.06496230209485285,0.0,0.0,0.0,0.0,0.0,0.0,0.0,0.0,0.0,-0.0030620296756794854,0.01509919370694085,-0.00014473558256290729,0.0,0.0,0.0,0.0,0.0,0.0,0.0,0.0,0.0
7.366,204,7,365000000,base_footprint,0.002839592041140131,0.002623776011592079,-0.7366754543097784,0.6762354083704599,0.0,0.0,0.0,0.0,0.0,0.0,0.0,0.0,0.0,0.00018273812900498776,0.0004791188098840167,-0.06513159818533408,0.0,0.0,0.0,0.0,0.0,0.0,0.0,0.0,0.0,-0.0026860260259697873,0.01520478459708317,-8.491748638174089e-05,0.0,0.0,0.0,0.0,0.0,0.0,0.0,0.0,0.0
7.399,205,7,399000000,base_footprint,0.00284418802356801,0.0026246369058341153,-0.7374163983565346,0.6754273294074471,0.0,0.0,0.0,0.0,0.0,0.0,0.0,0.0,0.0,0.00041625876352976033,4.5892829937760565e-05,-0.059288910470791725,0.0,0.0,0.0,0.0,0.0,0.0,0.0,0.0,0.0,-0.0007610767257964762,0.014750189880504527,-0.00048621205797562183,0.0,0.0,0.0,0.0,0.0,0.0,0.0,0.0,0.0
7.434,206,7,433000000,base_footprint,0.0028498352350766927,0.0026248255540437747,-0.7380918506340783,0.6746891200823572,0.0,0.0,0.0,0.0,0.0,0.0,0.0,0.0,0.0,7.903333122974292e-05,0.0003801905678963917,-0.05820012972258759,0.0,0.0,0.0,0.0,0.0,0.0,0.0,0.0,0.0,0.001184399871016051,0.013713628021774909,0.0005632110480454878,0.0,0.0,0.0,0.0,0.0,0.0,0.0,0.0,0.0
7.467,207,7,467000000,base_footprint,0.002854771569496466,0.002623610117616689,-0.7387461483248968,0.6739726220584679,0.0,0.0,0.0,0.0,0.0,0.0,0.0,0.0,0.0,1.7868494682183724e-05,0.00045918037904820667,-0.05595991682236083,0.0,0.0,0.0,0.0,0.0,0.0,0.0,0.0,0.0,0.005657509176906921,0.012622166001145102,0.00016955393194524813,0.0,0.0,0.0,0.0,0.0,0.0,0.0,0.0,0.0
7.501,208,7,501000000,base_footprint,0.002859821917427928,0.002615414575567049,-0.7393696378359225,0.6732885857279741,0.0,0.0,0.0,0.0,0.0,0.0,0.0,0.0,0.0,0.0005085905288455671,0.0007738873751288614,-0.04574436810239711,0.0,0.0,0.0,0.0,0.0,0.0,0.0,0.0,0.0,-0.009359832478060368,0.005588137143306971,0.0007552105262064333,0.0,0.0,0.0,0.0,0.0,0.0,0.0,0.0,0.0
7.535,209,7,535000000,base_footprint,0.0028638003429214787,0.002610501557429923,-0.7398528790557485,0.6727575352845442,0.0,0.0,0.0,0.0,0.0,0.0,0.0,0.0,0.0,-0.00012488499995561144,0.0004381398962632723,-0.03336434603144065,0.0,0.0,0.0,0.0,0.0,0.0,0.0,0.0,0.0,0.04432916888976722,0.006074460532640904,-0.0003547518645572384,0.0,0.0,0.0,0.0,0.0,0.0,0.0,0.0,0.0
7.569,210,7,569000000,base_footprint,0.002855497230154109,0.002612699996127095,-0.7402565584316497,0.6723133552393769,0.0,0.0,0.0,0.0,0.0,0.0,0.0,0.0,0.0,0.0007794301681256392,0.0025393855899332593,-0.027867036597501726,0.0,0.0,0.0,0.0,0.0,0.0,0.0,0.0,0.0,0.03990075828920618,-0.011509012827890176,0.003389378794964989,0.0,0.0,0.0,0.0,0.0,0.0,0.0,0.0,0.0
7.603,211,7,603000000,base_footprint,0.0028560588227792023,0.002608466590467266,-0.740736836109977,0.6717841755056668,0.0,0.0,0.0,0.0,0.0,0.0,0.0,0.0,0.0,-5.093006495810072e-05,0.0010444044205210694,-0.05075222345812988,0.0,0.0,0.0,0.0,0.0,0.0,0.0,0.0,0.0,0.05032295405366069,0.011460748642475423,-0.0034787594296482992,0.0,0.0,0.0,0.0,0.0,0.0,0.0,0.0,0.0
7.6370000000000005,212,7,637000000,base_footprint,0.002855014588082046,0.00260336163755998,-0.7412223528922641,0.6712484599406855,0.0,0.0,0.0,0.0,0.0,0.0,0.0,0.0,0.0,-0.00020808161351933014,0.00023674304032307418,-0.028511468107115755,0.0,0.0,0.0,0.0,0.0,0.0,0.0,0.0,0.0,-0.048888504085078256,0.020472110537556397,0.00034917236117305687,0.0,0.0,0.0,0.0,0.0,0.0,0.0,0.0,0.0
7.671,213,7,671000000,base_footprint,0.0028604987392588143,0.0026016188927468873,-0.7413251787185865,0.6711348810216583,0.0,0.0,0.0,0.0,0.0,0.0,0.0,0.0,0.0,-0.0004796100326960969,-0.0019211360812335788,0.01896236275309652,0.0,0.0,0.0,0.0,0.0,0.0,0.0,0.0,0.0,-0.020048792579220372,0.008228566568285803,-0.0022502838748906344,0.0,0.0,0.0,0.0,0.0,0.0,0.0,0.0,0.0
7.705,214,7,705000000,base_footprint,0.0028574870549782114,0.0026018208879806533,-0.7411349209615413,0.6713449889789358,0.0,0.0,0.0,0.0,0.0,0.0,0.0,0.0,0.0,1.5164607669405306e-05,2.8501457811832488e-05,0.01629708967841917,0.0,0.0,0.0,0.0,0.0,0.0,0.0,0.0,0.0,-0.0050984421444991174,-0.004757296039666087,0.002252254165503421,0.0,0.0,0.0,0.0,0.0,0.0,0.0,0.0,0.0
7.739,215,7,739000000,base_footprint,0.0028557015582642434,0.00260222971931275,-0.7409501085740863,0.6715489631986247,0.0,0.0,0.0,0.0,0.0,0.0,0.0,0.0,0.0,0.00015003856922256257,7.722667997597621e-05,0.01613507293570715,0.0,0.0,0.0,0.0,0.0,0.0,0.0,0.0,0.0,-0.00578401951497759,-0.001969838995189651,0.0001748195354413552,0.0,0.0,0.0,0.0,0.0,0.0,0.0,0.0,0.0
7.773,216,7,773000000,base_footprint,0.002855554587859945,0.0026043032829705377,-0.7408112034008468,0.6717021842514698,0.0,0.0,0.0,0.0,0.0,0.0,0.0,0.0,0.0,0.00038441887849800023,0.00033821964861030366,-0.01999542044018128,0.0,0.0,0.0,0.0,0.0,0.0,0.0,0.0,0.0,0.2942054295792943,-0.06174187210317274,-0.0004625978868675087,0.0,0.0,0.0,0.0,0.0,0.0,0.0,0.0,0.0
7.807,217,7,807000000,base_footprint,0.0028552803937599105,0.0026028738870386477,-0.741123913417738,0.6713571459229273,0.0,0.0,0.0,0.0,0.0,0.0,0.0,0.0,0.0,0.00015816786666633914,0.00027548998522261694,-0.02760775043003127,0.0,0.0,0.0,0.0,0.0,0.0,0.0,0.0,0.0,0.01885498305844131,0.0024349982874974883,-5.486035931074481e-05,0.0,0.0,0.0,0.0,0.0,0.0,0.0,0.0,0.0
7.841,218,7,841000000,base_footprint,0.0028573865059564286,0.002603637206674967,-0.7414389750887143,0.6710091673256399,0.0,0.0,0.0,0.0,0.0,0.0,0.0,0.0,0.0,0.00015911962697814978,0.00019379507251504992,-0.02766318946395571,0.0,0.0,0.0,0.0,0.0,0.0,0.0,0.0,0.0,-0.0036296973439900277,0.006820035572151564,-0.00011758931091107648,0.0,0.0,0.0,0.0,0.0,0.0,0.0,0.0,0.0
7.875,219,7,875000000,base_footprint,0.0028603925844042947,0.0026056057570855505,-0.7417535148302261,0.6706614288968074,0.0,0.0,0.0,0.0,0.0,0.0,0.0,0.0,0.0,0.00016451488312127028,9.511674557839856e-05,-0.0274847081045864,0.0,0.0,0.0,0.0,0.0,0.0,0.0,0.0,0.0,-0.0029080312632399213,0.006700264530704275,-0.00016098623817080524,0.0,0.0,0.0,0.0,0.0,0.0,0.0,0.0,0.0
7.909,220,7,909000000,base_footprint,0.0028598277560457205,0.002604955791464138,-0.7418371187177298,0.670568956098556,0.0,0.0,0.0,0.0,0.0,0.0,0.0,0.0,0.0,0.00033114285346708453,-8.00948939844497e-05,0.05135476234451859,0.0,0.0,0.0,0.0,0.0,0.0,0.0,0.0,0.0,-0.1353942491555123,0.031848621992577056,0.0008642087164652181,0.0,0.0,0.0,0.0,0.0,0.0,0.0,0.0,0.0
7.943,221,7,943000000,base_footprint,0.0028607018052794037,0.0026159471018807195,-0.7405819329410165,0.6719548897115707,0.0,0.0,0.0,0.0,0.0,0.0,0.0,0.0,0.0,-8.251697661641082e-05,-0.0011350662931657427,0.12751056406880895,0.0,0.0,0.0,0.0,0.0,0.0,0.0,0.0,0.0,-0.16762968496627095,0.010214043180883287,-0.001033027530486349,0.0,0.0,0.0,0.0,0.0,0.0,0.0,0.0,0.0
7.977,222,7,977000000,base_footprint,0.0028583484389127748,0.002619064424580405,-0.7391225143009257,0.6735598556915485,0.0,0.0,0.0,0.0,0.0,0.0,0.0,0.0,0.0,-0.0005418643875998188,-0.0007376564893256093,0.12598246743377922,0.0,0.0,0.0,0.0,0.0,0.0,0.0,0.0,0.0,-0.007026806161370282,-0.03349473627803798,0.0005139289676594846,0.0,0.0,0.0,0.0,0.0,0.0,0.0,0.0,0.0
8.011,223,8,11000000,base_footprint,0.0028545337201331244,0.0026180428881643295,-0.7376471525292733,0.6751752926863744,0.0,0.0,0.0,0.0,0.0,0.0,0.0,0.0,0.0,-0.0002614461295053531,-0.0009367762150674468,0.1376411202528039,0.0,0.0,0.0,0.0,0.0,0.0,0.0,0.0,0.0,0.03301839571538527,-0.031266177319602156,-0.0004147530287662659,0.0,0.0,0.0,0.0,0.0,0.0,0.0,0.0,0.0
8.045,224,8,45000000,base_footprint,0.002841818196538094,0.0026287200457957077,-0.7361388535242487,0.6768194753641945,0.0,0.0,0.0,0.0,0.0,0.0,0.0,0.0,0.0,0.0013065890308635527,0.0006022621991159711,0.118047854766622,0.0,0.0,0.0,0.0,0.0,0.0,0.0,0.0,0.0,0.00689150838811799,-0.041096401213799184,0.0025802499322429115,0.0,0.0,0.0,0.0,0.0,0.0,0.0,0.0,0.0
8.079,225,8,79000000,base_footprint,0.002834273434543258,0.0026334138298270246,-0.7349213197417427,0.6781413464866705,0.0,0.0,0.0,0.0,0.0,0.0,0.0,0.0,0.0,0.0006823555528789208,-4.764610014008756e-05,0.10110929141422159,0.0,0.0,0.0,0.0,0.0,0.0,0.0,0.0,0.0,0.04628904662930318,-0.021624729086819033,-0.0017312975720038236,0.0,0.0,0.0,0.0,0.0,0.0,0.0,0.0,0.0
8.113,226,8,113000000,base_footprint,0.002834892256752242,0.0026377475898610564,-0.73367588538348,0.6794885583144955,0.0,0.0,0.0,0.0,0.0,0.0,0.0,0.0,0.0,-0.0010161071909879015,-0.0013939369668469113,0.11996613516514262,0.0,0.0,0.0,0.0,0.0,0.0,0.0,0.0,0.0,-0.06815489798780056,-0.009887484287325918,-0.0021473270923692035,0.0,0.0,0.0,0.0,0.0,0.0,0.0,0.0,0.0
8.147,227,8,147000000,base_footprint,0.0028259286492281948,0.0026403395307132973,-0.7323111572961217,0.6809591849986657,0.0,0.0,0.0,0.0,0.0,0.0,0.0,0.0,0.0,-0.00011734104958193039,-0.0005062659205551703,0.11742122864816534,0.0,0.0,0.0,0.0,0.0,0.0,0.0,0.0,0.0,-0.004691467580899982,-0.027195865725389283,0.0012152375556183249,0.0,0.0,0.0,0.0,0.0,0.0,0.0,0.0,0.0
8.181,228,8,181000000,base_footprint,0.002819144809512278,0.0026440230014956826,-0.730969783799072,0.6823988838924406,0.0,0.0,0.0,0.0,0.0,0.0,0.0,0.0,0.0,-6.059386722485746e-05,-0.0005696633974471358,0.11450203973711898,0.0,0.0,0.0,0.0,0.0,0.0,0.0,0.0,0.0,-0.009210944790890721,-0.024075763288350673,-0.000227919335023257,0.0,0.0,0.0,0.0,0.0,0.0,0.0,0.0,0.0
8.215,229,8,215000000,base_footprint,0.002811874552898733,0.002648166244359963,-0.7296406192534951,0.6838198939138999,0.0,0.0,0.0,0.0,0.0,0.0,0.0,0.0,0.0,-3.702076299341211e-05,-0.000602104744200873,0.11436756889615671,0.0,0.0,0.0,0.0,0.0,0.0,0.0,0.0,0.0,-0.0088361425878239,-0.02383981019781667,-0.0002456054740905832,0.0,0.0,0.0,0.0,0.0,0.0,0.0,0.0,0.0
8.249,230,8,249000000,base_footprint,0.0028057938337303014,0.002653469923729984,-0.728310605331426,0.685236272230315,0.0,0.0,0.0,0.0,0.0,0.0,0.0,0.0,0.0,-4.117845269587702e-05,-0.0006863782778893424,0.11418959748934134,0.0,0.0,0.0,0.0,0.0,0.0,0.0,0.0,0.0,-0.008751801405384747,-0.02406546715870101,-0.00035677754685018673,0.0,0.0,0.0,0.0,0.0,0.0,0.0,0.0,0.0
8.283,231,8,283000000,base_footprint,0.0028008183307820715,0.0026598803264573337,-0.7269800441137653,0.686647723300438,0.0,0.0,0.0,0.0,0.0,0.0,0.0,0.0,0.0,-3.3809197174482946e-05,-0.000768417924061032,0.1139941400621172,0.0,0.0,0.0,0.0,0.0,0.0,0.0,0.0,0.0,-0.008506536142751523,-0.024077621701031296,-0.0003632686767948463,0.0,0.0,0.0,0.0,0.0,0.0,0.0,0.0,0.0
8.317,232,8,317000000,base_footprint,0.002801320139458561,0.0026580903136246203,-0.7271389509240918,0.6864794484981851,0.0,0.0,0.0,0.0,0.0,0.0,0.0,0.0,0.0,-0.0008148952339945275,0.002255836166165642,-0.20408707136196158,0.0,0.0,0.0,0.0,0.0,0.0,0.0,0.0,0.0,-0.06331204993411134,0.00807121450082134,0.0024611078118132214,0.0,0.0,0.0,0.0,0.0,0.0,0.0,0.0,0.0
8.351,233,8,351000000,base_footprint,0.0028112022143461195,0.002652277877735851,-0.7284109938078007,0.68512954006093,0.0,0.0,0.0,0.0,0.0,0.0,0.0,0.0,0.0,-0.0002892711817344351,0.00013806710228729261,0.010878307001445106,0.0,0.0,0.0,0.0,0.0,0.0,0.0,0.0,0.0,0.15275397039368413,0.009188701838663896,-0.002052048292363391,0.0,0.0,0.0,0.0,0.0,0.0,0.0,0.0,0.0
8.385,234,8,385000000,base_footprint,0.002810035813820339,0.0026660317361000435,-0.7276780970705192,0.6859078531532755,0.0,0.0,0.0,0.0,0.0,0.0,0.0,0.0,0.0,-0.00048128065308122294,-0.0018605856162786708,0.0921675092727058,0.0,0.0,0.0,0.0,0.0,0.0,0.0,0.0,0.0,-0.10119598799089,-0.0007670546422660282,-0.0024347349482083773,0.0,0.0,0.0,0.0,0.0,0.0,0.0,0.0,0.0
8.419,235,8,419000000,base_footprint,0.0028086402871899487,0.0026734014565915547,-0.7265687208458612,0.6870828613441017,0.0,0.0,0.0,0.0,0.0,0.0,0.0,0.0,0.0,-3.744296077437195e-05,-0.0007896179384212631,0.09620838022870074,0.0,0.0,0.0,0.0,0.0,0.0,0.0,0.0,0.0,-0.007796315611795623,-0.02062695046161621,0.0013981032099142608,0.0,0.0,0.0,0.0,0.0,0.0,0.0,0.0,0.0
8.453,236,8,453000000,base_footprint,0.0028054054585218355,0.0026776305852918994,-0.7254591759481024,0.6882542727999312,0.0,0.0,0.0,0.0,0.0,0.0,0.0,0.0,0.0,-0.0002527420102147734,-0.0004022122402922586,0.0935879007522456,0.0,0.0,0.0,0.0,0.0,0.0,0.0,0.0,0.0,-0.005229024369829055,-0.021336095494234146,0.0004963529594581225,0.0,0.0,0.0,0.0,0.0,0.0,0.0,0.0,0.0
8.487,237,8,487000000,base_footprint,0.0028031417662052983,0.00268182795103306,-0.724677782663512,0.6890769634148098,0.0,0.0,0.0,0.0,0.0,0.0,0.0,0.0,0.0,-0.0005273860200753653,-0.0013903999195927432,0.03421898781407764,0.0,0.0,0.0,0.0,0.0,0.0,0.0,0.0,0.0,0.1173860895966394,-0.02547485463126206,-0.0016300209594793907,0.0,0.0,0.0,0.0,0.0,0.0,0.0,0.0,0.0
8.521,238,8,521000000,base_footprint,0.0028049786923703864,0.002675398522206473,-0.7242884622724786,0.6894861838762624,0.0,0.0,0.0,0.0,0.0,0.0,0.0,0.0,0.0,-3.2995391561446304e-05,-0.00028559571665614505,0.049060688795505486,0.0,0.0,0.0,0.0,0.0,0.0,0.0,0.0,0.0,0.15381391465732858,-0.027674678487775314,0.0010615860098872438,0.0,0.0,0.0,0.0,0.0,0.0,0.0,0.0,0.0
8.555,239,8,555000000,base_footprint,0.0027979597436415416,0.0026809017813261044,-0.7232248036651336,0.6906018154844663,0.0,0.0,0.0,0.0,0.0,0.0,0.0,0.0,0.0,0.000906968951951418,-0.0013035269869509478,0.10343443208676839,0.0,0.0,0.0,0.0,0.0,0.0,0.0,0.0,0.0,0.11255514992195616,-0.02513475913401359,-0.0014238348645240948,0.0,0.0,0.0,0.0,0.0,0.0,0.0,0.0,0.0
8.589,240,8,589000000,base_footprint,0.002783165942587081,0.002683446636284154,-0.7219755867975719,0.6919077287975529,0.0,0.0,0.0,0.0,0.0,0.0,0.0,0.0,0.0,0.00034676763061635557,-0.0007982968488082523,0.09422903281633818,0.0,0.0,0.0,0.0,0.0,0.0,0.0,0.0,0.0,0.3501715814081823,-0.05432114456998047,-0.0003314970905213281,0.0,0.0,0.0,0.0,0.0,0.0,0.0,0.0,0.0
8.623,241,8,623000000,base_footprint,0.002783009786502912,0.0026896012880874205,-0.7207640766148184,0.6931696522230526,0.0,0.0,0.0,0.0,0.0,0.0,0.0,0.0,0.0,-0.000186455641986254,-0.00036153193199975174,0.10406168894392898,0.0,0.0,0.0,0.0,0.0,0.0,0.0,0.0,0.0,-0.02109205483778669,-0.01765700073714669,0.0018323808558544379,0.0,0.0,0.0,0.0,0.0,0.0,0.0,0.0,0.0
8.657,242,8,657000000,base_footprint,0.0027759789051513724,0.002691293330972673,-0.719539905263919,0.6944403326522124,0.0,0.0,0.0,0.0,0.0,0.0,0.0,0.0,0.0,-4.982248099942486e-05,-0.00038948496603153146,0.10369217174950883,0.0,0.0,0.0,0.0,0.0,0.0,0.0,0.0,0.0,-0.005574840216180131,-0.019808920483718982,-8.225387254946164e-05,0.0,0.0,0.0,0.0,0.0,0.0,0.0,0.0,0.0
8.691,243,8,691000000,base_footprint,0.002764316157821136,0.0026879412448450107,-0.7186717103139624,0.6953388428115089,0.0,0.0,0.0,0.0,0.0,0.0,0.0,0.0,0.0,0.001073909966145995,-0.0018504519079176334,0.0474472946575539,0.0,0.0,0.0,0.0,0.0,0.0,0.0,0.0,0.0,-0.594688249405267,0.024283636138307974,-0.003677546326038595,0.0,0.0,0.0,0.0,0.0,0.0,0.0,0.0,0.0
8.725,244,8,725000000,base_footprint,0.002765415867575085,0.0026956654450052907,-0.7176501904015746,0.696393057173513,0.0,0.0,0.0,0.0,0.0,0.0,0.0,0.0,0.0,-3.806859069221981e-05,-0.0004143952145630444,0.09279299640467346,0.0,0.0,0.0,0.0,0.0,0.0,0.0,0.0,0.0,-0.10126293833048844,-0.012236585588709332,0.0033536462953034692,0.0,0.0,0.0,0.0,0.0,0.0,0.0,0.0,0.0
8.759,245,8,759000000,base_footprint,0.002761145946438667,0.002700175079111816,-0.7165528195640363,0.6975221443814056,0.0,0.0,0.0,0.0,0.0,0.0,0.0,0.0,0.0,-3.711067660516507e-05,-0.0005656137870937539,0.09247703211011435,0.0,0.0,0.0,0.0,0.0,0.0,0.0,0.0,0.0,-0.006615770787284155,-0.019702839845482836,-0.00038800767513203795,0.0,0.0,0.0,0.0,0.0,0.0,0.0,0.0,0.0
8.793,246,8,793000000,base_footprint,0.0027585593318184324,0.002706026200423398,-0.7155478171820697,0.6985530682049796,0.0,0.0,0.0,0.0,0.0,0.0,0.0,0.0,0.0,-2.6431036694563557e-06,0.00012360472818516796,0.07574634489205503,0.0,0.0,0.0,0.0,0.0,0.0,0.0,0.0,0.0,0.6617055126619487,-0.05132870225195596,0.0003844071718557768,0.0,0.0,0.0,0.0,0.0,0.0,0.0,0.0,0.0
8.827,247,8,827000000,base_footprint,0.002756247805705597,0.0027114969430705716,-0.7146070638215412,0.6995154002727297,0.0,0.0,0.0,0.0,0.0,0.0,0.0,0.0,0.0,-1.1147642083288455e-05,-0.0006215704650288619,0.07925023483079995,0.0,0.0,0.0,0.0,0.0,0.0,0.0,0.0,0.0,0.00387332993719463,-0.01480782850240797,-0.0011301974126549422,0.0,0.0,0.0,0.0,0.0,0.0,0.0,0.0,0.0
8.861,248,8,861000000,base_footprint,0.002754035972676076,0.002717876898038495,-0.7136661107273101,0.7004753463401714,0.0,0.0,0.0,0.0,0.0,0.0,0.0,0.0,0.0,0.0006327349075946481,0.00241570831865337,0.07765666977325406,0.0,0.0,0.0,0.0,0.0,0.0,0.0,0.0,0.0,-0.024674642562150895,-0.013955365435425277,-0.0036834325969243064,0.0,0.0,0.0,0.0,0.0,0.0,0.0,0.0,0.0
8.895,249,8,895000000,base_footprint,0.0027493378587564866,0.0027163023418599642,-0.7130429378818613,0.701109714366967,0.0,0.0,0.0,0.0,0.0,0.0,0.0,0.0,0.0,-0.0001213020138617099,-0.00010153959430494477,0.029800990112858326,0.0,0.0,0.0,0.0,0.0,0.0,0.0,0.0,0.0,-0.5568483365725755,0.006868574152698703,0.004036207731027242,0.0,0.0,0.0,0.0,0.0,0.0,0.0,0.0,0.0
8.929,250,8,929000000,base_footprint,0.002755434296521131,0.0027294709840007857,-0.7123811683144886,0.7017820378157803,0.0,0.0,0.0,0.0,0.0,0.0,0.0,0.0,0.0,-6.94207113813805e-05,-0.0006247078481866981,0.06385315372714251,0.0,0.0,0.0,0.0,0.0,0.0,0.0,0.0,0.0,-0.11350170386726033,-0.004098784053955286,-0.0010298246767786886,0.0,0.0,0.0,0.0,0.0,0.0,0.0,0.0,0.0
8.963000000000001,251,8,963000000,base_footprint,0.002746791070075761,0.0027289972600517782,-0.7116182994269641,0.7025556231597948,0.0,0.0,0.0,0.0,0.0,0.0,0.0,0.0,0.0,-0.0013488937745115637,0.006116095596547775,0.062468478252692736,0.0,0.0,0.0,0.0,0.0,0.0,0.0,0.0,0.0,0.01610230285589225,-0.015054977404122566,0.006738844079112212,0.0,0.0,0.0,0.0,0.0,0.0,0.0,0.0,0.0
8.997,252,8,997000000,base_footprint,0.002757146198248062,0.002735586928614817,-0.711058136072178,0.7031224941889981,0.0,0.0,0.0,0.0,0.0,0.0,0.0,0.0,0.0,0.0005612622026821558,-0.0015973920120772025,0.032258938368572715,0.0,0.0,0.0,0.0,0.0,0.0,0.0,0.0,0.0,0.11364845659565083,-0.029638700107553012,-0.009250932301299565,0.0,0.0,0.0,0.0,0.0,0.0,0.0,0.0,0.0
9.031,253,9,31000000,base_footprint,0.002745272367079565,0.0027275896221323173,-0.7108313958528144,0.7033517970435728,0.0,0.0,0.0,0.0,0.0,0.0,0.0,0.0,0.0,-0.001028410212823049,-0.0006190015170604191,0.022016697074678238,0.0,0.0,0.0,0.0,0.0,0.0,0.0,0.0,0.0,0.15914105508394177,0.005499271450158494,0.0018252802888486133,0.0,0.0,0.0,0.0,0.0,0.0,0.0,0.0,0.0
9.065,254,9,65000000,base_footprint,0.00275479447468029,0.002743072617460799,-0.7100803687367881,0.7041099037754296,0.0,0.0,0.0,0.0,0.0,0.0,0.0,0.0,0.0,-0.0006951755897258583,-0.0026891248287584024,0.07084486676751131,0.0,0.0,0.0,0.0,0.0,0.0,0.0,0.0,0.0,0.1879858730905536,-0.01590115642797614,0.00485673255322581,0.0,0.0,0.0,0.0,0.0,0.0,0.0,0.0,0.0
9.099,255,9,99000000,base_footprint,0.00274134880957849,0.002737052898077502,-0.7093302233651864,0.7048656806575507,0.0,0.0,0.0,0.0,0.0,0.0,0.0,0.0,0.0,0.00016181534597920212,-0.000378626684307426,0.06000120739899509,0.0,0.0,0.0,0.0,0.0,0.0,0.0,0.0,0.0,0.23855691749236474,-0.014866192997083597,-0.004140954968618521,0.0,0.0,0.0,0.0,0.0,0.0,0.0,0.0,0.0
9.133,256,9,133000000,base_footprint,0.0027351970913495503,0.002737564630922346,-0.7086043565029881,0.7055954155050534,0.0,0.0,0.0,0.0,0.0,0.0,0.0,0.0,0.0,-7.756111322377972e-05,-3.709290140620032e-05,0.060793667510500346,0.0,0.0,0.0,0.0,0.0,0.0,0.0,0.0,0.0,0.001778933911214046,-0.01303774328715964,0.000782458521028479,0.0,0.0,0.0,0.0,0.0,0.0,0.0,0.0,0.0
9.167,257,9,167000000,base_footprint,0.002721543704415204,0.002726606865692566,-0.7078899814109135,0.7063122064872739,0.0,0.0,0.0,0.0,0.0,0.0,0.0,0.0,0.0,2.3789559357111992e-05,-0.00037831953066444696,0.050406944976824034,0.0,0.0,0.0,0.0,0.0,0.0,0.0,0.0,0.0,-0.13485321381342288,-0.011238896034779497,-0.000301919026745609,0.0,0.0,0.0,0.0,0.0,0.0,0.0,0.0,0.0
9.201,258,9,201000000,base_footprint,0.0027276167307686565,0.0027337351586719585,-0.7078535195968186,0.7063486968866359,0.0,0.0,0.0,0.0,0.0,0.0,0.0,0.0,0.0,-6.206179634807434e-05,3.9508379439308866e-05,-0.01187970822026487,0.0,0.0,0.0,0.0,0.0,0.0,0.0,0.0,0.0,-0.23457558540679252,-0.00020448256384307528,-0.0004269070873131267,0.0,0.0,0.0,0.0,0.0,0.0,0.0,0.0,0.0
9.235,259,9,235000000,base_footprint,0.0027276033109225415,0.00273197171888199,-0.7079984540543103,0.7062034307247538,0.0,0.0,0.0,0.0,0.0,0.0,0.0,0.0,0.0,-6.718538055376535e-05,0.00031051454288999995,-0.012262955485690287,0.0,0.0,0.0,0.0,0.0,0.0,0.0,0.0,0.0,-0.005406480000501798,0.0026551516733722197,0.00025006085963402876,0.0,0.0,0.0,0.0,0.0,0.0,0.0,0.0,0.0
9.269,260,9,269000000,base_footprint,0.002732777307059419,0.0027353608209254032,-0.7081254639412594,0.7060760419723542,0.0,0.0,0.0,0.0,0.0,0.0,0.0,0.0,0.0,-0.0003105714218387365,0.002161995757497143,0.0090706606149362,0.0,0.0,0.0,0.0,0.0,0.0,0.0,0.0,0.0,0.2186593946993191,-0.0037983291469068925,0.0016083336874552297,0.0,0.0,0.0,0.0,0.0,0.0,0.0,0.0,0.0
9.303,261,9,303000000,base_footprint,0.0027278604535233685,0.002732594908735601,-0.7076442503048263,0.7065583533671734,0.0,0.0,0.0,0.0,0.0,0.0,0.0,0.0,0.0,-0.0005830127072712088,0.00025005464238192325,-0.020453692539222065,0.0,0.0,0.0,0.0,0.0,0.0,0.0,0.0,0.0,0.11212928717610098,0.0012617684852434946,-0.0009784287903747003,0.0,0.0,0.0,0.0,0.0,0.0,0.0,0.0,0.0
9.337,262,9,337000000,base_footprint,0.002731060378931386,0.0027360786858008287,-0.7078945566836099,0.7063075476025633,0.0,0.0,0.0,0.0,0.0,0.0,0.0,0.0,0.0,-3.6302327041570744e-05,0.00014351757549188043,-0.02074605439205684,0.0,0.0,0.0,0.0,0.0,0.0,0.0,0.0,0.0,-0.007756846928395283,-0.0004746689457642188,-0.0011597746248704582,0.0,0.0,0.0,0.0,0.0,0.0,0.0,0.0,0.0
9.371,263,9,371000000,base_footprint,0.002728228769401663,0.0027317706219962346,-0.7081299148783964,0.7060716095775029,0.0,0.0,0.0,0.0,0.0,0.0,0.0,0.0,0.0,-2.0504436963150578e-05,0.0007803037094392398,-0.013734886933478584,0.0,0.0,0.0,0.0,0.0,0.0,0.0,0.0,0.0,-0.20450759825574333,0.006960200800772184,0.0015199705369520252,0.0,0.0,0.0,0.0,0.0,0.0,0.0,0.0,0.0
9.405,264,9,405000000,base_footprint,0.0027311743106996607,0.002735153726405174,-0.708226779101439,0.7059744251632484,0.0,0.0,0.0,0.0,0.0,0.0,0.0,0.0,0.0,-0.00172013106435185,0.00017872777047731156,-0.021470406624775035,0.0,0.0,0.0,0.0,0.0,0.0,0.0,0.0,0.0,-0.47352156139278534,0.010914029238774714,-0.0007127363369640474,0.0,0.0,0.0,0.0,0.0,0.0,0.0,0.0,0.0
9.439,265,9,439000000,base_footprint,0.0027416886854494662,0.0027403323369300926,-0.7085736785621258,0.7056261869933489,0.0,0.0,0.0,0.0,0.0,0.0,0.0,0.0,0.0,-5.806373559956717e-05,0.000323864801968961,-0.028219361438138094,0.0,0.0,0.0,0.0,0.0,0.0,0.0,0.0,0.0,-0.004912528694387914,0.00013878242535802143,-0.0006853993078123335,0.0,0.0,0.0,0.0,0.0,0.0,0.0,0.0,0.0
9.473,266,9,473000000,base_footprint,0.0027368886123984356,0.002716380148092191,-0.7088694583014606,0.7053291584834759,0.0,0.0,0.0,0.0,0.0,0.0,0.0,0.0,0.0,0.0004398037164560458,-0.0006936434845192139,-0.014880632280121694,0.0,0.0,0.0,0.0,0.0,0.0,0.0,0.0,0.0,0.07656654481425695,0.0008904584097792559,-0.00510302586442184,0.0,0.0,0.0,0.0,0.0,0.0,0.0,0.0,0.0
9.507,267,9,507000000,base_footprint,0.002742450577657553,0.002744654280547012,-0.709057039402842,0.7051404545982211,0.0,0.0,0.0,0.0,0.0,0.0,0.0,0.0,0.0,0.002869056146289743,0.002853939211534323,-0.021317925215044244,0.0,0.0,0.0,0.0,0.0,0.0,0.0,0.0,0.0,0.0934826896788491,0.011241818292911522,0.008840894072344231,0.0,0.0,0.0,0.0,0.0,0.0,0.0,0.0,0.0
9.541,268,9,541000000,base_footprint,0.002735445564324917,0.0027301089566864906,-0.7093343189498486,0.7048616089720051,0.0,0.0,0.0,0.0,0.0,0.0,0.0,0.0,0.0,-0.00038529165146632057,0.0008048224447053528,-0.019985702515584458,0.0,0.0,0.0,0.0,0.0,0.0,0.0,0.0,0.0,0.2274160884575489,-0.008797282064565329,-0.003452764234291933,0.0,0.0,0.0,0.0,0.0,0.0,0.0,0.0,0.0
9.575,269,9,575000000,base_footprint,0.0027315697392112097,0.002731866916469419,-0.7095646109160556,0.7046297881621648,0.0,0.0,0.0,0.0,0.0,0.0,0.0,0.0,0.0,0.0012299831749255144,-0.0007637019795542158,-0.020143690778533042,0.0,0.0,0.0,0.0,0.0,0.0,0.0,0.0,0.0,-0.15034242720638022,0.007464665041158822,-0.0026444835185189587,0.0,0.0,0.0,0.0,0.0,0.0,0.0,0.0,0.0
9.609,270,9,609000000,base_footprint,0.0027362226005474763,0.002736553880343929,-0.7093476777881241,0.7048481371014157,0.0,0.0,0.0,0.0,0.0,0.0,0.0,0.0,0.0,-0.0016685259424993703,-0.0033081926526716764,0.05993730282885068,0.0,0.0,0.0,0.0,0.0,0.0,0.0,0.0,0.0,-0.1908923572352753,0.003948820998997946,-0.0011048820608437922,0.0,0.0,0.0,0.0,0.0,0.0,0.0,0.0,0.0
9.643,271,9,643000000,base_footprint,0.002733232375704059,0.0027362978408224455,-0.7086272819782257,0.7055724040458633,0.0,0.0,0.0,0.0,0.0,0.0,0.0,0.0,0.0,-9.001561064710959e-05,-9.47002019665684e-05,0.06004278486800517,0.0,0.0,0.0,0.0,0.0,0.0,0.0,0.0,0.0,-0.00476356039739827,-0.01537331692375397,0.004319727242241685,0.0,0.0,0.0,0.0,0.0,0.0,0.0,0.0,0.0
9.677,272,9,677000000,base_footprint,0.0027328304979763254,0.0027397912975037704,-0.7079349862079212,0.7062670036777211,0.0,0.0,0.0,0.0,0.0,0.0,0.0,0.0,0.0,-0.00019790775960481708,-0.0022493917078870284,0.0509894427496695,0.0,0.0,0.0,0.0,0.0,0.0,0.0,0.0,0.0,0.46087788596401247,-0.015756234990004225,-0.002872032100760871,0.0,0.0,0.0,0.0,0.0,0.0,0.0,0.0,0.0
9.711,273,9,711000000,base_footprint,0.0027210088221182533,0.0027336615409422537,-0.7071997488447339,0.7070032803597978,0.0,0.0,0.0,0.0,0.0,0.0,0.0,0.0,0.0,0.0010370051593352107,-0.001830440300770043,0.058477880689229336,0.0,0.0,0.0,0.0,0.0,0.0,0.0,0.0,0.0,-0.09616744534126515,-0.011863140233564377,-0.0005295676312847002,0.0,0.0,0.0,0.0,0.0,0.0,0.0,0.0,0.0
9.745,274,9,745000000,base_footprint,0.0027219508061118113,0.0027396978788204926,-0.7063850886507264,0.7078172020876913,0.0,0.0,0.0,0.0,0.0,0.0,0.0,0.0,0.0,-5.394621881303429e-05,-0.00041760405621667137,0.06853807650631227,0.0,0.0,0.0,0.0,0.0,0.0,0.0,0.0,0.0,-0.03739236756223406,-0.01375205713583561,0.002598651836643823,0.0,0.0,0.0,0.0,0.0,0.0,0.0,0.0,0.0
9.779,275,9,779000000,base_footprint,0.0027205650371288003,0.0027439333716406237,-0.705587169732086,0.708612598861321,0.0,0.0,0.0,0.0,0.0,0.0,0.0,0.0,0.0,0.00011803961008015146,5.800671954149561e-06,0.0594535060791478,0.0,0.0,0.0,0.0,0.0,0.0,0.0,0.0,0.0,0.3331711468267186,-0.011767643085086099,0.0002568767558085094,0.0,0.0,0.0,0.0,0.0,0.0,0.0,0.0,0.0
9.813,276,9,813000000,base_footprint,0.0027186393710695415,0.002747507777024035,-0.7048737022611979,0.7093222991430463,0.0,0.0,0.0,0.0,0.0,0.0,0.0,0.0,0.0,-4.0211324792070204e-05,-0.0004324175943070589,0.05927783091501717,0.0,0.0,0.0,0.0,0.0,0.0,0.0,0.0,0.0,-0.004725792443494493,-0.010711558586033875,-0.0006889162346955392,0.0,0.0,0.0,0.0,0.0,0.0,0.0,0.0,0.0
9.847,277,9,847000000,base_footprint,0.0027185517336448116,0.0027529140931613627,-0.7041614866507354,0.7100293174639294,0.0,0.0,0.0,0.0,0.0,0.0,0.0,0.0,0.0,-3.201901086152985e-05,-0.0005210930705569386,0.05885422303394258,0.0,0.0,0.0,0.0,0.0,0.0,0.0,0.0,0.0,-0.004383848089575845,-0.011514438179389828,-0.0003119823093898138,0.0,0.0,0.0,0.0,0.0,0.0,0.0,0.0,0.0
9.881,278,9,881000000,base_footprint,0.0027167509429481818,0.002759893397896908,-0.7034362268715787,0.7107478293863607,0.0,0.0,0.0,0.0,0.0,0.0,0.0,0.0,0.0,-0.0012726242783240673,-0.0036057943086314197,0.05179651561331973,0.0,0.0,0.0,0.0,0.0,0.0,0.0,0.0,0.0,0.346122774037884,-0.002254044908787556,-0.00567218548093556,0.0,0.0,0.0,0.0,0.0,0.0,0.0,0.0,0.0
9.915,279,9,915000000,base_footprint,0.0027180095855591463,0.0027640596176666844,-0.7028426315871995,0.7113348069804422,0.0,0.0,0.0,0.0,0.0,0.0,0.0,0.0,0.0,1.0611515096108667e-05,-0.0004601691964151331,0.048051341315171484,0.0,0.0,0.0,0.0,0.0,0.0,0.0,0.0,0.0,-0.012738904023319928,-0.009862377137912753,0.005218121708706084,0.0,0.0,0.0,0.0,0.0,0.0,0.0,0.0,0.0
9.949,280,9,949000000,base_footprint,0.0027159212148710776,0.0027683274974389153,-0.702269844915201,0.7119002915139178,0.0,0.0,0.0,0.0,0.0,0.0,0.0,0.0,0.0,7.23873444374436e-05,-0.0002616098095181393,0.047107902477603394,0.0,0.0,0.0,0.0,0.0,0.0,0.0,0.0,0.0,0.002067359146292783,-0.007627759341231574,0.00029349363061696916,0.0,0.0,0.0,0.0,0.0,0.0,0.0,0.0,0.0
9.983,281,9,983000000,base_footprint,0.0027085490340270227,0.002756224105952606,-0.7016408967301484,0.71252025867797,0.0,0.0,0.0,0.0,0.0,0.0,0.0,0.0,0.0,-0.00015896860360256246,-0.0018935162330893686,0.06050650406792675,0.0,0.0,0.0,0.0,0.0,0.0,0.0,0.0,0.0,0.1621506572621047,-0.007249196507465444,-0.0037520396142129583,0.0,0.0,0.0,0.0,0.0,0.0,0.0,0.0,0.0
10.017,282,10,17000000,base_footprint,0.0027105140913182813,0.002773352026997761,-0.7008742476512688,0.713274316522867,0.0,0.0,0.0,0.0,0.0,0.0,0.0,0.0,0.0,0.0016834712467622866,0.0010429750695154251,0.05760014941553521,0.0,0.0,0.0,0.0,0.0,0.0,0.0,0.0,0.0,0.12625079130750771,-0.005902047397790856,0.005811030073163984,0.0,0.0,0.0,0.0,0.0,0.0,0.0,0.0,0.0
10.051,283,10,51000000,base_footprint,0.0027083409341184823,0.0027758169099086185,-0.7003215251378786,0.7138170081739599,0.0,0.0,0.0,0.0,0.0,0.0,0.0,0.0,0.0,-0.000997727559032611,-0.0005820102901025052,0.04942147794203669,0.0,0.0,0.0,0.0,0.0,0.0,0.0,0.0,0.0,0.08784984142585486,-0.005123928440581987,-0.002429307016435085,0.0,0.0,0.0,0.0,0.0,0.0,0.0,0.0,0.0
10.085,284,10,85000000,base_footprint,0.002701263088527927,0.0027714316372723425,-0.6998315456521448,0.7142974380848196,0.0,0.0,0.0,0.0,0.0,0.0,0.0,0.0,0.0,3.1668946294087356e-05,4.114363140712609e-05,0.02160342486863405,0.0,0.0,0.0,0.0,0.0,0.0,0.0,0.0,0.0,0.24347381277267938,-0.00030937537477392085,0.0005336132977022081,0.0,0.0,0.0,0.0,0.0,0.0,0.0,0.0,0.0
10.119,285,10,119000000,base_footprint,0.002700490662806851,0.002776797516762595,-0.6993732770863517,0.714746119991727,0.0,0.0,0.0,0.0,0.0,0.0,0.0,0.0,0.0,0.00022616155962624856,-0.0005735563328017152,0.03825583987938022,0.0,0.0,0.0,0.0,0.0,0.0,0.0,0.0,0.0,0.09365497149165122,-0.00035436419306211775,-0.0008581012343641665,0.0,0.0,0.0,0.0,0.0,0.0,0.0,0.0,0.0
10.153,286,10,153000000,base_footprint,0.0026970827569584525,0.0027762083638182633,-0.6988773304410908,0.7152310783287155,0.0,0.0,0.0,0.0,0.0,0.0,0.0,0.0,0.0,-2.9527402525258063e-05,-8.778791380080773e-05,0.04130467446045748,0.0,0.0,0.0,0.0,0.0,0.0,0.0,0.0,0.0,0.005271580283706237,-0.006794789453795175,0.0007534166197085253,0.0,0.0,0.0,0.0,0.0,0.0,0.0,0.0,0.0
10.187,287,10,187000000,base_footprint,0.0026929396937215946,0.0027739283492316954,-0.6984273318853119,0.715670535562897,0.0,0.0,0.0,0.0,0.0,0.0,0.0,0.0,0.0,0.00027395627826064695,-0.0020955648945716132,0.03842459994486437,0.0,0.0,0.0,0.0,0.0,0.0,0.0,0.0,0.0,0.3349832548828581,0.014431325862675398,-0.0028174893427267297,0.0,0.0,0.0,0.0,0.0,0.0,0.0,0.0,0.0
10.221,288,10,221000000,base_footprint,0.002690275294238913,0.0027762705100196645,-0.6980022170545518,0.7160851623430182,0.0,0.0,0.0,0.0,0.0,0.0,0.0,0.0,0.0,-9.701173570574516e-05,0.00010508747588871829,0.034400718905353324,0.0,0.0,0.0,0.0,0.0,0.0,0.0,0.0,0.0,-0.001350243363032013,-0.008958978678423277,0.0032744545755451298,0.0,0.0,0.0,0.0,0.0,0.0,0.0,0.0,0.0
10.255,289,10,255000000,base_footprint,0.002687513745427689,0.002775255971516743,-0.6975846478027711,0.7164919639284482,0.0,0.0,0.0,0.0,0.0,0.0,0.0,0.0,0.0,-9.778048644743512e-05,2.7280827217313864e-05,0.0342147646964646,0.0,0.0,0.0,0.0,0.0,0.0,0.0,0.0,0.0,-0.0036169566363208143,-0.005465915340606522,-0.00015272538984014198,0.0,0.0,0.0,0.0,0.0,0.0,0.0,0.0,0.0
10.289,290,10,289000000,base_footprint,0.002684657172648867,0.002774999645723116,-0.6970805858671805,0.7169823908576137,0.0,0.0,0.0,0.0,0.0,0.0,0.0,0.0,0.0,-6.721392249547063e-05,0.00020032083226142463,0.048363756193180854,0.0,0.0,0.0,0.0,0.0,0.0,0.0,0.0,0.0,0.3252286090709049,0.011563136869165769,0.0002040244000758762,0.0,0.0,0.0,0.0,0.0,0.0,0.0,0.0,0.0
10.323,291,10,323000000,base_footprint,0.0026827027717699994,0.002776491793659668,-0.6965056084279647,0.7175409616374169,0.0,0.0,0.0,0.0,0.0,0.0,0.0,0.0,0.0,-7.725596713848082e-05,-0.00019371870296859005,0.04689965147819084,0.0,0.0,0.0,0.0,0.0,0.0,0.0,0.0,0.0,0.011609671641466996,-0.0052510158533912756,-0.0004380796475429912,0.0,0.0,0.0,0.0,0.0,0.0,0.0,0.0,0.0
10.357,292,10,357000000,base_footprint,0.0026808519698144854,0.0027781282965680812,-0.6959347894379874,0.7180946065009735,0.0,0.0,0.0,0.0,0.0,0.0,0.0,0.0,0.0,-7.928011235866932e-05,-0.0001808142608325636,0.0466766469330058,0.0,0.0,0.0,0.0,0.0,0.0,0.0,0.0,0.0,-0.0033271993589757947,-0.006660843925031958,-6.437587208787998e-05,0.0,0.0,0.0,0.0,0.0,0.0,0.0,0.0,0.0
10.391,293,10,391000000,base_footprint,0.0026793525778708526,0.0027799375361070595,-0.69540212526654,0.7186104488468271,0.0,0.0,0.0,0.0,0.0,0.0,0.0,0.0,0.0,-4.908912016235507e-05,-0.0002936821687380919,0.039701144179292415,0.0,0.0,0.0,0.0,0.0,0.0,0.0,0.0,0.0,0.3212173924064001,0.014608570571237933,-0.00019998001091077228,0.0,0.0,0.0,0.0,0.0,0.0,0.0,0.0,0.0
10.425,294,10,425000000,base_footprint,0.0026786600480500594,0.0027823316923568484,-0.6949151324368413,0.719081387689174,0.0,0.0,0.0,0.0,0.0,0.0,0.0,0.0,0.0,-7.705662092440604e-05,-0.00019517776567822418,0.039838051604274394,0.0,0.0,0.0,0.0,0.0,0.0,0.0,0.0,0.0,0.010889217933910747,-0.003931564343817766,5.334973950120548e-05,0.0,0.0,0.0,0.0,0.0,0.0,0.0,0.0,0.0
10.459,295,10,459000000,base_footprint,0.002678250427666718,0.002784966091045501,-0.6944294914603695,0.7195503820641131,0.0,0.0,0.0,0.0,0.0,0.0,0.0,0.0,0.0,-8.023446874270785e-05,-0.0002183173856740724,0.03960572075282298,0.0,0.0,0.0,0.0,0.0,0.0,0.0,0.0,0.0,-0.002922903989600112,-0.00515648927409442,-0.00010492980819956086,0.0,0.0,0.0,0.0,0.0,0.0,0.0,0.0,0.0
10.493,296,10,493000000,base_footprint,0.002678188914356273,0.0027877959166977355,-0.6939651993412411,0.7199981649985905,0.0,0.0,0.0,0.0,0.0,0.0,0.0,0.0,0.0,-7.101328532908564e-05,-0.00033140938959952507,0.03086521089798637,0.0,0.0,0.0,0.0,0.0,0.0,0.0,0.0,0.0,0.3321942826087553,0.019468594116291205,-0.00011707118915829878,0.0,0.0,0.0,0.0,0.0,0.0,0.0,0.0,0.0
10.527,297,10,527000000,base_footprint,0.0026783828724230413,0.0027908515041366296,-0.6935752541749902,0.7203737947823813,0.0,0.0,0.0,0.0,0.0,0.0,0.0,0.0,0.0,-0.00013106803172098397,-0.0002186090122455031,0.03172330407423782,0.0,0.0,0.0,0.0,0.0,0.0,0.0,0.0,0.0,0.0007897918510791932,-0.0031764517183480645,-8.130592848176407e-05,0.0,0.0,0.0,0.0,0.0,0.0,0.0,0.0,0.0
10.561,298,10,561000000,base_footprint,0.0026782961277543446,0.0027941230957253395,-0.6931888830779283,0.7207455806199248,0.0,0.0,0.0,0.0,0.0,0.0,0.0,0.0,0.0,0.0005295923829669556,-7.246488010104836e-05,0.029407147058086735,0.0,0.0,0.0,0.0,0.0,0.0,0.0,0.0,0.0,-0.0033944077979705346,-0.002833277195212587,-0.00012269627750647477,0.0,0.0,0.0,0.0,0.0,0.0,0.0,0.0,0.0
10.594,299,10,595000000,base_footprint,0.002679274659582631,0.002796079158911991,-0.6929009722409747,0.7210223617171299,0.0,0.0,0.0,0.0,0.0,0.0,0.0,0.0,0.0,-4.7155878273676576e-05,-0.00012522051646505746,0.022998195107884978,0.0,0.0,0.0,0.0,0.0,0.0,0.0,0.0,0.0,-0.003139280778204613,-0.002771073949987393,-3.90568154652843e-05,0.0,0.0,0.0,0.0,0.0,0.0,0.0,0.0,0.0
10.629,300,10,629000000,base_footprint,0.00267938343079163,0.002797932323016564,-0.6926244013950983,0.7212880361348223,0.0,0.0,0.0,0.0,0.0,0.0,0.0,0.0,0.0,-2.326006824686207e-05,-0.00013300274194389777,0.022188729770463274,0.0,0.0,0.0,0.0,0.0,0.0,0.0,0.0,0.0,-0.0002980784865168173,-0.0023329862880886974,-6.038462927169427e-05,0.0,0.0,0.0,0.0,0.0,0.0,0.0,0.0,0.0
10.663,301,10,663000000,base_footprint,0.0026826150566447156,0.0027960111922293437,-0.6923417722807452,0.7215593227538727,0.0,0.0,0.0,0.0,0.0,0.0,0.0,0.0,0.0,-0.00189348791539628,0.00017168855574097172,0.040523650513130116,0.0,0.0,0.0,0.0,0.0,0.0,0.0,0.0,0.0,0.015294351268558552,-0.00508089361070953,0.0020139697036657854,0.0,0.0,0.0,0.0,0.0,0.0,0.0,0.0,0.0
10.697,302,10,697000000,base_footprint,0.0026749362399794852,0.0028077389382912344,-0.6914423124479211,0.7224212689801139,0.0,0.0,0.0,0.0,0.0,0.0,0.0,0.0,0.0,1.0862714094211746e-05,-0.00043917745769588213,0.0740933634450123,0.0,0.0,0.0,0.0,0.0,0.0,0.0,0.0,0.0,0.0020888521263119717,4.7052478371023684e-05,-0.001933816120881041,0.0,0.0,0.0,0.0,0.0,0.0,0.0,0.0,0.0
10.731,303,10,731000000,base_footprint,0.002665814544211488,0.002809080857333601,-0.6904997172275747,0.7233222953885718,0.0,0.0,0.0,0.0,0.0,0.0,0.0,0.0,0.0,9.460129389318694e-05,-0.00016494033095380308,0.07868940863051195,0.0,0.0,0.0,0.0,0.0,0.0,0.0,0.0,0.0,-0.0011000233332489028,-0.010283346098591474,0.0005074812482083098,0.0,0.0,0.0,0.0,0.0,0.0,0.0,0.0,0.0
10.765,304,10,765000000,base_footprint,0.0026601719342593953,0.0028128900286646984,-0.6896121345836972,0.7241685680626324,0.0,0.0,0.0,0.0,0.0,0.0,0.0,0.0,0.0,-0.0015901263749068903,0.0007541962309439877,0.05546610178480081,0.0,0.0,0.0,0.0,0.0,0.0,0.0,0.0,0.0,0.01700121068188579,-0.011016316039866315,0.003699400579100234,0.0,0.0,0.0,0.0,0.0,0.0,0.0,0.0,0.0
10.799,305,10,799000000,base_footprint,0.002660486765452961,0.0028076901676459803,-0.6893846164893878,0.7243851801589215,0.0,0.0,0.0,0.0,0.0,0.0,0.0,0.0,0.0,-0.000369351863569538,-0.0015590306324525958,0.0023474593489188093,0.0,0.0,0.0,0.0,0.0,0.0,0.0,0.0,0.0,0.002698369121155976,-0.0009331595248217644,-0.00726440560212936,0.0,0.0,0.0,0.0,0.0,0.0,0.0,0.0,0.0
10.832,306,10,833000000,base_footprint,0.002660718955081811,0.002807301640396154,-0.6892001772434719,0.7245606636574393,0.0,0.0,0.0,0.0,0.0,0.0,0.0,0.0,0.0,-0.0005248195455821016,-7.560793508944625e-05,0.018966926532195432,0.0,0.0,0.0,0.0,0.0,0.0,0.0,0.0,0.0,0.016829530138660728,-0.007617651629407596,0.003030698068021899,0.0,0.0,0.0,0.0,0.0,0.0,0.0,0.0,0.0
10.867,307,10,867000000,base_footprint,0.002650422202081692,0.0028113863708825915,-0.6887376281342018,0.7250003799729338,0.0,0.0,0.0,0.0,0.0,0.0,0.0,0.0,0.0,0.0016474582665892499,0.0027976692748401407,0.07288406291937248,0.0,0.0,0.0,0.0,0.0,0.0,0.0,0.0,0.0,0.0355752868259485,0.000975921336289886,0.004048923465647608,0.0,0.0,0.0,0.0,0.0,0.0,0.0,0.0,0.0
10.901,308,10,901000000,base_footprint,0.002655786508401633,0.0028198893484377642,-0.6872929836114077,0.7263699812771819,0.0,0.0,0.0,0.0,0.0,0.0,0.0,0.0,0.0,0.0004195259036470176,-0.0013584452712746844,0.1256952781172092,0.0,0.0,0.0,0.0,0.0,0.0,0.0,0.0,0.0,-0.00454431693591525,-0.008356258630967284,-0.005422233873957157,0.0,0.0,0.0,0.0,0.0,0.0,0.0,0.0,0.0
10.935,309,10,935000000,base_footprint,0.002649855188574184,0.00282675802863989,-0.685799516829738,0.7277801937553845,0.0,0.0,0.0,0.0,0.0,0.0,0.0,0.0,0.0,-8.669479450425157e-06,-0.0007870849552774678,0.12307171393605576,0.0,0.0,0.0,0.0,0.0,0.0,0.0,0.0,0.0,-0.010021815468910693,-0.016895967716371488,0.0010850028615168273,0.0,0.0,0.0,0.0,0.0,0.0,0.0,0.0,0.0
10.969,310,10,969000000,base_footprint,0.0026424089848050597,0.0028321417498312997,-0.6842801836451686,0.7292089048540208,0.0,0.0,0.0,0.0,0.0,0.0,0.0,0.0,0.0,0.0001238597152794126,-0.0006850183906743247,0.12307096539327844,0.0,0.0,0.0,0.0,0.0,0.0,0.0,0.0,0.0,-0.000311019103361258,-0.01307143962907351,0.0001866658045511009,0.0,0.0,0.0,0.0,0.0,0.0,0.0,0.0,0.0
11.003,311,11,3000000,base_footprint,0.0026331518203397647,0.0028196493852296143,-0.6829201796451997,0.7304828158979537,0.0,0.0,0.0,0.0,0.0,0.0,0.0,0.0,0.0,-0.00141736259910895,0.005376481296890757,0.03309832113636159,0.0,0.0,0.0,0.0,0.0,0.0,0.0,0.0,0.0,0.03594237394644788,-0.005456425323616504,0.009853184038512392,0.0,0.0,0.0,0.0,0.0,0.0,0.0,0.0,0.0
11.037,312,11,37000000,base_footprint,0.002632964291292331,0.0028330475203248886,-0.6828331415010565,0.730564126007147,0.0,0.0,0.0,0.0,0.0,0.0,0.0,0.0,0.0,6.246307213992606e-05,0.0001245340973463957,0.0031682228264231695,0.0,0.0,0.0,0.0,0.0,0.0,0.0,0.0,0.0,-0.0666136025289677,-0.012803781967266614,-0.010122380222894814,0.0,0.0,0.0,0.0,0.0,0.0,0.0,0.0,0.0
11.071,313,11,71000000,base_footprint,0.0026317206929202443,0.0028321310711294755,-0.6828172485822764,0.7305789882814315,0.0,0.0,0.0,0.0,0.0,0.0,0.0,0.0,0.0,9.266830406071188e-06,3.5308313005195274e-06,-0.003067306313755122,0.0,0.0,0.0,0.0,0.0,0.0,0.0,0.0,0.0,-0.004615460885060222,-0.001664667905543461,-0.00016232315796797244,0.0,0.0,0.0,0.0,0.0,0.0,0.0,0.0,0.0
11.105,314,11,105000000,base_footprint,0.0026311703129836142,0.002831208892851796,-0.6828514139898992,0.7305470605039655,0.0,0.0,0.0,0.0,0.0,0.0,0.0,0.0,0.0,-0.00011129861009903251,0.0003039874411276809,-0.002662604682624579,0.0,0.0,0.0,0.0,0.0,0.0,0.0,0.0,0.0,-0.001994116985508407,0.00030696842016373065,0.0005390569987513963,0.0,0.0,0.0,0.0,0.0,0.0,0.0,0.0,0.0
11.139,315,11,139000000,base_footprint,0.0026308189972685564,0.0028291239833253684,-0.6828862572243595,0.7305144998855236,0.0,0.0,0.0,0.0,0.0,0.0,0.0,0.0,0.0,-0.0001216622807436191,0.0002687140547306854,-0.0028712170155624564,0.0,0.0,0.0,0.0,0.0,0.0,0.0,0.0,0.0,-0.0030324454674757416,-0.000159073578336917,-3.761829810462299e-05,0.0,0.0,0.0,0.0,0.0,0.0,0.0,0.0,0.0
11.173,316,11,173000000,base_footprint,0.002630935697291228,0.0028275255877213933,-0.6829461494936325,0.7304585136530538,0.0,0.0,0.0,0.0,0.0,0.0,0.0,0.0,0.0,-0.0001427310980187413,0.00034693558974424057,-0.008317448537357258,0.0,0.0,0.0,0.0,0.0,0.0,0.0,0.0,0.0,-0.004605920156595487,-0.0003587840636164901,3.904643052379171e-05,0.0,0.0,0.0,0.0,0.0,0.0,0.0,0.0,0.0
11.207,317,11,207000000,base_footprint,0.0026314549112149196,0.0028260642607036545,-0.6830498244917885,0.7303615721460034,0.0,0.0,0.0,0.0,0.0,0.0,0.0,0.0,0.0,-0.0001155460297012529,0.0002635991398355326,-0.008418142166620454,0.0,0.0,0.0,0.0,0.0,0.0,0.0,0.0,0.0,-0.0030146008026983077,0.0007793787494341125,-0.00012222449699172128,0.0,0.0,0.0,0.0,0.0,0.0,0.0,0.0,0.0
11.241,318,11,241000000,base_footprint,0.002632276883592383,0.0028250835809875362,-0.6831561677409992,0.7302621039726768,0.0,0.0,0.0,0.0,0.0,0.0,0.0,0.0,0.0,-0.0001134318981259058,0.00024407232804941385,-0.008650495594810672,0.0,0.0,0.0,0.0,0.0,0.0,0.0,0.0,0.0,-0.003208113153134328,0.0005807134897964762,-3.8089719151346865e-05,0.0,0.0,0.0,0.0,0.0,0.0,0.0,0.0,0.0
11.275,319,11,275000000,base_footprint,0.0026332037625311417,0.002824702709519894,-0.6832104719539779,0.7302112970263954,0.0,0.0,0.0,0.0,0.0,0.0,0.0,0.0,0.0,-0.00010943345637129117,0.00010968157216952746,0.0019300706985905915,0.0,0.0,0.0,0.0,0.0,0.0,0.0,0.0,0.0,-0.0002506488545650802,0.0009498091224324709,-5.9288646361842866e-05,0.0,0.0,0.0,0.0,0.0,0.0,0.0,0.0,0.0
11.309,320,11,309000000,base_footprint,0.0026340820397542973,0.002824869571432101,-0.6831901111983364,0.730230342894978,0.0,0.0,0.0,0.0,0.0,0.0,0.0,0.0,0.0,-0.00010801575510014567,0.00011777783547393367,0.001530384980786294,0.0,0.0,0.0,0.0,0.0,0.0,0.0,0.0,0.0,-0.0031225722541634846,-0.0009130922532432631,-4.301546979336041e-05,0.0,0.0,0.0,0.0,0.0,0.0,0.0,0.0,0.0
11.343,321,11,343000000,base_footprint,0.002635361163904705,0.002825443906838602,-0.6831731350960933,0.7302462182176915,0.0,0.0,0.0,0.0,0.0,0.0,0.0,0.0,0.0,-0.00010962551484441863,9.06390214544758e-05,0.0012583078632320106,0.0,0.0,0.0,0.0,0.0,0.0,0.0,0.0,0.0,-0.002959682825887145,-0.0005066331853640161,-6.854461488429322e-05,0.0,0.0,0.0,0.0,0.0,0.0,0.0,0.0,0.0
11.377,322,11,377000000,base_footprint,0.0026371705066872944,0.0028262158103505163,-0.6831963510581665,0.7302244885901311,0.0,0.0,0.0,0.0,0.0,0.0,0.0,0.0,0.0,-9.232428027354586e-05,5.262418193902575e-05,-0.00533795566518455,0.0,0.0,0.0,0.0,0.0,0.0,0.0,0.0,0.0,-0.004466792234934105,-0.0005139923562622745,-0.00015914673752940803,0.0,0.0,0.0,0.0,0.0,0.0,0.0,0.0,0.0
11.411,323,11,411000000,base_footprint,0.002638913857184897,0.002827191439469981,-0.6832646279657068,0.7301605928103101,0.0,0.0,0.0,0.0,0.0,0.0,0.0,0.0,0.0,-0.0001499449120445969,9.912905053090405e-05,-0.005710009256139856,0.0,0.0,0.0,0.0,0.0,0.0,0.0,0.0,0.0,-0.002732189057674578,0.0006264799139045561,-2.808415801387084e-05,0.0,0.0,0.0,0.0,0.0,0.0,0.0,0.0,0.0
11.445,324,11,445000000,base_footprint,0.002640432412075084,0.0028282856010464924,-0.6833391535737954,0.7300908368896882,0.0,0.0,0.0,0.0,0.0,0.0,0.0,0.0,0.0,-0.0001315476990301474,7.81099244927265e-05,-0.0063239851315948625,0.0,0.0,0.0,0.0,0.0,0.0,0.0,0.0,0.0,-0.002181963414655303,0.0005230961063925308,-6.431586611324702e-05,0.0,0.0,0.0,0.0,0.0,0.0,0.0,0.0,0.0
11.479,325,11,479000000,base_footprint,0.0026423229250468285,0.002829670333596423,-0.6834694245165533,0.7299688738887258,0.0,0.0,0.0,0.0,0.0,0.0,0.0,0.0,0.0,3.285848221086748e-05,0.00011933657839913093,-0.014155976482946355,0.0,0.0,0.0,0.0,0.0,0.0,0.0,0.0,0.0,-0.0030863518896296835,0.0003859631762370712,-0.00024730052956557953,0.0,0.0,0.0,0.0,0.0,0.0,0.0,0.0,0.0
11.513,326,11,513000000,base_footprint,0.0026444185842190732,0.0028299235100334233,-0.6836513114298782,0.72979852217135,0.0,0.0,0.0,0.0,0.0,0.0,0.0,0.0,0.0,-5.989102668486934e-05,0.00017046661820426632,-0.015115544088368007,0.0,0.0,0.0,0.0,0.0,0.0,0.0,0.0,0.0,-0.00034371486798815266,0.0027291998147109782,0.00014899882827282995,0.0,0.0,0.0,0.0,0.0,0.0,0.0,0.0,0.0
11.547,327,11,547000000,base_footprint,0.0026459209675594175,0.0028296760048610314,-0.6838439312631893,0.7296180300064189,0.0,0.0,0.0,0.0,0.0,0.0,0.0,0.0,0.0,-5.3192308893386755e-05,0.0001928520316679324,-0.015934408448167053,0.0,0.0,0.0,0.0,0.0,0.0,0.0,0.0,0.0,0.00023776745655765394,0.0022688174267480174,3.9405118105213414e-05,0.0,0.0,0.0,0.0,0.0,0.0,0.0,0.0,0.0
11.581,328,11,581000000,base_footprint,0.0026458455561443354,0.0028295513820846916,-0.6840017163766074,0.729470112570847,0.0,0.0,0.0,0.0,0.0,0.0,0.0,0.0,0.0,-8.040701636592662e-05,0.0001385550472260493,-0.009190441382491959,0.0,0.0,0.0,0.0,0.0,0.0,0.0,0.0,0.0,0.00146238799906659,0.0017691533628594691,6.0078183261455026e-05,0.0,0.0,0.0,0.0,0.0,0.0,0.0,0.0,0.0
