Time,linear_velocity_x,angular_velocity_yaw,linear_acceleration_x,angular_acceleration_yaw,kinematic_delta_x,kinematic_delta_y,kinematic_delta_yaw
0.224,-1.719066604941908e-06,3.1609339760266977e-06,8.661157670337046e-06,7.82394050078456e-05,-5.7244917944565434e-08,-3.0189610731283816e-15,1.0525910140168904e-07
0.257,-6.015785589794773e-06,6.944124572658213e-06,-0.00012903060014573167,0.00011360932722617162,-2.003256601401606e-07,-4.4339010929834595e-14,2.3123934826951851e-07
0.29100000000000004,-4.55518075023628e-06,4.020671641470642e-06,4.386200719394874e-05,-8.779137931494206e-05,-1.5168751898285569e-07,-6.112987487131434e-14,1.338883656609724e-07
0.323,-4.0718697231607435e-06,8.634156008776321e-06,1.451384465692301e-05,0.00013854307409326362,-1.3559326178122675e-07,-8.324944313466054e-14,2.875173950922515e-07
0.35700000000000004,9.329864452463428e-06,-8.276266867880901e-05,0.00040245447974847354,-0.0027446493900175773,3.106844862668742e-07,-1.926523661477285e-13,-2.7559968670043403e-06
0.391,1.102374961292818e-05,-1.1178698180338444e-05,5.086742223617874e-05,0.0021496687837378545,3.6709086210963067e-07,-8.019660225807841e-13,-3.722506494052702e-07
0.42400000000000004,3.27024111654281e-07,2.972367833346349e-06,-0.0003212229880262432,0.0004249569373478916,1.0889902918058192e-08,-2.5284699531008554e-14,9.897984885043344e-08
0.457,-6.872089472050998e-08,7.344636571099355e-06,-1.1884234425669398e-05,0.00013129936149408426,-2.288405794187694e-09,4.917642775786013e-15,2.4457639781760855e-07
0.49100000000000005,-6.027458072194831e-08,7.79078378436675e-06,2.536430630198699e-07,1.3397814212234072e-05,-2.0071435380372628e-09,3.807684950673675e-15,2.594331000194128e-07
0.524,-4.9631982207771e-08,7.969990913482962e-06,3.195975529782976e-07,5.3815954689553375e-06,-1.6527450075165614e-09,2.701895693128982e-15,2.654006974189827e-07
0.558,-4.17762967762846e-08,8.302143105119917e-06,2.3590646941400604e-07,9.974540289398024e-06,-1.3911506826489794e-09,1.8977784085990766e-15,2.764613654004933e-07
0.5910000000000001,-3.272335479664262e-08,8.114188294745678e-06,2.71860119508768e-07,-5.644288599826983e-06,-1.0896877147275474e-09,1.1878462182654332e-15,2.702024702150311e-07
0.624,-2.5852306441731554e-08,8.150465277164705e-06,2.0633778843576778e-07,1.089398871442249e-06,-8.608818045093691e-10,7.053555254222736e-16,2.714104937295847e-07
0.658,-1.9988489302174667e-08,8.419199211169311e-06,1.7609060479149808e-07,8.070088108246435e-06,-6.65616693762316e-10,3.6190114188360175e-16,2.803593337319381e-07
0.6910000000000001,-1.319703049543217e-08,8.178460186358326e-06,2.0394771191418906e-07,-7.229400144474026e-06,-4.394611154978742e-10,1.175218841557625e-16,2.723427242057323e-07
0.7230000000000001,-7.079885706723764e-09,8.171644586722086e-06,1.836980417029551e-07,-2.046726617489596e-07,-2.357601940339006e-10,-1.0580828918698119e-18,2.721157647378455e-07
0.757,-6.244409994096217e-10,8.397432966706869e-06,1.938571984178421e-07,6.7804318313748725e-06,-2.079388528033952e-11,-5.845051632941529e-18,2.796345177913388e-07
0.791,6.41100281970923e-09,8.113584135880579e-06,2.1127458916272827e-07,-8.523988913702401e-06,2.1348639389628376e-10,1.1869194598102533e-16,2.701823517248233e-07
0.8230000000000001,1.41810857751354e-08,8.059408328896932e-06,2.3333582448727234e-07,-1.6269011106200436e-06,4.72230156311847e-10,3.8933536343333124e-16,2.6837829735226786e-07
0.8570000000000001,2.4056734302311174e-08,8.224344414206982e-06,2.965660218371103e-07,4.9530355948964175e-06,8.010892522664782e-10,8.781168271571562e-16,2.7387066899309255e-07
0.89,3.4321905077776306e-08,7.877996395373594e-06,3.0826338665060456e-07,-1.0400841406408045e-05,1.1429194390888837e-09,1.5589283084409197e-15,2.6233727996594074e-07
0.924,4.758821649054702e-08,7.740314820023727e-06,3.9838773011323463e-07,-4.134581842338352e-06,1.5846876091331213e-09,2.573994211109561e-15,2.5775248350679013e-07
0.9570000000000001,6.642344092173319e-08,7.783319098340289e-06,5.656223552908758e-07,1.2914197692661118e-06,2.211900582689789e-09,4.165090546964556e-15,2.5918452597473166e-07
0.9910000000000001,8.595048740801814e-08,7.3080527315380185e-06,5.863977923809296e-07,-1.4272263267335444e-05,2.8621512306804843e-09,6.105642950457743e-15,2.4335815596021604e-07
1.024,1.1307413620046561e-07,6.98837207871775e-06,8.14523987761185e-07,-9.600019604212269e-06,3.765368735464907e-09,8.933382878131682e-15,2.327127902213011e-07
1.058,1.5274966524880705e-07,6.765072272144393e-06,1.1914573287790223e-06,-6.705699897097808e-06,5.086563852768051e-09,1.3230840752603658e-14,2.2527690666240832e-07
1.09,1.923627378307251e-07,6.030444209558259e-06,1.1895817592167577e-06,-2.2060902780364386e-05,6.405679169737779e-09,1.8026012081014026e-14,2.0081379217829003e-07
1.123,2.4474683665117566e-07,5.389499619863287e-06,1.5730960606741913e-06,-1.9247585276125278e-05,8.150069660447357e-09,2.448260070118323e-14,1.7947033734144746e-07
1.157,3.142872327553557e-07,4.7893303212198646e-06,2.0883001833087104e-06,-1.8023102061364033e-05,1.0465764850700623e-08,3.32148097832593e-14,1.5948469969662152e-07
1.19,-3.8236053707814285e-06,5.6268040071649636e-05,-0.00012426103914524878,0.0015459071997126056,-1.2732605884588515e-07,-5.335284903148313e-13,1.8737257343859331e-06
1.224,2.507825021521011e-07,5.348431747037135e-06,0.00012235399017818406,-0.0015291173671054805,8.35105732155133e-09,4.3561484817611904e-14,1.7810277717633662e-07
1.258,2.039312898329578e-07,6.200882098585594e-06,-1.406943312887187e-06,2.5599109656109873e-05,6.790911951338193e-09,3.672784357972987e-14,2.0648937388290029e-07
1.291,1.5412102649159044e-07,6.574784448608125e-06,-1.4958037039449653e-06,1.1228298799475412e-05,5.13223018208886e-09,2.884870354990535e-14,2.189403221386506e-07
1.323,1.1985709557982083e-07,7.010857273604943e-06,-1.0289468742273157e-06,1.3095280029934463e-05,3.991241282739806e-09,2.3338165105908212e-14,2.334615472110446e-07
1.357,9.569856706881005e-08,7.578145636536419e-06,-7.254813366669902e-07,1.703568657451879e-05,3.1867622833322666e-09,1.940809620920145e-14,2.5235224969666275e-07
1.3900000000000001,7.21577237600902e-08,7.620988127352707e-06,-7.069322314930888e-07,1.286561285774433e-06,2.4028522011626533e-09,1.5243325451200636e-14,2.5377890464084515e-07
1.424,5.646367961775455e-08,7.823200294783657e-06,-4.712926168869562e-07,6.072437460388894e-06,1.8802405312302577e-09,1.241052909517169e-14,2.605125698162958e-07
1.457,4.5472961492361555e-08,8.22486817442136e-06,-3.30051595357147e-07,1.2062098487618711e-05,1.5142496176599284e-09,1.039918251311285e-14,2.7388811020823135e-07
1.49,3.450816193356082e-08,8.108536695937105e-06,-3.292732600240461e-07,-3.493437792319988e-06,1.1491217923582845e-09,8.204258729704665e-15,2.7001427197470564e-07
1.524,2.7023680070458297e-08,8.206872266354331e-06,-2.2475921510818384e-07,2.95302013264943e-06,8.998885463215443e-10,6.669193291274777e-15,2.732888464695992e-07
1.558,2.1593670835413176e-08,8.538319221821525e-06,-1.6306334039174535e-07,9.953362026041855e-06,7.190692387979922e-10,5.529657755578073e-15,2.843260300866568e-07
1.5910000000000002,1.606455897236221e-08,8.352559253353096e-06,-1.660393952868158e-07,-5.578377431484359e-06,5.349498137626642e-10,4.264199713288759e-15,2.781402231366581e-07
1.624,1.2134105212105276e-08,8.405537915351017e-06,-1.1803164445216014e-07,1.5909508107483915e-06,4.040657035493536e-10,3.333938364610986e-15,2.799044125811889e-07
1.657,9.116239455012077e-09,8.706327954873435e-06,-9.062659931210804e-08,9.03273391959214e-06,3.0357077384084204e-10,2.5909678896214793e-15,2.899207208972854e-07
1.69,6.117279455759012e-09,8.48780389966602e-06,-9.005885883642839e-08,-6.562283940162634e-06,2.037054058688485e-10,1.7970643493322845e-15,2.826438698588785e-07
1.723,3.86278268630728e-09,8.519128957829025e-06,-6.77026056892412e-08,9.406924373274965e-07,1.2863066344870035e-10,1.1711154291564438e-15,2.836869942957066e-07
1.7570000000000001,1.9876271599576912e-09,8.805270055132028e-06,-5.6310976767254904e-08,8.592825744834904e-06,6.618798442367116e-11,6.21694061280589e-16,2.9321549283589656e-07
1.791,2.837078320053993e-10,8.569669266003832e-06,-5.1168748587155906e-08,-7.075098772618499e-06,9.447470805336914e-12,9.1476068635766e-17,2.853699865579276e-07
1.824,-1.1048604273753715e-09,8.589628226914179e-06,-4.169874652795108e-08,5.993681955059153e-07,-3.67918522297718e-11,-3.667516893352273e-16,2.860346199562422e-07
1.858,-2.3904568014732863e-09,8.868132833178104e-06,-3.86064977206581e-08,8.363501689607364e-06,-7.960221148487127e-11,-8.166399963126544e-16,2.953088233448309e-07
1.888,-3.3738915565255115e-09,8.622820437155821e-06,-2.953257522679355e-08,-7.366738619287764e-06,-1.1235058882604679e-10,-1.1853098177749606e-15,2.8713992055728885e-07
1.919,-4.278705397994472e-09,8.63630869571394e-06,-2.7171586830899706e-08,4.0505280955309247e-07,-1.4248088974484783e-10,-1.5441279464880393e-15,2.875890795672742e-07
1.9580000000000002,-5.237507964863965e-09,8.910531043746104e-06,-2.8792869875960743e-08,8.234905346311269e-06,-1.7440901521916693e-10,-1.941088389514658e-15,2.967206837567453e-07
1.989,-5.79177070667825e-09,8.65928559037508e-06,-1.6644526781209754e-08,-7.544908509640359e-06,-1.9286596451980428e-10,-2.2029932079413524e-15,2.883542101594902e-07
2.023,-6.408517640477139e-09,8.668836587005402e-06,-1.8520928942909594e-08,2.868167156252755e-07,-2.134036374132547e-10,-2.498997194496234e-15,2.886722583472799e-07
2.058,-7.175270027786822e-09,8.940511032207866e-06,-2.3025597216506992e-08,8.158391747821728e-06,-2.3893649190808557e-10,-2.868184685896552e-15,2.9771901737252194e-07
2.091,-7.459321568834074e-09,8.685424206671559e-06,-8.53007630772527e-09,-7.660265031120324e-06,-2.483954082233917e-10,-3.0545219701218867e-15,2.8922462608216293e-07
2.123,-7.895351919796934e-09,8.692446416812236e-06,-1.309400453341922e-08,2.1087718140170914e-07,-2.6291521890841107e-10,-3.309318576921057e-15,2.894584656798475e-07
2.158,-8.543720525850189e-09,8.96253038251493e-06,-1.9470528710307957e-08,8.11062960068152e-06,-2.845058934872095e-10,-3.664619998290267e-15,2.984522617377472e-07
2.19,-8.649765988549899e-09,8.704835516068324e-06,-3.184548429420733e-09,-7.73858457797617e-06,-2.880372073937119e-10,-3.7947853118008885e-15,2.898710226850752e-07
2.223,-8.967451286041114e-09,8.710159205005332e-06,-9.540099023760199e-09,1.5987053864889834e-07,-2.9861612779809823e-10,-4.020795281160028e-15,2.900483015266776e-07
2.257,-9.53992708653584e-09,8.97921077281723e-06,-1.719146548032211e-08,8.079626661017928e-06,-3.1767957195157185e-10,-4.3710661267122164e-15,2.9900771873481374e-07
2.291,-9.524226932651199e-09,8.719675231110597e-06,4.714760926318761e-10,-7.79386011131027e-06,-3.171567568259611e-10,-4.457259278414874e-15,2.903651851959829e-07
2.324,-9.761589054600772e-09,8.723815236266109e-06,-7.127991650137349e-09,1.2432447914449557e-07,-3.250609154847615e-10,-4.662825267102602e-15,2.905030473676615e-07
2.357,-1.0283801037961329e-08,8.992174902586928e-06,-1.5682041542359055e-08,8.058848838463047e-06,-3.424505745274156e-10,-5.01326074341668e-15,2.9943942425614474e-07
2.391,-1.0182166141266452e-08,8.731296579638764e-06,3.0520989998461472e-09,-7.834183872317257e-06,-3.390661324663606e-10,-5.063601088137268e-15,2.9075217610197084e-07
2.423,-1.0363363300645365e-08,8.73458572887202e-06,-5.44135613750487e-09,9.877325024795001e-08,-3.4509999787149283e-10,-5.2543837756986634e-15,2.908617047714383e-07
2.457,-1.0851343007341336e-08,9.002469511095883e-06,-1.4654045246125276e-08,8.044558024740617e-06,-3.61349722100938e-10,-5.608271080318559e-15,2.997822347194929e-07
2.49,-1.0687421518346147e-08,8.740584617945238e-06,4.92256723709278e-09,-7.864411205725072e-06,-3.5589113651641085e-10,-5.628774918841681e-15,2.9106146777757645e-07
2.523,-1.0828308340071278e-08,8.743245628996344e-06,-4.230835487241167e-09,7.99102417749505e-08,-3.605826676776011e-10,-5.808214364657012e-15,2.9115007944557827e-07
2.558,-1.1292433054709794e-08,9.010795521647541e-06,-1.3937679118273757e-08,8.034531310846754e-06,-3.760380206712471e-10,-6.167829377275949e-15,3.0005949087086316e-07
2.591,-1.1082321646957913e-08,8.748137877264524e-06,6.309651884440863e-09,-7.88761694843896e-06,-3.6904131079224417e-10,-6.162375771241239e-15,2.9131299131290866e-07
2.624,-1.1193621325140419e-08,8.750324506020465e-06,-3.34233267815332e-09,6.566452720544352e-08,-3.72747590073381e-10,-6.3329184192968124e-15,2.913858060504815e-07
2.657,-1.1640783712338718e-08,9.017634566993599e-06,-1.3428299915864839e-08,8.027329158352363e-06,-3.8763809756296703e-10,-6.7006755624159795e-15,3.0028723108088684e-07
2.691,-1.139572972522632e-08,8.754372389670357e-06,7.3589785919638904e-09,-7.905771090788027e-06,-3.7947779979138266e-10,-6.671612075962813e-15,2.915206005760229e-07
2.724,-1.1484905279054466e-08,8.756193701040346e-06,-2.6779445594037864e-09,5.469403513479559e-08,-3.8244734573142584e-10,-6.835568260116312e-15,2.9158125024464355e-07
2.758,-1.1919796241135463e-08,9.023330147137252e-06,-1.3059788651080991e-08,8.022115498405594e-06,-3.9692921476429366e-10,-7.21186769129996e-15,3.0047689389967055e-07
2.79,-1.1647849771787986e-08,8.759585913477221e-06,8.166560641065393e-09,-7.920247257057997e-06,-3.878733973344131e-10,-7.16208544382766e-15,2.9169421091879147e-07
2.823,-1.1720180501778681e-08,8.761121101369904e-06,-2.1720939937145793e-09,4.610173851899959e-08,-3.9028201064057687e-10,-7.320400696924538e-15,2.9174533267561784e-07
2.858,-1.2146064614545969e-08,9.028130284902042e-06,-1.2789312695714333e-08,8.018293799763914e-06,-4.0446395159096464e-10,-7.706322833560257e-15,3.00636738487238e-07
2.89,-1.1853092041414137e-08,8.763996138415218e-06,8.797975169124062e-09,-7.931956350955683e-06,-3.947079649051992e-10,-7.63733219554832e-15,2.918410714092268e-07
2.924,-1.191241111759173e-08,8.76530385561301e-06,-1.7813536389667258e-09,3.9270786720498566e-08,-3.9668329013928976e-10,-7.791192414025329e-15,2.9188461839191326e-07
2.957,-1.2331606766755518e-08,9.03221849715321e-06,-1.2588457932846512e-08,8.015454700906917e-06,-4.106425052513359e-10,-8.187320702126817e-15,3.007728759552019e-07
2.991,-1.202196584524382e-08,8.767764378889627e-06,9.298526171522447e-09,-7.941565113020524e-06,-4.0033146256467183e-10,-8.100247151291128e-15,2.919665538170246e-07
3.024,-1.2071102155883092e-08,8.768888986303872e-06,-1.475564884062199e-09,3.377199442176358e-08,-4.01967701706233e-10,-8.250755802700125e-15,2.9200400324391895e-07
3.058,-1.2485259232878066e-08,9.035733351226629e-06,-1.2437149459308526e-08,8.013344291974683e-06,-4.157591323647048e-10,-8.657048089673816e-15,3.0088992059584677e-07
3.091,-1.2162264268773275e-08,8.771013727627653e-06,9.69954847161534e-09,-7.949538246215491e-06,-4.0500340005983323e-10,-8.552905257376933e-15,2.9207475713000086e-07
3.123,-1.220332275671081e-08,8.771988765495874e-06,-1.232987625751805e-09,2.928041646309614e-08,-4.0637064770532066e-10,-8.701142245067085e-15,2.921072258910126e-07
3.157,-1.2613651064585641e-08,9.03878086992057e-06,-1.2322171407652581e-08,8.01177490764851e-06,-4.200345803517397e-10,-9.117749410432535e-15,3.00991402968355e-07
3.19,-1.227981804329569e-08,8.773838336042684e-06,1.0025015654352882e-08,-7.956232248585137e-06,-4.0891794074274563e-10,-8.997795109092164e-15,2.921688165902214e-07
3.224,-1.2314416473522591e-08,8.774690253678221e-06,-1.0389918987057394e-09,2.558311217827883e-08,-4.10070068466376e-10,-9.143022288988131e-15,2.921971854474848e-07
3.258,-1.2721811592167024e-08,9.04144315172699e-06,-1.2234087646979963e-08,8.010597539002056e-06,-4.236363259110388e-10,-9.57110818757055e-15,3.010800569525088e-07
3.291,-1.2379105948517169e-08,8.776311847428347e-06,1.0291460770265915e-08,-7.961901029989276e-06,-4.1222422797763157e-10,-9.435526495781407e-15,2.9225118451936396e-07
3.323,-1.240846996724123e-08,8.77706134548956e-06,-8.818023640858969e-10,2.2507449285675336e-08,-4.132020497981081e-10,-9.57889877199949e-15,2.922761428048024e-07
3.358,-1.2813607432365432e-08,9.043785164696934e-06,-1.216629024397005e-08,8.009724300521755e-06,-4.266931273801618e-10,-1.0018027025073355e-14,3.0115804598440796e-07
3.391,-1.2463561554192631e-08,8.77849240846543e-06,1.0511888233417444e-08,-7.96674943638149e-06,-4.150365996373107e-10,-9.867649742362304e-15,2.9232379720189885e-07
3.424,-1.2488657155465369e-08,8.779156017773076e-06,-7.536216598419641e-10,1.992820743679264e-08,-4.158722831565477e-10,-1.000885333906158e-14,2.9234589539184346e-07
3.458,-1.2892039988107504e-08,9.0458583111562e-06,-1.2113598577841894e-08,8.00907787937312e-06,-4.293049314765605e-10,-1.045979016231108e-14,3.012270817615015e-07
3.491,-1.2535879961711309e-08,8.780426624516017e-06,1.0695496288174022e-08,-7.970921520726223e-06,-4.1744480259804044e-10,-1.0294577604725858e-14,2.923882065963834e-07
3.524,-1.2557452655292754e-08,8.78101740469355e-06,-6.478286360794382e-10,1.7741146472426737e-08,-4.181631732910566e-10,-1.0434645815885141e-14,2.924078795762952e-07
3.557,-1.2959477815201893e-08,9.04770403643052e-06,-1.2072827624899062e-08,8.008607559668798e-06,-4.3155061110865244e-10,-1.0897036130262243e-14,3.0128854441313633e-07
3.59,-1.2598184157547869e-08,8.782151859085838e-06,1.0849659389009723e-08,-7.974539860200672e-06,-4.1951953230943977e-10,-1.0717342991004486e-14,2.9244565690755845e-07
3.623,-1.2616841265438522e-08,8.78268081234341e-06,-5.602735102298137e-10,1.5884482209352025e-08,-4.201408139988364e-10,-1.0856332593944852e-14,2.9246327105103555e-07
3.658,-1.301778512813373e-08,9.049356271335968e-06,-1.204035623709334e-08,8.008272041818568e-06,-4.33492244618789e-10,-1.1330082440789202e-14,3.0134356383548776e-07
3.69,-1.2652157919944271e-08,8.783698687316906e-06,1.0979796041725486e-08,-7.97770522579765e-06,-4.213168585869512e-10,-1.1136850839059606e-14,2.9249716628765297e-07
3.724,-1.2668381338948868e-08,8.784174400879542e-06,-4.871897598978083e-10,1.428569257165956e-08,-4.2185709843633405e-10,-1.1274455885071307e-14,2.9251300754928876e-07
3.757,-1.3068481112084427e-08,9.050842235340506e-06,-1.2015008202269017e-08,8.008043076905829e-06,-4.3518042087351855e-10,-1.1759955332758757e-14,3.013930464368389e-07
3.79,-1.2699157601364935e-08,8.785092095228441e-06,1.1090796117702457e-08,-7.98048468805e-06,-4.2288194796763305e-10,-1.1553110632461071e-14,2.925435667711071e-07
3.824,-1.271333196875382e-08,8.785522017592459e-06,-4.2565667834487824e-10,1.2910581502024961e-08,-4.2335395439810294e-10,-1.1689949695978398e-14,2.925578831858289e-07
3.857,-1.3112766328215906e-08,9.052184967072072e-06,-1.1995025809672283e-08,8.007896380769171e-06,-4.366551185595249e-10,-1.2186607077345835e-14,3.0143775940350003e-07
3.89,-1.2740285623277356e-08,8.786353091540857e-06,1.1185606754911424e-08,-7.982939205141584e-06,-4.2425151108636583e-10,-1.1966691306714307e-14,2.925855579483106e-07
3.923,-1.2752725602254215e-08,8.78674319140518e-06,-3.7357294224801743e-10,1.1714710640311689e-08,-4.246657623826093e-10,-1.210272243954218e-14,2.9259854827379253e-07
3.958,-1.3151642857839067e-08,9.053403604875354e-06,-1.1979497164710277e-08,8.007820224329555e-06,-4.3794970698446404e-10,-1.2611226876186479e-14,3.014783400423493e-07
3.991,-1.27764380056664e-08,8.787499103754911e-06,1.1267412978158187e-08,-7.985120153767043e-06,-4.2545538540863267e-10,-1.2377933911899747e-14,2.9262372015503856e-07
4.024,-1.2787401047952196e-08,8.787854414630727e-06,-3.292204890629487e-10,1.0669996270747334e-08,-4.2582045471295514e-10,-1.2513094593727413e-14,2.9263555200720324e-07
4.058,-1.3185905940700477e-08,9.054513579350051e-06,-1.1967113896344785e-08,8.007782724304027e-06,-4.3909066763189256e-10,-1.303331149832291e-14,3.0151530219235676e-07
4.091,-1.2808346615554864e-08,8.78854428621401e-06,1.1338117872240618e-08,-7.987065859941199e-06,-4.265179421063013e-10,-1.2786961197172284e-14,2.9265852473092656e-07
4.123,-1.2818051445087455e-08,8.788869313506379e-06,-2.9143632230003414e-10,9.76057935043798e-09,-4.268411129258241e-10,-1.2921826136182785e-14,2.9266934813976245e-07
4.158,-1.3216232432768805e-08,9.055528896309687e-06,-1.1957387017457941e-08,8.007795279378615e-06,-4.401005398055602e-10,-1.3453618703071416e-14,3.015491122471126e-07
4.191,-1.283662097538528e-08,8.789501175936624e-06,1.1399743464970723e-08,-7.988820431623494e-06,-4.2745947827668784e-10,-1.3194341513065074e-14,2.926903891586896e-07
4.223,-1.2845248468499596e-08,8.789799511867159e-06,-2.5908387730678576e-10,8.959036952988943e-09,-4.2774677379338084e-10,-1.3328501881795604e-14,2.927003237451764e-07
4.258,-1.3243171124286532e-08,9.056460431439e-06,-1.1949629302911001e-08,8.007835422577831e-06,-4.409975982205583e-10,-1.3872371522163371e-14,3.0158013236691877e-07
4.291,-1.286177818903488e-08,8.790380428563287e-06,1.1453241298848393e-08,-7.99039047674815e-06,-4.2829721347893124e-10,-1.3599808536790847e-14,2.927196682711575e-07
4.323,-1.2869465653313644e-08,8.790654911702208e-06,-2.3085478314604237e-10,8.242736904525739e-09,-4.285532060352878e-10,-1.3733802676855165e-14,2.9272880855968355e-07
4.358,-1.3267194670201869e-08,9.0573181637426e-06,-1.1943814320967715e-08,8.007905466678439e-06,-4.4179758228662757e-10,-1.4289612402106137e-14,3.016086948526286e-07
4.391,-1.288422885898661e-08,8.791190642321234e-06,1.150047481126903e-08,-7.991817460101079e-06,-4.290448207756998e-10,-1.4004178166762659e-14,2.927466483892971e-07
4.424,-1.2891109201128479e-08,8.791444298276334e-06,-2.0661688113720585e-10,7.617295948945593e-09,-4.292739361647751e-10,-1.4137743793125615e-14,2.92755095132602e-07
4.458,-1.3288688147870207e-08,9.058110416392472e-06,-1.1939307709961788e-08,8.007991535019158e-06,-4.425133150797433e-10,-1.4705016674647234e-14,3.0163507686586934e-07
4.491,-1.290433649825724e-08,8.791940013857112e-06,1.1542091579968956e-08,-7.99310518124203e-06,-4.2971440515043736e-10,-1.4407450764998917e-14,2.927716024614419e-07
4.523,-1.2910504777364662e-08,8.792174801021714e-06,-1.852336068294911e-10,7.0506656036351534e-09,-4.299198088403509e-10,-1.4540297838787455e-14,2.927794208740231e-07
4.558,-1.3307965340325134e-08,9.05884402726222e-06,-1.1935752641455601e-08,8.008084872087292e-06,-4.4315524557489617e-10,-1.5119690369976164e-14,3.01659506107832e-07
4.59,-1.2922394645840541e-08,8.792634555878437e-06,1.1578699534071851e-08,-7.99427841993343e-06,-4.3031574145166415e-10,-1.4809264130527146e-14,2.92794730710752e-07
4.623,-1.2927953842580411e-08,8.792852839727975e-06,-1.6694284504113332e-10,6.555070556683902e-09,-4.3050086269862067e-10,-1.4942099955382104e-14,2.9280199956294156e-07
4.657,-0.03403407754741823,-3.4849109978429603e-06,-1.0220439825664982,-0.0003687016167438719,-0.0011333347816429085,-3.9436621776999085e-08,-1.1604753622817059e-07
4.69,-0.06672680110787231,-2.202940159275703e-06,-0.9817634702839062,3.849762277979751e-05,-0.0022220024755543553,-7.710684781381258e-08,-7.335790730388093e-08
4.724,-0.10009014983147856,-2.203332674297065e-06,-1.0019023640722595,-1.1787237878733831e-08,-0.0033330019873899085,-1.1542274217596101e-07,-7.337097805409227e-08
4.757,-0.13321816272910147,0.04923514505438609,-0.9948352221508383,1.4785990506624738,-0.0044361627029825355,-3.7900670929947136e-06,0.0016395303303110569
4.79,-0.1495531042169138,0.30076771616735537,-0.4905387834177879,7.553530664053131,-0.004979986380403737,-3.327628879107499e-05,0.010015564948372935
4.824,-0.14958794157501973,0.3008578641739068,-0.001046166910087562,0.002707147343887032,-0.004980563112316849,-8.317800789260215e-05,0.010018566876991097
4.8580000000000005,-0.163486141012235,0.049334634392023874,-0.4173633464629208,-7.553250143600087,-0.005442706269772813,-0.00012264315769852129,0.0016428433252543952
4.891,-0.17899133403829987,0.3003519668468148,-0.46562141219414027,7.538058031675404,-0.0059579911612011646,-0.00016896598784550893,0.010001720495998933
4.923,-0.1696592609552092,0.3151135153496808,0.2802424349276477,0.4432897448308103,-0.005645419251270565,-0.00021801840905474778,0.010493280061144371
4.957,-0.17484600100831074,0.3247454339903103,-0.15575795955259897,0.2892468060249102,-0.005815282770306844,-0.00028665258889085425,0.010814022951877333
4.99,-0.16966384581619928,0.3150046128228366,0.15562027603938317,-0.29251715217638774,-0.005639645785994359,-0.00033824739350514667,0.01048965360700046
5.024,-0.1696423084781119,0.31510318858843395,0.0006467669095309178,0.002960233201121709,-0.005635071400672135,-0.0003973444334020679,0.010492936179994852
5.057,-0.1294104879638311,0.04891462281201267,1.2081627782066309,-7.993650623916554,-0.0042967792816474264,-0.0003291610924509492,0.0016288569396400222
5.091,-0.1177497439627736,0.3704645385780613,0.35017249252424887,9.656153626608067,-0.003907399988148511,-0.00032679142944503373,0.012336469134649442
5.123,-0.13804778340238366,0.32371957316683814,-0.609550733922224,-1.4037527150517457,-0.004576241589578619,-0.00043604615557398495,0.010779861786455711
5.157,-0.14218793080665482,0.33298849676957293,-0.12432875087901366,0.2783460541361799,-0.00470829241490538,-0.0005006336133164008,0.01108851694242678
5.191,-0.13800386098205014,0.32355131677251736,0.12564774248062086,-0.2833987987103774,-0.0045641614230740105,-0.0005358255787762502,0.010774258848524829
5.224,-0.13514651750680007,0.298926944015135,0.08580611036787007,-0.7394706533748463,-0.004463986081798909,-0.0005710275512565955,0.009954267235703996
5.258,-0.13924041616284613,0.3081587296756955,-0.12293989958096285,0.2772308006174337,-0.0045930276632402955,-0.0006347829889282803,0.010261685698200662
5.291,-0.13516734626643284,0.29924064480125234,0.12231441130370237,-0.26781035658988517,-0.0044522134282961616,-0.0006612736006902005,0.009964713471881704
5.323,-0.11445507495336002,0.5348802999999172,0.6219901295217063,7.076265921881825,-0.0037618076514605654,-0.0006122405063759068,0.01781151398999724
5.358,-0.11790643879503038,0.5514457359303219,-0.10364455980992063,0.497460538450592,-0.003863199818568541,-0.0007006877062777411,0.01836314300647972
5.391,-0.11444109639584053,0.5354691235298799,0.10406433631200732,-0.4797781501634238,-0.003736739927699537,-0.0007478376548906997,0.017831121813545
5.424,-0.10472603281678004,0.3246419104899143,0.2917436510228375,-6.331147538737704,-0.003409400632221044,-0.0007332574429213857,0.010810575619314148
5.457,-0.07386816236563136,0.3341028922426424,0.9266627763107712,0.2841135661479904,-0.002398991574419031,-0.0005435451216342505,0.011125626311679992
5.491,-0.03800187294068718,0.3242767311762981,1.077065748496822,-0.2950799119022301,-0.0012310350732077763,-0.0002931417656464805,0.010798415148170728
5.523,-0.004638505039578798,0.3242770930059037,1.0019029399732244,1.0865753920576493e-05,-0.00014986489557111042,-3.7401309760253434e-05,0.010798427197096594
5.557,0.02925503384526129,0.33410363668786436,1.0178239905357385,0.2950914018606809,0.0009425544785557551,0.00024623675622298597,0.011125651101705884
5.59,0.06208830994028913,0.3242765508156148,0.9859842671179531,-0.29510768385133823,0.0019945465598006818,0.00054448793917453,0.010798409142159973
5.624,0.09545167274834329,0.324275995531282,1.0019027870286534,-1.667520518897078e-05,0.0030571052644181767,0.000870132304395311,0.010798390651191692
5.657,0.126585593744327,0.40650836454076905,0.9349525824619735,2.4694405107954065,0.004039903959016964,0.0012031878700652229,0.01353672853920761
5.691,0.1491697356454838,0.7233968746178816,0.6782024594941979,9.516171473787162,0.004733070377288725,0.0015071295510198802,0.02408911592477546
5.724,0.08945069743318591,0.39515468698654305,-1.7933645108798164,-9.857122751691847,0.002820944543086535,0.000956476108768138,0.013158651076651885
5.758,0.05817918201848122,0.40647958292003883,-0.9390845469881288,0.34008696496984325,0.001826289267988193,0.0006465293267516936,0.013535770111237294
5.791,0.022772650637562977,0.39454626410709637,-1.0632592006281754,-0.3583579223105844,0.0007114126899722593,0.0002625775856010048,0.01313839059476631
5.824,-0.010590745942843562,0.39454635622417916,-1.0019038012134094,2.7662787626124848e-06,-0.0003292197074624819,-0.0001264516577294248,0.013138393662265168
5.8580000000000005,0.023119172427739205,0.4065431338863534,1.0123098609784613,0.3602635934586852,0.0007149273992428116,0.0002855996838707545,0.013537886358415569
5.891,0.056135816950314284,0.3945505696318505,0.991490826503756,-0.3601370646997868,0.0017265170161584985,0.0007165585110596637,0.013138533968740622
5.923,0.08474187671601538,0.454014145417747,0.8590408338048376,1.7856929665434385,0.0025907782706381874,0.0011184190849732466,0.015118671042410976
5.957,0.12134722130930525,0.46773155030071467,1.0992595973960921,0.4119340805696002,0.0036848813606524234,0.0016582788536308344,0.0155754606250138
5.99,0.14387146904121065,0.5489787602194327,0.6764038357929547,2.439856153715256,0.004334938989201397,0.0020397495948003526,0.01828099271530711
6.023,0.17240434654084213,0.9060345295031935,0.8568431681571016,10.72239547398681,0.0051337960483227914,0.0025693311030894244,0.030170949832456346
6.057,0.11420156869701237,0.5655623614057936,-1.7478311664813742,-10.22438943235435,0.0033580142936549804,0.0017847840290552703,0.01883322663481293
6.09,0.0771347943662326,0.5486338121052005,-1.1131163462696625,-0.5083648438616569,0.0022453421423606337,0.001247358336749853,0.018269505943103177
6.124,0.043786576268204515,0.5489124218083,-1.0014479909317744,0.00836665775073765,0.0012614462169853382,0.0007312519498676474,0.018278783646216393
6.157,0.07914619918700104,0.5655689971131274,1.0618505381019976,0.5001974566014215,0.002255200575888271,0.0013638497027137475,0.018833447603867143
6.191,0.11051331476591568,0.5489173028743839,0.9419554227902294,-0.5000508780403442,0.003113103368295355,0.001962472327454655,0.018278946185716984
6.224,0.11784049879113478,0.5574944186578039,0.22003555631288602,0.2575710445471477,0.0032803947606457095,0.002153378598513312,0.018564564141304873
6.257,0.14789617305159886,0.5655503656851152,0.9025728006145366,0.24192033115048864,0.004065818419390916,0.0027791118985646714,0.018832827177314337
6.291,0.16655251875264923,0.6825064560142791,0.5602506216531644,3.5121949047796956,0.004512651059179134,0.0032241244274859517,0.022727464985275496
6.323,0.17607932635966594,0.8011851417736642,0.2860903185290304,3.563924497278832,0.004685086749383927,0.003525318415630905,0.026679465221063018
6.357,0.14330964211046102,0.7404569425808071,-0.984074602078226,-1.823669645431144,0.0037382767130963624,0.0029661645288305495,0.024657216187940877
6.391,0.14874546984475237,0.8370845451775545,0.16323807009883945,2.901729807710132,0.0037978515286847207,0.0031794912516697714,0.027874915354412565
6.424,0.1487428505350396,0.8369180539709448,-7.86579493322731e-05,-0.00499973593422583,0.003707703425901485,0.003284039095997172,0.027869371197232463
6.457,0.17734346721566954,0.7404579219736032,0.8588773777966947,-2.8967006605808288,0.004316312779535315,0.004030266707760042,0.024657248801720988
6.491,0.19528856537282635,0.850327907352949,0.5388918365512555,3.2993989603407172,0.004633833009251221,0.004562367330701257,0.028315919314853208
6.523,0.20242995488030438,0.938667443022789,0.2144561413657066,2.6528389090042035,0.004660273166469964,0.004870125575746322,0.03125762585265888
6.558,0.21725205223377486,0.8134632090061488,0.4451080286327471,-3.7598869074066146,0.004846966046761613,0.005370438877226328,0.027088324859904755
6.591,0.21801679320386316,0.8777086011380866,0.02296519429694598,1.9292910550131472,0.004710342746018178,0.005524122282317604,0.029227696417898286
6.624,0.2180169356016071,0.8556121061072761,4.276208526416109e-06,-0.6635584093336474,0.004548989432522844,0.0056577562952562195,0.0284918831333723
6.657,0.22461948771151216,0.8815024092361884,0.19827483813528735,0.7774865804478159,0.004516212837253396,0.005962184614473078,0.029354030227565078
6.69,0.21802251530485464,0.8556822319246137,-0.19810727947920478,-0.7753807000472885,0.004214386094548119,0.005911442982024267,0.028494218323089637
6.724,0.21803541231206736,0.855844364550012,0.00038729751389532613,0.004868847609559331,0.004044479090209267,0.006029480211534968,0.028499617339515403
6.757,0.20249317156887126,0.7648788107115211,-0.4667339562521351,-2.7316983134681956,0.003603743833384328,0.005699028538878481,0.025470464396693655
6.79,0.2036978227290572,0.8093533257310023,0.036175710516094556,1.3355710216060415,0.0034736779149207673,0.005825953225597554,0.026951465746842377
6.823,0.20372326179261627,0.8093155600262862,0.0007639358426145012,-0.0011341052467276483,0.0033158351941206623,0.005918183738677034,0.026950208148875335
6.8580000000000005,0.22460963741840695,0.7691408340980733,0.6272184872609814,-1.2064482260724598,0.0034830691765846186,0.006618769152371747,0.025612389775465844
6.89,0.2179761166598237,0.7468720600575249,-0.19920482758508273,-0.6687319531696212,0.0032170129322752245,0.006506570061744126,0.02487083959991558
6.923,0.21798332313791322,0.7467225276215305,0.0002164107534390996,-0.004490463543377492,0.003054328250578386,0.0065847695370244985,0.024865860169796968
6.957,0.21000734619756084,0.7084276561613694,-0.23951882703760885,-1.1499961399447771,0.002788029445996301,0.006413274843380936,0.023590640950173603
6.99,0.2038145473212188,0.6873668796870971,-0.18596993622648808,-0.6324557499781468,0.002560451226747939,0.006285362277748826,0.022889317093580334
7.023,0.2038467289933371,0.6873799549545814,0.0009664165801298934,0.0003926506752037838,0.002416305515161167,0.00634331964876322,0.02288975249998756
7.058,0.19558367225815015,0.649363139682642,-0.2481398418975062,-1.1416461042624426,0.002182342223112081,0.006136291115547543,0.021623792551431983
7.091,0.18986109401976314,0.6302050384478942,-0.17184919634795826,-0.5753183553978323,0.0019911127917424396,0.006000535085453648,0.02098582778031488
7.123,0.18989297311083708,0.6302162641339837,0.0009573300622804385,0.00033710769037437275,0.0018650693829745926,0.006042010557184042,0.02098620159566166
7.157,0.23150568338224123,0.7222569985450121,1.2496309390812055,2.763986018349202,0.0021073282620315778,0.007415330800119741,0.024051158051548907
7.19,0.21806527122580713,0.5892047267214556,-0.4036159806736967,-3.9955637184251196,0.0018320183693672522,0.00702655443731283,0.019620517399824473
7.223,0.21811275738269012,0.5888903399065849,0.0014260107172069689,-0.009441045491613401,0.0016942158061808213,0.007062673730995806,0.019610048318889278
7.258,0.21722177889001976,0.6764998630077144,-0.026756110891001904,2.6309166096435272,0.0015387297973848554,0.007067772389127203,0.02252744543815689
7.289,0.20423835171423638,0.5441370296457053,-0.38989270798148284,-3.974859860720992,0.0013114226102175998,0.00667340776490289,0.01811976308720199
7.323,0.20415616570049455,0.5438414210255846,-0.0024680484607154684,-0.008877135739359752,0.0011898473629810404,0.006693373362363973,0.01810991932015197
7.358,0.22460184020285143,0.49996789161400546,0.6139842192899962,-1.3175234057531284,0.0011808417317414736,0.007385348386594567,0.016648930790746384
7.391,0.21798350145273943,0.4851098869883896,-0.1987489114147748,-0.4461863250935697,0.0010283359530031976,0.007185561310667364,0.016154159236713376
7.423,0.21793496021024383,0.48597796243349206,-0.001457694969837604,0.026068331684759114,0.0009118229159455443,0.0071996442565226935,0.016183066149035287
7.458,0.21010162894343362,0.44162950414351865,-0.23523517317748383,-1.3317855342334357,0.0007717504358124587,0.006953625784504422,0.014706262487979172
7.489,0.20390815865901776,0.4289772945737208,-0.18599009863110685,-0.3799462333272626,0.0006510998362793818,0.006758794941181758,0.014284943909304904
7.524,0.2039409332734011,0.4289288087075329,0.0009842226541542094,-0.00145603201765424,0.0005545822720246116,0.006768493268254032,0.014283329329960848
7.557,0.23167703124532268,0.6353242212726234,0.8329158550126602,6.198060437390105,0.0004936611646020075,0.007698890454583297,0.021156296568378363
7.59,0.21807160873432113,0.3886482091309447,-0.40857124657662314,-7.407688052302664,0.00034106179475439693,0.007253720146228455,0.01294198536406046
7.624,0.21805705694956384,0.3886667637796503,-0.00043699053325190585,0.0005571966578256216,0.00024713957792203066,0.00725704234858544,0.012942603233862357
7.657,0.2246595773969846,0.3999805536441693,0.19827388730993295,0.33975344938495416,0.00015642609208854952,0.007479473054645788,0.013319352436350839
7.69,0.21806147331128978,0.3879734262751767,-0.19814126383467967,-0.36057439546524217,5.657710913971423e-05,0.007261176146485648,0.012919515094963386
7.724,0.21802929129980914,0.38722786786595226,-0.0009664267711904348,-0.022389141418152163,-3.71402581069726e-05,0.007260230103928376,0.012894687999936212
7.758,0.21090314200108437,0.5925830231649878,-0.21399847743918213,6.1668214804515165,-0.00015048619320524016,0.007021348207371886,0.019733014671394097
7.791,0.2047835755463781,0.5744241888418894,-0.18377076440559353,-0.5453103400329847,-0.0002785549009688919,0.006813497426537709,0.01912832548843492
7.824,0.20479123549217837,0.5746494064256765,0.00023002840241034933,0.006763290804418304,-0.000408867604041889,0.0068071759946518855,0.01913582523397503
7.857,0.23623859011982623,0.11950701819371998,0.944365003833269,-13.66793958654524,-0.0005623837901115119,0.00784661203933743,0.003979583705850875
7.891,0.21802156471406864,0.2780277702124679,-0.5470578199927204,4.760382943505943,-0.0005669348225810592,0.007237922581865928,0.009258324748075182
7.924,0.21803215521387956,0.27814872948161434,0.0003180330273549441,0.0036324104848786463,-0.0006339659628437465,0.007232713603592397,0.009262352691737759
7.958,0.23624101863942992,0.2658011093148544,0.5468127154819928,-0.37079940440720544,-0.000757858063168365,0.007830210545560339,0.008851176940184653
7.99,0.21797289133392653,0.4213047186406822,-0.5485924115766785,4.669778057832666,-0.000781855705325819,0.007216205393958751,0.014029447130734719
8.024,0.21797832431146283,0.42112430758521396,0.00016315247856761453,-0.005417749413460436,-0.0008830151866140707,0.007204708871939741,0.014023439442587627
8.058,0.22459308454538657,0.36526000077242554,0.19864144846617832,-1.6776068111948474,-0.0010069284490805159,0.0074108092914336714,0.012163158025721772
8.09,0.21798431720342007,0.35420091832676964,-0.19846148174073566,-0.33210457794762455,-0.0010633893076137494,0.007180522174201108,0.01179489058028143
8.124,0.21797781224259963,0.35385411244566867,-0.0001953441687820269,-0.01041459102405332,-0.001147931217801587,0.007167273257343068,0.011783341944440768
8.158,0.22457749126123858,0.29113911673487786,0.19818855911828673,-1.8833332045282525,-0.0012619203313131739,0.0073711628087605955,0.009694932587271433
8.19,0.2179922325639905,0.2823373945931833,-0.19775551643387612,-0.2643159802310677,-0.0012931794878281188,0.007142998789566572,0.009401835239953004
8.223,0.21802932374698863,0.28228666063219754,0.0011138493392832888,-0.0015235423719447579,-0.0013605040692886536,0.007131739420734478,0.009400145799052179
8.257,0.22266869449126045,0.2396840649247085,0.13932044277092534,-1.279357228453124,-0.001452701463807721,0.0072711503231713565,0.007981479361992795
8.291,0.20489200549509726,0.2574243965205012,-0.533834504389285,0.532742690564345,-0.0013920561184343544,0.0066793645453680104,0.00857223240413269
8.324,0.20493652762541623,0.25710892160538695,0.0013370009104795532,-0.009473721174601933,-0.0014495412372611339,0.006668642668270806,0.008561727089459386
8.355,0.22464328743571368,0.19866150517709172,0.5917945888978215,-1.7551776705193762,-0.001644357065828716,0.007297642314978009,0.0066154281223971545
8.39,0.2180605865802386,0.19312433149813119,-0.1976787043686209,-0.16628149186067664,-0.0016423477913062004,0.007073238055803135,0.006431040238887769
8.423,0.2180713799986229,0.19330409870783144,0.0003241266782066248,0.005398414705713348,-0.0016879064704321779,0.007062874357575112,0.006437026486970788
8.458,0.22465757429508515,0.1300149892845783,0.1977836125063742,-1.9005738565541481,-0.001778030565620587,0.007266727981720179,0.004329499143176458
8.491,0.21802355033935403,0.12611584802424813,-0.19921993861054418,-0.1170913291390441,-0.001755584952446161,0.007044722776882988,0.004199657739207463
8.524000000000001,0.21793080507516666,0.12673501514368354,-0.002785143068689838,0.018593607190252544,-0.001784467923910424,0.007034275772397565,0.004220276004284662
8.557,0.22451972757571723,0.10395027615093574,0.19786554055707417,-0.6842263961786126,-0.0018662412560093138,0.007239837263863535,0.0034615441958261604
8.591,0.21791503071470888,0.10051516265736977,-0.19833924507532555,-0.10315656136834742,-0.0018352534515227868,0.007020656049020235,0.0033471549164904137
8.624,0.21793751499449734,0.10034402610137227,0.0006752035972510347,-0.00513923591584085,-0.0018589141475477142,0.007015202910344779,0.003341456069175697
8.657,0.20917640220443023,0.2323299663628677,-0.2630964801821955,3.963541749594457,-0.0018214496249649714,0.006723191437037715,0.0077365878798834956
8.691,0.20491294590778555,0.09247022855454981,-0.12803172061996035,-4.199992126375912,-0.0018199196342390225,0.006576426665658021,0.003079258610866509
8.724,0.21801718559966618,0.02197948146067943,0.39352071146788664,-2.1168392520681794,-0.001949634582114774,0.006993291081920232,0.0007319167326406251
8.757,0.2246863213016821,0.022336052203981556,0.20027434540588318,0.010707830129192948,-0.0020145911357868566,0.007205731018153147,0.0007437905383925859
8.79,0.21810600404827685,0.021694249965434766,-0.19760712472688416,-0.019273340496900607,-0.0019607177643020117,0.0069932635294642975,0.0007224185238489777
8.823,0.2181078855003091,0.022041891621508526,5.650006102865146e-05,0.010439689371584399,-0.001965826742062009,0.006991894176331974,0.000733994990996234
8.857,0.22470514667888083,0.013807608361232074,0.19811595130846046,-0.2472757735818754,-0.002029587797123881,0.0072021728032504225,0.0004597933584290281
8.89,0.21806538676411538,0.013665490837787874,-0.19939218963259617,-0.004267793496822825,-0.0019728128968975814,0.006988455794998311,0.00045506084489833627
8.924,0.2180440787030209,0.013949041876610873,-0.0006398817145491963,0.008515046210900858,-0.001975832767942898,0.006986865208123831,0.00046450309449114213
8.957,0.2245815223071659,0.02316739741586509,0.19631962775210254,0.27682749367129783,-0.002039519443178041,0.007195087736212164,0.0007714743339483077
8.99,0.21792811059654085,0.02257000873035081,-0.1998021534722239,-0.01793960016559404,-0.0019844133676696412,0.006980418210529184,0.0007515812907206821
9.024,0.21790122019944727,0.022130716929416316,-0.0008075194322396959,-0.01319194597400882,-0.0019893626148701207,0.006978078210853827,0.0007369528737495634
9.058,0.22450725613034272,0.023853112321518058,0.19837945738424786,0.051723585348400644,-0.002055177426436546,0.007188058768160735,0.0007943086403065515
9.09,0.21792706849045376,0.02296965934563596,-0.19760323242909794,-0.02653011939585877,-0.0020003802319224825,0.006975823247537317,0.0007648896562096776
9.123,0.21796077284150991,0.022886196237074375,0.0010121426743589152,-0.002506399656504075,-0.002006015889883557,0.006975372561724853,0.0007621103346945767
9.157,0.22460380445099684,-0.019727623333047256,0.1994904387233311,-1.2796942813850338,-0.0020675334824569905,0.007187860030884028,-0.0006569298569904737
9.191,0.21803494911399196,-0.019320548681029386,-0.19726292303317958,0.012224464024560677,-0.0020025285969540838,0.006978944345219761,-0.0006433742710782786
9.224,0.21807163373675745,-0.01943094518337947,0.0011016403232879013,-0.003315210280783299,-0.001998361448782707,0.0069814093796093536,-0.0006470504746065364
9.258,0.22471289436853006,-0.04563130423831465,0.19943725620938785,-0.7867975692172726,-0.002051425972015647,0.007196250586874245,-0.001519522431135878
9.29,0.21813056352590962,-0.04427833119085772,-0.19766759287148475,0.04062982124495278,-0.0019808758174990303,0.006988429940710264,-0.0014744684286555623
9.323,0.21812185654956542,-0.04387347446658422,-0.00026147076108700145,0.012157859587792922,-0.001970537919727153,0.0069910507415309854,-0.0014609866997372545
9.357,0.2091054224555167,0.4411359506711838,-0.27076378660807,14.564847601734774,-0.001933353826077861,0.006689362637165253,0.014689827157350422
9.391,0.21805303988436917,0.15916809996418188,0.2686972200856598,-8.467503024234292,-0.0020857180113212953,0.006955155780927473,0.005300297728807257
9.424,0.21798717737561024,0.15971740421388875,-0.0019778531158835956,0.01649562311432032,-0.0021219752976900405,0.006941886323989745,0.005318589560322496
9.457,0.19588482548292785,0.462232508404285,-0.6637342910715432,9.084537663375261,-0.0019712992307276047,0.006217894145342732,0.015392342529862692
9.49,0.2050607679997254,0.18102964560996762,0.2755538293332595,-8.444530414243765,-0.0021332552194113725,0.006486741490666185,0.006028287198811922
9.523,0.2050000707863263,0.18047681535839588,-0.0018227391411141857,-0.016601509056208403,-0.002171617612337098,0.006471867668184971,0.006009877951434583
9.556000000000001,0.2245806919150861,0.06340521050570332,0.5880066405032973,-3.515663809390167,-0.002407813595692489,0.007080319850207791,0.0021113935098399208
9.59,0.21794107890666367,0.06212802217078186,-0.19938777803070323,-0.03835400405169541,-0.0023509839831095335,0.006866095018085744,0.002068863138287036
9.623,0.21797562048348892,0.06205547200161827,0.001037284589346945,-0.0021786837586663804,-0.002365550523160824,0.006862306760895852,0.0020664472176538887
9.657,0.22461976545644463,0.012131772011861655,0.19952387306173291,-1.4992102099026008,-0.002446388565703783,0.007068462461435866,0.00040398800799499316
9.69,0.2180496094326639,0.011613981681143689,-0.19730198269611773,-0.015549259180719692,-0.0023775441040811474,0.006860769595108629,0.00038674558998208486
9.723,0.21808270199732108,0.011559328668279602,0.0009937707104254263,-0.0016412316175401357,-0.0023805522890500415,0.006860892837414047,0.0003849256446537108
9.756,0.22472938808375964,-0.013545922348829136,0.1996001827759328,-0.7539114419552173,-0.0024528724816074666,0.007070079038653277,-0.0004510792142160103
9.79,0.218149104894791,-0.013148143892123305,-0.19760610177082996,0.011945299000175099,-0.0023779995554207853,0.006864118219307588,-0.0004378331916077061
9.823,0.21813498647792703,-0.012837969875175945,-0.000423976482401424,0.009314535043464264,-0.002374875734261106,0.006864702159344166,-0.000427504396843359
9.857,0.2246874222630186,-0.03846876403596484,0.19676984339614323,-0.7696935183420087,-0.0024401718954274332,0.007072993822435871,-0.0012810098423976291
9.891,0.21803653976394685,-0.03734114825980437,-0.1997262011733259,0.03386233562043446,-0.0023592759556519934,0.006866612419053108,-0.0012434602370514857
9.924,0.21798311743715906,-0.03739316643024213,-0.0016042740777113718,-0.0015621072203532138,-0.002350153859058716,0.006867859666015702,-0.001245192442127063
9.957,0.2245152804352272,-0.07105021699447688,0.1961610509930371,-1.0107222391662085,-0.0024078030133614365,0.007078022326619793,-0.00236597222591608
9.991,0.21788376878013613,-0.06909241987436483,-0.199144494146879,0.05879270630967094,-0.0023206495218340653,0.0068743924026287645,-0.002300777581816349
10.024,0.2179035439376379,-0.06928209628578498,0.000593848573626465,-0.005695988330935365,-0.002305014400282381,0.00688034517608044,-0.0023070938063166403
10.054,0.18255158460062743,0.470521047706857,-1.0616204005108247,16.210304624403662,-0.001969501117617047,0.005751013690033992,0.015668350888638338
10.09,0.18722330229502582,0.16133343743727632,0.14029182265460635,-9.284913221308727,-0.0020818600961352886,0.005876666041816715,0.005372403466661302
10.124,0.2049808988719968,-0.06129431119809785,0.5332611584675971,-6.685517977038263,-0.0022900346684771138,0.006430252208555623,-0.0020411005628966587
10.157,0.2063638877060681,0.13255076602810284,0.04153119621835693,5.821173490276297,-0.0023131626902964373,0.006470892618747563,0.004413940508735825
10.19,0.21801728315351834,-0.0937663664554717,0.34995181523874636,-6.796310284792027,-0.0024482023837321,0.006834728008317893,-0.003122420002967208
10.224,0.2180755893280242,-0.13585920571367827,0.0017509361713472123,-1.2640492269731698,-0.0024227002405757853,0.006845865461869007,-0.004524111550265487
10.255,0.22474699292784656,-0.14023032593216558,0.20034245044511562,-0.13126487142604557,-0.0024643570520309446,0.007066697893389098,-0.004669669853541114
10.29,0.21814720114728248,-0.13592010397519091,-0.19819194536228465,0.1294360948040441,-0.002360427246113329,0.006870107258566928,-0.004526139462373858
10.323,0.2181175390207257,-0.1355725393837351,-0.0008907545512546152,0.010437375118793495,-0.002329031211073685,0.006879771434825042,-0.004514565561478379
10.357,0.22467082280811296,-0.1481463975197895,0.1967953089305483,-0.3775933374190513,-0.002365503374641939,0.007097724782512698,-0.004933275037408991
10.39,0.2180192225363723,-0.14388307468740472,-0.19974775590812807,0.1280277126842278,-0.0022619539892171033,0.006898669851702164,-0.004791306387090578
10.423,0.21793359958036318,-0.14345424138683927,-0.002571259940213592,0.012877876893857386,-0.0022280484898768212,0.006906698922742719,-0.004777026238181748
10.457,0.22454186522333522,-0.06319249101451754,0.198446415704866,2.410262773943595,-0.0022711121965852798,0.007123988227739487,-0.0021043099507834346
10.49,0.21789387980516095,-0.06171788023576583,-0.199639201746975,0.04428260596851982,-0.002189489390655087,0.006917637743697338,-0.0020552054118510026
10.521,0.2179177688105512,-0.06188183645675807,0.0007173875492565455,-0.004923610240007153,-0.002175487197018604,0.006922887827344745,-0.002060665154010044
10.558,0.2245576784711224,-0.053755186211687886,0.19939668650363987,0.24404355090300855,-0.002228034635944668,0.007138130096063614,-0.0017900477008492067
10.589,0.21798814708679454,-0.0522393760713102,-0.1972832247545905,0.045519824035366,-0.0021506202833293,0.006933107313842492,-0.0017395712231746297
10.624,0.21802457699722552,-0.05234933899233528,0.0010939913042337865,-0.0033021898205729955,-0.0021389010905487386,0.006938001167163,-0.001743232988444765
10.658,0.22467017877835965,-0.054052844014398034,0.19956762105507897,-0.05115630696885151,-0.0021914274221559913,0.007153371699008256,-0.0017999597056794546
10.678,0.21809966259631064,-0.052563561596043404,-0.1973127982597301,0.04472319574638529,-0.0021150084033445624,0.0069479356530011615,-0.0017503666011482455
10.724,0.21813106511015107,-0.05259012873443052,0.0009430184336464972,-0.0007978119635771585,-0.002103143431858015,0.0069526288890904425,-0.0017512512868565367
10.757,0.211274673600522,-0.31459262219489814,-0.20589764293180413,-7.867942746560588,-0.001995820331201823,0.0067463885025435995,-0.01047593431909011
10.791,0.2050959062245941,-0.30444670236639804,-0.18554856984768472,0.30468227713213525,-0.001869849526168596,0.006568712123553685,-0.010138075188801056
10.823,0.20505962970006064,-0.30401831565632487,-0.0010893851211245106,0.012864465767963055,-0.0018028885410102664,0.006586152988824161,-0.010123809911355619
10.857,0.22463997169669672,-0.6036375689041051,0.5879982581572396,-8.997575172606012,-0.0018657574271323276,0.007243970648085462,-0.0201011310445067
10.891,0.2180302140496283,-0.5859177940702023,-0.1984912206326853,0.5321253703874731,-0.0016712621337124432,0.007065317246118368,-0.019511062542537736
10.923,0.2180153303117047,-0.5861033064269338,-0.0004469590968049376,-0.005570941643587882,-0.0015329743437462805,0.007096098720868447,-0.019517240104016897
10.957,0.22456605992788778,-0.6334760210484444,0.196718607092585,-1.422604042688006,-0.001430293694746376,0.007339851158628193,-0.021094751500913198
10.991,0.21795042846044213,-0.6152936388754392,-0.19866761163500443,0.5460174826728277,-0.0012397552564981363,0.0071509501866834505,-0.020489278174552126
11.024,0.21796562421012622,-0.6156746898727595,0.0004563288193419883,-0.011442972892502441,-0.001093018134881069,0.007175356148038336,-0.020501967172762894
11.058,0.19325675387749283,0.1606895141734792,-0.7420081180970987,23.314240361748908,-0.0009209048824010579,0.006369211163651556,0.005350960821976858
11.091,0.18760879935238117,-0.26566294289449804,-0.1696082439973471,-12.803377089128444,-0.0008831813106533564,0.006184610404862929,-0.008846575998386785
11.123,0.2052496895735049,-0.5889288283477953,0.5297564630968085,-9.707684247846762,-0.0008698461108423732,0.006779126936042806,-0.019611329983981584
11.158,0.20646172711398075,-0.29321166361287776,0.03639752373801374,8.88039533738491,-0.0007747439296655706,0.006831356721334039,-0.00976394839830883
11.191,0.2180096118860737,-0.6078125087905291,0.34678332648927784,-9.447472828157697,-0.000709763305032551,0.007224816428554196,-0.02024015654272462
11.223,0.21801846038332426,-0.6077066095609973,0.0002657206381547157,0.0031801570429954157,-0.0005634321288414033,0.007237994156146254,-0.02023663009838121
11.257,0.2246347505567956,-0.6348966182382293,0.19868739259673707,-0.8165167770940533,-0.00042612306909588135,0.0074680505764446545,-0.021142057387333036
11.291,0.21803090237795883,-0.6161884275000674,-0.19831375912422744,0.5618075296745308,-0.0002625268759126447,0.007255553743467388,-0.020519074635752248
11.324,0.21803525822703448,-0.6161344306828477,0.000130806278548185,0.0016215260426347424,-0.00011361360635144601,0.007259557765583102,-0.02051727654173883
11.357,0.22461011949479198,-0.6542645256448285,0.19744328131403896,-1.145047896756181,4.116032912888038e-05,0.007479255792373975,-0.02178700870397279
11.389,0.21803268962611125,-0.6350265067987391,-0.1975204164768989,0.5777182836663496,0.00019578730465675523,0.007257712944834216,-0.021146382676398012
11.423,0.21806400164027745,-0.635337452179166,0.0009403007257117582,-0.00933769911192116,0.0003492941627874866,0.007252989929888599,-0.021156737157566233
11.458,0.1931316504660822,-0.2640193591157919,-0.748719254480338,11.15069348538661,0.0004055162284430249,0.006418465824908576,-0.008791844658555871
11.491,0.19904032366647464,-0.5335141663827281,0.17743763364541906,-8.092937155163249,0.0005057160688149739,0.006608634264256283,-0.017766021740544848
11.524000000000001,0.20516141663270476,-0.6089682930109492,0.18381660559249602,-2.2658896885351694,0.0006507413114021835,0.006800695162090015,-0.020278644157264613
11.557,0.22467252249857686,-0.5633158613668949,0.5859190950712341,1.370943893214844,0.000857848048913407,0.0074321409521400685,-0.018758418183517603
11.591,0.2180773171921099,-0.5469013554440781,-0.19805421340741608,0.492928105790294,0.0009658682178479088,0.007197354862237297,-0.018211815136287803
11.624,0.218035815331237,-0.546379176965325,-0.0012463021283153177,0.015681035397991965,0.001096506600760781,0.007177215663163183,-0.018194426592945324
11.658,0.2245720717359515,-0.6296736466698166,0.1962839761175526,-2.5013354265613095,0.0012738981754850586,0.007368809766935621,-0.020968132434104895
11.691,0.2179087298938493,-0.6102623312401835,-0.20010035561868497,0.5829223852742687,0.0013834423620923788,0.007123134553030789,-0.020321735630298113
11.724,0.2179029284967738,-0.6099852555355553,-0.0001742161283928927,0.008320591730576714,0.0015278278265273898,0.007093370064989328,-0.02031250900933399
11.758,0.22454029476402732,-0.6175011220554191,0.199320308325931,-0.22570169729320722,0.001723413508594781,0.007275731810846403,-0.020562787364445455
11.791,0.21797113874566798,-0.5995193478230835,-0.1972719525032833,0.5399932201902582,0.0018157596200767414,0.007027531767061066,-0.019963994282508682
11.824,0.21800843726303112,-0.5997369548107598,0.0011200755964907954,-0.006534744374665658,0.0019560460280873887,0.006991072871590104,-0.019971240595198305
11.858,0.2050337723270571,-0.37269291335244253,-0.38962957765687734,6.818139383132651,0.0019458625739377667,0.006544423460966315,-0.012410674014636337
11.89,0.2179979166529567,-0.42914488152912483,0.38931364342040825,-1.6952542996000688,0.0021616029140799258,0.0069299680474199325,-0.014290524554919859
11.923,0.2181228095277955,-0.4292769841803693,0.0037505367819459477,-0.00396704658391802,0.002261721884497202,0.006902318180516733,-0.0142949235732063
11.957,0.2104651209838955,-0.5092587159244762,-0.22996061693393405,-2.4018538061293375,0.0022861137104848777,0.006625059880399426,-0.01695831524028506
11.99,0.20430897367112782,-0.49401673672707574,-0.18486928867170188,0.45771709301503005,0.00232636292214514,0.006393313056934762,-0.016450757333011625
12.021,0.20426331402390122,-0.4935449787262556,-0.0013711605773756481,0.014166906931536516,0.0024306250543640446,0.006352778443678202,-0.016435047791584313
12.056,0.22462831011058812,-0.5844876722443786,0.6115614440446517,-2.731011817361051,0.002797903811146637,0.006937016934370003,-0.01946343948573781
12.09,0.2180224596661543,-0.5672907791742666,-0.1983738872202348,0.5164232153186775,0.002844238397478921,0.006679707185149913,-0.01889078294650308
12.123,0.21798193867732243,-0.5669251572882423,-0.0012168465114674423,0.010979636216945709,0.0029693160634958714,0.0066235756003038306,-0.01887860773769847
12.158,0.21089145212880175,-0.40909392143665974,-0.2129275239796,4.739676752299777,0.0029765044726966527,0.006360642108003444,-0.01362282758384077
12.19,0.2047355056439459,-0.5347091841390439,-0.18486325780347881,-3.772230111182707,0.002986278359955313,0.006128771682086048,-0.017805815831830163
12.224,0.20460364288409602,-0.5350942724464279,-0.003959842638134769,-0.011564213434956172,0.003092972524428306,0.006070697443531383,-0.01781863927246605
12.258,0.22479054721232586,-0.5861056207278009,0.6062133431900851,-1.5318723207619516,0.0035220362206964373,0.006605041258840011,-0.019517317170235773
12.29,0.2180097285060669,-0.5702532015141072,-0.203628189377146,0.4760486250358479,0.003538489367509376,0.0063388564617910545,-0.01898943161041977
12.323,0.2180491315190377,-0.5704058349330402,0.0011832736627871553,-0.00458358615414452,0.003658892540565919,0.006271647725080243,-0.01899451430327024
12.358,0.2247737805871071,-0.40811274512324136,0.201941413455537,4.873666360654619,0.0038765872425762316,0.006402807077802427,-0.013590154412603939
12.39,0.2180701306588274,-0.39785657252066575,-0.20131080865704748,0.3079931712485167,0.0038439915255149603,0.006160824468506482,-0.01324862386493817
12.423,0.21804091513834556,-0.39733300294035034,-0.0008773429574129478,0.01572281021968193,0.003924695172050574,0.006108573517577517,-0.013231188997913668
12.457,0.22462831327283805,-0.5291260736012041,0.1978197637985734,-3.957749869695308,0.004139833715276866,0.006229973260375301,-0.0176198982509201
12.49,0.2180017755280875,-0.5133425214284172,-0.1989951274699866,0.4739805457293372,0.0041220455680938285,0.0059755505043327896,-0.017094305963566293
12.523,0.21795132289485838,-0.5124366154239075,-0.0015150940909643969,0.027204384519810276,0.0042225199064385025,0.005902914893233237,-0.01706413929361612
12.557,0.22459816421457118,-0.4544462621291944,0.19960484443581974,1.7414520508922846,0.004448663906695352,0.006012116182117083,-0.015133060528902176
12.59,0.21802113505360526,-0.4410841845307835,-0.19750838321218975,0.401263591543871,0.004404929511197026,0.005771027251017561,-0.014688103344875093
12.622,0.21804220493418408,-0.4414377301827811,0.0006327291465110137,-0.010616986546473804,0.004489684125715884,0.005706231903896706,-0.014699876415086612
12.657,0.2246624514428335,-0.502763259770304,0.19880620146094366,-1.841607495120808,0.004717843936054911,0.005806021613701147,-0.016742016550351124
12.691,0.2180611720139603,-0.4884704915404561,-0.19823661948568175,0.42921225915459243,0.004671601503653138,0.0055590866621504165,-0.01626606736829719
12.723,0.21807682338690196,-0.45065022110680636,0.0004700111994491049,1.1357438568663578,0.004758300070743715,0.005485765939010924,-0.015006652362856653
12.758,0.22469724987577128,-0.4644203680928114,0.1988116062723519,-0.41351792750765876,0.004988296452917649,0.005576949709409084,-0.01546519825749062
12.791,0.21802174900614313,-0.451186704810218,-0.20046549158042484,0.3974073057835855,0.004922030914269928,0.00533685526875424,-0.015024517270180261
12.824,0.21799039260006575,-0.45078162623627877,-0.0009416338161374273,0.012164521739916894,0.005000901289539312,0.00526158154398405,-0.015011028153668084
12.858,0.19807676891587123,-0.35066981716154827,-0.5980067172430787,3.0063606328747894,0.004607472500317156,0.004719888100148235,-0.011677304911479558
12.891,0.19209716474993815,-0.3954591246071948,-0.1795676926706628,-1.3450242476170124,0.004524892697937974,0.004521532953244053,-0.013168788849419587
12.923,0.19207295724528403,-0.39514615395132097,-0.000726952091715386,0.009398518194409105,0.004583440887913135,0.004461016972764725,-0.01315836692657899
12.958,0.2249025177196177,-0.36915595967281156,0.9858726869169268,0.780486314669952,0.00543289438329106,0.005154791497263265,-0.012292893457104626
12.99,0.21798269205289517,-0.41250369970621786,-0.20780257257425008,-1.301733934937126,0.005330301912775229,0.004927227793882752,-0.013736373200217056
13.023,0.21799330398863692,-0.4122682751549808,0.0003186767490016685,0.007069806343454657,0.0053977229352344565,0.0048538037174598505,-0.013728533562660863
13.058,0.22463981313996814,-0.41339018241957187,0.19959486940934593,-0.03369090884657804,0.005630529596180143,0.004924857306720961,-0.013765893074571744
13.09,0.21807187036682757,-0.4013382179110669,-0.1972355187129301,0.36192085611126085,0.005530257237716843,0.004706284274716899,-0.013364562656438529
13.123,0.21811175247451445,-0.40147740856883735,0.001197660891497846,-0.00417989963274656,0.0055936924419492055,0.00463279084213776,-0.013369197705342286
13.157,0.22485189747158615,-0.1931868765017564,0.20240675666882,6.2549709329453735,0.005813587488232693,0.0047186528272433505,-0.0064331229875084885
13.19,0.21813160193942438,-0.23077306692017502,-0.20181067664149469,-1.1287144269795382,0.005672001182333512,0.004537695106411785,-0.007684743128441829
13.222,0.2181009070380005,-0.23079808705843255,-0.0009217688115278606,-0.0007513555032291597,0.00570590321691224,0.004493338917085889,-0.007685576299045805
13.257,0.22463216063021801,-0.30209709111598027,0.19613374150803337,-2.141111232959391,0.005917592004391363,0.0045755641455234265,-0.010059833134162144
13.29,0.2179993165214893,-0.2934112534849349,-0.1991845077696312,0.26083596489625693,0.005786606301096471,0.0043833008333440835,-0.009770594741048333
13.324,0.21791550099686502,-0.2931778247986086,-0.002516982721449716,0.007009870460249521,0.005826898926468129,0.004324913142238814,-0.009762821565793667
13.356,0.22451790562119325,-0.2203151056262054,0.198270409138986,2.1880696448169124,0.006041329736013191,0.004404467384304398,-0.0073364930173526405
13.391,0.21789617335813932,-0.21388590333294122,-0.19885081871032825,0.19306913793586142,0.005893902127397672,0.00423206778856121,-0.0071224005809869435
13.424,0.21793019746470493,-0.21401171596268098,0.0010217449419102419,-0.0037781570492421397,0.005924828630125385,0.004190623905328804,-0.0071265901415572775
13.458,0.2245775369902545,-0.2764269955515244,0.19961980557205938,-1.8743327203856877,0.006140599598370422,0.004268440766573879,-0.009205018951865764
13.491,0.2180030779527839,-0.26844461201253306,-0.19743120232644487,0.2397112173871271,0.005998180404546334,0.0040892367728514985,-0.008939205580017352
13.523,0.21804054637827477,-0.26860304728358586,0.0011251779426689932,-0.00475781594753164,0.006035542570557015,0.004036132776838357,-0.00894448147454341
13.558,0.2246882829332274,-0.26866300773030366,0.19963172837695575,-0.0018006140155495322,0.006256513997698187,0.004103385946419432,-0.008946478157419113
13.591,0.21811630259713147,-0.2608564456814602,-0.19735676684972772,0.23443129275806143,0.006108399188482429,0.003929664172755157,-0.008686519641192625
13.623,0.21813461892330416,-0.2607715124563786,0.000550039825005718,0.0025505472997486263,0.00614281373960195,0.0038767900740955025,-0.008683691364797408
13.657,0.22472923418274562,-0.26046569737538816,0.19803649427752149,0.009183636065778487,0.006362945974468961,0.0039389202464691995,-0.008673507722600426
13.69,0.21808211772649644,-0.2522533628798704,-0.19961310679426983,0.24661665151705048,0.006207147520355265,0.003769563283248122,-0.008400036983899685
13.723,0.21804097334465294,-0.2520920289315434,-0.001235567022327154,0.004844863313121868,0.006237405668288854,0.0037166060848134634,-0.008394664563420397
13.757,0.22456919609099804,-0.25926328312344615,0.19604272511546836,-0.21535297873581774,0.006456512285208477,0.00377304816273467,-0.008633467328010758
13.788,0.21793614585042967,-0.25176286204334636,-0.1991906979149661,0.22523787027326708,0.006296736727287592,0.003608160061641654,-0.008383703306043435
13.823,0.21792428437832692,-0.25221210921773835,-0.00035620036344587635,-0.013490906137897501,0.0063264470124188826,0.003555003048135428,-0.008398663236950687
13.857,0.21128129618495103,0.016038349905833537,-0.19948913493621281,8.055569343050205,0.006147121582834523,0.003422500182200487,0.0005340770518642568
13.891,0.20500153115075526,0.015511025280962593,-0.18858153255843174,-0.01583557432044877,0.005962669809107129,0.00332390825595295,0.0005165171418560544
13.923,0.20503407769109563,0.015419670264029963,0.000977373583795134,-0.002743393901880787,0.005961903595549749,0.0033275067662340246,0.0005134750197921978
13.957,0.21044999377776064,0.023088458428892383,0.1626401227226727,0.23029393888475733,0.006117194399883977,0.0034193246571335386,0.0007688456656821164
13.99,0.20428954459503826,0.022360355649434872,-0.18499847395562694,-0.021864948332057363,0.005935613893915389,0.0033237242058260005,0.0007445998431261814
14.02,0.20432437154030045,0.022266367826805064,0.0010458542120777674,-0.0028224571360302778,0.005934154085914104,0.003328701031844639,0.0007414700486326087
14.057,0.2388773015087614,-0.22524667638515186,1.0376255245784072,-7.432824150509216,0.006950764694088194,0.0038681338686618262,-0.007500714323625558
14.09,0.2181064696910923,-0.009561023988396627,-0.6237487032333068,6.477046618521178,0.006360156655884542,0.0035069621243779088,-0.0003183820988136077
14.123,0.21809957977183808,-0.00916037963499566,-0.00020690448210842197,0.012031361963992997,0.0063610485590495335,0.003504868700832337,-0.00030504064184535553
14.158,0.2246857052233438,0.06503656812477225,0.19778154509026183,2.2281365693623996,0.006549774900858913,0.003616802372835298,0.0021657177185549163
14.191,0.21805164770182303,0.0635582766410885,-0.1992209465922153,-0.044393137648160726,0.006348856803214655,0.003523614529862452,0.0021164906121482474
14.224,0.21798629017383214,0.0639217226792906,-0.0019626885282549283,0.010914295441504433,0.006339462750814131,0.0035360221056551966,0.002128593365220377
14.257,0.22542731519180975,-0.22458438566779262,0.22345420474407232,-8.663847097510006,0.006565606476898901,0.003639167236129739,-0.007478660042737495
14.29,0.20490738522051236,0.06463997309736692,-0.616214113252174,8.68541617913392,0.005976761047056202,0.003292007644872255,0.0021525111041423186
14.323,0.20482649830760064,0.06498800486548445,-0.0024290364237753953,0.01045140444797377,0.005967285452024538,0.003303595033990834,0.0021641005620206323
14.357,0.23899494432563875,-0.22280667577679167,1.0260794600011445,-8.642482902170451,0.006972817525024002,0.0038363721363488773,-0.007419462303367163
14.39,0.2179783044566658,0.06641715557524366,-0.6311303263955841,8.68540034090196,0.006368747506654126,0.0034824464569626497,0.002211691280655614
14.423,0.217990072220452,0.06627174224155313,0.00035338629988579027,-0.004366766777493409,0.0063613817176953885,0.0034966969959813097,0.0022068490166437197
14.457,0.2113390500956512,0.206682844776035,-0.19973039413816177,4.216549625660115,0.006151810638925481,0.003417997739276813,0.006882538731041966
14.49,0.20515539827969026,0.20025937108133926,-0.18569524972855703,-0.19289710794882073,0.005949194893336151,0.003358375682412345,0.006668637057008598
14.524000000000001,0.20518876579001044,0.20018763502115608,0.0010020273369423835,-0.0021542360415369574,0.005927634998940271,0.003398519323601475,0.006666248246204498
14.558,0.22463699301112497,0.16442799753606177,0.5840308474809167,-1.0738629875403696,0.006466765851556948,0.003759968261094609,0.005475452317950857
14.591,0.2181249213427388,0.15918066306954173,-0.19555770775934414,-0.15757761160720832,0.006259536472217579,0.003684749891063791,0.00530071608021574
14.624,0.21810585933577015,0.15970671836353,-0.0005724326417015617,0.01579745627592419,0.00623933889362727,0.003717607709166833,0.00531823372150555
14.658,0.2246714494175107,0.11971890963763236,0.19716486731953575,-1.200835096873803,0.00640927748950124,0.0038593803872413604,0.003986639690933158
14.69,0.21804566930398428,0.11606233207976895,-0.1989723757815738,-0.10980713386977226,0.006205509825220864,0.0037699539613326592,0.003864875658256306
14.724,0.2179699246385115,0.11636806339380405,-0.002274614578762063,0.009181120541594805,0.006188723193940924,0.0037926228324472993,0.0038750565110136754
14.757,0.22455706536591133,0.1882470858040823,0.1978120338558506,2.1585292015098574,0.00635584371271172,0.00393951986833179,0.006268627957275941
14.791,0.21790766656048607,0.18244355367859758,-0.1996816458085662,-0.17428024400855055,0.006143928266459624,0.003860860047792085,0.0060753703374973
14.823,0.21790295598748757,0.18194000366636354,-0.00014145864860362945,-0.015121621989010167,0.006120259297527691,0.0038979796591099474,0.0060586021220899065
14.858,0.22455247798758918,0.2576684555579289,0.1996853453483965,2.2741276844313916,0.006277444815084925,0.004062980208324342,0.008580359570079034
14.891,0.21796864010637326,0.2500368284700528,-0.1977128492857632,-0.22917799062690897,0.006059836488435858,0.0039952227803454815,0.00832622638805276
14.924,0.2180040378622224,0.24998179581851188,0.0010629956711449204,-0.0016526321784066883,0.006027344079004317,0.004046190753533327,0.008324393800756447
14.957,0.2246449360357094,0.21227685365418708,0.19942637157618642,-1.132280545475219,0.00617868141012734,0.004217129588297056,0.00706881922668443
14.99,0.2180786724631027,0.2059037562040286,-0.19718509227047148,-0.19138430781256718,0.005969432712479467,0.0041355287396027795,0.0068565950815941525
15.023,0.21811611005637305,0.20584898182963507,0.0011242520501606843,-0.001644876107913622,0.005941960666090427,0.004177072732442539,0.0068547710949268485
15.058,0.22474356561074402,0.2822476783560362,0.19902268932044953,2.294255150942977,0.006087317060598847,0.004353599311925745,0.009398847689256007
15.09,0.21814788698903959,0.2740793511725311,-0.19806842707821115,-0.245295110615768,0.00586927415392719,0.00428038164462131,0.009126842394045287
15.123,0.2181051913812549,0.27419706190652,-0.001282150383924713,0.0035348568765424257,0.0058288143342399125,0.004332933777247137,0.009130762161487116
15.158,0.23896226355261332,-0.4689632127151647,0.6263385036443972,-22.317125364014554,0.006401533451007677,0.004726519619276712,-0.015616474983414987
15.19,0.22773694668937183,-0.0864710477090533,-0.33709660249974444,11.486251201384727,0.006142275938002709,0.0044479216651016435,-0.0028794858887114753
15.224,0.21797293187733768,0.12299359582570925,-0.29321365801904353,6.2902295355784545,0.005876339452285436,0.004260793749578019,0.004095686740996118
15.258,0.22447817793124394,0.12725238030363906,0.19535273435153935,0.1278914257636579,0.006033378990654776,0.004413130755756802,0.004237504264111181
15.291,0.21789510211374163,0.12343260163582014,-0.19768996448955883,-0.11470806810267029,0.005838512840047559,0.004308117760829778,0.004110305634472811
15.322,0.21792768306504162,0.12335601000090389,0.0009784069459455706,-0.0023000490965839468,0.0058216317734559025,0.00433271971115841,0.0041077551330301
15.357,0.2245822586578782,0.25356522068653176,0.1998371048899874,3.910186507075911,0.005971246596183807,0.004502574642702987,0.008443721848861508
15.391,0.21799741071672413,0.24610256578482068,-0.1977431814160383,-0.22410375080213452,0.0057596072028104645,0.004418627212502112,0.00819521544063453
15.423,0.21803315514925783,0.24602577166078388,0.001073406382393619,-0.002306129850954947,0.005724146733724961,0.004466404439827085,0.008192658196304103
15.458,0.22467492534566252,0.2116567449900096,0.19945255845059126,-1.032102903026254,0.005863277531228603,0.00464727940675531,0.00704816960816732
15.491,0.21811023672000157,0.2053195817500411,-0.19713779656639496,-0.19030520240145632,0.005660502748847576,0.00455090120529986,0.00683714207227637
15.524000000000001,0.2181443591549353,0.20522826082213638,0.0010246977457575215,-0.0027423702073492828,0.005630143191943559,0.004590205651161945,0.006834101085377142
15.558,0.2247399182368272,0.26972062015760073,0.19806483729405136,1.9367074875514818,0.005762784151514657,0.004774703408114658,0.008981696651248105
15.59,0.21810903560955697,0.26170014060483043,-0.19912560442252972,-0.24085524182493387,0.005551536842631735,0.004683131696222567,0.008714614682140855
15.624,0.2180558282766462,0.26172771111322923,-0.00159781780512775,0.0008279431951591536,0.005509168412021893,0.0047301810855434,0.008715532780070534
15.658,0.2246298482940341,0.36171038074560474,0.19741801854017663,3.002482571542808,0.005624358891645734,0.004931420979816744,0.012044955678828639
15.689,0.21794221398858946,0.35089403905191235,-0.20082985902236153,-0.32481506587664827,0.005399762109628491,0.004849012661582128,0.011684771500428683
15.724,0.21790058755586802,0.35139901491753167,-0.0012500430246675997,0.015164440408988499,0.005341673346226878,0.004910881883301198,0.011701587196753805
15.758,0.22453766286960183,0.2838147468788414,0.19931157098299726,-2.0295575987594674,0.005450559319609417,0.005118405394509721,0.00945103107106542
15.778,0.2179127465129323,0.27587129491815154,-0.19894643713722326,-0.23854210092161712,0.005243224309272407,0.005016466919872633,0.009186514120774448
15.824,0.21794386267166108,0.27581658665014164,0.000934419181044379,-0.0016428909312284224,0.005197666570333716,0.005065139953632534,0.009184692335449718
15.857,0.22458828511037127,0.3211752926449557,0.19953220536667235,1.3621233031475692,0.0053039747052291255,0.005272534253443473,0.010695137245077025
15.89,0.21801512658711691,0.31172332804851477,-0.197392147845476,-0.28384278067390184,0.005094522088717726,0.005172192318252104,0.010380386824015543
15.924,0.21805247125829746,0.3116673186821927,0.0011214615970135222,-0.0016819629526141674,0.0050414275234660424,0.005225686105772416,0.010378521712117018
15.957,0.22469210315998803,0.3133510070688378,0.19938834539611297,0.050561212812164136,0.005138619649328987,0.005438575257628431,0.0104345885353923
15.99,0.21809167815030267,0.303742391331801,-0.1982109612518125,-0.28854701913023445,0.004933171838936221,0.005329783092937633,0.010114621631348974
16.023,0.21808310552068627,0.3032437278960198,-0.000257436324816788,-0.014974877951387362,0.0048788646240414,0.00537915489444556,0.01009801613893746
16.058,0.2345763234570508,-0.27272400480740566,0.49529182992085635,-17.29632830941217,0.00524490746483918,0.005788640996022992,-0.00908170936008661
16.09,0.22162154299817222,0.07903138429841558,-0.3890324462125697,10.56322489807271,0.004972877815541608,0.005452963978633103,0.0026317450971372392
16.124,0.21800881747318127,0.12375536706301828,-0.10849025600573424,1.3430625454835643,0.004873672156114354,0.005380557276852004,0.004121053723198509
16.157,0.224604674898876,0.13550897950651183,0.1980737965674096,0.3529613346394461,0.004997148463251539,0.005564968503063028,0.004512449017566845
16.191,0.21797884481611354,0.1321133079645115,-0.1989738763592331,-0.10197211837838806,0.0048256193999157765,0.005422358643505606,0.004399373155218234
16.224,0.21794394256589125,0.1327312823689571,-0.0010481156222910105,0.018557789923290734,0.004800892922032589,0.005442713553002619,0.004419951702886272
16.257,0.22456751837408312,0.2480392786696761,0.1989061804261822,3.462702591613183,0.004911134080655488,0.005639361597105099,0.008259707979700215
16.291,0.21793512707859647,0.24122114844348538,-0.19917090977437388,-0.20474865544116247,0.004721348902765802,0.00551145260984934,0.008032664243168064
16.324,0.20845165880687258,0.072697245812864,-0.28478883698870533,-5.060777856775417,0.004488294957322153,0.005295165476775373,0.002420818285568372
16.357,0.21107444962267163,0.2405681506318104,0.07876248696093252,5.041168312881273,0.004516728740114653,0.005385409356518451,0.008010919416039286
16.391,0.20487892275414865,0.233709295123178,-0.18605185791360307,-0.20597163689586734,0.00434273781841733,0.0052617929133136785,0.0077825195276018284
16.424,0.20489695807311473,0.23348030317870047,0.000541601170152413,-0.006876634969295365,0.004302055595930331,0.005295880443712128,0.007774894095850727
16.458,0.22832535597556247,0.1001508188497003,0.7035554925659983,-4.003888418288293,0.0047611165316825575,0.005927975070133754,0.0033350222676950202
16.491,0.21803961906867012,0.258206797079408,-0.3088809881949656,4.746425772663896,0.004512765569912796,0.005687940496649326,0.008598286342744288
16.523,0.2180625594913708,0.2579347553332971,0.0006889015826029755,-0.00816942180513201,0.004464188421666574,0.005727114131748322,0.008589227352598795
16.557,0.22825387872396694,-0.0736605331866314,0.3060456226004847,-9.957816472069926,0.00465442386721009,0.006009100887985456,-0.002452895755114826
16.59,0.2180327650791241,0.08857457353445458,-0.30694034969497963,4.871925126759338,0.004444574716905573,0.005741119059028626,0.002949533298697338
16.624,0.21803903280297052,0.08821680315288985,0.00018821993532743925,-0.010743855302244188,0.004427783356770135,0.005754342543580069,0.002937619544991232
16.658,0.22463545904065935,0.19420045266120403,0.19809087800867353,3.182692177426852,0.004533805393392193,0.005949807655419851,0.006466875073618095
16.684,0.21800510998579703,0.18884118176570125,-0.19910958122709657,-0.16093906593101448,0.004363070853256284,0.00580213736525492,0.006288411352797852
16.724,0.21798177733704346,0.18929369311721406,-0.0007006801427497197,0.013588929474859087,0.004325991593589462,0.00582886788104763,0.006303479980803228
16.757,0.2245525864090575,0.19573966966133946,0.1973215937541755,0.19357286919295505,0.004417807653341746,0.006033017171670599,0.006518130999722605
16.789,0.21795295986870902,0.1902029166792797,-0.1981869831936482,-0.1662688583201133,0.00425025148244747,0.00588313983133557,0.006333757125420014
16.823,0.21798378277319055,0.1901808569808754,0.0009256127471931271,-0.0006624534055344611,0.004213502061945902,0.005910775945494048,0.006333022537463151
16.858,0.19421398284894917,-0.07311656255776583,-0.7138078055327742,-7.90682941557481,0.003743779067953897,0.0052735565245323225,-0.0024347815331736025
16.89,0.15483329721644898,-0.07127938585075291,-1.1826031721471528,0.05517047168206955,0.0029947538021446157,0.004197051963452349,-0.0023736035488300723
16.923000000000002,0.12147074725220491,-0.07129003416883205,-1.0018783773046265,-0.0003197693116857197,0.002357271732523446,0.003287110006216023,-0.0023739581378221073
16.957,0.11640714702192635,-0.08030242934903536,-0.15206006697533217,-0.27064249790400347,0.0022669505838279116,0.0031443723393418687,-0.002674070897322878
16.991,0.11298852557361067,-0.07800418988375174,-0.10266130475422482,0.0690162001586674,0.002208412177929417,0.0030462187466560706,-0.0025975395231289332
17.024,0.11299935011220275,-0.07813956943564487,0.00032506121898138773,-0.004065452008802802,0.0022165365721070296,0.0030407583228879227,-0.0026020476622069747
17.058,0.1318546380039163,0.26819146517608305,0.5662248616130199,10.400331369721558,0.0025751437234533465,0.003556300771147505,0.008930775790363566
17.091,0.12056819958397677,0.2662620093437641,-0.33893208468286895,-0.05794161658615496,0.002325687473675097,0.0032727149552064286,0.008866524911147346
17.123,0.12056587789761121,0.26586850899369396,-6.972031127811356e-05,-0.01181682732943335,0.0022965562032550065,0.0032931283798334947,0.00885342134949001
17.158,0.12726274485925887,0.012508826345419182,0.20110711596539518,-7.60839887832657,0.0024079895418508603,0.0034872558948353307,0.0004165439173024588
17.19,0.11611512446053546,0.016589076765749198,-0.33476337533703937,0.12253004265255303,0.0021955191530488405,0.003182852652801643,0.0005524162562994484
17.224,0.11611553405400483,0.01634879469516039,1.2300104185514526e-05,-0.00721567779545967,0.002193781036344075,0.003184067463820285,0.0005444148633488411
17.257,0.09323543375300422,0.0128851686669858,-0.6870900991291475,-0.10401279363887657,0.0017602606383648755,0.0025575168536774383,0.0004290761166106272
17.291,0.05680109484453298,0.012526409946012763,-1.0941242915456828,-0.01077353516435547,0.001071730505284907,0.0015585496028539658,0.0004171294512022251
17.323,0.023437513770552636,0.012526284914432077,-1.0019093415609712,-3.754702122705945e-06,0.00044195379175578374,0.0006432798944704967,0.0004171252876505882
17.358,-0.00988649658017641,0.012904966829846681,-1.0007210315534247,0.011371829291729849,-0.0001863116273450627,-0.0002714295591177844,0.00042973539543389455
17.39,-0.04328957329310124,0.012525805244826741,-1.0030953967845295,-0.011386233784382577,-0.0008152913239241194,-0.0011888421444035651,0.00041710931465273055
17.424,-0.07665305616220577,0.01252562386855138,-1.0019063924656015,-5.446734995846926e-06,-0.0014427621071887743,-0.0021056904857233837,0.000417103274822761
17.458,-0.13004544547984517,-0.7308189811483251,-1.6033750545837655,-22.32266081131761,-0.0024901993945403247,-0.0035427852279786196,-0.024336272072239228
17.491,-0.12622059660157595,-0.7093232686066729,0.11486032667475155,0.6455168931427077,-0.002498711126338359,-0.0033796533134979037,-0.023620464844602212
17.524,-0.12622063010706244,-0.7093221611963733,-1.006170765657296e-06,3.325556455505432e-05,-0.0025778362929835563,-0.0033196962572208002,-0.023620427967839232
17.558,-0.04489990655389906,0.012386385667722348,2.442063770365267,21.672929335258125,-0.0009306650384002394,-0.0011702079209739355,0.0004124666427351542
17.59,-0.009926188517681567,0.01253165952674684,1.0502618028894142,0.004362578349083836,-0.0002056382149399046,-0.00025878753459267976,0.0004173042622406698
17.623,0.023437360469424923,0.012531461192896994,1.0019083779911857,-5.955971466822914e-06,0.0004852905511047894,0.000611242414453216,0.00041729765772346994
17.658,-0.009881131010055349,0.012842496751927276,-1.0005552996840923,0.009340407178086534,-0.00020448836085008084,-0.00025778464728590396,0.0004276551418391783
17.691,-0.04329343638509577,0.012478735738888183,-1.0033725337849977,-0.010923754145318107,-0.0008954741971339072,-0.0011298417805690592,0.0004155419001049765
17.723,-0.0766530544143577,0.012528290785104843,-1.0017903312090668,0.001488139526025839,-0.0015846459031438871,-0.0020010976947865875,0.0004171920831439913
17.757,-0.13058158587902952,-0.6463207187505505,-1.6194754193595138,-19.78525554161127,-0.0027352782413715645,-0.00338020960573702,-0.021522479934393334
17.79,-0.12672541790197345,-0.6275050799267425,0.11580084015183388,0.5650341989131528,-0.00272347873315916,-0.00322335970370208,-0.020895919161560528
17.824,-0.12673084045248104,-0.6274385439096222,-0.0001628393545822488,0.0019980785922032013,-0.002790350224921134,-0.0031658891214308284,-0.02089370351219042
17.857,-0.08752124590953148,0.3315152974024909,1.1774653015900767,28.797412652015403,-0.0019378108516906957,-0.002176893496091271,0.011039459403502948
17.891,-0.11864083530126583,0.32176408319829375,-0.9345222039559866,-0.2928292553812963,-0.002594579243902272,-0.0029793211156932077,0.010714743970503184
17.924,-0.15422458406568623,-0.07820817336410889,-1.0685810439765886,-12.011178875747826,-0.0033570490870227006,-0.0038865668281294783,-0.0026043321730248262
17.958,-0.1591275060941482,-0.11604028238158151,-0.14723489574960835,-1.1360993698940727,-0.0034767227150514705,-0.003998898902989508,-0.0038641414033066647
17.991,-0.15445404849003425,-0.11254325735807777,0.14034407219561396,0.10501576647158382,-0.0033893620679298843,-0.0038685827542736203,-0.00374769047002399
18.023,-0.1544639833017477,-0.11241936519277015,-0.00029834269409800124,0.0037204854446731307,-0.0034040474746020763,-0.003856108380156534,-0.0037435648609192465
18.058,-0.16866761261431226,0.016720497205501093,-0.4265354147917283,3.8780739458940308,-0.0037237709847998688,-0.004204768512675604,0.0005567925569431864
18.09,-0.16374150109985502,0.016760125117335958,0.14793127671042755,0.0011900273824283773,-0.0036127383519482348,-0.004083978477079332,0.0005581121664072874
18.124,-0.1842652091705313,-0.22445185043156138,-0.616327569689978,-7.2436028693362555,-0.004081425712709476,-0.004581775967628163,-0.007474246619370995
18.158,-0.18986692778698944,-0.23129634190271478,-0.1682197782720162,-0.20554028441902106,-0.004241204675598479,-0.004689014841787683,-0.007702168185360403
18.191,-0.1842798836954612,-0.22481956995804545,0.16777910184769496,0.1944976559960761,-0.004150846137754225,-0.00451964376134617,-0.007486491679602914
18.223,-0.08527742190062321,0.32176881619709546,2.973046900745885,16.414065650304533,-0.0019174636513577489,-0.002094604676245573,0.01071490157936328
18.257,-0.0878615681991923,-0.09390736861783612,-0.07760199094802088,-12.482768312760706,-0.001967375103493313,-0.002165566125489404,-0.003127115374973943
18.291,-0.11359769136578382,-0.5253432701991493,-0.7728565515492948,-12.956033080519914,-0.002572353115184201,-0.00277348769211785,-0.01749393089763167
18.324,-0.1186410091141044,-0.0911465967840065,-0.15145098343305036,13.038939141595879,-0.0027161801533250453,-0.0028689273632825163,-0.0030351816729074165
18.358,-0.1562333129912263,-0.0943715534448525,-1.1288980143279852,-0.09684554537075087,-0.0035884749431173268,-0.0037669022901828967,-0.0031425727297135883
18.39,-0.17547608155930428,-0.2147914887850654,-0.5778609179602993,-3.6162142744808676,-0.004052174339493054,-0.0042100496275877634,-0.007152556576542679
18.424,-0.18640664670905233,-0.3557889545434528,-0.3282451996921336,-4.234158130882503,-0.004346864488863989,-0.0044311854909754094,-0.011847772186296979
18.457,-0.14675074048504527,-0.22118517543243796,1.1908680547749866,4.042155528859303,-0.003455484898854647,-0.0034554778325933426,-0.007365466341900185
18.491,-0.11827817988688305,-0.33389903618477823,0.8550318497946613,-3.384800623193401,-0.002810664530717491,-0.002759180018856768,-0.011118837904953115
18.523,-0.12060112160823819,-0.31337592353678967,-0.06975800965030442,0.6163096891287856,-0.002896019794261764,-0.0027823224725503537,-0.010435418253775097
18.558,-0.12422753432665706,-0.32264067210793357,-0.10890128283540165,-0.27822067781212906,-0.0030132828043178917,-0.0028342344980339914,-0.01074393438119419
18.591,-0.12058373203564837,-0.31304622349244676,0.1094234922224832,0.2881215800446488,-0.0029538527902586375,-0.002719991219873086,-0.010424439242298479
18.623,-0.12060284735944714,-0.313039421096827,-0.0005740337477106811,0.00020427614473835214,-0.002982518584964174,-0.002689478346206513,-0.01042421272252434
18.658,-0.1523582841694679,-0.38824658690310765,-0.9536167210216443,-2.258473447636056,-0.003807238359931902,-0.0033534002064073407,-0.012928611343873487
18.688,-0.16303496072537568,-0.5166721167026969,-0.3206209175948284,-3.85662251650418,-0.0041276141569855035,-0.003526586492963726,-0.017205181486199806
18.724,-0.16303564930626416,-0.516242913169706,-2.0678104759005972e-05,0.012888994984708926,-0.0041876688962869165,-0.003455096281196371,-0.017190889008551213
18.757,-0.11834049912059326,-0.38803739563576006,1.3421967022723993,3.850015541559939,-0.0030770772410352266,-0.0024618693005840015,-0.012921645274670811
18.791,-0.1153877287078759,-0.6416008900731421,0.08867178416568629,-7.614519352473936,-0.0030409719580052623,-0.002348627906153996,-0.021365309639435635
18.823,-0.11539745583928632,-0.6415129219530827,-0.0002921060483607018,0.0026416852870690894,-0.0030907104588551973,-0.0022833225204404064,-0.021362380301037657
18.857,-0.08483527983689876,-0.6609728949354554,0.9177830631347614,-0.5843835730442244,-0.0023080212615259766,-0.0016289335142257455,-0.02201039740135067
18.891,-0.048646283290006004,-0.641532763561823,1.0867566530598423,0.5837877289379108,-0.001343412114308983,-0.0009051457866441631,-0.021363041026608708
18.923000000000002,-0.015282776138770176,-0.6415338271758887,1.0019071216587336,-3.194036233364981e-05,-0.0004280260710729351,-0.0002752812761191385,-0.021363076444957097
18.957,0.01828828970152157,-0.6609742597932917,1.0081401153240763,-0.583796775297388,0.0005192241579670774,0.0003182331822283512,-0.022010442851116616
18.99,0.05144421756470878,-0.6415335033971712,0.9956735094050213,0.5838064983819978,0.0014796267545286069,0.0008632953044243657,-0.0213630656631258
19.023,0.08480770351430893,-0.641532303861097,1.0019064849729773,3.6022104328432695e-05,0.002469064107364754,0.0013707444366800549,-0.021363025718574534
19.058,0.12141170471714638,-0.6609705124365526,1.0992192553404638,-0.5837299872509167,0.0035764598394423318,0.0018852594250935311,-0.022010318064137203
19.09,0.15153449434636956,-0.6415282113719347,0.9045882771538493,0.5838528848233592,0.004513775836857714,0.0022556531256970034,-0.021362889438685428
19.124,0.18489778667175585,-0.6415259655478115,1.0019006704320206,6.744216586264074e-05,0.005565107521402717,0.00263400291482904,-0.021362814652742125
19.157,0.21450523759833265,-0.7863327247820998,0.8891126404377415,-4.348551328357006,0.006526995290278919,0.0029014160321800832,-0.026184879735243926
19.19,0.21801700404551325,-0.8859606446343893,0.1054584518672852,-2.9918294249936777,0.006713326872256641,0.002763065170727506,-0.029502489466325166
19.224,0.21801701658269543,-0.8859632432203524,3.764919573965384e-07,-7.803561450679161e-05,0.006791911431030733,0.002563831504510404,-0.029502575999237737
19.257,0.1954491609960139,-0.6764710908440509,-0.6777133809814274,6.29105562691596,0.006146670998557271,0.002139312438565342,-0.022526487325106898
19.291,0.1995276285849399,-0.7792542142305762,0.12247650417195174,-3.086580281877636,0.006325976816307609,0.0020312223997535944,-0.02594916533387819
19.323,0.19952915248924577,-0.7792321796034802,4.576289206857207e-05,0.0006617005133914367,0.006376597745971871,0.0018664197676417848,-0.025948431580795895
19.357,0.21449795781285352,-0.6677907620157127,0.4495136733816142,3.346589116749774,0.006901372515313241,0.0018407307336579476,-0.022237432375123236
19.391,0.21803508123431423,-0.7705838770590373,0.10621992256638746,-3.086880331631368,0.00705792413133522,0.0017025466458974027,-0.025660443106065946
19.423000000000002,0.2180432834818172,-0.7704343669838302,0.0002463137388280861,0.004489792048262392,0.007099547248243168,0.0015209714667776012,-0.025655464420561547
19.457,0.2246807410740462,-0.7537835734801507,0.1993230508176877,0.5000238289393238,0.007353087838741636,0.001381129633950734,-0.025100992996889022
19.49,0.2180997080780849,-0.7319580105884296,-0.19762861849733632,0.6554223090606939,0.007168700111740151,0.001163715249462826,-0.024374201752594707
19.524,0.2181105273596062,-0.7323928488450828,0.0003249033489880335,-0.013058205905502916,0.007195296436165206,0.000988652462848834,-0.02438868186654126
19.558,0.20134440736799683,-0.6313595316158563,-0.5034870868351163,3.0340335504272216,0.006661246767264916,0.0007616166023402898,-0.02102427240280802
19.59,0.2053649374996953,-0.6974669116144184,0.12073664059154593,-1.985206606563426,0.006809756658207182,0.0006263217178227425,-0.023225648156760134
19.623,0.20534124466263481,-0.6976478088995819,-0.0007114966084233055,-0.005432350905809657,0.006821679690693131,0.0004679314582179571,-0.02323167203635608
19.658,0.2246229014923746,-0.630041093432235,0.5790287336258193,2.030231695716122,0.007471761449890006,0.00034679988014636655,-0.02098036841129343
19.691,0.2179844502183228,-0.6116502720860469,-0.1993528911126666,0.5522769173029453,0.007256358322328206,0.00018658243280489581,-0.020367954060465366
19.724,0.21788790081890289,-0.6110161931399812,-0.002899381363961415,0.019041409791763005,0.007255438107912553,3.881621176674936e-05,-0.020346839231561376
19.758,0.2245265750228773,-0.6297221260335552,0.19935958570493703,-0.5617397265337513,0.007475721917485916,-0.00011445025738476911,-0.020969746796917387
19.79,0.2179597775534014,-0.6114080506765586,-0.1972011252094861,0.5499722329428404,0.007253239593377737,-0.0002610349503350621,-0.020359888087529403
19.823,0.21799698714597307,-0.6116257229774031,0.0011174051823323924,-0.006536705731068275,0.007247657567417139,-0.00040874181886343784,-0.020367136575147528
19.857,0.22464115819227182,-0.504372351442734,0.19952465604500738,3.2208219680080834,0.007459479585601546,-0.000559897905075149,-0.016795599303043043
19.89,0.2180746846261025,-0.48976056651545885,-0.19719139838346314,0.43879234015841156,0.007231448522584626,-0.0006633145238298053,-0.01630902686496478
19.924,0.21811093033349813,-0.4899312236414792,0.0010884596815505217,-0.005124838619228942,0.007220866972330813,-0.0007813093164941822,-0.016314709747261257
19.958,0.2012480118683516,-0.4885518757950628,-0.5063939479022983,0.041421857249740436,0.006649968486607346,-0.0008293484568130638,-0.016268777463975592
19.991,0.21798415014014214,-0.3519258432405801,0.502586734888605,4.102883860494975,0.007189753806499671,-0.000999030917133671,-0.01171913057991132
20.023,0.21805729500547966,-0.3510091658521536,0.0021965425026282603,0.02752784950229866,0.007179977781481789,-0.0010834719724539493,-0.011688605222876715
20.057,0.2246674468299512,-0.39535341225541765,0.19850305779193858,-1.331659051149071,0.007383175889183768,-0.001208155636239672,-0.013165268628105409
20.091,0.21800583722691694,-0.38325585561405684,-0.20004833642745568,0.36328998923005423,0.007148461090997223,-0.0012651083971063366,-0.012762419991948094
20.124,0.2179653174058755,-0.38298281149574664,-0.0012168114426860633,0.008199523072378229,0.007130414212416939,-0.0013559500739867725,-0.012753327622808364
20.158,0.22460756692907075,-0.22367019666059085,0.1994669526485061,4.784162607662336,0.007333250263537869,-0.0014714226715023837,-0.007448217548797676
20.191,0.21797687959589634,-0.24829876013948052,-0.19911973973496697,-0.7395965008675576,0.00710531889131571,-0.00148386457463824,-0.008268348712644702
20.223,0.2179561794402135,-0.24907359006474636,-0.0006216262967819854,-0.02326816592389912,0.00709211344982336,-0.0015425074153243058,-0.008294150549156054
20.258,0.22458872319999448,-0.32402764768657355,0.19917548828171106,-2.250872601256072,0.007292417266310885,-0.0016591034430062193,-0.0107901206679629
20.29,0.2180059139758564,-0.31482972899445383,-0.19768195868282556,0.2762137745381298,0.007061144032513853,-0.0016856778788216715,-0.010483829975515313
20.324,0.21804426868679794,-0.3151536784592647,0.00115179312136775,-0.009728212156481876,0.007044313512615935,-0.0017599592748193573,-0.010494617492693514
20.357,0.22462085781349564,-0.08185656939847359,0.19749516896990094,7.005919191014747,0.007244670026772014,-0.00186097960014862,-0.002725823760969171
20.391,0.21806250529603272,-0.1772558363578001,-0.1969475230469346,-2.864842851631426,0.007025276543621637,-0.0018369673097108046,-0.005902619350714744
20.423000000000002,0.218072617512875,-0.17714424099733214,0.0003036701754436314,0.003351212026064659,0.0070146400825723335,-0.0018784766784644864,-0.005898903225211161
20.457,0.2246474655291974,-0.13212360723100422,0.19744288337304533,1.3519709839738114,0.007216074540971661,-0.0019722974248594385,-0.004399716120792441
20.491,0.21800633921691198,-0.12760142089569587,-0.19943322259115365,0.13580139145070114,0.006994407820630867,-0.0019442564666091071,-0.004249127315826673
20.524,0.21798091129078684,-0.1270684944918283,-0.0007636013851394393,0.01600379591193896,0.006985286020807266,-0.001973666745563152,-0.004231380866577883
20.557,0.2245905736125923,-0.11217584965491363,0.19848835801217593,0.4472265716791193,0.007188939082625797,-0.002062165848798024,-0.003735455793508624
20.59,0.2179958819212229,-0.10907571804707226,-0.19803878953061235,0.09309704528052151,0.00697042829353145,-0.002027305811947984,-0.0036322214109675067
20.624,0.21799934985897826,-0.10952235607007886,0.0001041422749355132,-0.013412553243441315,0.006963114179116254,-0.002052694947670632,-0.0036470944571336266
20.657,0.22462166451331664,-0.1553909916583385,0.19886830793808946,-1.377436504151941,0.0071652345716638486,-0.002146675120046439,-0.005174520022222673
20.69,0.2180209421505273,-0.15121191458671362,-0.19821989077445432,0.12549780995870496,0.006943950526080379,-0.0021190690401271064,-0.005035356755737564
20.724,0.21801830656095936,-0.15166447074450726,-7.91468338723978e-05,-0.01359027500881778,0.006933092183691976,-0.002154033484855782,-0.005050426875792092
20.758,0.22463278478763501,-0.05369442410510041,0.19863297978004976,2.9420434426248296,0.007135812242724551,-0.0022437989961594726,-0.0017880243226998439
20.79,0.21804108527141486,-0.052634980156690395,-0.1979489344210257,0.031815133585886404,0.006922549946616514,-0.002190215221440335,-0.0017527448392177904
20.824,0.2180695519159814,-0.05260758187592113,0.0008548541911875013,0.0008227711942722783,0.00691960471260479,-0.0022026296884528336,-0.0017518324764681738
20.857,0.2246760078909038,-0.03147904004771382,0.1983920713189911,0.6344907455918111,0.007126051772487355,-0.0022793379382775245,-0.0010482520335888704
20.879,0.21804702824695324,-0.030038843163849048,-0.19906845777629328,0.043249155671614734,0.006913530962120609,-0.0022191694578922363,-0.0010002934773561734
20.923000000000002,0.2180161534153141,-0.029435963569666077,-0.0009271721212952773,0.01810449231780693,0.006910351414930391,-0.0022256993374266836,-0.0009802175868698804
20.958,0.22461292056605736,0.06129418475271115,0.19810111563793556,2.7246290787500667,0.007120660286491998,-0.002289267836316886,0.0020410963522652817
20.99,0.21796835963522954,0.060234718708958565,-0.19953636428912386,-0.03181579710968729,0.006914496057040277,-0.0022075594500616646,0.0020058161330083206
21.023,0.21798031579911614,0.0603794484318515,0.000359043960558743,0.004346237924712798,0.006919294905062472,-0.0021937894649500388,0.0020106356327806553
21.058,0.22460865644081995,0.13467179905510246,0.19904926851963395,2.2310015202177462,0.007136995483872592,-0.0022373303625467045,0.0044845709085349125
21.09,0.2180061571643651,0.13055992342641445,-0.19827325154519046,-0.1234797486092494,0.00693672206749935,-0.0021409505336389746,0.0043476454500996015
21.124,0.20488414434548893,-0.0699524429437195,-0.3940544390052906,-6.021392383487505,0.0065212244612578634,-0.0020055060282119026,-0.0023294163500258594
21.157,0.21113869610308153,0.14316913190838268,0.18782437710488278,6.400047292855921,0.006722809203434726,-0.0020585331823620013,0.004767532092549143
21.19,0.20489611612927494,0.13848440261198558,-0.18746486407827592,-0.14068256145336636,0.006533337693028909,-0.001967053642329,0.004611530606979121
21.223,0.20489627930783133,0.13804359873139738,4.900256948629581e-06,-0.013237353771417508,0.006542330350667968,-0.0019369537167067909,0.004596851837755533
21.256,0.224662604005683,0.21607077603091585,0.5935833242598098,2.343158477463017,0.007185856411709164,-0.002081477331180819,0.007195156841829499
21.29,0.21806675784621976,0.2090263144270735,-0.19807345824213923,-0.21154539350877893,0.006989013628287566,-0.001970950208539159,0.0069605762704215484
21.323,0.21808777879681196,0.20904883245185166,0.0006312597775435066,0.0006762169603048318,0.007003238902729944,-0.0019224379660929744,0.0069613261206466605
21.356,0.22469251207369334,0.21666333049720699,0.1983403386450865,0.22866360496562543,0.007229186890685342,-0.001929465861865224,0.007214888905556993
21.39,0.21806429379364184,0.21080838565988466,-0.19904559399554056,-0.17582416928895864,0.007029083340755973,-0.0018225664049363183,0.00701991924247416
21.423000000000002,0.21803781649844908,0.21137853710221935,-0.0007951139697524354,0.017121664934975602,0.007040866062046639,-0.001772896148159578,0.007038905285503905
21.458,0.22461645229926042,0.2579985417965276,0.19755663065499499,1.4000001409702174,0.007267347496506841,-0.001769645480383811,0.00859135144182437
21.489,0.21799271204413512,0.25092185088280566,-0.19891111877253148,-0.21251324065231014,0.00706734059312917,-0.0016576354301400104,0.00835569763439743
21.524,0.21797325208260598,0.2509389984100957,-0.0005843832291031093,0.0005149407594606636,0.007080312766840434,-0.0015983809697382961,0.008356268647056188
21.557,0.2245725487942483,0.334048604674988,0.19817707842769683,2.4957839719186867,0.0073103512716560645,-0.0015756421265580532,0.0111238185356771
21.59,0.21797055693631767,0.32413043982803486,-0.19825801375167015,-0.29784278819679055,0.007111776405724834,-0.00145147482915333,0.010793543646273562
21.624,0.21797329096710652,0.3238844313866931,8.210302669213002e-05,-0.007387640881133954,0.007127112216414408,-0.0013746769477825118,0.010785351565176881
21.657,0.19761524489290075,0.11285324644320953,-0.6113527349611342,-6.337272821125632,0.006470380732319312,-0.0011992731544480416,0.0037580131065588778
21.691,0.20477280435887,0.2932158507351743,0.21494172570478207,5.416294423182125,0.00671296180927202,-0.0011973472687154317,0.009764087829481306
21.723,0.2047886105323029,0.292943812068626,0.0004746598628502707,-0.008169329325774504,0.006724846598025332,-0.0011318631122256236,0.009755028941885248
21.757,0.21123784379925248,0.08489730531611492,0.19367066867716431,-6.247642845420753,0.006943859224988406,-0.0011238504835264247,0.002827080267026627
21.79,0.21806742577026683,0.265529733315665,0.2050925516821127,5.424397237223725,0.007174989017528486,-0.00111833858205886,0.008842140119411646
21.823,0.2181132617748985,0.2653128494002813,0.0013764565955458699,-0.006513030492001765,0.00718610328647107,-0.0010551011101200373,0.008834917885029369
21.857,0.22473287638714462,0.32664838525809115,0.1987872255929763,1.8419079837180123,0.007414540078380537,-0.0010140925968467741,0.010877391229094436
21.89,0.21812674160542214,0.3173720689413631,-0.19838242587755187,-0.27856805755940056,0.007206728441939268,-0.0009070594189741957,0.010568489895747393
21.923000000000002,0.2181050405541845,0.31789723545375453,-0.0006516832203494925,0.015770766137880733,0.007215201299196888,-0.0008307001823904229,0.010585977940610027
21.957,0.1975980997206787,0.07259700456414893,-0.6158240490542279,-7.366373299988156,0.0065415886767181035,-0.0007100820678600657,0.0024174802519861594
21.99,0.20486432820666087,0.3058308125731483,0.21820505963910378,7.00401825852851,0.0067866172732842485,-0.0006934435192621942,0.01018416605868584
22.024,0.20483302646773507,0.3063737991125393,-0.0009399921599337243,0.016305902083813793,0.006792294922526814,-0.0006241359119085276,0.01020224751044756
22.057,0.21121865133551154,0.05926303735949846,0.19176050653983387,-7.420743596187412,0.0070078607741536235,-0.0006009444704890387,0.001973459144071299
22.091,0.21794961039912633,0.29429903937126584,0.2021309028112549,7.058138198551572,0.007234679360107675,-0.0005775136217280704,0.009800158011063154
22.124,0.21795410295711656,0.29414530964330743,0.0001349116513583238,-0.004616508347099312,0.00724013954679268,-0.0005066149990339625,0.009795038811122139
22.157,0.19716561115894435,0.040971784527968874,-0.6242790329781446,-7.602808562022177,0.006552054918349672,-0.00042174404493881313,0.0013643604247813637
22.191,0.2042465059389606,0.27547666629591905,0.21263948288337087,7.042188641680185,0.0067895461458204595,-0.00040112134482851947,0.009173372987654105
22.223,0.20426480056352198,0.27526929904868563,0.0005493881249662724,-0.006227244661664091,0.006793547377469712,-0.0003388761083070629,0.009166467658321232
22.258,0.21134045519904243,0.0674787624444511,0.21248212118680046,-6.239956054181216,0.007030782804792991,-0.00031049811821947233,0.0022470427894002217
22.291,0.21803620600343981,0.3009976449099358,0.2010735977296511,7.012579053017557,0.007255334077360847,-0.0002758271745637905,0.010023221575500863
22.323,0.2181077262270171,0.30089034358534544,0.0021477544617803947,-0.003222261999710471,0.007260114597807072,-0.000203172305542344,0.010019648441392004
22.357,0.2247524213449685,0.29317650884911706,0.1995403939324746,-0.2316466887756272,0.007483001855584034,-0.00013535389660140727,0.0097627777446756
22.391,0.21815754568810408,0.28458429699625304,-0.19804431401995265,-0.2580243799658864,0.00726435871964617,-6.15051036795141e-05,0.009476657089975226
22.424,0.2181242349976966,0.28469805761790856,-0.0010003210332579517,0.003416234884550244,0.007263506103981922,7.351101622636818e-06,0.009480445318676357
22.458,0.22466050332677193,0.3348644069570844,0.1962843342064665,1.506496977152428,0.007480676020507017,8.474303478068025e-05,0.011150984751670912
22.49,0.2180015490807178,0.32504066011138866,-0.19996859597760108,-0.2950074127836564,0.0072576087444843895,0.00016198183329727114,0.010823853981709243
22.523,0.2179587517830641,0.32486243256154496,-0.0012852041337452946,-0.005352178673985026,0.007254006771449446,0.00024045736414538986,0.010817919004299448
22.558,0.22451401405971777,0.3086943893225334,0.19685472302263296,-0.4855268239943409,0.007469151158073183,0.0003264961016120814,0.010279523164440363
22.59,0.21788396167244953,0.3000534635683842,-0.1991006722903376,-0.2594872598843606,0.007244999980016252,0.0003903061130484514,0.009991780336827195
22.624,0.2179096355144978,0.30007053704279024,0.0007709862476957441,0.0005127169491305874,0.007241591600595637,0.0004627324504867844,0.009992348883524916
22.657,0.2245542919531003,0.3518924003784709,0.19953923239046586,1.5562121121826027,0.007456779977900509,0.0005578176606950592,0.011718016932603083
22.69,0.21797666957216127,0.34155866019410813,-0.19752619762579685,-0.3103225280589424,0.007231624891368251,0.0006250141569190935,0.011373903384463802
22.723,0.21801208472605701,0.341496958919212,0.0010635181350072175,-0.001852891138021951,0.007225222884955701,0.0007073312420092999,0.01137184873200976
22.757,0.22465457971323632,0.3104743967621722,0.19947432393931858,-0.9316084731843783,0.007437020563018243,0.0008096606042561814,0.010338797412180335
22.791,0.21808856397243717,0.3012631942925871,-0.19717764987384842,-0.276612686774328,0.007211279371415053,0.0008594900277881729,0.010032064369943151
22.824,0.2181096839123399,0.26851474916631557,0.000634232429511264,-0.9834367905787239,0.00720350491596331,0.0009279529653783368,0.008941541147238309
22.858,0.2247262438732755,0.276203266484304,0.19869549432239045,0.23088640594559814,0.00741305193107911,0.0010233773457488187,0.009197568773927323
22.891,0.21810212050709574,0.2675649676433763,-0.19892262360900187,-0.25940837360143254,0.0071852562898908805,0.0010583080049780711,0.00890991342252443
22.924,0.19193966681061272,0.04150108965866522,-0.785659270164655,-6.788705044585917,0.006318492386302126,0.0009638888714589552,0.001381986285633552
22.958,0.21111503947979748,0.25049079498585103,0.5758370170926354,6.275967126942516,0.006944473573812262,0.0010939558919070649,0.00834134347302884
22.991,0.2048373585281523,0.24313997188197212,-0.18851894749685244,-0.22074543855492226,0.0067290237245877195,0.0011167690047556864,0.008096561063669672
23.024,0.21800603448201153,0.28534936524770327,0.39545573435012704,1.2675493503222566,0.007150879137974712,0.0012515338363542964,0.00950213386274852
23.058,0.2245961228544828,0.2937770801839226,0.19790055172586393,0.25308453261919983,0.00735426593397353,0.0013603413913064817,0.009782776770124624
23.091,0.21800102910863303,0.2852714768203438,-0.19805086323873172,-0.25542352443179595,0.00712525344132387,0.0013891555001885308,0.00949954017811745
23.123,0.21797490925983454,0.23964816494154711,-0.0007843798437986433,-1.3700694257896906,0.007111996008470749,0.0014512034487886558,0.00798028389255352
23.158,0.22455318245702108,0.24752353539752683,0.19754574165725344,0.23649761129068222,0.0073142604694389005,0.001554378549726764,0.008242533728737645
23.191,0.21798414119355325,0.24016864969612628,-0.19726850641044527,-0.2208674384804971,0.007087805107904216,0.0015665117894630533,0.007997616034881005
23.223,0.17873443949728499,0.018203743891527374,-1.1786697206086565,-6.665612786924892,0.0058060279706622095,0.001309441830153888,0.0006061846715878617
23.257,0.2065242952850041,0.16559029581843454,0.8345302038354088,4.4260225803876025,0.006704086569684322,0.001533556399846247,0.005514156850753871
23.291,0.20487625048000122,0.21626802314396515,-0.04949083498507162,1.5218536734393575,0.006640775831202688,0.001563570380009816,0.0072017251706940405
23.324,0.1670560040452208,0.16005720600728254,-1.1357431361795918,-1.688012526627105,0.005406796213499149,0.0013088392987497372,0.005329904960042509
23.358,0.13808670100976383,0.1648774105135408,-0.8699490401038129,0.14475088607382136,0.0044632809482153995,0.0011060355857860982,0.005490417770100909
23.388,0.10032777384262319,0.16007526029422087,-1.1339017167309502,-0.14420871529489274,0.0032384302150047775,0.0008211306076704212,0.005330506167797555
23.423000000000002,0.06696168639188978,0.16010766003652135,-1.0019846081301325,0.0009729652342488698,0.0021584705435274813,0.0005595613506813554,0.005331585079216161
23.456,0.03495657336102076,0.16495975823340706,-0.9611145054315019,0.14570865456113216,0.001125206964707826,0.00029820688273539804,0.005493159949172455
23.49,0.006531040174418517,0.08140146710093248,-0.8536196152132804,-2.5092579919662032,0.00020999564523789633,5.657678617269444e-05,0.0027106688544610517
23.522,6.552691377595823e-05,-0.0008193419172840265,-0.19415955737665339,-2.4690933639104053,2.106155212556241e-06,5.704699507097065e-07,-2.7284085845558088e-05
23.557,0.006719221744137602,0.5094182209847833,0.19981065556641572,15.322449336398417,0.00021546243087169968,6.032280218651902e-05,0.016963626758793284
23.59,-0.004815212414226804,0.7738997027663769,-0.3463794041550872,7.942386840288095,-0.00015344609874155625,-4.651768954869773e-05,0.025770860102120353
23.623,-0.06218837163087334,1.4910643814544648,-1.7229176941935895,21.536476837480116,-0.0019575464825735173,-0.000675014688512615,0.04965244390243368
23.657,-0.06407277790666442,1.5362469296467398,-0.05658877705078326,1.3568332790472961,-0.001979249146847525,-0.0007961968050221668,0.051157022757236444
23.689,-0.07442907581443066,1.6056276480722729,-0.3109999371701573,2.0835050578238152,-0.002247633082426025,-0.0010438324196529647,0.053467400680806694
23.724,-0.0744291139756934,1.6056272649474137,-1.1459838662770978e-06,-1.1505251026163561e-05,-0.002188637834057607,-0.0011624591705701529,0.05346738792274888
23.758,-0.07669811483581278,1.6544511895390017,-0.0681381639675487,1.4661839216693098,-0.002187031209014653,-0.0013184847067552275,0.05509322461164876
23.791,-0.08035932502391094,1.5852417775510286,-0.10994625189483963,-2.0783607203595538,-0.002213640969201044,-0.0015029711980236052,0.052788551192449254
23.823,-0.08038264069959539,1.5855336709235242,-0.0007001704409744387,0.008765566741608931,-0.002131864968811939,-0.0016181578557129864,0.05279827124175336
23.854,-0.08285493819419497,1.633191663348659,-0.07424316800599344,1.4311709436977416,-0.00210491975679812,-0.001783227654553264,0.05438528238951035
23.89,-0.03852112392496667,0.7737513888426559,1.3313457738506995,-25.809017252432522,-0.0009447127726826128,-0.0008676883659233378,0.025765921248460444
23.922,-0.06662021362379354,0.8395550304972802,-0.8438165074722783,1.9760853349737015,-0.0015929286068134792,-0.0015439534066537756,0.027957182515559433
23.956,-0.18135612294518433,2.2721577730340363,-3.4455228024441675,43.02110337948216,-0.00411200554126655,-0.004421024132831726,0.07566285384203342
23.988,-0.03291689523302012,0.8396743646780555,4.457634465830757,-43.01751977044987,-0.00070393249984304,-0.0008401829910086164,0.02796115634377925
24.024,-0.04234787868021078,1.1388344176896936,-0.2832127161318517,8.98378537572487,-0.0008694994616640498,-0.0011101136410838844,0.0379231861090668
24.058,-0.07766997574493019,1.1732799616787113,-1.0607236355771592,1.034400720390921,-0.001515194368853128,-0.00209591335656519,0.03907022272390109
24.09,-0.10150726001427236,1.044228887339947,-0.7158343624427078,-3.8754076378007287,-0.0018777790340810485,-0.002810425410630591,0.03477282194842024
24.123,-0.12131548492999361,0.7951364719154392,-0.5948415890606981,-7.480252715450683,-0.0021403533053802903,-0.003426071211397713,0.026478044514784128
24.158,-0.13862909111831082,1.0757216015290876,-0.5199281137632794,8.425979868277727,-0.002322639698883685,-0.003989203150154604,0.03582152933091862
24.191,-0.15740104585756365,0.7970482758292486,-0.5637223645421271,-8.368568339334502,-0.0024947190140943393,-0.004609513313133003,0.026541707585113983
24.224,-0.15742522319172472,0.7971448307230669,-0.0007260460709031242,0.0028995463609072843,-0.002371867097271529,-0.0046748178599071225,0.02654492286307813
24.258,-0.10458578206553035,1.0759101261209092,1.5867700037896206,8.371330192127397,-0.0014781124942727937,-0.0031532730481078344,0.03582780719982628
24.291,-0.10448599203534063,0.6602934726806263,0.002996697603294721,-12.480980583792277,-0.001385076873890786,-0.0031917368478930376,0.021987772640264858
24.324,-0.10907979268966574,0.6042571188353648,-0.13795197160135445,-1.6827733887465917,-0.0013755061276818097,-0.0033617786666709517,0.02012176205721765
24.358,-0.1416794739046129,0.6802090197467979,-0.9789694058542695,2.2808378652082015,-0.0016927988329929246,-0.004403670142075795,0.022650960357568372
24.39,-0.16656536327886842,0.3384543023710051,-0.7473240052328981,-10.262904425699483,-0.0019020775144991894,-0.005210263148659104,0.011270528268954472
24.423000000000002,-0.16658461061480342,0.338695662647979,-0.0005779980761261877,0.007248056365582943,-0.0018434274896540104,-0.0052319810759525525,0.011278565566177703
24.457,-0.10764538841971702,0.6802145923292735,1.7699466124650571,10.255823714152987,-0.0011336626525649607,-0.0034005228074385353,0.02265114592456481
24.491,-0.1255932101538093,0.28671624996860506,-0.5389736256484171,-11.81676703785791,-0.0012586585326866228,-0.003988344706154805,0.009547651123954549
24.523,-0.1255933011753298,0.2867148032073677,-2.733378993617278e-06,-4.344628340441375e-05,-0.0012205234006263457,-0.004000182843278714,0.009547602946805345
24.557,-0.1317817461278422,0.6700771363317648,-0.1858391877631348,11.51238237610802,-0.0012136176118176273,-0.004217083389389408,0.02231356863984777
24.59,-0.148931793292559,0.2757751840275901,-0.5150164313728776,-11.840899468593834,-0.0012963575040992018,-0.004786984182439612,0.009183313628118752
24.623,-0.09785615790546727,0.6089510097203908,1.5338028644772292,10.005280050834855,-0.0008053420324417568,-0.0031574673181995077,0.020278068623689017
24.656,-0.1069041705593814,0.278905020188667,-0.27171209170913285,-9.911290976928644,-0.0008287308044244635,-0.003462089743154907,0.00928753717228261
24.691,-0.11270119771344751,0.15709071392820972,-0.174084899521505,-3.658087275088806,-0.0008471538845937699,-0.003656081373301803,0.005231120773809384
24.724,-0.1126491599155254,0.15804626520291246,0.0015626966342975424,0.028695233474556506,-0.0008275764328761311,-0.0036587858556531325,0.005262940631256985
24.758,-0.13680011582108376,0.22667712842431367,-0.7252539310978483,2.060986883525562,-0.0009765181462061998,-0.0044495373365814415,0.007548348376529646
24.791,-0.1422167690429081,0.09893086026990593,-0.16266225891364353,-3.8362242689011334,-0.00099009311952783,-0.004631163064995132,0.0032943976469878675
24.824,-0.1422105372671128,0.09947171535235605,0.00018714041427280944,0.01624189436787156,-0.0009747464287747134,-0.004634205369377801,0.0033124081212334566
24.855,-0.12925038667229452,-0.07986982506025952,0.3891937115561045,-5.385631844222689,-0.0008845397909480418,-0.0042121633963832575,-0.0026596651745066425
24.89,-0.125434950061376,-0.07754493864008703,0.11457767600355902,0.06981640901418895,-0.0008691394679332516,-0.004085557595407145,-0.0025822464567148984
24.92,-0.12545569094715633,-0.07750251604268012,-0.0006228494228327113,0.0012739518740815584,-0.0008798290484118462,-0.00408397544770562,-0.002580833784221248
24.957,-0.10281588399517881,0.22690950990505046,0.6798740826419676,9.14150228071263,-0.0007127248333122817,-0.0033487551826973687,0.0075560866798381815
24.99,-0.06607222871316508,0.21991294012087131,1.103413071531944,-0.21010720072610048,-0.00044199351853984654,-0.0021553475563946822,0.007323100906025015
25.023,-0.03270863488904905,0.2199130811200036,1.0019097244479287,4.2342081767714734e-06,-0.00021098658602578145,-0.0010685647588283287,0.00732310560129612
25.057,0.0003344676761992412,0.22657720873046142,0.9922853623197684,0.20012395226600044,2.076189407805272e-06,1.0942524855390987e-05,0.0075450210507243655
25.09,0.03401855933166747,0.2199133649911084,1.0115342839479948,-0.20011542760819895,0.00020288875923016756,0.0011144985849587405,0.00732311505420391
25.124,0.0006435453374109557,0.2201496345572384,-1.0022526725001955,0.00709518216606652,3.683562063971108e-06,2.111105809792569e-05,0.007330982830756039
25.157,-0.0333576644630047,0.22659273375381037,-1.0210573513638335,0.19348646235951833,-0.00018278979742187483,-0.001095664818808971,0.007545538034001886
25.19,-0.0660723030514622,0.2199051771546735,-0.9824215792329577,-0.20082752549960545,-0.0003459124559707341,-0.002172840727398133,0.007322842399250629
25.223,-0.0994358645266511,0.2199046446070379,-1.0019087530086757,-1.5992421489521503e-05,-0.0004966231775855271,-0.0032737526618000687,0.007322824665414363
25.258,-0.13648323938701123,0.22656729162842293,-1.1125337795903945,0.20007949013168244,-0.000648230840771904,-0.004498415378677829,0.007544690811226484
25.291,-0.149170315752072,0.09830619756205576,-0.3809932842360594,-3.8516845064975116,-0.0006818850726329176,-0.004920344548480471,0.003273596378816457
25.324,-0.14919024911365775,0.09805686486866519,-0.0005985994470190189,-0.007487468269987149,-0.0006658836314901274,-0.004923205435162094,0.003265293600126551
25.357,-0.11935140543914047,0.2351545967333821,0.8960613716071254,4.117049004946454,-0.000510843302754558,-0.003941424625858746,0.007830648071221625
25.39,-0.13255582838646063,0.10570629143880572,-0.396529217637242,-3.8873364953326237,-0.0005425087891271534,-0.0043806418607222,0.003520019504912231
25.423000000000002,-0.1325729618443672,0.10546052286958613,-0.000514518255452741,-0.007380437514101964,-0.0005271715805213155,-0.004383088674084268,0.0035118354115572185
25.458,-0.1364675984783157,0.06494169460472912,-0.11695605507352803,-1.2167816295752854,-0.000529855451460331,-0.004513374923989158,0.00216255843033748
25.491,-0.13242975572628415,0.06273608159017922,0.12125653910004605,-0.0662346250615585,-0.0005048659871576612,-0.004380915099078621,0.0020891115169529685
25.523,-0.13235977547472494,0.06194355161402296,0.0021015090558322872,-0.023799698983671683,-0.0004955085153476295,-0.004379638169136421,0.002062720268746965
25.558,-0.11463223185135422,-0.269461312857272,0.5323586673684899,-9.952098032171017,-0.000442244472020835,-0.003791535964757741,-0.008973061718147157
25.591,-0.11123784535016569,-0.2617868605345781,0.10193352856422024,0.23046403371453061,-0.0004616761328720855,-0.003675325280150092,-0.008717502455801452
25.623,-0.11114732857287693,-0.262393758264063,0.0027182215402030015,-0.01822515704158895,-0.0004933331676682528,-0.003668168669877518,-0.0087377121501933
25.658,-0.11717761926817616,0.038497393135942415,-0.1810898106696465,9.035770312312474,-0.000534513321264022,-0.003865231210679634,0.0012819631914268825
25.69,-0.1137245356576641,-0.38388996445612017,0.10369620451988147,-12.68430503279467,-0.0005403225997345206,-0.0037482569234774292,-0.012783535816388802
25.724,-0.10898954392175911,-0.4530971141398036,0.14219194402117108,-2.078292783293796,-0.0005678327593944515,-0.00358462140948963,-0.015088133900855462
25.757,-0.12973367247408002,-0.33937821839937343,-0.6229468033730003,3.414981854066971,-0.000732152079437544,-0.004257615422328867,-0.011301294672699136
25.79,-0.12585328843052737,-0.3296968924752683,0.11652804935593537,0.2907305082313857,-0.0007562199390335603,-0.0041221013291525025,-0.010978906519426434
25.822,-0.125874281261949,-0.32971180617902973,-0.00063041535800671,-0.000447858971815114,-0.0008015643223919217,-0.004114236554585833,-0.010979403145761691
25.858,-0.1297110953547095,-0.3397161225067829,-0.11521964242524069,-0.30042991975234745,-0.000873199469067014,-0.004230172900989073,-0.011312546879475872
25.891,-0.12591742103454145,-0.32973140887688906,0.11392415375880045,0.29984125014696206,-0.0008933793406300255,-0.004096750666991677,-0.010980055915600407
25.923000000000002,-0.12593789824844395,-0.32973223065837076,-0.0006149313484233571,-2.467812257347959e-05,-0.0009384597823822088,-0.004087359138294582,-0.010980083280923748
25.957,-0.08314337312620511,-0.39543344590480317,1.2851208745417069,-1.973009466859832,-0.0006520986762617665,-0.0026907645886923705,-0.013167933748629948
