Time,header.seq,header.stamp.secs,header.stamp.nsecs,header.frame_id,orientation.x,orientation.y,orientation.z,orientation.w,orientation_covariance_0,orientation_covariance_1,orientation_covariance_2,orientation_covariance_3,orientation_covariance_4,orientation_covariance_5,orientation_covariance_6,orientation_covariance_7,orientation_covariance_8,angular_velocity.x,angular_velocity.y,angular_velocity.z,angular_velocity_covariance_0,angular_velocity_covariance_1,angular_velocity_covariance_2,angular_velocity_covariance_3,angular_velocity_covariance_4,angular_velocity_covariance_5,angular_velocity_covariance_6,angular_velocity_covariance_7,angular_velocity_covariance_8,linear_acceleration.x,linear_acceleration.y,linear_acceleration.z,linear_acceleration_covariance_0,linear_acceleration_covariance_1,linear_acceleration_covariance_2,linear_acceleration_covariance_3,linear_acceleration_covariance_4,linear_acceleration_covariance_5,linear_acceleration_covariance_6,linear_acceleration_covariance_7,linear_acceleration_covariance_8
0.49700000000000005,0,0,497000000,base_footprint,0.00029788835127547735,0.0008222283319740572,-0.38258965470577533,0.923917957026064,0.0,0.0,0.0,0.0,0.0,0.0,0.0,0.0,0.0,0.06779547317998842,0.0006479150882450213,-0.00032841148668526324,0.0,0.0,0.0,0.0,0.0,0.0,0.0,0.0,0.0,-3.5573231799258315e-05,0.0001972456669381432,-0.033299036036537825,0.0,0.0,0.0,0.0,0.0,0.0,0.0,0.0,0.0
0.531,1,0,531000000,base_footprint,0.0007295277749153827,0.001892814119566468,-0.3825924830760349,0.9239149727857259,0.0,0.0,0.0,0.0,0.0,0.0,0.0,0.0,0.0,0.06771935901324469,0.0006478607794472915,-0.0004470058209110232,0.0,0.0,0.0,0.0,0.0,0.0,0.0,0.0,0.0,2.8948961357991486e-05,0.0002525881551500042,0.00014843877047596236,0.0,0.0,0.0,0.0,0.0,0.0,0.0,0.0,0.0
0.5650000000000001,2,0,565000000,base_footprint,0.0011606702881818175,0.0029622000178418663,-0.38259497601283193,0.9239106897018116,0.0,0.0,0.0,0.0,0.0,0.0,0.0,0.0,0.0,0.06764219588384292,0.0006483876134177197,-0.0005693961047551041,0.0,0.0,0.0,0.0,0.0,0.0,0.0,0.0,0.0,3.6361225911152144e-06,0.00026745833261770474,0.00015247680717387025,0.0,0.0,0.0,0.0,0.0,0.0,0.0,0.0,0.0
0.5990000000000001,3,0,599000000,base_footprint,0.0014908747889441566,0.0036206013311144785,-0.38260017051380274,0.9239057192490877,0.0,0.0,0.0,0.0,0.0,0.0,0.0,0.0,0.0,-0.02031201948238364,4.84717452258563e-05,-0.0005149883432682121,0.0,0.0,0.0,0.0,0.0,0.0,0.0,0.0,0.0,0.010922165920675131,-0.008218498537514638,0.13034282277312584,0.0,0.0,0.0,0.0,0.0,0.0,0.0,0.0,0.0
0.633,4,0,633000000,base_footprint,0.0014704514058135557,0.0035694768716534836,-0.38260474803721695,0.9239040552930287,0.0,0.0,0.0,0.0,0.0,0.0,0.0,0.0,0.0,-0.00046721343458115206,-6.246749296466022e-05,4.050948439782779e-05,0.0,0.0,0.0,0.0,0.0,0.0,0.0,0.0,0.0,-0.010174281257676386,0.006345117007535271,0.001995022814699719,0.0,0.0,0.0,0.0,0.0,0.0,0.0,0.0,0.0
0.667,5,0,667000000,base_footprint,0.0014704875106036493,0.0035697301567119365,-0.38260207023707027,0.9239051631760684,0.0,0.0,0.0,0.0,0.0,0.0,0.0,0.0,0.0,-0.00017731229301283188,-3.258994901212938e-05,0.0002700026784733835,0.0,0.0,0.0,0.0,0.0,0.0,0.0,0.0,0.0,0.00044451066000139117,7.111068534072258e-05,-0.00035032325239612585,0.0,0.0,0.0,0.0,0.0,0.0,0.0,0.0,0.0
0.7010000000000001,6,0,701000000,base_footprint,0.0014704038969529545,0.003569649322165563,-0.3825976186472818,0.9239070070745896,0.0,0.0,0.0,0.0,0.0,0.0,0.0,0.0,0.0,-0.00017727319920904743,-3.430974791658054e-05,0.000321599306445192,0.0,0.0,0.0,0.0,0.0,0.0,0.0,0.0,0.0,9.997917518912971e-05,1.3151700976100777e-05,-5.124096052533671e-06,0.0,0.0,0.0,0.0,0.0,0.0,0.0,0.0,0.0
0.7350000000000001,7,0,735000000,base_footprint,0.0014703634521614467,0.0035696406355201936,-0.38259274236154944,0.923909026468148,0.0,0.0,0.0,0.0,0.0,0.0,0.0,0.0,0.0,-0.00017489349616326195,-3.466065682926498e-05,0.00033424019542652796,0.0,0.0,0.0,0.0,0.0,0.0,0.0,0.0,0.0,2.4495002741720718e-05,3.2325911397079276e-06,-3.7629969922079927e-06,0.0,0.0,0.0,0.0,0.0,0.0,0.0,0.0,0.0
0.769,8,0,769000000,base_footprint,0.001470333529491705,0.0035696469229597235,-0.3825877614768793,0.9239110890709497,0.0,0.0,0.0,0.0,0.0,0.0,0.0,0.0,0.0,-0.00017436236214250095,-3.478422329602861e-05,0.0003373644491473399,0.0,0.0,0.0,0.0,0.0,0.0,0.0,0.0,0.0,6.053720376224654e-06,7.802104596055495e-07,-8.094114521573515e-07,0.0,0.0,0.0,0.0,0.0,0.0,0.0,0.0,0.0
0.803,9,0,803000000,base_footprint,0.0014703067304440297,0.0035696566810856623,-0.3825827547188185,0.923913162337813,0.0,0.0,0.0,0.0,0.0,0.0,0.0,0.0,0.0,-0.00017423144124161975,-3.4851657343645223e-05,0.00033814316084528355,0.0,0.0,0.0,0.0,0.0,0.0,0.0,0.0,0.0,1.5105937954424024e-06,2.119912772367266e-07,-2.022184348096778e-07,0.0,0.0,0.0,0.0,0.0,0.0,0.0,0.0,0.0
0.8370000000000001,10,0,837000000,base_footprint,0.0014702811607119383,0.0035696671064160117,-0.3825777414482997,0.9239152382650563,0.0,0.0,0.0,0.0,0.0,0.0,0.0,0.0,0.0,-0.00017420004472099007,-3.490242114932748e-05,0.000338344983057126,0.0,0.0,0.0,0.0,0.0,0.0,0.0,0.0,0.0,3.930812666663717e-07,7.213409820359955e-08,-5.2503113636632726e-08,0.0,0.0,0.0,0.0,0.0,0.0,0.0,0.0,0.0
0.8710000000000001,11,0,871000000,base_footprint,0.0014702563115254889,0.003569677526936472,-0.3825727264278272,0.9239173148839191,0.0,0.0,0.0,0.0,0.0,0.0,0.0,0.0,0.0,-0.0001741931229036843,-3.4946477722346254e-05,0.00033840492881748136,0.0,0.0,0.0,0.0,0.0,0.0,0.0,0.0,0.0,1.181354521763996e-07,3.767987269977382e-08,-1.6367381439181245e-08,0.0,0.0,0.0,0.0,0.0,0.0,0.0,0.0,0.0
0.905,12,0,905000000,base_footprint,0.0014702320188659337,0.0035696877930539604,-0.38256771082887087,0.9239193917101363,0.0,0.0,0.0,0.0,0.0,0.0,0.0,0.0,0.0,-0.00017419223495741414,-3.4986520156825e-05,0.0003384300017165144,0.0,0.0,0.0,0.0,0.0,0.0,0.0,0.0,0.0,5.045216410492293e-08,2.9161153945429576e-08,-8.084623090387931e-09,0.0,0.0,0.0,0.0,0.0,0.0,0.0,0.0,0.0
0.9390000000000001,13,0,939000000,base_footprint,0.0014702082071238205,0.003569697882213505,-0.3825626949395743,0.9239214686245946,0.0,0.0,0.0,0.0,0.0,0.0,0.0,0.0,0.0,-0.00017419284335259424,-3.502343044257146e-05,0.0003384465200227702,0.0,0.0,0.0,0.0,0.0,0.0,0.0,0.0,0.0,3.375587533442136e-08,2.702733562530662e-08,-6.596879343680867e-09,0.0,0.0,0.0,0.0,0.0,0.0,0.0,0.0,0.0
0.9730000000000001,14,0,973000000,base_footprint,0.0014701848257096621,0.003569707801785833,-0.3825576788308024,0.9239235455979985,0.0,0.0,0.0,0.0,0.0,0.0,0.0,0.0,0.0,-0.00017419383106572262,-3.5057624640636334e-05,0.00033846095532699883,0.0,0.0,0.0,0.0,0.0,0.0,0.0,0.0,0.0,2.9605729071575168e-08,2.646809826959747e-08,-6.729756388174341e-09,0.0,0.0,0.0,0.0,0.0,0.0,0.0,0.0,0.0
1.008,15,1,7000000,base_footprint,0.0014701618331583422,0.0035697175653031177,-0.3825526625199749,0.9239256226231453,0.0,0.0,0.0,0.0,0.0,0.0,0.0,0.0,0.0,-0.00017419492208952005,-3.5089385771992295e-05,0.00033847489753904717,0.0,0.0,0.0,0.0,0.0,0.0,0.0,0.0,0.0,2.8545673853402365e-08,2.629964418707102e-08,-7.215203253185027e-09,0.0,0.0,0.0,0.0,0.0,0.0,0.0,0.0,0.0
1.04,16,1,41000000,base_footprint,0.0014701391929433283,0.0035697271867248383,-0.38254764601136626,0.9239276996982654,0.0,0.0,0.0,0.0,0.0,0.0,0.0,0.0,0.0,-0.0001741960478082605,-3.511894741882763e-05,0.00033848873593778886,0.0,0.0,0.0,0.0,0.0,0.0,0.0,0.0,0.0,2.8249309080715635e-08,2.6230381749960016e-08,-7.745212603240974e-09,0.0,0.0,0.0,0.0,0.0,0.0,0.0,0.0,0.0
1.075,17,1,75000000,base_footprint,0.001470116872196878,0.003569736679128659,-0.38254262930601807,0.9239297768229263,0.0,0.0,0.0,0.0,0.0,0.0,0.0,0.0,0.0,-0.00017419719046549368,-3.514651559273102e-05,0.0003385025647407345,0.0,0.0,0.0,0.0,0.0,0.0,0.0,0.0,0.0,2.8144243623735142e-08,2.618831469032807e-08,-8.248411904481403e-09,0.0,0.0,0.0,0.0,0.0,0.0,0.0,0.0,0.0
1.109,18,1,109000000,base_footprint,0.001470094841168582,0.0035697460544797726,-0.38253761240417616,0.9239318539970234,0.0,0.0,0.0,0.0,0.0,0.0,0.0,0.0,0.0,-0.0001741983448861434,-3.517227597290987e-05,0.0003385164056492709,0.0,0.0,0.0,0.0,0.0,0.0,0.0,0.0,0.0,2.8089218292241426e-08,2.6155445599049644e-08,-8.710359255304148e-09,0.0,0.0,0.0,0.0,0.0,0.0,0.0,0.0,0.0
1.143,19,1,143000000,base_footprint,0.0014700730728863136,0.0035697553236576033,-0.3825325953058921,0.9239339312205329,0.0,0.0,0.0,0.0,0.0,0.0,0.0,0.0,0.0,-0.000174199509234262,-3.519639654661747e-05,0.00033853026271767343,0.0,0.0,0.0,0.0,0.0,0.0,0.0,0.0,0.0,2.8049302280607727e-08,2.612710716300128e-08,-9.130856299998491e-09,0.0,0.0,0.0,0.0,0.0,0.0,0.0,0.0,0.0
1.177,20,1,177000000,base_footprint,0.0014700515428857296,0.003569764496537341,-0.3825275780111692,0.9239360084934505,0.0,0.0,0.0,0.0,0.0,0.0,0.0,0.0,0.0,-0.00017420068232253913,-3.5219029625710755e-05,0.0003385441357122812,0.0,0.0,0.0,0.0,0.0,0.0,0.0,0.0,0.0,2.8015518044556483e-08,2.6101929998799584e-08,-9.512824378019028e-09,0.0,0.0,0.0,0.0,0.0,0.0,0.0,0.0,0.0
1.211,21,1,211000000,base_footprint,0.001470030228974894,0.003569773582079055,-0.3825225605199994,0.923938085815777,0.0,0.0,0.0,0.0,0.0,0.0,0.0,0.0,0.0,-0.00017420186328451188,-3.52403134648392e-05,0.00033855802354244467,0.0,0.0,0.0,0.0,0.0,0.0,0.0,0.0,0.0,2.7985597992484277e-08,2.6079395650867202e-08,-9.859409166355567e-09,0.0,0.0,0.0,0.0,0.0,0.0,0.0,0.0,0.0
1.245,22,1,245000000,base_footprint,0.0014700091110222131,0.00356978258841104,-0.38251754283237177,0.9239401631875139,0.0,0.0,0.0,0.0,0.0,0.0,0.0,0.0,0.0,-0.0001742030515286854,-3.52603732111762e-05,0.00033857192498629906,0.0,0.0,0.0,0.0,0.0,0.0,0.0,0.0,0.0,2.795871887070782e-08,2.6059194520790287e-08,-1.0174086187238092e-08,0.0,0.0,0.0,0.0,0.0,0.0,0.0,0.0,0.0
1.279,23,1,279000000,base_footprint,0.0014699881707651884,0.0035697915229072103,-0.3825125249482753,0.9239422406086627,0.0,0.0,0.0,0.0,0.0,0.0,0.0,0.0,0.0,-0.00017420424624475962,-3.527932266014834e-05,0.0003385858388529664,0.0,0.0,0.0,0.0,0.0,0.0,0.0,0.0,0.0,2.7934452678020224e-08,2.6041088232770265e-08,-1.0459557945961479e-08,0.0,0.0,0.0,0.0,0.0,0.0,0.0,0.0,0.0
1.313,24,1,313000000,base_footprint,0.0014699673916368896,0.0035698003922567004,-0.3825075068676993,0.9239443180792248,0.0,0.0,0.0,0.0,0.0,0.0,0.0,0.0,0.0,-0.00017420544681418944,-3.529726499978117e-05,0.0003385997639613992,0.0,0.0,0.0,0.0,0.0,0.0,0.0,0.0,0.0,2.791235657269976e-08,2.6024842343783597e-08,-1.0718717450302953e-08,0.0,0.0,0.0,0.0,0.0,0.0,0.0,0.0,0.0
1.347,25,1,347000000,base_footprint,0.0014699467586081745,0.003569809202527328,-0.38250248859063274,0.923946395599202,0.0,0.0,0.0,0.0,0.0,0.0,0.0,0.0,0.0,-0.00017420665293803184,-3.531429365208463e-05,0.0003386136994445149,0.0,0.0,0.0,0.0,0.0,0.0,0.0,0.0,0.0,2.789261549108882e-08,2.6010331697061147e-08,-1.0953881790586783e-08,0.0,0.0,0.0,0.0,0.0,0.0,0.0,0.0,0.0
1.38,26,1,381000000,base_footprint,0.001469926258045405,0.003569817959223957,-0.3824974701170651,0.9239484731685955,0.0,0.0,0.0,0.0,0.0,0.0,0.0,0.0,0.0,-0.00017420786384686587,-3.53304936446012e-05,0.0003386276443453657,0.0,0.0,0.0,0.0,0.0,0.0,0.0,0.0,0.0,2.7874695664843292e-08,2.5997357225885362e-08,-1.116738024067496e-08,0.0,0.0,0.0,0.0,0.0,0.0,0.0,0.0,0.0
1.415,27,1,415000000,base_footprint,0.0014699058775805441,0.0035698266673400755,-0.3824924514469855,0.9239505507874063,0.0,0.0,0.0,0.0,0.0,0.0,0.0,0.0,0.0,-0.00017420907915335646,-3.534594175400119e-05,0.00033864159783551486,0.0,0.0,0.0,0.0,0.0,0.0,0.0,0.0,0.0,2.7858487988511143e-08,2.5985766596350264e-08,-1.136090607109834e-08,0.0,0.0,0.0,0.0,0.0,0.0,0.0,0.0,0.0
1.449,28,1,449000000,base_footprint,0.001469885605993867,0.0035698353314055666,-0.3824874325803839,0.923952628455636,0.0,0.0,0.0,0.0,0.0,0.0,0.0,0.0,0.0,-0.0001742102986304656,-3.5360708054403805e-05,0.00033865555919269913,0.0,0.0,0.0,0.0,0.0,0.0,0.0,0.0,0.0,2.7843904247814332e-08,2.5975436354637736e-08,-1.153659865299285e-08,0.0,0.0,0.0,0.0,0.0,0.0,0.0,0.0,0.0
1.483,29,1,483000000,base_footprint,0.001469865433107043,0.003569843955529701,-0.3824824135172498,0.9239547061732851,0.0,0.0,0.0,0.0,0.0,0.0,0.0,0.0,0.0,-0.00017421152169506932,-3.537485567211151e-05,0.0003386695277246688,0.0,0.0,0.0,0.0,0.0,0.0,0.0,0.0,0.0,2.7830706904340158e-08,2.596625446476219e-08,-1.1696370363267926e-08,0.0,0.0,0.0,0.0,0.0,0.0,0.0,0.0,0.0
1.517,30,1,517000000,base_footprint,0.0014698453496869328,0.003569852543440286,-0.3824773942575732,0.9239567839403547,0.0,0.0,0.0,0.0,0.0,0.0,0.0,0.0,0.0,-0.000174212748138022,-3.53884422742044e-05,0.000338683502847413,0.0,0.0,0.0,0.0,0.0,0.0,0.0,0.0,0.0,2.7818866895536373e-08,2.595809386653139e-08,-1.1841019078869957e-08,0.0,0.0,0.0,0.0,0.0,0.0,0.0,0.0,0.0
1.5510000000000002,31,1,551000000,base_footprint,0.001467902175078809,0.0035657202631274617,-0.3825279651801864,0.923935867231766,0.0,0.0,0.0,0.0,0.0,0.0,0.0,0.0,0.0,0.00014826595428794968,1.3418396897623341e-05,-0.010527879735169346,0.0,0.0,0.0,0.0,0.0,0.0,0.0,0.0,0.0,0.0002649501641684149,-0.4592920452392723,-0.0029293223837784437,0.0,0.0,0.0,0.0,0.0,0.0,0.0,0.0,0.0
1.585,32,1,585000000,base_footprint,0.0014692275007747609,0.003565705447603886,-0.3828339928044847,0.9238091042356033,0.0,0.0,0.0,0.0,0.0,0.0,0.0,0.0,0.0,-0.00031983120602260384,0.00011205547930545791,-0.027888179366697574,0.0,0.0,0.0,0.0,0.0,0.0,0.0,0.0,0.0,-0.0004656997183573597,-0.7495459972613954,-0.00368623942880727,0.0,0.0,0.0,0.0,0.0,0.0,0.0,0.0,0.0
1.619,33,1,619000000,base_footprint,0.0014716746485794086,0.003565465808818548,-0.38341355781495234,0.9235687117431899,0.0,0.0,0.0,0.0,0.0,0.0,0.0,0.0,0.0,-0.0003883156132324304,0.0002088758069697834,-0.045331602429487874,0.0,0.0,0.0,0.0,0.0,0.0,0.0,0.0,0.0,-0.003816129539832569,-0.7492035436629603,-0.0041046901821151765,0.0,0.0,0.0,0.0,0.0,0.0,0.0,0.0,0.0
1.653,34,1,653000000,base_footprint,0.0014752841187297772,0.0035650852800593463,-0.3842665219204299,0.9232141429998193,0.0,0.0,0.0,0.0,0.0,0.0,0.0,0.0,0.0,-0.0005589924050311688,0.0003052884691177737,-0.06269206354071828,0.0,0.0,0.0,0.0,0.0,0.0,0.0,0.0,0.0,-0.008674440881122458,-0.741853737579445,-0.003931013028513542,0.0,0.0,0.0,0.0,0.0,0.0,0.0,0.0,0.0
1.687,35,1,687000000,base_footprint,0.0014800939876888442,0.003564652187867025,-0.3853893180209976,0.9227459976244154,0.0,0.0,0.0,0.0,0.0,0.0,0.0,0.0,0.0,-0.0006832016098533609,0.00039968074762646174,-0.07969409676001918,0.0,0.0,0.0,0.0,0.0,0.0,0.0,0.0,0.0,-0.015030032310349245,-0.7163800467887858,-0.003813663276255262,0.0,0.0,0.0,0.0,0.0,0.0,0.0,0.0,0.0
1.721,36,1,721000000,base_footprint,0.0014861475217483107,0.0035643121327859693,-0.3867721298941448,0.9221672335220498,0.0,0.0,0.0,0.0,0.0,0.0,0.0,0.0,0.0,-0.0007427512652122316,0.0004892582794399431,-0.09585366113307435,0.0,0.0,0.0,0.0,0.0,0.0,0.0,0.0,0.0,-0.022186330335145166,-0.6599142683874342,-0.0035381357906976653,0.0,0.0,0.0,0.0,0.0,0.0,0.0,0.0,0.0
1.755,37,1,755000000,base_footprint,0.001493123878961642,0.003563722591607433,-0.38839068996100085,0.9214867022447963,0.0,0.0,0.0,0.0,0.0,0.0,0.0,0.0,0.0,-0.0006925243771783531,0.0005700842547883034,-0.10963311922178662,0.0,0.0,0.0,0.0,0.0,0.0,0.0,0.0,0.0,-0.02832406990292391,-0.5641643227075244,-0.003093308117587532,0.0,0.0,0.0,0.0,0.0,0.0,0.0,0.0,0.0
1.7890000000000001,38,1,789000000,base_footprint,0.0015008693643903932,0.0035629600280247587,-0.3901856972847049,0.9207280675321234,0.0,0.0,0.0,0.0,0.0,0.0,0.0,0.0,0.0,-0.0007124362411702297,0.0006162335542780903,-0.11840031987968513,0.0,0.0,0.0,0.0,0.0,0.0,0.0,0.0,0.0,-0.03204100103531207,-0.4273746853233154,-0.002207730918606194,0.0,0.0,0.0,0.0,0.0,0.0,0.0,0.0,0.0
1.823,39,1,823000000,base_footprint,0.001508713397895072,0.003561075350002668,-0.39206727381745116,0.9199284185889609,0.0,0.0,0.0,0.0,0.0,0.0,0.0,0.0,0.0,-0.0009140156323754248,0.0006225307403386624,-0.1209610137251844,0.0,0.0,0.0,0.0,0.0,0.0,0.0,0.0,0.0,-0.03421228843558162,-0.25853932406403196,-0.0008758526093140765,0.0,0.0,0.0,0.0,0.0,0.0,0.0,0.0,0.0
1.8570000000000002,40,1,857000000,base_footprint,0.0015155328261867666,0.003554146133490905,-0.3939338289171083,0.9191306814812684,0.0,0.0,0.0,0.0,0.0,0.0,0.0,0.0,0.0,-0.002033757708792735,7.725774034981299e-05,-0.116701891432184,0.0,0.0,0.0,0.0,0.0,0.0,0.0,0.0,0.0,-0.034916735746218355,-0.06285645102251473,0.0017576873321782983,0.0,0.0,0.0,0.0,0.0,0.0,0.0,0.0,0.0
1.891,41,1,891000000,base_footprint,0.0015172365797537992,0.0035385005040182867,-0.39582523155727817,0.9183177898037103,0.0,0.0,0.0,0.0,0.0,0.0,0.0,0.0,0.0,-0.00014445187256532515,0.0008301647319605341,-0.1307884308539461,0.0,0.0,0.0,0.0,0.0,0.0,0.0,0.0,0.0,0.0058009368149806615,0.01793456810898103,-0.0038091949202940876,0.0,0.0,0.0,0.0,0.0,0.0,0.0,0.0,0.0
1.925,42,1,925000000,base_footprint,0.0015262065626576937,0.0035380980664805385,-0.39807059402901024,0.9173466927639687,0.0,0.0,0.0,0.0,0.0,0.0,0.0,0.0,0.0,-0.0008514744944490519,0.000882568429783987,-0.15681409418768333,0.0,0.0,0.0,0.0,0.0,0.0,0.0,0.0,0.0,-0.045082580737178024,-0.15100430482009627,0.0006904702496429843,0.0,0.0,0.0,0.0,0.0,0.0,0.0,0.0,0.0
1.959,43,1,959000000,base_footprint,0.001536284610426368,0.00353438495374197,-0.40074653900579504,0.9161808551958895,0.0,0.0,0.0,0.0,0.0,0.0,0.0,0.0,0.0,-0.001192179267883973,0.001034092187059895,-0.18585501755769335,0.0,0.0,0.0,0.0,0.0,0.0,0.0,0.0,0.0,-0.05959567751140302,-0.31129042030473597,-0.0010555176558597894,0.0,0.0,0.0,0.0,0.0,0.0,0.0,0.0,0.0
1.993,44,1,993000000,base_footprint,0.0015456864577369463,0.0035400490156771752,-0.403642685356782,0.9149085536075761,0.0,0.0,0.0,0.0,0.0,0.0,0.0,0.0,0.0,-0.0013136110045408698,0.0006528410124401701,-0.15082511652528358,0.0,0.0,0.0,0.0,0.0,0.0,0.0,0.0,0.0,-0.06938126260286168,-0.3457529119071133,-0.0010911199162107017,0.0,0.0,0.0,0.0,0.0,0.0,0.0,0.0,0.0
2.027,45,2,27000000,base_footprint,0.0015558998163391733,0.003536999381795482,-0.40492810031913207,0.9143403646252711,0.0,0.0,0.0,0.0,0.0,0.0,0.0,0.0,0.0,0.0022145752506881034,-0.0012616289271482372,-0.024727923235978732,0.0,0.0,0.0,0.0,0.0,0.0,0.0,0.0,0.0,-0.046824538197962944,-0.26781085342322347,-0.004926867882032903,0.0,0.0,0.0,0.0,0.0,0.0,0.0,0.0,0.0
2.061,46,2,61000000,base_footprint,0.0015577114169012917,0.0035342545076215634,-0.405432832443057,0.9141166779779358,0.0,0.0,0.0,0.0,0.0,0.0,0.0,0.0,0.0,-0.0004642129178045566,0.00016739459059411107,-0.033615372761781066,0.0,0.0,0.0,0.0,0.0,0.0,0.0,0.0,0.0,-0.006334989484194696,-0.008985925646702747,0.003327038101345093,0.0,0.0,0.0,0.0,0.0,0.0,0.0,0.0,0.0
2.095,47,2,95000000,base_footprint,0.0015593896375615834,0.0035326258916577374,-0.4059579635133997,0.9138835925424644,0.0,0.0,0.0,0.0,0.0,0.0,0.0,0.0,0.0,-0.00037569210573666005,0.00017524107477152453,-0.033990204372685004,0.0,0.0,0.0,0.0,0.0,0.0,0.0,0.0,0.0,-0.007993873979203217,-0.004945693965089471,-0.00016361085521486685,0.0,0.0,0.0,0.0,0.0,0.0,0.0,0.0,0.0
2.129,48,2,129000000,base_footprint,0.0015615210213988104,0.0035325522593641625,-0.4064887868887365,0.9136476064984562,0.0,0.0,0.0,0.0,0.0,0.0,0.0,0.0,0.0,-0.000294559794314374,0.0001882075734958437,-0.03436760906162096,0.0,0.0,0.0,0.0,0.0,0.0,0.0,0.0,0.0,-0.00817403071508602,-0.004908770362081821,-0.0001597772942098817,0.0,0.0,0.0,0.0,0.0,0.0,0.0,0.0,0.0
2.163,49,2,163000000,base_footprint,0.0015673459634861176,0.003532962387361229,-0.4078599855120787,0.9130363047664025,0.0,0.0,0.0,0.0,0.0,0.0,0.0,0.0,0.0,-0.0005422853181873781,0.0005461586685447248,-0.09280481509115306,0.0,0.0,0.0,0.0,0.0,0.0,0.0,0.0,0.0,-0.021359383032268114,-0.018626742899127992,-0.00014750860099317723,0.0,0.0,0.0,0.0,0.0,0.0,0.0,0.0,0.0
2.197,50,2,197000000,base_footprint,0.0015736847712983085,0.0035349257967202353,-0.4093021105717908,0.9123907113168842,0.0,0.0,0.0,0.0,0.0,0.0,0.0,0.0,0.0,-0.00036230549480965727,0.0005720757994889754,-0.0930673989231128,0.0,0.0,0.0,0.0,0.0,0.0,0.0,0.0,0.0,-0.02097038696654478,-0.002564394187227207,-0.0002737165296066897,0.0,0.0,0.0,0.0,0.0,0.0,0.0,0.0,0.0
2.231,51,2,231000000,base_footprint,0.0015815851785816477,0.003537762274598302,-0.4107430477919181,0.911742908673831,0.0,0.0,0.0,0.0,0.0,0.0,0.0,0.0,0.0,0.001530571450928363,0.0004820563075208393,-0.0936124319203311,0.0,0.0,0.0,0.0,0.0,0.0,0.0,0.0,0.0,-0.018303813415595928,0.02004650000684966,0.00414409289430236,0.0,0.0,0.0,0.0,0.0,0.0,0.0,0.0,0.0
2.265,52,2,265000000,base_footprint,0.0015880435119029204,0.003540111271673204,-0.41197995864663545,0.911184646163172,0.0,0.0,0.0,0.0,0.0,0.0,0.0,0.0,0.0,-0.00013870061026384552,0.0007155942417321105,-0.04743500988686433,0.0,0.0,0.0,0.0,0.0,0.0,0.0,0.0,0.0,0.02332880276112914,0.3431242019960712,-0.0027871972595898647,0.0,0.0,0.0,0.0,0.0,0.0,0.0,0.0,0.0
2.299,53,2,299000000,base_footprint,0.0015916937523451288,0.003535022632271317,-0.4127655560185621,0.9108290541537832,0.0,0.0,0.0,0.0,0.0,0.0,0.0,0.0,0.0,-0.00037241988601885776,0.00027068515138627786,-0.050863957065144,0.0,0.0,0.0,0.0,0.0,0.0,0.0,0.0,0.0,-0.01184551202448395,-0.0011172389310249355,0.0010036658935680422,0.0,0.0,0.0,0.0,0.0,0.0,0.0,0.0,0.0
2.333,54,2,333000000,base_footprint,0.0015974315197968875,0.003526872409758439,-0.41348684702004146,0.9105018598141191,0.0,0.0,0.0,0.0,0.0,0.0,0.0,0.0,0.0,5.8177568423602345e-05,-0.00038582614074673905,-0.03799273729774034,0.0,0.0,0.0,0.0,0.0,0.0,0.0,0.0,0.0,-0.0007430527094064651,0.036611964472753,0.0016741684445335226,0.0,0.0,0.0,0.0,0.0,0.0,0.0,0.0,0.0
2.367,55,2,367000000,base_footprint,0.0015918436538639967,0.003514300698639001,-0.4141463581539598,0.9102021257677841,0.0,0.0,0.0,0.0,0.0,0.0,0.0,0.0,0.0,-0.00023834791350994285,0.0011959609927218984,-0.06269559292354122,0.0,0.0,0.0,0.0,0.0,0.0,0.0,0.0,0.0,-0.0018321629900757857,-0.0027597514078477495,-0.005793524463023768,0.0,0.0,0.0,0.0,0.0,0.0,0.0,0.0,0.0
2.401,56,2,401000000,base_footprint,0.0015874880450022083,0.0035239685342082112,-0.4154578051908628,0.9096042401140554,0.0,0.0,0.0,0.0,0.0,0.0,0.0,0.0,0.0,0.00031202904009761204,0.0011749515123468184,-0.09652751901048365,0.0,0.0,0.0,0.0,0.0,0.0,0.0,0.0,0.0,-0.04200686260717373,-0.12270502149967502,0.002405954034649296,0.0,0.0,0.0,0.0,0.0,0.0,0.0,0.0,0.0
2.435,57,2,435000000,base_footprint,0.001606130428963424,0.0035292712235925347,-0.41649645199661545,0.9091290722795671,0.0,0.0,0.0,0.0,0.0,0.0,0.0,0.0,0.0,0.0014566574080398247,-0.002405625227085094,-0.03781271658956549,0.0,0.0,0.0,0.0,0.0,0.0,0.0,0.0,0.0,-0.020450691526048528,-0.006705389038451059,0.002107937002990757,0.0,0.0,0.0,0.0,0.0,0.0,0.0,0.0,0.0
2.469,58,2,469000000,base_footprint,0.001589811251915766,0.0035070266321825597,-0.41673254557437683,0.9090209891545323,0.0,0.0,0.0,0.0,0.0,0.0,0.0,0.0,0.0,0.00040278799272850676,-0.00011276211469247769,0.0116010035282369,0.0,0.0,0.0,0.0,0.0,0.0,0.0,0.0,0.0,0.08024372728787674,0.5341049633551028,0.0009040076264657408,0.0,0.0,0.0,0.0,0.0,0.0,0.0,0.0,0.0
2.503,59,2,503000000,base_footprint,0.001599863210026594,0.003518621892670597,-0.4163808512952021,0.9091820755010344,0.0,0.0,0.0,0.0,0.0,0.0,0.0,0.0,0.0,-0.00021644684523853058,-0.00026411559462985224,0.023887426949203233,0.0,0.0,0.0,0.0,0.0,0.0,0.0,0.0,0.0,-0.003617341791976224,-0.0537458848927323,0.00146293053293968,0.0,0.0,0.0,0.0,0.0,0.0,0.0,0.0,0.0
2.537,60,2,537000000,base_footprint,0.0015929211182771242,0.003507617434163362,-0.4160240420971116,0.9093454544997888,0.0,0.0,0.0,0.0,0.0,0.0,0.0,0.0,0.0,0.0012491799984439191,-0.0002604598460332302,0.017403238114257983,0.0,0.0,0.0,0.0,0.0,0.0,0.0,0.0,0.0,-0.01752810418272162,-0.13612991199829302,-0.0020768448347564424,0.0,0.0,0.0,0.0,0.0,0.0,0.0,0.0,0.0
2.571,61,2,571000000,base_footprint,0.0015971644872074607,0.003514555133083931,-0.4161385565857492,0.9092930213581024,0.0,0.0,0.0,0.0,0.0,0.0,0.0,0.0,0.0,0.0005908208100026296,0.00023564594868204529,-0.05013893024555112,0.0,0.0,0.0,0.0,0.0,0.0,0.0,0.0,0.0,-0.08025812314183117,-0.5675151074770477,-0.0028528768105647788,0.0,0.0,0.0,0.0,0.0,0.0,0.0,0.0,0.0
2.605,62,2,605000000,base_footprint,0.0016004415883688792,0.0035146821670594165,-0.4169241618797392,0.9089330717037772,0.0,0.0,0.0,0.0,0.0,0.0,0.0,0.0,0.0,-0.000406354935905927,0.0002948802833012647,-0.050908150297110315,0.0,0.0,0.0,0.0,0.0,0.0,0.0,0.0,0.0,-0.014211886569124947,-0.00495647070538109,0.001147424057101527,0.0,0.0,0.0,0.0,0.0,0.0,0.0,0.0,0.0
2.6390000000000002,63,2,639000000,base_footprint,0.0016059593228460746,0.003516008370192152,-0.41772487031507577,0.9085653478424363,0.0,0.0,0.0,0.0,0.0,0.0,0.0,0.0,0.0,-0.0023871063280128304,0.0005400527188840607,-0.05673646739884312,0.0,0.0,0.0,0.0,0.0,0.0,0.0,0.0,0.0,0.025242281722291676,0.23268550681756356,0.003512606962425918,0.0,0.0,0.0,0.0,0.0,0.0,0.0,0.0,0.0
2.673,64,2,673000000,base_footprint,0.001607225197555984,0.003516766777999878,-0.4184500178728554,0.9082315958613204,0.0,0.0,0.0,0.0,0.0,0.0,0.0,0.0,0.0,-0.00018380211181575395,0.0001857234964983116,-0.03459777178692268,0.0,0.0,0.0,0.0,0.0,0.0,0.0,0.0,0.0,0.05679260020473145,0.4397548432392719,-7.90651783246682e-05,0.0,0.0,0.0,0.0,0.0,0.0,0.0,0.0,0.0
2.707,65,2,707000000,base_footprint,0.001610523633991837,0.003520602397592267,-0.4189852357931974,0.9079847926918717,0.0,0.0,0.0,0.0,0.0,0.0,0.0,0.0,0.0,-6.0716658110665694e-05,0.0002427744076443997,-0.03460113951678427,0.0,0.0,0.0,0.0,0.0,0.0,0.0,0.0,0.0,-0.006993153214184629,-0.004437850098093607,-0.0005687520618039789,0.0,0.0,0.0,0.0,0.0,0.0,0.0,0.0,0.0
2.741,66,2,741000000,base_footprint,0.0016107710428119567,0.0035128407876363252,-0.4194824845850694,0.9077552040570109,0.0,0.0,0.0,0.0,0.0,0.0,0.0,0.0,0.0,-0.0005571116315783843,7.692713273683662e-05,-0.022270205435685204,0.0,0.0,0.0,0.0,0.0,0.0,0.0,0.0,0.0,-0.030534165647756455,-0.14923399816594252,0.0007907950248382716,0.0,0.0,0.0,0.0,0.0,0.0,0.0,0.0,0.0
2.775,67,2,775000000,base_footprint,0.001615282960726199,0.0035241538338356532,-0.41934681144275654,0.9078178357652517,0.0,0.0,0.0,0.0,0.0,0.0,0.0,0.0,0.0,6.489202367327771e-05,-0.000234444601387639,0.022832539933525037,0.0,0.0,0.0,0.0,0.0,0.0,0.0,0.0,0.0,-0.030363912916761125,-0.1722080354667224,-0.002333928651276496,0.0,0.0,0.0,0.0,0.0,0.0,0.0,0.0,0.0
2.809,68,2,809000000,base_footprint,0.0016145657586274036,0.0035226118086805337,-0.4189662745863851,0.9079935270378652,0.0,0.0,0.0,0.0,0.0,0.0,0.0,0.0,0.0,-0.0002180575931100157,-0.00018070552146000378,0.02628708921239485,0.0,0.0,0.0,0.0,0.0,0.0,0.0,0.0,0.0,0.006114246878990899,0.011667810566995418,0.0007669631660085464,0.0,0.0,0.0,0.0,0.0,0.0,0.0,0.0,0.0
2.843,69,2,843000000,base_footprint,0.0016174682603769315,0.0035175369070226735,-0.41850755605060913,0.9082050628900284,0.0,0.0,0.0,0.0,0.0,0.0,0.0,0.0,0.0,0.0016600392658742617,-0.00037238595847574737,0.024083401520187092,0.0,0.0,0.0,0.0,0.0,0.0,0.0,0.0,0.0,0.01782492469520007,0.06625908274553158,-0.003697582187628809,0.0,0.0,0.0,0.0,0.0,0.0,0.0,0.0,0.0
2.877,70,2,877000000,base_footprint,0.0016061932150572362,0.003497872544820311,-0.41851789953019064,0.9082003924266128,0.0,0.0,0.0,0.0,0.0,0.0,0.0,0.0,0.0,-0.002615333580409716,0.0034046991024492086,-0.025703687453317685,0.0,0.0,0.0,0.0,0.0,0.0,0.0,0.0,0.0,0.010447147373023944,-0.0266486115403387,0.007895798179423654,0.0,0.0,0.0,0.0,0.0,0.0,0.0,0.0,0.0
2.911,71,2,911000000,base_footprint,0.0016040176614871755,0.003514237282296163,-0.41932655552809117,0.9078272506884844,0.0,0.0,0.0,0.0,0.0,0.0,0.0,0.0,0.0,0.0013274959509802149,0.0013296581072626706,-0.07032492779097602,0.0,0.0,0.0,0.0,0.0,0.0,0.0,0.0,0.0,-0.04826387060369387,-0.16942880513716257,-0.008121484523021506,0.0,0.0,0.0,0.0,0.0,0.0,0.0,0.0,0.0
2.9450000000000003,72,2,945000000,base_footprint,0.0016127845879081097,0.0035109329059111213,-0.41996658414780846,0.9075313440731536,0.0,0.0,0.0,0.0,0.0,0.0,0.0,0.0,0.0,-0.0006304136310693069,0.0018228325875240701,-0.034461987537899474,0.0,0.0,0.0,0.0,0.0,0.0,0.0,0.0,0.0,0.017266950270740225,0.15831093560731727,0.003941237172058625,0.0,0.0,0.0,0.0,0.0,0.0,0.0,0.0,0.0
2.979,73,2,979000000,base_footprint,0.0016173632693669798,0.0035133697158002096,-0.420475665860073,0.9072955718997109,0.0,0.0,0.0,0.0,0.0,0.0,0.0,0.0,0.0,-0.0005084298154347896,-5.1425321881480145e-06,-0.0324661323860019,0.0,0.0,0.0,0.0,0.0,0.0,0.0,0.0,0.0,-0.010595833045294628,-0.018879451187012657,0.00026591589983604317,0.0,0.0,0.0,0.0,0.0,0.0,0.0,0.0,0.0
3.013,74,3,13000000,base_footprint,0.0016184867116191084,0.003509184834446726,-0.4209787182309019,0.9070622828225353,0.0,0.0,0.0,0.0,0.0,0.0,0.0,0.0,0.0,-0.0005255312710660909,0.0002071427823234928,-0.03281705100739043,0.0,0.0,0.0,0.0,0.0,0.0,0.0,0.0,0.0,-0.00737579149575016,-0.0037660595060836767,0.00017247332580761762,0.0,0.0,0.0,0.0,0.0,0.0,0.0,0.0,0.0
3.047,75,3,47000000,base_footprint,0.0016159400534388577,0.003503638851194749,-0.42145924269560747,0.9068391367817058,0.0,0.0,0.0,0.0,0.0,0.0,0.0,0.0,0.0,-0.0008711988743241378,2.9257364861567047e-06,-0.003970966212190603,0.0,0.0,0.0,0.0,0.0,0.0,0.0,0.0,0.0,-0.050861073417652454,-0.26909320455375124,-0.0009902919361140204,0.0,0.0,0.0,0.0,0.0,0.0,0.0,0.0,0.0
3.081,76,3,81000000,base_footprint,0.0016173881878538804,0.0035061811949737586,-0.4211483150792177,0.9069835651514385,0.0,0.0,0.0,0.0,0.0,0.0,0.0,0.0,0.0,-5.042780428622109e-05,-0.00013024003991449188,0.021899150343196706,0.0,0.0,0.0,0.0,0.0,0.0,0.0,0.0,0.0,-0.008600468053653963,-0.06285868085897664,-0.0010289696161386263,0.0,0.0,0.0,0.0,0.0,0.0,0.0,0.0,0.0
3.115,77,3,115000000,base_footprint,0.001616080583303195,0.003507880763630332,-0.4208123961394754,0.9071394657446283,0.0,0.0,0.0,0.0,0.0,0.0,0.0,0.0,0.0,2.8704770089626313e-06,-0.00011834797095755065,0.02162664245305919,0.0,0.0,0.0,0.0,0.0,0.0,0.0,0.0,0.0,0.0036413270915840695,-0.006477192131184545,-0.0001964629890934,0.0,0.0,0.0,0.0,0.0,0.0,0.0,0.0,0.0
3.149,78,3,149000000,base_footprint,0.0016177846344117798,0.003510540940676432,-0.4205418273917543,0.9072649173693341,0.0,0.0,0.0,0.0,0.0,0.0,0.0,0.0,0.0,-0.0006863530027075411,2.2877202642380718e-05,0.0074599808982958515,0.0,0.0,0.0,0.0,0.0,0.0,0.0,0.0,0.0,0.08506859579784602,0.48137920286385816,0.0032202766243774267,0.0,0.0,0.0,0.0,0.0,0.0,0.0,0.0,0.0
3.183,79,3,183000000,base_footprint,0.0016147124202252833,0.0035139002394117803,-0.4202735168554686,0.9073892308369345,0.0,0.0,0.0,0.0,0.0,0.0,0.0,0.0,0.0,0.0014406432111154,-0.0005148475703698439,0.04500815180404368,0.0,0.0,0.0,0.0,0.0,0.0,0.0,0.0,0.0,0.0324176975888795,0.18356183473094667,-0.0020184701775562306,0.0,0.0,0.0,0.0,0.0,0.0,0.0,0.0,0.0
3.217,80,3,217000000,base_footprint,0.0016139939061285402,0.003520468563555302,-0.4195793101449444,0.9077104184832611,0.0,0.0,0.0,0.0,0.0,0.0,0.0,0.0,0.0,0.0003114984335285795,-0.00024256028033843664,0.04509755685256081,0.0,0.0,0.0,0.0,0.0,0.0,0.0,0.0,0.0,0.00811695405782776,-0.0017214843720464302,0.001436241113304803,0.0,0.0,0.0,0.0,0.0,0.0,0.0,0.0,0.0
3.251,81,3,251000000,base_footprint,0.0016147631967570672,0.003521604200329183,-0.41945572927951985,0.9077675264175631,0.0,0.0,0.0,0.0,0.0,0.0,0.0,0.0,0.0,0.0005670720742492009,0.0004254190163471301,-0.023287767356732856,0.0,0.0,0.0,0.0,0.0,0.0,0.0,0.0,0.0,0.00506486655812778,0.007425247833746882,-0.0011153958727111908,0.0,0.0,0.0,0.0,0.0,0.0,0.0,0.0,0.0
3.285,82,3,285000000,base_footprint,0.0016131873924856864,0.003514283380041558,-0.419646291462274,0.907679479497428,0.0,0.0,0.0,0.0,0.0,0.0,0.0,0.0,0.0,-0.0004258470725461062,0.00017663011424335912,0.007280798286418375,0.0,0.0,0.0,0.0,0.0,0.0,0.0,0.0,0.0,-0.03226097813190898,-0.1686898997445239,0.001372728300414987,0.0,0.0,0.0,0.0,0.0,0.0,0.0,0.0,0.0
3.323,83,3,319000000,base_footprint,0.001611200103416703,0.003510349686051623,-0.41914467507788356,0.9079112417153804,0.0,0.0,0.0,0.0,0.0,0.0,0.0,0.0,0.0,-0.000686645056989279,-0.0006130417485392151,0.0569395542331498,0.0,0.0,0.0,0.0,0.0,0.0,0.0,0.0,0.0,-0.0114061339665276,-0.1201559321818301,0.0004756149968441454,0.0,0.0,0.0,0.0,0.0,0.0,0.0,0.0,0.0
3.353,84,3,353000000,base_footprint,0.0016219890063552751,0.0035171540772086633,-0.4181964148970614,0.9083483678336773,0.0,0.0,0.0,0.0,0.0,0.0,0.0,0.0,0.0,3.328273547119706e-05,-0.001210755718141831,0.047660900276597744,0.0,0.0,0.0,0.0,0.0,0.0,0.0,0.0,0.0,0.025569248920392598,0.054585554815952037,-0.0009292681364946767,0.0,0.0,0.0,0.0,0.0,0.0,0.0,0.0,0.0
3.387,85,3,387000000,base_footprint,0.0016022623976636875,0.0035000313748683835,-0.4178230401846077,0.9085202747470613,0.0,0.0,0.0,0.0,0.0,0.0,0.0,0.0,0.0,0.00014585592482395466,-0.0005447773417024488,0.0006346060675133909,0.0,0.0,0.0,0.0,0.0,0.0,0.0,0.0,0.0,-0.007852195521926685,-0.07886753756015366,-0.0010199679577351055,0.0,0.0,0.0,0.0,0.0,0.0,0.0,0.0,0.0
3.4210000000000003,86,3,421000000,base_footprint,0.0016003001839004108,0.0035177933528155723,-0.41809714942274784,0.9083940982931477,0.0,0.0,0.0,0.0,0.0,0.0,0.0,0.0,0.0,-0.0005645687977484463,7.478111405935048e-05,-0.012718657045783389,0.0,0.0,0.0,0.0,0.0,0.0,0.0,0.0,0.0,-0.033816672942930975,-0.19627438292830734,-0.0004542675466787597,0.0,0.0,0.0,0.0,0.0,0.0,0.0,0.0,0.0
3.455,87,3,455000000,base_footprint,0.0016099451611929984,0.003518550009208592,-0.4178598937456478,0.9085032399949308,0.0,0.0,0.0,0.0,0.0,0.0,0.0,0.0,0.0,-0.0025770991865661447,-0.0007522159311122205,0.024372853268604073,0.0,0.0,0.0,0.0,0.0,0.0,0.0,0.0,0.0,0.0682229815541966,0.4420352095942147,0.005700336153439037,0.0,0.0,0.0,0.0,0.0,0.0,0.0,0.0,0.0
3.489,88,3,489000000,base_footprint,0.001601614117671247,0.003512193345408795,-0.4180001734570309,0.9084387454969183,0.0,0.0,0.0,0.0,0.0,0.0,0.0,0.0,0.0,-0.00023301938722295704,-0.00015365199138760274,0.023374094972640164,0.0,0.0,0.0,0.0,0.0,0.0,0.0,0.0,0.0,-0.03325804278841149,-0.1989157380410247,-0.004327286082272263,0.0,0.0,0.0,0.0,0.0,0.0,0.0,0.0,0.0
3.523,89,3,523000000,base_footprint,0.0016044259336799383,0.0035141486380934344,-0.4173345013241584,0.9087447334544992,0.0,0.0,0.0,0.0,0.0,0.0,0.0,0.0,0.0,-0.000219148599244308,-0.00024030548850987696,0.044505917976581266,0.0,0.0,0.0,0.0,0.0,0.0,0.0,0.0,0.0,0.0007659981701624539,-0.0547868860424333,-0.00021795305572684141,0.0,0.0,0.0,0.0,0.0,0.0,0.0,0.0,0.0
3.557,90,3,557000000,base_footprint,0.0016048093589928264,0.0035125603875245347,-0.4176122018800313,0.9086171555431679,0.0,0.0,0.0,0.0,0.0,0.0,0.0,0.0,0.0,-0.0003890939360061153,0.00021131057895134605,-0.04205148583045966,0.0,0.0,0.0,0.0,0.0,0.0,0.0,0.0,0.0,-0.006061675130289846,-0.01858746525453861,-0.0004354179240032564,0.0,0.0,0.0,0.0,0.0,0.0,0.0,0.0,0.0
3.591,91,3,591000000,base_footprint,0.0016060403489490175,0.003512502505655588,-0.41788549000203246,0.9084914970467839,0.0,0.0,0.0,0.0,0.0,0.0,0.0,0.0,0.0,-2.261703334536033e-05,-6.315082035644189e-05,0.022617689194659216,0.0,0.0,0.0,0.0,0.0,0.0,0.0,0.0,0.0,-0.057172168364873335,-0.33650317956953274,-0.0017131283739824218,0.0,0.0,0.0,0.0,0.0,0.0,0.0,0.0,0.0
3.625,92,3,625000000,base_footprint,0.0016043230629670246,0.0035137260577930776,-0.4175400542731245,0.9086503083993845,0.0,0.0,0.0,0.0,0.0,0.0,0.0,0.0,0.0,2.963592349470972e-05,-0.00012339929808535808,0.022182502047919023,0.0,0.0,0.0,0.0,0.0,0.0,0.0,0.0,0.0,0.0052337493314958215,-0.0034643862912705796,-0.00028841809561890665,0.0,0.0,0.0,0.0,0.0,0.0,0.0,0.0,0.0
3.659,93,3,659000000,base_footprint,0.001605605858151456,0.0035149432808640395,-0.4173085318313287,0.9087566541513418,0.0,0.0,0.0,0.0,0.0,0.0,0.0,0.0,0.0,-0.0002884070670922746,-0.00025022052969172527,0.004994037160633138,0.0,0.0,0.0,0.0,0.0,0.0,0.0,0.0,0.0,0.11649961400732758,0.7364746303336388,0.0044056121299217875,0.0,0.0,0.0,0.0,0.0,0.0,0.0,0.0,0.0
3.693,94,3,693000000,base_footprint,0.0016049030366604381,0.003521476324084918,-0.4173304645387282,0.908746558100019,0.0,0.0,0.0,0.0,0.0,0.0,0.0,0.0,0.0,0.00022239072823719054,9.587464928424724e-05,-0.0016233870284107755,0.0,0.0,0.0,0.0,0.0,0.0,0.0,0.0,0.0,-0.013430449873421603,-0.07831023622995446,-0.0017474703227548813,0.0,0.0,0.0,0.0,0.0,0.0,0.0,0.0,0.0
3.7270000000000003,95,3,727000000,base_footprint,0.0016068721998227383,0.0035245027671349017,-0.41735244592407755,0.9087364478896882,0.0,0.0,0.0,0.0,0.0,0.0,0.0,0.0,0.0,3.794116941133071e-05,-5.903259891034807e-06,-0.0011241095531016898,0.0,0.0,0.0,0.0,0.0,0.0,0.0,0.0,0.0,-0.0010634058821386576,-0.002206744790268915,0.0001452849187315845,0.0,0.0,0.0,0.0,0.0,0.0,0.0,0.0,0.0
3.761,96,3,761000000,base_footprint,0.0016104247080477405,0.0035183695122089466,-0.4179780156872419,0.9084489011553655,0.0,0.0,0.0,0.0,0.0,0.0,0.0,0.0,0.0,-0.000442619040697858,0.0002669875412627328,-0.08139969574470104,0.0,0.0,0.0,0.0,0.0,0.0,0.0,0.0,0.0,-0.040458531658570634,-0.22006085425713134,-0.0007435746281075272,0.0,0.0,0.0,0.0,0.0,0.0,0.0,0.0,0.0
3.795,97,3,795000000,base_footprint,0.0016114375052533425,0.0035154393634994046,-0.41899595033163495,0.9079798668257675,0.0,0.0,0.0,0.0,0.0,0.0,0.0,0.0,0.0,-0.0006739441959525817,0.0001871514307784844,-0.04359785303438929,0.0,0.0,0.0,0.0,0.0,0.0,0.0,0.0,0.0,-0.05427825659779296,-0.23204899993207884,-0.00012467287776539443,0.0,0.0,0.0,0.0,0.0,0.0,0.0,0.0,0.0
3.829,98,3,829000000,base_footprint,0.0016133686051253778,0.003509149710609455,-0.41924926073057633,0.9078629523705204,0.0,0.0,0.0,0.0,0.0,0.0,0.0,0.0,0.0,0.00036611351690191883,-0.0004192857224143623,0.008973974682130676,0.0,0.0,0.0,0.0,0.0,0.0,0.0,0.0,0.0,-0.004943110080928577,-0.04599068869977683,-0.0021669915630407573,0.0,0.0,0.0,0.0,0.0,0.0,0.0,0.0,0.0
3.863,99,3,863000000,base_footprint,0.00161287937290252,0.003514181470524205,-0.41921399885575017,0.9078792168081016,0.0,0.0,0.0,0.0,0.0,0.0,0.0,0.0,0.0,0.0005215064550689095,-0.0004887741658960779,-0.018642483405087708,0.0,0.0,0.0,0.0,0.0,0.0,0.0,0.0,0.0,0.0025095593250949334,0.0036726708582954398,-0.0008499926750711747,0.0,0.0,0.0,0.0,0.0,0.0,0.0,0.0,0.0
3.8970000000000002,100,3,897000000,base_footprint,0.0016068840462592601,0.003515560349225034,-0.4196311377614905,0.90768649157079,0.0,0.0,0.0,0.0,0.0,0.0,0.0,0.0,0.0,2.095574273928733e-05,-0.00036107421935292305,-0.0153329743356931,0.0,0.0,0.0,0.0,0.0,0.0,0.0,0.0,0.0,-0.019640050232161744,-0.05790023526942989,0.0007489685015936892,0.0,0.0,0.0,0.0,0.0,0.0,0.0,0.0,0.0
3.931,101,3,931000000,base_footprint,0.001618284925338778,0.003521062037501336,-0.41953615539301803,0.9077303551132759,0.0,0.0,0.0,0.0,0.0,0.0,0.0,0.0,0.0,0.0041264399681051845,-0.0005005712595990437,0.019009532680235763,0.0,0.0,0.0,0.0,0.0,0.0,0.0,0.0,0.0,-0.007543283721428965,-0.05387655467271796,-0.008188501119640288,0.0,0.0,0.0,0.0,0.0,0.0,0.0,0.0,0.0
3.965,102,3,965000000,base_footprint,0.001614218370124473,0.0035161956106151263,-0.4193430190326766,0.907819620329965,0.0,0.0,0.0,0.0,0.0,0.0,0.0,0.0,0.0,6.21961313236195e-05,-0.0003543578006646352,0.0004228456904322448,0.0,0.0,0.0,0.0,0.0,0.0,0.0,0.0,0.0,0.051818512842799536,0.306995086764431,0.01026394616337157,0.0,0.0,0.0,0.0,0.0,0.0,0.0,0.0,0.0
3.999,103,3,999000000,base_footprint,0.0016130994301692657,0.003512109843313262,-0.41934456992169555,0.9078189217414808,0.0,0.0,0.0,0.0,0.0,0.0,0.0,0.0,0.0,-0.00038666966606750754,1.6070793756747044e-05,-0.0002780688517029069,0.0,0.0,0.0,0.0,0.0,0.0,0.0,0.0,0.0,-0.00022303403530603413,-0.0032733989521897735,0.0007658819674240661,0.0,0.0,0.0,0.0,0.0,0.0,0.0,0.0,0.0
4.033,104,4,33000000,base_footprint,0.0016085310221651248,0.003503522627115669,-0.4193532879433625,0.9078149359028213,0.0,0.0,0.0,0.0,0.0,0.0,0.0,0.0,0.0,-0.00512493584859072,0.0010555536720552995,-0.0030028983300734243,0.0,0.0,0.0,0.0,0.0,0.0,0.0,0.0,0.0,-0.012624008001028066,-0.07229759167829139,0.005546910923029712,0.0,0.0,0.0,0.0,0.0,0.0,0.0,0.0,0.0
4.067,105,4,67000000,base_footprint,0.001613180676162607,0.0035087398459973888,-0.4198080375943037,0.9076047035819167,0.0,0.0,0.0,0.0,0.0,0.0,0.0,0.0,0.0,-0.0003726053560570277,0.00023877989314953483,-0.04150740873473323,0.0,0.0,0.0,0.0,0.0,0.0,0.0,0.0,0.0,-0.05175261011291703,-0.2848887083770681,-0.007693278679615229,0.0,0.0,0.0,0.0,0.0,0.0,0.0,0.0,0.0
4.1,106,4,101000000,base_footprint,0.0016154070129701622,0.0035082292669024683,-0.420450385220174,0.9073073108687049,0.0,0.0,0.0,0.0,0.0,0.0,0.0,0.0,0.0,-0.00032923501930089653,0.000259975756434081,-0.04184327169566408,0.0,0.0,0.0,0.0,0.0,0.0,0.0,0.0,0.0,-0.00989896121574331,-0.003800970958254437,-0.00011442884985657252,0.0,0.0,0.0,0.0,0.0,0.0,0.0,0.0,0.0
4.135,107,4,135000000,base_footprint,0.0016217554166012792,0.003512724751430659,-0.42110330045570754,0.9070044327452317,0.0,0.0,0.0,0.0,0.0,0.0,0.0,0.0,0.0,-0.0018193277080628472,0.000298270230174311,-0.04615311105691179,0.0,0.0,0.0,0.0,0.0,0.0,0.0,0.0,0.0,0.012637931159563257,0.12169540781074545,0.0026127014455955455,0.0,0.0,0.0,0.0,0.0,0.0,0.0,0.0,0.0
4.169,108,4,169000000,base_footprint,0.0016221879252685126,0.0035080063242520915,-0.4223794012983519,0.9064108912390727,0.0,0.0,0.0,0.0,0.0,0.0,0.0,0.0,0.0,-0.002996239634379648,0.0003288708072473409,-0.12491598378546723,0.0,0.0,0.0,0.0,0.0,0.0,0.0,0.0,0.0,0.058016696528797485,0.44147264089066074,0.004355782779272732,0.0,0.0,0.0,0.0,0.0,0.0,0.0,0.0,0.0
4.203,109,4,203000000,base_footprint,0.0016296436177311497,0.0035131735573204043,-0.423539712707848,0.9058692585757555,0.0,0.0,0.0,0.0,0.0,0.0,0.0,0.0,0.0,-0.00028690834592148736,0.00033091134974294763,-0.051134344377220864,0.0,0.0,0.0,0.0,0.0,0.0,0.0,0.0,0.0,-0.05970422961697414,-0.23623622434178684,-0.005697268425502022,0.0,0.0,0.0,0.0,0.0,0.0,0.0,0.0,0.0
4.237,110,4,237000000,base_footprint,0.0016341961483014333,0.00351427277183825,-0.4243154112357661,0.905506162915337,0.0,0.0,0.0,0.0,0.0,0.0,0.0,0.0,0.0,-0.0002507583551631182,0.0002666912621736396,-0.04954772213814268,0.0,0.0,0.0,0.0,0.0,0.0,0.0,0.0,0.0,-0.00959209832002301,0.005326643790709934,0.00016246864960167627,0.0,0.0,0.0,0.0,0.0,0.0,0.0,0.0,0.0
4.271,111,4,271000000,base_footprint,0.0016362741427603446,0.0035084969687785325,-0.4249769711031874,0.9051958832694229,0.0,0.0,0.0,0.0,0.0,0.0,0.0,0.0,0.0,-0.0016950344152085123,0.002077939141717182,-0.00554954220147448,0.0,0.0,0.0,0.0,0.0,0.0,0.0,0.0,0.0,-0.010546281629629234,-0.0046313709355039374,0.002058412124237451,0.0,0.0,0.0,0.0,0.0,0.0,0.0,0.0,0.0
4.305,112,4,305000000,base_footprint,0.0016375734573845584,0.0035162822504460436,-0.42450786418354036,0.9054159416304949,0.0,0.0,0.0,0.0,0.0,0.0,0.0,0.0,0.0,-0.0004247166674693821,-0.00026368611157969737,0.04174499154106627,0.0,0.0,0.0,0.0,0.0,0.0,0.0,0.0,0.0,0.01826777201577991,0.0658142446626544,-0.0004908370870879906,0.0,0.0,0.0,0.0,0.0,0.0,0.0,0.0,0.0
4.339,113,4,339000000,base_footprint,0.0016328406613966475,0.003485647068181014,-0.42385638179771407,0.9057212328885974,0.0,0.0,0.0,0.0,0.0,0.0,0.0,0.0,0.0,-0.006750756130862263,0.0015001347883244118,0.03144086720607875,0.0,0.0,0.0,0.0,0.0,0.0,0.0,0.0,0.0,0.016170199534929063,-0.005073156583204802,0.008140899313381734,0.0,0.0,0.0,0.0,0.0,0.0,0.0,0.0,0.0
4.373,114,4,373000000,base_footprint,0.0016255578156006208,0.0034906578597467815,-0.42391839541377513,0.9056922031790405,0.0,0.0,0.0,0.0,0.0,0.0,0.0,0.0,0.0,-0.00036133996287319195,-0.0018409854317585996,-0.036795321995984544,0.0,0.0,0.0,0.0,0.0,0.0,0.0,0.0,0.0,-0.017543797640793647,-0.0862281660627488,-0.010422150807730167,0.0,0.0,0.0,0.0,0.0,0.0,0.0,0.0,0.0
4.407,115,4,407000000,base_footprint,0.0016237121597282864,0.003502970873831506,-0.42484316769083724,0.9052587340756756,0.0,0.0,0.0,0.0,0.0,0.0,0.0,0.0,0.0,-0.001376477302504941,0.0004818480559939519,-0.054424638869389856,0.0,0.0,0.0,0.0,0.0,0.0,0.0,0.0,0.0,-0.051635042630264555,-0.18616865372698388,0.0018244082735580462,0.0,0.0,0.0,0.0,0.0,0.0,0.0,0.0,0.0
4.441,116,4,441000000,base_footprint,0.0016357065143476068,0.0035041544429195806,-0.42523346490725283,0.9050754364630671,0.0,0.0,0.0,0.0,0.0,0.0,0.0,0.0,0.0,-0.0032731609030480164,0.001787312363706378,-0.0010166655384796623,0.0,0.0,0.0,0.0,0.0,0.0,0.0,0.0,0.0,0.022496658515291965,0.1502356872804173,0.0050202667008284255,0.0,0.0,0.0,0.0,0.0,0.0,0.0,0.0,0.0
4.475,117,4,475000000,base_footprint,0.0016293722232016237,0.003494361569470772,-0.42508997585532327,0.9051428876208999,0.0,0.0,0.0,0.0,0.0,0.0,0.0,0.0,0.0,-0.0006142025211213895,0.00023280249990782314,-0.008058693794587601,0.0,0.0,0.0,0.0,0.0,0.0,0.0,0.0,0.0,0.0540743393026939,0.2794714138490345,-0.003875977735677825,0.0,0.0,0.0,0.0,0.0,0.0,0.0,0.0,0.0
4.509,118,4,509000000,base_footprint,0.0016356581826069152,0.003500466755929312,-0.42545429704461984,0.9049716639105718,0.0,0.0,0.0,0.0,0.0,0.0,0.0,0.0,0.0,-0.0006480451942708564,0.00023148158671293582,-0.026532192332514366,0.0,0.0,0.0,0.0,0.0,0.0,0.0,0.0,0.0,-0.0397475653531103,-0.1805041287428109,-0.0008508197285955219,0.0,0.0,0.0,0.0,0.0,0.0,0.0,0.0,0.0
4.543,119,4,543000000,base_footprint,0.0016333564504828427,0.003495728887865846,-0.4258730887588363,0.9047746815076428,0.0,0.0,0.0,0.0,0.0,0.0,0.0,0.0,0.0,0.0003645269020903023,3.101811805613375e-05,-0.015704843406866644,0.0,0.0,0.0,0.0,0.0,0.0,0.0,0.0,0.0,-0.04773730306036065,-0.22942916513125805,-0.0023291620359293724,0.0,0.0,0.0,0.0,0.0,0.0,0.0,0.0,0.0
4.577,120,4,577000000,base_footprint,0.0016340896759601943,0.0034986854661995504,-0.42551376416679015,0.9049437139709569,0.0,0.0,0.0,0.0,0.0,0.0,0.0,0.0,0.0,-6.548142103464385e-05,-0.00013545813507085107,0.02831339286561908,0.0,0.0,0.0,0.0,0.0,0.0,0.0,0.0,0.0,-0.016435560118864885,-0.1014009021032155,0.0001607558021145234,0.0,0.0,0.0,0.0,0.0,0.0,0.0,0.0,0.0
4.611,121,4,611000000,base_footprint,0.0016323899493475335,0.003501216754884302,-0.42507943113003815,0.9051478078272364,0.0,0.0,0.0,0.0,0.0,0.0,0.0,0.0,0.0,7.193260144654472e-05,-0.00014084278310675153,0.028081170465082832,0.0,0.0,0.0,0.0,0.0,0.0,0.0,0.0,0.0,0.004876242809681901,-0.006662149868394309,-0.0003013569533662154,0.0,0.0,0.0,0.0,0.0,0.0,0.0,0.0,0.0
4.645,122,4,645000000,base_footprint,0.001633544641764976,0.0035020092155301267,-0.4247100114216072,0.9053211991672435,0.0,0.0,0.0,0.0,0.0,0.0,0.0,0.0,0.0,0.0003669529212148836,-0.00024208876024352173,0.0105364913840457,0.0,0.0,0.0,0.0,0.0,0.0,0.0,0.0,0.0,0.07256495435439798,0.358348466229371,0.0016644900145094442,0.0,0.0,0.0,0.0,0.0,0.0,0.0,0.0,0.0
4.678,123,4,679000000,base_footprint,0.0016325938063293664,0.0035000360251179335,-0.4249909847619741,0.9051893433179237,0.0,0.0,0.0,0.0,0.0,0.0,0.0,0.0,0.0,-0.0005932740446649443,-0.0003000602520381069,-0.013099379537929714,0.0,0.0,0.0,0.0,0.0,0.0,0.0,0.0,0.0,0.0021183435537255758,0.027908850158645207,0.001139132014485504,0.0,0.0,0.0,0.0,0.0,0.0,0.0,0.0,0.0
4.713,124,4,713000000,base_footprint,0.0016340578412612943,0.0035127949004389656,-0.4247464202487729,0.9053040752215863,0.0,0.0,0.0,0.0,0.0,0.0,0.0,0.0,0.0,8.46075804383143e-05,-9.101448767457704e-05,0.019228556487533396,0.0,0.0,0.0,0.0,0.0,0.0,0.0,0.0,0.0,-0.011667137838956522,-0.06501279971940623,-0.001610183458073635,0.0,0.0,0.0,0.0,0.0,0.0,0.0,0.0,0.0
4.747,125,4,747000000,base_footprint,0.0016303380505553534,0.003505978901743406,-0.42431366902825896,0.9055070184076757,0.0,0.0,0.0,0.0,0.0,0.0,0.0,0.0,0.0,-0.00016245400674171976,5.6426297425085244e-05,0.04894293051624141,0.0,0.0,0.0,0.0,0.0,0.0,0.0,0.0,0.0,-0.022572789547072696,-0.1563461222078602,0.0003466752390030158,0.0,0.0,0.0,0.0,0.0,0.0,0.0,0.0,0.0
4.781,126,4,781000000,base_footprint,0.0016341101159422604,0.003506005289442529,-0.4237943973553448,0.9057501567105906,0.0,0.0,0.0,0.0,0.0,0.0,0.0,0.0,0.0,-0.0007480500491241604,-0.0006925027298455311,0.027670028461919707,0.0,0.0,0.0,0.0,0.0,0.0,0.0,0.0,0.0,-0.0032792818038668847,-0.051241644182525026,0.00019717703578520936,0.0,0.0,0.0,0.0,0.0,0.0,0.0,0.0,0.0
4.815,127,4,815000000,base_footprint,0.0016373296639374283,0.0035023742235586824,-0.4232864047028808,0.9059876776866663,0.0,0.0,0.0,0.0,0.0,0.0,0.0,0.0,0.0,-0.0010492470659189297,-0.0007543704887785694,0.031119546189981785,0.0,0.0,0.0,0.0,0.0,0.0,0.0,0.0,0.0,0.015897201672619505,0.03243583636709512,0.0011028325787955477,0.0,0.0,0.0,0.0,0.0,0.0,0.0,0.0,0.0
4.849,128,4,849000000,base_footprint,0.0016299541881322794,0.003498997379409142,-0.4232617391297273,0.9059992276241533,0.0,0.0,0.0,0.0,0.0,0.0,0.0,0.0,0.0,0.00036297661190631836,0.0002735471681757654,-0.042787626864114824,0.0,0.0,0.0,0.0,0.0,0.0,0.0,0.0,0.0,-0.0042087480659141596,-0.03946200171038308,-0.004320642260959889,0.0,0.0,0.0,0.0,0.0,0.0,0.0,0.0,0.0
4.883,129,4,883000000,base_footprint,0.0016318052415806028,0.0035102562642006356,-0.42431845938371127,0.9055047544540266,0.0,0.0,0.0,0.0,0.0,0.0,0.0,0.0,0.0,0.00017994905013088468,-0.0003880981479541275,-0.06522012047331337,0.0,0.0,0.0,0.0,0.0,0.0,0.0,0.0,0.0,-0.032296322913507106,-0.08474969479311091,3.639909866652055e-05,0.0,0.0,0.0,0.0,0.0,0.0,0.0,0.0,0.0
4.917,130,4,917000000,base_footprint,0.0016379642679730402,0.0035077900902581857,-0.4252390496237316,0.9050727943965863,0.0,0.0,0.0,0.0,0.0,0.0,0.0,0.0,0.0,-0.0005577523269204101,0.000133596531341136,-0.05953236594889571,0.0,0.0,0.0,0.0,0.0,0.0,0.0,0.0,0.0,-0.017117119096171016,-0.015246773655504227,0.0018138367384017335,0.0,0.0,0.0,0.0,0.0,0.0,0.0,0.0,0.0
4.9510000000000005,131,4,951000000,base_footprint,0.001642211865527437,0.0035017232499370277,-0.42636219045417456,0.9045442629443778,0.0,0.0,0.0,0.0,0.0,0.0,0.0,0.0,0.0,-0.0007355730038765745,0.0003626067754621471,-0.08282175957654367,0.0,0.0,0.0,0.0,0.0,0.0,0.0,0.0,0.0,-0.01710861166578719,-0.010776823962153865,0.00014024997631013712,0.0,0.0,0.0,0.0,0.0,0.0,0.0,0.0,0.0
4.985,132,4,985000000,base_footprint,0.0016454710417014042,0.003496272280960349,-0.4276394446347201,0.9039411340887727,0.0,0.0,0.0,0.0,0.0,0.0,0.0,0.0,0.0,-0.0007461931285511236,0.0005391571228104565,-0.0833397650514722,0.0,0.0,0.0,0.0,0.0,0.0,0.0,0.0,0.0,-0.0189819349222264,-0.0013443300886270496,0.00018257124873077358,0.0,0.0,0.0,0.0,0.0,0.0,0.0,0.0,0.0
5.019,133,5,19000000,base_footprint,0.0016490671876474205,0.003492563986535406,-0.4289225783687568,0.9033329974819411,0.0,0.0,0.0,0.0,0.0,0.0,0.0,0.0,0.0,-0.0006508399199272138,0.000536059941923592,-0.08376836849184122,0.0,0.0,0.0,0.0,0.0,0.0,0.0,0.0,0.0,-0.019213751626075526,-0.0019495901263140453,-0.00010060067764194538,0.0,0.0,0.0,0.0,0.0,0.0,0.0,0.0,0.0
5.053,134,5,53000000,base_footprint,0.0016492915463627751,0.0034913006350465307,-0.4292619970191979,0.9031717602828163,0.0,0.0,0.0,0.0,0.0,0.0,0.0,0.0,0.0,2.4499475404731658e-05,-0.00011767176705200891,0.02145597930232453,0.0,0.0,0.0,0.0,0.0,0.0,0.0,0.0,0.0,-0.0019699744831511365,0.023808311359625692,-2.5584371711270743e-05,0.0,0.0,0.0,0.0,0.0,0.0,0.0,0.0,0.0
5.087,135,5,87000000,base_footprint,0.0016478686958439554,0.0034940957447601416,-0.42893688662038704,0.9033261997308042,0.0,0.0,0.0,0.0,0.0,0.0,0.0,0.0,0.0,3.724208846353682e-05,-7.881111633441237e-05,0.020980775259739022,0.0,0.0,0.0,0.0,0.0,0.0,0.0,0.0,0.0,0.0037790908740440244,-0.0073377520172027,-0.0002466948491672751,0.0,0.0,0.0,0.0,0.0,0.0,0.0,0.0,0.0
5.12,136,5,121000000,base_footprint,0.00164668884336497,0.0034982740791994274,-0.42861552483164095,0.9034787116294534,0.0,0.0,0.0,0.0,0.0,0.0,0.0,0.0,0.0,0.00015521122863293882,-6.218980899342939e-05,0.020824134014918127,0.0,0.0,0.0,0.0,0.0,0.0,0.0,0.0,0.0,0.003311865624449689,-0.006020033237975622,-0.0003077591705582172,0.0,0.0,0.0,0.0,0.0,0.0,0.0,0.0,0.0
5.155,137,5,155000000,base_footprint,0.0016480721855407397,0.003492358939517719,-0.42855269199788676,0.9035085375736487,0.0,0.0,0.0,0.0,0.0,0.0,0.0,0.0,0.0,-0.00012001070963115811,7.577005718892128e-05,-0.023970728675769958,0.0,0.0,0.0,0.0,0.0,0.0,0.0,0.0,0.0,0.1104199046693435,0.5311044887105802,0.0029663623688440358,0.0,0.0,0.0,0.0,0.0,0.0,0.0,0.0,0.0
5.189,138,5,189000000,base_footprint,0.0016475780865792015,0.0034942070149340232,-0.42887176728106374,0.9033571183275209,0.0,0.0,0.0,0.0,0.0,0.0,0.0,0.0,0.0,-0.0010020046163434794,3.551916053533922e-05,0.0003164185171231189,0.0,0.0,0.0,0.0,0.0,0.0,0.0,0.0,0.0,-0.04726784640947245,-0.20612285622833437,0.0010542573732412641,0.0,0.0,0.0,0.0,0.0,0.0,0.0,0.0,0.0
5.223,139,5,223000000,base_footprint,0.0016520842729551447,0.0035060501193545195,-0.42887348736408903,0.9033562475935396,0.0,0.0,0.0,0.0,0.0,0.0,0.0,0.0,0.0,-0.00023151491715728035,-9.688845038137756e-05,0.0021281811915744957,0.0,0.0,0.0,0.0,0.0,0.0,0.0,0.0,0.0,-0.0009278334223125212,0.0060200351120723835,-0.002046396562778236,0.0,0.0,0.0,0.0,0.0,0.0,0.0,0.0,0.0
5.257,140,5,257000000,base_footprint,0.0016504402762286604,0.0034956522818780536,-0.4284214549552981,0.9035707572713961,0.0,0.0,0.0,0.0,0.0,0.0,0.0,0.0,0.0,0.0006028213078159324,-0.0016266098327635844,0.054627238430053515,0.0,0.0,0.0,0.0,0.0,0.0,0.0,0.0,0.0,-0.015578249968771742,-0.10982121546394052,-0.0010928837689313825,0.0,0.0,0.0,0.0,0.0,0.0,0.0,0.0,0.0
5.291,141,5,291000000,base_footprint,0.0016543711182585331,0.0034910030342327064,-0.42753931110027976,0.9039885029235252,0.0,0.0,0.0,0.0,0.0,0.0,0.0,0.0,0.0,0.0005978972348102861,0.0010172614727783514,0.054158230855225045,0.0,0.0,0.0,0.0,0.0,0.0,0.0,0.0,0.0,0.013062995965244333,0.021010150657710697,-0.0017205110908458956,0.0,0.0,0.0,0.0,0.0,0.0,0.0,0.0,0.0
5.325,142,5,325000000,base_footprint,0.0016441902068304963,0.0034882455797845663,-0.42711251629476943,0.9041902605125147,0.0,0.0,0.0,0.0,0.0,0.0,0.0,0.0,0.0,-0.000311990455131531,0.00023606284228359028,-0.01191183408021417,0.0,0.0,0.0,0.0,0.0,0.0,0.0,0.0,0.0,0.004014371353644391,-0.0706623591021108,0.0020439054198756476,0.0,0.0,0.0,0.0,0.0,0.0,0.0,0.0,0.0
5.359,143,5,359000000,base_footprint,0.0016434896995341528,0.0035041248909420844,-0.42692998419830086,0.9042764005782717,0.0,0.0,0.0,0.0,0.0,0.0,0.0,0.0,0.0,0.0003773298614004037,-0.00048736774443037303,0.061045319435872145,0.0,0.0,0.0,0.0,0.0,0.0,0.0,0.0,0.0,0.06308899098409848,0.34483290731632377,0.0014616869959963755,0.0,0.0,0.0,0.0,0.0,0.0,0.0,0.0,0.0
5.393,144,5,393000000,base_footprint,0.0016457156800534477,0.003498514535092653,-0.4269755372354995,0.9042549101986701,0.0,0.0,0.0,0.0,0.0,0.0,0.0,0.0,0.0,0.003762795087290894,0.0005054650632739896,-0.050944863359695246,0.0,0.0,0.0,0.0,0.0,0.0,0.0,0.0,0.0,-0.03392442545054192,-0.16879115921040477,-0.007234235902150171,0.0,0.0,0.0,0.0,0.0,0.0,0.0,0.0,0.0
5.427,145,5,427000000,base_footprint,0.001648421010376197,0.003499587189548491,-0.42778353491734983,0.9038729351248944,0.0,0.0,0.0,0.0,0.0,0.0,0.0,0.0,0.0,-0.0006491050837400145,0.00020257550833183274,-0.05249974084311036,0.0,0.0,0.0,0.0,0.0,0.0,0.0,0.0,0.0,-0.011687484432375262,-0.006830946037302657,0.00696266376888451,0.0,0.0,0.0,0.0,0.0,0.0,0.0,0.0,0.0
5.461,146,5,461000000,base_footprint,0.0016524940176607925,0.003494369276410864,-0.4291346350517417,0.9032322645066939,0.0,0.0,0.0,0.0,0.0,0.0,0.0,0.0,0.0,-0.0006683502591721333,0.0005428893818600247,-0.09306520305438191,0.0,0.0,0.0,0.0,0.0,0.0,0.0,0.0,0.0,-0.020358739779182997,-0.011699514759805735,-9.853993089180746e-05,0.0,0.0,0.0,0.0,0.0,0.0,0.0,0.0,0.0
5.495,147,5,495000000,base_footprint,0.0016562981802264003,0.0034899476597583918,-0.43056645010683625,0.9025506129763958,0.0,0.0,0.0,0.0,0.0,0.0,0.0,0.0,0.0,-0.0007261724966746876,0.0006074269184673145,-0.09353762931805702,0.0,0.0,0.0,0.0,0.0,0.0,0.0,0.0,0.0,-0.02022063544394203,-0.0013556842148832087,0.00013291599073695875,0.0,0.0,0.0,0.0,0.0,0.0,0.0,0.0,0.0
5.529,148,5,529000000,base_footprint,0.0016607161189148329,0.0034870224916225467,-0.43200368280887025,0.9018635710215201,0.0,0.0,0.0,0.0,0.0,0.0,0.0,0.0,0.0,-0.000644719298272775,0.0006112659884742958,-0.09395259547446617,0.0,0.0,0.0,0.0,0.0,0.0,0.0,0.0,0.0,-0.020357498394316772,-0.0011470644929499792,-6.758326058068587e-05,0.0,0.0,0.0,0.0,0.0,0.0,0.0,0.0,0.0
5.563,149,5,563000000,base_footprint,0.001660442059830797,0.003487359002331645,-0.43216032474967014,0.9017885200930508,0.0,0.0,0.0,0.0,0.0,0.0,0.0,0.0,0.0,-8.404582754106595e-05,5.8599779707617264e-05,-0.00022281876779316602,0.0,0.0,0.0,0.0,0.0,0.0,0.0,0.0,0.0,0.001188857698918292,0.018841120777258306,-0.00011657322383266337,0.0,0.0,0.0,0.0,0.0,0.0,0.0,0.0,0.0
5.597,150,5,597000000,base_footprint,0.0016636156095351418,0.0034889644495699813,-0.43295697132410743,0.9014063015599734,0.0,0.0,0.0,0.0,0.0,0.0,0.0,0.0,0.0,0.00033039386758619186,0.0006579225630925403,-0.088168028613216,0.0,0.0,0.0,0.0,0.0,0.0,0.0,0.0,0.0,-0.0894753107600856,-0.36015553811562045,-0.0031719035638974047,0.0,0.0,0.0,0.0,0.0,0.0,0.0,0.0,0.0
5.631,151,5,631000000,base_footprint,0.0016696712748371818,0.0034922063710822854,-0.4343011205569908,0.90075943146627,0.0,0.0,0.0,0.0,0.0,0.0,0.0,0.0,0.0,0.0018809800395036278,-0.0009271530195178399,-0.08980259659383041,0.0,0.0,0.0,0.0,0.0,0.0,0.0,0.0,0.0,-0.014686486987976132,0.027702122830131057,0.004469461019191927,0.0,0.0,0.0,0.0,0.0,0.0,0.0,0.0,0.0
5.665,152,5,665000000,base_footprint,0.0016736346658540176,0.003493302374130957,-0.43524958252822826,0.9003015032168564,0.0,0.0,0.0,0.0,0.0,0.0,0.0,0.0,0.0,-0.0009984307565307768,0.0003483378671552418,-0.03031920884673902,0.0,0.0,0.0,0.0,0.0,0.0,0.0,0.0,0.0,0.061454512702139155,0.32880309500911425,-0.00023489807016634912,0.0,0.0,0.0,0.0,0.0,0.0,0.0,0.0,0.0
5.699,153,5,699000000,base_footprint,0.0016774670747153964,0.0034935887639595234,-0.4357196569025942,0.9000740866897832,0.0,0.0,0.0,0.0,0.0,0.0,0.0,0.0,0.0,-0.00023465789779173325,0.00016981722362481398,-0.02929359701956585,0.0,0.0,0.0,0.0,0.0,0.0,0.0,0.0,0.0,-0.008039289565522967,3.238590236179662e-05,-0.0011006755584948452,0.0,0.0,0.0,0.0,0.0,0.0,0.0,0.0,0.0
5.7330000000000005,154,5,733000000,base_footprint,0.0016808559134936065,0.0034911794669650648,-0.43612830827429494,0.8998761498734863,0.0,0.0,0.0,0.0,0.0,0.0,0.0,0.0,0.0,0.000412080893590839,-0.000465972522080128,-0.014039090716506865,0.0,0.0,0.0,0.0,0.0,0.0,0.0,0.0,0.0,-0.004582801910984001,-0.00338859115010875,0.0016370215991101673,0.0,0.0,0.0,0.0,0.0,0.0,0.0,0.0,0.0
5.767,155,5,767000000,base_footprint,0.0016865296930099543,0.0034779772905402643,-0.43561942058275477,0.9001226470335618,0.0,0.0,0.0,0.0,0.0,0.0,0.0,0.0,0.0,-0.0011794764773982145,-0.0019468620567118927,0.04248901978506304,0.0,0.0,0.0,0.0,0.0,0.0,0.0,0.0,0.0,-0.006832362180104377,-0.04910175027224879,0.0030341453507378526,0.0,0.0,0.0,0.0,0.0,0.0,0.0,0.0,0.0
5.801,156,5,801000000,base_footprint,0.0016814217886212302,0.0034727469124476093,-0.4352211457668911,0.9003153153906722,0.0,0.0,0.0,0.0,0.0,0.0,0.0,0.0,0.0,-0.0001397071420773343,0.0008098017397048156,0.002190216665702998,0.0,0.0,0.0,0.0,0.0,0.0,0.0,0.0,0.0,0.00022716522999877142,-0.07939131204320124,-0.005007256507915248,0.0,0.0,0.0,0.0,0.0,0.0,0.0,0.0,0.0
5.835,157,5,835000000,base_footprint,0.0016766862801963116,0.0034819727899445116,-0.4359890002708181,0.899943696145187,0.0,0.0,0.0,0.0,0.0,0.0,0.0,0.0,0.0,0.0004114113880863687,0.0008320603935234606,-0.11141156236702748,0.0,0.0,0.0,0.0,0.0,0.0,0.0,0.0,0.0,-0.05053535902900845,-0.1224135523805483,-0.0038653437364215477,0.0,0.0,0.0,0.0,0.0,0.0,0.0,0.0,0.0
5.869,158,5,869000000,base_footprint,0.0016831293430629307,0.003483253046301831,-0.4377710833197346,0.8990781460100652,0.0,0.0,0.0,0.0,0.0,0.0,0.0,0.0,0.0,-0.0007461825534384569,-5.4036117064962984e-05,-0.10739488615386153,0.0,0.0,0.0,0.0,0.0,0.0,0.0,0.0,0.0,-0.03422971579201088,-0.035674510452264475,0.002713761842211472,0.0,0.0,0.0,0.0,0.0,0.0,0.0,0.0,0.0
5.9030000000000005,159,5,903000000,base_footprint,0.0016941520873324895,0.0034791156904880587,-0.439292320453852,0.8983358407594497,0.0,0.0,0.0,0.0,0.0,0.0,0.0,0.0,0.0,-0.0007992335746039719,0.0004385015321765497,-0.09827232304612848,0.0,0.0,0.0,0.0,0.0,0.0,0.0,0.0,0.0,-0.028408176612753258,-0.018945880272405093,0.0008656918956864662,0.0,0.0,0.0,0.0,0.0,0.0,0.0,0.0,0.0
5.937,160,5,937000000,base_footprint,0.001701125201760801,0.003483310707369041,-0.4407619797060051,0.897615647125877,0.0,0.0,0.0,0.0,0.0,0.0,0.0,0.0,0.0,-0.0026889822491364796,0.0028056952771767737,-0.07527324512346577,0.0,0.0,0.0,0.0,0.0,0.0,0.0,0.0,0.0,0.022965463279001598,0.1602188308759376,0.0062837760985121035,0.0,0.0,0.0,0.0,0.0,0.0,0.0,0.0,0.0
5.971,161,5,971000000,base_footprint,0.0016964715958795696,0.0034707840284891826,-0.4409606573012466,0.8975181192348177,0.0,0.0,0.0,0.0,0.0,0.0,0.0,0.0,0.0,-0.0002864060388547164,9.377994032060011e-05,-0.002501503842695314,0.0,0.0,0.0,0.0,0.0,0.0,0.0,0.0,0.0,0.04404196140249645,0.1909676896008786,-0.004477349693369621,0.0,0.0,0.0,0.0,0.0,0.0,0.0,0.0,0.0
6.005,162,6,5000000,base_footprint,0.001695119954721706,0.003470488178106822,-0.44099961057726217,0.8974989837046323,0.0,0.0,0.0,0.0,0.0,0.0,0.0,0.0,0.0,-0.00021196412806540865,8.859969966447338e-05,-0.002750104860536812,0.0,0.0,0.0,0.0,0.0,0.0,0.0,0.0,0.0,-0.0024132481497733498,-0.005232188378531812,-0.00012590054281244917,0.0,0.0,0.0,0.0,0.0,0.0,0.0,0.0,0.0
6.039,163,6,39000000,base_footprint,0.0016914433944840406,0.0034665155997106664,-0.4410473257295828,0.8974755588625372,0.0,0.0,0.0,0.0,0.0,0.0,0.0,0.0,0.0,0.001023658987994159,-0.0007334355866538489,-0.002798729488889102,0.0,0.0,0.0,0.0,0.0,0.0,0.0,0.0,0.0,-0.048839111967852525,-0.1804150806577038,-0.001287617579482933,0.0,0.0,0.0,0.0,0.0,0.0,0.0,0.0,0.0
6.073,164,6,73000000,base_footprint,0.0016911247240908674,0.0034750742903220297,-0.4403970198194182,0.8977948144704443,0.0,0.0,0.0,0.0,0.0,0.0,0.0,0.0,0.0,0.0001799353038242913,-0.00020989640794003058,0.05161976150943365,0.0,0.0,0.0,0.0,0.0,0.0,0.0,0.0,0.0,-0.02874705930954672,-0.14767440062819254,-0.0006811319132144325,0.0,0.0,0.0,0.0,0.0,0.0,0.0,0.0,0.0
6.107,165,6,107000000,base_footprint,0.0016880447737165594,0.003480837518076566,-0.4396070491278169,0.8981818728031356,0.0,0.0,0.0,0.0,0.0,0.0,0.0,0.0,0.0,0.00031732732050497006,-0.00017724661975460835,0.05188749347139789,0.0,0.0,0.0,0.0,0.0,0.0,0.0,0.0,0.0,0.009550610905395572,-0.0068986144016541795,-0.00042015624293354316,0.0,0.0,0.0,0.0,0.0,0.0,0.0,0.0,0.0
6.141,166,6,141000000,base_footprint,0.001687123741458905,0.003477797412223123,-0.43912376427875205,0.898418264609697,0.0,0.0,0.0,0.0,0.0,0.0,0.0,0.0,0.0,0.0008880805654378498,-0.0007147660836699031,-0.046028307903492605,0.0,0.0,0.0,0.0,0.0,0.0,0.0,0.0,0.0,0.009311148783845574,0.0021595989575142627,-0.0011473443716593285,0.0,0.0,0.0,0.0,0.0,0.0,0.0,0.0,0.0
6.175,167,6,175000000,base_footprint,0.001692352178293636,0.0034864805626433643,-0.43997037809635947,0.8980039235967388,0.0,0.0,0.0,0.0,0.0,0.0,0.0,0.0,0.0,-0.0005067141731837438,0.0003008659576829309,-0.052519674024319674,0.0,0.0,0.0,0.0,0.0,0.0,0.0,0.0,0.0,-0.020323605163901963,-0.023641011895831582,0.001498773842963159,0.0,0.0,0.0,0.0,0.0,0.0,0.0,0.0,0.0
6.209,168,6,209000000,base_footprint,0.0016985027608647097,0.0034797422917830856,-0.44074572277942103,0.8976236484928414,0.0,0.0,0.0,0.0,0.0,0.0,0.0,0.0,0.0,-0.0008554299187855608,-0.0002997091639560988,-0.047663371794227194,0.0,0.0,0.0,0.0,0.0,0.0,0.0,0.0,0.0,-0.0031817078684161617,0.012998006641400182,0.0007660392275411036,0.0,0.0,0.0,0.0,0.0,0.0,0.0,0.0,0.0
6.243,169,6,243000000,base_footprint,0.0016985628212797883,0.003474850241767908,-0.44115805583010576,0.8974210884954403,0.0,0.0,0.0,0.0,0.0,0.0,0.0,0.0,0.0,2.3553014330765805e-05,-0.00030442320825693064,0.016556550125349154,0.0,0.0,0.0,0.0,0.0,0.0,0.0,0.0,0.0,0.0003901333331725841,0.027882617993651854,-0.000839961402815124,0.0,0.0,0.0,0.0,0.0,0.0,0.0,0.0,0.0
6.279,170,6,277000000,base_footprint,0.0017031634065563625,0.00348060429569108,-0.4410233148990363,0.8974872814383573,0.0,0.0,0.0,0.0,0.0,0.0,0.0,0.0,0.0,-0.0006366323738217796,-8.597512545291514e-05,0.005302873216418011,0.0,0.0,0.0,0.0,0.0,0.0,0.0,0.0,0.0,0.0018094528070733494,-0.005285620227347011,0.0011816041909990063,0.0,0.0,0.0,0.0,0.0,0.0,0.0,0.0,0.0
6.311,171,6,311000000,base_footprint,0.001696353510420145,0.0034778836078196255,-0.44102385143661127,0.8974870412292292,0.0,0.0,0.0,0.0,0.0,0.0,0.0,0.0,0.0,-0.00014340382847027717,5.209095740208419e-05,-0.011677728457334557,0.0,0.0,0.0,0.0,0.0,0.0,0.0,0.0,0.0,0.006778812581568632,0.0347653372026218,-0.0009340988534060474,0.0,0.0,0.0,0.0,0.0,0.0,0.0,0.0,0.0
6.345,172,6,345000000,base_footprint,0.001699311849232372,0.003475983849842458,-0.44123942661736765,0.8973810775104919,0.0,0.0,0.0,0.0,0.0,0.0,0.0,0.0,0.0,-0.00010205533643946503,-0.0007518844261754947,-0.0066069124495750885,0.0,0.0,0.0,0.0,0.0,0.0,0.0,0.0,0.0,-0.007150435711857895,-0.010260909536023722,-0.0003401902397323728,0.0,0.0,0.0,0.0,0.0,0.0,0.0,0.0,0.0
6.379,173,6,379000000,base_footprint,0.0017001840593087157,0.0034731290654990274,-0.44142270803115824,0.8972909447793942,0.0,0.0,0.0,0.0,0.0,0.0,0.0,0.0,0.0,-0.00018470930228166207,-0.0003808724849073456,-0.027012968691260537,0.0,0.0,0.0,0.0,0.0,0.0,0.0,0.0,0.0,-0.009391360999775536,-0.020407777443819535,0.0002612585735115449,0.0,0.0,0.0,0.0,0.0,0.0,0.0,0.0,0.0
6.413,174,6,413000000,base_footprint,0.0017018661912882,0.0034707594645199155,-0.4418314132030059,0.8970897724237198,0.0,0.0,0.0,0.0,0.0,0.0,0.0,0.0,0.0,-0.00037201547405006847,3.610555855604119e-05,-0.02688427962681337,0.0,0.0,0.0,0.0,0.0,0.0,0.0,0.0,0.0,-0.006552966285631855,-0.0055238663809308005,0.0003778551036608685,0.0,0.0,0.0,0.0,0.0,0.0,0.0,0.0,0.0
6.447,175,6,447000000,base_footprint,0.0017023838382568184,0.0034685913294933684,-0.44231884946251115,0.8968495448923508,0.0,0.0,0.0,0.0,0.0,0.0,0.0,0.0,0.0,-0.000388204326302563,0.0002918875535521985,-0.03782986857683605,0.0,0.0,0.0,0.0,0.0,0.0,0.0,0.0,0.0,-0.008734986705893597,-0.006980490712498837,0.00012335282288529985,0.0,0.0,0.0,0.0,0.0,0.0,0.0,0.0,0.0
6.481,176,6,481000000,base_footprint,0.0017027668229003192,0.0034669555845920253,-0.44289672004313396,0.896564317926581,0.0,0.0,0.0,0.0,0.0,0.0,0.0,0.0,0.0,-0.000369260862554075,0.0003154291922913625,-0.03813122160714712,0.0,0.0,0.0,0.0,0.0,0.0,0.0,0.0,0.0,-0.009670621126001245,-0.002883488991769212,-5.9252356379409735e-05,0.0,0.0,0.0,0.0,0.0,0.0,0.0,0.0,0.0
6.515,177,6,515000000,base_footprint,0.0017039288972794026,0.00346720239284776,-0.4434792742682982,0.8962763013872138,0.0,0.0,0.0,0.0,0.0,0.0,0.0,0.0,0.0,-0.00027056304567270686,0.00031988849258247887,-0.03843763034508625,0.0,0.0,0.0,0.0,0.0,0.0,0.0,0.0,0.0,-0.009706086316629161,-0.0031948056306978887,-0.00017547398238517808,0.0,0.0,0.0,0.0,0.0,0.0,0.0,0.0,0.0
6.549,178,6,549000000,base_footprint,0.0017028556768341186,0.0034695009105902125,-0.44352732822858004,0.8962525157344847,0.0,0.0,0.0,0.0,0.0,0.0,0.0,0.0,0.0,4.5963852463648526e-05,-0.00011223415914359675,0.03260468353355151,0.0,0.0,0.0,0.0,0.0,0.0,0.0,0.0,0.0,0.0008826234724005578,0.015119437767473692,0.00016344624750471917,0.0,0.0,0.0,0.0,0.0,0.0,0.0,0.0,0.0
6.583,179,6,583000000,base_footprint,0.001701317990483516,0.003475067705411704,-0.44303232861167047,0.896497286792581,0.0,0.0,0.0,0.0,0.0,0.0,0.0,0.0,0.0,0.00020513309575450765,-5.109599521642718e-05,0.03256579480936696,0.0,0.0,0.0,0.0,0.0,0.0,0.0,0.0,0.0,0.006122519198366804,-0.00752459901579189,-0.0005500977467413874,0.0,0.0,0.0,0.0,0.0,0.0,0.0,0.0,0.0
6.617,180,6,617000000,base_footprint,0.0017001880169381495,0.0034782567760409115,-0.4425299729280161,0.8967453563586691,0.0,0.0,0.0,0.0,0.0,0.0,0.0,0.0,0.0,0.00015443335342155715,-0.00013832582186882927,0.03385849724456037,0.0,0.0,0.0,0.0,0.0,0.0,0.0,0.0,0.0,0.0056476394577745235,-0.0036362998684894795,2.6289737357119063e-05,0.0,0.0,0.0,0.0,0.0,0.0,0.0,0.0,0.0
6.651,181,6,651000000,base_footprint,0.001698709989404818,0.00346199574079259,-0.4423840424021048,0.8968174217742625,0.0,0.0,0.0,0.0,0.0,0.0,0.0,0.0,0.0,-0.0014551957470105474,7.568048956543198e-05,-0.04305059457240086,0.0,0.0,0.0,0.0,0.0,0.0,0.0,0.0,0.0,0.08514652854480431,0.29398746379023705,0.0035886877002523207,0.0,0.0,0.0,0.0,0.0,0.0,0.0,0.0,0.0
6.6850000000000005,182,6,685000000,base_footprint,0.0017028973658658488,0.00348097013112219,-0.4429002714602595,0.8965625089908322,0.0,0.0,0.0,0.0,0.0,0.0,0.0,0.0,0.0,-0.00028119933596135584,0.0004175354664281855,0.0386598460193309,0.0,0.0,0.0,0.0,0.0,0.0,0.0,0.0,0.0,0.00824608987177873,0.05621595572032963,-0.001128829751624131,0.0,0.0,0.0,0.0,0.0,0.0,0.0,0.0,0.0
6.719,183,6,719000000,base_footprint,0.0017076529663050052,0.0034796483137651433,-0.44222838534887843,0.8968941025342306,0.0,0.0,0.0,0.0,0.0,0.0,0.0,0.0,0.0,-0.00010446916296066881,-0.00048165418558909073,0.04373998611014651,0.0,0.0,0.0,0.0,0.0,0.0,0.0,0.0,0.0,0.01231266781095564,0.023406467673481434,-0.00031517632621646445,0.0,0.0,0.0,0.0,0.0,0.0,0.0,0.0,0.0
6.753,184,6,753000000,base_footprint,0.0017031672122354055,0.0034587486964929633,-0.44164670511414683,0.8971807644732023,0.0,0.0,0.0,0.0,0.0,0.0,0.0,0.0,0.0,-0.0008888051699955306,0.0005222198631382748,0.03015572446747696,0.0,0.0,0.0,0.0,0.0,0.0,0.0,0.0,0.0,-0.018494604740012258,-0.12315366675009527,0.0005828388652749116,0.0,0.0,0.0,0.0,0.0,0.0,0.0,0.0,0.0
6.787,185,6,787000000,base_footprint,0.0016976998716208358,0.003474614992895228,-0.4418700693384608,0.8970707255777668,0.0,0.0,0.0,0.0,0.0,0.0,0.0,0.0,0.0,0.0018170152514767317,0.0006233932994641591,-0.06573206468431214,0.0,0.0,0.0,0.0,0.0,0.0,0.0,0.0,0.0,-0.04185044393063998,-0.12872207339280894,-0.005618541313759341,0.0,0.0,0.0,0.0,0.0,0.0,0.0,0.0,0.0
6.821,186,6,821000000,base_footprint,0.0016955454744432433,0.003470425356537599,-0.44280835990913525,0.8966079620815168,0.0,0.0,0.0,0.0,0.0,0.0,0.0,0.0,0.0,-0.0008100936236530362,-0.0009763409461737499,-0.05215663338441347,0.0,0.0,0.0,0.0,0.0,0.0,0.0,0.0,0.0,-0.015880953908274896,-0.01947047523069044,0.00159247658879229,0.0,0.0,0.0,0.0,0.0,0.0,0.0,0.0,0.0
6.854,187,6,855000000,base_footprint,0.0016976674313807362,0.0034684087599276938,-0.44280688313730937,0.896608695202198,0.0,0.0,0.0,0.0,0.0,0.0,0.0,0.0,0.0,0.0010911695633852897,-0.0021139039664916084,0.04213396681945065,0.0,0.0,0.0,0.0,0.0,0.0,0.0,0.0,0.0,-0.018525966790247015,-0.047010058539742064,-0.0006762110684266853,0.0,0.0,0.0,0.0,0.0,0.0,0.0,0.0,0.0
6.889,188,6,889000000,base_footprint,0.001700745955813788,0.003470217256591263,-0.4420502040202532,0.8969819854272651,0.0,0.0,0.0,0.0,0.0,0.0,0.0,0.0,0.0,-0.00011819331917493394,-0.0002988794214794878,0.04945645789008572,0.0,0.0,0.0,0.0,0.0,0.0,0.0,0.0,0.0,0.00663618524184232,-0.02570580437311349,0.0027552518906552017,0.0,0.0,0.0,0.0,0.0,0.0,0.0,0.0,0.0
6.923,189,6,923000000,base_footprint,0.0016968392182476646,0.003470667187644527,-0.4412980945076463,0.897352253571506,0.0,0.0,0.0,0.0,0.0,0.0,0.0,0.0,0.0,-1.2955574188366952e-06,-0.00026521739061246804,0.049069596332663584,0.0,0.0,0.0,0.0,0.0,0.0,0.0,0.0,0.0,0.00914031508880055,-0.007623933738459191,-0.0001853040470882233,0.0,0.0,0.0,0.0,0.0,0.0,0.0,0.0,0.0
6.957,190,6,957000000,base_footprint,0.0016960903948593643,0.003477481479341,-0.4404435513508992,0.8977719690842108,0.0,0.0,0.0,0.0,0.0,0.0,0.0,0.0,0.0,-0.0002176460381387266,-0.0005138971999533007,0.06246916473785344,0.0,0.0,0.0,0.0,0.0,0.0,0.0,0.0,0.0,0.20057260645363628,0.7256598576800497,0.003923348062214348,0.0,0.0,0.0,0.0,0.0,0.0,0.0,0.0,0.0
6.991,191,6,991000000,base_footprint,0.0016880622556410827,0.0034690925149628462,-0.4399445959086357,0.8980166303436318,0.0,0.0,0.0,0.0,0.0,0.0,0.0,0.0,0.0,0.001411686679527227,-0.000920551158435968,0.039239586586568384,0.0,0.0,0.0,0.0,0.0,0.0,0.0,0.0,0.0,-0.09470693710950595,-0.3982569482187363,-0.004837809767436227,0.0,0.0,0.0,0.0,0.0,0.0,0.0,0.0,0.0
7.025,192,7,25000000,base_footprint,0.0016866025462128579,0.0034766447364337604,-0.43935124021827987,0.8983070499733858,0.0,0.0,0.0,0.0,0.0,0.0,0.0,0.0,0.0,0.00012150389768570812,-0.00015691926907461325,0.03819873241071361,0.0,0.0,0.0,0.0,0.0,0.0,0.0,0.0,0.0,0.0014162219585665999,-0.022349928327895594,0.0019308791189987479,0.0,0.0,0.0,0.0,0.0,0.0,0.0,0.0,0.0
7.059,193,7,59000000,base_footprint,0.0016852815599055786,0.0034773146799583522,-0.4389693771604732,0.8984937139591054,0.0,0.0,0.0,0.0,0.0,0.0,0.0,0.0,0.0,0.002163645146140847,0.0005376469437537656,-0.004181221037090352,0.0,0.0,0.0,0.0,0.0,0.0,0.0,0.0,0.0,-0.08119951182572521,-0.351695966321048,-0.005345725633151692,0.0,0.0,0.0,0.0,0.0,0.0,0.0,0.0,0.0
7.093,194,7,93000000,base_footprint,0.00168637449569437,0.0034848345202009496,-0.4390076906972643,0.8984749632449879,0.0,0.0,0.0,0.0,0.0,0.0,0.0,0.0,0.0,3.661906155222558e-05,7.463856343229024e-05,-0.001688217242113614,0.0,0.0,0.0,0.0,0.0,0.0,0.0,0.0,0.0,-0.0020897865701894796,0.0033627253733919107,0.0032952430420555277,0.0,0.0,0.0,0.0,0.0,0.0,0.0,0.0,0.0
7.127,195,7,127000000,base_footprint,0.0016883239350371387,0.003487418154329841,-0.4390131125895244,0.8984723003250378,0.0,0.0,0.0,0.0,0.0,0.0,0.0,0.0,0.0,-1.7247127820376536e-05,-2.5989182561635498e-05,0.001021208595663368,0.0,0.0,0.0,0.0,0.0,0.0,0.0,0.0,0.0,0.00014728753137030677,0.002977556149631125,-2.514422574406785e-06,0.0,0.0,0.0,0.0,0.0,0.0,0.0,0.0,0.0
7.161,196,7,161000000,base_footprint,0.0016982432154063684,0.0034646407418522742,-0.43978305822331937,0.8980957487563649,0.0,0.0,0.0,0.0,0.0,0.0,0.0,0.0,0.0,0.002953709278293944,3.5004084489789885e-05,-0.09846525762434757,0.0,0.0,0.0,0.0,0.0,0.0,0.0,0.0,0.0,0.07736222655443141,0.3594779015271219,-0.004938895800076886,0.0,0.0,0.0,0.0,0.0,0.0,0.0,0.0,0.0
7.195,197,7,195000000,base_footprint,0.0017004018601755383,0.0034889077820616714,-0.440357592108748,0.8978140827744838,0.0,0.0,0.0,0.0,0.0,0.0,0.0,0.0,0.0,-0.0009958931604191956,-6.957274679119003e-05,-0.013171765043023819,0.0,0.0,0.0,0.0,0.0,0.0,0.0,0.0,0.0,-0.022635713853411815,-0.03528992031370061,0.008293939575682066,0.0,0.0,0.0,0.0,0.0,0.0,0.0,0.0,0.0
7.229,198,7,229000000,base_footprint,0.0017008307082131734,0.003483140990571345,-0.4404035654903351,0.8977915539851898,0.0,0.0,0.0,0.0,0.0,0.0,0.0,0.0,0.0,0.00019059089271229106,0.00038283140360301546,-0.004403177780917028,0.0,0.0,0.0,0.0,0.0,0.0,0.0,0.0,0.0,0.016101710073112206,0.03632850148227013,-0.0018497104876619578,0.0,0.0,0.0,0.0,0.0,0.0,0.0,0.0,0.0
7.263,199,7,263000000,base_footprint,0.0016928265334933983,0.0034790725338477452,-0.43991876208014935,0.8980292384786258,0.0,0.0,0.0,0.0,0.0,0.0,0.0,0.0,0.0,0.001474424670068537,-0.0016792189052932316,0.08387165299267538,0.0,0.0,0.0,0.0,0.0,0.0,0.0,0.0,0.0,0.08896697158066909,0.31023819663177443,0.00035286165695422225,0.0,0.0,0.0,0.0,0.0,0.0,0.0,0.0,0.0
7.297,200,7,297000000,base_footprint,0.001690721264243071,0.003480319347866993,-0.43939204532526377,0.8982870695628012,0.0,0.0,0.0,0.0,0.0,0.0,0.0,0.0,0.0,0.0003779161169743512,0.00038288699104110674,0.0024556356874242415,0.0,0.0,0.0,0.0,0.0,0.0,0.0,0.0,0.0,0.010926737953883525,0.0025378447212551936,0.0014489176900219104,0.0,0.0,0.0,0.0,0.0,0.0,0.0,0.0,0.0
7.331,201,7,331000000,base_footprint,0.0016975208826902485,0.00347903114854287,-0.439524653745263,0.8982221849382407,0.0,0.0,0.0,0.0,0.0,0.0,0.0,0.0,0.0,-0.004020055237650137,0.0001498487903534994,-0.006776954629899568,0.0,0.0,0.0,0.0,0.0,0.0,0.0,0.0,0.0,-0.004066986401598118,-0.00566613671524355,0.006386049801014796,0.0,0.0,0.0,0.0,0.0,0.0,0.0,0.0,0.0
7.365,202,7,365000000,base_footprint,0.0016846131699646038,0.003468819844859465,-0.4396859107178585,0.8981433233529931,0.0,0.0,0.0,0.0,0.0,0.0,0.0,0.0,0.0,-0.003894096665176667,-0.0007614082106848895,0.01229543950127721,0.0,0.0,0.0,0.0,0.0,0.0,0.0,0.0,0.0,-0.06530265359941753,-0.23497934264837936,-0.0012885467969343074,0.0,0.0,0.0,0.0,0.0,0.0,0.0,0.0,0.0
7.399,203,7,399000000,base_footprint,0.0016864824829007992,0.0034697698014580823,-0.4398263967444216,0.8980745276429895,0.0,0.0,0.0,0.0,0.0,0.0,0.0,0.0,0.0,0.0005612274976032879,-0.002208896881066683,0.01958494536273537,0.0,0.0,0.0,0.0,0.0,0.0,0.0,0.0,0.0,-0.1008710477349334,-0.3864341637685069,-0.010184125059626613,0.0,0.0,0.0,0.0,0.0,0.0,0.0,0.0,0.0
7.433,204,7,433000000,base_footprint,0.001695545789552138,0.0034812171368284704,-0.43945167030569315,0.8982578893153448,0.0,0.0,0.0,0.0,0.0,0.0,0.0,0.0,0.0,0.0055513329681666215,-0.0021374315164136184,0.026708560432002707,0.0,0.0,0.0,0.0,0.0,0.0,0.0,0.0,0.0,0.023548835442694947,0.06558481918346495,-0.003934220617741578,0.0,0.0,0.0,0.0,0.0,0.0,0.0,0.0,0.0
7.467,205,7,467000000,base_footprint,0.0016815763520928017,0.003468529790842421,-0.4387638368606668,0.8985941447980664,0.0,0.0,0.0,0.0,0.0,0.0,0.0,0.0,0.0,-0.003048923208471364,0.0005126284853404999,0.06107163743301801,0.0,0.0,0.0,0.0,0.0,0.0,0.0,0.0,0.0,0.12848346119018322,0.4866358134583139,0.013378972534238417,0.0,0.0,0.0,0.0,0.0,0.0,0.0,0.0,0.0
7.501,206,7,501000000,base_footprint,0.001683547033869807,0.0034766189138523366,-0.4382412314494459,0.8988490984853831,0.0,0.0,0.0,0.0,0.0,0.0,0.0,0.0,0.0,-1.7361916478186315e-05,-7.287965216270382e-05,0.02393540291574471,0.0,0.0,0.0,0.0,0.0,0.0,0.0,0.0,0.0,-0.054257844791669056,-0.2573783190419017,-0.00556278939265266,0.0,0.0,0.0,0.0,0.0,0.0,0.0,0.0,0.0
7.535,207,7,535000000,base_footprint,0.0016868992956413152,0.0034820856928270126,-0.43788655920473574,0.899021907807497,0.0,0.0,0.0,0.0,0.0,0.0,0.0,0.0,0.0,-0.0016897247532562916,-0.000186678958640661,0.01531070501833416,0.0,0.0,0.0,0.0,0.0,0.0,0.0,0.0,0.0,0.03478326039468037,0.11593993877741625,0.0028573854500455096,0.0,0.0,0.0,0.0,0.0,0.0,0.0,0.0,0.0
7.569,208,7,569000000,base_footprint,0.0016800454090998465,0.003480184331392541,-0.4376505484633276,0.8991368434193938,0.0,0.0,0.0,0.0,0.0,0.0,0.0,0.0,0.0,-0.002287317508860571,-0.0011020689338696924,0.05111935297546459,0.0,0.0,0.0,0.0,0.0,0.0,0.0,0.0,0.0,0.103433584258171,0.41622210013236105,0.0035099106656168995,0.0,0.0,0.0,0.0,0.0,0.0,0.0,0.0,0.0
7.603,209,7,603000000,base_footprint,0.0016814550731948867,0.00348721316976683,-0.437332603140734,0.8992915023969118,0.0,0.0,0.0,0.0,0.0,0.0,0.0,0.0,0.0,0.0003171809546976869,0.0002895988512052169,0.005059762665056104,0.0,0.0,0.0,0.0,0.0,0.0,0.0,0.0,0.0,-0.049279553197889715,-0.22097916900200096,-0.006092455767205432,0.0,0.0,0.0,0.0,0.0,0.0,0.0,0.0,0.0
7.6370000000000005,210,7,637000000,base_footprint,0.001680610549166656,0.003484191795067557,-0.4372034919698089,0.8993542920146224,0.0,0.0,0.0,0.0,0.0,0.0,0.0,0.0,0.0,-0.0034215591778163222,0.0004667170669812612,0.02750280573517529,0.0,0.0,0.0,0.0,0.0,0.0,0.0,0.0,0.0,-0.019364586855086633,-0.08606410160458777,0.005474018569099011,0.0,0.0,0.0,0.0,0.0,0.0,0.0,0.0,0.0
7.671,211,7,671000000,base_footprint,0.001678906905894307,0.003482905544592157,-0.4365983218444021,0.8996482401490156,0.0,0.0,0.0,0.0,0.0,0.0,0.0,0.0,0.0,-0.0007800315943859703,0.00043944523656438007,0.056639618703053424,0.0,0.0,0.0,0.0,0.0,0.0,0.0,0.0,0.0,-0.040341871974545244,-0.19427637268232126,-0.004123389421338982,0.0,0.0,0.0,0.0,0.0,0.0,0.0,0.0,0.0
7.705,212,7,705000000,base_footprint,0.0016845633461824222,0.003482574726759432,-0.43528305181669896,0.9002853429445279,0.0,0.0,0.0,0.0,0.0,0.0,0.0,0.0,0.0,-0.0006831007937281313,-0.002245517475529266,0.0925195918969478,0.0,0.0,0.0,0.0,0.0,0.0,0.0,0.0,0.0,0.01712457042924185,-0.027201933953950416,0.0010184096311954556,0.0,0.0,0.0,0.0,0.0,0.0,0.0,0.0,0.0
7.739,213,7,739000000,base_footprint,0.0016762732694125182,0.0034714142572060853,-0.4339823244205658,0.9009131375895814,0.0,0.0,0.0,0.0,0.0,0.0,0.0,0.0,0.0,-0.0015029121490873242,0.0009034869277321667,0.07672516533122993,0.0,0.0,0.0,0.0,0.0,0.0,0.0,0.0,0.0,0.004009233618804831,-0.06310861673957573,-0.0004977507337218081,0.0,0.0,0.0,0.0,0.0,0.0,0.0,0.0,0.0
7.773,214,7,773000000,base_footprint,0.0016657787669998503,0.0034769061681876007,-0.4333261971707498,0.9012289071873658,0.0,0.0,0.0,0.0,0.0,0.0,0.0,0.0,0.0,0.0028442301737642253,0.0005721648673920798,-0.007424512311567175,0.0,0.0,0.0,0.0,0.0,0.0,0.0,0.0,0.0,-0.020406427565807655,-0.12200099739663377,-0.006802309092304026,0.0,0.0,0.0,0.0,0.0,0.0,0.0,0.0,0.0
7.807,215,7,807000000,base_footprint,0.0016603065122892165,0.003487574481269384,-0.43378913785616335,0.9010061398706056,0.0,0.0,0.0,0.0,0.0,0.0,0.0,0.0,0.0,-0.0008138098237933002,0.0010942827259260131,-0.023964826619024878,0.0,0.0,0.0,0.0,0.0,0.0,0.0,0.0,0.0,-0.01964922453944928,-0.05633853273321111,0.006136681607653269,0.0,0.0,0.0,0.0,0.0,0.0,0.0,0.0,0.0
7.841,216,7,841000000,base_footprint,0.0016609491769039996,0.0034818792833171187,-0.4336568495970058,0.9010698388926844,0.0,0.0,0.0,0.0,0.0,0.0,0.0,0.0,0.0,0.0022634620775490405,-0.0004623966859430716,0.0647079795528924,0.0,0.0,0.0,0.0,0.0,0.0,0.0,0.0,0.0,-0.010171482867505197,-0.040068228727235214,-0.005609079682969496,0.0,0.0,0.0,0.0,0.0,0.0,0.0,0.0,0.0
7.875,217,7,875000000,base_footprint,0.001663282252735518,0.0034887048494957754,-0.43252534111173047,0.901613493536339,0.0,0.0,0.0,0.0,0.0,0.0,0.0,0.0,0.0,-9.504545768137087e-06,-0.00047429057750914585,0.0740706344588818,0.0,0.0,0.0,0.0,0.0,0.0,0.0,0.0,0.0,0.009100749996035972,-0.041539488180407126,0.002509682957743793,0.0,0.0,0.0,0.0,0.0,0.0,0.0,0.0,0.0
7.909,218,7,909000000,base_footprint,0.0016579021662136042,0.003489259121672269,-0.43139224240350527,0.902156200236558,0.0,0.0,0.0,0.0,0.0,0.0,0.0,0.0,0.0,0.00015018731979414112,-0.000528634809471432,0.07371165122185136,0.0,0.0,0.0,0.0,0.0,0.0,0.0,0.0,0.0,0.014928513722144009,-0.00817819974771886,-0.0004000244609506683,0.0,0.0,0.0,0.0,0.0,0.0,0.0,0.0,0.0
7.943,219,7,943000000,base_footprint,0.0016521904217475653,0.003486211995966268,-0.4307904011771137,0.9024437638137852,0.0,0.0,0.0,0.0,0.0,0.0,0.0,0.0,0.0,-0.0001849823778339733,-7.192623210432316e-05,-0.05270741183602621,0.0,0.0,0.0,0.0,0.0,0.0,0.0,0.0,0.0,0.006085079582272257,-0.0359971151805212,-0.0009603381518586478,0.0,0.0,0.0,0.0,0.0,0.0,0.0,0.0,0.0
7.977,220,7,977000000,base_footprint,0.0016567214569978958,0.003489114666623697,-0.4315847220714398,0.9020641379787667,0.0,0.0,0.0,0.0,0.0,0.0,0.0,0.0,0.0,-0.0003815599106238307,0.0003549977479932131,-0.051720558230615256,0.0,0.0,0.0,0.0,0.0,0.0,0.0,0.0,0.0,-0.01728573741900696,-0.007132704112610154,0.0007221169346288005,0.0,0.0,0.0,0.0,0.0,0.0,0.0,0.0,0.0
8.01,221,8,11000000,base_footprint,0.0016594414078252918,0.003490053052826062,-0.4323781636764043,0.9016840851205721,0.0,0.0,0.0,0.0,0.0,0.0,0.0,0.0,0.0,-0.00024234358740219167,0.0004450224314373841,-0.051841920921255204,0.0,0.0,0.0,0.0,0.0,0.0,0.0,0.0,0.0,-0.012495059538364361,-0.0027139562589964345,-0.0003207066655088792,0.0,0.0,0.0,0.0,0.0,0.0,0.0,0.0,0.0
8.045,222,8,45000000,base_footprint,0.0016614223080357521,0.0034919476472633926,-0.43275729037744526,0.9015021761497388,0.0,0.0,0.0,0.0,0.0,0.0,0.0,0.0,0.0,-0.0016008573266083216,0.00040304676640886774,0.02049944373007005,0.0,0.0,0.0,0.0,0.0,0.0,0.0,0.0,0.0,-0.006139548748676069,0.014931700402924391,0.002066670958283924,0.0,0.0,0.0,0.0,0.0,0.0,0.0,0.0,0.0
8.079,223,8,79000000,base_footprint,0.0016606871504229988,0.003495438052506502,-0.43244976161370974,0.9016497256203515,0.0,0.0,0.0,0.0,0.0,0.0,0.0,0.0,0.0,0.00018853504367101427,-2.742881891538015e-05,0.020522287353698716,0.0,0.0,0.0,0.0,0.0,0.0,0.0,0.0,0.0,0.005305096612540721,-0.004070312814663567,-0.0022143719394331885,0.0,0.0,0.0,0.0,0.0,0.0,0.0,0.0,0.0
8.113,224,8,113000000,base_footprint,0.0016604004155518302,0.0034983515726970203,-0.4321177333649868,0.9018088872473148,0.0,0.0,0.0,0.0,0.0,0.0,0.0,0.0,0.0,0.00018463721980640566,-0.00012648178233347536,0.022946877699331288,0.0,0.0,0.0,0.0,0.0,0.0,0.0,0.0,0.0,0.004219039479757874,-3.244308295272591e-05,-0.00012167060481235796,0.0,0.0,0.0,0.0,0.0,0.0,0.0,0.0,0.0
8.147,225,8,147000000,base_footprint,0.0016588583837122315,0.003478508423176606,-0.4319768672880147,0.901876451791511,0.0,0.0,0.0,0.0,0.0,0.0,0.0,0.0,0.0,0.0002352902862031148,0.00019482758791416755,-0.03147303762185736,0.0,0.0,0.0,0.0,0.0,0.0,0.0,0.0,0.0,0.05051982929556886,0.183199671645212,0.0021145872805572175,0.0,0.0,0.0,0.0,0.0,0.0,0.0,0.0,0.0
8.181,226,8,181000000,base_footprint,0.0016665053942973328,0.0034975624304958253,-0.4328221113684332,0.901471025450839,0.0,0.0,0.0,0.0,0.0,0.0,0.0,0.0,0.0,-0.0005639505200554587,0.0008587790318286344,-0.018427227819569417,0.0,0.0,0.0,0.0,0.0,0.0,0.0,0.0,0.0,-0.0020449079401689205,0.09249864201643784,0.0012080912739957203,0.0,0.0,0.0,0.0,0.0,0.0,0.0,0.0,0.0
8.215,227,8,215000000,base_footprint,0.0016736352973184493,0.003492150165118553,-0.43263614107532133,0.9015602992964865,0.0,0.0,0.0,0.0,0.0,0.0,0.0,0.0,0.0,0.000577002788036997,0.00024211331319602835,0.025932312020560663,0.0,0.0,0.0,0.0,0.0,0.0,0.0,0.0,0.0,0.029323860747806865,0.11508001921291382,-0.0024395244884121855,0.0,0.0,0.0,0.0,0.0,0.0,0.0,0.0,0.0
8.249,228,8,249000000,base_footprint,0.0016632614165742574,0.003479619491458972,-0.43270572771015536,0.9015269707648683,0.0,0.0,0.0,0.0,0.0,0.0,0.0,0.0,0.0,-0.0009139943582271467,0.0003744024289362716,-0.05030199792227316,0.0,0.0,0.0,0.0,0.0,0.0,0.0,0.0,0.0,-0.008986419623682452,-0.0946241594893345,0.0015609286713691884,0.0,0.0,0.0,0.0,0.0,0.0,0.0,0.0,0.0
8.283,229,8,283000000,base_footprint,0.0016586588921312778,0.0034869743494934796,-0.4341700791762749,0.9008226419271625,0.0,0.0,0.0,0.0,0.0,0.0,0.0,0.0,0.0,2.957997600810922e-05,-0.00012084889240401769,-0.10497853868646254,0.0,0.0,0.0,0.0,0.0,0.0,0.0,0.0,0.0,-0.05221258430932979,-0.11691321982049226,-0.0020513541221848825,0.0,0.0,0.0,0.0,0.0,0.0,0.0,0.0,0.0
8.317,230,8,317000000,base_footprint,0.00166421425441431,0.0034801198678231465,-0.43540972830767516,0.9002241318980831,0.0,0.0,0.0,0.0,0.0,0.0,0.0,0.0,0.0,0.0003001003630197709,-0.0014566141781987107,-0.05235733627528104,0.0,0.0,0.0,0.0,0.0,0.0,0.0,0.0,0.0,-0.04602090434296332,-0.104182125100378,-0.0013478898310496392,0.0,0.0,0.0,0.0,0.0,0.0,0.0,0.0,0.0
8.351,231,8,351000000,base_footprint,0.001675678665981671,0.0034844007421955675,-0.4352768326452403,0.9002883593687102,0.0,0.0,0.0,0.0,0.0,0.0,0.0,0.0,0.0,-0.001198490970531554,8.722989084516925e-05,0.05020899706189751,0.0,0.0,0.0,0.0,0.0,0.0,0.0,0.0,0.0,-0.005780490953780339,-0.03037083192286344,0.0038023732012749827,0.0,0.0,0.0,0.0,0.0,0.0,0.0,0.0,0.0
8.385,232,8,385000000,base_footprint,0.0016707726550617746,0.003483588125159847,-0.4345158587946257,0.900655895216635,0.0,0.0,0.0,0.0,0.0,0.0,0.0,0.0,0.0,2.0009663429887718e-05,-0.00037681770207947837,0.04952262895003197,0.0,0.0,0.0,0.0,0.0,0.0,0.0,0.0,0.0,0.009524139359054313,-0.00540799470946395,-0.0017504605648922865,0.0,0.0,0.0,0.0,0.0,0.0,0.0,0.0,0.0
8.419,233,8,419000000,base_footprint,0.0016663673908006277,0.00348394466325722,-0.43375831497103773,0.901020981743926,0.0,0.0,0.0,0.0,0.0,0.0,0.0,0.0,0.0,-1.1988165836260327e-06,-0.0002396295871686892,0.04933197453189863,0.0,0.0,0.0,0.0,0.0,0.0,0.0,0.0,0.0,0.00889038646195307,-0.007909437085420832,6.85778097932043e-05,0.0,0.0,0.0,0.0,0.0,0.0,0.0,0.0,0.0
8.453,234,8,453000000,base_footprint,0.0016622570992529586,0.0034858055846053184,-0.4329419016619375,0.9014135542835529,0.0,0.0,0.0,0.0,0.0,0.0,0.0,0.0,0.0,0.00012018662011131022,-0.0002846609776744472,0.05529222608616645,0.0,0.0,0.0,0.0,0.0,0.0,0.0,0.0,0.0,0.010375562912912155,-0.0065654912732339915,-0.0002696268181453183,0.0,0.0,0.0,0.0,0.0,0.0,0.0,0.0,0.0
8.487,235,8,487000000,base_footprint,0.0016585940718086892,0.003489335506560881,-0.43209490705738934,0.9018198627766488,0.0,0.0,0.0,0.0,0.0,0.0,0.0,0.0,0.0,0.00021670203366142284,-0.00027779656354682294,0.05514482699530514,0.0,0.0,0.0,0.0,0.0,0.0,0.0,0.0,0.0,0.010534648758910692,-0.008047985753716593,-0.00030867624518930665,0.0,0.0,0.0,0.0,0.0,0.0,0.0,0.0,0.0
8.521,236,8,521000000,base_footprint,0.0016553812495600957,0.003494699669820753,-0.43124866667448103,0.90222482468541,0.0,0.0,0.0,0.0,0.0,0.0,0.0,0.0,0.0,0.0003383752201128274,-0.00026236035865797946,0.05516413742376834,0.0,0.0,0.0,0.0,0.0,0.0,0.0,0.0,0.0,0.010616588917188861,-0.007504580604784509,-0.0003584501269580067,0.0,0.0,0.0,0.0,0.0,0.0,0.0,0.0,0.0
8.555,237,8,555000000,base_footprint,0.0016566306436820838,0.0034991728923321154,-0.43117611637305675,0.9022594793258912,0.0,0.0,0.0,0.0,0.0,0.0,0.0,0.0,0.0,0.00015060847841491342,0.00028554988849391815,-0.02034587306801906,0.0,0.0,0.0,0.0,0.0,0.0,0.0,0.0,0.0,-0.003277150304640694,-0.023006706380087102,-0.000661914489632381,0.0,0.0,0.0,0.0,0.0,0.0,0.0,0.0,0.0
8.589,238,8,589000000,base_footprint,0.0016594558754203003,0.003501403479992644,-0.43147139505507903,0.9021182969151507,0.0,0.0,0.0,0.0,0.0,0.0,0.0,0.0,0.0,-9.630448582648574e-05,8.579283853608271e-05,-0.018067447229397893,0.0,0.0,0.0,0.0,0.0,0.0,0.0,0.0,0.0,-0.004288149709427613,0.0031806956388275207,0.0004758688306990581,0.0,0.0,0.0,0.0,0.0,0.0,0.0,0.0,0.0
8.623,239,8,623000000,base_footprint,0.001661959669669122,0.0035006948794135294,-0.4317236055825693,0.9019976227286876,0.0,0.0,0.0,0.0,0.0,0.0,0.0,0.0,0.0,-0.0002713819256634872,-5.08205054178559e-06,-0.014465832547868285,0.0,0.0,0.0,0.0,0.0,0.0,0.0,0.0,0.0,-0.0035305233656612867,0.008526786066818793,0.00044608223552996244,0.0,0.0,0.0,0.0,0.0,0.0,0.0,0.0,0.0
8.657,240,8,657000000,base_footprint,0.0016589493651094213,0.0035016628643955387,-0.43247785089853297,0.9016362319285834,0.0,0.0,0.0,0.0,0.0,0.0,0.0,0.0,0.0,-0.0017038130270687103,-0.00022121314323772019,-0.09877895997869822,0.0,0.0,0.0,0.0,0.0,0.0,0.0,0.0,0.0,0.038027021865678155,0.20236943710141014,0.004646827248749023,0.0,0.0,0.0,0.0,0.0,0.0,0.0,0.0,0.0
8.691,241,8,691000000,base_footprint,0.001673784638760309,0.003490838061450725,-0.4335220036705697,0.901134665201637,0.0,0.0,0.0,0.0,0.0,0.0,0.0,0.0,0.0,0.00016820497206230113,-0.0010443270796308714,-0.02022151083142158,0.0,0.0,0.0,0.0,0.0,0.0,0.0,0.0,0.0,0.008972445156795308,0.12012782628955443,-0.0037689448708924304,0.0,0.0,0.0,0.0,0.0,0.0,0.0,0.0,0.0
8.725,242,8,725000000,base_footprint,0.0016747845161850657,0.003494162222776762,-0.43385996731344284,0.9009719832991278,0.0,0.0,0.0,0.0,0.0,0.0,0.0,0.0,0.0,-0.0008811072328929443,0.0005713038953081488,-0.035512086492240164,0.0,0.0,0.0,0.0,0.0,0.0,0.0,0.0,0.0,0.020188617745636246,0.062392215283563326,0.002036395457587003,0.0,0.0,0.0,0.0,0.0,0.0,0.0,0.0,0.0
8.759,243,8,759000000,base_footprint,0.0016611185836842934,0.00348786727747758,-0.43385459047476116,0.9009746221680625,0.0,0.0,0.0,0.0,0.0,0.0,0.0,0.0,0.0,-0.00043462096646433205,0.0013739812369739713,0.0178502023700435,0.0,0.0,0.0,0.0,0.0,0.0,0.0,0.0,0.0,0.01277518208217419,0.08588094182611204,0.0015360475129766568,0.0,0.0,0.0,0.0,0.0,0.0,0.0,0.0,0.0
8.793,244,8,793000000,base_footprint,0.0016669873978313041,0.003490572088808643,-0.4332816303932925,0.9012502792361502,0.0,0.0,0.0,0.0,0.0,0.0,0.0,0.0,0.0,0.0009406819254122049,-0.00176672590532237,0.05864042356674075,0.0,0.0,0.0,0.0,0.0,0.0,0.0,0.0,0.0,-0.015671474419793763,-0.08426326404282614,-0.004022776012967724,0.0,0.0,0.0,0.0,0.0,0.0,0.0,0.0,0.0
8.827,245,8,827000000,base_footprint,0.0016641553068196537,0.0034898124315287213,-0.4323645414854602,0.9016906093901474,0.0,0.0,0.0,0.0,0.0,0.0,0.0,0.0,0.0,-0.00010577025720610725,-0.0003752886350260352,0.05921679644226607,0.0,0.0,0.0,0.0,0.0,0.0,0.0,0.0,0.0,0.012452241783793753,-0.010733501050748367,0.001988367856216612,0.0,0.0,0.0,0.0,0.0,0.0,0.0,0.0,0.0
8.861,246,8,861000000,base_footprint,0.0016617983391795626,0.003488980424484949,-0.4319621120277745,0.9018834731906232,0.0,0.0,0.0,0.0,0.0,0.0,0.0,0.0,0.0,-0.000793921567250127,-2.222917234614573e-05,-0.0019326355186330964,0.0,0.0,0.0,0.0,0.0,0.0,0.0,0.0,0.0,-0.06903665939476071,-0.35817563957548537,-0.0015779504200357784,0.0,0.0,0.0,0.0,0.0,0.0,0.0,0.0,0.0
8.895,247,8,895000000,base_footprint,0.0016603066567356015,0.003487287510055627,-0.431989781831811,0.9018702293570469,0.0,0.0,0.0,0.0,0.0,0.0,0.0,0.0,0.0,-0.0002694979132559131,6.441143266114663e-05,-0.0019175134363402149,0.0,0.0,0.0,0.0,0.0,0.0,0.0,0.0,0.0,-0.004350576456036643,-0.0017506336046933168,-0.00033637612901897475,0.0,0.0,0.0,0.0,0.0,0.0,0.0,0.0,0.0
8.929,248,8,929000000,base_footprint,0.0016593872445290888,0.003487199677545671,-0.4320204813138635,0.9018555259007507,0.0,0.0,0.0,0.0,0.0,0.0,0.0,0.0,0.0,-0.0001829414013518117,5.8056463281834846e-05,-0.002177300141336244,0.0,0.0,0.0,0.0,0.0,0.0,0.0,0.0,0.0,-0.001757760328227383,-0.005513890400951663,-0.00019805487258292364,0.0,0.0,0.0,0.0,0.0,0.0,0.0,0.0,0.0
8.963000000000001,249,8,963000000,base_footprint,0.0016595107262399372,0.0034888263696205585,-0.4322322671431499,0.9017540359516031,0.0,0.0,0.0,0.0,0.0,0.0,0.0,0.0,0.0,-0.0008000076313862641,0.00014589245001374115,-0.025780810389074274,0.0,0.0,0.0,0.0,0.0,0.0,0.0,0.0,0.0,0.14175225467754554,0.6605960134305827,0.003987091833188496,0.0,0.0,0.0,0.0,0.0,0.0,0.0,0.0,0.0
8.997,250,8,997000000,base_footprint,0.001660515000409888,0.0034908648245543924,-0.43242327741373987,0.9016624455434916,0.0,0.0,0.0,0.0,0.0,0.0,0.0,0.0,0.0,0.00014330403290615916,7.279410254895007e-05,-0.002596364960315595,0.0,0.0,0.0,0.0,0.0,0.0,0.0,0.0,0.0,-0.0766451999300013,-0.33704237772213924,-0.0029652782151220526,0.0,0.0,0.0,0.0,0.0,0.0,0.0,0.0,0.0
9.03,251,9,31000000,base_footprint,0.0016623199997366851,0.003496576381209669,-0.4324621319471798,0.9016437850268415,0.0,0.0,0.0,0.0,0.0,0.0,0.0,0.0,0.0,0.0036369781285125,-0.0017306774436966653,-0.004520526555136985,0.0,0.0,0.0,0.0,0.0,0.0,0.0,0.0,0.0,0.005163272348354014,0.021639847993441277,0.002606649603825052,0.0,0.0,0.0,0.0,0.0,0.0,0.0,0.0,0.0
9.064,252,9,65000000,base_footprint,0.0016670167438418686,0.0034873262885353863,-0.4330966408814594,0.9013392032235863,0.0,0.0,0.0,0.0,0.0,0.0,0.0,0.0,0.0,0.0037759752529069263,0.003958410460350057,-0.05110574150921012,0.0,0.0,0.0,0.0,0.0,0.0,0.0,0.0,0.0,0.11134803274341598,0.5624568717914503,-0.0100237506776469,0.0,0.0,0.0,0.0,0.0,0.0,0.0,0.0,0.0
9.099,253,9,99000000,base_footprint,0.0016687590605510907,0.0034966649417219916,-0.43342554551205664,0.9011810501087223,0.0,0.0,0.0,0.0,0.0,0.0,0.0,0.0,0.0,0.0006598745659826402,0.00027023652323796205,-0.011810944516111536,0.0,0.0,0.0,0.0,0.0,0.0,0.0,0.0,0.0,-0.05973643397596582,-0.26016105742560375,0.007557699129986812,0.0,0.0,0.0,0.0,0.0,0.0,0.0,0.0,0.0
9.133,254,9,133000000,base_footprint,0.0016701808048694862,0.003496938049501065,-0.43353116408526343,0.9011302412455335,0.0,0.0,0.0,0.0,0.0,0.0,0.0,0.0,0.0,0.0009227662219472788,-0.0002598070175105433,0.0038473717726290367,0.0,0.0,0.0,0.0,0.0,0.0,0.0,0.0,0.0,-0.0003888001602367841,0.0014107478426246467,0.002613083204077372,0.0,0.0,0.0,0.0,0.0,0.0,0.0,0.0,0.0
9.167,255,9,167000000,base_footprint,0.0016777965621661475,0.003486215094460722,-0.43313440994133784,0.9013210383807649,0.0,0.0,0.0,0.0,0.0,0.0,0.0,0.0,0.0,-0.0029189127339203096,-0.0027492740101848455,0.03957813844626321,0.0,0.0,0.0,0.0,0.0,0.0,0.0,0.0,0.0,0.0069233440967477146,-0.020480190325544666,0.010013824373195455,0.0,0.0,0.0,0.0,0.0,0.0,0.0,0.0,0.0
9.201,256,9,201000000,base_footprint,0.0016665021305503618,0.0034753423349687855,-0.43226251439377117,0.9017395762725946,0.0,0.0,0.0,0.0,0.0,0.0,0.0,0.0,0.0,0.00016713669872224035,0.00042489940008781304,0.053717998687088486,0.0,0.0,0.0,0.0,0.0,0.0,0.0,0.0,0.0,-0.008922938297265454,-0.1123246353696351,-0.011540495806848702,0.0,0.0,0.0,0.0,0.0,0.0,0.0,0.0,0.0
9.235,257,9,235000000,base_footprint,0.0016606196437467906,0.0034801625956886843,-0.4321153948362736,0.901810077763715,0.0,0.0,0.0,0.0,0.0,0.0,0.0,0.0,0.0,-0.0004602999483138876,0.001308464814351856,-0.04519148128995752,0.0,0.0,0.0,0.0,0.0,0.0,0.0,0.0,0.0,-0.03563006526236126,-0.126180198146426,0.001734111664763106,0.0,0.0,0.0,0.0,0.0,0.0,0.0,0.0,0.0
9.269,258,9,269000000,base_footprint,0.0016572752622052796,0.0034869027991414206,-0.43350309440474527,0.9011438076628421,0.0,0.0,0.0,0.0,0.0,0.0,0.0,0.0,0.0,-0.000997558189998138,0.0006096705972434138,-0.09861840538807565,0.0,0.0,0.0,0.0,0.0,0.0,0.0,0.0,0.0,-0.0523740353140721,-0.1632060292979833,-0.002510139760164453,0.0,0.0,0.0,0.0,0.0,0.0,0.0,0.0,0.0
9.303,259,9,303000000,base_footprint,0.001662851693043943,0.003481947369150782,-0.4345746839707206,0.9006275340108774,0.0,0.0,0.0,0.0,0.0,0.0,0.0,0.0,0.0,-0.0007253810848710227,0.0002825489309700038,-0.03592409532637824,0.0,0.0,0.0,0.0,0.0,0.0,0.0,0.0,0.0,-0.04766834318624012,-0.12832306742438518,-0.00019395904260363392,0.0,0.0,0.0,0.0,0.0,0.0,0.0,0.0,0.0
9.337,260,9,337000000,base_footprint,0.0016769670977499723,0.003489869822652389,-0.43468935796979424,0.9005721351772894,0.0,0.0,0.0,0.0,0.0,0.0,0.0,0.0,0.0,-0.004255604361856075,0.001400625810906663,-0.003475144314346421,0.0,0.0,0.0,0.0,0.0,0.0,0.0,0.0,0.0,0.01489939828198533,0.06669055214559219,0.004467099390733767,0.0,0.0,0.0,0.0,0.0,0.0,0.0,0.0,0.0
9.371,261,9,371000000,base_footprint,0.0016724949910912217,0.0034808554040023894,-0.4354597106669778,0.9001999371206338,0.0,0.0,0.0,0.0,0.0,0.0,0.0,0.0,0.0,0.00020680558843146968,-0.0008789842612072368,-0.001828406830746041,0.0,0.0,0.0,0.0,0.0,0.0,0.0,0.0,0.0,0.031167478828828345,0.18916709614517194,-0.005292351161994915,0.0,0.0,0.0,0.0,0.0,0.0,0.0,0.0,0.0
9.405,262,9,405000000,base_footprint,0.0016723992089597065,0.0034813557872758446,-0.4354903644940794,0.9001851063395696,0.0,0.0,0.0,0.0,0.0,0.0,0.0,0.0,0.0,-0.00022232947775291365,6.123358133114316e-05,-0.002497531381765973,0.0,0.0,0.0,0.0,0.0,0.0,0.0,0.0,0.0,-0.0012143658178956278,-0.007896218700365644,0.0015885145146576796,0.0,0.0,0.0,0.0,0.0,0.0,0.0,0.0,0.0
9.439,263,9,439000000,base_footprint,0.0016685469821420553,0.003476998024229006,-0.4355382058567162,0.9001619841310899,0.0,0.0,0.0,0.0,0.0,0.0,0.0,0.0,0.0,0.0010281055122111054,-0.00010489005785272696,-0.0065806186667133025,0.0,0.0,0.0,0.0,0.0,0.0,0.0,0.0,0.0,-0.04654594966896855,-0.188368564682794,-0.0021564086960904495,0.0,0.0,0.0,0.0,0.0,0.0,0.0,0.0,0.0
9.473,264,9,473000000,base_footprint,0.0016743158513303844,0.003483072407151139,-0.43623257867665804,0.8998256509869842,0.0,0.0,0.0,0.0,0.0,0.0,0.0,0.0,0.0,-0.0002817533538166918,0.00048219698369527644,-0.052524842891610565,0.0,0.0,0.0,0.0,0.0,0.0,0.0,0.0,0.0,-0.047860264628334245,-0.1637661478821257,-7.226371553654856e-06,0.0,0.0,0.0,0.0,0.0,0.0,0.0,0.0,0.0
9.507,265,9,507000000,base_footprint,0.0016775824357060517,0.003484803448662725,-0.4370350639238712,0.8994361538003426,0.0,0.0,0.0,0.0,0.0,0.0,0.0,0.0,0.0,-0.00016145628940748193,0.00045905691978467145,-0.052428201855627674,0.0,0.0,0.0,0.0,0.0,0.0,0.0,0.0,0.0,-0.012224177732355481,-0.0019274350131792952,-0.0001920394705064637,0.0,0.0,0.0,0.0,0.0,0.0,0.0,0.0,0.0
9.541,266,9,541000000,base_footprint,0.0016799474716061352,0.0034855472238092635,-0.437537118395367,0.8991920255225365,0.0,0.0,0.0,0.0,0.0,0.0,0.0,0.0,0.0,0.005124377540111609,-6.749798049313213e-05,0.03736622730014891,0.0,0.0,0.0,0.0,0.0,0.0,0.0,0.0,0.0,-0.008135744150061956,0.021278371960984963,-0.007304289103595034,0.0,0.0,0.0,0.0,0.0,0.0,0.0,0.0,0.0
9.575,267,9,575000000,base_footprint,0.0016795702406167013,0.0034895999164049995,-0.4369725637090925,0.8994664975982893,0.0,0.0,0.0,0.0,0.0,0.0,0.0,0.0,0.0,0.0002059065883514846,-0.00017625350754920256,0.03723349051177223,0.0,0.0,0.0,0.0,0.0,0.0,0.0,0.0,0.0,0.010817684912245938,-0.0018108969032363982,0.007346266919283483,0.0,0.0,0.0,0.0,0.0,0.0,0.0,0.0,0.0
9.609,268,9,609000000,base_footprint,0.0016788229328335168,0.003491217168176275,-0.43637187398042204,0.8997580677910366,0.0,0.0,0.0,0.0,0.0,0.0,0.0,0.0,0.0,-0.00016364736849987731,-0.0006587828641901614,0.041410386873210386,0.0,0.0,0.0,0.0,0.0,0.0,0.0,0.0,0.0,0.012053012240769715,0.0027544826843548314,0.0006203611252912901,0.0,0.0,0.0,0.0,0.0,0.0,0.0,0.0,0.0
9.643,269,9,643000000,base_footprint,0.0016722780552488308,0.003480582373384802,-0.4357647240864011,0.9000523286311474,0.0,0.0,0.0,0.0,0.0,0.0,0.0,0.0,0.0,0.0012089670460118294,-8.069151120771855e-06,0.019271725936131256,0.0,0.0,0.0,0.0,0.0,0.0,0.0,0.0,0.0,0.03783628854206513,0.12002131232320766,-0.0005821466451899208,0.0,0.0,0.0,0.0,0.0,0.0,0.0,0.0,0.0
9.677,270,9,677000000,base_footprint,0.0016817803415999507,0.0034845843958827547,-0.43551604964388374,0.9001726499894654,0.0,0.0,0.0,0.0,0.0,0.0,0.0,0.0,0.0,-0.00037195229136277873,-0.0004551006785465065,0.046473973999022866,0.0,0.0,0.0,0.0,0.0,0.0,0.0,0.0,0.0,0.057177387322114574,0.23680981671781956,0.0018778230720703768,0.0,0.0,0.0,0.0,0.0,0.0,0.0,0.0,0.0
9.711,271,9,711000000,base_footprint,0.0016748704346479586,0.0034891771469606346,-0.43502952077705687,0.9004078723025186,0.0,0.0,0.0,0.0,0.0,0.0,0.0,0.0,0.0,2.19942186066492e-05,0.0005935801282020029,0.019697859586370856,0.0,0.0,0.0,0.0,0.0,0.0,0.0,0.0,0.0,0.019350279462940594,0.016861752474923674,0.00015988579417696528,0.0,0.0,0.0,0.0,0.0,0.0,0.0,0.0,0.0
9.745,272,9,745000000,base_footprint,0.0016624103559076976,0.0034704734332475858,-0.43504059381429394,0.9004026176881453,0.0,0.0,0.0,0.0,0.0,0.0,0.0,0.0,0.0,0.0004263382447099737,-0.0006620149321682615,-0.0403226660935163,0.0,0.0,0.0,0.0,0.0,0.0,0.0,0.0,0.0,-0.023811298926366315,-0.0968643633511874,-0.0014508570767862263,0.0,0.0,0.0,0.0,0.0,0.0,0.0,0.0,0.0
9.779,273,9,779000000,base_footprint,0.0016665047365137782,0.003479782357491654,-0.43611490623708543,0.8998827159327629,0.0,0.0,0.0,0.0,0.0,0.0,0.0,0.0,0.0,-0.0011507942061837896,0.001603565169924355,-0.05634085002495466,0.0,0.0,0.0,0.0,0.0,0.0,0.0,0.0,0.0,-0.07292514693260972,-0.21791460676081903,0.0018088922709908728,0.0,0.0,0.0,0.0,0.0,0.0,0.0,0.0,0.0
9.813,274,9,813000000,base_footprint,0.0016815221366120953,0.003481457011811144,-0.4366833939716247,0.8996069504899359,0.0,0.0,0.0,0.0,0.0,0.0,0.0,0.0,0.0,-0.0002461461199144366,-4.0004128952416763e-05,-0.03377400696179799,0.0,0.0,0.0,0.0,0.0,0.0,0.0,0.0,0.0,-0.019947522233363574,-0.05085547155232244,-0.0019397705729724958,0.0,0.0,0.0,0.0,0.0,0.0,0.0,0.0,0.0
9.847,275,9,847000000,base_footprint,0.0016815012092560395,0.003480537379868484,-0.4366525139204082,0.8996219430962199,0.0,0.0,0.0,0.0,0.0,0.0,0.0,0.0,0.0,-0.0002706407949058708,-0.00023377792941164696,0.05237648121575396,0.0,0.0,0.0,0.0,0.0,0.0,0.0,0.0,0.0,0.0012881250439475238,0.015370548356151321,0.0010438934242589814,0.0,0.0,0.0,0.0,0.0,0.0,0.0,0.0,0.0
9.881,276,9,881000000,base_footprint,0.0016755580949782585,0.0034795772492407,-0.4358640231486597,0.9000042435299411,0.0,0.0,0.0,0.0,0.0,0.0,0.0,0.0,0.0,-2.938144543457923e-06,-0.00023625251914801402,0.051335102308611665,0.0,0.0,0.0,0.0,0.0,0.0,0.0,0.0,0.0,0.011871951576435854,-0.007389071165163755,-0.000683545260770641,0.0,0.0,0.0,0.0,0.0,0.0,0.0,0.0,0.0
9.915,277,9,915000000,base_footprint,0.0016714414412035044,0.0034816109066601385,-0.43507942469846456,0.9003837953190054,0.0,0.0,0.0,0.0,0.0,0.0,0.0,0.0,0.0,0.00010701000029821617,-0.00024727067703814826,0.05109430811726196,0.0,0.0,0.0,0.0,0.0,0.0,0.0,0.0,0.0,0.009594656450408827,-0.008153826213883272,-0.00030370104057914884,0.0,0.0,0.0,0.0,0.0,0.0,0.0,0.0,0.0
9.949,278,9,949000000,base_footprint,0.0016728927847005416,0.0034859418691807814,-0.4343995710536419,0.9007119752215064,0.0,0.0,0.0,0.0,0.0,0.0,0.0,0.0,0.0,-0.0003067414200711302,-0.00013279542241913708,0.02723555935528588,0.0,0.0,0.0,0.0,0.0,0.0,0.0,0.0,0.0,0.1237974533458419,0.4888584282891373,0.002804700976815783,0.0,0.0,0.0,0.0,0.0,0.0,0.0,0.0,0.0
9.983,279,9,983000000,base_footprint,0.0016678567722012065,0.003480454999122173,-0.43445427403744824,0.900685621322657,0.0,0.0,0.0,0.0,0.0,0.0,0.0,0.0,0.0,-0.00025586256989544636,-0.000670648306384231,0.004877076747607241,0.0,0.0,0.0,0.0,0.0,0.0,0.0,0.0,0.0,-0.0163601041564855,-0.07020677732171385,-0.000181291888696346,0.0,0.0,0.0,0.0,0.0,0.0,0.0,0.0,0.0
10.017,280,10,17000000,base_footprint,0.001666832454499714,0.003492948844290161,-0.43387924399936206,0.9009627198749578,0.0,0.0,0.0,0.0,0.0,0.0,0.0,0.0,0.0,0.00031852872537618923,-6.77817781368355e-05,0.040262288548562716,0.0,0.0,0.0,0.0,0.0,0.0,0.0,0.0,0.0,-0.019186988059534043,-0.10698749922974496,-0.0018627132925796701,0.0,0.0,0.0,0.0,0.0,0.0,0.0,0.0,0.0
10.051,281,10,51000000,base_footprint,0.001664708449947397,0.003489592051003295,-0.43311304389855054,0.9013313168297364,0.0,0.0,0.0,0.0,0.0,0.0,0.0,0.0,0.0,0.0006682675305922759,-0.00071250585662174,0.046664738900177305,0.0,0.0,0.0,0.0,0.0,0.0,0.0,0.0,0.0,-0.03852434846953117,-0.22332745915073504,-0.0015503537506184367,0.0,0.0,0.0,0.0,0.0,0.0,0.0,0.0,0.0
10.085,282,10,85000000,base_footprint,0.001666773579214648,0.0034900283902981576,-0.4328513729127893,0.9014570042632006,0.0,0.0,0.0,0.0,0.0,0.0,0.0,0.0,0.0,0.000929798043989513,0.00034065185353074465,-0.0006129601905936827,0.0,0.0,0.0,0.0,0.0,0.0,0.0,0.0,0.0,-0.025347121182490787,-0.12339940213169795,-0.0016034201804056602,0.0,0.0,0.0,0.0,0.0,0.0,0.0,0.0,0.0
10.119,283,10,119000000,base_footprint,0.0016710328100476232,0.0034934497960264024,-0.43282062256697496,0.9014717478316261,0.0,0.0,0.0,0.0,0.0,0.0,0.0,0.0,0.0,-0.00012729548020667445,-0.000341195386255924,0.009159067643475311,0.0,0.0,0.0,0.0,0.0,0.0,0.0,0.0,0.0,0.009509078978835638,0.0270475717818212,0.0019302398328879923,0.0,0.0,0.0,0.0,0.0,0.0,0.0,0.0,0.0
10.153,284,10,153000000,base_footprint,0.001658998197210816,0.003487458182493335,-0.4326651866936199,0.9015464056740409,0.0,0.0,0.0,0.0,0.0,0.0,0.0,0.0,0.0,-0.0005475498324092221,0.0003211444358944719,0.00671339631102514,0.0,0.0,0.0,0.0,0.0,0.0,0.0,0.0,0.0,0.04863445341548375,0.20840248218297214,0.002045757208838733,0.0,0.0,0.0,0.0,0.0,0.0,0.0,0.0,0.0
10.187,285,10,187000000,base_footprint,0.0016745803608146938,0.003498827274654597,-0.4325272419128216,0.9016125215366105,0.0,0.0,0.0,0.0,0.0,0.0,0.0,0.0,0.0,-0.000544296384560383,-8.403573663747697e-05,-0.008770575624556638,0.0,0.0,0.0,0.0,0.0,0.0,0.0,0.0,0.0,0.032969504184460596,0.1235580581349746,0.00016982160213583068,0.0,0.0,0.0,0.0,0.0,0.0,0.0,0.0,0.0
10.221,286,10,221000000,base_footprint,0.0016720737444252298,0.00349368466114676,-0.4327295649471989,0.9015154585238623,0.0,0.0,0.0,0.0,0.0,0.0,0.0,0.0,0.0,-0.00034852248505521413,3.5365028248299666e-05,-0.012642692385972171,0.0,0.0,0.0,0.0,0.0,0.0,0.0,0.0,0.0,-0.0028624434219223062,0.02126819963036095,-0.00021414456519907563,0.0,0.0,0.0,0.0,0.0,0.0,0.0,0.0,0.0
10.255,287,10,255000000,base_footprint,0.0016592293143424986,0.0034872224670167763,-0.43318232212113894,0.9012980428466968,0.0,0.0,0.0,0.0,0.0,0.0,0.0,0.0,0.0,-0.0008349934668295666,6.706165036417239e-05,-0.03398287036520224,0.0,0.0,0.0,0.0,0.0,0.0,0.0,0.0,0.0,-0.042847595298033996,-0.17878340328863346,-0.00024736712871506196,0.0,0.0,0.0,0.0,0.0,0.0,0.0,0.0,0.0
10.289,288,10,289000000,base_footprint,0.0016649138203964331,0.0034868333662606975,-0.4331284112242505,0.9013239425674894,0.0,0.0,0.0,0.0,0.0,0.0,0.0,0.0,0.0,0.0018521155358019927,-0.002527934759790409,0.03962476226026513,0.0,0.0,0.0,0.0,0.0,0.0,0.0,0.0,0.0,-0.040166303908035265,-0.15397484818407745,-0.004690154124056474,0.0,0.0,0.0,0.0,0.0,0.0,0.0,0.0,0.0
10.323,289,10,323000000,base_footprint,0.0016649534465511795,0.003487401198701833,-0.4325069287613081,0.9016223281043793,0.0,0.0,0.0,0.0,0.0,0.0,0.0,0.0,0.0,-9.334508467421527e-05,-0.00020692241638215825,0.04009108417635799,0.0,0.0,0.0,0.0,0.0,0.0,0.0,0.0,0.0,0.009772068011468998,-0.010668768177683094,0.0035073008756533438,0.0,0.0,0.0,0.0,0.0,0.0,0.0,0.0,0.0
10.357,290,10,357000000,base_footprint,0.0016609098866653368,0.003486930992931148,-0.43193008752723044,0.9018988203669622,0.0,0.0,0.0,0.0,0.0,0.0,0.0,0.0,0.0,-7.305856989366712e-05,-0.00016374232618242312,0.0367197803211428,0.0,0.0,0.0,0.0,0.0,0.0,0.0,0.0,0.0,0.006406509640399868,-0.008168477645894089,-0.00012469633582166137,0.0,0.0,0.0,0.0,0.0,0.0,0.0,0.0,0.0
10.391,291,10,391000000,base_footprint,0.0016575398287636252,0.0034879582125751938,-0.43136846719602373,0.9021675743553281,0.0,0.0,0.0,0.0,0.0,0.0,0.0,0.0,0.0,5.106339992874432e-06,-0.00016576557824137076,0.03643483236096477,0.0,0.0,0.0,0.0,0.0,0.0,0.0,0.0,0.0,0.006593398269035522,-0.007348049091291173,-0.0002429372648640887,0.0,0.0,0.0,0.0,0.0,0.0,0.0,0.0,0.0
10.425,292,10,425000000,base_footprint,0.0016547550234143908,0.003490562249340698,-0.4308108081965858,0.9024340005241385,0.0,0.0,0.0,0.0,0.0,0.0,0.0,0.0,0.0,9.791861957405612e-05,-0.00015835121804655712,0.03618474338552964,0.0,0.0,0.0,0.0,0.0,0.0,0.0,0.0,0.0,0.006525829053259026,-0.00717952341562721,-0.000269899264553141,0.0,0.0,0.0,0.0,0.0,0.0,0.0,0.0,0.0
10.459,293,10,459000000,base_footprint,0.0016533689267234724,0.0034945618622369157,-0.4305116346087748,0.9025767484679981,0.0,0.0,0.0,0.0,0.0,0.0,0.0,0.0,0.0,0.00013782453584979643,-9.440105626872794e-05,0.009207626236157613,0.0,0.0,0.0,0.0,0.0,0.0,0.0,0.0,0.0,0.07248326862009213,0.32168038151736195,0.0014666250226598333,0.0,0.0,0.0,0.0,0.0,0.0,0.0,0.0,0.0
10.493,294,10,493000000,base_footprint,0.0016532495895350248,0.003498841192535787,-0.4303711146884337,0.902643743964328,0.0,0.0,0.0,0.0,0.0,0.0,0.0,0.0,0.0,9.35119707833326e-05,4.721201817907276e-05,0.009235105852488903,0.0,0.0,0.0,0.0,0.0,0.0,0.0,0.0,0.0,0.00039640089995466275,-0.005751684760537201,-0.0003120409722264323,0.0,0.0,0.0,0.0,0.0,0.0,0.0,0.0,0.0
10.527,295,10,527000000,base_footprint,0.0016540570049157746,0.0035023448294744875,-0.4302184827582836,0.9027164863728149,0.0,0.0,0.0,0.0,0.0,0.0,0.0,0.0,0.0,0.00011346536802124918,-2.426045535460396e-05,0.010847268897036777,0.0,0.0,0.0,0.0,0.0,0.0,0.0,0.0,0.0,0.0017646775373348312,-0.0008197353653410013,-6.816700295690723e-05,0.0,0.0,0.0,0.0,0.0,0.0,0.0,0.0,0.0
10.561,296,10,561000000,base_footprint,0.001657304707919156,0.003484985554396024,-0.4306772360486538,0.9024977709480966,0.0,0.0,0.0,0.0,0.0,0.0,0.0,0.0,0.0,0.0007343520287344933,-0.0030218710295895467,-0.07302162082920323,0.0,0.0,0.0,0.0,0.0,0.0,0.0,0.0,0.0,0.091278072973739,0.4518890824667289,-0.0005938214148191801,0.0,0.0,0.0,0.0,0.0,0.0,0.0,0.0,0.0
10.595,297,10,595000000,base_footprint,0.0016599874884525487,0.003499601283466666,-0.43096684065721214,0.902359451375302,0.0,0.0,0.0,0.0,0.0,0.0,0.0,0.0,0.0,-0.0006473542490416833,-0.0004171526741825511,0.0006269363305651727,0.0,0.0,0.0,0.0,0.0,0.0,0.0,0.0,0.0,-0.028607089165218095,-0.09474598749043397,0.0035946384804223745,0.0,0.0,0.0,0.0,0.0,0.0,0.0,0.0,0.0
10.629,298,10,629000000,base_footprint,0.0016649332733505758,0.0034953049589691613,-0.43076682393868915,0.9024549596706828,0.0,0.0,0.0,0.0,0.0,0.0,0.0,0.0,0.0,0.00030548109744341474,-0.00022513386237054534,0.025676697826407552,0.0,0.0,0.0,0.0,0.0,0.0,0.0,0.0,0.0,0.015842533140872014,0.04437437907763951,-0.0014266083180124764,0.0,0.0,0.0,0.0,0.0,0.0,0.0,0.0,0.0
10.663,299,10,663000000,base_footprint,0.001657590879869405,0.003480014698287701,-0.43020452624440536,0.9027232175417897,0.0,0.0,0.0,0.0,0.0,0.0,0.0,0.0,0.0,0.00010811631839714107,0.0004973230770047103,0.02918730300529241,0.0,0.0,0.0,0.0,0.0,0.0,0.0,0.0,0.0,-0.003278344471348782,-0.10396021730156925,0.00029299647163384863,0.0,0.0,0.0,0.0,0.0,0.0,0.0,0.0,0.0
10.697,300,10,697000000,base_footprint,0.001651795220528654,0.0034822334951911554,-0.4304828245639304,0.9025905402661247,0.0,0.0,0.0,0.0,0.0,0.0,0.0,0.0,0.0,-0.0014722097611253142,0.0008237076755233384,-0.07216483298754431,0.0,0.0,0.0,0.0,0.0,0.0,0.0,0.0,0.0,-0.04074585409838766,-0.12900375657028726,0.0013376481463726496,0.0,0.0,0.0,0.0,0.0,0.0,0.0,0.0,0.0
10.731,301,10,731000000,base_footprint,0.001653201562322693,0.003484674130924456,-0.43244303534422085,0.9016530070670604,0.0,0.0,0.0,0.0,0.0,0.0,0.0,0.0,0.0,0.006369670163515303,0.004240707078325644,-0.16577782544988412,0.0,0.0,0.0,0.0,0.0,0.0,0.0,0.0,0.0,-0.07871875387394531,-0.23281630067632456,-0.0163574474823003,0.0,0.0,0.0,0.0,0.0,0.0,0.0,0.0,0.0
10.764,302,10,765000000,base_footprint,0.0016606977204848424,0.0034838967171331955,-0.43389980838002323,0.9009528627150949,0.0,0.0,0.0,0.0,0.0,0.0,0.0,0.0,0.0,-0.0006465454432144014,0.00039241952105717264,-0.05728864107975448,0.0,0.0,0.0,0.0,0.0,0.0,0.0,0.0,0.0,-0.03598022940044886,-0.07029606711011205,0.013498203538185987,0.0,0.0,0.0,0.0,0.0,0.0,0.0,0.0,0.0
10.799,303,10,799000000,base_footprint,0.001669501341229421,0.0034866426411224644,-0.434070395233393,0.9008706611219454,0.0,0.0,0.0,0.0,0.0,0.0,0.0,0.0,0.0,-0.0007993207735628482,-9.180612896196778e-05,0.016491735689449533,0.0,0.0,0.0,0.0,0.0,0.0,0.0,0.0,0.0,-0.04008873110888865,-0.15954434348497115,-4.601247914109887e-05,0.0,0.0,0.0,0.0,0.0,0.0,0.0,0.0,0.0
10.833,304,10,833000000,base_footprint,0.0016717850159271757,0.003491665825927924,-0.43382124623930723,0.900990643523003,0.0,0.0,0.0,0.0,0.0,0.0,0.0,0.0,0.0,0.005005726960486249,-0.0021225199847620642,0.018907667838521384,0.0,0.0,0.0,0.0,0.0,0.0,0.0,0.0,0.0,0.023162784039383544,0.08350022058904927,-0.005850290515229091,0.0,0.0,0.0,0.0,0.0,0.0,0.0,0.0,0.0
10.867,305,10,867000000,base_footprint,0.0016657365136761876,0.00348424803571419,-0.4338271292103116,0.9009878508052328,0.0,0.0,0.0,0.0,0.0,0.0,0.0,0.0,0.0,-0.00016343350768254717,5.628070593650153e-05,-0.00720929207075606,0.0,0.0,0.0,0.0,0.0,0.0,0.0,0.0,0.0,0.05314824135988655,0.23460378714877697,0.006524300086012424,0.0,0.0,0.0,0.0,0.0,0.0,0.0,0.0,0.0
10.901,306,10,901000000,base_footprint,0.001665517955464214,0.003484836309912578,-0.4339380077686217,0.9009344523213844,0.0,0.0,0.0,0.0,0.0,0.0,0.0,0.0,0.0,-0.0001694262729619296,8.915305676714351e-05,-0.007372923618078232,0.0,0.0,0.0,0.0,0.0,0.0,0.0,0.0,0.0,-0.002775299711322084,-0.005108732722753057,-7.758785795757143e-05,0.0,0.0,0.0,0.0,0.0,0.0,0.0,0.0,0.0
10.935,307,10,935000000,base_footprint,0.001662702222306747,0.0034818450757102227,-0.43404742936893914,0.9008817576321569,0.0,0.0,0.0,0.0,0.0,0.0,0.0,0.0,0.0,-0.001148407531763659,-0.00013323617963259413,-0.005063036238842978,0.0,0.0,0.0,0.0,0.0,0.0,0.0,0.0,0.0,-0.02707302105680596,-0.10538715686552191,0.0009753268556201272,0.0,0.0,0.0,0.0,0.0,0.0,0.0,0.0,0.0
10.969,308,10,969000000,base_footprint,0.0016684372196674978,0.0034896583003131195,-0.43460553784592887,0.9006126054391211,0.0,0.0,0.0,0.0,0.0,0.0,0.0,0.0,0.0,-0.00017019082370782783,0.0004909820695325721,-0.05072685445356853,0.0,0.0,0.0,0.0,0.0,0.0,0.0,0.0,0.0,-0.06342534558017175,-0.2454003329423163,-0.003300843582898913,0.0,0.0,0.0,0.0,0.0,0.0,0.0,0.0,0.0
11.003,309,11,3000000,base_footprint,0.0016723630578892351,0.0034925398769976956,-0.43537515177711666,0.9002407914453016,0.0,0.0,0.0,0.0,0.0,0.0,0.0,0.0,0.0,-0.0001791417719778277,0.0003539441998966035,-0.04966964700651502,0.0,0.0,0.0,0.0,0.0,0.0,0.0,0.0,0.0,-0.011524626087034917,0.0008194929807445301,0.0001675407637009397,0.0,0.0,0.0,0.0,0.0,0.0,0.0,0.0,0.0
11.037,310,11,37000000,base_footprint,0.0016758441497092174,0.003488256018990261,-0.4360108128403461,0.8999331056821017,0.0,0.0,0.0,0.0,0.0,0.0,0.0,0.0,0.0,-0.001112985655811609,0.0019926699865489028,0.008034296456348438,0.0,0.0,0.0,0.0,0.0,0.0,0.0,0.0,0.0,-0.014409159458863587,-0.01327841896898298,0.002837443715887453,0.0,0.0,0.0,0.0,0.0,0.0,0.0,0.0,0.0
11.071,311,11,71000000,base_footprint,0.0016761414498638945,0.0034914905755824514,-0.43557299027700663,0.9001450828530628,0.0,0.0,0.0,0.0,0.0,0.0,0.0,0.0,0.0,-0.0005475009113548025,-0.0006768053765033,0.030926264251072092,0.0,0.0,0.0,0.0,0.0,0.0,0.0,0.0,0.0,0.019005927194292425,0.04929374011981079,-0.001281806531286878,0.0,0.0,0.0,0.0,0.0,0.0,0.0,0.0,0.0
11.105,312,11,105000000,base_footprint,0.001681392405688358,0.0034876247592105286,-0.4349834950413043,0.900430101915062,0.0,0.0,0.0,0.0,0.0,0.0,0.0,0.0,0.0,0.0005766511164576912,-0.0004132239592535337,0.050425663827266515,0.0,0.0,0.0,0.0,0.0,0.0,0.0,0.0,0.0,0.020268554068527508,0.05162495980446965,-0.0019866446435466934,0.0,0.0,0.0,0.0,0.0,0.0,0.0,0.0,0.0
11.139,313,11,139000000,base_footprint,0.0016619160144606927,0.0034861045357414268,-0.4343460847157179,0.9007377885946904,0.0,0.0,0.0,0.0,0.0,0.0,0.0,0.0,0.0,-0.0024865067719621802,0.0021898939097333247,0.029020530398263862,0.0,0.0,0.0,0.0,0.0,0.0,0.0,0.0,0.0,0.02065507733829723,0.01196714247521314,0.007191804898452666,0.0,0.0,0.0,0.0,0.0,0.0,0.0,0.0,0.0
11.173,314,11,173000000,base_footprint,0.0016796152472446963,0.003495279676834609,-0.43397548473204806,0.9009163338313863,0.0,0.0,0.0,0.0,0.0,0.0,0.0,0.0,0.0,-0.0024944987677479285,0.00015104551549031313,0.05343771224556516,0.0,0.0,0.0,0.0,0.0,0.0,0.0,0.0,0.0,0.03539318550497208,0.1553656873242598,-0.0012153061691037449,0.0,0.0,0.0,0.0,0.0,0.0,0.0,0.0,0.0
11.207,315,11,207000000,base_footprint,0.001666493668520708,0.0034912725144676995,-0.43335796054649783,0.9012135772646029,0.0,0.0,0.0,0.0,0.0,0.0,0.0,0.0,0.0,0.00021107485995759955,-0.0006919844594450539,0.013726638856574627,0.0,0.0,0.0,0.0,0.0,0.0,0.0,0.0,0.0,0.040250982652311196,0.1442617870800595,-0.004399855792998637,0.0,0.0,0.0,0.0,0.0,0.0,0.0,0.0,0.0
11.241,316,11,241000000,base_footprint,0.0016601535916023454,0.0034770831449144873,-0.43310890580779227,0.9013333620214181,0.0,0.0,0.0,0.0,0.0,0.0,0.0,0.0,0.0,0.0007738563184552727,6.680794126797659e-05,-0.009427861827890799,0.0,0.0,0.0,0.0,0.0,0.0,0.0,0.0,0.0,-0.032032558919955254,-0.16185004126167682,5.136452806381143e-05,0.0,0.0,0.0,0.0,0.0,0.0,0.0,0.0,0.0
11.275,317,11,275000000,base_footprint,0.001670216325192781,0.0034864263253596072,-0.43360459179975835,0.9010949523657703,0.0,0.0,0.0,0.0,0.0,0.0,0.0,0.0,0.0,-0.0004206770733860611,0.00010365661667151572,-0.03360718858087966,0.0,0.0,0.0,0.0,0.0,0.0,0.0,0.0,0.0,-0.054969533749413726,-0.21057762348623377,-0.0005473373499872605,0.0,0.0,0.0,0.0,0.0,0.0,0.0,0.0,0.0
11.309,318,11,309000000,base_footprint,0.0016709306293594432,0.003483783438417044,-0.43411992800703497,0.9008468012658717,0.0,0.0,0.0,0.0,0.0,0.0,0.0,0.0,0.0,-0.000465610079835907,0.0002781620322966661,-0.03393872377695469,0.0,0.0,0.0,0.0,0.0,0.0,0.0,0.0,0.0,-0.00909139304392988,-0.004258955790498569,0.0002568079958994929,0.0,0.0,0.0,0.0,0.0,0.0,0.0,0.0,0.0
11.343,319,11,343000000,base_footprint,0.0016705471310324944,0.0034839320354259763,-0.43428602571106145,0.9007667397067606,0.0,0.0,0.0,0.0,0.0,0.0,0.0,0.0,0.0,1.468242266236265e-05,-9.834362838688695e-05,0.03995903061174191,0.0,0.0,0.0,0.0,0.0,0.0,0.0,0.0,0.0,-0.0028626663754088583,0.015552620051776591,0.0001956012510614938,0.0,0.0,0.0,0.0,0.0,0.0,0.0,0.0,0.0
11.377,320,11,377000000,base_footprint,0.0016664041639470823,0.0034842435470370005,-0.43369025043827103,0.9010537441345312,0.0,0.0,0.0,0.0,0.0,0.0,0.0,0.0,0.0,5.33231395680683e-05,-0.00016732100582943977,0.03859824995610958,0.0,0.0,0.0,0.0,0.0,0.0,0.0,0.0,0.0,0.009730710853407893,-0.008975157493369645,-0.0005326328148828225,0.0,0.0,0.0,0.0,0.0,0.0,0.0,0.0,0.0
11.411,321,11,411000000,base_footprint,0.0016635638254609282,0.0034877987089111163,-0.4330998122414309,0.901337683918742,0.0,0.0,0.0,0.0,0.0,0.0,0.0,0.0,0.0,0.0001626783225654034,-0.00015514892668277397,0.03838915909409826,0.0,0.0,0.0,0.0,0.0,0.0,0.0,0.0,0.0,0.006970071251072906,-0.007210570635556043,-0.00030418561293633054,0.0,0.0,0.0,0.0,0.0,0.0,0.0,0.0,0.0
11.445,322,11,445000000,base_footprint,0.0016604007519956637,0.003493781868843938,-0.4323716137488926,0.9016872097250654,0.0,0.0,0.0,0.0,0.0,0.0,0.0,0.0,0.0,-0.00020136864211423489,-0.000314892220794351,0.06058270847377278,0.0,0.0,0.0,0.0,0.0,0.0,0.0,0.0,0.0,0.00934452453134502,-0.0008635428970509887,0.0005347254277836073,0.0,0.0,0.0,0.0,0.0,0.0,0.0,0.0,0.0
11.479,323,11,479000000,base_footprint,0.001657715748502627,0.00349889313689478,-0.43144068272478625,0.9021329985181143,0.0,0.0,0.0,0.0,0.0,0.0,0.0,0.0,0.0,0.000332311885963882,-0.000334877512066588,0.0610444417120359,0.0,0.0,0.0,0.0,0.0,0.0,0.0,0.0,0.0,0.012067675782692973,-0.006007735175514676,-0.000880258628303113,0.0,0.0,0.0,0.0,0.0,0.0,0.0,0.0,0.0
11.513,324,11,513000000,base_footprint,0.0016552149998465182,0.003502996392355283,-0.4304921750242301,0.9025859939764671,0.0,0.0,0.0,0.0,0.0,0.0,0.0,0.0,0.0,0.00032089675027174207,-0.0003446357937450101,0.06284311920769586,0.0,0.0,0.0,0.0,0.0,0.0,0.0,0.0,0.0,0.012414003587991844,-0.002686053580678987,-0.00022720721471710523,0.0,0.0,0.0,0.0,0.0,0.0,0.0,0.0,0.0
11.547,325,11,547000000,base_footprint,0.0016551288276460687,0.003498076553129488,-0.42983244437496726,0.9029003786529459,0.0,0.0,0.0,0.0,0.0,0.0,0.0,0.0,0.0,-0.0014527364528950815,-0.000116161195553257,0.008795296157248753,0.0,0.0,0.0,0.0,0.0,0.0,0.0,0.0,0.0,0.01869936852765181,0.033451007046034924,0.0025203863713128233,0.0,0.0,0.0,0.0,0.0,0.0,0.0,0.0,0.0
11.581,326,11,581000000,base_footprint,0.001661082507906686,0.003496490756927373,-0.42961543622896975,0.9030036502202416,0.0,0.0,0.0,0.0,0.0,0.0,0.0,0.0,0.0,0.0006424787756563355,-0.00020537157582997938,0.024165981899254972,0.0,0.0,0.0,0.0,0.0,0.0,0.0,0.0,0.0,0.01262686146130244,0.04320649133535643,-0.0033745492515293244,0.0,0.0,0.0,0.0,0.0,0.0,0.0,0.0,0.0
11.615,327,11,615000000,base_footprint,0.0016593830750857186,0.003496363437145335,-0.4293682101324335,0.9031212332894162,0.0,0.0,0.0,0.0,0.0,0.0,0.0,0.0,0.0,0.0003073837734112984,0.00048077174902882785,0.0007891308885079621,0.0,0.0,0.0,0.0,0.0,0.0,0.0,0.0,0.0,-0.001730673533565737,-0.037097057907836656,0.0011790792328684671,0.0,0.0,0.0,0.0,0.0,0.0,0.0,0.0,0.0
11.648,328,11,649000000,base_footprint,0.0016518756802798929,0.0034996750311560637,-0.42929972501753677,0.9031537907141177,0.0,0.0,0.0,0.0,0.0,0.0,0.0,0.0,0.0,0.0007969381844599153,-0.0008822536945427076,0.05304581316992457,0.0,0.0,0.0,0.0,0.0,0.0,0.0,0.0,0.0,0.031694538019999906,0.17432530495195286,0.0003402660201291929,0.0,0.0,0.0,0.0,0.0,0.0,0.0,0.0,0.0
