Time,header.seq,header.stamp.secs,header.stamp.nsecs,header.frame_id,orientation.x,orientation.y,orientation.z,orientation.w,orientation_covariance_0,orientation_covariance_1,orientation_covariance_2,orientation_covariance_3,orientation_covariance_4,orientation_covariance_5,orientation_covariance_6,orientation_covariance_7,orientation_covariance_8,angular_velocity.x,angular_velocity.y,angular_velocity.z,angular_velocity_covariance_0,angular_velocity_covariance_1,angular_velocity_covariance_2,angular_velocity_covariance_3,angular_velocity_covariance_4,angular_velocity_covariance_5,angular_velocity_covariance_6,angular_velocity_covariance_7,angular_velocity_covariance_8,linear_acceleration.x,linear_acceleration.y,linear_acceleration.z,linear_acceleration_covariance_0,linear_acceleration_covariance_1,linear_acceleration_covariance_2,linear_acceleration_covariance_3,linear_acceleration_covariance_4,linear_acceleration_covariance_5,linear_acceleration_covariance_6,linear_acceleration_covariance_7,linear_acceleration_covariance_8
0.269,0,0,269000000,base_footprint,-3.758460061062561e-05,4.579550583176042e-06,-0.7079541174651108,0.7062584272988335,0.0,0.0,0.0,0.0,0.0,0.0,0.0,0.0,0.0,0.00021460620675819303,-0.04763871107734299,-3.4833362574205204e-06,0.0,0.0,0.0,0.0,0.0,0.0,0.0,0.0,0.0,-0.00030048411337009365,5.279383439701311e-06,-0.042650385985531496,0.0,0.0,0.0,0.0,0.0,0.0,0.0,0.0,0.0
0.303,1,0,303000000,base_footprint,0.0007582433507265668,0.0008144027874113639,-0.7079540255799702,0.7062576438384478,0.0,0.0,0.0,0.0,0.0,0.0,0.0,0.0,0.0,0.00028100923839038255,-0.06779562121914952,-0.00016835595369055093,0.0,0.0,0.0,0.0,0.0,0.0,0.0,0.0,0.0,0.0011929224388960023,1.2152889112671266e-05,0.002989631853265514,0.0,0.0,0.0,0.0,0.0,0.0,0.0,0.0,0.0
0.337,2,0,337000000,base_footprint,0.0015680186976010212,0.0016370487546119477,-0.7079526978924766,0.706256213378334,0.0,0.0,0.0,0.0,0.0,0.0,0.0,0.0,0.0,0.00027898327204950446,-0.06771916722341126,-0.0003070633104347084,0.0,0.0,0.0,0.0,0.0,0.0,0.0,0.0,0.0,0.00023308327763451423,-3.334571186903998e-05,0.00015086781632317884,0.0,0.0,0.0,0.0,0.0,0.0,0.0,0.0,0.0
0.371,3,0,371000000,base_footprint,0.0023768910678483583,0.002458765342607808,-0.7079503079464752,0.7062539673094465,0.0,0.0,0.0,0.0,0.0,0.0,0.0,0.0,0.0,0.0002789519930452497,-0.06764225010874522,-0.0004570278956066047,0.0,0.0,0.0,0.0,0.0,0.0,0.0,0.0,0.0,0.00023274512683763775,-1.068909077029195e-05,0.00015132862885422252,0.0,0.0,0.0,0.0,0.0,0.0,0.0,0.0,0.0
0.405,4,0,405000000,base_footprint,0.0027114543483992603,0.002715859121371678,-0.7079545455332709,0.7062475724442029,0.0,0.0,0.0,0.0,0.0,0.0,0.0,0.0,0.0,-0.001170257656438389,-0.0015415844158668155,-0.0011030408170146111,0.0,0.0,0.0,0.0,0.0,0.0,0.0,0.0,0.0,0.00580763793724272,0.001014424037905234,0.13921069878696646,0.0,0.0,0.0,0.0,0.0,0.0,0.0,0.0,0.0
0.439,5,0,439000000,base_footprint,0.002728546597443219,0.002732227549665757,-0.7079568956270664,0.7062450876998505,0.0,0.0,0.0,0.0,0.0,0.0,0.0,0.0,0.0,-1.1938777912297668e-05,8.650828460114699e-05,0.00015457815410873998,0.0,0.0,0.0,0.0,0.0,0.0,0.0,0.0,0.0,-0.006483718372676147,-0.0023148389423142102,-0.007303801047258272,0.0,0.0,0.0,0.0,0.0,0.0,0.0,0.0,0.0
0.47300000000000003,6,0,473000000,base_footprint,0.002728007971536713,0.002731832417769634,-0.707954243423737,0.7062477499309097,0.0,0.0,0.0,0.0,0.0,0.0,0.0,0.0,0.0,-2.9936404319134846e-05,0.0001884730146152168,0.0002959255220121745,0.0,0.0,0.0,0.0,0.0,0.0,0.0,0.0,0.0,3.6167285649556195e-05,-0.000275963211083808,8.685397143783086e-05,0.0,0.0,0.0,0.0,0.0,0.0,0.0,0.0,0.0
0.507,7,0,507000000,base_footprint,0.0027279213903593103,0.002731821284301676,-0.7079506630337149,0.7062513393314608,0.0,0.0,0.0,0.0,0.0,0.0,0.0,0.0,0.0,-3.113716207034636e-05,0.0001780019763586089,0.0003324989239371598,0.0,0.0,0.0,0.0,0.0,0.0,0.0,0.0,0.0,1.0403808184019411e-05,-7.18907227796558e-05,-1.6155546430679175e-05,0.0,0.0,0.0,0.0,0.0,0.0,0.0,0.0,0.0
0.541,8,0,541000000,base_footprint,0.0027278831723705557,0.0027318317736531343,-0.7079468479726646,0.7062551636583817,0.0,0.0,0.0,0.0,0.0,0.0,0.0,0.0,0.0,-3.169431964341616e-05,0.00017645085685959433,0.00034191341572219636,0.0,0.0,0.0,0.0,0.0,0.0,0.0,0.0,0.0,2.6397145541536666e-06,-1.8527113295876675e-05,-2.871378600255646e-06,0.0,0.0,0.0,0.0,0.0,0.0,0.0,0.0,0.0
0.5750000000000001,9,0,575000000,base_footprint,0.0027278594938937866,0.0027318484738684656,-0.707942971407679,0.7062590495143859,0.0,0.0,0.0,0.0,0.0,0.0,0.0,0.0,0.0,-3.186689350571532e-05,0.00017600966744961514,0.0003444157180964218,0.0,0.0,0.0,0.0,0.0,0.0,0.0,0.0,0.0,7.098243609505571e-07,-4.920566899092873e-06,-7.874607106165137e-07,0.0,0.0,0.0,0.0,0.0,0.0,0.0,0.0,0.0
0.609,10,0,609000000,base_footprint,0.0027278398940360393,0.0027318665415994544,-0.7079390784373589,0.7062629517509569,0.0,0.0,0.0,0.0,0.0,0.0,0.0,0.0,0.0,-3.19379960414678e-05,0.00017589300806719268,0.00034509003237756704,0.0,0.0,0.0,0.0,0.0,0.0,0.0,0.0,0.0,1.9840555451247379e-07,-1.321965287282161e-06,-2.0346288440880423e-07,0.0,0.0,0.0,0.0,0.0,0.0,0.0,0.0,0.0
0.643,11,0,643000000,base_footprint,0.0027278216057080138,0.0027318847416530115,-0.7079351809887674,0.7062668584277808,0.0,0.0,0.0,0.0,0.0,0.0,0.0,0.0,0.0,-3.198033547956827e-05,0.0001758614356752413,0.000345280977428662,0.0,0.0,0.0,0.0,0.0,0.0,0.0,0.0,0.0,6.316893082697398e-08,-3.703622649102246e-07,-5.035243027880542e-08,0.0,0.0,0.0,0.0,0.0,0.0,0.0,0.0,0.0
0.677,12,0,677000000,base_footprint,0.0027278038752184238,0.00273190276847745,-0.7079312822157066,0.7062707663875858,0.0,0.0,0.0,0.0,0.0,0.0,0.0,0.0,0.0,-3.2013356997330155e-05,0.00017585238251295585,0.00034534411362277355,0.0,0.0,0.0,0.0,0.0,0.0,0.0,0.0,0.0,2.7399556081250264e-08,-1.1870750528774637e-07,-1.0320079250179272e-08,0.0,0.0,0.0,0.0,0.0,0.0,0.0,0.0,0.0
0.7110000000000001,13,0,711000000,base_footprint,0.0027277864836324334,0.0027319205606676517,-0.7079273829521475,0.7062746747954888,0.0,0.0,0.0,0.0,0.0,0.0,0.0,0.0,0.0,-3.2042360202496576e-05,0.00017584928776201734,0.0003453734577268106,0.0,0.0,0.0,0.0,0.0,0.0,0.0,0.0,0.0,1.7936273854259254e-08,-5.213522946861695e-08,-1.6107084240532734e-10,0.0,0.0,0.0,0.0,0.0,0.0,0.0,0.0,0.0
0.745,14,0,745000000,base_footprint,0.002727769355232723,0.002731938119569559,-0.7079234834186445,0.706278583430694,0.0,0.0,0.0,0.0,0.0,0.0,0.0,0.0,0.0,-3.206889080201243e-05,0.00017584777246354465,0.0003453938692257633,0.0,0.0,0.0,0.0,0.0,0.0,0.0,0.0,0.0,1.5430322393684728e-08,-3.450476255737695e-08,2.1386121661014964e-09,0.0,0.0,0.0,0.0,0.0,0.0,0.0,0.0,0.0
0.779,15,0,779000000,base_footprint,0.002727752453826373,0.0027319554614875278,-0.7079195836735492,0.7062824922347827,0.0,0.0,0.0,0.0,0.0,0.0,0.0,0.0,0.0,-3.209348868850571e-05,0.00017584667835630874,0.0003454119213263709,0.0,0.0,0.0,0.0,0.0,0.0,0.0,0.0,0.0,1.4764769767555481e-08,-2.981817345086276e-08,2.3964218416399416e-09,0.0,0.0,0.0,0.0,0.0,0.0,0.0,0.0,0.0
0.812,16,0,813000000,base_footprint,0.0027277357551735663,0.0027319726051994826,-0.7079156837323201,0.7062864011922757,0.0,0.0,0.0,0.0,0.0,0.0,0.0,0.0,0.0,-3.2116415137175926e-05,0.00017584569899887107,0.00034542935173950196,0.0,0.0,0.0,0.0,0.0,0.0,0.0,0.0,0.0,1.4586271043407429e-08,-2.8556158699547165e-08,2.1467895164048445e-09,0.0,0.0,0.0,0.0,0.0,0.0,0.0,0.0,0.0
0.8470000000000001,17,0,847000000,base_footprint,0.0027277192395571493,0.0027319895687934535,-0.7079117835990704,0.7062903102990506,0.0,0.0,0.0,0.0,0.0,0.0,0.0,0.0,0.0,-3.21378472319304e-05,0.00017584475284906654,0.0003454466198827401,0.0,0.0,0.0,0.0,0.0,0.0,0.0,0.0,0.0,1.4536976976640452e-08,-2.8202000593278986e-08,1.7922947356899471e-09,0.0,0.0,0.0,0.0,0.0,0.0,0.0,0.0,0.0
0.881,18,0,881000000,base_footprint,0.002727702889692555,0.002732006368956008,-0.7079078832749105,0.7062942195539911,0.0,0.0,0.0,0.0,0.0,0.0,0.0,0.0,0.0,-3.215792960798057e-05,0.00017584381832034206,0.0003454638471205195,0.0,0.0,0.0,0.0,0.0,0.0,0.0,0.0,0.0,1.4522184317680738e-08,-2.8089902981351386e-08,1.4370564927895075e-09,0.0,0.0,0.0,0.0,0.0,0.0,0.0,0.0,0.0
0.915,19,0,915000000,base_footprint,0.0027276866900591105,0.0027320230208971044,-0.7079039827601536,0.7062981289567787,0.0,0.0,0.0,0.0,0.0,0.0,0.0,0.0,0.0,-3.217678905189358e-05,0.00017584288929069935,0.00034548106537984793,0.0,0.0,0.0,0.0,0.0,0.0,0.0,0.0,0.0,1.4516811856141011e-08,-2.804351155258803e-08,1.1056951895741853e-09,0.0,0.0,0.0,0.0,0.0,0.0,0.0,0.0,0.0
0.9490000000000001,20,0,949000000,base_footprint,0.0027276706266202446,0.0027320395384333833,-0.7079000820548998,0.7063020385073082,0.0,0.0,0.0,0.0,0.0,0.0,0.0,0.0,0.0,-3.2194539647214336e-05,0.0001758419639241079,0.0003454982829778192,0.0,0.0,0.0,0.0,0.0,0.0,0.0,0.0,0.0,1.451420102182357e-08,-2.801609058507488e-08,8.029189090913154e-10,0.0,0.0,0.0,0.0,0.0,0.0,0.0,0.0,0.0
0.9830000000000001,21,0,983000000,base_footprint,0.0027276546866539663,0.002732055934102979,-0.7078961811591907,0.7063059482055334,0.0,0.0,0.0,0.0,0.0,0.0,0.0,0.0,0.0,-3.2211284571615845e-05,0.0001758410416476461,0.00034551550213875334,0.0,0.0,0.0,0.0,0.0,0.0,0.0,0.0,0.0,1.4512601776074019e-08,-2.799539694096121e-08,5.276050571882459e-10,0.0,0.0,0.0,0.0,0.0,0.0,0.0,0.0,0.0
1.017,22,1,17000000,base_footprint,0.002727638858623153,0.002732072219280552,-0.7078922800730493,0.7063098580514258,0.0,0.0,0.0,0.0,0.0,0.0,0.0,0.0,0.0,-3.2227117267861005e-05,0.00017584012197050907,0.00034553272322505586,0.0,0.0,0.0,0.0,0.0,0.0,0.0,0.0,0.0,1.4511461847856936e-08,-2.797755481600924e-08,2.7757589646657117e-10,0.0,0.0,0.0,0.0,0.0,0.0,0.0,0.0,0.0
1.051,23,1,51000000,base_footprint,0.002727623132063056,0.002732088404284672,-0.7078883787964925,0.7063137680449635,0.0,0.0,0.0,0.0,0.0,0.0,0.0,0.0,0.0,-3.224212250347589e-05,0.00017583920466959899,0.00034554994630245643,0.0,0.0,0.0,0.0,0.0,0.0,0.0,0.0,0.0,1.4510660404346041e-08,-2.7961777464025643e-08,5.0700225742556854e-11,0.0,0.0,0.0,0.0,0.0,0.0,0.0,0.0,0.0
1.085,24,1,85000000,base_footprint,0.0027276074974813204,0.002732104498475137,-0.7078844773295334,0.7063176781861278,0.0,0.0,0.0,0.0,0.0,0.0,0.0,0.0,0.0,-3.225637719427035e-05,0.00017583828946268155,0.0003455671713554965,0.0,0.0,0.0,0.0,0.0,0.0,0.0,0.0,0.0,1.451014864423578e-08,-2.7947725567127838e-08,-1.551445976070495e-10,0.0,0.0,0.0,0.0,0.0,0.0,0.0,0.0,0.0
1.119,25,1,119000000,base_footprint,0.002727591946267202,0.002732120510342469,-0.7078805756721829,0.7063215884749035,0.0,0.0,0.0,0.0,0.0,0.0,0.0,0.0,0.0,-3.226995108349817e-05,0.000175837376207257,0.0003455843982459564,0.0,0.0,0.0,0.0,0.0,0.0,0.0,0.0,0.0,1.4509859309873445e-08,-2.793499727017159e-08,-3.4200097232383943e-10,0.0,0.0,0.0,0.0,0.0,0.0,0.0,0.0,0.0
1.153,26,1,153000000,base_footprint,0.002727576470609784,0.002732136447588243,-0.7078766738244489,0.7063254989112766,0.0,0.0,0.0,0.0,0.0,0.0,0.0,0.0,0.0,-3.228290743061162e-05,0.00017583646473026644,0.00034560162693489187,0.0,0.0,0.0,0.0,0.0,0.0,0.0,0.0,0.0,1.450979977564822e-08,-2.7923636697172165e-08,-5.111507902859671e-10,0.0,0.0,0.0,0.0,0.0,0.0,0.0,0.0,0.0
1.187,27,1,187000000,base_footprint,0.0027275610634238984,0.002732152317198777,-0.7078727717863382,0.7063294094952353,0.0,0.0,0.0,0.0,0.0,0.0,0.0,0.0,0.0,-3.229530365615072e-05,0.00017583555478169947,0.0003456188573395485,0.0,0.0,0.0,0.0,0.0,0.0,0.0,0.0,0.0,1.4509936300204755e-08,-2.7913425511154353e-08,-6.649788466820735e-10,0.0,0.0,0.0,0.0,0.0,0.0,0.0,0.0,0.0
1.221,28,1,221000000,base_footprint,0.002727545718282391,0.002732168125511228,-0.7078688695578557,0.7063333202267696,0.0,0.0,0.0,0.0,0.0,0.0,0.0,0.0,0.0,-3.2307191692883884e-05,0.0001758346462115663,0.0003456360893704445,0.0,0.0,0.0,0.0,0.0,0.0,0.0,0.0,0.0,1.4510245068777081e-08,-2.7904222880350903e-08,-8.04649036312423e-10,0.0,0.0,0.0,0.0,0.0,0.0,0.0,0.0,0.0
1.255,29,1,255000000,base_footprint,0.0027275304293550105,0.0027321838782741552,-0.7078649671390043,0.7063372311058712,0.0,0.0,0.0,0.0,0.0,0.0,0.0,0.0,0.0,-3.231861897529543e-05,0.00017583373899566668,0.00034565332302498677,0.0,0.0,0.0,0.0,0.0,0.0,0.0,0.0,0.0,1.4510727871679484e-08,-2.7896102644879832e-08,-9.308723284128389e-10,0.0,0.0,0.0,0.0,0.0,0.0,0.0,0.0,0.0
1.2890000000000001,30,1,289000000,base_footprint,0.0027275151913532694,0.002732199580701919,-0.7078610645297857,0.7063411421325326,0.0,0.0,0.0,0.0,0.0,0.0,0.0,0.0,0.0,-3.232962819660149e-05,0.00017583283288661607,0.000345670558175328,0.0,0.0,0.0,0.0,0.0,0.0,0.0,0.0,0.0,1.4511340800058236e-08,-2.788870494610839e-08,-1.0457703076749348e-09,0.0,0.0,0.0,0.0,0.0,0.0,0.0,0.0,0.0
1.323,31,1,323000000,base_footprint,0.0027240869924656575,0.0027284931167509624,-0.7078590922550034,0.7063431462025322,0.0,0.0,0.0,0.0,0.0,0.0,0.0,0.0,0.0,-3.957687004125282e-05,0.0003852170607475672,-0.0003439718896177347,0.0,0.0,0.0,0.0,0.0,0.0,0.0,0.0,0.0,-0.6224168532403711,0.002677878896093333,0.0002310423846388623,0.0,0.0,0.0,0.0,0.0,0.0,0.0,0.0,0.0
1.357,32,1,357000000,base_footprint,0.0027242951204943322,0.002728681556184677,-0.7078690666849808,0.7063331486937278,0.0,0.0,0.0,0.0,0.0,0.0,0.0,0.0,0.0,-3.721712224989092e-05,0.0001976618897556608,-0.00121715783440542,0.0,0.0,0.0,0.0,0.0,0.0,0.0,0.0,0.0,-0.7858717161570852,0.003401341140750136,-0.0002090418899202836,0.0,0.0,0.0,0.0,0.0,0.0,0.0,0.0,0.0
1.391,33,1,391000000,base_footprint,0.0027248469916531155,0.0027291688050011405,-0.7078902212436081,0.7063119434882732,0.0,0.0,0.0,0.0,0.0,0.0,0.0,0.0,0.0,-3.548178228505495e-05,0.0001409843597930793,-0.0022026820091004835,0.0,0.0,0.0,0.0,0.0,0.0,0.0,0.0,0.0,-0.78559668310956,0.0036667120500169514,-5.296647592423773e-05,0.0,0.0,0.0,0.0,0.0,0.0,0.0,0.0,0.0
1.425,34,1,425000000,base_footprint,0.0027256800417541625,0.002729877344256847,-0.7079238181184616,0.7062782639856439,0.0,0.0,0.0,0.0,0.0,0.0,0.0,0.0,0.0,-3.426807169613795e-05,0.00013228686474918801,-0.0032876890278663584,0.0,0.0,0.0,0.0,0.0,0.0,0.0,0.0,0.0,-0.7753708839530471,0.003911213990958118,-5.212050784692522e-08,0.0,0.0,0.0,0.0,0.0,0.0,0.0,0.0,0.0
1.459,35,1,459000000,base_footprint,0.002726891151842413,0.002730885402045,-0.7079715794581642,0.7062303795568973,0.0,0.0,0.0,0.0,0.0,0.0,0.0,0.0,0.0,-3.2943368058584315e-05,8.151000796503732e-05,-0.004532530935112103,0.0,0.0,0.0,0.0,0.0,0.0,0.0,0.0,0.0,-0.7446774389471859,0.004250715096100088,-4.2807142352606874e-05,0.0,0.0,0.0,0.0,0.0,0.0,0.0,0.0,0.0
1.493,36,1,493000000,base_footprint,0.0027285222565618153,0.0027322050749282486,-0.7080357533720257,0.706166030171823,0.0,0.0,0.0,0.0,0.0,0.0,0.0,0.0,0.0,-3.226093497510622e-05,4.614334127436984e-05,-0.005977978692168753,0.0,0.0,0.0,0.0,0.0,0.0,0.0,0.0,0.0,-0.6796010764694667,0.004603798007429216,-2.0875819799521514e-05,0.0,0.0,0.0,0.0,0.0,0.0,0.0,0.0,0.0
1.5270000000000001,37,1,527000000,base_footprint,0.002730465746870654,0.002733674065494565,-0.7081178178479384,0.7060837256509902,0.0,0.0,0.0,0.0,0.0,0.0,0.0,0.0,0.0,-3.378560652423163e-05,7.870911371287041e-05,-0.007525323824799764,0.0,0.0,0.0,0.0,0.0,0.0,0.0,0.0,0.0,-0.5700124168275125,0.004644981196232245,6.557747644834718e-05,0.0,0.0,0.0,0.0,0.0,0.0,0.0,0.0,0.0
1.561,38,1,561000000,base_footprint,0.0027325471668766897,0.0027350876936633193,-0.7082175797609218,0.7059836486767035,0.0,0.0,0.0,0.0,0.0,0.0,0.0,0.0,0.0,-3.620224478202937e-05,0.00013409881262532004,-0.009026631554367968,0.0,0.0,0.0,0.0,0.0,0.0,0.0,0.0,0.0,-0.4161032716390102,0.0042308515953927706,9.847290255748681e-05,0.0,0.0,0.0,0.0,0.0,0.0,0.0,0.0,0.0
1.5950000000000002,39,1,595000000,base_footprint,0.002733290950640085,0.002734743299107401,-0.7083482210189592,0.7058525682314565,0.0,0.0,0.0,0.0,0.0,0.0,0.0,0.0,0.0,-4.7100417049963255e-05,0.0004489988315122595,-0.013011015243602923,0.0,0.0,0.0,0.0,0.0,0.0,0.0,0.0,0.0,-0.22762130945826256,0.008538581609058571,0.0006254430561061036,0.0,0.0,0.0,0.0,0.0,0.0,0.0,0.0,0.0
1.629,40,1,629000000,base_footprint,0.0027285298475257045,0.0027290562308874295,-0.7085448780218642,0.7056552013596595,0.0,0.0,0.0,0.0,0.0,0.0,0.0,0.0,0.0,-0.00018366408038250344,0.0011849196347296673,-0.018477047213718525,0.0,0.0,0.0,0.0,0.0,0.0,0.0,0.0,0.0,-0.01884986726395121,0.010688414958200316,0.0008431385924537699,0.0,0.0,0.0,0.0,0.0,0.0,0.0,0.0,0.0
1.663,41,1,663000000,base_footprint,0.002723721585373324,0.0027213335782561125,-0.708673856968623,0.7055257189737997,0.0,0.0,0.0,0.0,0.0,0.0,0.0,0.0,0.0,6.965466589046727e-05,-0.0008931707336406446,-0.007064233877792965,0.0,0.0,0.0,0.0,0.0,0.0,0.0,0.0,0.0,-0.05886017381698018,-0.021890025278833526,-0.00347489155239152,0.0,0.0,0.0,0.0,0.0,0.0,0.0,0.0,0.0
1.697,42,1,697000000,base_footprint,0.0027259969473453177,0.0027231950550217214,-0.7088171568186158,0.7053817344877235,0.0,0.0,0.0,0.0,0.0,0.0,0.0,0.0,0.0,-2.2032772669769646e-05,0.0002246149049372079,-0.013470950374580824,0.0,0.0,0.0,0.0,0.0,0.0,0.0,0.0,0.0,-0.23587156162390854,0.013590741991846275,0.002006922057720727,0.0,0.0,0.0,0.0,0.0,0.0,0.0,0.0,0.0
1.731,43,1,731000000,base_footprint,0.0027253594720586683,0.002721772650690572,-0.7090034570818569,0.7051944853835441,0.0,0.0,0.0,0.0,0.0,0.0,0.0,0.0,0.0,-0.0009191025370308461,4.681835813976753e-05,-0.017501541864374692,0.0,0.0,0.0,0.0,0.0,0.0,0.0,0.0,0.0,-0.39209159771765867,0.009929533406636049,-0.0010037057614121843,0.0,0.0,0.0,0.0,0.0,0.0,0.0,0.0,0.0
1.7650000000000001,44,1,765000000,base_footprint,0.0027374146874788435,0.0027313534316547984,-0.709565424559575,0.7046289481272042,0.0,0.0,0.0,0.0,0.0,0.0,0.0,0.0,0.0,-7.168354206913216e-05,0.0008984437487789862,-0.05816639930577502,0.0,0.0,0.0,0.0,0.0,0.0,0.0,0.0,0.0,-0.15875101916884118,0.011270370024467291,0.0018283278728446815,0.0,0.0,0.0,0.0,0.0,0.0,0.0,0.0,0.0
1.799,45,1,799000000,base_footprint,0.0027444029471850994,0.0027324365709616885,-0.7102637198449692,0.7039250317433218,0.0,0.0,0.0,0.0,0.0,0.0,0.0,0.0,0.0,-8.405938329428438e-05,-0.006194795374675516,-0.056999127262410715,0.0,0.0,0.0,0.0,0.0,0.0,0.0,0.0,0.0,0.0829317132296539,0.008667305874822874,-0.00805423026611438,0.0,0.0,0.0,0.0,0.0,0.0,0.0,0.0,0.0
1.8330000000000002,46,1,833000000,base_footprint,0.002739263849903487,0.0027226634987828216,-0.7104300892611184,0.703757182421233,0.0,0.0,0.0,0.0,0.0,0.0,0.0,0.0,0.0,0.0008980732223709568,0.0010306652269319945,-0.04787619227856785,0.0,0.0,0.0,0.0,0.0,0.0,0.0,0.0,0.0,0.2522075794241567,0.007972819648501495,0.008533716697078616,0.0,0.0,0.0,0.0,0.0,0.0,0.0,0.0,0.0
1.867,47,1,867000000,base_footprint,0.0027397987950179416,0.0027202217529222685,-0.7111221568125319,0.7030578724304783,0.0,0.0,0.0,0.0,0.0,0.0,0.0,0.0,0.0,-4.2768793641498516e-05,0.0006384059159522154,-0.05806136154480071,0.0,0.0,0.0,0.0,0.0,0.0,0.0,0.0,0.0,-0.010698469297331266,0.005050429611382829,-0.0007450227530076032,0.0,0.0,0.0,0.0,0.0,0.0,0.0,0.0,0.0
1.901,48,1,901000000,base_footprint,0.002743776331238249,0.002718557975490116,-0.7117393652693061,0.7024330267434918,0.0,0.0,0.0,0.0,0.0,0.0,0.0,0.0,0.0,0.0006730482931718747,5.64084140120707e-06,0.012261311666191096,0.0,0.0,0.0,0.0,0.0,0.0,0.0,0.0,0.0,0.011324229144781721,0.0045956777662317675,-0.0017493608406319579,0.0,0.0,0.0,0.0,0.0,0.0,0.0,0.0,0.0
1.935,49,1,935000000,base_footprint,0.0027437738807527374,0.002723044187625239,-0.7114133394216194,0.7027632013902145,0.0,0.0,0.0,0.0,0.0,0.0,0.0,0.0,0.0,-2.1897989419097973e-07,-0.00021091337595092294,0.02719368935132925,0.0,0.0,0.0,0.0,0.0,0.0,0.0,0.0,0.0,0.0007583089535916496,0.0011341633398994173,0.001382176007146844,0.0,0.0,0.0,0.0,0.0,0.0,0.0,0.0,0.0
1.969,50,1,969000000,base_footprint,0.002745012010545238,0.002727863227011349,-0.7110906213433638,0.7030897182499439,0.0,0.0,0.0,0.0,0.0,0.0,0.0,0.0,0.0,2.069670497762724e-05,-0.0003116489924796675,0.026864616206918268,0.0,0.0,0.0,0.0,0.0,0.0,0.0,0.0,0.0,-0.004793248095005427,-0.005235903509366212,-0.0002836553820290027,0.0,0.0,0.0,0.0,0.0,0.0,0.0,0.0,0.0
2.003,51,2,3000000,base_footprint,0.002742230379959939,0.002727812509730564,-0.7107851357624442,0.7033985570006659,0.0,0.0,0.0,0.0,0.0,0.0,0.0,0.0,0.0,0.00010169153597034417,0.0030096849318777745,0.01698306382036073,0.0,0.0,0.0,0.0,0.0,0.0,0.0,0.0,0.0,-0.11787833159600698,-0.0027162804626327114,0.0048427092291989035,0.0,0.0,0.0,0.0,0.0,0.0,0.0,0.0,0.0
2.037,52,2,37000000,base_footprint,0.0027472637769497435,0.0027361522468545597,-0.7106449142053546,0.7035401707981473,0.0,0.0,0.0,0.0,0.0,0.0,0.0,0.0,0.0,0.001074829477550702,0.0001707172711481981,0.03727480767401932,0.0,0.0,0.0,0.0,0.0,0.0,0.0,0.0,0.0,-0.22435558346765833,0.004621617141415693,-0.005060253945647741,0.0,0.0,0.0,0.0,0.0,0.0,0.0,0.0,0.0
2.071,53,2,71000000,base_footprint,0.0027469140373460187,0.0027380737536162924,-0.7102392429753798,0.7039496964649894,0.0,0.0,0.0,0.0,0.0,0.0,0.0,0.0,0.0,2.2380909109358715e-06,-9.452637326591927e-05,0.033459892286788334,0.0,0.0,0.0,0.0,0.0,0.0,0.0,0.0,0.0,0.004491200262081693,-0.0056439388116336624,0.00042987824271446427,0.0,0.0,0.0,0.0,0.0,0.0,0.0,0.0,0.0
2.105,54,2,105000000,base_footprint,0.0027431015910364836,0.0027335893462326804,-0.7098862956837583,0.7043056510374875,0.0,0.0,0.0,0.0,0.0,0.0,0.0,0.0,0.0,-0.001336495352778902,0.00021131516710059953,0.019567686785594035,0.0,0.0,0.0,0.0,0.0,0.0,0.0,0.0,0.0,0.02239714676268935,-0.01795492208246366,0.000742324075773634,0.0,0.0,0.0,0.0,0.0,0.0,0.0,0.0,0.0
2.1390000000000002,55,2,139000000,base_footprint,0.0027397940707093553,0.0027293392477933985,-0.709994483817081,0.7041966182715147,0.0,0.0,0.0,0.0,0.0,0.0,0.0,0.0,0.0,-0.0007883446909802056,0.00011428965749719254,-0.04246929743071372,0.0,0.0,0.0,0.0,0.0,0.0,0.0,0.0,0.0,0.0625264460179852,0.007948801033384363,-0.00041356885428373426,0.0,0.0,0.0,0.0,0.0,0.0,0.0,0.0,0.0
2.173,56,2,173000000,base_footprint,0.002747616729345412,0.0027322209613806657,-0.7105943169895175,0.7035912891964539,0.0,0.0,0.0,0.0,0.0,0.0,0.0,0.0,0.0,2.8768647029030268e-05,0.0005575935725176686,-0.05879951145910281,0.0,0.0,0.0,0.0,0.0,0.0,0.0,0.0,0.0,-0.07231926679550994,0.005191040999518726,-0.0003937090661977502,0.0,0.0,0.0,0.0,0.0,0.0,0.0,0.0,0.0
2.207,57,2,207000000,base_footprint,0.0027483344532636634,0.0027272665180812965,-0.7112626222738488,0.7029157067751444,0.0,0.0,0.0,0.0,0.0,0.0,0.0,0.0,0.0,0.0001268662026947674,0.0006967637037427424,-0.057730924593648376,0.0,0.0,0.0,0.0,0.0,0.0,0.0,0.0,0.0,0.0001939396080835043,0.018117998407538718,0.0003850364997010651,0.0,0.0,0.0,0.0,0.0,0.0,0.0,0.0,0.0
2.241,58,2,241000000,base_footprint,0.002747854146990124,0.0027223800468446123,-0.7119583028432933,0.7022110886029677,0.0,0.0,0.0,0.0,0.0,0.0,0.0,0.0,0.0,-7.20223672002242e-05,0.0009931789677481363,-0.058304309233789896,0.0,0.0,0.0,0.0,0.0,0.0,0.0,0.0,0.0,-0.00535522440507254,0.012425260081855505,0.0009083590949252158,0.0,0.0,0.0,0.0,0.0,0.0,0.0,0.0,0.0
2.274,59,2,275000000,base_footprint,0.0027476726491329423,0.00271604641947778,-0.7126559311098051,0.7015030985255001,0.0,0.0,0.0,0.0,0.0,0.0,0.0,0.0,0.0,-5.5356382675406937e-05,0.0008242516749491141,-0.058676625864848043,0.0,0.0,0.0,0.0,0.0,0.0,0.0,0.0,0.0,-0.005066894859365631,0.012958101547903115,-0.00018374567892451922,0.0,0.0,0.0,0.0,0.0,0.0,0.0,0.0,0.0
2.309,60,2,309000000,base_footprint,0.0027507551102819473,0.0027134954716239706,-0.7133255743996703,0.7008221566103839,0.0,0.0,0.0,0.0,0.0,0.0,0.0,0.0,0.0,-8.904455595687148e-06,0.0004364340101247338,-0.05038470672911439,0.0,0.0,0.0,0.0,0.0,0.0,0.0,0.0,0.0,-0.004187092196527277,0.011763653158154452,-0.0004551141281399513,0.0,0.0,0.0,0.0,0.0,0.0,0.0,0.0,0.0
2.343,61,2,343000000,base_footprint,0.002751972122187939,0.002710308612212349,-0.7139309692164577,0.7002054356189438,0.0,0.0,0.0,0.0,0.0,0.0,0.0,0.0,0.0,-1.3599104410929951e-05,0.0005787488699906081,-0.05110276886723942,0.0,0.0,0.0,0.0,0.0,0.0,0.0,0.0,0.0,-0.004640688544011039,0.012240903120635764,0.00026801613049316135,0.0,0.0,0.0,0.0,0.0,0.0,0.0,0.0,0.0
2.377,62,2,377000000,base_footprint,0.0027548006978119583,0.002708934025087721,-0.7145419562107933,0.6995819219819904,0.0,0.0,0.0,0.0,0.0,0.0,0.0,0.0,0.0,7.742390661445611e-06,0.0004967250006947083,-0.051564796779043805,0.0,0.0,0.0,0.0,0.0,0.0,0.0,0.0,0.0,-0.005133411923018458,0.011646529875240301,-9.215860780339603e-05,0.0,0.0,0.0,0.0,0.0,0.0,0.0,0.0,0.0
2.411,63,2,411000000,base_footprint,0.002758366222589051,0.002709126655016757,-0.7151208195080543,0.6989901755780821,0.0,0.0,0.0,0.0,0.0,0.0,0.0,0.0,0.0,1.3727496812425684e-05,0.00042007932543762885,-0.044400738841726364,0.0,0.0,0.0,0.0,0.0,0.0,0.0,0.0,0.0,-0.0028192640772188478,0.011400561772003472,-1.4826036959403535e-05,0.0,0.0,0.0,0.0,0.0,0.0,0.0,0.0,0.0
2.445,64,2,445000000,base_footprint,0.0027629662236870766,0.002711156765170996,-0.7156516546774705,0.6984466513657573,0.0,0.0,0.0,0.0,0.0,0.0,0.0,0.0,0.0,0.0001168594340508783,0.00016940167050836157,-0.04479157885309758,0.0,0.0,0.0,0.0,0.0,0.0,0.0,0.0,0.0,-0.004351904651669537,0.010050500560371725,-0.0004974842338189161,0.0,0.0,0.0,0.0,0.0,0.0,0.0,0.0,0.0
2.479,65,2,479000000,base_footprint,0.002768548961859614,0.0027118446107489307,-0.7161818071358887,0.6979030019730719,0.0,0.0,0.0,0.0,0.0,0.0,0.0,0.0,0.0,1.218344777736702e-05,0.00026153031468525306,-0.044464950373533096,0.0,0.0,0.0,0.0,0.0,0.0,0.0,0.0,0.0,-0.0018136794663470724,0.010651506629410511,0.00013005419357959552,0.0,0.0,0.0,0.0,0.0,0.0,0.0,0.0,0.0
2.513,66,2,513000000,base_footprint,0.0027740055991829025,0.0026970028520256722,-0.7167636724653581,0.6973054344421279,0.0,0.0,0.0,0.0,0.0,0.0,0.0,0.0,0.0,-0.001942150360119396,0.00026166603699470377,-0.05571477660816904,0.0,0.0,0.0,0.0,0.0,0.0,0.0,0.0,0.0,0.201253441639806,0.0014793817989704472,2.1125942657434084e-05,0.0,0.0,0.0,0.0,0.0,0.0,0.0,0.0,0.0
2.547,67,2,547000000,base_footprint,0.002779549783893024,0.002711459182216177,-0.7171996652025514,0.696856916680498,0.0,0.0,0.0,0.0,0.0,0.0,0.0,0.0,0.0,0.0005395786791017915,0.0014120068484424963,-0.040216535473767995,0.0,0.0,0.0,0.0,0.0,0.0,0.0,0.0,0.0,0.1659632590580587,-0.000817537764482526,0.0018335368139978797,0.0,0.0,0.0,0.0,0.0,0.0,0.0,0.0,0.0
2.581,68,2,581000000,base_footprint,0.002772758207858408,0.0027050652862965043,-0.7176281472255295,0.6964157068471183,0.0,0.0,0.0,0.0,0.0,0.0,0.0,0.0,0.0,0.0004105258494018336,0.0010537581870037037,-0.03767950206329264,0.0,0.0,0.0,0.0,0.0,0.0,0.0,0.0,0.0,0.015602695144740057,-0.0035961572581372815,-0.00010635932188560441,0.0,0.0,0.0,0.0,0.0,0.0,0.0,0.0,0.0
2.615,69,2,615000000,base_footprint,0.0027751121447908865,0.002704863521878909,-0.7182762776015901,0.6957472037318694,0.0,0.0,0.0,0.0,0.0,0.0,0.0,0.0,0.0,0.00024710945355136917,0.0005167537113222257,-0.07011807780621186,0.0,0.0,0.0,0.0,0.0,0.0,0.0,0.0,0.0,0.05142020352074399,0.01456355254669853,-0.00042307744234538715,0.0,0.0,0.0,0.0,0.0,0.0,0.0,0.0,0.0
2.649,70,2,649000000,base_footprint,0.002773619862749381,0.002699811337444145,-0.7190149288215106,0.6949838488651354,0.0,0.0,0.0,0.0,0.0,0.0,0.0,0.0,0.0,-0.00046698064395981313,0.000415814625123643,-0.051984270327539495,0.0,0.0,0.0,0.0,0.0,0.0,0.0,0.0,0.0,-0.024062697873351822,0.016546207691437484,-0.0010083425892247646,0.0,0.0,0.0,0.0,0.0,0.0,0.0,0.0,0.0
2.683,71,2,683000000,base_footprint,0.0027781404285301065,0.0026963667631259747,-0.7195389575030597,0.6944412863428039,0.0,0.0,0.0,0.0,0.0,0.0,0.0,0.0,0.0,-1.276645010550592e-05,0.0003364559336361386,-0.044053472517951525,0.0,0.0,0.0,0.0,0.0,0.0,0.0,0.0,0.0,-0.026294577451528467,0.010061393797386896,0.0003731361866694794,0.0,0.0,0.0,0.0,0.0,0.0,0.0,0.0,0.0
2.716,72,2,717000000,base_footprint,0.002769724135290857,0.0026887536410846887,-0.7200528000568689,0.693908541785108,0.0,0.0,0.0,0.0,0.0,0.0,0.0,0.0,0.0,-0.000191785645684179,0.0003956372501086745,-0.0173351093786056,0.0,0.0,0.0,0.0,0.0,0.0,0.0,0.0,0.0,-0.19389341409184724,0.023310056298462903,0.0008402823261888095,0.0,0.0,0.0,0.0,0.0,0.0,0.0,0.0,0.0
2.751,73,2,751000000,base_footprint,0.0027763078144455605,0.0026892233887898256,-0.7201864955736595,0.6937697541589832,0.0,0.0,0.0,0.0,0.0,0.0,0.0,0.0,0.0,5.556925321697923e-05,0.0006428030874646104,-0.02407133162434886,0.0,0.0,0.0,0.0,0.0,0.0,0.0,0.0,0.0,-0.15001018181710696,0.012753662253354836,0.00012628464753776912,0.0,0.0,0.0,0.0,0.0,0.0,0.0,0.0,0.0
2.791,74,2,785000000,base_footprint,0.0027760358885995286,0.0026863550663089424,-0.7204686006188491,0.6934768003643096,0.0,0.0,0.0,0.0,0.0,0.0,0.0,0.0,0.0,-3.472441447253244e-05,0.0005042035284847131,-0.02399580841545093,0.0,0.0,0.0,0.0,0.0,0.0,0.0,0.0,0.0,-0.00493051130550244,0.005995715372401418,1.9273920164736246e-05,0.0,0.0,0.0,0.0,0.0,0.0,0.0,0.0,0.0
2.819,75,2,819000000,base_footprint,0.0027768893399418237,0.00268450965341369,-0.7208217195255952,0.6931097539017027,0.0,0.0,0.0,0.0,0.0,0.0,0.0,0.0,0.0,-1.0187643616908808e-05,0.00045681764491749786,-0.03321329260961722,0.0,0.0,0.0,0.0,0.0,0.0,0.0,0.0,0.0,-0.007510137885530434,0.007161819556716385,-0.0001742492779783573,0.0,0.0,0.0,0.0,0.0,0.0,0.0,0.0,0.0
2.853,76,2,853000000,base_footprint,0.0027788338174763567,0.002683719197756998,-0.7212146997085307,0.6927008247852867,0.0,0.0,0.0,0.0,0.0,0.0,0.0,0.0,0.0,4.28083478734871e-06,0.00037001846053141504,-0.03351135732128119,0.0,0.0,0.0,0.0,0.0,0.0,0.0,0.0,0.0,-0.004986133668718462,0.007854461625001656,-0.00012165999673943061,0.0,0.0,0.0,0.0,0.0,0.0,0.0,0.0,0.0
2.887,77,2,887000000,base_footprint,0.0027817235017811733,0.0026842532284005556,-0.7216111132435085,0.6922878433443924,0.0,0.0,0.0,0.0,0.0,0.0,0.0,0.0,0.0,2.496056439934504e-05,0.0002733696364665144,-0.03381636199176625,0.0,0.0,0.0,0.0,0.0,0.0,0.0,0.0,0.0,-0.004804328894796417,0.007992773908223418,-0.0001584511119059347,0.0,0.0,0.0,0.0,0.0,0.0,0.0,0.0,0.0
2.9210000000000003,78,2,921000000,base_footprint,0.0027855587728437587,0.002686701891278901,-0.7219539804659211,0.6919302510981024,0.0,0.0,0.0,0.0,0.0,0.0,0.0,0.0,0.0,0.00011662116721963814,6.162790303977425e-05,-0.027247339079147094,0.0,0.0,0.0,0.0,0.0,0.0,0.0,0.0,0.0,-0.002394316548118694,0.0069452175926604225,-0.000379564834098747,0.0,0.0,0.0,0.0,0.0,0.0,0.0,0.0,0.0
2.955,79,2,955000000,base_footprint,0.0027901723786076405,0.00268874947351016,-0.7222736669437329,0.6915965121398605,0.0,0.0,0.0,0.0,0.0,0.0,0.0,0.0,0.0,-3.1597119903562003e-06,0.00015780344703637895,-0.026943756251292986,0.0,0.0,0.0,0.0,0.0,0.0,0.0,0.0,0.0,-0.002392606083320708,0.007030124698922877,0.00010831430736563898,0.0,0.0,0.0,0.0,0.0,0.0,0.0,0.0,0.0
2.989,80,2,989000000,base_footprint,0.0027935238766811313,0.002689053026155486,-0.7225845397714526,0.6912716890640401,0.0,0.0,0.0,0.0,0.0,0.0,0.0,0.0,0.0,-1.852897232657324e-05,0.00017812427807874383,-0.02595482671734963,0.0,0.0,0.0,0.0,0.0,0.0,0.0,0.0,0.0,0.00365401319197038,0.005740912337547567,9.042699074658357e-05,0.0,0.0,0.0,0.0,0.0,0.0,0.0,0.0,0.0
3.023,81,3,23000000,base_footprint,0.002795711074629647,0.002688332772124555,-0.7228235636686945,0.6910217454406063,0.0,0.0,0.0,0.0,0.0,0.0,0.0,0.0,0.0,-0.0002432935698808704,0.0006657999845003914,-0.018263669784218874,0.0,0.0,0.0,0.0,0.0,0.0,0.0,0.0,0.0,0.012063131271108064,0.0038897963651533998,0.0010869312831444608,0.0,0.0,0.0,0.0,0.0,0.0,0.0,0.0,0.0
3.057,82,3,57000000,base_footprint,0.002796397112399587,0.0026815824722470805,-0.7230687015766089,0.6907652583033916,0.0,0.0,0.0,0.0,0.0,0.0,0.0,0.0,0.0,0.00018949705624527063,0.0006261575593433672,-0.02238297475003471,0.0,0.0,0.0,0.0,0.0,0.0,0.0,0.0,0.0,0.015098179530556699,0.0022183952668575835,-7.782247169790533e-05,0.0,0.0,0.0,0.0,0.0,0.0,0.0,0.0,0.0
3.091,83,3,91000000,base_footprint,0.002793892154364034,0.0026843006939639242,-0.7234251053586508,0.6903919941839124,0.0,0.0,0.0,0.0,0.0,0.0,0.0,0.0,0.0,-0.0005675406395349387,-0.00013979515866321154,-0.04609914843655665,0.0,0.0,0.0,0.0,0.0,0.0,0.0,0.0,0.0,0.06551169590816253,6.73895293911847e-05,-0.0019371420013648121,0.0,0.0,0.0,0.0,0.0,0.0,0.0,0.0,0.0
3.125,84,3,125000000,base_footprint,0.002789044740878805,0.002681542220822053,-0.723857154679078,0.6899390191753624,0.0,0.0,0.0,0.0,0.0,0.0,0.0,0.0,0.0,-0.0004921543629874621,0.0007247395031111259,-0.026985797154499003,0.0,0.0,0.0,0.0,0.0,0.0,0.0,0.0,0.0,-0.013946540542805884,0.00845747071352225,0.0018685772373210445,0.0,0.0,0.0,0.0,0.0,0.0,0.0,0.0,0.0
3.159,85,3,159000000,base_footprint,0.0027948994385463975,0.0026774944125194174,-0.724028714413457,0.6897589725879585,0.0,0.0,0.0,0.0,0.0,0.0,0.0,0.0,0.0,2.7565560729700422e-05,0.0005433824769428741,-0.011696126560782994,0.0,0.0,0.0,0.0,0.0,0.0,0.0,0.0,0.0,-0.03557248284698603,0.006862839223857149,0.00019143575293838913,0.0,0.0,0.0,0.0,0.0,0.0,0.0,0.0,0.0
3.193,86,3,193000000,base_footprint,0.0027932584414467622,0.002673841371156777,-0.7241654341412697,0.6896154524621585,0.0,0.0,0.0,0.0,0.0,0.0,0.0,0.0,0.0,-9.86466302616072e-06,0.0003475526068866836,-0.01187823857895132,0.0,0.0,0.0,0.0,0.0,0.0,0.0,0.0,0.0,-0.005444698243777562,0.003721988571822161,-0.000296099068886837,0.0,0.0,0.0,0.0,0.0,0.0,0.0,0.0,0.0
3.227,87,3,227000000,base_footprint,0.0027923363239809682,0.0026722098019512086,-0.7243053165520639,0.6894685421156233,0.0,0.0,0.0,0.0,0.0,0.0,0.0,0.0,0.0,0.00014212325701560028,0.0003563173544921764,-0.011961579395253214,0.0,0.0,0.0,0.0,0.0,0.0,0.0,0.0,0.0,-0.005418106751069837,0.0028802380335958334,0.00011991270819154825,0.0,0.0,0.0,0.0,0.0,0.0,0.0,0.0,0.0
3.261,88,3,261000000,base_footprint,0.002790747389805257,0.00267120272605805,-0.7243285280828318,0.6894441672901158,0.0,0.0,0.0,0.0,0.0,0.0,0.0,0.0,0.0,8.054607294261268e-05,0.00021581767453846196,-0.0011258563645675285,0.0,0.0,0.0,0.0,0.0,0.0,0.0,0.0,0.0,-0.0023303567552984176,0.0009109858533777239,-4.5944533567854083e-05,0.0,0.0,0.0,0.0,0.0,0.0,0.0,0.0,0.0
3.295,89,3,295000000,base_footprint,0.00279023561696368,0.002670708679359281,-0.724342809583239,0.689429166851397,0.0,0.0,0.0,0.0,0.0,0.0,0.0,0.0,0.0,-3.192492780249777e-05,0.00022847513738175442,-0.0013314199110629056,0.0,0.0,0.0,0.0,0.0,0.0,0.0,0.0,0.0,-0.0055321978087707335,0.0008796053186298615,0.00010189497714642177,0.0,0.0,0.0,0.0,0.0,0.0,0.0,0.0,0.0
3.329,90,3,329000000,base_footprint,0.0027896365487163465,0.0026723225985381864,-0.7240971994094124,0.6896871192267557,0.0,0.0,0.0,0.0,0.0,0.0,0.0,0.0,0.0,-3.8863213889156045e-05,-0.00018500571059373505,0.03481701518859409,0.0,0.0,0.0,0.0,0.0,0.0,0.0,0.0,0.0,0.3556681535306716,-0.03863558857696986,-0.0003637697163047034,0.0,0.0,0.0,0.0,0.0,0.0,0.0,0.0,0.0
3.363,91,3,363000000,base_footprint,0.002791373022757769,0.00267445559675812,-0.7241471411347787,0.6896346666969662,0.0,0.0,0.0,0.0,0.0,0.0,0.0,0.0,0.0,2.1510356572869507e-05,8.1336452505308e-05,-0.005544193695780084,0.0,0.0,0.0,0.0,0.0,0.0,0.0,0.0,0.0,-0.0283932095438339,0.003220327021367153,-0.00019881075537028466,0.0,0.0,0.0,0.0,0.0,0.0,0.0,0.0,0.0
3.3970000000000002,92,3,397000000,base_footprint,0.002794078168335214,0.0026776450968155592,-0.7242127679032382,0.6895657257650321,0.0,0.0,0.0,0.0,0.0,0.0,0.0,0.0,0.0,0.00011152114376977998,-7.44484977857639e-05,-0.005623333490803689,0.0,0.0,0.0,0.0,0.0,0.0,0.0,0.0,0.0,-0.004292440599470209,0.0017650399361294968,-0.0004115788204046574,0.0,0.0,0.0,0.0,0.0,0.0,0.0,0.0,0.0
3.431,93,3,431000000,base_footprint,0.0027971516914380495,0.0026810907573728364,-0.7242804194144599,0.6894946422906998,0.0,0.0,0.0,0.0,0.0,0.0,0.0,0.0,0.0,0.00043049900443729963,-5.1800482339990796e-05,-0.010268757849706952,0.0,0.0,0.0,0.0,0.0,0.0,0.0,0.0,0.0,-0.0020249040928120676,0.0027515071789566796,-0.0002034190517370252,0.0,0.0,0.0,0.0,0.0,0.0,0.0,0.0,0.0
3.465,94,3,465000000,base_footprint,0.0028003257059495417,0.002681394862068029,-0.7244555604664917,0.6893106043045586,0.0,0.0,0.0,0.0,0.0,0.0,0.0,0.0,0.0,-3.0202547352217695e-05,9.604625233460164e-05,-0.014263961630799866,0.0,0.0,0.0,0.0,0.0,0.0,0.0,0.0,0.0,-0.0006650957956136647,0.002654996140502098,0.0003247446691775009,0.0,0.0,0.0,0.0,0.0,0.0,0.0,0.0,0.0
3.499,95,3,499000000,base_footprint,0.002802917352676071,0.0026829953950599375,-0.7246183068478492,0.6891395029825096,0.0,0.0,0.0,0.0,0.0,0.0,0.0,0.0,0.0,0.00032720832190911075,-0.001533938585804221,-0.012540794008212905,0.0,0.0,0.0,0.0,0.0,0.0,0.0,0.0,0.0,-0.0069436085012984615,0.0015652491306686156,8.377813763784673e-05,0.0,0.0,0.0,0.0,0.0,0.0,0.0,0.0,0.0
3.533,96,3,533000000,base_footprint,0.0027972695160064856,0.0026666606036929706,-0.7246611596303596,0.6890945275705374,0.0,0.0,0.0,0.0,0.0,0.0,0.0,0.0,0.0,0.00015623126017380291,6.127127659260483e-05,0.005502117268292546,0.0,0.0,0.0,0.0,0.0,0.0,0.0,0.0,0.0,-0.08382452759892225,0.00871840906866974,0.0005347594848156252,0.0,0.0,0.0,0.0,0.0,0.0,0.0,0.0,0.0
3.567,97,3,567000000,base_footprint,0.0027944799122196565,0.0026691581764484865,-0.724800589483966,0.688947873180798,0.0,0.0,0.0,0.0,0.0,0.0,0.0,0.0,0.0,0.0004860117453824351,-0.0004573931753228137,-0.04629237744456846,0.0,0.0,0.0,0.0,0.0,0.0,0.0,0.0,0.0,-0.010824943500820684,-0.001445698904852048,-0.0005072121844995796,0.0,0.0,0.0,0.0,0.0,0.0,0.0,0.0,0.0
3.601,98,3,601000000,base_footprint,0.0027894998762474617,0.002671785485207782,-0.7256142843461992,0.6880908302001377,0.0,0.0,0.0,0.0,0.0,0.0,0.0,0.0,0.0,0.00020022780216345738,0.001880766707038787,-0.06541772444724311,0.0,0.0,0.0,0.0,0.0,0.0,0.0,0.0,0.0,-0.06974113989824252,0.028898977543841794,0.002134150205082638,0.0,0.0,0.0,0.0,0.0,0.0,0.0,0.0,0.0
3.635,99,3,635000000,base_footprint,0.002795214401776855,0.00266671939543378,-0.7261292038165706,0.6875474200001243,0.0,0.0,0.0,0.0,0.0,0.0,0.0,0.0,0.0,-0.001196109120431564,-0.0009467201982336767,-0.018361737789370402,0.0,0.0,0.0,0.0,0.0,0.0,0.0,0.0,0.0,-0.11019769570311477,0.024499210961401188,-0.0039018382153233277,0.0,0.0,0.0,0.0,0.0,0.0,0.0,0.0,0.0
3.669,100,3,669000000,base_footprint,0.002800543939924314,0.0026649869994552554,-0.7262572863453992,0.6874121098934395,0.0,0.0,0.0,0.0,0.0,0.0,0.0,0.0,0.0,6.244819803828615e-05,0.00042725685872429685,-0.010970001966614334,0.0,0.0,0.0,0.0,0.0,0.0,0.0,0.0,0.0,-0.02045516376991395,0.001695733128425558,0.0027604616543088966,0.0,0.0,0.0,0.0,0.0,0.0,0.0,0.0,0.0
3.7030000000000003,101,3,703000000,base_footprint,0.002799776432722187,0.0026633375844118783,-0.7263852630116765,0.6872768856613002,0.0,0.0,0.0,0.0,0.0,0.0,0.0,0.0,0.0,6.118342426599294e-05,0.00020306935527763723,-0.01094646954069017,0.0,0.0,0.0,0.0,0.0,0.0,0.0,0.0,0.0,-0.004780061373017487,0.0026505532941852486,-0.00029799962066289225,0.0,0.0,0.0,0.0,0.0,0.0,0.0,0.0,0.0
3.737,102,3,737000000,base_footprint,0.0027990773618940886,0.002662344438615581,-0.7264955975370724,0.6871602606723302,0.0,0.0,0.0,0.0,0.0,0.0,0.0,0.0,0.0,0.00014924332676012988,0.0001548574322765231,-0.003404225090414477,0.0,0.0,0.0,0.0,0.0,0.0,0.0,0.0,0.0,-0.003269132177025249,0.002820652275782465,0.00022544508072182726,0.0,0.0,0.0,0.0,0.0,0.0,0.0,0.0,0.0
3.771,103,3,771000000,base_footprint,0.002798345641899095,0.0026620749053448667,-0.7265391895433364,0.6871141744110499,0.0,0.0,0.0,0.0,0.0,0.0,0.0,0.0,0.0,9.918323320238598e-05,0.0001686122833769191,-0.0038536435814866274,0.0,0.0,0.0,0.0,0.0,0.0,0.0,0.0,0.0,-0.005334565205036705,0.0012126471192491738,-0.00012773211112476627,0.0,0.0,0.0,0.0,0.0,0.0,0.0,0.0,0.0
3.805,104,3,805000000,base_footprint,0.002798949377964244,0.0026627695726955253,-0.7265779809193279,0.6870731498055903,0.0,0.0,0.0,0.0,0.0,0.0,0.0,0.0,0.0,8.8413837156227e-05,9.736121432388506e-05,-0.001312764909942663,0.0,0.0,0.0,0.0,0.0,0.0,0.0,0.0,0.0,-0.004667918517841057,0.00151243061699525,-0.00011094127295274516,0.0,0.0,0.0,0.0,0.0,0.0,0.0,0.0,0.0
3.839,105,3,839000000,base_footprint,0.002800341000814354,0.0026644605800623853,-0.7265955270702975,0.687054582097764,0.0,0.0,0.0,0.0,0.0,0.0,0.0,0.0,0.0,9.990009568382706e-05,-4.46757102959142e-06,-0.001602671935841004,0.0,0.0,0.0,0.0,0.0,0.0,0.0,0.0,0.0,-0.005310765166561142,0.0009831219946740471,-0.00020671577300310627,0.0,0.0,0.0,0.0,0.0,0.0,0.0,0.0,0.0
3.873,106,3,873000000,base_footprint,0.0028028972741908783,0.002667465212562364,-0.7266149060620463,0.6870340651559091,0.0,0.0,0.0,0.0,0.0,0.0,0.0,0.0,0.0,0.00010091786477738383,-0.000114308452824234,-0.0016814702389010812,0.0,0.0,0.0,0.0,0.0,0.0,0.0,0.0,0.0,-0.004742059351287102,0.0011189342038947314,-0.00023747708500947487,0.0,0.0,0.0,0.0,0.0,0.0,0.0,0.0,0.0
3.907,107,3,907000000,base_footprint,0.0028060446314918577,0.0026719406763470346,-0.726611293326135,0.6870378557674021,0.0,0.0,0.0,0.0,0.0,0.0,0.0,0.0,0.0,-5.263458556049396e-05,-0.00018362532974348597,0.00558723629840106,0.0,0.0,0.0,0.0,0.0,0.0,0.0,0.0,0.0,-0.0008346206473573114,0.0011274079295082872,-0.00010515147573598836,0.0,0.0,0.0,0.0,0.0,0.0,0.0,0.0,0.0
3.941,108,3,941000000,base_footprint,0.0028080649733228115,0.0026733470023888742,-0.726545523326728,0.6871073937317234,0.0,0.0,0.0,0.0,0.0,0.0,0.0,0.0,0.0,-4.365037023606766e-05,-6.805162189082106e-05,0.006178236861591666,0.0,0.0,0.0,0.0,0.0,0.0,0.0,0.0,0.0,0.0015723359237138062,-0.0012000447563820635,0.00018492883677303124,0.0,0.0,0.0,0.0,0.0,0.0,0.0,0.0,0.0
3.975,109,3,975000000,base_footprint,0.0028091456608049514,0.0026730056043278616,-0.7264705751140703,0.6871866320259203,0.0,0.0,0.0,0.0,0.0,0.0,0.0,0.0,0.0,-0.00029280473663858533,0.0003877074936500495,0.006087274855516007,0.0,0.0,0.0,0.0,0.0,0.0,0.0,0.0,0.0,0.005779525891768885,-0.0031476251444632316,0.0008461968418772592,0.0,0.0,0.0,0.0,0.0,0.0,0.0,0.0,0.0
4.009,110,4,9000000,base_footprint,0.0028054460199043916,0.002665032377871742,-0.7264802324568351,0.687176468546848,0.0,0.0,0.0,0.0,0.0,0.0,0.0,0.0,0.0,-0.0014295524700147929,0.002192536695226205,-0.015924107172183673,0.0,0.0,0.0,0.0,0.0,0.0,0.0,0.0,0.0,0.04700577203762313,-0.008404060603791383,0.002266746871998192,0.0,0.0,0.0,0.0,0.0,0.0,0.0,0.0,0.0
4.043,111,4,43000000,base_footprint,0.0028135203256654862,0.0026667937587087852,-0.7266337750219201,0.6870140677684988,0.0,0.0,0.0,0.0,0.0,0.0,0.0,0.0,0.0,0.0008368359846958452,0.0005578670351315091,0.001951827427441296,0.0,0.0,0.0,0.0,0.0,0.0,0.0,0.0,0.0,0.16896974962685096,-0.012410517062482446,-0.0017598630196179951,0.0,0.0,0.0,0.0,0.0,0.0,0.0,0.0,0.0
4.077,112,4,77000000,base_footprint,0.0028062203556546684,0.002669922290539179,-0.7265233266161814,0.687130884566278,0.0,0.0,0.0,0.0,0.0,0.0,0.0,0.0,0.0,-4.159849171289306e-05,-0.0005653351539446388,0.005724560306418035,0.0,0.0,0.0,0.0,0.0,0.0,0.0,0.0,0.0,0.17344165326018712,-0.018899390460479018,-0.002394074077611277,0.0,0.0,0.0,0.0,0.0,0.0,0.0,0.0,0.0
4.111,113,4,111000000,base_footprint,0.002806496523488238,0.002669007970763025,-0.7263953289947932,0.6872661973269615,0.0,0.0,0.0,0.0,0.0,0.0,0.0,0.0,0.0,-0.0001732063353079373,-5.797068962704422e-05,0.007238601802766616,0.0,0.0,0.0,0.0,0.0,0.0,0.0,0.0,0.0,-0.02054884110741118,-0.0043155469639306904,0.0010175151458916673,0.0,0.0,0.0,0.0,0.0,0.0,0.0,0.0,0.0
4.145,114,4,145000000,base_footprint,0.00280398884788333,0.0026664842384033624,-0.7263090351208825,0.687357412857474,0.0,0.0,0.0,0.0,0.0,0.0,0.0,0.0,0.0,-0.00014356899261653514,0.0003102302313285032,0.007120692757164648,0.0,0.0,0.0,0.0,0.0,0.0,0.0,0.0,0.0,-0.0034055430776392765,-0.0008312877000965823,0.0007371559575062618,0.0,0.0,0.0,0.0,0.0,0.0,0.0,0.0,0.0
4.179,115,4,179000000,base_footprint,0.002801486558771451,0.0026638881681152675,-0.7262282839092316,0.6874427503604511,0.0,0.0,0.0,0.0,0.0,0.0,0.0,0.0,0.0,-9.808865001172183e-06,0.00032492331998910506,0.006767739929418335,0.0,0.0,0.0,0.0,0.0,0.0,0.0,0.0,0.0,-0.00493653574210863,-0.0005358284787078619,0.00012766218465842338,0.0,0.0,0.0,0.0,0.0,0.0,0.0,0.0,0.0
4.213,116,4,213000000,base_footprint,0.0027945851294606237,0.0026613034630113613,-0.7260874558395214,0.6875915315289473,0.0,0.0,0.0,0.0,0.0,0.0,0.0,0.0,0.0,-0.00010058179581928046,0.0010183613638346124,0.049834253559487576,0.0,0.0,0.0,0.0,0.0,0.0,0.0,0.0,0.0,-0.22133542651402482,0.022119955363702273,0.001169424372016522,0.0,0.0,0.0,0.0,0.0,0.0,0.0,0.0,0.0
4.248,117,4,247000000,base_footprint,0.002793773411013079,0.002666111772678957,-0.7250357476483542,0.6887004075141351,0.0,0.0,0.0,0.0,0.0,0.0,0.0,0.0,0.0,-3.1429163259099606e-05,-0.00044291751604542344,0.09614806650013018,0.0,0.0,0.0,0.0,0.0,0.0,0.0,0.0,0.0,-0.10701566559986825,-0.008019350243018919,-0.0014157496843607482,0.0,0.0,0.0,0.0,0.0,0.0,0.0,0.0,0.0
4.281,118,4,281000000,base_footprint,0.002789546192306741,0.0026712219702992846,-0.7239108630842721,0.6898827040256993,0.0,0.0,0.0,0.0,0.0,0.0,0.0,0.0,0.0,-3.722280477969128e-05,-0.0006114497579210595,0.095858752694443,0.0,0.0,0.0,0.0,0.0,0.0,0.0,0.0,0.0,-0.00752766205097775,-0.020159147183968794,-0.0004154978503618454,0.0,0.0,0.0,0.0,0.0,0.0,0.0,0.0,0.0
4.315,119,4,315000000,base_footprint,0.002786619432600062,0.0026773887728253165,-0.7228436907784609,0.6910007706531663,0.0,0.0,0.0,0.0,0.0,0.0,0.0,0.0,0.0,-1.0202240639909808e-05,-0.0006209934749393294,0.08655896754630926,0.0,0.0,0.0,0.0,0.0,0.0,0.0,0.0,0.0,-0.009849501676095159,-0.019213417147268,-0.00036296859770293643,0.0,0.0,0.0,0.0,0.0,0.0,0.0,0.0,0.0
4.349,120,4,349000000,base_footprint,0.0027849224373292926,0.002684772435013813,-0.7218271612110636,0.6920625589800157,0.0,0.0,0.0,0.0,0.0,0.0,0.0,0.0,0.0,-4.12281169220798e-06,-0.0007534937782613558,0.08636720020638099,0.0,0.0,0.0,0.0,0.0,0.0,0.0,0.0,0.0,-0.006607804260236373,-0.018196608649278894,-0.00040489623718926993,0.0,0.0,0.0,0.0,0.0,0.0,0.0,0.0,0.0
4.383,121,4,383000000,base_footprint,0.0027845623409435837,0.002692595024797919,-0.7208110071314918,0.6931208322815628,0.0,0.0,0.0,0.0,0.0,0.0,0.0,0.0,0.0,-2.0928206082242986e-05,-0.0007870842937882125,0.08636593846159973,0.0,0.0,0.0,0.0,0.0,0.0,0.0,0.0,0.0,-0.005390283910057278,-0.017991417366301134,-0.0004145843538476228,0.0,0.0,0.0,0.0,0.0,0.0,0.0,0.0,0.0
4.417,122,4,417000000,base_footprint,0.002783171662407941,0.0026988616428217003,-0.7198640121904948,0.6941042962367642,0.0,0.0,0.0,0.0,0.0,0.0,0.0,0.0,0.0,9.26431053940695e-05,-0.0007774122222276795,0.07546868568871887,0.0,0.0,0.0,0.0,0.0,0.0,0.0,0.0,0.0,-0.007109464898117255,-0.015872362524636918,-0.0002893231667898384,0.0,0.0,0.0,0.0,0.0,0.0,0.0,0.0,0.0
4.451,123,4,451000000,base_footprint,0.002780420460731435,0.002704711427432776,-0.7189772986875981,0.6950227318369093,0.0,0.0,0.0,0.0,0.0,0.0,0.0,0.0,0.0,8.855514695184855e-05,-0.0005275007828383231,0.07531351427507355,0.0,0.0,0.0,0.0,0.0,0.0,0.0,0.0,0.0,0.0019949632315641027,-0.014710528777076804,0.00032879537924240636,0.0,0.0,0.0,0.0,0.0,0.0,0.0,0.0,0.0
4.485,124,4,485000000,base_footprint,0.0027752421944235287,0.0027036899796887906,-0.7181036926378209,0.6959253370234353,0.0,0.0,0.0,0.0,0.0,0.0,0.0,0.0,0.0,-0.00027037999291830547,-0.00023196542744171567,0.06960350981964687,0.0,0.0,0.0,0.0,0.0,0.0,0.0,0.0,0.0,0.004098497400405687,-0.02273474367508947,0.0004330685389389904,0.0,0.0,0.0,0.0,0.0,0.0,0.0,0.0,0.0
4.519,125,4,519000000,base_footprint,0.0027714908226391544,0.002703828818718482,-0.7174148463433054,0.6966354472710607,0.0,0.0,0.0,0.0,0.0,0.0,0.0,0.0,0.0,-0.0006535747853903017,-0.0008714993848121716,0.05075819768983441,0.0,0.0,0.0,0.0,0.0,0.0,0.0,0.0,0.0,0.07738369289648858,-0.016950045043609956,-0.001862981929888507,0.0,0.0,0.0,0.0,0.0,0.0,0.0,0.0,0.0
4.553,126,4,553000000,base_footprint,0.0027681987772918653,0.0027094853567082534,-0.716795154065481,0.6972730475738143,0.0,0.0,0.0,0.0,0.0,0.0,0.0,0.0,0.0,-0.0004936624283682232,-0.000575580896158165,0.059854871456959155,0.0,0.0,0.0,0.0,0.0,0.0,0.0,0.0,0.0,-0.0341161682595263,-0.009937917348479094,0.0007643563372535083,0.0,0.0,0.0,0.0,0.0,0.0,0.0,0.0,0.0
4.587,127,4,587000000,base_footprint,0.002766527037525111,0.0027106562612350684,-0.7159981468479291,0.698091435544883,0.0,0.0,0.0,0.0,0.0,0.0,0.0,0.0,0.0,4.2129675014554224e-05,-0.00032161139898972556,0.0673529510889325,0.0,0.0,0.0,0.0,0.0,0.0,0.0,0.0,0.0,-0.014767646799133735,-0.01248301500385757,0.0006013671981887074,0.0,0.0,0.0,0.0,0.0,0.0,0.0,0.0,0.0
4.621,128,4,621000000,base_footprint,0.002760688158212166,0.002712323311428285,-0.7151143142482409,0.6989968093349322,0.0,0.0,0.0,0.0,0.0,0.0,0.0,0.0,0.0,-0.0001597154140735493,-0.00014727161964920172,0.07745517137354688,0.0,0.0,0.0,0.0,0.0,0.0,0.0,0.0,0.0,-0.0006097473035554801,-0.016121046936769565,0.000556460536274114,0.0,0.0,0.0,0.0,0.0,0.0,0.0,0.0,0.0
4.655,129,4,655000000,base_footprint,0.0027540885879582928,0.0027120392569439855,-0.7141956818738345,0.6999354169006503,0.0,0.0,0.0,0.0,0.0,0.0,0.0,0.0,0.0,-6.795196660255008e-05,-0.00021169473458287018,0.0771483113403897,0.0,0.0,0.0,0.0,0.0,0.0,0.0,0.0,0.0,-0.005853558793690926,-0.016557036621129277,-0.00024110795291033715,0.0,0.0,0.0,0.0,0.0,0.0,0.0,0.0,0.0
4.689,130,4,689000000,base_footprint,0.0027489932033086693,0.002713485859592811,-0.7132791447926072,0.7008694183903197,0.0,0.0,0.0,0.0,0.0,0.0,0.0,0.0,0.0,-6.14005016199126e-05,-0.000311067820216003,0.07684810073364773,0.0,0.0,0.0,0.0,0.0,0.0,0.0,0.0,0.0,-0.006223756263982498,-0.016650383947276488,-0.0003175202874217303,0.0,0.0,0.0,0.0,0.0,0.0,0.0,0.0,0.0
4.723,131,4,723000000,base_footprint,0.0027483644060908065,0.0027136465105543173,-0.7131410567829856,0.7010099255689279,0.0,0.0,0.0,0.0,0.0,0.0,0.0,0.0,0.0,-5.393034772060011e-05,0.0002355008317012784,-0.013224106921877466,0.0,0.0,0.0,0.0,0.0,0.0,0.0,0.0,0.0,-0.02947070874244751,-0.0021022675397267144,-0.00023028561717395972,0.0,0.0,0.0,0.0,0.0,0.0,0.0,0.0,0.0
4.757,132,4,757000000,base_footprint,0.002749423882755406,0.0027133962751145838,-0.7133009553342446,0.7008472196336525,0.0,0.0,0.0,0.0,0.0,0.0,0.0,0.0,0.0,-2.6989886548518173e-05,0.00023007095546969652,-0.013603256875310046,0.0,0.0,0.0,0.0,0.0,0.0,0.0,0.0,0.0,-0.005560148950863584,0.002887786241028246,-9.141055451229336e-05,0.0,0.0,0.0,0.0,0.0,0.0,0.0,0.0,0.0
4.791,133,4,791000000,base_footprint,0.0027514537272814565,0.0027144780607041854,-0.7134659076246067,0.7006792845294063,0.0,0.0,0.0,0.0,0.0,0.0,0.0,0.0,0.0,-1.0510925879762866e-05,0.0001386473922975983,-0.014034231969194233,0.0,0.0,0.0,0.0,0.0,0.0,0.0,0.0,0.0,-0.005398465666671518,0.00337856806710265,-0.00018311436289762087,0.0,0.0,0.0,0.0,0.0,0.0,0.0,0.0,0.0
4.825,134,4,825000000,base_footprint,0.002757824940758671,0.002712245664860718,-0.7136229101892715,0.7005193645988986,0.0,0.0,0.0,0.0,0.0,0.0,0.0,0.0,0.0,-0.00037214282748642785,-0.0005373452204047696,0.010717933314311347,0.0,0.0,0.0,0.0,0.0,0.0,0.0,0.0,0.0,0.6404282168338928,-0.020915265688226936,-0.0007174538759582734,0.0,0.0,0.0,0.0,0.0,0.0,0.0,0.0,0.0
4.859,135,4,859000000,base_footprint,0.002757090811380142,0.002718454049693777,-0.7136112807999035,0.700531190149988,0.0,0.0,0.0,0.0,0.0,0.0,0.0,0.0,0.0,0.00025997138567991455,-0.0015984849933386779,-0.024200475582329014,0.0,0.0,0.0,0.0,0.0,0.0,0.0,0.0,0.0,-0.3155541584421083,0.011640406881288257,-0.002647170915236398,0.0,0.0,0.0,0.0,0.0,0.0,0.0,0.0,0.0
4.893,136,4,893000000,base_footprint,0.0027610815158084223,0.0027211979176936523,-0.713894357383773,0.7002426850787987,0.0,0.0,0.0,0.0,0.0,0.0,0.0,0.0,0.0,1.700431326727472e-05,0.0001544156581356287,-0.02389238924098095,0.0,0.0,0.0,0.0,0.0,0.0,0.0,0.0,0.0,0.00600304562338393,0.005734498103564676,0.0029893170051113883,0.0,0.0,0.0,0.0,0.0,0.0,0.0,0.0,0.0
4.927,137,4,927000000,base_footprint,0.0027627223679269385,0.002722182141200463,-0.7140633714773934,0.7000703240416966,0.0,0.0,0.0,0.0,0.0,0.0,0.0,0.0,0.0,0.00010942296721733029,0.00015783888560744503,-0.013496543159984444,0.0,0.0,0.0,0.0,0.0,0.0,0.0,0.0,0.0,0.00962016434662192,0.0030504493341974425,0.00016661588951709003,0.0,0.0,0.0,0.0,0.0,0.0,0.0,0.0,0.0
4.961,138,4,961000000,base_footprint,0.0027607050532102457,0.0027207690908003694,-0.7142341472278545,0.6998961057591786,0.0,0.0,0.0,0.0,0.0,0.0,0.0,0.0,0.0,8.924742768135388e-05,0.0005246060917559921,-0.01747512137068278,0.0,0.0,0.0,0.0,0.0,0.0,0.0,0.0,0.0,0.013897794379934462,0.0049935248179465664,0.000718935695636351,0.0,0.0,0.0,0.0,0.0,0.0,0.0,0.0,0.0
4.995,139,4,995000000,base_footprint,0.0027602523012045938,0.0027152015552066337,-0.7146052971723891,0.6995171748720042,0.0,0.0,0.0,0.0,0.0,0.0,0.0,0.0,0.0,-0.0007620480317684587,8.760298911512091e-05,-0.04355678025623731,0.0,0.0,0.0,0.0,0.0,0.0,0.0,0.0,0.0,0.05815440034065987,-0.00983141219073359,-0.0011734537807896455,0.0,0.0,0.0,0.0,0.0,0.0,0.0,0.0,0.0
5.029,140,5,29000000,base_footprint,0.0027583822829230185,0.0027174832534470317,-0.7150069523801005,0.6991066189502639,0.0,0.0,0.0,0.0,0.0,0.0,0.0,0.0,0.0,0.0003882686424534617,6.717327661577555e-06,-0.027173878976880866,0.0,0.0,0.0,0.0,0.0,0.0,0.0,0.0,0.0,-0.008034792277701477,0.016913590388312316,0.0003301995957459108,0.0,0.0,0.0,0.0,0.0,0.0,0.0,0.0,0.0
5.063,141,5,63000000,base_footprint,0.0027614682504545833,0.0027166617627411033,-0.7146520644069858,0.699469385234838,0.0,0.0,0.0,0.0,0.0,0.0,0.0,0.0,0.0,0.0001729814539192854,0.003911631601681717,0.04370252641455963,0.0,0.0,0.0,0.0,0.0,0.0,0.0,0.0,0.0,-0.018997400063630966,-0.0077287474046748945,0.006297116103422496,0.0,0.0,0.0,0.0,0.0,0.0,0.0,0.0,0.0
5.097,142,5,97000000,base_footprint,0.0027584429758375816,0.002713637755807364,-0.7144284048635059,0.6996978501372332,0.0,0.0,0.0,0.0,0.0,0.0,0.0,0.0,0.0,0.0012403839516475401,-0.002461224229654323,-0.009527018087144805,0.0,0.0,0.0,0.0,0.0,0.0,0.0,0.0,0.0,-0.3590826208579153,0.01510725551789699,-0.010249419013707222,0.0,0.0,0.0,0.0,0.0,0.0,0.0,0.0,0.0
5.131,143,5,131000000,base_footprint,0.0027564063046588887,0.0027121029025469483,-0.7145389512121599,0.6995849726250244,0.0,0.0,0.0,0.0,0.0,0.0,0.0,0.0,0.0,-0.0002034382698148057,0.00045044592630838563,-0.011040613092243141,0.0,0.0,0.0,0.0,0.0,0.0,0.0,0.0,0.0,-0.0007290265739446247,0.0004578685753222543,0.00520569123392068,0.0,0.0,0.0,0.0,0.0,0.0,0.0,0.0,0.0
5.165,144,5,165000000,base_footprint,0.0027549329544012966,0.0027089670242931474,-0.7146873829065147,0.6994333539060853,0.0,0.0,0.0,0.0,0.0,0.0,0.0,0.0,0.0,-5.447388093291443e-05,0.0004115017820428053,-0.012607780238886916,0.0,0.0,0.0,0.0,0.0,0.0,0.0,0.0,0.0,-0.006108435040199968,0.0028774499853781296,-0.00015364202284771686,0.0,0.0,0.0,0.0,0.0,0.0,0.0,0.0,0.0
5.199,145,5,199000000,base_footprint,0.002754781035261873,0.002707149016218784,-0.7148398893191648,0.6992774951074975,0.0,0.0,0.0,0.0,0.0,0.0,0.0,0.0,0.0,-4.240382593497176e-05,0.0003276536564911852,-0.012995174702186876,0.0,0.0,0.0,0.0,0.0,0.0,0.0,0.0,0.0,-0.005516402043601284,0.003104170961949453,-0.0001441607165600268,0.0,0.0,0.0,0.0,0.0,0.0,0.0,0.0,0.0
5.233,146,5,233000000,base_footprint,0.0027555133334401806,0.0027068004401892367,-0.7149886989964059,0.6991253397532329,0.0,0.0,0.0,0.0,0.0,0.0,0.0,0.0,0.0,4.032062269308253e-05,0.00010745154284485644,-0.0054701647512888606,0.0,0.0,0.0,0.0,0.0,0.0,0.0,0.0,0.0,-0.004160861002400545,0.0028339378515643606,-0.0002890868980933807,0.0,0.0,0.0,0.0,0.0,0.0,0.0,0.0,0.0
5.267,147,5,267000000,base_footprint,0.0027568360925606565,0.002707641491698506,-0.7150493015467245,0.6990633482667022,0.0,0.0,0.0,0.0,0.0,0.0,0.0,0.0,0.0,-1.6441430663273862e-05,0.00010508912427511686,-0.00536354910249571,0.0,0.0,0.0,0.0,0.0,0.0,0.0,0.0,0.0,-0.00463900846965533,0.0017388352241955506,-2.6950100887049573e-05,0.0,0.0,0.0,0.0,0.0,0.0,0.0,0.0,0.0
5.301,148,5,301000000,base_footprint,0.0027592123729526,0.002710109223028016,-0.7151157519487917,0.6989953528957075,0.0,0.0,0.0,0.0,0.0,0.0,0.0,0.0,0.0,1.292780400310079e-06,-5.5385404855906486e-06,-0.005768907234048616,0.0,0.0,0.0,0.0,0.0,0.0,0.0,0.0,0.0,-0.005220488459008285,0.0016410259245799523,-0.00024194738319573684,0.0,0.0,0.0,0.0,0.0,0.0,0.0,0.0,0.0
5.335,149,5,335000000,base_footprint,0.002760739521546299,0.002707469600813617,-0.7151094878515993,0.6990017655988277,0.0,0.0,0.0,0.0,0.0,0.0,0.0,0.0,0.0,0.0030947974153252775,0.002183624395337846,0.055486419002645296,0.0,0.0,0.0,0.0,0.0,0.0,0.0,0.0,0.0,0.004072116826392187,0.002651183847765567,0.0007847835043829406,0.0,0.0,0.0,0.0,0.0,0.0,0.0,0.0,0.0
5.369,150,5,369000000,base_footprint,0.0027617025309773623,0.0027203172648647186,-0.7143109517182031,0.6998177170724844,0.0,0.0,0.0,0.0,0.0,0.0,0.0,0.0,0.0,3.0979782366095536e-05,-0.0006157396018012034,0.06610640901754661,0.0,0.0,0.0,0.0,0.0,0.0,0.0,0.0,0.0,0.007949040982031565,-0.015543222220174664,-0.0012436520432422666,0.0,0.0,0.0,0.0,0.0,0.0,0.0,0.0,0.0
5.4030000000000005,151,5,403000000,base_footprint,0.0027593754528457723,0.0027258758208643153,-0.7135333264349765,0.7006105533852292,0.0,0.0,0.0,0.0,0.0,0.0,0.0,0.0,0.0,0.00012652991724228463,-0.0005045597784702523,0.0652632293693829,0.0,0.0,0.0,0.0,0.0,0.0,0.0,0.0,0.0,0.00038941993962062285,-0.01276923154118528,6.523945762403651e-05,0.0,0.0,0.0,0.0,0.0,0.0,0.0,0.0,0.0
5.437,152,5,437000000,base_footprint,0.00275330118350324,0.002727653563762004,-0.7127677971877618,0.7013893687038141,0.0,0.0,0.0,0.0,0.0,0.0,0.0,0.0,0.0,8.213168089632244e-06,9.967020531153311e-05,0.06094745238457573,0.0,0.0,0.0,0.0,0.0,0.0,0.0,0.0,0.0,0.007943410976860368,-0.012619001104860068,0.0010740953244246926,0.0,0.0,0.0,0.0,0.0,0.0,0.0,0.0,0.0
5.471,153,5,471000000,base_footprint,0.0027511381149517913,0.002723908318659128,-0.7122249178344259,0.7019406513219544,0.0,0.0,0.0,0.0,0.0,0.0,0.0,0.0,0.0,0.00033990438746514496,5.482152201425284e-05,0.034987774219116745,0.0,0.0,0.0,0.0,0.0,0.0,0.0,0.0,0.0,0.05731569717678074,-0.021131088328227073,-7.459413768767307e-05,0.0,0.0,0.0,0.0,0.0,0.0,0.0,0.0,0.0
5.505,154,5,505000000,base_footprint,0.0027487314697986613,0.0027296685772169238,-0.7115997851048241,0.7025743656179989,0.0,0.0,0.0,0.0,0.0,0.0,0.0,0.0,0.0,-6.343824084957035e-05,-0.001072321770584104,0.060737710297155204,0.0,0.0,0.0,0.0,0.0,0.0,0.0,0.0,0.0,-0.013566437268297636,-0.0061232350761442275,-0.0028824974139992745,0.0,0.0,0.0,0.0,0.0,0.0,0.0,0.0,0.0
5.539,155,5,539000000,base_footprint,0.0027456077391429046,0.002729412678819546,-0.7108151258255715,0.703368231328476,0.0,0.0,0.0,0.0,0.0,0.0,0.0,0.0,0.0,0.00041785175355300375,0.005253632743046258,0.05861778851692623,0.0,0.0,0.0,0.0,0.0,0.0,0.0,0.0,0.0,0.15146473747631645,-0.02067802859017731,0.011260971944915269,0.0,0.0,0.0,0.0,0.0,0.0,0.0,0.0,0.0
5.573,156,5,573000000,base_footprint,0.0027447770559118428,0.0027306621491133857,-0.7107723315799583,0.7034114744184449,0.0,0.0,0.0,0.0,0.0,0.0,0.0,0.0,0.0,0.00018469673540721102,0.0007420163870882443,-0.009189302660675906,0.0,0.0,0.0,0.0,0.0,0.0,0.0,0.0,0.0,0.15312741756105797,-0.0025391642058459896,-0.008629736114951405,0.0,0.0,0.0,0.0,0.0,0.0,0.0,0.0,0.0
5.607,157,5,607000000,base_footprint,0.0027422651423664244,0.0027264774822344027,-0.7108823807038747,0.7033002823170338,0.0,0.0,0.0,0.0,0.0,0.0,0.0,0.0,0.0,-8.27847019771842e-05,0.0004946718724132595,-0.009320968267180402,0.0,0.0,0.0,0.0,0.0,0.0,0.0,0.0,0.0,-0.0045648103962767665,0.0018639728182269094,-3.597146749321328e-05,0.0,0.0,0.0,0.0,0.0,0.0,0.0,0.0,0.0
5.641,158,5,641000000,base_footprint,0.0027411295567520556,0.002723278845749631,-0.7110229955806586,0.7031581399063714,0.0,0.0,0.0,0.0,0.0,0.0,0.0,0.0,0.0,-0.00012600345396066528,0.00038014503622403996,-0.016696010875056892,0.0,0.0,0.0,0.0,0.0,0.0,0.0,0.0,0.0,-0.007201841884999829,0.002225970556460195,-0.000240895291970585,0.0,0.0,0.0,0.0,0.0,0.0,0.0,0.0,0.0
5.675,159,5,675000000,base_footprint,0.0027412189823339066,0.0027210880916112836,-0.7112235483342463,0.7029552942349412,0.0,0.0,0.0,0.0,0.0,0.0,0.0,0.0,0.0,-5.2217522172747795e-05,0.000363231750588843,-0.016932592379760844,0.0,0.0,0.0,0.0,0.0,0.0,0.0,0.0,0.0,-0.005033113979247258,0.003915505811760142,-6.213069332738205e-05,0.0,0.0,0.0,0.0,0.0,0.0,0.0,0.0,0.0
5.709,160,5,709000000,base_footprint,0.0027421354642589582,0.002720137108504871,-0.7114288127961249,0.7027475548663993,0.0,0.0,0.0,0.0,0.0,0.0,0.0,0.0,0.0,-3.853447611385333e-05,0.0002976566318939481,-0.017359461172722624,0.0,0.0,0.0,0.0,0.0,0.0,0.0,0.0,0.0,-0.005263827040764218,0.0037819515220069706,-0.00011366162854831323,0.0,0.0,0.0,0.0,0.0,0.0,0.0,0.0,0.0
5.743,161,5,743000000,base_footprint,0.0027426898785418334,0.0027189084745934842,-0.7116028504840096,0.702571326181171,0.0,0.0,0.0,0.0,0.0,0.0,0.0,0.0,0.0,7.173765586918621e-05,0.00026127835912936566,0.016036385623884722,0.0,0.0,0.0,0.0,0.0,0.0,0.0,0.0,0.0,-0.22354102337424087,0.008598126888735735,0.00011623570364504361,0.0,0.0,0.0,0.0,0.0,0.0,0.0,0.0,0.0
5.777,162,5,777000000,base_footprint,0.002744266468323776,0.0027230641927444214,-0.7113013955825793,0.7028765030680909,0.0,0.0,0.0,0.0,0.0,0.0,0.0,0.0,0.0,0.00011460823540458632,-0.0006103312237594653,-0.010643762160805864,0.0,0.0,0.0,0.0,0.0,0.0,0.0,0.0,0.0,-0.1272730509475464,-0.0042682544116784404,-0.0016062575750268877,0.0,0.0,0.0,0.0,0.0,0.0,0.0,0.0,0.0
5.811,163,5,811000000,base_footprint,0.0027485087866246905,0.0027271247847901574,-0.711482099096636,0.7026935542289419,0.0,0.0,0.0,0.0,0.0,0.0,0.0,0.0,0.0,0.00013334145937227214,-0.00020450207886808577,-0.022454476703507677,0.0,0.0,0.0,0.0,0.0,0.0,0.0,0.0,0.0,-0.005890806991588618,0.005305098321928454,0.0003562099073716113,0.0,0.0,0.0,0.0,0.0,0.0,0.0,0.0,0.0
5.845,164,5,845000000,base_footprint,0.002752413784168319,0.002728703109033419,-0.7117503761997479,0.702421796627369,0.0,0.0,0.0,0.0,0.0,0.0,0.0,0.0,0.0,-1.6783637097063343e-06,0.0001424224063895196,-0.02270142138324195,0.0,0.0,0.0,0.0,0.0,0.0,0.0,0.0,0.0,-0.0010734268981664446,0.006522637113435408,0.0005456052427072054,0.0,0.0,0.0,0.0,0.0,0.0,0.0,0.0,0.0
5.879,165,5,879000000,base_footprint,0.00275484170673662,0.002729794297000576,-0.7120245619947911,0.7021438472182128,0.0,0.0,0.0,0.0,0.0,0.0,0.0,0.0,0.0,4.4924916163634024e-05,0.0001736473378485568,-0.02317923017035948,0.0,0.0,0.0,0.0,0.0,0.0,0.0,0.0,0.0,0.005757780018873821,0.004875258273947196,6.522891548098208e-05,0.0,0.0,0.0,0.0,0.0,0.0,0.0,0.0,0.0
5.913,166,5,913000000,base_footprint,0.002753520436417633,0.0027299065690419727,-0.7122879310146856,0.7018766765366613,0.0,0.0,0.0,0.0,0.0,0.0,0.0,0.0,0.0,0.00025632230370056954,0.0005198467187195002,-0.018659846354714904,0.0,0.0,0.0,0.0,0.0,0.0,0.0,0.0,0.0,0.015868977113451067,0.007155239586772859,0.0008156529701194175,0.0,0.0,0.0,0.0,0.0,0.0,0.0,0.0,0.0
5.947,167,5,947000000,base_footprint,0.002752174948649036,0.0027243145645340972,-0.7126449055275,0.7015142495123717,0.0,0.0,0.0,0.0,0.0,0.0,0.0,0.0,0.0,-0.0008193196304342753,0.0001926761873999269,-0.04586940449875136,0.0,0.0,0.0,0.0,0.0,0.0,0.0,0.0,0.0,0.05418063369282507,-0.010118114802860779,-0.0010831790581873613,0.0,0.0,0.0,0.0,0.0,0.0,0.0,0.0,0.0
5.981,168,5,981000000,base_footprint,0.002751940262895899,0.002723438623618176,-0.7130927213124717,0.7010590421056035,0.0,0.0,0.0,0.0,0.0,0.0,0.0,0.0,0.0,0.0003436282425856275,-0.00022967148671278586,-0.02677977271817156,0.0,0.0,0.0,0.0,0.0,0.0,0.0,0.0,0.0,0.0014476461409108354,0.01903103188107548,-1.6907602096369398e-05,0.0,0.0,0.0,0.0,0.0,0.0,0.0,0.0,0.0
6.015,169,6,15000000,base_footprint,0.0027565764018494597,0.0027224520899062393,-0.7132224908543223,0.7009270062429577,0.0,0.0,0.0,0.0,0.0,0.0,0.0,0.0,0.0,0.00034996905821930264,0.0004191509286466424,-0.0013322215848485441,0.0,0.0,0.0,0.0,0.0,0.0,0.0,0.0,0.0,-0.029522703175047977,0.0037040342406123496,0.001129265446442187,0.0,0.0,0.0,0.0,0.0,0.0,0.0,0.0,0.0
6.049,170,6,49000000,base_footprint,0.0027544796832424103,0.0027212128550764196,-0.7132366977690348,0.7009125628762797,0.0,0.0,0.0,0.0,0.0,0.0,0.0,0.0,0.0,7.936275029269298e-05,0.00022304028024050656,-0.0009752276427966099,0.0,0.0,0.0,0.0,0.0,0.0,0.0,0.0,0.0,-0.004752373302963268,-0.00030095943053995173,-0.00012439117625269694,0.0,0.0,0.0,0.0,0.0,0.0,0.0,0.0,0.0
6.083,171,6,83000000,base_footprint,0.002751418573070904,0.0027174549926781487,-0.713247687940672,0.7009014058920731,0.0,0.0,0.0,0.0,0.0,0.0,0.0,0.0,0.0,-7.654215404933161e-05,0.00044635750260077516,-0.0010052626191232796,0.0,0.0,0.0,0.0,0.0,0.0,0.0,0.0,0.0,-0.004435758977372332,0.0009433424546045602,0.0006212032011575284,0.0,0.0,0.0,0.0,0.0,0.0,0.0,0.0,0.0
6.117,172,6,117000000,base_footprint,0.002749801466367969,0.0027143300267789116,-0.7133130382325876,0.7008349167184782,0.0,0.0,0.0,0.0,0.0,0.0,0.0,0.0,0.0,-7.100245035217845e-05,0.0004036293812949427,-0.008585680861075428,0.0,0.0,0.0,0.0,0.0,0.0,0.0,0.0,0.0,-0.007388077070050588,0.0013779493217728777,-0.00017987239675665913,0.0,0.0,0.0,0.0,0.0,0.0,0.0,0.0,0.0
6.151,173,6,151000000,base_footprint,0.0027494812356083954,0.002712576599179914,-0.713417894438754,0.7007281856581077,0.0,0.0,0.0,0.0,0.0,0.0,0.0,0.0,0.0,-4.8754171732577555e-05,0.0003000952861856998,-0.008972958478697002,0.0,0.0,0.0,0.0,0.0,0.0,0.0,0.0,0.0,-0.005558057474460705,0.002150345530002005,-0.00017942023776125053,0.0,0.0,0.0,0.0,0.0,0.0,0.0,0.0,0.0
6.185,174,6,185000000,base_footprint,0.0027500930364031165,0.002712093217362949,-0.7135276908494014,0.7006163828585459,0.0,0.0,0.0,0.0,0.0,0.0,0.0,0.0,0.0,-3.53393457072069e-05,0.00022652404117798884,-0.009401269680143494,0.0,0.0,0.0,0.0,0.0,0.0,0.0,0.0,0.0,-0.00557037496690581,0.002311595500396336,-0.00014249985323201312,0.0,0.0,0.0,0.0,0.0,0.0,0.0,0.0,0.0
6.219,175,6,219000000,base_footprint,0.002751673553916488,0.0027152710072670715,-0.7133683530162287,0.7007786016360112,0.0,0.0,0.0,0.0,0.0,0.0,0.0,0.0,0.0,-0.00017600187090358716,0.00039432805082747417,0.061621290871726006,0.0,0.0,0.0,0.0,0.0,0.0,0.0,0.0,0.0,0.3847284082751483,-0.015338634438226223,0.0008241215474721131,0.0,0.0,0.0,0.0,0.0,0.0,0.0,0.0,0.0
6.253,176,6,253000000,base_footprint,0.0027517047170197142,0.0027171029635985216,-0.7131297411055006,0.7010214103887535,0.0,0.0,0.0,0.0,0.0,0.0,0.0,0.0,0.0,-6.504142317105942e-06,-1.1177585696602627e-06,-0.0022304571184267475,0.0,0.0,0.0,0.0,0.0,0.0,0.0,0.0,0.0,-0.053254513231400465,-0.0032771432683469034,-0.0013689684209691462,0.0,0.0,0.0,0.0,0.0,0.0,0.0,0.0,0.0
6.287,177,6,287000000,base_footprint,0.0027548284659329554,0.002720807865432628,-0.7131579486222235,0.7009926878660182,0.0,0.0,0.0,0.0,0.0,0.0,0.0,0.0,0.0,3.503142986523327e-05,-0.0001447160943704692,-0.002530935535560159,0.0,0.0,0.0,0.0,0.0,0.0,0.0,0.0,0.0,-0.003914878692774044,0.0008309453452228167,-0.0003002351256524156,0.0,0.0,0.0,0.0,0.0,0.0,0.0,0.0,0.0
6.321,178,6,321000000,base_footprint,0.002757635469721313,0.002722971903095259,-0.7131894654882933,0.7009606031633688,0.0,0.0,0.0,0.0,0.0,0.0,0.0,0.0,0.0,-1.0570716739148081e-05,-6.069489194525553e-06,-0.0028581304989813957,0.0,0.0,0.0,0.0,0.0,0.0,0.0,0.0,0.0,-0.0013551299834796784,0.0014733361706453227,0.0001097286861114868,0.0,0.0,0.0,0.0,0.0,0.0,0.0,0.0,0.0
6.355,179,6,355000000,base_footprint,0.0027595394338024446,0.002724680340775814,-0.7133104053280909,0.7008375180523863,0.0,0.0,0.0,0.0,0.0,0.0,0.0,0.0,0.0,1.6912764706030903e-05,4.3979254629376497e-05,-0.012455060273234455,0.0,0.0,0.0,0.0,0.0,0.0,0.0,0.0,0.0,0.002523688321845456,0.0017681082423197498,-5.8152417969209436e-05,0.0,0.0,0.0,0.0,0.0,0.0,0.0,0.0,0.0
6.389,180,6,389000000,base_footprint,0.002759256127813216,0.002724510077475746,-0.7134706153941794,0.7006744211968279,0.0,0.0,0.0,0.0,0.0,0.0,0.0,0.0,0.0,9.918500879993185e-05,0.00040558003043047054,-0.014725363363595272,0.0,0.0,0.0,0.0,0.0,0.0,0.0,0.0,0.0,0.010176917040887148,0.004948641343324719,0.0006909296746232022,0.0,0.0,0.0,0.0,0.0,0.0,0.0,0.0,0.0
6.423,181,6,423000000,base_footprint,0.002749481663499483,0.0027089768964829795,-0.7138235255343998,0.7003149835526845,0.0,0.0,0.0,0.0,0.0,0.0,0.0,0.0,0.0,0.0012800978178131124,0.0007716914650374506,-0.04652922642445058,0.0,0.0,0.0,0.0,0.0,0.0,0.0,0.0,0.0,0.01531268858130771,-0.014632204241392261,0.0018826571028503962,0.0,0.0,0.0,0.0,0.0,0.0,0.0,0.0,0.0
6.457,182,6,457000000,base_footprint,0.0027502064410726166,0.0027063604838144495,-0.7144165659934408,0.6997099986505859,0.0,0.0,0.0,0.0,0.0,0.0,0.0,0.0,0.0,-0.00021483234725299836,0.0003076879127395885,-0.0570321483701117,0.0,0.0,0.0,0.0,0.0,0.0,0.0,0.0,0.0,-0.045281538391353085,0.025783201392132152,-0.0016926935777172563,0.0,0.0,0.0,0.0,0.0,0.0,0.0,0.0,0.0
6.491,183,6,491000000,base_footprint,0.002754848595476075,0.0027156426830192665,-0.7151592584890587,0.6989508359615961,0.0,0.0,0.0,0.0,0.0,0.0,0.0,0.0,0.0,0.00011904107445969217,0.0006722211435435166,-0.0525265901235339,0.0,0.0,0.0,0.0,0.0,0.0,0.0,0.0,0.0,-0.18527115269104735,0.023538729003526174,0.00019148145178256434,0.0,0.0,0.0,0.0,0.0,0.0,0.0,0.0,0.0
6.524,184,6,525000000,base_footprint,0.002763277044498963,0.0027123999518928487,-0.7153607328552509,0.6987446093353957,0.0,0.0,0.0,0.0,0.0,0.0,0.0,0.0,0.0,0.00010515819681880881,0.0008011458780688599,-0.0038995947139058005,0.0,0.0,0.0,0.0,0.0,0.0,0.0,0.0,0.0,-0.09799839442620964,0.00817336367108619,0.0006472186892336755,0.0,0.0,0.0,0.0,0.0,0.0,0.0,0.0,0.0
6.559,185,6,559000000,base_footprint,0.0027604932781723286,0.0027095145907386443,-0.7153820934575993,0.6987227623083183,0.0,0.0,0.0,0.0,0.0,0.0,0.0,0.0,0.0,-7.657809159376786e-05,0.0004768819068422358,-0.0015156588204469645,0.0,0.0,0.0,0.0,0.0,0.0,0.0,0.0,0.0,-0.004625386979730899,0.0018860274522594699,-6.881370720481548e-05,0.0,0.0,0.0,0.0,0.0,0.0,0.0,0.0,0.0
6.593,186,6,593000000,base_footprint,0.0027584424051554477,0.0027061655903340004,-0.7154027191583993,0.69870166529361,0.0,0.0,0.0,0.0,0.0,0.0,0.0,0.0,0.0,-6.286287150428877e-05,0.00035101673014408007,-0.0018985021842851174,0.0,0.0,0.0,0.0,0.0,0.0,0.0,0.0,0.0,-0.005433527184573137,0.0005573617738313407,-0.00022697373967294193,0.0,0.0,0.0,0.0,0.0,0.0,0.0,0.0,0.0
6.627,187,6,627000000,base_footprint,0.0027576228288471467,0.002704457370746033,-0.7154282226403414,0.69867556109853,0.0,0.0,0.0,0.0,0.0,0.0,0.0,0.0,0.0,-4.9062825740328015e-05,0.00026428953252602107,-0.0023325571619701333,0.0,0.0,0.0,0.0,0.0,0.0,0.0,0.0,0.0,-0.005618353478204655,0.0007607934911037918,-0.00016763807638810999,0.0,0.0,0.0,0.0,0.0,0.0,0.0,0.0,0.0
6.661,188,6,661000000,base_footprint,0.002757651187676511,0.0027041585659510485,-0.7154316342452324,0.6986720687186324,0.0,0.0,0.0,0.0,0.0,0.0,0.0,0.0,0.0,-3.6612238461324086e-05,0.00016940679113666465,-0.0002728202027490246,0.0,0.0,0.0,0.0,0.0,0.0,0.0,0.0,0.0,-0.004989439642929225,0.0003919973158185296,-0.0001587048744982792,0.0,0.0,0.0,0.0,0.0,0.0,0.0,0.0,0.0
6.695,189,6,695000000,base_footprint,0.0027585803570896123,0.002705093996722219,-0.7154379769945461,0.6986655664728539,0.0,0.0,0.0,0.0,0.0,0.0,0.0,0.0,0.0,-2.3776114260995492e-05,9.109805319909442e-05,-0.0007323082873932184,0.0,0.0,0.0,0.0,0.0,0.0,0.0,0.0,0.0,-0.005594830089625573,0.0005001535914294078,-0.00017499716200256512,0.0,0.0,0.0,0.0,0.0,0.0,0.0,0.0,0.0
6.729,190,6,729000000,base_footprint,0.0027605265760795856,0.0027073765518568402,-0.7154497767410872,0.69865346672464,0.0,0.0,0.0,0.0,0.0,0.0,0.0,0.0,0.0,-9.594631164950787e-06,-1.1219464517691126e-05,-0.0011939435681704428,0.0,0.0,0.0,0.0,0.0,0.0,0.0,0.0,0.0,-0.005375114881149763,0.0006290929530711818,-0.00023187343712370492,0.0,0.0,0.0,0.0,0.0,0.0,0.0,0.0,0.0
6.763,191,6,763000000,base_footprint,0.0027637645357997628,0.0027113252274174604,-0.7154670231868554,0.6986357771065276,0.0,0.0,0.0,0.0,0.0,0.0,0.0,0.0,0.0,3.3586240631211287e-05,-0.00016469513823680085,-0.0016413528621453915,0.0,0.0,0.0,0.0,0.0,0.0,0.0,0.0,0.0,-0.004602173081210117,0.0007691617712821969,-0.00037723384779941545,0.0,0.0,0.0,0.0,0.0,0.0,0.0,0.0,0.0
6.797,192,6,797000000,base_footprint,0.002766763493327395,0.002713717466633616,-0.7154880759283871,0.6986141953622027,0.0,0.0,0.0,0.0,0.0,0.0,0.0,0.0,0.0,-7.632592215900269e-06,-2.1243270989386326e-05,-0.002018439861622861,0.0,0.0,0.0,0.0,0.0,0.0,0.0,0.0,0.0,-0.0014272488616422694,0.0013846523714035714,0.00011157423935730714,0.0,0.0,0.0,0.0,0.0,0.0,0.0,0.0,0.0
6.83,193,6,831000000,base_footprint,0.002768314153513453,0.0027157711739303246,-0.7155151604436595,0.6985864414651651,0.0,0.0,0.0,0.0,0.0,0.0,0.0,0.0,0.0,4.184374292306111e-05,4.437700327841019e-06,-0.002490627084026078,0.0,0.0,0.0,0.0,0.0,0.0,0.0,0.0,0.0,0.0054429404994256435,9.273435177695102e-05,1.727411235274761e-05,0.0,0.0,0.0,0.0,0.0,0.0,0.0,0.0,0.0
6.865,194,6,865000000,base_footprint,0.0027669075154355314,0.0027159714688586097,-0.7155550181225201,0.6985456203867156,0.0,0.0,0.0,0.0,0.0,0.0,0.0,0.0,0.0,9.199623426480096e-05,0.0003371981070372166,-0.005183109499718648,0.0,0.0,0.0,0.0,0.0,0.0,0.0,0.0,0.0,0.011731193621217361,0.0029856653935672493,0.0006246705427867248,0.0,0.0,0.0,0.0,0.0,0.0,0.0,0.0,0.0
6.899,195,6,899000000,base_footprint,0.0027640630903108827,0.002712396118360843,-0.7157561104919723,0.6983395972991461,0.0,0.0,0.0,0.0,0.0,0.0,0.0,0.0,0.0,-0.000586930812469555,0.0001568045283018908,-0.03341658381207592,0.0,0.0,0.0,0.0,0.0,0.0,0.0,0.0,0.0,0.05208895448297127,-0.013904838190962755,-0.0008353680515042858,0.0,0.0,0.0,0.0,0.0,0.0,0.0,0.0,0.0
6.933,196,6,933000000,base_footprint,0.0027620976939537484,0.0027123718534455585,-0.7160483712453902,0.6980399300126616,0.0,0.0,0.0,0.0,0.0,0.0,0.0,0.0,0.0,-0.00015322515998408815,-0.00015434073710752336,-0.007754108473020511,0.0,0.0,0.0,0.0,0.0,0.0,0.0,0.0,0.0,0.012467141167924675,0.01354084812643962,-0.0014494128767542618,0.0,0.0,0.0,0.0,0.0,0.0,0.0,0.0,0.0
6.9670000000000005,197,6,967000000,base_footprint,0.002767139920337914,0.0027125735974403613,-0.7158808055744784,0.6982117566262944,0.0,0.0,0.0,0.0,0.0,0.0,0.0,0.0,0.0,0.00017524720626756223,0.0005731948316338978,0.0200936377748895,0.0,0.0,0.0,0.0,0.0,0.0,0.0,0.0,0.0,-0.037009628205175574,-0.0008151338971509291,0.0030058094618579164,0.0,0.0,0.0,0.0,0.0,0.0,0.0,0.0,0.0
7.001,198,7,1000000,base_footprint,0.0027637454850606247,0.00271165369750908,-0.7156341601101576,0.6984645714197307,0.0,0.0,0.0,0.0,0.0,0.0,0.0,0.0,0.0,4.019905088445561e-05,2.0967044951041578e-05,0.020924067256672743,0.0,0.0,0.0,0.0,0.0,0.0,0.0,0.0,0.0,-0.001843629923775705,-0.0031936041229133644,-0.0008492676036976595,0.0,0.0,0.0,0.0,0.0,0.0,0.0,0.0,0.0
7.035,199,7,35000000,base_footprint,0.0027708465945706084,0.002717864904583882,-0.7153899159112194,0.6987146798458213,0.0,0.0,0.0,0.0,0.0,0.0,0.0,0.0,0.0,-9.041132434894379e-05,-0.0009134785912628407,0.017508933238277742,0.0,0.0,0.0,0.0,0.0,0.0,0.0,0.0,0.0,0.14876481803813713,-0.008534223719921394,0.004817716793120155,0.0,0.0,0.0,0.0,0.0,0.0,0.0,0.0,0.0
7.069,200,7,69000000,base_footprint,0.0027578285842261405,0.002706582453550791,-0.7153459445227209,0.6987597930961815,0.0,0.0,0.0,0.0,0.0,0.0,0.0,0.0,0.0,-7.05589136302849e-05,8.53370354004773e-05,0.0005750568567646753,0.0,0.0,0.0,0.0,0.0,0.0,0.0,0.0,0.0,0.17638801037558108,-0.011506774636300107,-0.004706492939961995,0.0,0.0,0.0,0.0,0.0,0.0,0.0,0.0,0.0
7.103,201,7,103000000,base_footprint,0.0027568951475369146,0.00270505618837906,-0.7153492042263547,0.6987564655964796,0.0,0.0,0.0,0.0,0.0,0.0,0.0,0.0,0.0,-3.73363180154659e-05,0.00025834525036517043,-0.0035738600907887354,0.0,0.0,0.0,0.0,0.0,0.0,0.0,0.0,0.0,-0.006245116052616727,9.443384825789545e-05,0.00010465690933056077,0.0,0.0,0.0,0.0,0.0,0.0,0.0,0.0,0.0
7.1370000000000005,202,7,137000000,base_footprint,0.002757240992895997,0.002704584599339533,-0.7153929275741392,0.698711701648938,0.0,0.0,0.0,0.0,0.0,0.0,0.0,0.0,0.0,-3.933085588998107e-05,0.00020072055002117085,-0.0038214781131271866,0.0,0.0,0.0,0.0,0.0,0.0,0.0,0.0,0.0,-0.005371037665624915,0.0011703477676624596,-0.0001230496502078862,0.0,0.0,0.0,0.0,0.0,0.0,0.0,0.0,0.0
7.171,203,7,171000000,base_footprint,0.0027582904783591887,0.002705206181223948,-0.715441168658703,0.6986622988836763,0.0,0.0,0.0,0.0,0.0,0.0,0.0,0.0,0.0,-2.83837709010766e-05,0.00013073945074076307,-0.004238586921760452,0.0,0.0,0.0,0.0,0.0,0.0,0.0,0.0,0.0,-0.00526612968761878,0.001198926395155185,-0.0001506691459106477,0.0,0.0,0.0,0.0,0.0,0.0,0.0,0.0,0.0
7.205,204,7,205000000,base_footprint,0.002760246230523855,0.0027070135820641203,-0.7154943965734271,0.6986077737831443,0.0,0.0,0.0,0.0,0.0,0.0,0.0,0.0,0.0,-1.6434164352265842e-05,4.1918136752108594e-05,-0.0046641140335427255,0.0,0.0,0.0,0.0,0.0,0.0,0.0,0.0,0.0,-0.0050912296151766154,0.001318031895805978,-0.00019666118212850964,0.0,0.0,0.0,0.0,0.0,0.0,0.0,0.0,0.0
7.239,205,7,239000000,base_footprint,0.00275844677355031,0.002704720263351394,-0.7155912403215219,0.6985085913822395,0.0,0.0,0.0,0.0,0.0,0.0,0.0,0.0,0.0,8.618753474333278e-06,0.0007207391900276605,-0.02500522714702423,0.0,0.0,0.0,0.0,0.0,0.0,0.0,0.0,0.0,-0.19275429105738684,0.010778337718651457,0.0011605404964386804,0.0,0.0,0.0,0.0,0.0,0.0,0.0,0.0,0.0
7.273,206,7,273000000,base_footprint,0.0027707202996851404,0.00271484171855213,-0.7158021794752966,0.6982923403574463,0.0,0.0,0.0,0.0,0.0,0.0,0.0,0.0,0.0,-0.0006987732753485188,-0.0020252926674630754,-0.0011993117272568591,0.0,0.0,0.0,0.0,0.0,0.0,0.0,0.0,0.0,-0.14448442319445043,0.018406878424021514,-0.004497582906443454,0.0,0.0,0.0,0.0,0.0,0.0,0.0,0.0,0.0
7.307,207,7,307000000,base_footprint,0.0027694091625815593,0.00271426389245722,-0.7158290480048003,0.6982648044810462,0.0,0.0,0.0,0.0,0.0,0.0,0.0,0.0,0.0,2.9016307968955487e-05,1.274562275594983e-05,-0.0025386767753906693,0.0,0.0,0.0,0.0,0.0,0.0,0.0,0.0,0.0,-0.004117606599920174,-0.005288325674131435,0.003155638321097078,0.0,0.0,0.0,0.0,0.0,0.0,0.0,0.0,0.0
7.341,208,7,341000000,base_footprint,0.0027684893713272093,0.002714912394330896,-0.7158678926651015,0.6982249816273539,0.0,0.0,0.0,0.0,0.0,0.0,0.0,0.0,0.0,0.00010380112467327708,0.0003202945496031085,-0.00472585982250991,0.0,0.0,0.0,0.0,0.0,0.0,0.0,0.0,0.0,0.011057527116561813,0.0025819387444226587,0.0005487472034648921,0.0,0.0,0.0,0.0,0.0,0.0,0.0,0.0,0.0
7.375,209,7,375000000,base_footprint,0.0027642100113998893,0.0027116741994032,-0.7160418371752313,0.6980466269388949,0.0,0.0,0.0,0.0,0.0,0.0,0.0,0.0,0.0,-0.0003549143559238852,6.781963108235889e-05,-0.03128491640049738,0.0,0.0,0.0,0.0,0.0,0.0,0.0,0.0,0.0,0.04864663206131111,-0.014521211421643154,-0.0009057940319612491,0.0,0.0,0.0,0.0,0.0,0.0,0.0,0.0,0.0
7.409,210,7,409000000,base_footprint,0.0027635209417296736,0.0027087717941625053,-0.7163598221084824,0.6977203098492084,0.0,0.0,0.0,0.0,0.0,0.0,0.0,0.0,0.0,0.0004195500704473862,0.00025206372621072037,-0.007723795484108829,0.0,0.0,0.0,0.0,0.0,0.0,0.0,0.0,0.0,0.026551673427929547,0.013634221123271383,0.0010681050312626851,0.0,0.0,0.0,0.0,0.0,0.0,0.0,0.0,0.0
7.443,211,7,443000000,base_footprint,0.002769308800549356,0.0027107924737662047,-0.7163035503905416,0.6977780494045627,0.0,0.0,0.0,0.0,0.0,0.0,0.0,0.0,0.0,0.00018919314503059,0.000777882343215431,0.00912872199895865,0.0,0.0,0.0,0.0,0.0,0.0,0.0,0.0,0.0,-0.04750458604066497,0.0012105803757087898,0.0007885961287407633,0.0,0.0,0.0,0.0,0.0,0.0,0.0,0.0,0.0
7.477,212,7,477000000,base_footprint,0.0027664855532413936,0.0027094371968724123,-0.7161867679513318,0.6978979287253868,0.0,0.0,0.0,0.0,0.0,0.0,0.0,0.0,0.0,9.545203171272874e-06,0.00010236877253183153,0.00994981746212341,0.0,0.0,0.0,0.0,0.0,0.0,0.0,0.0,0.0,-0.002618046674335705,-0.00010812891348401248,-0.0010140823779276414,0.0,0.0,0.0,0.0,0.0,0.0,0.0,0.0,0.0
7.511,213,7,511000000,base_footprint,0.0027625547312964483,0.002706919910704705,-0.7160234261521103,0.6980655370932927,0.0,0.0,0.0,0.0,0.0,0.0,0.0,0.0,0.0,-6.761178882622488e-05,0.00024335874535197951,0.019075450911015965,0.0,0.0,0.0,0.0,0.0,0.0,0.0,0.0,0.0,-0.0013250336295571193,-0.0020555369987524993,0.0006305979090039692,0.0,0.0,0.0,0.0,0.0,0.0,0.0,0.0,0.0
7.545,214,7,545000000,base_footprint,0.0027597340557320525,0.0027047141854391857,-0.7158003556443528,0.6982942927222984,0.0,0.0,0.0,0.0,0.0,0.0,0.0,0.0,0.0,-6.83288472899447e-05,0.00018923451285904469,0.018640288987978638,0.0,0.0,0.0,0.0,0.0,0.0,0.0,0.0,0.0,-0.006081416653686362,-0.003960215655202362,-0.00014172466233048963,0.0,0.0,0.0,0.0,0.0,0.0,0.0,0.0,0.0
7.579,215,7,579000000,base_footprint,0.0027580227990353164,0.002703922246052247,-0.715581823795119,0.6985182428317666,0.0,0.0,0.0,0.0,0.0,0.0,0.0,0.0,0.0,-5.617439158314856e-05,0.00010563238996977119,0.01823750615646938,0.0,0.0,0.0,0.0,0.0,0.0,0.0,0.0,0.0,-0.005833752169669428,-0.0037428179549070617,-0.00019800062268377421,0.0,0.0,0.0,0.0,0.0,0.0,0.0,0.0,0.0
7.6129999999999995,216,7,613000000,base_footprint,0.0027574861512432046,0.0027043018194348725,-0.7154115750857124,0.6986926085591398,0.0,0.0,0.0,0.0,0.0,0.0,0.0,0.0,0.0,-4.625264715611624e-05,8.742724928407651e-05,0.010050652239948523,0.0,0.0,0.0,0.0,0.0,0.0,0.0,0.0,0.0,-0.007960849909426363,-0.002927777758774471,-0.0001962457421590006,0.0,0.0,0.0,0.0,0.0,0.0,0.0,0.0,0.0
7.647,217,7,647000000,base_footprint,0.0027580068718265644,0.0027056298580953454,-0.7152945307710354,0.6988124263450173,0.0,0.0,0.0,0.0,0.0,0.0,0.0,0.0,0.0,-3.298490087095108e-05,1.0700824611888629e-05,0.009669220674959787,0.0,0.0,0.0,0.0,0.0,0.0,0.0,0.0,0.0,-0.005576000322892333,-0.0016647513522187888,-0.00018008253985915342,0.0,0.0,0.0,0.0,0.0,0.0,0.0,0.0,0.0
7.681,218,7,681000000,base_footprint,0.0027595749523860046,0.002708304290066237,-0.7151827788862487,0.6989267791539381,0.0,0.0,0.0,0.0,0.0,0.0,0.0,0.0,0.0,-2.187606732664315e-05,-9.154419645529066e-05,0.009206974327427092,0.0,0.0,0.0,0.0,0.0,0.0,0.0,0.0,0.0,-0.005477054536745013,-0.0016661162852993352,-0.000248910252971031,0.0,0.0,0.0,0.0,0.0,0.0,0.0,0.0,0.0
7.715,219,7,715000000,base_footprint,0.0027561238648343795,0.00271301957768407,-0.7144706834486666,0.6996546903997773,0.0,0.0,0.0,0.0,0.0,0.0,0.0,0.0,0.0,-0.00021034045303502605,0.00029281723655543844,0.14813325329835758,0.0,0.0,0.0,0.0,0.0,0.0,0.0,0.0,0.0,-0.06537206867005867,-0.007700530951972519,0.002036902193898492,0.0,0.0,0.0,0.0,0.0,0.0,0.0,0.0,0.0
7.749,220,7,749000000,base_footprint,0.0027559777036135634,0.0027267961825458787,-0.7123648353042847,0.7017986253843587,0.0,0.0,0.0,0.0,0.0,0.0,0.0,0.0,0.0,-0.0017773319737051916,-0.0032396460949011526,0.15430789498088338,0.0,0.0,0.0,0.0,0.0,0.0,0.0,0.0,0.0,0.0978494054743282,-0.03998603837032054,-0.0055868828915458,0.0,0.0,0.0,0.0,0.0,0.0,0.0,0.0,0.0
7.783,221,7,783000000,base_footprint,0.0027492568209532796,0.0027356917070659004,-0.7105247081894591,0.703661563985202,0.0,0.0,0.0,0.0,0.0,0.0,0.0,0.0,0.0,4.05407952985373e-05,-0.0011848411487165045,0.15359413061635077,0.0,0.0,0.0,0.0,0.0,0.0,0.0,0.0,0.0,0.0010628359451944798,-0.03524383733348892,0.002684049298351884,0.0,0.0,0.0,0.0,0.0,0.0,0.0,0.0,0.0
7.817,222,7,817000000,base_footprint,0.0027338410690450894,0.002739131172066039,-0.708503774651286,0.7056964110567032,0.0,0.0,0.0,0.0,0.0,0.0,0.0,0.0,0.0,0.0011611432590899224,-0.0024085096797515134,0.193930441711206,0.0,0.0,0.0,0.0,0.0,0.0,0.0,0.0,0.0,0.08545765824853017,-0.03079765165616893,-0.0018582193747206772,0.0,0.0,0.0,0.0,0.0,0.0,0.0,0.0,0.0
7.851,223,7,851000000,base_footprint,0.0027259790753387386,0.0027541948390120653,-0.7062256734744979,0.7079761871520549,0.0,0.0,0.0,0.0,0.0,0.0,0.0,0.0,0.0,0.0002833699724921618,-0.0018133094321327384,0.16723543979040545,0.0,0.0,0.0,0.0,0.0,0.0,0.0,0.0,0.0,0.1441499205907554,-0.059095850478351565,0.00014659422678734043,0.0,0.0,0.0,0.0,0.0,0.0,0.0,0.0,0.0
7.885,224,7,885000000,base_footprint,0.002725840470523759,0.00274966186320124,-0.7046243618922575,0.7095699527046622,0.0,0.0,0.0,0.0,0.0,0.0,0.0,0.0,0.0,-0.0007294034189044706,-0.0005724021940502722,0.1413320246271121,0.0,0.0,0.0,0.0,0.0,0.0,0.0,0.0,0.0,0.09671049231343688,-0.016790312995960954,0.002369159080285988,0.0,0.0,0.0,0.0,0.0,0.0,0.0,0.0,0.0
7.9190000000000005,225,7,919000000,base_footprint,0.002704408110073624,0.0027439334022328994,-0.7027156086344116,0.7114604208161033,0.0,0.0,0.0,0.0,0.0,0.0,0.0,0.0,0.0,-2.0428466219395516e-06,-0.0015896150053686313,0.16765206565256463,0.0,0.0,0.0,0.0,0.0,0.0,0.0,0.0,0.0,-0.1334727663093463,-0.037496705307239815,-0.0016404486283116127,0.0,0.0,0.0,0.0,0.0,0.0,0.0,0.0,0.0
7.953,226,7,953000000,base_footprint,0.002706367058859601,0.0027675688557789774,-0.7008700647415693,0.7132784648993125,0.0,0.0,0.0,0.0,0.0,0.0,0.0,0.0,0.0,-6.704411114869104e-05,0.00013074355615037706,0.14111851189884111,0.0,0.0,0.0,0.0,0.0,0.0,0.0,0.0,0.0,-0.1619504564448252,-0.03986287571019895,0.001686885696281315,0.0,0.0,0.0,0.0,0.0,0.0,0.0,0.0,0.0
7.987,227,7,987000000,base_footprint,0.002697121452192194,0.0027714123901443136,-0.6991539963927735,0.7149606521601378,0.0,0.0,0.0,0.0,0.0,0.0,0.0,0.0,0.0,0.00010939412012890922,-0.000825062606353483,0.14144264071873008,0.0,0.0,0.0,0.0,0.0,0.0,0.0,0.0,0.0,-0.00194455016257844,-0.028627436157982227,-0.001642124238496778,0.0,0.0,0.0,0.0,0.0,0.0,0.0,0.0,0.0
8.021,228,8,21000000,base_footprint,0.002689745075525752,0.002774618466027887,-0.6976276109697688,0.7164501260914187,0.0,0.0,0.0,0.0,0.0,0.0,0.0,0.0,0.0,-8.357004252595025e-05,-0.0007564221675889394,0.11892233727083559,0.0,0.0,0.0,0.0,0.0,0.0,0.0,0.0,0.0,-0.009147155996441612,-0.027827304419410122,-0.00011127787485972683,0.0,0.0,0.0,0.0,0.0,0.0,0.0,0.0,0.0
8.055,229,8,55000000,base_footprint,0.002683772113014218,0.0027778249294082556,-0.696180940763416,0.717855959628164,0.0,0.0,0.0,0.0,0.0,0.0,0.0,0.0,0.0,-8.17306964665313e-05,-0.0006710271129237855,0.11850184375997694,0.0,0.0,0.0,0.0,0.0,0.0,0.0,0.0,0.0,-0.00425337545583852,-0.026366886221313376,-0.0001662000904573549,0.0,0.0,0.0,0.0,0.0,0.0,0.0,0.0,0.0
8.089,230,8,89000000,base_footprint,0.0026787360236656638,0.0027823993625959616,-0.6947379369955288,0.7192525853455789,0.0,0.0,0.0,0.0,0.0,0.0,0.0,0.0,0.0,-7.172365394907834e-05,-0.0007574213562111297,0.11761672031219741,0.0,0.0,0.0,0.0,0.0,0.0,0.0,0.0,0.0,-0.0039184648168954835,-0.02671064905912813,-0.00039496254969449566,0.0,0.0,0.0,0.0,0.0,0.0,0.0,0.0,0.0
8.123,231,8,123000000,base_footprint,0.002671359987610717,0.002790364898129814,-0.6925411506375099,0.721368028383034,0.0,0.0,0.0,0.0,0.0,0.0,0.0,0.0,0.0,-1.699772731331568e-05,-0.0015445548969342366,0.204099528570867,0.0,0.0,0.0,0.0,0.0,0.0,0.0,0.0,0.0,0.09326483880542191,-0.030507156358310486,-0.0004915036835395804,0.0,0.0,0.0,0.0,0.0,0.0,0.0,0.0,0.0
8.157,232,8,157000000,base_footprint,0.0026670461290778254,0.0027982852444242237,-0.6906656554704553,0.7231638879384137,0.0,0.0,0.0,0.0,0.0,0.0,0.0,0.0,0.0,-9.392622494074375e-06,6.0246104235252935e-05,0.11155827410781308,0.0,0.0,0.0,0.0,0.0,0.0,0.0,0.0,0.0,0.24009527529900185,-0.012058602150640918,0.0008302702014097334,0.0,0.0,0.0,0.0,0.0,0.0,0.0,0.0,0.0
8.191,233,8,191000000,base_footprint,0.0026639989404570216,0.0028054274608255696,-0.6892982519513837,0.7244673578175721,0.0,0.0,0.0,0.0,0.0,0.0,0.0,0.0,0.0,-9.005324313425477e-05,-0.0009365361993126037,0.11064910477250547,0.0,0.0,0.0,0.0,0.0,0.0,0.0,0.0,0.0,-0.0028649627958766116,-0.02245591935777945,-0.0015295339662810608,0.0,0.0,0.0,0.0,0.0,0.0,0.0,0.0,0.0
8.225,234,8,225000000,base_footprint,0.0026596085687286912,0.0028061462831851913,-0.6883774891947719,0.7253423222142771,0.0,0.0,0.0,0.0,0.0,0.0,0.0,0.0,0.0,-0.0003883070389656936,-0.00044949545982412236,0.01858695017955276,0.0,0.0,0.0,0.0,0.0,0.0,0.0,0.0,0.0,-0.36567146740446554,-0.05623855948920811,-0.00021914219368151285,0.0,0.0,0.0,0.0,0.0,0.0,0.0,0.0,0.0
8.259,235,8,259000000,base_footprint,0.0026630941484263055,0.0028133167977903257,-0.6881443322432859,0.7255634852854672,0.0,0.0,0.0,0.0,0.0,0.0,0.0,0.0,0.0,7.908484744213981e-05,3.470988990369343e-05,0.01793918803881272,0.0,0.0,0.0,0.0,0.0,0.0,0.0,0.0,0.0,0.004977501231106786,-0.00035123181351116644,0.00020498271488993955,0.0,0.0,0.0,0.0,0.0,0.0,0.0,0.0,0.0
8.293,236,8,293000000,base_footprint,0.0026582886025583374,0.0028174961035142393,-0.6879180328676164,0.7257780482165062,0.0,0.0,0.0,0.0,0.0,0.0,0.0,0.0,0.0,0.00014539635997817398,7.70953847952583e-05,0.015467844201611534,0.0,0.0,0.0,0.0,0.0,0.0,0.0,0.0,0.0,0.012516094081212584,-0.003452313302187613,-4.6561641268612244e-05,0.0,0.0,0.0,0.0,0.0,0.0,0.0,0.0,0.0
8.327,237,8,327000000,base_footprint,0.0026551385743724663,0.0027999806220858022,-0.6873438677222385,0.7263219106238644,0.0,0.0,0.0,0.0,0.0,0.0,0.0,0.0,0.0,-0.002047902468068603,0.00042626134163912133,0.079832867416126,0.0,0.0,0.0,0.0,0.0,0.0,0.0,0.0,0.0,0.1840336164601793,0.006587878873165226,0.0031800582685401393,0.0,0.0,0.0,0.0,0.0,0.0,0.0,0.0,0.0
8.361,238,8,361000000,base_footprint,0.0026511444080168285,0.002820497701844304,-0.6868493260189559,0.726789529075198,0.0,0.0,0.0,0.0,0.0,0.0,0.0,0.0,0.0,-0.0010082735968937233,-0.0010839964715518536,0.013447860376029592,0.0,0.0,0.0,0.0,0.0,0.0,0.0,0.0,0.0,0.1856260550359053,0.012267419700307786,-0.004642941679106283,0.0,0.0,0.0,0.0,0.0,0.0,0.0,0.0,0.0
8.395,239,8,395000000,base_footprint,0.002651230584469859,0.002820563221728617,-0.6865817189804228,0.7270423361547717,0.0,0.0,0.0,0.0,0.0,0.0,0.0,0.0,0.0,0.0001459082238059128,-5.743146361381066e-05,0.020727708246521943,0.0,0.0,0.0,0.0,0.0,0.0,0.0,0.0,0.0,0.019554678546317983,-0.0015859620507679695,0.001334051168666544,0.0,0.0,0.0,0.0,0.0,0.0,0.0,0.0,0.0
8.429,240,8,429000000,base_footprint,0.002649053384263203,0.0028170027456344456,-0.6865836200822152,0.7270405625867783,0.0,0.0,0.0,0.0,0.0,0.0,0.0,0.0,0.0,0.000423067296858401,-0.00010700114829475824,0.014333021680099266,0.0,0.0,0.0,0.0,0.0,0.0,0.0,0.0,0.0,0.31352296098119703,0.04059298816049106,-0.0006023976252033442,0.0,0.0,0.0,0.0,0.0,0.0,0.0,0.0,0.0
8.462,241,8,463000000,base_footprint,0.0026475993736538297,0.0028191918603805307,-0.6865443976590881,0.7270775972464913,0.0,0.0,0.0,0.0,0.0,0.0,0.0,0.0,0.0,2.3748930876008875e-05,0.00029073636769985536,0.0032655362869603204,0.0,0.0,0.0,0.0,0.0,0.0,0.0,0.0,0.0,-0.006837752372035779,-0.0051795528945213,0.0012877335878655471,0.0,0.0,0.0,0.0,0.0,0.0,0.0,0.0,0.0
8.497,242,8,497000000,base_footprint,0.00264471669667081,0.002815840306888776,-0.6865012001379506,0.7271184076380642,0.0,0.0,0.0,0.0,0.0,0.0,0.0,0.0,0.0,-0.0007149347109373675,0.004373819209238831,0.006060424172800208,0.0,0.0,0.0,0.0,0.0,0.0,0.0,0.0,0.0,-0.027489590332729064,-0.004406494925331668,0.00539164702356678,0.0,0.0,0.0,0.0,0.0,0.0,0.0,0.0,0.0
8.531,243,8,531000000,base_footprint,0.0026456767111868937,0.00281722602735605,-0.6863202341585666,0.7272892133235452,0.0,0.0,0.0,0.0,0.0,0.0,0.0,0.0,0.0,-0.00015605582282710942,-0.0005685184765991868,-0.0022583572736005215,0.0,0.0,0.0,0.0,0.0,0.0,0.0,0.0,0.0,-0.33428404130349054,-0.04465119174450899,-0.0063433540223765406,0.0,0.0,0.0,0.0,0.0,0.0,0.0,0.0,0.0
8.565,244,8,565000000,base_footprint,0.002645126916402716,0.00281352636537787,-0.6863436250814249,0.7272671556471364,0.0,0.0,0.0,0.0,0.0,0.0,0.0,0.0,0.0,-0.0001554067283330867,0.00023729655662034076,-0.002054958999195864,0.0,0.0,0.0,0.0,0.0,0.0,0.0,0.0,0.0,0.008471868668896971,0.0045635841544083506,0.0007743502974944656,0.0,0.0,0.0,0.0,0.0,0.0,0.0,0.0,0.0
8.599,245,8,599000000,base_footprint,0.0026491094364615164,0.0028183007689099432,-0.6863692550276347,0.7272429340686504,0.0,0.0,0.0,0.0,0.0,0.0,0.0,0.0,0.0,0.0014041553433354207,-0.0034071274380225495,0.0017131347311765772,0.0,0.0,0.0,0.0,0.0,0.0,0.0,0.0,0.0,0.07979557698578435,0.006757756087501468,-0.004162283701037451,0.0,0.0,0.0,0.0,0.0,0.0,0.0,0.0,0.0
8.633,246,8,633000000,base_footprint,0.0026491388354265466,0.0028141477744991973,-0.6863344126388526,0.7272758325858321,0.0,0.0,0.0,0.0,0.0,0.0,0.0,0.0,0.0,-0.0004277240832376295,-0.0006721866497178845,0.0013165746966544982,0.0,0.0,0.0,0.0,0.0,0.0,0.0,0.0,0.0,0.24516382103881357,0.0298786317917651,0.002413415277002595,0.0,0.0,0.0,0.0,0.0,0.0,0.0,0.0,0.0
8.667,247,8,667000000,base_footprint,0.0026510405816160335,0.0028149471090537586,-0.6863150388287114,0.7272941052518934,0.0,0.0,0.0,0.0,0.0,0.0,0.0,0.0,0.0,-0.00015645588090116644,-2.5764453941767726e-05,0.001262910819236857,0.0,0.0,0.0,0.0,0.0,0.0,0.0,0.0,0.0,-0.0007348758969566127,0.0010787896323926586,0.0013123238117733632,0.0,0.0,0.0,0.0,0.0,0.0,0.0,0.0,0.0
8.701,248,8,701000000,base_footprint,0.0026530422384050734,0.0028170771697234097,-0.6863067129057335,0.727301946418149,0.0,0.0,0.0,0.0,0.0,0.0,0.0,0.0,0.0,-0.00010847101666047905,-5.2080349173783735e-05,-3.5758326491648305e-05,0.0,0.0,0.0,0.0,0.0,0.0,0.0,0.0,0.0,-0.0031050518264333386,-0.00016928006456054696,-0.00011156468538007168,0.0,0.0,0.0,0.0,0.0,0.0,0.0,0.0,0.0
8.735,249,8,735000000,base_footprint,0.0026527029917874714,0.002817825774006359,-0.6863366210435933,0.7272737212626398,0.0,0.0,0.0,0.0,0.0,0.0,0.0,0.0,0.0,0.0005012853177201167,0.003006567849652115,-0.016747350954371347,0.0,0.0,0.0,0.0,0.0,0.0,0.0,0.0,0.0,-0.083085004395521,-0.008301982611129771,0.005917542148096672,0.0,0.0,0.0,0.0,0.0,0.0,0.0,0.0,0.0
8.769,250,8,769000000,base_footprint,0.002648419890545544,0.0028109575672673635,-0.6871697774770679,0.7264866009168756,0.0,0.0,0.0,0.0,0.0,0.0,0.0,0.0,0.0,-0.0001674190574058221,0.0014193918173843417,-0.11845440757179537,0.0,0.0,0.0,0.0,0.0,0.0,0.0,0.0,0.0,-0.35722615627111354,-0.03270057598204412,-0.004520106555465073,0.0,0.0,0.0,0.0,0.0,0.0,0.0,0.0,0.0
8.803,251,8,803000000,base_footprint,0.0026567168897254074,0.0028027989536602792,-0.6886079916930135,0.7251235204776549,0.0,0.0,0.0,0.0,0.0,0.0,0.0,0.0,0.0,-0.002651718234898298,0.004418593735083683,-0.089679673113673,0.0,0.0,0.0,0.0,0.0,0.0,0.0,0.0,0.0,0.027324008882582206,0.03024922533220791,0.004844302430083897,0.0,0.0,0.0,0.0,0.0,0.0,0.0,0.0,0.0
8.837,252,8,837000000,base_footprint,0.0026645090929271996,0.0028190063728411067,-0.6889357531197591,0.7248120319556473,0.0,0.0,0.0,0.0,0.0,0.0,0.0,0.0,0.0,0.00019752402792865876,0.0019890888786962676,0.006971926487778819,0.0,0.0,0.0,0.0,0.0,0.0,0.0,0.0,0.0,0.1096511201003934,0.018860014189878115,-0.0026473375584142216,0.0,0.0,0.0,0.0,0.0,0.0,0.0,0.0,0.0
8.871,253,8,871000000,base_footprint,0.0026595121774929437,0.002805968228427374,-0.6888308244398034,0.7249118214230335,0.0,0.0,0.0,0.0,0.0,0.0,0.0,0.0,0.0,9.048760587642579e-05,-0.0006833202903615884,0.01937650886577362,0.0,0.0,0.0,0.0,0.0,0.0,0.0,0.0,0.0,0.043843693488008616,-0.0014823173369558212,-0.004264365279862733,0.0,0.0,0.0,0.0,0.0,0.0,0.0,0.0,0.0
8.905,254,8,905000000,base_footprint,0.002647124993781083,0.0027954644544345895,-0.6884431698366471,0.7252800700508879,0.0,0.0,0.0,0.0,0.0,0.0,0.0,0.0,0.0,-0.0009779253285763317,0.0024217959432050362,0.062368085861440964,0.0,0.0,0.0,0.0,0.0,0.0,0.0,0.0,0.0,-0.06032654120099355,-0.011225509103770296,0.005567932957851397,0.0,0.0,0.0,0.0,0.0,0.0,0.0,0.0,0.0
8.939,255,8,939000000,base_footprint,0.0026499547479145293,0.0028008986587095756,-0.6874498935530359,0.7262215753889837,0.0,0.0,0.0,0.0,0.0,0.0,0.0,0.0,0.0,-0.00016586371928480108,0.00023824118640517915,0.05379659173834825,0.0,0.0,0.0,0.0,0.0,0.0,0.0,0.0,0.0,-0.18383288758958596,-0.03534947367888601,-0.00393927621663655,0.0,0.0,0.0,0.0,0.0,0.0,0.0,0.0,0.0
8.973,256,8,973000000,base_footprint,0.0026504692879630626,0.002815101567660021,-0.6872229673622031,0.7264362624109604,0.0,0.0,0.0,0.0,0.0,0.0,0.0,0.0,0.0,-0.00010688911549029131,0.0006823461574710485,0.0009653822013624115,0.0,0.0,0.0,0.0,0.0,0.0,0.0,0.0,0.0,-0.14536748950864836,-0.022323787207430668,-2.6903105572458866e-05,0.0,0.0,0.0,0.0,0.0,0.0,0.0,0.0,0.0
9.007,257,9,7000000,base_footprint,0.002649268861411404,0.0028131482502026972,-0.6872061610542622,0.7264521730853903,0.0,0.0,0.0,0.0,0.0,0.0,0.0,0.0,0.0,4.630588901844076e-05,0.00019649563988506598,0.0013363931117085094,0.0,0.0,0.0,0.0,0.0,0.0,0.0,0.0,0.0,-0.002919465090581032,0.0023708383395458048,-0.0006206296011561753,0.0,0.0,0.0,0.0,0.0,0.0,0.0,0.0,0.0
9.041,258,9,41000000,base_footprint,0.002651743083787402,0.0028121963398481968,-0.6872028321848559,0.7264553167590396,0.0,0.0,0.0,0.0,0.0,0.0,0.0,0.0,0.0,-0.002305685749989333,0.004875916584884704,-0.0064333569666010434,0.0,0.0,0.0,0.0,0.0,0.0,0.0,0.0,0.0,0.2920910286400238,0.0316923408600219,0.006490333082002187,0.0,0.0,0.0,0.0,0.0,0.0,0.0,0.0,0.0
9.075,259,9,75000000,base_footprint,0.0026497977820488187,0.002808686748529938,-0.6873025516922243,0.7263609930935309,0.0,0.0,0.0,0.0,0.0,0.0,0.0,0.0,0.0,-9.862066546659462e-05,0.0001463904117901933,-0.008317969421536212,0.0,0.0,0.0,0.0,0.0,0.0,0.0,0.0,0.0,0.034221251713665427,0.00717846210353224,-0.006297774808054081,0.0,0.0,0.0,0.0,0.0,0.0,0.0,0.0,0.0
9.109,260,9,109000000,base_footprint,0.0026518357989417833,0.002808526979089364,-0.6874104925264571,0.7262588345126254,0.0,0.0,0.0,0.0,0.0,0.0,0.0,0.0,0.0,-0.0001343349416539795,0.0001548061608751507,-0.008992176467745366,0.0,0.0,0.0,0.0,0.0,0.0,0.0,0.0,0.0,-0.0071439995381687525,0.0004163326139302523,-9.381478765944248e-05,0.0,0.0,0.0,0.0,0.0,0.0,0.0,0.0,0.0
9.143,261,9,143000000,base_footprint,0.0026497026525072586,0.0028122264844326543,-0.6874602271010392,0.7262117505330256,0.0,0.0,0.0,0.0,0.0,0.0,0.0,0.0,0.0,-0.0007321048975202429,-0.0005829978131403294,0.0006353386675502452,0.0,0.0,0.0,0.0,0.0,0.0,0.0,0.0,0.0,0.2935782175298671,0.03506619818112555,-0.0027487837797204244,0.0,0.0,0.0,0.0,0.0,0.0,0.0,0.0,0.0
9.177,262,9,177000000,base_footprint,0.002657551011350757,0.0028113883325359746,-0.6875460308344746,0.7261304903404247,0.0,0.0,0.0,0.0,0.0,0.0,0.0,0.0,0.0,-0.00012986354918627884,0.00017386348086066236,-0.006510301685357798,0.0,0.0,0.0,0.0,0.0,0.0,0.0,0.0,0.0,0.03694528853962661,0.004305277462961277,0.0028068898019317427,0.0,0.0,0.0,0.0,0.0,0.0,0.0,0.0,0.0
9.211,263,9,211000000,base_footprint,0.0026598831760352927,0.002813705035524928,-0.687636724584721,0.7260445875343053,0.0,0.0,0.0,0.0,0.0,0.0,0.0,0.0,0.0,-3.99566460345738e-05,2.8183413328048045e-05,-0.0081798232146715,0.0,0.0,0.0,0.0,0.0,0.0,0.0,0.0,0.0,-0.002217586899572059,0.0012448757081100167,-0.0004414484787076916,0.0,0.0,0.0,0.0,0.0,0.0,0.0,0.0,0.0
9.245,264,9,245000000,base_footprint,0.0026540606112986182,0.0028085109481181523,-0.6878785871862879,0.7258154844856386,0.0,0.0,0.0,0.0,0.0,0.0,0.0,0.0,0.0,3.230151376727231e-05,-0.00037686153505111646,-0.05307001245076212,0.0,0.0,0.0,0.0,0.0,0.0,0.0,0.0,0.0,-0.18402383396801328,-0.01570675356672399,-0.00017908324602650512,0.0,0.0,0.0,0.0,0.0,0.0,0.0,0.0,0.0
9.279,265,9,279000000,base_footprint,0.0026551351718812188,0.002809508826883658,-0.6891747364348045,0.7245848739639743,0.0,0.0,0.0,0.0,0.0,0.0,0.0,0.0,0.0,0.0011273812216783558,-6.615361709968873e-05,-0.13910287230668647,0.0,0.0,0.0,0.0,0.0,0.0,0.0,0.0,0.0,-0.22438218633219592,-0.008390227912281084,-0.0020680649886762052,0.0,0.0,0.0,0.0,0.0,0.0,0.0,0.0,0.0
9.313,266,9,313000000,base_footprint,0.0026602798470178463,0.002799637677158321,-0.6905486442577832,0.72327564237554,0.0,0.0,0.0,0.0,0.0,0.0,0.0,0.0,0.0,-0.0001941296226146285,-0.001148997647309686,-0.05983028475521235,0.0,0.0,0.0,0.0,0.0,0.0,0.0,0.0,0.0,0.06599507803457001,0.037489079281451385,-0.001681897200678057,0.0,0.0,0.0,0.0,0.0,0.0,0.0,0.0,0.0
9.347,267,9,347000000,base_footprint,0.0026668614663714536,0.002809693744264847,-0.6906760763372439,0.7231538916761578,0.0,0.0,0.0,0.0,0.0,0.0,0.0,0.0,0.0,-0.0006053776794247859,0.0006878137066593292,0.00833846759172598,0.0,0.0,0.0,0.0,0.0,0.0,0.0,0.0,0.0,0.06619240213428156,-0.0030697365259145376,0.00578888612164044,0.0,0.0,0.0,0.0,0.0,0.0,0.0,0.0,0.0
9.381,268,9,381000000,base_footprint,0.0026664272923851034,0.002804931947094739,-0.6904238782239425,0.7233946992482577,0.0,0.0,0.0,0.0,0.0,0.0,0.0,0.0,0.0,-0.00011072067057685492,0.0003192654159461268,0.024181704764087354,0.0,0.0,0.0,0.0,0.0,0.0,0.0,0.0,0.0,0.0328942394714841,0.008012157737346927,-0.0005670151353477746,0.0,0.0,0.0,0.0,0.0,0.0,0.0,0.0,0.0
9.415,269,9,415000000,base_footprint,0.0026530858075348,0.002789526171888657,-0.689906743592394,0.7238880195342184,0.0,0.0,0.0,0.0,0.0,0.0,0.0,0.0,0.0,0.0004566907478271093,0.001185605058042099,0.09294149561317895,0.0,0.0,0.0,0.0,0.0,0.0,0.0,0.0,0.0,-0.21005238216228567,-0.028643488636558218,0.0017594817947908007,0.0,0.0,0.0,0.0,0.0,0.0,0.0,0.0,0.0
9.449,270,9,449000000,base_footprint,0.0026574572672379976,0.0028094275923575534,-0.6889725916248397,0.724777078160746,0.0,0.0,0.0,0.0,0.0,0.0,0.0,0.0,0.0,0.0010932201673675768,-0.00178315724341501,0.04652272621532888,0.0,0.0,0.0,0.0,0.0,0.0,0.0,0.0,0.0,-0.184588329742862,-0.033464132448189396,-0.005241695916442893,0.0,0.0,0.0,0.0,0.0,0.0,0.0,0.0,0.0
9.483,271,9,483000000,base_footprint,0.002653486528350083,0.0028100317246217287,-0.6883713220270388,0.7253481824211719,0.0,0.0,0.0,0.0,0.0,0.0,0.0,0.0,0.0,4.6498377892209747e-05,-0.0001375291057562223,0.04924243017831649,0.0,0.0,0.0,0.0,0.0,0.0,0.0,0.0,0.0,0.002934351344105678,-0.01116553827372307,0.002724779422942008,0.0,0.0,0.0,0.0,0.0,0.0,0.0,0.0,0.0
9.517,272,9,517000000,base_footprint,0.002650457560588846,0.002810164787377782,-0.6877645071098898,0.7259235915772939,0.0,0.0,0.0,0.0,0.0,0.0,0.0,0.0,0.0,-0.00015222238066999526,-9.267733354637769e-05,0.049119847900849375,0.0,0.0,0.0,0.0,0.0,0.0,0.0,0.0,0.0,-0.003923566457477722,-0.010921207916367255,0.00021076288321385174,0.0,0.0,0.0,0.0,0.0,0.0,0.0,0.0,0.0
9.551,273,9,551000000,base_footprint,0.002648878814370452,0.002818576285592243,-0.6862907643732605,0.7273170050292479,0.0,0.0,0.0,0.0,0.0,0.0,0.0,0.0,0.0,4.798638700554282e-05,-0.0016210448154907848,0.23123495184635842,0.0,0.0,0.0,0.0,0.0,0.0,0.0,0.0,0.0,0.34855884498929113,0.01652920439682873,-0.0005028028249339212,0.0,0.0,0.0,0.0,0.0,0.0,0.0,0.0,0.0
9.585,274,9,585000000,base_footprint,0.002632888833034943,0.002823865638972979,-0.6831920962287643,0.7302284939180289,0.0,0.0,0.0,0.0,0.0,0.0,0.0,0.0,0.0,0.0007201831367466278,-0.002449314851241553,0.2895205776994064,0.0,0.0,0.0,0.0,0.0,0.0,0.0,0.0,0.0,-0.2846079416991592,-0.08854302902306548,-0.0001381640761990684,0.0,0.0,0.0,0.0,0.0,0.0,0.0,0.0,0.0
9.619,275,9,619000000,base_footprint,0.002617703064263924,0.0028396719473769926,-0.6794183663027347,0.7337409402673547,0.0,0.0,0.0,0.0,0.0,0.0,0.0,0.0,0.0,3.042654686081272e-05,-0.000884303039648537,0.31313566098600354,0.0,0.0,0.0,0.0,0.0,0.0,0.0,0.0,0.0,0.549848707087843,0.017683672207350842,0.0008847250939949254,0.0,0.0,0.0,0.0,0.0,0.0,0.0,0.0,0.0
9.653,276,9,653000000,base_footprint,0.0026083075333390793,0.002850670165783982,-0.6760616673151024,0.73683491529551,0.0,0.0,0.0,0.0,0.0,0.0,0.0,0.0,0.0,0.0002465956451651038,-0.0024088383474344666,0.2915894076676788,0.0,0.0,0.0,0.0,0.0,0.0,0.0,0.0,0.0,-0.17293127436107514,-0.087640102880469,-0.00256085458056195,0.0,0.0,0.0,0.0,0.0,0.0,0.0,0.0,0.0
9.687,277,9,687000000,base_footprint,0.0025996445233907443,0.002867057158961316,-0.6722562688115927,0.7403084025425586,0.0,0.0,0.0,0.0,0.0,0.0,0.0,0.0,0.0,0.000174948907992811,-0.002269208074925781,0.30339542810567105,0.0,0.0,0.0,0.0,0.0,0.0,0.0,0.0,0.0,-0.018587463449406896,-0.06139699134667542,-1.163372868708096e-05,0.0,0.0,0.0,0.0,0.0,0.0,0.0,0.0,0.0
9.721,278,9,721000000,base_footprint,0.002569892595503239,0.0028831635825874004,-0.6679047648224801,0.7442367285664093,0.0,0.0,0.0,0.0,0.0,0.0,0.0,0.0,0.0,0.0015844105751401526,-0.004000978274650357,0.39090431526624103,0.0,0.0,0.0,0.0,0.0,0.0,0.0,0.0,0.0,0.3576546152877479,0.006246996999759585,-0.0024150603932861546,0.0,0.0,0.0,0.0,0.0,0.0,0.0,0.0,0.0
9.755,279,9,755000000,base_footprint,0.002569100599667477,0.0028978765919863707,-0.6636795126449939,0.7480070230476916,0.0,0.0,0.0,0.0,0.0,0.0,0.0,0.0,0.0,0.0008072949527209345,-0.0019197483646652654,0.30197991275550184,0.0,0.0,0.0,0.0,0.0,0.0,0.0,0.0,0.0,-0.0535619833696568,-0.08139728524594524,0.001566021420688329,0.0,0.0,0.0,0.0,0.0,0.0,0.0,0.0,0.0
9.789,280,9,789000000,base_footprint,0.0025472582192721215,0.0029145138067244183,-0.6600931521454279,0.7511737798775647,0.0,0.0,0.0,0.0,0.0,0.0,0.0,0.0,0.0,-0.0002660279521024022,-0.002742718199389963,0.2658298812627449,0.0,0.0,0.0,0.0,0.0,0.0,0.0,0.0,0.0,0.09167331310433709,-0.033297078622413295,-0.0019269200166805497,0.0,0.0,0.0,0.0,0.0,0.0,0.0,0.0,0.0
9.823,281,9,823000000,base_footprint,0.0025347344457850463,0.0029100006336591935,-0.6565289268104204,0.7542909752070213,0.0,0.0,0.0,0.0,0.0,0.0,0.0,0.0,0.0,3.901433084010979e-05,-0.0016637366658194307,0.27757696553710426,0.0,0.0,0.0,0.0,0.0,0.0,0.0,0.0,0.0,0.34242133760812654,0.03979187325224939,0.0017308464875943677,0.0,0.0,0.0,0.0,0.0,0.0,0.0,0.0,0.0
9.857,282,9,857000000,base_footprint,0.0025198319518352965,0.0029332321667390336,-0.6531997640313681,0.7571757489944826,0.0,0.0,0.0,0.0,0.0,0.0,0.0,0.0,0.0,0.0011602315713987368,-0.002999848055030419,0.24519281207799115,0.0,0.0,0.0,0.0,0.0,0.0,0.0,0.0,0.0,-0.013797129546197964,-0.05490797202932171,-0.0031302276866681687,0.0,0.0,0.0,0.0,0.0,0.0,0.0,0.0,0.0
9.891,283,9,891000000,base_footprint,0.002505432253625925,0.0029505198348647186,-0.6499862340404646,0.7599361241576958,0.0,0.0,0.0,0.0,0.0,0.0,0.0,0.0,0.0,0.00018724615585334923,-0.0015163499399020862,0.2550960151167886,0.0,0.0,0.0,0.0,0.0,0.0,0.0,0.0,0.0,0.03576111341798644,-0.03396443341671807,0.0027325184962372117,0.0,0.0,0.0,0.0,0.0,0.0,0.0,0.0,0.0
9.925,284,9,925000000,base_footprint,0.0024915669286633734,0.0029547920945291275,-0.6465312836246051,0.7628776839000067,0.0,0.0,0.0,0.0,0.0,0.0,0.0,0.0,0.0,0.0005624772556386732,-0.0020990275458423894,0.28081086651919673,0.0,0.0,0.0,0.0,0.0,0.0,0.0,0.0,0.0,0.07515396561183631,-0.028343968027588224,-0.0012639511928587057,0.0,0.0,0.0,0.0,0.0,0.0,0.0,0.0,0.0
9.959,285,9,959000000,base_footprint,0.0024793097250492275,0.0029629845574218523,-0.6434597699261101,0.7654701811517135,0.0,0.0,0.0,0.0,0.0,0.0,0.0,0.0,0.0,-0.00027504673592771204,-0.0010114286987973151,0.24485635262557184,0.0,0.0,0.0,0.0,0.0,0.0,0.0,0.0,0.0,0.2810632696638402,0.054779226349562615,0.001709755046310047,0.0,0.0,0.0,0.0,0.0,0.0,0.0,0.0,0.0
9.993,286,9,993000000,base_footprint,0.0024664417900884927,0.002980210401223544,-0.6402620378377868,0.7681468335641729,0.0,0.0,0.0,0.0,0.0,0.0,0.0,0.0,0.0,7.63528770217171e-05,-0.0015933416455317085,0.24094273855261944,0.0,0.0,0.0,0.0,0.0,0.0,0.0,0.0,0.0,0.0033509845114299136,-0.045427854946805665,-0.0011384658595124878,0.0,0.0,0.0,0.0,0.0,0.0,0.0,0.0,0.0
10.027,287,10,27000000,base_footprint,0.0024552480716501634,0.002983896396930598,-0.6373233275687488,0.7705868181171388,0.0,0.0,0.0,0.0,0.0,0.0,0.0,0.0,0.0,0.0012288797680011614,-0.0022201466674808467,0.23401758065658795,0.0,0.0,0.0,0.0,0.0,0.0,0.0,0.0,0.0,0.33549112039381745,0.10029538455957386,-0.0016816457616231101,0.0,0.0,0.0,0.0,0.0,0.0,0.0,0.0,0.0
10.061,288,10,61000000,base_footprint,0.0024441272910562706,0.002995047333611904,-0.6342843008494728,0.7730902157116918,0.0,0.0,0.0,0.0,0.0,0.0,0.0,0.0,0.0,0.0002798944627764723,-0.0015982167031942142,0.23204498277945687,0.0,0.0,0.0,0.0,0.0,0.0,0.0,0.0,0.0,0.004538367891519134,-0.043583420223905406,0.0013036459536230026,0.0,0.0,0.0,0.0,0.0,0.0,0.0,0.0,0.0
10.095,289,10,95000000,base_footprint,0.0024335324799506734,0.0030038047609521334,-0.6312296364296344,0.7755863595819222,0.0,0.0,0.0,0.0,0.0,0.0,0.0,0.0,0.0,0.0003121775726458408,-0.00166531395664301,0.23224309955619254,0.0,0.0,0.0,0.0,0.0,0.0,0.0,0.0,0.0,0.011715811245231222,-0.035408627635817896,-0.00042605404090241864,0.0,0.0,0.0,0.0,0.0,0.0,0.0,0.0,0.0
10.129,290,10,129000000,base_footprint,0.0024254539091997343,0.003010590587331173,-0.6286763775315947,0.7776574219098032,0.0,0.0,0.0,0.0,0.0,0.0,0.0,0.0,0.0,8.59495732644615e-05,-0.001169623017609136,0.1647851333217888,0.0,0.0,0.0,0.0,0.0,0.0,0.0,0.0,0.0,0.3055031433587993,0.10231768413933383,0.00045158734522547373,0.0,0.0,0.0,0.0,0.0,0.0,0.0,0.0,0.0
10.162,291,10,163000000,base_footprint,0.002419215253522703,0.003016290805408336,-0.6265000192045147,0.7794118136929137,0.0,0.0,0.0,0.0,0.0,0.0,0.0,0.0,0.0,-2.5920668333184445e-05,-0.0012043855980107083,0.16435086238186686,0.0,0.0,0.0,0.0,0.0,0.0,0.0,0.0,0.0,0.0057941774742936505,-0.02373481966394722,-0.0002027613207066823,0.0,0.0,0.0,0.0,0.0,0.0,0.0,0.0,0.0
10.197,292,10,197000000,base_footprint,0.0024130938322737094,0.003019952683258231,-0.6243271170586773,0.7811534470058673,0.0,0.0,0.0,0.0,0.0,0.0,0.0,0.0,0.0,-0.003550726744302757,-0.00015601776601956467,0.16027705692370078,0.0,0.0,0.0,0.0,0.0,0.0,0.0,0.0,0.0,-0.00930978421425839,-0.03257954682083216,-0.0001114630382809215,0.0,0.0,0.0,0.0,0.0,0.0,0.0,0.0,0.0
10.231,293,10,231000000,base_footprint,0.0023959612899520635,0.003031582659587099,-0.6219933381171876,0.7830129987515617,0.0,0.0,0.0,0.0,0.0,0.0,0.0,0.0,0.0,0.005136180198927639,-0.0002568264582470351,0.2213010991640365,0.0,0.0,0.0,0.0,0.0,0.0,0.0,0.0,0.0,-0.19379206575828273,-0.12278236993789088,0.0009840185406195647,0.0,0.0,0.0,0.0,0.0,0.0,0.0,0.0,0.0
10.265,294,10,265000000,base_footprint,0.002376346610834567,0.0030365492288735147,-0.6183011229295227,0.7859318378394257,0.0,0.0,0.0,0.0,0.0,0.0,0.0,0.0,0.0,0.0005367606812629804,-0.0017952578607223128,0.2684853821119861,0.0,0.0,0.0,0.0,0.0,0.0,0.0,0.0,0.0,0.3342961170020192,0.12188517322932492,-0.001223674150361205,0.0,0.0,0.0,0.0,0.0,0.0,0.0,0.0,0.0
10.299,295,10,299000000,base_footprint,0.002370345483279305,0.003051056041498431,-0.6149707980879334,0.788540417491971,0.0,0.0,0.0,0.0,0.0,0.0,0.0,0.0,0.0,0.0002218943047119482,-0.003493739500957734,0.258482064842375,0.0,0.0,0.0,0.0,0.0,0.0,0.0,0.0,0.0,0.12566567089527914,0.019747954534050052,-0.004256056428978943,0.0,0.0,0.0,0.0,0.0,0.0,0.0,0.0,0.0
10.333,296,10,333000000,base_footprint,0.002356185349522625,0.00306074826630314,-0.6110180907631986,0.7916072087662824,0.0,0.0,0.0,0.0,0.0,0.0,0.0,0.0,0.0,0.0009131619858808054,-0.0027542370614753787,0.28644242009431164,0.0,0.0,0.0,0.0,0.0,0.0,0.0,0.0,0.0,0.12374550572885412,0.030483276308961617,0.0032150116156967217,0.0,0.0,0.0,0.0,0.0,0.0,0.0,0.0,0.0
10.367,297,10,367000000,base_footprint,0.002344220670976775,0.003073167344849746,-0.6074834313890625,0.7943229449409646,0.0,0.0,0.0,0.0,0.0,0.0,0.0,0.0,0.0,0.0004418107992141038,-0.001708056950436026,0.2334997161833237,0.0,0.0,0.0,0.0,0.0,0.0,0.0,0.0,0.0,0.10937740463846599,0.020658883192589704,0.0005649074948177871,0.0,0.0,0.0,0.0,0.0,0.0,0.0,0.0,0.0
10.401,298,10,401000000,base_footprint,0.002335527954013,0.003084558450707516,-0.6048876626529669,0.7963014167879966,0.0,0.0,0.0,0.0,0.0,0.0,0.0,0.0,0.0,0.0010393381947211944,-0.0011837979806072134,0.1541086955567828,0.0,0.0,0.0,0.0,0.0,0.0,0.0,0.0,0.0,0.18163039835759792,0.07825932897879884,-0.0010550026079308953,0.0,0.0,0.0,0.0,0.0,0.0,0.0,0.0,0.0
10.435,299,10,435000000,base_footprint,0.0023350833958593257,0.0030899393871057185,-0.6029780743330345,0.7977483572742372,0.0,0.0,0.0,0.0,0.0,0.0,0.0,0.0,0.0,-0.00018556923734974013,0.0022882972753129937,0.1535945303123634,0.0,0.0,0.0,0.0,0.0,0.0,0.0,0.0,0.0,0.13782031267013756,0.05954908916108782,0.006408220613179042,0.0,0.0,0.0,0.0,0.0,0.0,0.0,0.0,0.0
10.468,300,10,469000000,base_footprint,0.002321881431323163,0.00309701634192416,-0.6012520593773083,0.7990500475257746,0.0,0.0,0.0,0.0,0.0,0.0,0.0,0.0,0.0,9.993060923522404e-05,-0.0006970432093027887,0.11309294735227166,0.0,0.0,0.0,0.0,0.0,0.0,0.0,0.0,0.0,0.18475370802795235,0.10304892503704609,-0.0046602926360775915,0.0,0.0,0.0,0.0,0.0,0.0,0.0,0.0,0.0
10.503,301,10,503000000,base_footprint,0.002313620917890899,0.0031006531800122908,-0.5998361934343291,0.8001134757984767,0.0,0.0,0.0,0.0,0.0,0.0,0.0,0.0,0.0,-0.003365658227038771,0.005241214681622667,0.0453726887942503,0.0,0.0,0.0,0.0,0.0,0.0,0.0,0.0,0.0,-0.00527483601218781,-0.020188597083501347,0.010226129287768478,0.0,0.0,0.0,0.0,0.0,0.0,0.0,0.0,0.0
10.537,302,10,537000000,base_footprint,0.0023101647660261856,0.003106079871710487,-0.5991954588941706,0.8005934158155367,0.0,0.0,0.0,0.0,0.0,0.0,0.0,0.0,0.0,0.00019928092409407576,-0.00010288651199196922,0.04800375686102927,0.0,0.0,0.0,0.0,0.0,0.0,0.0,0.0,0.0,-0.0011988772288141485,-0.004465320460967774,-0.010397680848880968,0.0,0.0,0.0,0.0,0.0,0.0,0.0,0.0,0.0
10.57,303,10,571000000,base_footprint,0.0023055854363202943,0.0031095670224015916,-0.5985376750674462,0.8010853053162225,0.0,0.0,0.0,0.0,0.0,0.0,0.0,0.0,0.0,-4.338083259689335e-05,-0.00010674753210734926,0.048349770030722675,0.0,0.0,0.0,0.0,0.0,0.0,0.0,0.0,0.0,0.001859438363666035,-0.005292936963364991,0.0003540463941555797,0.0,0.0,0.0,0.0,0.0,0.0,0.0,0.0,0.0
10.605,304,10,605000000,base_footprint,0.002300139626113159,0.0031094899483773432,-0.5979164141398382,0.8015491264620772,0.0,0.0,0.0,0.0,0.0,0.0,0.0,0.0,0.0,-0.0005057214371892423,0.0004472819674645812,0.033428959608956234,0.0,0.0,0.0,0.0,0.0,0.0,0.0,0.0,0.0,0.0027111652933040683,-0.006038628467055987,0.0005584866660632668,0.0,0.0,0.0,0.0,0.0,0.0,0.0,0.0,0.0
10.639,305,10,639000000,base_footprint,0.002298034649944155,0.0031121439497520907,-0.5974442138324683,0.801901144128681,0.0,0.0,0.0,0.0,0.0,0.0,0.0,0.0,0.0,8.804603356056911e-05,3.515985121282996e-06,0.03534598094743821,0.0,0.0,0.0,0.0,0.0,0.0,0.0,0.0,0.0,0.0009648121736275388,-0.0023663888786467297,-0.000886724364111035,0.0,0.0,0.0,0.0,0.0,0.0,0.0,0.0,0.0
10.673,306,10,673000000,base_footprint,0.002295171437120572,0.0031142340799497964,-0.5969422207762216,0.8022749022554067,0.0,0.0,0.0,0.0,0.0,0.0,0.0,0.0,0.0,0.00014155549706151098,-0.00018168593656736468,0.0388300844263807,0.0,0.0,0.0,0.0,0.0,0.0,0.0,0.0,0.0,0.009346204257715568,-0.00327366601102405,-0.0004017953193654023,0.0,0.0,0.0,0.0,0.0,0.0,0.0,0.0,0.0
10.707,307,10,707000000,base_footprint,0.0022936409545165188,0.0031118300887749448,-0.596165993904623,0.8028518938362066,0.0,0.0,0.0,0.0,0.0,0.0,0.0,0.0,0.0,0.0015192697030615412,-0.00175029044936585,0.13335453813275033,0.0,0.0,0.0,0.0,0.0,0.0,0.0,0.0,0.0,-0.06903261475119868,-0.054538534775265164,-0.0026156604796240004,0.0,0.0,0.0,0.0,0.0,0.0,0.0,0.0,0.0
10.741,308,10,741000000,base_footprint,0.0022838140496809333,0.003128919898511581,-0.5929813235078694,0.8052068951670192,0.0,0.0,0.0,0.0,0.0,0.0,0.0,0.0,0.0,5.621639790468321e-05,-0.0011228533764236202,0.19609931144062415,0.0,0.0,0.0,0.0,0.0,0.0,0.0,0.0,0.0,0.013328761849597625,-0.014594780630484324,0.003469265400581986,0.0,0.0,0.0,0.0,0.0,0.0,0.0,0.0,0.0
10.775,309,10,775000000,base_footprint,0.002274315056917868,0.003126503732680697,-0.5905669332403743,0.8069793986394515,0.0,0.0,0.0,0.0,0.0,0.0,0.0,0.0,0.0,0.0005244260821624916,-0.0014099870723818888,0.19435766921776493,0.0,0.0,0.0,0.0,0.0,0.0,0.0,0.0,0.0,0.14498446001627516,0.07224861791115444,-0.001242793118769429,0.0,0.0,0.0,0.0,0.0,0.0,0.0,0.0,0.0
10.809,310,10,809000000,base_footprint,0.002264906034388805,0.0031321622607089813,-0.5880364320248702,0.8088252063157332,0.0,0.0,0.0,0.0,0.0,0.0,0.0,0.0,0.0,0.00015782991221348924,-0.0008502281625633056,0.16118173626455365,0.0,0.0,0.0,0.0,0.0,0.0,0.0,0.0,0.0,0.01950855617930285,-0.013297970253335345,0.00019793264874124738,0.0,0.0,0.0,0.0,0.0,0.0,0.0,0.0,0.0
10.843,311,10,843000000,base_footprint,0.0022574971979042735,0.0031458761477522234,-0.5859752530882585,0.8103196961309875,0.0,0.0,0.0,0.0,0.0,0.0,0.0,0.0,0.0,0.00016339850636933777,-0.001005559534750888,0.1409867524132351,0.0,0.0,0.0,0.0,0.0,0.0,0.0,0.0,0.0,-0.03644932917095393,-0.049628500298912005,-3.7104277939535525e-05,0.0,0.0,0.0,0.0,0.0,0.0,0.0,0.0,0.0
10.877,312,10,877000000,base_footprint,0.0022515144052688524,0.003149188719319766,-0.583990306124374,0.8117514001503496,0.0,0.0,0.0,0.0,0.0,0.0,0.0,0.0,0.0,0.00022090995813429348,-0.0009686112990520244,0.14437278672120302,0.0,0.0,0.0,0.0,0.0,0.0,0.0,0.0,0.0,0.014503792468072117,-0.006986712314542372,-0.00016245913510885704,0.0,0.0,0.0,0.0,0.0,0.0,0.0,0.0,0.0
10.911,313,10,911000000,base_footprint,0.002244813264889497,0.0031530710825969812,-0.5817871005375074,0.8133319055615084,0.0,0.0,0.0,0.0,0.0,0.0,0.0,0.0,0.0,0.0006535346129284918,-0.0017427505974668507,0.18277160635379885,0.0,0.0,0.0,0.0,0.0,0.0,0.0,0.0,0.0,0.020559760982583043,-0.0025569315487224686,-0.0011768324651299411,0.0,0.0,0.0,0.0,0.0,0.0,0.0,0.0,0.0
10.945,314,10,945000000,base_footprint,0.0022361505809746518,0.0031597289205952017,-0.5792803711396088,0.8151191737139328,0.0,0.0,0.0,0.0,0.0,0.0,0.0,0.0,0.0,0.00031805241522195175,-0.0013092155037683552,0.18122378363763186,0.0,0.0,0.0,0.0,0.0,0.0,0.0,0.0,0.0,0.008822059934940844,-0.023065257308890686,0.0007352746202128446,0.0,0.0,0.0,0.0,0.0,0.0,0.0,0.0,0.0
10.979,315,10,979000000,base_footprint,0.0022280679520032673,0.003165639007880914,-0.5767701152227027,0.8168973305311158,0.0,0.0,0.0,0.0,0.0,0.0,0.0,0.0,0.0,0.0003358836179378745,-0.0013216469318808265,0.18084609596995002,0.0,0.0,0.0,0.0,0.0,0.0,0.0,0.0,0.0,0.012305353176790546,-0.016633521228523736,-0.00019444651542766878,0.0,0.0,0.0,0.0,0.0,0.0,0.0,0.0,0.0
11.013,316,11,13000000,base_footprint,0.00221815997271778,0.0031725040791666537,-0.5740470552757087,0.8188131614193136,0.0,0.0,0.0,0.0,0.0,0.0,0.0,0.0,0.0,0.001108101012416904,-0.002847149316809168,0.21334171518172745,0.0,0.0,0.0,0.0,0.0,0.0,0.0,0.0,0.0,0.01728066317566745,-0.010692818247305344,-0.002270224899988844,0.0,0.0,0.0,0.0,0.0,0.0,0.0,0.0,0.0
11.047,317,11,47000000,base_footprint,0.0022083685609171366,0.0031786061971974017,-0.5710888254476854,0.8208791464154305,0.0,0.0,0.0,0.0,0.0,0.0,0.0,0.0,0.0,0.0002680574026978633,-0.0015377450982104863,0.2117050365088312,0.0,0.0,0.0,0.0,0.0,0.0,0.0,0.0,0.0,0.0194557787668657,-0.018102994025232976,0.0023253586225906874,0.0,0.0,0.0,0.0,0.0,0.0,0.0,0.0,0.0
11.081,318,11,81000000,base_footprint,0.002197122580784759,0.0031844708375641582,-0.5681467350248633,0.8229181728935371,0.0,0.0,0.0,0.0,0.0,0.0,0.0,0.0,0.0,0.0002761401900544427,-0.0013759406689896772,0.20943783873577504,0.0,0.0,0.0,0.0,0.0,0.0,0.0,0.0,0.0,0.017563270773429427,-0.017025826577334823,9.7011200656928e-06,0.0,0.0,0.0,0.0,0.0,0.0,0.0,0.0,0.0
11.115,319,11,115000000,base_footprint,0.0021790183251354338,0.003191121453506741,-0.5651798193944546,0.8249586901004555,0.0,0.0,0.0,0.0,0.0,0.0,0.0,0.0,0.0,0.0004132615166589341,-0.0010386538930109153,0.21228009960064081,0.0,0.0,0.0,0.0,0.0,0.0,0.0,0.0,0.0,0.0360472045616616,-0.0032088668962590144,0.00011536107675004802,0.0,0.0,0.0,0.0,0.0,0.0,0.0,0.0,0.0
11.149000000000001,320,11,149000000,base_footprint,0.0021697632532553263,0.0031979577847139214,-0.562329216033313,0.8269044188954319,0.0,0.0,0.0,0.0,0.0,0.0,0.0,0.0,0.0,-9.565465602942038e-05,-0.0014758300872342973,0.1995156089819048,0.0,0.0,0.0,0.0,0.0,0.0,0.0,0.0,0.0,0.03200292395447438,0.00022408634310833696,-0.0004700172406893303,0.0,0.0,0.0,0.0,0.0,0.0,0.0,0.0,0.0
11.183,321,11,183000000,base_footprint,0.0021614066341253927,0.0032058648627957026,-0.5594226520999848,0.8288735410599515,0.0,0.0,0.0,0.0,0.0,0.0,0.0,0.0,0.0,0.00046647354088043464,-0.0024198180161456215,0.21798115753053937,0.0,0.0,0.0,0.0,0.0,0.0,0.0,0.0,0.0,-0.014112899604253527,-0.043664550176536386,-0.0014199642481189363,0.0,0.0,0.0,0.0,0.0,0.0,0.0,0.0,0.0
11.217,322,11,217000000,base_footprint,0.0021459835907239994,0.00321253921070558,-0.5568959496456329,0.8305732813030628,0.0,0.0,0.0,0.0,0.0,0.0,0.0,0.0,0.0,4.900278349394933e-05,-0.00214160018618351,0.13848991995311502,0.0,0.0,0.0,0.0,0.0,0.0,0.0,0.0,0.0,0.006004936151511564,-0.022201613957953763,-0.0004166389172664116,0.0,0.0,0.0,0.0,0.0,0.0,0.0,0.0,0.0
11.251,323,11,251000000,base_footprint,0.0021407423185254735,0.003218417458550829,-0.5548830703349407,0.8319193694505841,0.0,0.0,0.0,0.0,0.0,0.0,0.0,0.0,0.0,0.00021121725136387997,-0.000910295410865291,0.1420281134219675,0.0,0.0,0.0,0.0,0.0,0.0,0.0,0.0,0.0,0.004268319305119396,-0.021136651714129803,0.0012020243535471229,0.0,0.0,0.0,0.0,0.0,0.0,0.0,0.0,0.0
11.285,324,11,285000000,base_footprint,0.0021316246485556145,0.0032235316406771983,-0.5528753557183128,0.8332550066213034,0.0,0.0,0.0,0.0,0.0,0.0,0.0,0.0,0.0,0.0002513781097713929,-0.0009564564087140915,0.14160945938693537,0.0,0.0,0.0,0.0,0.0,0.0,0.0,0.0,0.0,0.010447355452070385,-0.012873061125060103,-0.00023067908068600399,0.0,0.0,0.0,0.0,0.0,0.0,0.0,0.0,0.0
11.319,325,11,319000000,base_footprint,0.002125472865687907,0.003228073648032057,-0.5514050022559004,0.8342287368538625,0.0,0.0,0.0,0.0,0.0,0.0,0.0,0.0,0.0,-4.4034692481884625e-05,-0.00030722177590901563,0.08095245332772247,0.0,0.0,0.0,0.0,0.0,0.0,0.0,0.0,0.0,-0.0041877231887866,-0.022852077605493813,-7.2486860893848515e-06,0.0,0.0,0.0,0.0,0.0,0.0,0.0,0.0,0.0
11.353,326,11,353000000,base_footprint,0.0021198383055002503,0.0032314546987104015,-0.5502539197165831,0.834988435741852,0.0,0.0,0.0,0.0,0.0,0.0,0.0,0.0,0.0,0.0001086787995167267,-0.00041205624767511083,0.08098120403467317,0.0,0.0,0.0,0.0,0.0,0.0,0.0,0.0,0.0,0.005056090845789449,-0.007308272643971494,-5.542467454215383e-05,0.0,0.0,0.0,0.0,0.0,0.0,0.0,0.0,0.0
11.387,327,11,387000000,base_footprint,0.0021140522381351994,0.003235150096111669,-0.5491026452018989,0.8357459839085484,0.0,0.0,0.0,0.0,0.0,0.0,0.0,0.0,0.0,0.00014261524902951564,-0.0004272470111001996,0.08091857262635369,0.0,0.0,0.0,0.0,0.0,0.0,0.0,0.0,0.0,0.004809949384499052,-0.00848783638653452,-0.00014347851932704754,0.0,0.0,0.0,0.0,0.0,0.0,0.0,0.0,0.0
11.421,328,11,421000000,base_footprint,0.0021131740579744237,0.003236803086777263,-0.549079644104126,0.8357610914798944,0.0,0.0,0.0,0.0,0.0,0.0,0.0,0.0,0.0,-0.0003868990179420747,0.0010449363446820947,-0.047630138973659,0.0,0.0,0.0,0.0,0.0,0.0,0.0,0.0,0.0,-0.024278068614942194,-0.0299265821760666,-3.258707261418077e-05,0.0,0.0,0.0,0.0,0.0,0.0,0.0,0.0,0.0
11.455,329,11,455000000,base_footprint,0.0021149295399291545,0.003237292992300865,-0.5497469114590411,0.8353223212319713,0.0,0.0,0.0,0.0,0.0,0.0,0.0,0.0,0.0,-0.00016191581713528104,0.000455614137519709,-0.0470713711154032,0.0,0.0,0.0,0.0,0.0,0.0,0.0,0.0,0.0,-0.005573215417345628,0.004253148760607591,-0.0002410606582416607,0.0,0.0,0.0,0.0,0.0,0.0,0.0,0.0,0.0
