Time,header.seq,header.stamp.secs,header.stamp.nsecs,header.frame_id,orientation.x,orientation.y,orientation.z,orientation.w,orientation_covariance_0,orientation_covariance_1,orientation_covariance_2,orientation_covariance_3,orientation_covariance_4,orientation_covariance_5,orientation_covariance_6,orientation_covariance_7,orientation_covariance_8,angular_velocity.x,angular_velocity.y,angular_velocity.z,angular_velocity_covariance_0,angular_velocity_covariance_1,angular_velocity_covariance_2,angular_velocity_covariance_3,angular_velocity_covariance_4,angular_velocity_covariance_5,angular_velocity_covariance_6,angular_velocity_covariance_7,angular_velocity_covariance_8,linear_acceleration.x,linear_acceleration.y,linear_acceleration.z,linear_acceleration_covariance_0,linear_acceleration_covariance_1,linear_acceleration_covariance_2,linear_acceleration_covariance_3,linear_acceleration_covariance_4,linear_acceleration_covariance_5,linear_acceleration_covariance_6,linear_acceleration_covariance_7,linear_acceleration_covariance_8
0.307,0,0,307000000,base_footprint,-7.195012902793636e-06,-0.0013205943660939364,-1.2669240042843976e-06,0.9999991279881933,0.0,0.0,0.0,0.0,0.0,0.0,0.0,0.0,0.0,-9.4731549170659e-05,-0.1572551524284278,-7.655572349462643e-05,0.0,0.0,0.0,0.0,0.0,0.0,0.0,0.0,0.0,0.0035682639773425492,3.028945316292742e-06,-0.13950669682808645,0.0,0.0,0.0,0.0,0.0,0.0,0.0,0.0,0.0
0.339,1,0,341000000,base_footprint,-2.0920645364970743e-05,-0.0009557442394194992,-2.164812715168356e-06,0.9999995430551901,0.0,0.0,0.0,0.0,0.0,0.0,0.0,0.0,0.0,-0.00044788862142863383,0.047663647742827,-5.327492679830863e-05,0.0,0.0,0.0,0.0,0.0,0.0,0.0,0.0,0.0,-0.002035652395765604,-0.00015144757451693547,0.00521080173495066,0.0,0.0,0.0,0.0,0.0,0.0,0.0,0.0,0.0
0.375,2,0,375000000,base_footprint,-2.8651775830226185e-05,-0.00014287503682712104,-2.457840540340542e-06,0.9999999893798792,0.0,0.0,0.0,0.0,0.0,0.0,0.0,0.0,0.0,-0.00044259805576149237,0.04764119308323063,-9.106831882211839e-06,0.0,0.0,0.0,0.0,0.0,0.0,0.0,0.0,0.0,-0.00021069393024244275,0.00012313804738692686,6.599517083409616e-05,0.0,0.0,0.0,0.0,0.0,0.0,0.0,0.0,0.0
0.40900000000000003,3,0,409000000,base_footprint,-3.948730651014874e-05,0.0009421270284266175,-2.900486136790663e-06,0.9999995554144023,0.0,0.0,0.0,0.0,0.0,0.0,0.0,0.0,0.0,-0.0006059481299610024,0.06780451068404024,-2.6152286051810087e-05,0.0,0.0,0.0,0.0,0.0,0.0,0.0,0.0,0.0,-0.0011837450600280497,-2.9699548236627504e-05,0.0029826420407079984,0.0,0.0,0.0,0.0,0.0,0.0,0.0,0.0,0.0
0.443,4,0,443000000,base_footprint,-4.997031448199766e-05,0.002096602375733077,-3.007172487768187e-06,0.9999978008737834,0.0,0.0,0.0,0.0,0.0,0.0,0.0,0.0,0.0,-0.0006029471083406993,0.06772900658379967,-4.679225483350079e-06,0.0,0.0,0.0,0.0,0.0,0.0,0.0,0.0,0.0,-0.00023008493957297728,3.925007384838131e-05,0.00015055564019487706,0.0,0.0,0.0,0.0,0.0,0.0,0.0,0.0,0.0
0.47700000000000004,5,0,477000000,base_footprint,-6.042685521681861e-05,0.003249782969046227,-2.9057479841883267e-06,0.9999947176114512,0.0,0.0,0.0,0.0,0.0,0.0,0.0,0.0,0.0,-0.0006023657487698311,0.067652941357675,2.0343155131389558e-06,0.0,0.0,0.0,0.0,0.0,0.0,0.0,0.0,0.0,-0.0002321498774936943,1.0445087183622883e-05,0.00015292055267006945,0.0,0.0,0.0,0.0,0.0,0.0,0.0,0.0,0.0
0.511,6,0,511000000,base_footprint,-7.932548802377193e-06,0.003889721163947406,-8.7052112339118e-06,0.9999924349366653,0.0,0.0,0.0,0.0,0.0,0.0,0.0,0.0,0.0,-2.737703235035689e-05,-0.029943199273441478,-0.0005997430158057058,0.0,0.0,0.0,0.0,0.0,0.0,0.0,0.0,0.0,0.00790499039641397,0.00545349587854644,0.13093151938200157,0.0,0.0,0.0,0.0,0.0,0.0,0.0,0.0,0.0
0.545,7,0,545000000,base_footprint,-7.181738671418468e-06,0.0038605051997693354,-1.404875038230953e-05,0.9999925480975635,0.0,0.0,0.0,0.0,0.0,0.0,0.0,0.0,0.0,4.532659342271522e-05,0.00010366543804642111,7.13636115765694e-05,0.0,0.0,0.0,0.0,0.0,0.0,0.0,0.0,0.0,-0.006217682076939652,-0.005318612341963982,0.00078992738899322,0.0,0.0,0.0,0.0,0.0,0.0,0.0,0.0,0.0
0.5820000000000001,8,0,579000000,base_footprint,-7.3136023745149e-06,0.0038607285928495814,-1.0710353512423632e-05,0.9999925472754946,0.0,0.0,0.0,0.0,0.0,0.0,0.0,0.0,0.0,3.154995258945818e-05,-0.00019274203693758462,0.00028416620908563496,0.0,0.0,0.0,0.0,0.0,0.0,0.0,0.0,0.0,-5.058267591265966e-05,0.00041508775782815176,0.0002973361394818355,0.0,0.0,0.0,0.0,0.0,0.0,0.0,0.0,0.0
0.613,9,0,613000000,base_footprint,-7.371494978942929e-06,0.00386062314728806,-5.736078650808199e-06,0.9999925477230683,0.0,0.0,0.0,0.0,0.0,0.0,0.0,0.0,0.0,3.440089573971314e-05,-0.00018096476698646507,0.00032823725103891133,0.0,0.0,0.0,0.0,0.0,0.0,0.0,0.0,0.0,-1.3199322221262234e-05,8.655223087666995e-05,-1.82638329612707e-05,0.0,0.0,0.0,0.0,0.0,0.0,0.0,0.0,0.0
0.647,10,0,647000000,base_footprint,-7.4075689312265086e-06,0.003860599629747109,-3.572622020457844e-07,0.9999925478299823,0.0,0.0,0.0,0.0,0.0,0.0,0.0,0.0,0.0,3.512120546734183e-05,-0.00017906480923561357,0.00033968899921967043,0.0,0.0,0.0,0.0,0.0,0.0,0.0,0.0,0.0,-3.3792037786580876e-06,2.253557582593035e-05,-3.400395402451263e-06,0.0,0.0,0.0,0.0,0.0,0.0,0.0,0.0,0.0
0.681,11,0,681000000,base_footprint,-7.436620307205647e-06,0.0038605935220502184,5.127256096281536e-06,0.9999925478402654,0.0,0.0,0.0,0.0,0.0,0.0,0.0,0.0,0.0,3.534481382357963e-05,-0.00017855479426682485,0.0003427309199690638,0.0,0.0,0.0,0.0,0.0,0.0,0.0,0.0,0.0,-9.04622858023402e-07,5.982444741158724e-06,-9.014568262274346e-07,0.0,0.0,0.0,0.0,0.0,0.0,0.0,0.0,0.0
0.7150000000000001,12,0,715000000,base_footprint,-7.4634479845375466e-06,0.0038605921048391065,1.063993310449388e-05,0.9999925478020769,0.0,0.0,0.0,0.0,0.0,0.0,0.0,0.0,0.0,3.542974890636687e-05,-0.00017841884788321298,0.00034354874937337693,0.0,0.0,0.0,0.0,0.0,0.0,0.0,0.0,0.0,-2.49785910515854e-07,1.6045921480741352e-06,-2.344532897834129e-07,0.0,0.0,0.0,0.0,0.0,0.0,0.0,0.0,0.0
0.748,13,0,749000000,base_footprint,-7.489355332249326e-06,0.0038605919303945834,1.6160241412581638e-05,0.9999925477285835,0.0,0.0,0.0,0.0,0.0,0.0,0.0,0.0,0.0,3.547615409807973e-05,-0.0001783821305101518,0.0003437777654742394,0.0,0.0,0.0,0.0,0.0,0.0,0.0,0.0,0.0,-7.63869292473299e-08,4.4552201449910684e-07,-5.820034410522348e-08,0.0,0.0,0.0,0.0,0.0,0.0,0.0,0.0,0.0
0.785,14,0,783000000,base_footprint,-7.514718281337294e-06,0.0038605920873687866,2.1682746728586995e-05,0.9999925476232924,0.0,0.0,0.0,0.0,0.0,0.0,0.0,0.0,0.0,3.551061944922465e-05,-0.00017837168473892263,0.0003438509244594719,0.0,0.0,0.0,0.0,0.0,0.0,0.0,0.0,0.0,-3.0478668024329954e-08,1.3865806922075678e-07,-1.2030355491391373e-08,0.0,0.0,0.0,0.0,0.0,0.0,0.0,0.0,0.0
0.8170000000000001,15,0,817000000,base_footprint,-7.53966435107375e-06,0.003860592334252822,2.7206010397420806e-05,0.9999925474871376,0.0,0.0,0.0,0.0,0.0,0.0,0.0,0.0,0.0,3.554034723359158e-05,-0.00017836820601103403,0.00034388283920255163,0.0,0.0,0.0,0.0,0.0,0.0,0.0,0.0,0.0,-1.832494514049092e-08,5.739659288153101e-08,-2.406115694562017e-10,0.0,0.0,0.0,0.0,0.0,0.0,0.0,0.0,0.0
0.8520000000000001,16,0,851000000,base_footprint,-7.564252699149768e-06,0.0038605926069081252,3.2729651515824795e-05,0.9999925473203667,0.0,0.0,0.0,0.0,0.0,0.0,0.0,0.0,0.0,3.556739028121525e-05,-0.00017836658261604737,0.00034390384919611144,0.0,0.0,0.0,0.0,0.0,0.0,0.0,0.0,0.0,-1.5108199860755175e-08,3.5859996298264994e-08,2.4882078273178727e-09,0.0,0.0,0.0,0.0,0.0,0.0,0.0,0.0,0.0
0.886,17,0,885000000,base_footprint,-7.588522027644957e-06,0.003860592888167663,3.825356919733638e-05,0.9999925471230426,0.0,0.0,0.0,0.0,0.0,0.0,0.0,0.0,0.0,3.559242500447297e-05,-0.0001783654604692022,0.00034392198441390214,0.0,0.0,0.0,0.0,0.0,0.0,0.0,0.0,0.0,-1.4257537248644332e-08,3.0135510784434726e-08,2.854692452054879e-09,0.0,0.0,0.0,0.0,0.0,0.0,0.0,0.0,0.0
0.919,18,0,919000000,base_footprint,-7.612503483058656e-06,0.003860593173315947,4.377773669063034e-05,0.9999925468951805,0.0,0.0,0.0,0.0,0.0,0.0,0.0,0.0,0.0,3.561575106243786e-05,-0.0001783644800185247,0.00034393937007803633,0.0,0.0,0.0,0.0,0.0,0.0,0.0,0.0,0.0,-1.4033527509719627e-08,2.860014564937602e-08,2.6288264757722964e-09,0.0,0.0,0.0,0.0,0.0,0.0,0.0,0.0,0.0
0.9530000000000001,19,0,953000000,base_footprint,-7.636224270219415e-06,0.003860593460948828,4.930214687441266e-05,0.9999925466367816,0.0,0.0,0.0,0.0,0.0,0.0,0.0,0.0,0.0,3.5637557074440374e-05,-0.00017836354548132093,0.0003439565677847456,0.0,0.0,0.0,0.0,0.0,0.0,0.0,0.0,0.0,-1.3975439484783303e-08,2.817566615311079e-08,2.2764576759420337e-09,0.0,0.0,0.0,0.0,0.0,0.0,0.0,0.0,0.0
0.9870000000000001,20,0,987000000,base_footprint,-7.659708789103101e-06,0.0038605937505539,5.482679782748661e-05,0.9999925463478437,0.0,0.0,0.0,0.0,0.0,0.0,0.0,0.0,0.0,3.5657992144632015e-05,-0.00017836263058239373,0.0003439737245970977,0.0,0.0,0.0,0.0,0.0,0.0,0.0,0.0,0.0,-1.3961106066364728e-08,2.804564355848193e-08,1.917391724327771e-09,0.0,0.0,0.0,0.0,0.0,0.0,0.0,0.0,0.0
1.022,21,1,21000000,base_footprint,-7.68297909979738e-06,0.003860594041867657,6.0351689008168545e-05,0.999992546028364,0.0,0.0,0.0,0.0,0.0,0.0,0.0,0.0,0.0,3.5677185779742844e-05,-0.00017836172762445354,0.0003439908792990845,0.0,0.0,0.0,0.0,0.0,0.0,0.0,0.0,0.0,-1.3958573179049726e-08,2.7996471259190907e-08,1.5811768551653677e-09,0.0,0.0,0.0,0.0,0.0,0.0,0.0,0.0,0.0
1.055,22,1,55000000,base_footprint,-7.7060551937383e-06,0.0038605943347039305,6.587682024326256e-05,0.9999925456783386,0.0,0.0,0.0,0.0,0.0,0.0,0.0,0.0,0.0,3.569525386525497e-05,-0.00017836083395025742,0.00034400804093636566,0.0,0.0,0.0,0.0,0.0,0.0,0.0,0.0,0.0,-1.3959035471160441e-08,2.7969223127101776e-08,1.273660627214657e-09,0.0,0.0,0.0,0.0,0.0,0.0,0.0,0.0,0.0
1.089,23,1,89000000,base_footprint,-7.728955200177022e-06,0.0038605946289074025,7.140219146237753e-05,0.9999925452977645,0.0,0.0,0.0,0.0,0.0,0.0,0.0,0.0,0.0,3.571230118806423e-05,-0.00017835994857608102,0.00034402521210433656,0.0,0.0,0.0,0.0,0.0,0.0,0.0,0.0,0.0,-1.3960554838619022e-08,2.7950787896338313e-08,9.94081356727873e-10,0.0,0.0,0.0,0.0,0.0,0.0,0.0,0.0,0.0
1.123,24,1,123000000,base_footprint,-7.751695562638313e-06,0.003860594924341959,7.692780263001832e-05,0.999992544886638,0.0,0.0,0.0,0.0,0.0,0.0,0.0,0.0,0.0,3.5728422578655154e-05,-0.00017835907037967133,0.00034404239204961155,0.0,0.0,0.0,0.0,0.0,0.0,0.0,0.0,0.0,-1.3962134005750261e-08,2.793426144190679e-08,7.400329989810547e-10,0.0,0.0,0.0,0.0,0.0,0.0,0.0,0.0,0.0
1.157,25,1,157000000,base_footprint,-7.774291196849367e-06,0.0038605952208842506,8.245365371300305e-05,0.9999925444449553,0.0,0.0,0.0,0.0,0.0,0.0,0.0,0.0,0.0,3.574370408163257e-05,-0.00017835819868794955,0.0003440595804337125,0.0,0.0,0.0,0.0,0.0,0.0,0.0,0.0,0.0,-1.396385986503429e-08,2.7920125780388664e-08,5.09565264927724e-10,0.0,0.0,0.0,0.0,0.0,0.0,0.0,0.0,0.0
1.191,26,1,191000000,base_footprint,-7.796755632901803e-06,0.0038605955184227727,8.79797446887511e-05,0.999992543972713,0.0,0.0,0.0,0.0,0.0,0.0,0.0,0.0,0.0,3.5758223849073947e-05,-0.0001783573329854456,0.0003440767762674025,0.0,0.0,0.0,0.0,0.0,0.0,0.0,0.0,0.0,-1.3965513977958983e-08,2.790683768765086e-08,3.00537911650861e-10,0.0,0.0,0.0,0.0,0.0,0.0,0.0,0.0,0.0
1.225,27,1,225000000,base_footprint,-7.819101144306649e-06,0.0038605958168557745,9.350607553726868e-05,0.9999925434699074,0.0,0.0,0.0,0.0,0.0,0.0,0.0,0.0,0.0,3.5772052595015077e-05,-0.00017835647255429294,0.0003440939793849888,0.0,0.0,0.0,0.0,0.0,0.0,0.0,0.0,0.0,-1.3967327654520125e-08,2.789573355363583e-08,1.1074313414679489e-10,0.0,0.0,0.0,0.0,0.0,0.0,0.0,0.0,0.0
1.26,28,1,259000000,base_footprint,-7.84133886413046e-06,0.003860596116092416,9.903264624201958e-05,0.9999925429365346,0.0,0.0,0.0,0.0,0.0,0.0,0.0,0.0,0.0,3.578525449120668e-05,-0.00017835561695740852,0.0003441111890204468,0.0,0.0,0.0,0.0,0.0,0.0,0.0,0.0,0.0,-1.3969098200054383e-08,2.7885404609039494e-08,-6.134020440050729e-11,0.0,0.0,0.0,0.0,0.0,0.0,0.0,0.0,0.0
1.292,29,1,293000000,base_footprint,-7.863478891276505e-06,0.0038605964160487722,0.00010455945678854406,0.999992542372591,0.0,0.0,0.0,0.0,0.0,0.0,0.0,0.0,0.0,3.579788789197739e-05,-0.00017835476583513314,0.00034412840475853785,0.0,0.0,0.0,0.0,0.0,0.0,0.0,0.0,0.0,-1.397090906962757e-08,2.787634356420553e-08,-2.1752767729648032e-10,0.0,0.0,0.0,0.0,0.0,0.0,0.0,0.0,0.0
1.327,30,1,327000000,base_footprint,-7.885530386481984e-06,0.0038605967166494264,0.00011008650716660101,0.9999925417780728,0.0,0.0,0.0,0.0,0.0,0.0,0.0,0.0,0.0,3.581000555236456e-05,-0.00017835391858877372,0.0003441456258745132,0.0,0.0,0.0,0.0,0.0,0.0,0.0,0.0,0.0,-1.397266461128841e-08,2.7867734506790956e-08,-3.59176935638032e-10,0.0,0.0,0.0,0.0,0.0,0.0,0.0,0.0,0.0
1.361,31,1,361000000,base_footprint,-7.907501659711785e-06,0.003860597017825254,0.00011561379736821314,0.9999925411529765,0.0,0.0,0.0,0.0,0.0,0.0,0.0,0.0,0.0,3.582165548033114e-05,-0.00017835307499305974,0.0003441628525998657,0.0,0.0,0.0,0.0,0.0,0.0,0.0,0.0,0.0,-1.3974616981656939e-08,2.7861282961257396e-08,-4.874956345106494e-10,0.0,0.0,0.0,0.0,0.0,0.0,0.0,0.0,0.0
1.396,32,1,395000000,base_footprint,-7.929400248570826e-06,0.0038605973195148095,0.00012114132738492518,0.999992540497298,0.0,0.0,0.0,0.0,0.0,0.0,0.0,0.0,0.0,3.5832881124959154e-05,-0.00017835223461067513,0.00034418008350847913,0.0,0.0,0.0,0.0,0.0,0.0,0.0,0.0,0.0,-1.3976283202097958e-08,2.7853588538662702e-08,-6.044275610982226e-10,0.0,0.0,0.0,0.0,0.0,0.0,0.0,0.0,0.0
1.431,33,1,429000000,base_footprint,-7.95123299109325e-06,0.003860597621660391,0.00012666909721135636,0.9999925398110335,0.0,0.0,0.0,0.0,0.0,0.0,0.0,0.0,0.0,3.584372193167371e-05,-0.00017835139722333722,0.0003441973192896612,0.0,0.0,0.0,0.0,0.0,0.0,0.0,0.0,0.0,-1.3978255728622908e-08,2.784863934136558e-08,-7.100509367043011e-10,0.0,0.0,0.0,0.0,0.0,0.0,0.0,0.0,0.0
1.463,34,1,463000000,base_footprint,-7.97300608972386e-06,0.0038605979242116437,0.0001321971068463044,0.9999925390941794,0.0,0.0,0.0,0.0,0.0,0.0,0.0,0.0,0.0,3.585421370409894e-05,-0.00017835056237971167,0.0003442145591970553,0.0,0.0,0.0,0.0,0.0,0.0,0.0,0.0,0.0,-1.398011856652245e-08,2.784350373662374e-08,-8.060466536011563e-10,0.0,0.0,0.0,0.0,0.0,0.0,0.0,0.0,0.0
1.497,35,1,497000000,base_footprint,-7.994725170640532e-06,0.003860598227121376,0.00013772535628769165,0.9999925383467316,0.0,0.0,0.0,0.0,0.0,0.0,0.0,0.0,0.0,3.586438875767491e-05,-0.00017834973003846835,0.00034423180257463833,0.0,0.0,0.0,0.0,0.0,0.0,0.0,0.0,0.0,-1.3981872761446012e-08,2.783823982920913e-08,-8.931358845428507e-10,0.0,0.0,0.0,0.0,0.0,0.0,0.0,0.0,0.0
1.5310000000000001,36,1,531000000,base_footprint,-8.016395337617276e-06,0.0038605985303473943,0.0001432538455338694,0.9999925375686864,0.0,0.0,0.0,0.0,0.0,0.0,0.0,0.0,0.0,3.587427676357702e-05,-0.00017834889978101634,0.00034424904955509644,0.0,0.0,0.0,0.0,0.0,0.0,0.0,0.0,0.0,-1.3983756476157951e-08,2.7834283265688236e-08,-9.721504351153602e-10,0.0,0.0,0.0,0.0,0.0,0.0,0.0,0.0,0.0
1.565,37,1,565000000,base_footprint,-8.038021220385756e-06,0.0038605988338513797,0.00014878257458675873,0.99999253676004,0.0,0.0,0.0,0.0,0.0,0.0,0.0,0.0,0.0,3.588390418016562e-05,-0.00017834807151319526,0.00034426629999209635,0.0,0.0,0.0,0.0,0.0,0.0,0.0,0.0,0.0,-1.3985670729420758e-08,2.7830976175389198e-08,-1.0439563032909575e-09,0.0,0.0,0.0,0.0,0.0,0.0,0.0,0.0,0.0
1.5990000000000002,38,1,599000000,base_footprint,-8.059607018307566e-06,0.0038605991375983517,0.0001543115434482699,0.9999925359207884,0.0,0.0,0.0,0.0,0.0,0.0,0.0,0.0,0.0,3.589329547161946e-05,-0.0001783472448801174,0.0003442835535316543,0.0,0.0,0.0,0.0,0.0,0.0,0.0,0.0,0.0,-1.3987554854073643e-08,2.7827849080624862e-08,-1.109113402618881e-09,0.0,0.0,0.0,0.0,0.0,0.0,0.0,0.0,0.0
1.633,39,1,633000000,base_footprint,-8.08115654092651e-06,0.0038605994415566625,0.0001598407521198206,0.9999925350509278,0.0,0.0,0.0,0.0,0.0,0.0,0.0,0.0,0.0,3.590247243059957e-05,-0.00017834641988753088,0.00034430080982295394,0.0,0.0,0.0,0.0,0.0,0.0,0.0,0.0,0.0,-1.3989388697641761e-08,2.7824819068871082e-08,-1.1679980572970698e-09,0.0,0.0,0.0,0.0,0.0,0.0,0.0,0.0,0.0
1.6680000000000001,40,1,667000000,base_footprint,-8.10267324357829e-06,0.0038605997456977823,0.00016537020061126384,0.9999925341504542,0.0,0.0,0.0,0.0,0.0,0.0,0.0,0.0,0.0,3.5911455007698744e-05,-0.0001783455961861318,0.00034431806918148745,0.0,0.0,0.0,0.0,0.0,0.0,0.0,0.0,0.0,-1.3991382816780018e-08,2.7823096972508326e-08,-1.2217834076800078e-09,0.0,0.0,0.0,0.0,0.0,0.0,0.0,0.0,0.0
1.701,41,1,701000000,base_footprint,-8.124160260953156e-06,0.00386060004999532,0.00017089988892428115,0.9999925332193637,0.0,0.0,0.0,0.0,0.0,0.0,0.0,0.0,0.0,3.5920261377207836e-05,-0.0001783447738239272,0.0003443353306259959,0.0,0.0,0.0,0.0,0.0,0.0,0.0,0.0,0.0,-1.3993130515899667e-08,2.7820121098496865e-08,-1.2703553011213557e-09,0.0,0.0,0.0,0.0,0.0,0.0,0.0,0.0,0.0
1.7360000000000002,42,1,735000000,base_footprint,-8.145620436564352e-06,0.0038606003544258,0.00017642981706372866,0.9999925322576524,0.0,0.0,0.0,0.0,0.0,0.0,0.0,0.0,0.0,3.5928907860836643e-05,-0.00017834395263045423,0.00034435259487814357,0.0,0.0,0.0,0.0,0.0,0.0,0.0,0.0,0.0,-1.3995139417832011e-08,2.7819120588372436e-08,-1.3144408883378654e-09,0.0,0.0,0.0,0.0,0.0,0.0,0.0,0.0,0.0
1.77,43,1,769000000,base_footprint,-8.167056349522796e-06,0.003860600658967363,0.0001819599850355101,0.9999925312653165,0.0,0.0,0.0,0.0,0.0,0.0,0.0,0.0,0.0,3.5937409407374144e-05,-0.00017834313237130784,0.0003443698609838577,0.0,0.0,0.0,0.0,0.0,0.0,0.0,0.0,0.0,-1.3996912884335272e-08,2.7816802248430813e-08,-1.3546385877206396e-09,0.0,0.0,0.0,0.0,0.0,0.0,0.0,0.0,0.0
1.803,44,1,803000000,base_footprint,-7.984453807302715e-06,0.0038553718961245437,0.00019010835714699284,0.9999925499235501,0.0,0.0,0.0,0.0,0.0,0.0,0.0,0.0,0.0,4.3483306345198446e-05,-0.00020353975260591604,0.00042872401944021627,0.0,0.0,0.0,0.0,0.0,0.0,0.0,0.0,0.0,0.6917015117259651,0.00042391844455778253,-0.005318360684684085,0.0,0.0,0.0,0.0,0.0,0.0,0.0,0.0,0.0
1.836,45,1,837000000,base_footprint,-8.063951341007074e-06,0.0038558503804657328,0.0001990424005582146,0.999992546339691,0.0,0.0,0.0,0.0,0.0,0.0,0.0,0.0,0.0,4.174054734040904e-05,-0.00010487020349857647,0.0006224304553286767,0.0,0.0,0.0,0.0,0.0,0.0,0.0,0.0,0.0,0.7860099580265896,0.000688700792992903,-0.006186263279886772,0.0,0.0,0.0,0.0,0.0,0.0,0.0,0.0,0.0
1.871,46,1,871000000,base_footprint,-8.18084539084274e-06,0.003856618100163279,0.00021050543585356322,0.9999925410308643,0.0,0.0,0.0,0.0,0.0,0.0,0.0,0.0,0.0,4.092515083551348e-05,-7.392915786478257e-05,0.0007776891439235051,0.0,0.0,0.0,0.0,0.0,0.0,0.0,0.0,0.0,0.7852920415773382,0.0006318453999595125,-0.006100392618530472,0.0,0.0,0.0,0.0,0.0,0.0,0.0,0.0,0.0
1.905,47,1,905000000,base_footprint,-8.334242893721424e-06,0.003857758784576807,0.00022444161487040665,0.9999925335989575,0.0,0.0,0.0,0.0,0.0,0.0,0.0,0.0,0.0,4.045084127183628e-05,-5.612126801221526e-05,0.000935931720555684,0.0,0.0,0.0,0.0,0.0,0.0,0.0,0.0,0.0,0.7741628203845843,0.000654518545845775,-0.006000539709235058,0.0,0.0,0.0,0.0,0.0,0.0,0.0,0.0,0.0
1.939,48,1,939000000,base_footprint,-8.519619100262756e-06,0.0038593120923919376,0.00024063056083369094,0.999992523839315,0.0,0.0,0.0,0.0,0.0,0.0,0.0,0.0,0.0,4.027157587571608e-05,-2.544035808746768e-05,0.0010788728606629134,0.0,0.0,0.0,0.0,0.0,0.0,0.0,0.0,0.0,0.7418567926783792,0.0006343131378086707,-0.005767549735274913,0.0,0.0,0.0,0.0,0.0,0.0,0.0,0.0,0.0
1.973,49,1,973000000,base_footprint,-8.726805754803e-06,0.003861408938780784,0.00025809828666538556,0.9999925113870227,0.0,0.0,0.0,0.0,0.0,0.0,0.0,0.0,0.0,3.9977824614674626e-05,-9.175464872187387e-06,0.0011503587134921685,0.0,0.0,0.0,0.0,0.0,0.0,0.0,0.0,0.0,0.6743232457701135,0.00048664545317471603,-0.005227125782071026,0.0,0.0,0.0,0.0,0.0,0.0,0.0,0.0,0.0
2.007,50,2,7000000,base_footprint,-9.076302098731304e-06,0.003863916223179277,0.00027752590893846533,0.9999924964960543,0.0,0.0,0.0,0.0,0.0,0.0,0.0,0.0,0.0,3.261113199317962e-05,-2.4119402364823105e-05,0.0012771507182202375,0.0,0.0,0.0,0.0,0.0,0.0,0.0,0.0,0.0,0.5613159596088529,0.0005569046010637538,-0.0043213151652986255,0.0,0.0,0.0,0.0,0.0,0.0,0.0,0.0,0.0
2.041,51,2,41000000,base_footprint,-9.472039266704988e-06,0.0038664889115403223,0.0003003981090419459,0.9999924799391012,0.0,0.0,0.0,0.0,0.0,0.0,0.0,0.0,0.0,3.1306704097655764e-05,-5.348685851880935e-05,0.0014306783185507486,0.0,0.0,0.0,0.0,0.0,0.0,0.0,0.0,0.0,0.404439958825929,0.0005403626400979408,-0.0030795756922048305,0.0,0.0,0.0,0.0,0.0,0.0,0.0,0.0,0.0
2.075,52,2,75000000,base_footprint,-9.91094938143789e-06,0.003867759060037668,0.00030472280658191953,0.9999924737144964,0.0,0.0,0.0,0.0,0.0,0.0,0.0,0.0,0.0,1.1947023492556395e-05,0.0003782863683942668,-0.0009746434591600246,0.0,0.0,0.0,0.0,0.0,0.0,0.0,0.0,0.0,0.21333372961754873,-0.004534945854996747,-0.0021164380246418827,0.0,0.0,0.0,0.0,0.0,0.0,0.0,0.0,0.0
2.109,53,2,109000000,base_footprint,-7.961182348983488e-06,0.0038608649390778913,0.00028500463964153163,0.9999925061873701,0.0,0.0,0.0,0.0,0.0,0.0,0.0,0.0,0.0,-0.0002850728836838644,-0.0002105575345468237,-0.0005439573456954596,0.0,0.0,0.0,0.0,0.0,0.0,0.0,0.0,0.0,0.012249132339685224,0.000839716940890154,-0.00029271760223665725,0.0,0.0,0.0,0.0,0.0,0.0,0.0,0.0,0.0
2.143,54,2,143000000,base_footprint,-5.891377114412165e-06,0.0038491848568309494,0.0003129067679337357,0.9999925428874878,0.0,0.0,0.0,0.0,0.0,0.0,0.0,0.0,0.0,0.0012197908997151857,0.0008595454822146082,0.006301098753169123,0.0,0.0,0.0,0.0,0.0,0.0,0.0,0.0,0.0,0.051411879107738645,0.013712328691167152,-0.0035502551060026836,0.0,0.0,0.0,0.0,0.0,0.0,0.0,0.0,0.0
2.177,55,2,177000000,base_footprint,-5.094348559195578e-06,0.003855454433262375,0.0003793543367078633,0.9999924957395669,0.0,0.0,0.0,0.0,0.0,0.0,0.0,0.0,0.0,-0.0015418960344740988,-0.00048692094063764574,0.0028048401886633864,0.0,0.0,0.0,0.0,0.0,0.0,0.0,0.0,0.0,0.22259810684893416,-0.007078930800214661,0.004061852318658343,0.0,0.0,0.0,0.0,0.0,0.0,0.0,0.0,0.0
2.211,56,2,211000000,base_footprint,-4.145763870452541e-06,0.0038572977232391916,0.00042807518169025153,0.9999924689660047,0.0,0.0,0.0,0.0,0.0,0.0,0.0,0.0,0.0,0.0016483386618445935,0.0027456603234263166,-0.002501865192217519,0.0,0.0,0.0,0.0,0.0,0.0,0.0,0.0,0.0,0.3679660960979955,-0.0035545701129477765,-0.008688754848230213,0.0,0.0,0.0,0.0,0.0,0.0,0.0,0.0,0.0
2.246,57,2,245000000,base_footprint,-5.883012702468261e-06,0.0038675366670399168,-0.0004729718396542978,0.9999924091827689,0.0,0.0,0.0,0.0,0.0,0.0,0.0,0.0,0.0,-0.00039590106986791185,-0.0008534191320594384,-0.07327204321378315,0.0,0.0,0.0,0.0,0.0,0.0,0.0,0.0,0.0,0.18970290427611225,-0.004596914799307054,0.0035866296869485107,0.0,0.0,0.0,0.0,0.0,0.0,0.0,0.0,0.0
2.281,58,2,279000000,base_footprint,-8.848361281329534e-07,0.003878845362484335,-0.0017124456564797349,0.9999910110034712,0.0,0.0,0.0,0.0,0.0,0.0,0.0,0.0,0.0,-0.0006234127873653909,0.0020488715493411037,-0.07004430238354294,0.0,0.0,0.0,0.0,0.0,0.0,0.0,0.0,0.0,-0.16188864858475438,-0.01180669277090519,0.00301858553472342,0.0,0.0,0.0,0.0,0.0,0.0,0.0,0.0,0.0
2.313,59,2,313000000,base_footprint,3.854374303196162e-06,0.0038622240060613095,-0.0028973950424457753,0.9999883440884892,0.0,0.0,0.0,0.0,0.0,0.0,0.0,0.0,0.0,-0.0006139772728594544,-0.0008924927284555936,-0.07186761298796716,0.0,0.0,0.0,0.0,0.0,0.0,0.0,0.0,0.0,-0.1677985813002181,-0.016992046260274597,-0.0006818912892700899,0.0,0.0,0.0,0.0,0.0,0.0,0.0,0.0,0.0
2.347,60,2,347000000,base_footprint,8.45843349363393e-06,0.003860950768241625,-0.004116861662480261,0.999984072091987,0.0,0.0,0.0,0.0,0.0,0.0,0.0,0.0,0.0,-0.0005269187346830488,-0.00017225581051722458,-0.07199225986772465,0.0,0.0,0.0,0.0,0.0,0.0,0.0,0.0,0.0,0.004121564475948257,-0.015909041074083464,-0.0008330068889268583,0.0,0.0,0.0,0.0,0.0,0.0,0.0,0.0,0.0
2.3810000000000002,61,2,381000000,base_footprint,1.393760489123308e-05,0.0038665881477678537,-0.005310134535588774,0.9999784256538001,0.0,0.0,0.0,0.0,0.0,0.0,0.0,0.0,0.0,-0.0003826649607157516,-0.0021396553023524693,-0.048364474432924305,0.0,0.0,0.0,0.0,0.0,0.0,0.0,0.0,0.0,-0.17922513049460517,-0.007400785202742859,0.003270396734640962,0.0,0.0,0.0,0.0,0.0,0.0,0.0,0.0,0.0
2.415,62,2,415000000,base_footprint,1.1213244316913782e-05,0.003865331432632547,-0.005184403462277375,0.9999790903053521,0.0,0.0,0.0,0.0,0.0,0.0,0.0,0.0,0.0,9.989931640462394e-05,-3.2955856098549736e-05,0.01640791603420994,0.0,0.0,0.0,0.0,0.0,0.0,0.0,0.0,0.0,-0.17464979362385405,0.0006341593155236651,-0.0008741386330943671,0.0,0.0,0.0,0.0,0.0,0.0,0.0,0.0,0.0
2.449,63,2,449000000,base_footprint,8.95968762543802e-06,0.0038692593456066187,-0.004908233546770265,0.9999804688069116,0.0,0.0,0.0,0.0,0.0,0.0,0.0,0.0,0.0,7.016997409078983e-05,6.728829958112869e-05,0.016126291665729403,0.0,0.0,0.0,0.0,0.0,0.0,0.0,0.0,0.0,0.004574196473711595,0.002802518195797207,-0.00025827253665539627,0.0,0.0,0.0,0.0,0.0,0.0,0.0,0.0,0.0
2.483,64,2,483000000,base_footprint,8.461406150559972e-06,0.0038652722553844826,-0.004664084690905812,0.9999816527880862,0.0,0.0,0.0,0.0,0.0,0.0,0.0,0.0,0.0,0.00017781788324014046,-0.0015292029370076766,0.006636836941324887,0.0,0.0,0.0,0.0,0.0,0.0,0.0,0.0,0.0,0.17081328549852562,-0.0008395099912320066,0.0014293612684653163,0.0,0.0,0.0,0.0,0.0,0.0,0.0,0.0,0.0
2.517,65,2,517000000,base_footprint,1.0192920210532944e-05,0.0038649749306869778,-0.004735868595742491,0.9999813165322308,0.0,0.0,0.0,0.0,0.0,0.0,0.0,0.0,0.0,-0.0003304244499382387,-5.7820926915823934e-05,-0.007275501847624583,0.0,0.0,0.0,0.0,0.0,0.0,0.0,0.0,0.0,0.460532224734639,-0.008266501462908957,-0.006425029149119505,0.0,0.0,0.0,0.0,0.0,0.0,0.0,0.0,0.0
2.551,66,2,551000000,base_footprint,6.949662229623469e-06,0.0038784956804012,-0.004403385711762638,0.9999827835604135,0.0,0.0,0.0,0.0,0.0,0.0,0.0,0.0,0.0,0.00014721773930498648,-0.00017357587972669582,0.023084239611117698,0.0,0.0,0.0,0.0,0.0,0.0,0.0,0.0,0.0,0.04722903183778385,-0.0003745487541208385,-4.1804705525024316e-05,0.0,0.0,0.0,0.0,0.0,0.0,0.0,0.0,0.0
2.585,67,2,585000000,base_footprint,8.094819430931743e-06,0.003871363042463453,-0.0040824616025288965,0.9999841728697166,0.0,0.0,0.0,0.0,0.0,0.0,0.0,0.0,0.0,0.0009787141567336036,-0.0003820244312310472,0.0015368982138960188,0.0,0.0,0.0,0.0,0.0,0.0,0.0,0.0,0.0,-0.03711320338778072,0.010666639815589758,0.0011423598206215771,0.0,0.0,0.0,0.0,0.0,0.0,0.0,0.0,0.0
2.6189999999999998,68,2,619000000,base_footprint,1.3467143661265292e-05,0.00387549917950187,-0.004371845881252377,0.9999829334985355,0.0,0.0,0.0,0.0,0.0,0.0,0.0,0.0,0.0,-0.0015692425803284884,-0.001781943539104277,-0.01649890420030868,0.0,0.0,0.0,0.0,0.0,0.0,0.0,0.0,0.0,-0.09338105765247547,0.004584173015916454,0.003113193953578692,0.0,0.0,0.0,0.0,0.0,0.0,0.0,0.0,0.0
2.653,69,2,653000000,base_footprint,1.1252857759426387e-05,0.0038707385212029743,-0.00441185865250601,0.999982776231623,0.0,0.0,0.0,0.0,0.0,0.0,0.0,0.0,0.0,0.0005735254758974875,0.00042841993319127586,0.028977569660327655,0.0,0.0,0.0,0.0,0.0,0.0,0.0,0.0,0.0,-0.2667456479312316,-0.0075998527090672605,-0.003051014673186974,0.0,0.0,0.0,0.0,0.0,0.0,0.0,0.0,0.0
2.6870000000000003,70,2,687000000,base_footprint,7.06364699151839e-06,0.003855900360944906,-0.004098601771330449,0.9999841665976675,0.0,0.0,0.0,0.0,0.0,0.0,0.0,0.0,0.0,-9.959882770846822e-05,-3.865533336704648e-05,-0.0077582271745461175,0.0,0.0,0.0,0.0,0.0,0.0,0.0,0.0,0.0,0.17494702367846512,0.00529183010004316,0.001035448474366403,0.0,0.0,0.0,0.0,0.0,0.0,0.0,0.0,0.0
2.721,71,2,721000000,base_footprint,8.329528291810808e-06,0.0038643594343360146,-0.004297078115505668,0.9999833007487928,0.0,0.0,0.0,0.0,0.0,0.0,0.0,0.0,0.0,-0.001155309082394088,-0.0005317190225058393,0.013760953718156632,0.0,0.0,0.0,0.0,0.0,0.0,0.0,0.0,0.0,0.1836288467047655,-0.006005351641784831,-0.0022431728852146575,0.0,0.0,0.0,0.0,0.0,0.0,0.0,0.0,0.0
2.757,72,2,755000000,base_footprint,7.2167020721265e-06,0.0038653678424835237,-0.004065890595823497,0.9999842635826949,0.0,0.0,0.0,0.0,0.0,0.0,0.0,0.0,0.0,0.00014819491882611598,-0.00038555264573679216,0.013352559689024565,0.0,0.0,0.0,0.0,0.0,0.0,0.0,0.0,0.0,0.015219457718093106,0.0014601807307372406,0.0009328303367988765,0.0,0.0,0.0,0.0,0.0,0.0,0.0,0.0,0.0
2.789,73,2,789000000,base_footprint,8.674357809483985e-06,0.0038622301883989626,-0.004438381509193589,0.999982691786366,0.0,0.0,0.0,0.0,0.0,0.0,0.0,0.0,0.0,-0.0005186130024152656,0.000836812278366888,-0.07725320734814287,0.0,0.0,0.0,0.0,0.0,0.0,0.0,0.0,0.0,0.050909251369368545,-0.0023542819385847943,-0.0019152366941764536,0.0,0.0,0.0,0.0,0.0,0.0,0.0,0.0,0.0
2.824,74,2,823000000,base_footprint,1.2183779748353984e-05,0.003866297005432497,-0.005513103230591029,0.9999773283888941,0.0,0.0,0.0,0.0,0.0,0.0,0.0,0.0,0.0,3.467302046075821e-05,0.0013707904724150023,-0.0021420783704934527,0.0,0.0,0.0,0.0,0.0,0.0,0.0,0.0,0.0,-0.3450480521137084,-0.00877448838945182,0.0017493136066448662,0.0,0.0,0.0,0.0,0.0,0.0,0.0,0.0,0.0
2.857,75,2,857000000,base_footprint,1.1674227013530102e-05,0.0038628599710342033,-0.005372447759970524,0.9999781072511653,0.0,0.0,0.0,0.0,0.0,0.0,0.0,0.0,0.0,6.986022275775363e-05,-0.00014985678489953954,0.008463120806430427,0.0,0.0,0.0,0.0,0.0,0.0,0.0,0.0,0.0,-0.029000528665956454,0.0012909722439667748,0.002182161493663814,0.0,0.0,0.0,0.0,0.0,0.0,0.0,0.0,0.0
2.891,76,2,891000000,base_footprint,1.1661574398857541e-05,0.0038613022189479514,-0.005275968539902803,0.9999786269541703,0.0,0.0,0.0,0.0,0.0,0.0,0.0,0.0,0.0,-0.0003009019417444211,0.0007490019853730066,0.022587476664181278,0.0,0.0,0.0,0.0,0.0,0.0,0.0,0.0,0.0,0.3289195581341029,-0.005627296058735859,-0.0036839800228488334,0.0,0.0,0.0,0.0,0.0,0.0,0.0,0.0,0.0
2.926,77,2,925000000,base_footprint,7.758134764833905e-06,0.0038689557209082293,-0.004805009549826728,0.9999809713212883,0.0,0.0,0.0,0.0,0.0,0.0,0.0,0.0,0.0,0.00016359789679493237,9.104993556522981e-05,0.0277259558059823,0.0,0.0,0.0,0.0,0.0,0.0,0.0,0.0,0.0,0.016873235460682364,0.005095745374530473,0.0005011412378789956,0.0,0.0,0.0,0.0,0.0,0.0,0.0,0.0,0.0
2.959,78,2,959000000,base_footprint,5.591665715597285e-06,0.0038738399279871255,-0.004335178116221933,0.9999830996390121,0.0,0.0,0.0,0.0,0.0,0.0,0.0,0.0,0.0,0.0001458208507518325,0.00012794074567337743,0.027414526842922983,0.0,0.0,0.0,0.0,0.0,0.0,0.0,0.0,0.0,0.004845325834452727,0.004800002465780057,-0.00023947519516764355,0.0,0.0,0.0,0.0,0.0,0.0,0.0,0.0,0.0
2.9930000000000003,79,2,993000000,base_footprint,-4.0664648333663356e-06,0.0038707092600142583,-0.0041199583461072695,0.9999840216406033,0.0,0.0,0.0,0.0,0.0,0.0,0.0,0.0,0.0,-0.0005480565133335187,-0.0011034388919369871,-0.03011675645164385,0.0,0.0,0.0,0.0,0.0,0.0,0.0,0.0,0.0,-0.23820891991590815,0.006333160026074035,0.003713616695223613,0.0,0.0,0.0,0.0,0.0,0.0,0.0,0.0,0.0
3.027,80,3,27000000,base_footprint,5.723205521382836e-06,0.0038716404857132986,-0.004600517724033981,0.9999819226385371,0.0,0.0,0.0,0.0,0.0,0.0,0.0,0.0,0.0,-0.00106062269425324,0.00018788899381391263,0.026455807992242925,0.0,0.0,0.0,0.0,0.0,0.0,0.0,0.0,0.0,-0.07402023489410509,-0.0024061116215775974,-0.002906869192739086,0.0,0.0,0.0,0.0,0.0,0.0,0.0,0.0,0.0
3.061,81,3,61000000,base_footprint,5.343362857323498e-06,0.003878642138165609,-0.003969877368849896,0.9999845979715333,0.0,0.0,0.0,0.0,0.0,0.0,0.0,0.0,0.0,0.0003833380126018322,-0.00015161179822672632,0.038402287474523296,0.0,0.0,0.0,0.0,0.0,0.0,0.0,0.0,0.0,-0.059529573434485256,0.011462636863856412,0.0025439884704365036,0.0,0.0,0.0,0.0,0.0,0.0,0.0,0.0,0.0
3.096,82,3,95000000,base_footprint,7.222822787707554e-06,0.0038763491576123805,-0.003384586006222672,0.9999867591336425,0.0,0.0,0.0,0.0,0.0,0.0,0.0,0.0,0.0,-0.0024381666594782392,-0.0023155424900947086,0.037680869218274196,0.0,0.0,0.0,0.0,0.0,0.0,0.0,0.0,0.0,-0.09482860165416829,0.0037530328586114848,0.004992512351358031,0.0,0.0,0.0,0.0,0.0,0.0,0.0,0.0,0.0
3.135,83,3,129000000,base_footprint,5.483018286802323e-07,0.0038712608028071563,-0.002597139313406394,0.9999891340444068,0.0,0.0,0.0,0.0,0.0,0.0,0.0,0.0,0.0,0.0004347287093631641,-2.818363325478985e-05,0.05555123207526162,0.0,0.0,0.0,0.0,0.0,0.0,0.0,0.0,0.0,-0.28424279873972835,0.014351190280390736,-0.0020147731557995136,0.0,0.0,0.0,0.0,0.0,0.0,0.0,0.0,0.0
3.162,84,3,163000000,base_footprint,-5.829553969543198e-06,0.0038699125215024637,-0.001652439058234612,0.9999911465549338,0.0,0.0,0.0,0.0,0.0,0.0,0.0,0.0,0.0,0.00012271942608877,0.0001307605111678994,0.031189709887799146,0.0,0.0,0.0,0.0,0.0,0.0,0.0,0.0,0.0,-0.33175941855926266,0.012637272578256439,0.001407646583536511,0.0,0.0,0.0,0.0,0.0,0.0,0.0,0.0,0.0
3.197,85,3,197000000,base_footprint,-3.783649489957204e-06,0.0038679001816772514,-0.000938747695528287,0.9999920790119454,0.0,0.0,0.0,0.0,0.0,0.0,0.0,0.0,0.0,-0.00018994241956972135,-0.0017810694041486366,0.028078761682008582,0.0,0.0,0.0,0.0,0.0,0.0,0.0,0.0,0.0,-0.3790617240893496,0.007965586443398969,0.005646210220038894,0.0,0.0,0.0,0.0,0.0,0.0,0.0,0.0,0.0
3.231,86,3,231000000,base_footprint,-5.140507806971267e-06,0.0038697797021850487,-0.0008411108869987405,0.9999921586248102,0.0,0.0,0.0,0.0,0.0,0.0,0.0,0.0,0.0,0.0003541337842282401,0.00035393622488167443,0.0213366999065696,0.0,0.0,0.0,0.0,0.0,0.0,0.0,0.0,0.0,-0.27579323180816473,0.002991635241430344,-8.815714087030702e-06,0.0,0.0,0.0,0.0,0.0,0.0,0.0,0.0,0.0
3.265,87,3,265000000,base_footprint,-6.150788592752901e-06,0.003866342669513877,-0.00048668892400368627,0.9999924072163854,0.0,0.0,0.0,0.0,0.0,0.0,0.0,0.0,0.0,0.00021096196516657932,-0.000331386606707082,0.020694106146657468,0.0,0.0,0.0,0.0,0.0,0.0,0.0,0.0,0.0,0.004244034268386133,0.003735200941863587,0.0011490267512552783,0.0,0.0,0.0,0.0,0.0,0.0,0.0,0.0,0.0
3.303,88,3,299000000,base_footprint,-4.185985962677945e-06,0.003859623499706243,-0.0010596461301185004,0.99999199018742,0.0,0.0,0.0,0.0,0.0,0.0,0.0,0.0,0.0,-0.0001735212633453521,0.0001277747889412274,-0.09021153114184391,0.0,0.0,0.0,0.0,0.0,0.0,0.0,0.0,0.0,-0.2785808764107473,-0.0031395104951404493,0.0012002436095760152,0.0,0.0,0.0,0.0,0.0,0.0,0.0,0.0,0.0
3.334,89,3,333000000,base_footprint,-2.680522709005525e-06,0.0038627880569847453,-0.0013750003826428145,0.9999915940822649,0.0,0.0,0.0,0.0,0.0,0.0,0.0,0.0,0.0,0.00014711759841117195,-0.00022735103304485598,0.015490975369281085,0.0,0.0,0.0,0.0,0.0,0.0,0.0,0.0,0.0,-0.05312213895226585,-0.003785070504777038,0.0011840832374781485,0.0,0.0,0.0,0.0,0.0,0.0,0.0,0.0,0.0
3.367,90,3,367000000,base_footprint,-3.891540228094011e-06,0.003862231549586085,-0.0011158482909827832,0.999991918984801,0.0,0.0,0.0,0.0,0.0,0.0,0.0,0.0,0.0,0.00014700207961657296,-0.00020119469721498193,0.015106801078505323,0.0,0.0,0.0,0.0,0.0,0.0,0.0,0.0,0.0,0.0040692603725533665,0.0024663275050874115,-0.00010359009325623547,0.0,0.0,0.0,0.0,0.0,0.0,0.0,0.0,0.0
3.401,91,3,401000000,base_footprint,-1.3552568884687697e-06,0.00386113069583281,-0.0018127677865005562,0.9999909027290524,0.0,0.0,0.0,0.0,0.0,0.0,0.0,0.0,0.0,-0.00056175023740068,0.0002617248399702786,-0.08236832311798915,0.0,0.0,0.0,0.0,0.0,0.0,0.0,0.0,0.0,-0.27836870180029755,-0.0033081714270294794,0.0016696216803245522,0.0,0.0,0.0,0.0,0.0,0.0,0.0,0.0,0.0
3.435,92,3,435000000,base_footprint,-1.5177485322639755e-06,0.003863190706595749,-0.001903906497089995,0.9999907254046466,0.0,0.0,0.0,0.0,0.0,0.0,0.0,0.0,0.0,0.0001825915553840952,-0.00019496792060246619,0.0219418931131103,0.0,0.0,0.0,0.0,0.0,0.0,0.0,0.0,0.0,-0.05702886274453425,-0.0014323939365309029,0.0008721771457897334,0.0,0.0,0.0,0.0,0.0,0.0,0.0,0.0,0.0
3.469,93,3,469000000,base_footprint,-3.481287613701416e-06,0.003864668663838566,-0.0015339206493375853,0.9999913556683583,0.0,0.0,0.0,0.0,0.0,0.0,0.0,0.0,0.0,0.0001659085121019417,-0.00010238546104487046,0.021651981457291466,0.0,0.0,0.0,0.0,0.0,0.0,0.0,0.0,0.0,0.0036090240498986258,0.003050395754862051,-0.00020448923208170872,0.0,0.0,0.0,0.0,0.0,0.0,0.0,0.0,0.0
3.503,94,3,503000000,base_footprint,-5.618991058664091e-06,0.003866827319835848,-0.0011584447746771193,0.9999918527771161,0.0,0.0,0.0,0.0,0.0,0.0,0.0,0.0,0.0,0.00015476619745181453,-5.832884413642863e-05,0.022085767441338795,0.0,0.0,0.0,0.0,0.0,0.0,0.0,0.0,0.0,0.0031850102554771597,0.002965929948466549,-0.0001317712927008537,0.0,0.0,0.0,0.0,0.0,0.0,0.0,0.0,0.0
3.537,95,3,537000000,base_footprint,-7.949471063679766e-06,0.0038698240126268635,-0.000784309347845152,0.9999922045984979,0.0,0.0,0.0,0.0,0.0,0.0,0.0,0.0,0.0,0.0001371393434773688,-4.859817540575285e-06,0.021952990416498362,0.0,0.0,0.0,0.0,0.0,0.0,0.0,0.0,0.0,0.003055119360702444,0.0029362793320638508,-0.00015474082781982232,0.0,0.0,0.0,0.0,0.0,0.0,0.0,0.0,0.0
3.571,96,3,571000000,base_footprint,-9.725242384412404e-06,0.0038728315335718254,-0.00041149979468788794,0.999992415845866,0.0,0.0,0.0,0.0,0.0,0.0,0.0,0.0,0.0,7.972062536787585e-05,-1.891407087702125e-06,0.021792471404239053,0.0,0.0,0.0,0.0,0.0,0.0,0.0,0.0,0.0,0.003040222676839751,0.0022347556310045665,-0.00016313872690794108,0.0,0.0,0.0,0.0,0.0,0.0,0.0,0.0,0.0
3.605,97,3,605000000,base_footprint,-1.219019991574173e-05,0.0038755788562086875,5.308165483496709e-05,0.9999924884329213,0.0,0.0,0.0,0.0,0.0,0.0,0.0,0.0,0.0,0.00016919428571180643,-8.753776857594559e-06,0.02798752064431586,0.0,0.0,0.0,0.0,0.0,0.0,0.0,0.0,0.0,0.0002814854576249882,0.002973579058254083,-9.6991119231418e-05,0.0,0.0,0.0,0.0,0.0,0.0,0.0,0.0,0.0
3.6390000000000002,98,3,639000000,base_footprint,-1.43959376879795e-05,0.0038772823058254363,0.0005387240294856064,0.9999923380961966,0.0,0.0,0.0,0.0,0.0,0.0,0.0,0.0,0.0,0.00024538376726743395,-1.7198718858432362e-05,0.02905999177767762,0.0,0.0,0.0,0.0,0.0,0.0,0.0,0.0,0.0,0.00024346892794436257,0.003305451440783323,3.30725129505067e-05,0.0,0.0,0.0,0.0,0.0,0.0,0.0,0.0,0.0
3.675,99,3,673000000,base_footprint,-1.596928492026896e-05,0.003878518037756714,0.0010356225601699926,0.9999919421318982,0.0,0.0,0.0,0.0,0.0,0.0,0.0,0.0,0.0,0.00024725971986597304,-6.208015801775288e-05,0.02941999932538264,0.0,0.0,0.0,0.0,0.0,0.0,0.0,0.0,0.0,-0.003313797347471123,0.0039836343524300615,0.00010033740776654317,0.0,0.0,0.0,0.0,0.0,0.0,0.0,0.0,0.0
3.707,100,3,707000000,base_footprint,-1.6654306086322622e-05,0.0038780237968723424,0.0013579932827816102,0.9999915582185226,0.0,0.0,0.0,0.0,0.0,0.0,0.0,0.0,0.0,0.00028989913621565907,-0.0001577655779852066,0.01893382353675252,0.0,0.0,0.0,0.0,0.0,0.0,0.0,0.0,0.0,-0.0005385485046644975,0.002497242158808626,0.0002162283902207112,0.0,0.0,0.0,0.0,0.0,0.0,0.0,0.0,0.0
3.741,101,3,741000000,base_footprint,-1.4594131515354252e-05,0.0038760011756489346,0.0016495162954706733,0.9999911277095856,0.0,0.0,0.0,0.0,0.0,0.0,0.0,0.0,0.0,0.00016999574636831404,5.257863101632815e-06,0.014963073252305316,0.0,0.0,0.0,0.0,0.0,0.0,0.0,0.0,0.0,-0.010572154605036008,0.007436361752235714,-0.0002153834643791719,0.0,0.0,0.0,0.0,0.0,0.0,0.0,0.0,0.0
3.775,102,3,775000000,base_footprint,-2.0001708193228568e-05,0.003869026269230155,0.0018495325279618583,0.9999908046902671,0.0,0.0,0.0,0.0,0.0,0.0,0.0,0.0,0.0,-0.00019692038160842244,0.000769848703219531,0.009538790981897348,0.0,0.0,0.0,0.0,0.0,0.0,0.0,0.0,0.0,-0.04539068281508963,0.00206696541740991,-0.0009186482406653505,0.0,0.0,0.0,0.0,0.0,0.0,0.0,0.0,0.0
3.808,103,3,809000000,base_footprint,-2.3662950400673754e-05,0.003873443938032475,0.001997465352253918,0.9999905029570483,0.0,0.0,0.0,0.0,0.0,0.0,0.0,0.0,0.0,-0.0033321501211229783,0.003215095178250053,0.003355953545618227,0.0,0.0,0.0,0.0,0.0,0.0,0.0,0.0,0.0,-0.1402341429158993,-0.012697083800575014,-0.0032074657027057344,0.0,0.0,0.0,0.0,0.0,0.0,0.0,0.0,0.0
3.842,104,3,843000000,base_footprint,-1.848410474946576e-05,0.0038725648526556377,0.0022634666552319356,0.9999899397586461,0.0,0.0,0.0,0.0,0.0,0.0,0.0,0.0,0.0,0.0002671477330770389,0.001156589710843121,0.01725558565573562,0.0,0.0,0.0,0.0,0.0,0.0,0.0,0.0,0.0,-0.21050851812987081,0.004974087999084625,0.004879482933482121,0.0,0.0,0.0,0.0,0.0,0.0,0.0,0.0,0.0
3.877,105,3,877000000,base_footprint,-1.6984512449547862e-05,0.003883602729892449,0.00260769394244694,0.9999890585769753,0.0,0.0,0.0,0.0,0.0,0.0,0.0,0.0,0.0,-0.000782165528137695,0.002063833681704733,0.015486007797772677,0.0,0.0,0.0,0.0,0.0,0.0,0.0,0.0,0.0,-0.009966868148853086,0.008682250837661219,0.002172231536729275,0.0,0.0,0.0,0.0,0.0,0.0,0.0,0.0,0.0
3.911,106,3,911000000,base_footprint,-2.5403248096457787e-05,0.0038653054046838605,0.0020886634013314387,0.99999034808042,0.0,0.0,0.0,0.0,0.0,0.0,0.0,0.0,0.0,0.002938790290140952,-0.0034129150996628317,-0.03940235295137243,0.0,0.0,0.0,0.0,0.0,0.0,0.0,0.0,0.0,-0.24163184103894683,-0.0010228726830063674,0.006546053467393621,0.0,0.0,0.0,0.0,0.0,0.0,0.0,0.0,0.0
3.9450000000000003,107,3,945000000,base_footprint,-1.9217415919146155e-05,0.0038721117116474737,0.0024346161919680935,0.9999895394580792,0.0,0.0,0.0,0.0,0.0,0.0,0.0,0.0,0.0,0.000167281718902994,-0.0002166176607349799,0.02572428447245349,0.0,0.0,0.0,0.0,0.0,0.0,0.0,0.0,0.0,-0.05823141449781742,-0.0039017027094940724,-0.003565009733262809,0.0,0.0,0.0,0.0,0.0,0.0,0.0,0.0,0.0
3.979,108,3,979000000,base_footprint,-2.06334631601209e-05,0.003870048742507922,0.002851541315326142,0.999988445437805,0.0,0.0,0.0,0.0,0.0,0.0,0.0,0.0,0.0,-0.00041482324222183095,-6.262041588800046e-05,0.01678794704811026,0.0,0.0,0.0,0.0,0.0,0.0,0.0,0.0,0.0,0.0033731433998822197,0.002693698115873027,-0.00014025997566225807,0.0,0.0,0.0,0.0,0.0,0.0,0.0,0.0,0.0
4.013,109,4,13000000,base_footprint,-2.066802432097884e-05,0.0038677822628237295,0.0031458747527439586,0.9999875715753873,0.0,0.0,0.0,0.0,0.0,0.0,0.0,0.0,0.0,0.0001967874736644589,-0.000313191596051547,0.017359341310928887,0.0,0.0,0.0,0.0,0.0,0.0,0.0,0.0,0.0,0.0032130684580523763,0.0019087431406047259,0.0005136530158451487,0.0,0.0,0.0,0.0,0.0,0.0,0.0,0.0,0.0
4.047,110,4,47000000,base_footprint,-2.1666534706784918e-05,0.003865665255614685,0.00343850120288689,0.9999866163465242,0.0,0.0,0.0,0.0,0.0,0.0,0.0,0.0,0.0,0.0001926162828215594,-0.00026527754993105194,0.01707207246699684,0.0,0.0,0.0,0.0,0.0,0.0,0.0,0.0,0.0,0.0028406169733136617,0.002109923599015727,-9.252108418107725e-05,0.0,0.0,0.0,0.0,0.0,0.0,0.0,0.0,0.0
4.081,111,4,81000000,base_footprint,-2.279133328289993e-05,0.0038632799529938807,0.0037013528095791357,0.9999856871655409,0.0,0.0,0.0,0.0,0.0,0.0,0.0,0.0,0.0,0.00022679289155073736,-0.0008587403850372848,0.009583477731283853,0.0,0.0,0.0,0.0,0.0,0.0,0.0,0.0,0.0,0.004352377722225078,-0.003934656904434444,0.0010625174468898429,0.0,0.0,0.0,0.0,0.0,0.0,0.0,0.0,0.0
4.115,112,4,115000000,base_footprint,-2.321476216281292e-05,0.003861123857383263,0.0038595880902925115,0.9999850972706573,0.0,0.0,0.0,0.0,0.0,0.0,0.0,0.0,0.0,0.00012994955154664538,-0.00024186242378447474,0.009162088636001481,0.0,0.0,0.0,0.0,0.0,0.0,0.0,0.0,0.0,0.002928537443828323,0.006777224978666451,-0.0011552376509804323,0.0,0.0,0.0,0.0,0.0,0.0,0.0,0.0,0.0
4.149,113,4,149000000,base_footprint,-2.3785228279911003e-05,0.0038605084707503453,0.004014085767670232,0.9999844913917716,0.0,0.0,0.0,0.0,0.0,0.0,0.0,0.0,0.0,0.00012361673385379607,-0.00020944143443501754,0.008952858849449819,0.0,0.0,0.0,0.0,0.0,0.0,0.0,0.0,0.0,0.0031022443720925778,0.0012017771452723415,-8.413010655236507e-05,0.0,0.0,0.0,0.0,0.0,0.0,0.0,0.0,0.0
4.183,114,4,183000000,base_footprint,-2.416352650959361e-05,0.003861129849680853,0.004199649611708894,0.9999837268853663,0.0,0.0,0.0,0.0,0.0,0.0,0.0,0.0,0.0,0.00012926708091307024,7.245725394359437e-05,0.016491444409732676,0.0,0.0,0.0,0.0,0.0,0.0,0.0,0.0,0.0,0.0009349635630554913,0.003960240314896571,-0.0005541721591702505,0.0,0.0,0.0,0.0,0.0,0.0,0.0,0.0,0.0
4.217,115,4,217000000,base_footprint,-2.5263603656648155e-05,0.0038625640571591153,0.004470448699189822,0.9999825473722442,0.0,0.0,0.0,0.0,0.0,0.0,0.0,0.0,0.0,0.00014679468657221876,-0.00018916969100012636,0.015884797055667515,0.0,0.0,0.0,0.0,0.0,0.0,0.0,0.0,0.0,0.00324074105057745,-0.0011504231314596893,0.0004675830031125543,0.0,0.0,0.0,0.0,0.0,0.0,0.0,0.0,0.0
4.251,116,4,251000000,base_footprint,-2.6640327561249466e-05,0.003862353399018248,0.004744798340319172,0.9999812840274681,0.0,0.0,0.0,0.0,0.0,0.0,0.0,0.0,0.0,0.00014595123010799504,-0.0002216534384560602,0.016479896234943708,0.0,0.0,0.0,0.0,0.0,0.0,0.0,0.0,0.0,0.0028472460110897033,0.0011803185417028393,3.316513485811186e-05,0.0,0.0,0.0,0.0,0.0,0.0,0.0,0.0,0.0
4.285,117,4,285000000,base_footprint,-2.7763485773934717e-05,0.0038621172336782235,0.004933149807256381,0.9999803734637203,0.0,0.0,0.0,0.0,0.0,0.0,0.0,0.0,0.0,-8.20163377401792e-05,0.00019701743676083362,-0.0013157450587044182,0.0,0.0,0.0,0.0,0.0,0.0,0.0,0.0,0.0,0.007665670403288508,0.003438355557913104,-0.0007199933993532457,0.0,0.0,0.0,0.0,0.0,0.0,0.0,0.0,0.0
4.319,118,4,319000000,base_footprint,-2.8274748168957916e-05,0.0038642602928134315,0.004916941921590429,0.9999804449963349,0.0,0.0,0.0,0.0,0.0,0.0,0.0,0.0,0.0,1.4565137535099568e-05,-9.325217759101334e-05,-0.0010052432721228627,0.0,0.0,0.0,0.0,0.0,0.0,0.0,0.0,0.0,0.002770123544227776,-0.0010382438628025134,0.00036369746626505327,0.0,0.0,0.0,0.0,0.0,0.0,0.0,0.0,0.0
4.353,119,4,353000000,base_footprint,-2.8698635851383318e-05,0.003866508156896039,0.004899301775318519,0.9999805228769085,0.0,0.0,0.0,0.0,0.0,0.0,0.0,0.0,0.0,4.1546333445681734e-06,-5.927678746499851e-05,-0.0011287629846561465,0.0,0.0,0.0,0.0,0.0,0.0,0.0,0.0,0.0,0.0027885137354722003,-0.00017216120184855257,-0.00010735980455065802,0.0,0.0,0.0,0.0,0.0,0.0,0.0,0.0,0.0
4.3870000000000005,120,4,387000000,base_footprint,-2.906518110048483e-05,0.0038693904849071863,0.004880309168199812,0.9999806045893657,0.0,0.0,0.0,0.0,0.0,0.0,0.0,0.0,0.0,-6.085540622247345e-05,-2.7618294320481085e-05,-0.0011010461564885665,0.0,0.0,0.0,0.0,0.0,0.0,0.0,0.0,0.0,0.0023237433469512243,-0.0002601430200260089,-0.00022333549174542873,0.0,0.0,0.0,0.0,0.0,0.0,0.0,0.0,0.0
4.421,121,4,421000000,base_footprint,-2.866392293616413e-05,0.0038715000638347703,0.004863484147586783,0.9999806784071289,0.0,0.0,0.0,0.0,0.0,0.0,0.0,0.0,0.0,1.8248043798648469e-06,-4.1599752268117346e-05,-0.0009223053875840453,0.0,0.0,0.0,0.0,0.0,0.0,0.0,0.0,0.0,0.001726490544923785,-0.00039758378869460997,-8.432503286853003e-05,0.0,0.0,0.0,0.0,0.0,0.0,0.0,0.0,0.0
4.455,122,4,455000000,base_footprint,-2.8577395160586667e-05,0.0038729415238324145,0.004850908088897553,0.9999807339134082,0.0,0.0,0.0,0.0,0.0,0.0,0.0,0.0,0.0,1.2327082645285834e-05,-3.614909054862477e-05,-0.0005207682414696495,0.0,0.0,0.0,0.0,0.0,0.0,0.0,0.0,0.0,0.0005683526915987785,-0.00033721402139835326,-9.208908992607185e-06,0.0,0.0,0.0,0.0,0.0,0.0,0.0,0.0,0.0
4.488,123,4,489000000,base_footprint,-2.825362562487181e-05,0.003874409644361281,0.004848319449351744,0.9999807407896202,0.0,0.0,0.0,0.0,0.0,0.0,0.0,0.0,0.0,3.747991945036833e-05,-3.5823835575029204e-05,0.00021541029736687385,0.0,0.0,0.0,0.0,0.0,0.0,0.0,0.0,0.0,-0.0014331035959559337,-0.00013469022411830882,1.061814398415041e-05,0.0,0.0,0.0,0.0,0.0,0.0,0.0,0.0,0.0
4.523,124,4,523000000,base_footprint,-2.7694211147058594e-05,0.0038756046610347065,0.0048585653545281555,0.9999806864456123,0.0,0.0,0.0,0.0,0.0,0.0,0.0,0.0,0.0,5.757017128934961e-05,-8.735672088709941e-05,0.0009590246484626002,0.0,0.0,0.0,0.0,0.0,0.0,0.0,0.0,0.0,-0.002958917582408079,-0.000513488579960338,0.00011954812840225725,0.0,0.0,0.0,0.0,0.0,0.0,0.0,0.0,0.0
4.558,125,4,557000000,base_footprint,-2.6740269136899566e-05,0.0038751385011040486,0.004882175459648276,0.9999805732859697,0.0,0.0,0.0,0.0,0.0,0.0,0.0,0.0,0.0,0.00010516029118676021,-0.00019566980126169934,0.0018522495408470503,0.0,0.0,0.0,0.0,0.0,0.0,0.0,0.0,0.0,-0.003941713865884375,-0.0009922558741994744,0.00025034567854752005,0.0,0.0,0.0,0.0,0.0,0.0,0.0,0.0,0.0
4.591,126,4,591000000,base_footprint,-2.5017137601284416e-05,0.00387250003555933,0.004929045345870855,0.9999803536218078,0.0,0.0,0.0,0.0,0.0,0.0,0.0,0.0,0.0,0.00018409734463176674,-0.00032149831766374625,0.004160203675606826,0.0,0.0,0.0,0.0,0.0,0.0,0.0,0.0,0.0,-0.00761316189225615,-0.0004095771236928697,0.00033166715263895975,0.0,0.0,0.0,0.0,0.0,0.0,0.0,0.0,0.0
4.627,127,4,625000000,base_footprint,-2.3017870601002968e-05,0.003867444308048613,0.005083482479468739,0.9999796000672128,0.0,0.0,0.0,0.0,0.0,0.0,0.0,0.0,0.0,0.0005769419540841684,-0.0005030418628866418,0.016041544252206143,0.0,0.0,0.0,0.0,0.0,0.0,0.0,0.0,0.0,-0.03229391060686177,-0.00031335402348873923,0.000809210910343055,0.0,0.0,0.0,0.0,0.0,0.0,0.0,0.0,0.0
4.658,128,4,659000000,base_footprint,-2.748714053704292e-05,0.003873549340825632,0.005408475618635524,0.9999778713808842,0.0,0.0,0.0,0.0,0.0,0.0,0.0,0.0,0.0,-0.0003317771205345373,0.0003261440107303113,0.016116757538242682,0.0,0.0,0.0,0.0,0.0,0.0,0.0,0.0,0.0,-0.05674324687956765,-0.0005091222107363274,-0.0014637494877947801,0.0,0.0,0.0,0.0,0.0,0.0,0.0,0.0,0.0
4.693,129,4,693000000,base_footprint,-3.7849872204262044e-05,0.0038620909679363156,0.005814232430254768,0.9999756384642526,0.0,0.0,0.0,0.0,0.0,0.0,0.0,0.0,0.0,0.0016738911177339635,-0.00017140983488683024,0.04847225049652519,0.0,0.0,0.0,0.0,0.0,0.0,0.0,0.0,0.0,-0.07981949602580252,0.021346151549740355,-0.0015383424125435406,0.0,0.0,0.0,0.0,0.0,0.0,0.0,0.0,0.0
4.727,130,4,727000000,base_footprint,-4.2679239023451526e-05,0.0038599141827132264,0.007363952549963018,0.999965435124548,0.0,0.0,0.0,0.0,0.0,0.0,0.0,0.0,0.0,0.0017693946053206936,-0.0015195918029981355,0.14402271609491002,0.0,0.0,0.0,0.0,0.0,0.0,0.0,0.0,0.0,-0.11881677202767932,-0.006940068351981956,0.00620239933506584,0.0,0.0,0.0,0.0,0.0,0.0,0.0,0.0,0.0
4.761,131,4,761000000,base_footprint,-5.950259851519896e-05,0.003866077801328914,0.010123650923921661,0.9999412790728491,0.0,0.0,0.0,0.0,0.0,0.0,0.0,0.0,0.0,0.0014279705413514665,-0.00018579890728488176,0.18178247824811894,0.0,0.0,0.0,0.0,0.0,0.0,0.0,0.0,0.0,0.07435290774557861,0.01847400075035068,-0.002494310050549876,0.0,0.0,0.0,0.0,0.0,0.0,0.0,0.0,0.0
4.796,132,4,795000000,base_footprint,-6.183915306031853e-05,0.003869985524892685,0.013427058590263507,0.9999023619761931,0.0,0.0,0.0,0.0,0.0,0.0,0.0,0.0,0.0,0.0013703675809027967,-0.0008888746326161608,0.1903913621205442,0.0,0.0,0.0,0.0,0.0,0.0,0.0,0.0,0.0,-0.30057252196748546,0.003312355766970615,0.0030688978835512457,0.0,0.0,0.0,0.0,0.0,0.0,0.0,0.0,0.0
4.834,133,4,829000000,base_footprint,-7.349200711256521e-05,0.003870128450118638,0.016486919951051435,0.9998565888042306,0.0,0.0,0.0,0.0,0.0,0.0,0.0,0.0,0.0,0.0012512475843890504,-0.00015107374827928497,0.1693058701644455,0.0,0.0,0.0,0.0,0.0,0.0,0.0,0.0,0.0,-0.5825717179994578,-0.021051327769869715,0.003759501651614408,0.0,0.0,0.0,0.0,0.0,0.0,0.0,0.0,0.0
4.862,134,4,863000000,base_footprint,-8.367523116756396e-05,0.003870304869820516,0.019143859301996708,0.9998092450011131,0.0,0.0,0.0,0.0,0.0,0.0,0.0,0.0,0.0,0.0010627422294089985,-4.731942797502216e-05,0.1428689505894827,0.0,0.0,0.0,0.0,0.0,0.0,0.0,0.0,0.0,-0.6180271776668221,-0.035040263070319926,0.004687514919844829,0.0,0.0,0.0,0.0,0.0,0.0,0.0,0.0,0.0
4.897,135,4,897000000,base_footprint,-9.185280555665049e-05,0.003870667857104015,0.0213003683001767,0.999765624435887,0.0,0.0,0.0,0.0,0.0,0.0,0.0,0.0,0.0,0.0008284542116247297,-4.4016060824573046e-05,0.11142235421179807,0.0,0.0,0.0,0.0,0.0,0.0,0.0,0.0,0.0,-0.6284037059379975,-0.04585821767236796,0.004857129455291823,0.0,0.0,0.0,0.0,0.0,0.0,0.0,0.0,0.0
4.931,136,4,931000000,base_footprint,-9.794350629508452e-05,0.0038709619544998798,0.022911254106962414,0.9997300037989572,0.0,0.0,0.0,0.0,0.0,0.0,0.0,0.0,0.0,0.0005692020349427079,-0.00013625731287222333,0.07912017525213594,0.0,0.0,0.0,0.0,0.0,0.0,0.0,0.0,0.0,-0.6284207483564264,-0.05350389616367389,0.004966804345787275,0.0,0.0,0.0,0.0,0.0,0.0,0.0,0.0,0.0
4.965,137,4,965000000,base_footprint,-0.00010483138705359787,0.00386862913939852,0.023701456204981035,0.9997115902562728,0.0,0.0,0.0,0.0,0.0,0.0,0.0,0.0,0.0,0.00036116804923361874,-0.0011579614438708707,-0.001549312073408053,0.0,0.0,0.0,0.0,0.0,0.0,0.0,0.0,0.0,-0.4577036255275938,-0.04446119552757837,0.0038060784851757876,0.0,0.0,0.0,0.0,0.0,0.0,0.0,0.0,0.0
4.9990000000000006,138,4,999000000,base_footprint,-0.00010188313473062038,0.0038727531751485884,0.0237043675918998,0.9997115055653504,0.0,0.0,0.0,0.0,0.0,0.0,0.0,0.0,0.0,4.351691308411717e-06,2.781212678146609e-05,0.00017928384358650002,0.0,0.0,0.0,0.0,0.0,0.0,0.0,0.0,0.0,0.008270765748263074,0.0037064311953083078,-0.0007837025280853507,0.0,0.0,0.0,0.0,0.0,0.0,0.0,0.0,0.0
5.03,139,5,33000000,base_footprint,-0.00010189124483395743,0.0038733079036166783,0.02370701734049471,0.9997114405831693,0.0,0.0,0.0,0.0,0.0,0.0,0.0,0.0,0.0,3.707725798735523e-05,-6.98604345338889e-05,0.00013443670648418196,0.0,0.0,0.0,0.0,0.0,0.0,0.0,0.0,0.0,-0.00012359785248025848,-0.0005098502084484854,0.00018321439740803387,0.0,0.0,0.0,0.0,0.0,0.0,0.0,0.0,0.0
5.067,140,5,67000000,base_footprint,-0.00010175074295640864,0.003873334169757826,0.023709726057775157,0.9997113762578982,0.0,0.0,0.0,0.0,0.0,0.0,0.0,0.0,0.0,1.2927269913646718e-05,-5.3441967056190164e-05,0.00019736816213731083,0.0,0.0,0.0,0.0,0.0,0.0,0.0,0.0,0.0,7.875107822037573e-05,-5.48827180447687e-05,-3.337254084613851e-05,0.0,0.0,0.0,0.0,0.0,0.0,0.0,0.0,0.0
5.102,141,5,101000000,base_footprint,-0.00010165853680483773,0.0038733511440105076,0.02371291509855765,0.9997113005633106,0.0,0.0,0.0,0.0,0.0,0.0,0.0,0.0,0.0,1.9590114684096855e-05,-6.0670511324747924e-05,0.00020905744630498924,0.0,0.0,0.0,0.0,0.0,0.0,0.0,0.0,0.0,-2.9198486727590365e-05,-1.0695458222252395e-05,1.2883726904744574e-05,0.0,0.0,0.0,0.0,0.0,0.0,0.0,0.0,0.0
5.136,142,5,135000000,base_footprint,-0.00010156251125684221,0.003873359673784402,0.02371623104610025,0.9997112218810299,0.0,0.0,0.0,0.0,0.0,0.0,0.0,0.0,0.0,1.8050718298644917e-05,-5.841603610281752e-05,0.00021548391471425457,0.0,0.0,0.0,0.0,0.0,0.0,0.0,0.0,0.0,-2.516276739788391e-06,1.4354970990884251e-05,-4.02904554065977e-06,0.0,0.0,0.0,0.0,0.0,0.0,0.0,0.0,0.0
5.169,143,5,169000000,base_footprint,-0.00010148881001779293,0.003873373405049186,0.023719773370475858,0.999711137794183,0.0,0.0,0.0,0.0,0.0,0.0,0.0,0.0,0.0,1.7669219741705073e-05,-5.8927509874979714e-05,0.00023015930314712583,0.0,0.0,0.0,0.0,0.0,0.0,0.0,0.0,0.0,-5.054945540941898e-06,-1.0401798011703187e-05,4.594549543655189e-07,0.0,0.0,0.0,0.0,0.0,0.0,0.0,0.0,0.0
5.206,144,5,203000000,base_footprint,-0.00010142334635570572,0.0038733834590718038,0.023723475473200358,0.9997110499166028,0.0,0.0,0.0,0.0,0.0,0.0,0.0,0.0,0.0,1.77543080377438e-05,-5.8940768432255525e-05,0.00023710007062905617,0.0,0.0,0.0,0.0,0.0,0.0,0.0,0.0,0.0,-6.634494561759977e-06,3.290729855784075e-06,-4.7880849104657934e-08,0.0,0.0,0.0,0.0,0.0,0.0,0.0,0.0,0.0
5.239,145,5,237000000,base_footprint,-9.923652056827705e-05,0.003851737707377465,0.023790817121956728,0.9997095334593026,0.0,0.0,0.0,0.0,0.0,0.0,0.0,0.0,0.0,0.00012559613446493458,-0.00017261630923471718,0.009914407580029736,0.0,0.0,0.0,0.0,0.0,0.0,0.0,0.0,0.0,0.3616709751613804,0.036549508842493514,-0.002413681645640158,0.0,0.0,0.0,0.0,0.0,0.0,0.0,0.0,0.0
5.271,146,5,271000000,base_footprint,-0.0001002932748094211,0.003851915129645206,0.024050942706224064,0.9997033084100678,0.0,0.0,0.0,0.0,0.0,0.0,0.0,0.0,0.0,0.00020834919435074812,-0.00010790901906411945,0.02085699595142588,0.0,0.0,0.0,0.0,0.0,0.0,0.0,0.0,0.0,0.45092917928581555,0.04279312614594511,-0.0034882579577600902,0.0,0.0,0.0,0.0,0.0,0.0,0.0,0.0,0.0
5.306,147,5,305000000,base_footprint,-0.0001020567389918273,0.0038519173768068343,0.02452031126060986,0.9996919058653156,0.0,0.0,0.0,0.0,0.0,0.0,0.0,0.0,0.0,0.0003183261537578987,-0.00011871717709434964,0.03418405258591177,0.0,0.0,0.0,0.0,0.0,0.0,0.0,0.0,0.0,0.5100931479131021,0.050707437028372895,-0.003924239120930965,0.0,0.0,0.0,0.0,0.0,0.0,0.0,0.0,0.0
5.343,148,5,339000000,base_footprint,-0.00010469363215749955,0.0038518680708542826,0.025238861871629922,0.9996740228709722,0.0,0.0,0.0,0.0,0.0,0.0,0.0,0.0,0.0,0.0004460241210615866,-0.00010609497434184938,0.05029637316150977,0.0,0.0,0.0,0.0,0.0,0.0,0.0,0.0,0.0,0.5815321684449102,0.06040022824339274,-0.004506029950302713,0.0,0.0,0.0,0.0,0.0,0.0,0.0,0.0,0.0
5.373,149,5,373000000,base_footprint,-0.0001084449320615396,0.0038518941477141888,0.026261237723312035,0.9996476872100547,0.0,0.0,0.0,0.0,0.0,0.0,0.0,0.0,0.0,0.0006012826862671883,-0.00011067060945171541,0.07005446684463908,0.0,0.0,0.0,0.0,0.0,0.0,0.0,0.0,0.0,0.6573270583015641,0.07256791118694986,-0.005071555004417408,0.0,0.0,0.0,0.0,0.0,0.0,0.0,0.0,0.0
5.408,150,5,407000000,base_footprint,-0.00011365501591042441,0.0038519371535121532,0.027656855761400773,0.9996100479647532,0.0,0.0,0.0,0.0,0.0,0.0,0.0,0.0,0.0,0.0007819262084655177,-0.00011784098329419009,0.09434322825744978,0.0,0.0,0.0,0.0,0.0,0.0,0.0,0.0,0.0,0.7242002099978211,0.08677979271073655,-0.005585223118417132,0.0,0.0,0.0,0.0,0.0,0.0,0.0,0.0,0.0
5.442,151,5,441000000,base_footprint,-0.00012097077020886087,0.0038521290511943137,0.029511075863449716,0.9995570233204444,0.0,0.0,0.0,0.0,0.0,0.0,0.0,0.0,0.0,0.000986599386162263,-8.609365160591704e-05,0.12399581809940012,0.0,0.0,0.0,0.0,0.0,0.0,0.0,0.0,0.0,0.7648859925518614,0.10225749687041845,-0.005954693614285386,0.0,0.0,0.0,0.0,0.0,0.0,0.0,0.0,0.0
5.475,152,5,475000000,base_footprint,-0.00013024523281217587,0.0038534769346858727,0.031865277194070465,0.9994847361821182,0.0,0.0,0.0,0.0,0.0,0.0,0.0,0.0,0.0,0.0012053248312591013,3.4091254874165944e-06,0.15062429450839226,0.0,0.0,0.0,0.0,0.0,0.0,0.0,0.0,0.0,0.7682117075193408,0.11807148524412625,-0.006089167223324096,0.0,0.0,0.0,0.0,0.0,0.0,0.0,0.0,0.0
5.509,153,5,509000000,base_footprint,-0.00014313853211509578,0.003857695590848248,0.034572395296184985,0.9993947404202073,0.0,0.0,0.0,0.0,0.0,0.0,0.0,0.0,0.0,-0.0008318205196709915,0.0015200235162549005,0.14327028995324537,0.0,0.0,0.0,0.0,0.0,0.0,0.0,0.0,0.0,0.6937024284329336,0.12238670936900502,-0.006395705178123918,0.0,0.0,0.0,0.0,0.0,0.0,0.0,0.0,0.0
5.543,154,5,543000000,base_footprint,-0.00014596795097043862,0.0038649556316912768,0.035486930215974495,0.999362656194021,0.0,0.0,0.0,0.0,0.0,0.0,0.0,0.0,0.0,5.6656022637575036e-05,-5.873120012916011e-05,0.0037925643049685105,0.0,0.0,0.0,0.0,0.0,0.0,0.0,0.0,0.0,0.2931358456803334,0.0529901646295887,-0.0017878569199325446,0.0,0.0,0.0,0.0,0.0,0.0,0.0,0.0,0.0
5.577,155,5,577000000,base_footprint,-0.00013730762913351151,0.003864485412519886,0.03428519877555384,0.9994046087766618,0.0,0.0,0.0,0.0,0.0,0.0,0.0,0.0,0.0,-0.0004872207597178874,7.573124461039131e-06,-0.1303655544803544,0.0,0.0,0.0,0.0,0.0,0.0,0.0,0.0,0.0,0.34804065433025855,0.0378754307239966,-0.002114932939392428,0.0,0.0,0.0,0.0,0.0,0.0,0.0,0.0,0.0
5.611,156,5,611000000,base_footprint,-0.00012558566887262417,0.003873341137125983,0.0321337760384996,0.9994760636924643,0.0,0.0,0.0,0.0,0.0,0.0,0.0,0.0,0.0,0.0017740607172903973,-0.0028767845452443526,-0.09994397543224086,0.0,0.0,0.0,0.0,0.0,0.0,0.0,0.0,0.0,-0.014371555780801733,-0.025705836301007423,0.008520175313413172,0.0,0.0,0.0,0.0,0.0,0.0,0.0,0.0,0.0
5.645,157,5,645000000,base_footprint,-0.00013530456368308997,0.00386929424662033,0.03198052288534769,0.9994809935214816,0.0,0.0,0.0,0.0,0.0,0.0,0.0,0.0,0.0,0.002741343621379255,-0.00047364008612552945,0.027430809086591075,0.0,0.0,0.0,0.0,0.0,0.0,0.0,0.0,0.0,-0.03354211108213691,-0.01482281776152796,-0.0046836347797096205,0.0,0.0,0.0,0.0,0.0,0.0,0.0,0.0,0.0
5.679,158,5,679000000,base_footprint,-0.00012805020761057822,0.0038647138476531296,0.03227096756185823,0.9994716765584915,0.0,0.0,0.0,0.0,0.0,0.0,0.0,0.0,0.0,0.00027116184925192824,-9.136584710286235e-05,0.015684678461522182,0.0,0.0,0.0,0.0,0.0,0.0,0.0,0.0,0.0,0.002980088846614178,-0.011917869669097587,-0.003265859285012782,0.0,0.0,0.0,0.0,0.0,0.0,0.0,0.0,0.0
5.713,159,5,713000000,base_footprint,-0.0001220998169872657,0.003856890556937845,0.03245678026608985,0.9994656907076027,0.0,0.0,0.0,0.0,0.0,0.0,0.0,0.0,0.0,0.00040232912415433996,0.0012426609255541462,0.006471095328837367,0.0,0.0,0.0,0.0,0.0,0.0,0.0,0.0,0.0,-0.023149891612859935,0.0230308392474158,-0.0022968715351037966,0.0,0.0,0.0,0.0,0.0,0.0,0.0,0.0,0.0
5.747,160,5,747000000,base_footprint,-0.00012342905325677043,0.0038590863561027114,0.03223145819970788,0.9994729737817254,0.0,0.0,0.0,0.0,0.0,0.0,0.0,0.0,0.0,-0.0002771605311375593,-0.00017463430764806486,-0.04033646690698353,0.0,0.0,0.0,0.0,0.0,0.0,0.0,0.0,0.0,0.11865495765482484,0.00990370483823447,0.0011696745146770006,0.0,0.0,0.0,0.0,0.0,0.0,0.0,0.0,0.0
5.781,161,5,781000000,base_footprint,-0.00011955120833750157,0.003858799110231159,0.03085048707620917,0.9995165545522977,0.0,0.0,0.0,0.0,0.0,0.0,0.0,0.0,0.0,-0.0026958923141183594,0.0015856956221783826,-0.12487417824195235,0.0,0.0,0.0,0.0,0.0,0.0,0.0,0.0,0.0,0.22379729116514546,0.008621065395511695,-0.00558601989422662,0.0,0.0,0.0,0.0,0.0,0.0,0.0,0.0,0.0
5.815,162,5,815000000,base_footprint,-0.00011836243983494111,0.0038659425332330873,0.028579055292794465,0.9995840525324692,0.0,0.0,0.0,0.0,0.0,0.0,0.0,0.0,0.0,-0.0008439010847685597,-0.0005234829455593974,-0.13198808102833604,0.0,0.0,0.0,0.0,0.0,0.0,0.0,0.0,0.0,0.03599046513271126,-0.02417210181387158,0.0044523885078076465,0.0,0.0,0.0,0.0,0.0,0.0,0.0,0.0,0.0
5.849,163,5,849000000,base_footprint,-0.0001089530409002873,0.0038619657365318513,0.026328320369892067,0.999645883749033,0.0,0.0,0.0,0.0,0.0,0.0,0.0,0.0,0.0,-0.0009093669843953752,-0.00039221983103457234,-0.13279311043984232,0.0,0.0,0.0,0.0,0.0,0.0,0.0,0.0,0.0,0.008631377022440226,-0.028468775160399938,-0.00034644675573844934,0.0,0.0,0.0,0.0,0.0,0.0,0.0,0.0,0.0
5.883,164,5,883000000,base_footprint,-9.98735075011513e-05,0.0038603059772372127,0.024066511752739113,0.9997029014037621,0.0,0.0,0.0,0.0,0.0,0.0,0.0,0.0,0.0,-0.0009503958645582856,-0.00029286359239865994,-0.13341241838681192,0.0,0.0,0.0,0.0,0.0,0.0,0.0,0.0,0.0,0.008746576902370143,-0.02869951642506237,-0.00024675951987052574,0.0,0.0,0.0,0.0,0.0,0.0,0.0,0.0,0.0
5.917,165,5,917000000,base_footprint,-9.140360525927752e-05,0.003860506227533705,0.021835886633836475,0.9997541108652479,0.0,0.0,0.0,0.0,0.0,0.0,0.0,0.0,0.0,-0.0009107597578731691,-0.0002947509464990942,-0.12443902386424152,0.0,0.0,0.0,0.0,0.0,0.0,0.0,0.0,0.0,0.005984183039499834,-0.029088584847090773,-8.910698046116348e-05,0.0,0.0,0.0,0.0,0.0,0.0,0.0,0.0,0.0
5.9510000000000005,166,5,951000000,base_footprint,-8.37276791771835e-05,0.003861833038040786,0.019711682899570645,0.9997982440435316,0.0,0.0,0.0,0.0,0.0,0.0,0.0,0.0,0.0,-0.0009557425791735865,-0.00011726486864164901,-0.1253161582169516,0.0,0.0,0.0,0.0,0.0,0.0,0.0,0.0,0.0,0.008098701892213326,-0.026894922638720307,-0.0003650038616044731,0.0,0.0,0.0,0.0,0.0,0.0,0.0,0.0,0.0
5.985,167,5,985000000,base_footprint,-7.649688292790308e-05,0.0038651059372621717,0.017571307396119507,0.9998381390308693,0.0,0.0,0.0,0.0,0.0,0.0,0.0,0.0,0.0,-0.001025592692204246,1.5366917993359654e-05,-0.12701734898514597,0.0,0.0,0.0,0.0,0.0,0.0,0.0,0.0,0.0,0.007872403009575216,-0.027489428406142238,-0.0003382108369751861,0.0,0.0,0.0,0.0,0.0,0.0,0.0,0.0,0.0
6.019,168,6,19000000,base_footprint,-6.897794731176209e-05,0.0038699772892734747,0.015411738113012554,0.999873740452343,0.0,0.0,0.0,0.0,0.0,0.0,0.0,0.0,0.0,-0.0010222851632384342,4.155310890341028e-05,-0.12700209415318015,0.0,0.0,0.0,0.0,0.0,0.0,0.0,0.0,0.0,0.006098199748974071,-0.02844504177782702,-0.00022213450052599858,0.0,0.0,0.0,0.0,0.0,0.0,0.0,0.0,0.0
6.053,169,6,53000000,base_footprint,-6.05535114764026e-05,0.0038740936330872878,0.013259446555666443,0.9999045828521999,0.0,0.0,0.0,0.0,0.0,0.0,0.0,0.0,0.0,-0.0009754210303898769,1.2296174602688861e-05,-0.1260107341945198,0.0,0.0,0.0,0.0,0.0,0.0,0.0,0.0,0.0,0.002351673072816132,-0.028606775629044245,-5.393933502409608e-05,0.0,0.0,0.0,0.0,0.0,0.0,0.0,0.0,0.0
6.087,170,6,87000000,base_footprint,-5.110465497832217e-05,0.003856730922202904,0.011089349581172187,0.9999310722948731,0.0,0.0,0.0,0.0,0.0,0.0,0.0,0.0,0.0,-0.0021163170825030347,-0.0003796112953816149,-0.1343160087769595,0.0,0.0,0.0,0.0,0.0,0.0,0.0,0.0,0.0,-0.16180973576788932,-0.03569839067449511,0.0037411918457173105,0.0,0.0,0.0,0.0,0.0,0.0,0.0,0.0,0.0
6.121,171,6,121000000,base_footprint,-4.206898614785227e-05,0.0038752468456529484,0.008935060064017031,0.9999525715721412,0.0,0.0,0.0,0.0,0.0,0.0,0.0,0.0,0.0,-0.0016463869709725104,0.0007831252183100602,-0.10372900778110174,0.0,0.0,0.0,0.0,0.0,0.0,0.0,0.0,0.0,-0.17046037637491512,-0.03569135770683908,-0.002900458051049955,0.0,0.0,0.0,0.0,0.0,0.0,0.0,0.0,0.0
6.155,172,6,155000000,base_footprint,-3.353482852691356e-05,0.003874731477523025,0.007342135672891897,0.9999655385937825,0.0,0.0,0.0,0.0,0.0,0.0,0.0,0.0,0.0,-0.0006337505741816003,-0.00030478716107801306,-0.08622549816098503,0.0,0.0,0.0,0.0,0.0,0.0,0.0,0.0,0.0,-0.06415872801399651,-0.018797413188176234,0.002828306620602578,0.0,0.0,0.0,0.0,0.0,0.0,0.0,0.0,0.0
6.189,173,6,189000000,base_footprint,-2.7031714334423298e-05,0.0038736383528096582,0.0058693264889016945,0.9999752722951527,0.0,0.0,0.0,0.0,0.0,0.0,0.0,0.0,0.0,0.00014980899784455568,-0.00030792272632797294,-0.068774435647491,0.0,0.0,0.0,0.0,0.0,0.0,0.0,0.0,0.0,-0.02669560858913197,-0.013731891335588725,0.00012388938785716448,0.0,0.0,0.0,0.0,0.0,0.0,0.0,0.0,0.0
6.222,174,6,223000000,base_footprint,-2.6679576584265684e-05,0.0038730860549678055,0.004762197814416566,0.9999811598048173,0.0,0.0,0.0,0.0,0.0,0.0,0.0,0.0,0.0,-0.0006653180978234113,-0.0001251169240970182,-0.06852357379569658,0.0,0.0,0.0,0.0,0.0,0.0,0.0,0.0,0.0,0.021380094731194944,-0.01683473274710537,-0.00044118324998007233,0.0,0.0,0.0,0.0,0.0,0.0,0.0,0.0,0.0
6.255,175,6,257000000,base_footprint,-2.1137469527156502e-05,0.0038725129826953173,0.003603316666497425,0.9999860095548374,0.0,0.0,0.0,0.0,0.0,0.0,0.0,0.0,0.0,-0.0004702855194388017,-0.0002865771396313452,-0.0677187647448969,0.0,0.0,0.0,0.0,0.0,0.0,0.0,0.0,0.0,0.012476695119646363,-0.015494061869711235,0.0003858809121998909,0.0,0.0,0.0,0.0,0.0,0.0,0.0,0.0,0.0
6.291,176,6,291000000,base_footprint,-1.649651513246909e-05,0.0038680808231993497,0.0024489989806278866,0.9999895199863863,0.0,0.0,0.0,0.0,0.0,0.0,0.0,0.0,0.0,-0.0003939371474808641,-0.0003596372886011717,-0.06814440104417929,0.0,0.0,0.0,0.0,0.0,0.0,0.0,0.0,0.0,0.0037014560268112647,-0.013220738560242116,0.00030312829470224584,0.0,0.0,0.0,0.0,0.0,0.0,0.0,0.0,0.0
6.325,177,6,325000000,base_footprint,-1.4254005553598106e-05,0.0038661135681589214,0.001942629692002082,0.9999906395324815,0.0,0.0,0.0,0.0,0.0,0.0,0.0,0.0,0.0,0.000223770266247727,-0.0003975736867556787,0.016745247872574098,0.0,0.0,0.0,0.0,0.0,0.0,0.0,0.0,0.0,-0.031723517954027634,-0.00697519057602868,0.00024325160727122107,0.0,0.0,0.0,0.0,0.0,0.0,0.0,0.0,0.0
6.358,178,6,359000000,base_footprint,-1.3595660005177472e-05,0.0038552381269325044,0.0019052540677511698,0.9999907534377905,0.0,0.0,0.0,0.0,0.0,0.0,0.0,0.0,0.0,-0.0005221556750663378,0.00010123207616557619,-0.06113109133756518,0.0,0.0,0.0,0.0,0.0,0.0,0.0,0.0,0.0,0.2985071527211473,0.0029607022671963757,-0.0030131050300509776,0.0,0.0,0.0,0.0,0.0,0.0,0.0,0.0,0.0
6.393,179,6,393000000,base_footprint,-9.291254518223916e-06,0.0038612214107077098,0.0003546988048840652,0.9999924825075677,0.0,0.0,0.0,0.0,0.0,0.0,0.0,0.0,0.0,-0.0007106031121984159,-0.0002074574914673116,-0.09435429331538239,0.0,0.0,0.0,0.0,0.0,0.0,0.0,0.0,0.0,0.09703946146920228,-0.020527386491607316,-0.0002965851189827167,0.0,0.0,0.0,0.0,0.0,0.0,0.0,0.0,0.0
6.427,180,6,427000000,base_footprint,-3.926439078022576e-06,0.003862265734014751,-0.0012507788517973225,0.999991759186168,0.0,0.0,0.0,0.0,0.0,0.0,0.0,0.0,0.0,-0.0007436371098480971,-9.774459927425068e-05,-0.09462219881691761,0.0,0.0,0.0,0.0,0.0,0.0,0.0,0.0,0.0,0.005713283654933005,-0.020764075572870435,-0.0002742085624594405,0.0,0.0,0.0,0.0,0.0,0.0,0.0,0.0,0.0
6.461,181,6,461000000,base_footprint,1.0031258534055901e-06,0.0038649978950024413,-0.002861825391652995,0.9999884358059813,0.0,0.0,0.0,0.0,0.0,0.0,0.0,0.0,0.0,-0.0007856282141016394,9.689884830550712e-06,-0.0949776641972695,0.0,0.0,0.0,0.0,0.0,0.0,0.0,0.0,0.0,0.005307240225387263,-0.021156676160652,-0.0002802969421862426,0.0,0.0,0.0,0.0,0.0,0.0,0.0,0.0,0.0
6.495,182,6,495000000,base_footprint,5.99532355290201e-06,0.0038692907007203074,-0.004476317758273883,0.9999824954132229,0.0,0.0,0.0,0.0,0.0,0.0,0.0,0.0,0.0,-0.0008067155874070319,4.515724347582502e-05,-0.09489635893276435,0.0,0.0,0.0,0.0,0.0,0.0,0.0,0.0,0.0,0.0040636072407257045,-0.02158652224555818,-0.0002349855804934818,0.0,0.0,0.0,0.0,0.0,0.0,0.0,0.0,0.0
6.529,183,6,529000000,base_footprint,1.1468074649947076e-05,0.003872961033930374,-0.005837104510112052,0.9999754638251136,0.0,0.0,0.0,0.0,0.0,0.0,0.0,0.0,0.0,-0.00045414991888007185,0.00018196515546144073,-0.0707926262581479,0.0,0.0,0.0,0.0,0.0,0.0,0.0,0.0,0.0,-0.00528973952463017,-0.018056135279819117,-0.00011467629900288315,0.0,0.0,0.0,0.0,0.0,0.0,0.0,0.0,0.0
6.563,184,6,563000000,base_footprint,1.6536078713721666e-05,0.0038751738267180686,-0.007017492190655515,0.9999678682626383,0.0,0.0,0.0,0.0,0.0,0.0,0.0,0.0,0.0,-0.00045530493091581694,-9.339964161419987e-05,-0.06809049169048974,0.0,0.0,0.0,0.0,0.0,0.0,0.0,0.0,0.0,-0.004824658049963628,-0.01694234548912714,0.00036833964865454823,0.0,0.0,0.0,0.0,0.0,0.0,0.0,0.0,0.0
6.597,185,6,597000000,base_footprint,2.333093767852804e-05,0.003873827641827564,-0.00813498218131036,0.9999594066660799,0.0,0.0,0.0,0.0,0.0,0.0,0.0,0.0,0.0,-0.00027573337653937044,-0.0003103824133032508,-0.06190824491544444,0.0,0.0,0.0,0.0,0.0,0.0,0.0,0.0,0.0,-0.017478664132591044,-0.015605446480384724,0.0006146504769066832,0.0,0.0,0.0,0.0,0.0,0.0,0.0,0.0,0.0
6.632,186,6,631000000,base_footprint,2.8771675666531554e-05,0.0038753602700812863,-0.009093717679962652,0.9999511413332779,0.0,0.0,0.0,0.0,0.0,0.0,0.0,0.0,0.0,-0.0011086547639358828,0.0004839989385353114,-0.05865010580422743,0.0,0.0,0.0,0.0,0.0,0.0,0.0,0.0,0.0,-0.044552240687395245,-0.00706702675202711,-0.0015685609007539119,0.0,0.0,0.0,0.0,0.0,0.0,0.0,0.0,0.0
6.664,187,6,665000000,base_footprint,2.820365265793091e-05,0.0038694593219792,-0.010195465623906226,0.9999405377170292,0.0,0.0,0.0,0.0,0.0,0.0,0.0,0.0,0.0,-0.0006440365281653836,-0.000289091966456723,-0.06462140314557258,0.0,0.0,0.0,0.0,0.0,0.0,0.0,0.0,0.0,0.02394410127046831,-0.010154082816980022,0.001528816675141051,0.0,0.0,0.0,0.0,0.0,0.0,0.0,0.0,0.0
6.698,188,6,699000000,base_footprint,3.733752008314371e-05,0.003874071480337609,-0.011436072360586675,0.9999271005553546,0.0,0.0,0.0,0.0,0.0,0.0,0.0,0.0,0.0,-0.00011003071431713927,0.0006500268119244594,-0.07328827116332273,0.0,0.0,0.0,0.0,0.0,0.0,0.0,0.0,0.0,-0.0045274729365450735,-0.016804058968627262,-0.001543693726426383,0.0,0.0,0.0,0.0,0.0,0.0,0.0,0.0,0.0
6.7330000000000005,189,6,733000000,base_footprint,4.1208616943243145e-05,0.0038725439625098518,-0.012577546411936796,0.9999133997658818,0.0,0.0,0.0,0.0,0.0,0.0,0.0,0.0,0.0,-0.00023025451946726873,-0.0002592697277070198,-0.06628041986175123,0.0,0.0,0.0,0.0,0.0,0.0,0.0,0.0,0.0,0.003234681249317087,-0.01940355879559772,0.001823565707881308,0.0,0.0,0.0,0.0,0.0,0.0,0.0,0.0,0.0
6.767,190,6,767000000,base_footprint,4.708647019860952e-05,0.0038686405181245363,-0.013689777821161712,0.9998988055731505,0.0,0.0,0.0,0.0,0.0,0.0,0.0,0.0,0.0,-0.00040357069969309243,-0.0003423950720825479,-0.0655113097699225,0.0,0.0,0.0,0.0,0.0,0.0,0.0,0.0,0.0,0.00709238632118422,-0.013619644170505655,7.365847988678225e-05,0.0,0.0,0.0,0.0,0.0,0.0,0.0,0.0,0.0
6.801,191,6,801000000,base_footprint,5.0809431315738544e-05,0.0038650373834167476,-0.014808936962128292,0.9998828702855542,0.0,0.0,0.0,0.0,0.0,0.0,0.0,0.0,0.0,-0.0005223405841661805,-0.00032787705653209353,-0.0661278656751624,0.0,0.0,0.0,0.0,0.0,0.0,0.0,0.0,0.0,0.004437276170533179,-0.01503039652021482,1.798884351685757e-05,0.0,0.0,0.0,0.0,0.0,0.0,0.0,0.0,0.0
6.829,192,6,835000000,base_footprint,5.119340028144263e-05,0.0038613254958052654,-0.015184341306551106,0.9998772541285943,0.0,0.0,0.0,0.0,0.0,0.0,0.0,0.0,0.0,0.0003291573316773471,0.0004739728185448654,0.01894301643833217,0.0,0.0,0.0,0.0,0.0,0.0,0.0,0.0,0.0,-0.3612975131012356,0.015564558407842285,0.0016946000239642259,0.0,0.0,0.0,0.0,0.0,0.0,0.0,0.0,0.0
6.869,193,6,869000000,base_footprint,4.9189768689577756e-05,0.003862325600814165,-0.01486948918751319,0.9998819821922098,0.0,0.0,0.0,0.0,0.0,0.0,0.0,0.0,0.0,0.00011553611328219606,-0.00017582747518166044,0.018260274214077558,0.0,0.0,0.0,0.0,0.0,0.0,0.0,0.0,0.0,0.009419203591180382,0.0037974122228362607,0.0006961603593593558,0.0,0.0,0.0,0.0,0.0,0.0,0.0,0.0,0.0
6.9030000000000005,194,6,903000000,base_footprint,4.683700969603747e-05,0.003863444452769683,-0.014561848299383362,0.9998865056481965,0.0,0.0,0.0,0.0,0.0,0.0,0.0,0.0,0.0,9.029718159016132e-05,-9.736785514471401e-05,0.017902769433967444,0.0,0.0,0.0,0.0,0.0,0.0,0.0,0.0,0.0,0.005499119247425014,0.0033625997509024487,-0.00021136577382453698,0.0,0.0,0.0,0.0,0.0,0.0,0.0,0.0,0.0
6.937,195,6,937000000,base_footprint,4.376858415516207e-05,0.003866063397843504,-0.014166771886347114,0.9998921712927026,0.0,0.0,0.0,0.0,0.0,0.0,0.0,0.0,0.0,0.0001032704704295261,3.1926863001508902e-06,0.02400350545423215,0.0,0.0,0.0,0.0,0.0,0.0,0.0,0.0,0.0,0.0036230789781862326,0.004470030189341185,-0.00025025654407614527,0.0,0.0,0.0,0.0,0.0,0.0,0.0,0.0,0.0
6.971,196,6,971000000,base_footprint,4.070268427207919e-05,0.00386993010867924,-0.013758867562491823,0.9998978525567715,0.0,0.0,0.0,0.0,0.0,0.0,0.0,0.0,0.0,5.113196393279362e-05,1.4332370287119536e-05,0.023941649110566635,0.0,0.0,0.0,0.0,0.0,0.0,0.0,0.0,0.0,0.004722143605916283,0.003969262952582063,-0.00019370478558105436,0.0,0.0,0.0,0.0,0.0,0.0,0.0,0.0,0.0
7.005,197,7,5000000,base_footprint,3.836513351352136e-05,0.003873681758315789,-0.013349559859640496,0.9999033865175704,0.0,0.0,0.0,0.0,0.0,0.0,0.0,0.0,0.0,9.134301833362589e-05,7.8681966277829e-05,0.024641830970000955,0.0,0.0,0.0,0.0,0.0,0.0,0.0,0.0,0.0,0.0031247786844769707,0.004198857273995718,-0.00016005481731127253,0.0,0.0,0.0,0.0,0.0,0.0,0.0,0.0,0.0
7.039,198,7,39000000,base_footprint,4.02052350529323e-05,0.0038699142575312332,-0.012829924976871488,0.9999102035544324,0.0,0.0,0.0,0.0,0.0,0.0,0.0,0.0,0.0,-0.0004562946335256503,0.0016802307417486154,0.018516627425934237,0.0,0.0,0.0,0.0,0.0,0.0,0.0,0.0,0.0,0.31982698105662405,-0.008449100148961618,-0.0051851354461709435,0.0,0.0,0.0,0.0,0.0,0.0,0.0,0.0,0.0
7.073,199,7,73000000,base_footprint,3.773788327113814e-05,0.0038765531919467827,-0.01230677798571468,0.9999167535984246,0.0,0.0,0.0,0.0,0.0,0.0,0.0,0.0,0.0,0.0007503025530205775,-0.0002615681287050167,0.03207757958930962,0.0,0.0,0.0,0.0,0.0,0.0,0.0,0.0,0.0,0.016218098965113472,0.007819441666215236,0.003231629055775542,0.0,0.0,0.0,0.0,0.0,0.0,0.0,0.0,0.0
7.107,200,7,107000000,base_footprint,4.054929260923151e-05,0.0038754360435451227,-0.011754651083120578,0.9999234008308544,0.0,0.0,0.0,0.0,0.0,0.0,0.0,0.0,0.0,0.00046928718280129286,-0.00037046105132006147,0.03643281802567836,0.0,0.0,0.0,0.0,0.0,0.0,0.0,0.0,0.0,-0.021863453395907867,0.005440035711655255,0.00032443965620789194,0.0,0.0,0.0,0.0,0.0,0.0,0.0,0.0,0.0
7.141,201,7,141000000,base_footprint,3.109536348457425e-05,0.003872867246391555,-0.011267092495035913,0.999929023760726,0.0,0.0,0.0,0.0,0.0,0.0,0.0,0.0,0.0,-0.0005380949157474731,-0.0005472953451031326,0.014756746495496631,0.0,0.0,0.0,0.0,0.0,0.0,0.0,0.0,0.0,-0.024147564668753337,0.018959712137392993,0.0004777539757776508,0.0,0.0,0.0,0.0,0.0,0.0,0.0,0.0,0.0
7.175,202,7,175000000,base_footprint,2.9371737737692835e-05,0.0038697209539086765,-0.011212278669712916,0.9999296521276247,0.0,0.0,0.0,0.0,0.0,0.0,0.0,0.0,0.0,-0.0008251853968081642,-0.000988952672774433,-0.00024089037750262696,0.0,0.0,0.0,0.0,0.0,0.0,0.0,0.0,0.0,-0.043729864323355266,-0.005824816229596229,0.0007800912177663693,0.0,0.0,0.0,0.0,0.0,0.0,0.0,0.0,0.0
7.208,203,7,209000000,base_footprint,3.191769983650523e-05,0.003870413527955401,-0.011045957691719498,0.9999315005034374,0.0,0.0,0.0,0.0,0.0,0.0,0.0,0.0,0.0,0.0014941055719060751,0.0005820671661611699,0.023213443175859366,0.0,0.0,0.0,0.0,0.0,0.0,0.0,0.0,0.0,0.05370077776295569,-0.003223816618866674,-0.0026895946286477723,0.0,0.0,0.0,0.0,0.0,0.0,0.0,0.0,0.0
7.243,204,7,243000000,base_footprint,3.1999985199250634e-05,0.003867700358975152,-0.010655165513805213,0.999935751594975,0.0,0.0,0.0,0.0,0.0,0.0,0.0,0.0,0.0,0.0002734880812792376,-0.0004107288595458225,0.022437896661159626,0.0,0.0,0.0,0.0,0.0,0.0,0.0,0.0,0.0,0.007961921690138185,0.006046976581324618,0.001703058224246939,0.0,0.0,0.0,0.0,0.0,0.0,0.0,0.0,0.0
7.277,205,7,277000000,base_footprint,3.075865757334266e-05,0.003865282935253371,-0.010277382621460749,0.9999397152069658,0.0,0.0,0.0,0.0,0.0,0.0,0.0,0.0,0.0,0.00019384506605198845,-0.000304574477957945,0.021984387944747087,0.0,0.0,0.0,0.0,0.0,0.0,0.0,0.0,0.0,0.005087589898506248,0.004588080729845373,-0.00011739714822031132,0.0,0.0,0.0,0.0,0.0,0.0,0.0,0.0,0.0
7.311,206,7,311000000,base_footprint,2.885122248181092e-05,0.0038629620037460262,-0.009918456694835744,0.9999433488498023,0.0,0.0,0.0,0.0,0.0,0.0,0.0,0.0,0.0,-0.00036948217192613156,-0.0004180485826691666,0.012740201823158296,0.0,0.0,0.0,0.0,0.0,0.0,0.0,0.0,0.0,0.007409931961349909,0.00342372068829026,0.00022834189438888304,0.0,0.0,0.0,0.0,0.0,0.0,0.0,0.0,0.0
7.345,207,7,345000000,base_footprint,2.7309123063620562e-05,0.0038623831029647353,-0.009715662107936169,0.9999453420866473,0.0,0.0,0.0,0.0,0.0,0.0,0.0,0.0,0.0,8.703014665112723e-05,-0.00018826650735883586,0.011891418768910679,0.0,0.0,0.0,0.0,0.0,0.0,0.0,0.0,0.0,0.006724817666335861,0.003054100029594997,-0.0005608275944362538,0.0,0.0,0.0,0.0,0.0,0.0,0.0,0.0,0.0
7.379,208,7,379000000,base_footprint,2.57003264002467e-05,0.0038633471767121627,-0.009515433531263802,0.9999472638158463,0.0,0.0,0.0,0.0,0.0,0.0,0.0,0.0,0.0,6.540103679337621e-05,-0.00010215799732926398,0.01163325415646353,0.0,0.0,0.0,0.0,0.0,0.0,0.0,0.0,0.0,0.005706524359872614,0.0022718411134080943,-0.00022676743909613687,0.0,0.0,0.0,0.0,0.0,0.0,0.0,0.0,0.0
7.413,209,7,413000000,base_footprint,2.379461987474017e-05,0.0038659678452562718,-0.009320236500395563,0.9999490921632022,0.0,0.0,0.0,0.0,0.0,0.0,0.0,0.0,0.0,3.713873354633131e-05,-1.5662269910931523e-05,0.011023249009449239,0.0,0.0,0.0,0.0,0.0,0.0,0.0,0.0,0.0,0.0055631513068635135,0.002176639905823506,-0.00024688871818356287,0.0,0.0,0.0,0.0,0.0,0.0,0.0,0.0,0.0
7.447,210,7,447000000,base_footprint,2.208877868465047e-05,0.0038697635971278606,-0.00913273149895993,0.9999508076186329,0.0,0.0,0.0,0.0,0.0,0.0,0.0,0.0,0.0,-5.84148715279423e-05,7.64165658400418e-05,0.011080563264420324,0.0,0.0,0.0,0.0,0.0,0.0,0.0,0.0,0.0,0.004788908293554135,0.0014350580871066963,-0.000357059193372716,0.0,0.0,0.0,0.0,0.0,0.0,0.0,0.0,0.0
7.481,211,7,481000000,base_footprint,2.045020256911291e-05,0.003874671038033963,-0.008939035288157149,0.9999525389508512,0.0,0.0,0.0,0.0,0.0,0.0,0.0,0.0,0.0,6.965130932545092e-05,9.09837741395447e-05,0.011949506125526418,0.0,0.0,0.0,0.0,0.0,0.0,0.0,0.0,0.0,0.0023992860808678966,0.0020814306935129567,-0.00013224751822776883,0.0,0.0,0.0,0.0,0.0,0.0,0.0,0.0,0.0
7.515,212,7,515000000,base_footprint,1.96137989261457e-05,0.0038771077736666063,-0.008702049641498693,0.9999546199616497,0.0,0.0,0.0,0.0,0.0,0.0,0.0,0.0,0.0,-3.390077270004613e-05,0.00013182308138994897,0.020245581479801017,0.0,0.0,0.0,0.0,0.0,0.0,0.0,0.0,0.0,-0.0013333210443855874,0.002007437170317518,-0.0001206484943223836,0.0,0.0,0.0,0.0,0.0,0.0,0.0,0.0,0.0
7.549,213,7,549000000,base_footprint,2.346010516049472e-05,0.0038756643813045413,-0.008360092485156364,0.9999575428631291,0.0,0.0,0.0,0.0,0.0,0.0,0.0,0.0,0.0,0.0007037613448563088,-0.00023534065188130507,0.01761952518526773,0.0,0.0,0.0,0.0,0.0,0.0,0.0,0.0,0.0,-0.0025441585542145314,0.010359563242428992,0.0008981107029573766,0.0,0.0,0.0,0.0,0.0,0.0,0.0,0.0,0.0
7.583,214,7,583000000,base_footprint,2.647375955990647e-05,0.003874273535856474,-0.00804581652119808,0.9999601262751513,0.0,0.0,0.0,0.0,0.0,0.0,0.0,0.0,0.0,0.0003195126558076507,-0.000284921747277779,0.02437555459848636,0.0,0.0,0.0,0.0,0.0,0.0,0.0,0.0,0.0,-0.02665254535617581,0.0015845740945396184,0.0002769885970177908,0.0,0.0,0.0,0.0,0.0,0.0,0.0,0.0,0.0
7.617,215,7,617000000,base_footprint,1.688432979104921e-05,0.0038686922761467196,-0.0076466826613855,0.9999632799154518,0.0,0.0,0.0,0.0,0.0,0.0,0.0,0.0,0.0,-0.000338158258448972,-0.003563526680062881,0.033990342480231445,0.0,0.0,0.0,0.0,0.0,0.0,0.0,0.0,0.0,-0.0894169461326859,0.014064898659159802,0.005372272316993294,0.0,0.0,0.0,0.0,0.0,0.0,0.0,0.0,0.0
7.651,216,7,651000000,base_footprint,1.2937863880841297e-05,0.0038732981927059665,-0.006826926570414819,0.9999691947591807,0.0,0.0,0.0,0.0,0.0,0.0,0.0,0.0,0.0,-0.00028347372168781494,0.0006834391820229202,0.01593426631526103,0.0,0.0,0.0,0.0,0.0,0.0,0.0,0.0,0.0,-0.23689674646297684,0.011192977999610006,-0.004219234503764098,0.0,0.0,0.0,0.0,0.0,0.0,0.0,0.0,0.0
7.6850000000000005,217,7,685000000,base_footprint,1.4615978295315872e-05,0.003867610223351851,-0.006994225927828749,0.9999680605805388,0.0,0.0,0.0,0.0,0.0,0.0,0.0,0.0,0.0,-0.0013300737257491036,0.00038767869326700465,-0.06235070292938712,0.0,0.0,0.0,0.0,0.0,0.0,0.0,0.0,0.0,-0.014646857916992823,-0.0005500364098794741,0.0003556019173834753,0.0,0.0,0.0,0.0,0.0,0.0,0.0,0.0,0.0
7.719,218,7,719000000,base_footprint,2.2657873688246858e-05,0.003867909197298282,-0.007941185236242118,0.9999609874100618,0.0,0.0,0.0,0.0,0.0,0.0,0.0,0.0,0.0,-0.00022987160794313367,-0.00037701623165661466,-0.05484355811514718,0.0,0.0,0.0,0.0,0.0,0.0,0.0,0.0,0.0,0.014391198003311033,-0.01313319236680652,0.0013185700117163883,0.0,0.0,0.0,0.0,0.0,0.0,0.0,0.0,0.0
7.753,219,7,753000000,base_footprint,2.6471157950836243e-05,0.0038642690095707886,-0.008877159241091497,0.9999531302856689,0.0,0.0,0.0,0.0,0.0,0.0,0.0,0.0,0.0,-0.0003847026319726806,-0.0003698992103866541,-0.05528554996858949,0.0,0.0,0.0,0.0,0.0,0.0,0.0,0.0,0.0,0.004304196217778069,-0.011308197908115313,2.1063793514447223e-05,0.0,0.0,0.0,0.0,0.0,0.0,0.0,0.0,0.0
7.787,220,7,787000000,base_footprint,2.9985167062492927e-05,0.0038648250324413895,-0.009840772370922245,0.9999441091518576,0.0,0.0,0.0,0.0,0.0,0.0,0.0,0.0,0.0,-0.0005962997923220709,-0.0002964907251098023,-0.05672027428130421,0.0,0.0,0.0,0.0,0.0,0.0,0.0,0.0,0.0,0.006239942991856273,-0.012887470775115291,-0.0001696466547080597,0.0,0.0,0.0,0.0,0.0,0.0,0.0,0.0,0.0
7.821,221,7,821000000,base_footprint,3.1770480378482146e-05,0.003861429843347779,-0.010724445890746073,0.9999350351950561,0.0,0.0,0.0,0.0,0.0,0.0,0.0,0.0,0.0,0.00025501871577822974,-0.00015915060065697966,-0.013976149136215036,0.0,0.0,0.0,0.0,0.0,0.0,0.0,0.0,0.0,-0.328373811093186,0.005748705022317717,0.002091724161906145,0.0,0.0,0.0,0.0,0.0,0.0,0.0,0.0,0.0
7.855,222,7,855000000,base_footprint,3.393181480349643e-05,0.0038618717899335836,-0.011142131330353243,0.9999304664347054,0.0,0.0,0.0,0.0,0.0,0.0,0.0,0.0,0.0,-0.0006050205778687307,0.00046522767415437986,-0.0660424173599375,0.0,0.0,0.0,0.0,0.0,0.0,0.0,0.0,0.0,0.0008344004179279715,-0.007032016375414778,-0.0005950179348894915,0.0,0.0,0.0,0.0,0.0,0.0,0.0,0.0,0.0
7.889,223,7,889000000,base_footprint,3.6328110915750266e-05,0.0038654419950473464,-0.012271838850766353,0.9999172260790752,0.0,0.0,0.0,0.0,0.0,0.0,0.0,0.0,0.0,-0.000557022965537579,-0.0002536375296614764,-0.06616205626153526,0.0,0.0,0.0,0.0,0.0,0.0,0.0,0.0,0.0,0.002805830375975167,-0.014594221477719702,0.0008591985022953912,0.0,0.0,0.0,0.0,0.0,0.0,0.0,0.0,0.0
7.923,224,7,923000000,base_footprint,4.0954421029542245e-05,0.0038621095741446097,-0.013445576042972465,0.99990214467079,0.0,0.0,0.0,0.0,0.0,0.0,0.0,0.0,0.0,-0.0006177296863651373,-0.00019411269102581524,-0.07584142796143802,0.0,0.0,0.0,0.0,0.0,0.0,0.0,0.0,0.0,0.32912202276651464,-0.029546339352004465,-0.0027113696312279587,0.0,0.0,0.0,0.0,0.0,0.0,0.0,0.0,0.0
7.957,225,7,957000000,base_footprint,4.405429042562341e-05,0.0038684310624693646,-0.014258579490334999,0.9998908571495452,0.0,0.0,0.0,0.0,0.0,0.0,0.0,0.0,0.0,-0.0008602982500839507,0.001974537210323573,-0.05336997660254494,0.0,0.0,0.0,0.0,0.0,0.0,0.0,0.0,0.0,0.36199373284262437,-0.030366715070623312,-0.006403481360005761,0.0,0.0,0.0,0.0,0.0,0.0,0.0,0.0,0.0
7.991,226,7,991000000,base_footprint,4.5924066033765474e-05,0.0038763753218365622,-0.015113053819416591,0.9998782761964559,0.0,0.0,0.0,0.0,0.0,0.0,0.0,0.0,0.0,-0.0003782304611076438,8.658163670402303e-05,-0.049177132355608916,0.0,0.0,0.0,0.0,0.0,0.0,0.0,0.0,0.0,-0.01008947083836526,-0.012222900975428335,0.002966776553374346,0.0,0.0,0.0,0.0,0.0,0.0,0.0,0.0,0.0
8.025,227,8,25000000,base_footprint,4.947529117963622e-05,0.0038781668345561787,-0.015880163204089706,0.9998663799682488,0.0,0.0,0.0,0.0,0.0,0.0,0.0,0.0,0.0,-2.6603411170946306e-05,-0.00031009285158601095,-0.039955855146496494,0.0,0.0,0.0,0.0,0.0,0.0,0.0,0.0,0.0,-0.008349532168098394,-0.010116640809863898,0.0007719588258096099,0.0,0.0,0.0,0.0,0.0,0.0,0.0,0.0,0.0
8.059,228,8,59000000,base_footprint,5.788824360702087e-05,0.003877422156268775,-0.01656382551667047,0.999855290494893,0.0,0.0,0.0,0.0,0.0,0.0,0.0,0.0,0.0,-0.0002452434250280553,-0.0001992035275628171,-0.0395732921848419,0.0,0.0,0.0,0.0,0.0,0.0,0.0,0.0,0.0,-0.01259756449457472,-0.009259983912253852,-5.266251589369346e-05,0.0,0.0,0.0,0.0,0.0,0.0,0.0,0.0,0.0
8.092,229,8,93000000,base_footprint,5.656600346222993e-05,0.0038659790434386874,-0.016905279700928092,0.9998496199551994,0.0,0.0,0.0,0.0,0.0,0.0,0.0,0.0,0.0,-2.619429999274032e-05,-0.0011232428699017246,0.017189752173442402,0.0,0.0,0.0,0.0,0.0,0.0,0.0,0.0,0.0,-0.07969019716426291,0.013466321836422265,0.0018143707265856923,0.0,0.0,0.0,0.0,0.0,0.0,0.0,0.0,0.0
8.128,230,8,127000000,base_footprint,5.180207020810698e-05,0.0038711131450624835,-0.01682274865955191,0.9998509923619125,0.0,0.0,0.0,0.0,0.0,0.0,0.0,0.0,0.0,-0.0005285063649671702,-0.0004219246714156513,-0.007524714006956822,0.0,0.0,0.0,0.0,0.0,0.0,0.0,0.0,0.0,-0.049388173230720686,-0.004838420446020692,0.00020486660080494242,0.0,0.0,0.0,0.0,0.0,0.0,0.0,0.0,0.0
8.161,231,8,161000000,base_footprint,4.887514391424113e-05,0.0038632802756887424,-0.016890050468372067,0.999849888169173,0.0,0.0,0.0,0.0,0.0,0.0,0.0,0.0,0.0,-0.00019412822049515255,-0.0004089523429763602,0.007231334359301938,0.0,0.0,0.0,0.0,0.0,0.0,0.0,0.0,0.0,0.03741362898725957,-0.003960342945674498,-0.00032971781773758965,0.0,0.0,0.0,0.0,0.0,0.0,0.0,0.0,0.0
8.195,232,8,195000000,base_footprint,5.3893017141065565e-05,0.003868338000086082,-0.016464111055774208,0.9998569728235149,0.0,0.0,0.0,0.0,0.0,0.0,0.0,0.0,0.0,6.6467130035912155e-06,-0.0008563599737046875,0.031852218069397045,0.0,0.0,0.0,0.0,0.0,0.0,0.0,0.0,0.0,0.056126332702795934,0.002826906752293959,-0.00038032954632298744,0.0,0.0,0.0,0.0,0.0,0.0,0.0,0.0,0.0
8.229,233,8,229000000,base_footprint,4.9713121985448906e-05,0.0038610239634472095,-0.015886365872888372,0.9998663477694967,0.0,0.0,0.0,0.0,0.0,0.0,0.0,0.0,0.0,5.122402378992934e-05,-0.0018761606065250886,0.018412729741323804,0.0,0.0,0.0,0.0,0.0,0.0,0.0,0.0,0.0,-0.3605849180784554,0.03173183389736806,0.002604927789937321,0.0,0.0,0.0,0.0,0.0,0.0,0.0,0.0,0.0
8.263,234,8,263000000,base_footprint,4.96371557646646e-05,0.0038639273818314736,-0.01542329094808283,0.9998735868586947,0.0,0.0,0.0,0.0,0.0,0.0,0.0,0.0,0.0,0.00020458362328157828,-0.00011448541977871378,0.030638042218884016,0.0,0.0,0.0,0.0,0.0,0.0,0.0,0.0,0.0,0.03170690079264509,0.0010166821825142352,-0.0009785689080657133,0.0,0.0,0.0,0.0,0.0,0.0,0.0,0.0,0.0
8.297,235,8,297000000,base_footprint,4.700277871507328e-05,0.003862500769596468,-0.014903734699279457,0.9998814717608069,0.0,0.0,0.0,0.0,0.0,0.0,0.0,0.0,0.0,0.0002420091202581497,-0.0002538240328434484,0.03046796065771291,0.0,0.0,0.0,0.0,0.0,0.0,0.0,0.0,0.0,0.005833144247337966,0.0057766597080631575,0.00019316285224329292,0.0,0.0,0.0,0.0,0.0,0.0,0.0,0.0,0.0
8.331,236,8,331000000,base_footprint,4.385505252869501e-05,0.003862386238006383,-0.014232984586217487,0.9998912451857208,0.0,0.0,0.0,0.0,0.0,0.0,0.0,0.0,0.0,0.0003368855942146313,-0.00014760203672637722,0.04359274385814235,0.0,0.0,0.0,0.0,0.0,0.0,0.0,0.0,0.0,0.002276145989234995,0.007902761324101178,-0.00020499289548152824,0.0,0.0,0.0,0.0,0.0,0.0,0.0,0.0,0.0
8.365,237,8,365000000,base_footprint,4.004400089838775e-05,0.003864129182614327,-0.01349336381149179,0.9999014931657962,0.0,0.0,0.0,0.0,0.0,0.0,0.0,0.0,0.0,0.0002629831387118105,-3.995865366266302e-05,0.04343669021888868,0.0,0.0,0.0,0.0,0.0,0.0,0.0,0.0,0.0,0.0056845921443940475,0.008633128680064687,-0.00032649888048689974,0.0,0.0,0.0,0.0,0.0,0.0,0.0,0.0,0.0
8.399000000000001,238,8,399000000,base_footprint,3.6641736545422584e-05,0.0038666687235802246,-0.012754260292708442,0.9999111842432562,0.0,0.0,0.0,0.0,0.0,0.0,0.0,0.0,0.0,0.00025969588434863555,-5.6004579957336036e-05,0.043578375277280326,0.0,0.0,0.0,0.0,0.0,0.0,0.0,0.0,0.0,0.004807572183059858,0.008174208718821895,-0.00010507414323566633,0.0,0.0,0.0,0.0,0.0,0.0,0.0,0.0,0.0
8.433,239,8,433000000,base_footprint,3.73925109331291e-05,0.0038636024921180246,-0.01249176497664642,0.9999145098383918,0.0,0.0,0.0,0.0,0.0,0.0,0.0,0.0,0.0,4.752219284632335e-05,9.800619154982866e-05,-0.04390699647350663,0.0,0.0,0.0,0.0,0.0,0.0,0.0,0.0,0.0,0.3595427064683763,-0.011805813431710525,-0.0022441276879532845,0.0,0.0,0.0,0.0,0.0,0.0,0.0,0.0,0.0
8.467,240,8,467000000,base_footprint,3.736565748985886e-05,0.003875854526890876,-0.013267302569070131,0.9999044729563095,0.0,0.0,0.0,0.0,0.0,0.0,0.0,0.0,0.0,-0.00033258098068572806,2.6226571900115382e-05,-0.044176643708981764,0.0,0.0,0.0,0.0,0.0,0.0,0.0,0.0,0.0,0.007899722200850473,-0.012885597169639662,-0.0008644202368841246,0.0,0.0,0.0,0.0,0.0,0.0,0.0,0.0,0.0
8.501,241,8,501000000,base_footprint,4.098695190741158e-05,0.00387774081985565,-0.014001615374989973,0.9998944525364138,0.0,0.0,0.0,0.0,0.0,0.0,0.0,0.0,0.0,-0.00017986519003389026,-0.00011101270047040827,-0.042332150784502316,0.0,0.0,0.0,0.0,0.0,0.0,0.0,0.0,0.0,-0.004929580050307622,-0.010260856439013642,0.0003875657709797006,0.0,0.0,0.0,0.0,0.0,0.0,0.0,0.0,0.0
8.535,242,8,535000000,base_footprint,4.9959435285461884e-05,0.0038780110023311186,-0.014703102838500987,0.9998843819670559,0.0,0.0,0.0,0.0,0.0,0.0,0.0,0.0,0.0,-0.00015212191880462008,8.103549945471111e-05,-0.04111121951058412,0.0,0.0,0.0,0.0,0.0,0.0,0.0,0.0,0.0,-0.005203330481813915,-0.004053249203154426,-0.00038477938889792046,0.0,0.0,0.0,0.0,0.0,0.0,0.0,0.0,0.0
8.569,243,8,569000000,base_footprint,5.268956541498421e-05,0.003873909194535481,-0.015336624267920328,0.9998748811763535,0.0,0.0,0.0,0.0,0.0,0.0,0.0,0.0,0.0,-0.0007405891099555278,-0.0002776692224825244,-0.03415111236391006,0.0,0.0,0.0,0.0,0.0,0.0,0.0,0.0,0.0,-0.03472538067823289,-0.005037837905433593,0.0007413215240866036,0.0,0.0,0.0,0.0,0.0,0.0,0.0,0.0,0.0
8.603,244,8,603000000,base_footprint,4.915201776017397e-05,0.003870564975527471,-0.016172764608238018,0.999861719437131,0.0,0.0,0.0,0.0,0.0,0.0,0.0,0.0,0.0,-8.873836890259788e-05,-2.9651568360006213e-05,-0.06307100313793033,0.0,0.0,0.0,0.0,0.0,0.0,0.0,0.0,0.0,-0.053868542555141515,-0.012751221832848809,-1.7161919804511295e-05,0.0,0.0,0.0,0.0,0.0,0.0,0.0,0.0,0.0
8.637,245,8,637000000,base_footprint,5.11278319630654e-05,0.0038659571732576553,-0.017221966096502568,0.9998442156880492,0.0,0.0,0.0,0.0,0.0,0.0,0.0,0.0,0.0,-0.0007057530183491816,-0.0002934884906525511,-0.054818032055190695,0.0,0.0,0.0,0.0,0.0,0.0,0.0,0.0,0.0,0.010390045506742105,-0.011498659518644585,0.0012307763124387416,0.0,0.0,0.0,0.0,0.0,0.0,0.0,0.0,0.0
8.671,246,8,671000000,base_footprint,5.9554162124817246e-05,0.0038689925823830688,-0.017905595623084778,0.9998321944181844,0.0,0.0,0.0,0.0,0.0,0.0,0.0,0.0,0.0,-0.0005198873407322944,-0.0007500195763286379,-0.03527365535808802,0.0,0.0,0.0,0.0,0.0,0.0,0.0,0.0,0.0,0.045263991948180475,-0.011590991374306307,-0.00033298555502977073,0.0,0.0,0.0,0.0,0.0,0.0,0.0,0.0,0.0
8.711,247,8,705000000,base_footprint,6.234764462003972e-05,0.0038668365798817327,-0.01849648489037627,0.9998214459263893,0.0,0.0,0.0,0.0,0.0,0.0,0.0,0.0,0.0,-0.00014466542133828586,-0.00018506824818318235,-0.03440023452365864,0.0,0.0,0.0,0.0,0.0,0.0,0.0,0.0,0.0,0.00607897140456152,-0.009644402719016362,-0.0007749990406172621,0.0,0.0,0.0,0.0,0.0,0.0,0.0,0.0,0.0
8.739,248,8,739000000,base_footprint,6.429019538378437e-05,0.0038639703028156462,-0.01895823672416924,0.9998128079098508,0.0,0.0,0.0,0.0,0.0,0.0,0.0,0.0,0.0,-0.00022346346784749967,-0.00032433802375110137,-0.02667839090556975,0.0,0.0,0.0,0.0,0.0,0.0,0.0,0.0,0.0,0.002684326442409532,-0.0061615029649192835,0.000356970984708808,0.0,0.0,0.0,0.0,0.0,0.0,0.0,0.0,0.0
8.773,249,8,773000000,base_footprint,6.517511187515164e-05,0.003862409171591689,-0.01941363909905713,0.9998040748889392,0.0,0.0,0.0,0.0,0.0,0.0,0.0,0.0,0.0,-0.00022464038334262123,-0.00021999842633086637,-0.02695310994246258,0.0,0.0,0.0,0.0,0.0,0.0,0.0,0.0,0.0,0.005187611808227773,-0.006365852565131757,-0.00023107473872343976,0.0,0.0,0.0,0.0,0.0,0.0,0.0,0.0,0.0
8.807,250,8,807000000,base_footprint,6.603062088873104e-05,0.0038625506459904783,-0.01987378702957098,0.9997950334601425,0.0,0.0,0.0,0.0,0.0,0.0,0.0,0.0,0.0,-0.0002401742006474779,-0.00013343940825089105,-0.027238304505699012,0.0,0.0,0.0,0.0,0.0,0.0,0.0,0.0,0.0,0.005146265410967276,-0.00647239551196912,-0.00021855181873316169,0.0,0.0,0.0,0.0,0.0,0.0,0.0,0.0,0.0
8.841,251,8,841000000,base_footprint,7.170967893248345e-05,0.0038649535030816405,-0.0216733181317256,0.999757632765713,0.0,0.0,0.0,0.0,0.0,0.0,0.0,0.0,0.0,-0.0010244851583529992,-4.7718178616978155e-05,-0.11102922712006019,0.0,0.0,0.0,0.0,0.0,0.0,0.0,0.0,0.0,0.025256082761098083,-0.025092940349565034,-0.0004936238611766325,0.0,0.0,0.0,0.0,0.0,0.0,0.0,0.0,0.0
8.875,252,8,875000000,base_footprint,7.777532709915997e-05,0.0038678706944606793,-0.023561042973388274,0.9997149147538491,0.0,0.0,0.0,0.0,0.0,0.0,0.0,0.0,0.0,-0.0010217091082411352,0.00010863287530284259,-0.11109163228823354,0.0,0.0,0.0,0.0,0.0,0.0,0.0,0.0,0.0,0.002496702758286581,-0.024935071800090684,-0.0003040027029247329,0.0,0.0,0.0,0.0,0.0,0.0,0.0,0.0,0.0
8.91,253,8,909000000,base_footprint,8.599724135324056e-05,0.0038715714380243515,-0.025430665672232355,0.9996690876397759,0.0,0.0,0.0,0.0,0.0,0.0,0.0,0.0,0.0,0.002146983938661109,-0.001324224057796183,-0.0900162366819489,0.0,0.0,0.0,0.0,0.0,0.0,0.0,0.0,0.0,0.003667609250261362,-0.021600442326124965,0.005147593324382499,0.0,0.0,0.0,0.0,0.0,0.0,0.0,0.0,0.0
8.943,254,8,943000000,base_footprint,8.543130565109818e-05,0.0038747872716582326,-0.025680278836811055,0.9996626941143473,0.0,0.0,0.0,0.0,0.0,0.0,0.0,0.0,0.0,2.3080525386996006e-05,3.471335749437213e-05,-0.004919329142896197,0.0,0.0,0.0,0.0,0.0,0.0,0.0,0.0,0.0,-0.03159033314165186,-0.004416479240751658,-0.004949584994993796,0.0,0.0,0.0,0.0,0.0,0.0,0.0,0.0,0.0
8.977,255,8,977000000,base_footprint,9.145995716869013e-05,0.0038686934402436856,-0.02576117721718083,0.9996606357132038,0.0,0.0,0.0,0.0,0.0,0.0,0.0,0.0,0.0,0.0030476781267023355,-0.009884314650587296,-0.01803373933680804,0.0,0.0,0.0,0.0,0.0,0.0,0.0,0.0,0.0,-0.030187244576531033,0.008795520456194401,0.019400971514127237,0.0,0.0,0.0,0.0,0.0,0.0,0.0,0.0,0.0
9.011,256,9,11000000,base_footprint,0.00010120184651126527,0.003875627920473423,-0.027270556987667255,0.9996205710108165,0.0,0.0,0.0,0.0,0.0,0.0,0.0,0.0,0.0,0.0009811640982259123,-0.002762015464775451,-0.1282820865693531,0.0,0.0,0.0,0.0,0.0,0.0,0.0,0.0,0.0,-0.22546093461620875,-0.0031386066816297426,-0.009723871335934905,0.0,0.0,0.0,0.0,0.0,0.0,0.0,0.0,0.0
9.045,257,9,45000000,base_footprint,0.00010154431481508827,0.0038665753275673232,-0.028525306317342538,0.9995855872227702,0.0,0.0,0.0,0.0,0.0,0.0,0.0,0.0,0.0,0.00044517727227334075,0.0013689204817071146,-0.023374669859708905,0.0,0.0,0.0,0.0,0.0,0.0,0.0,0.0,0.0,-0.054337490035721185,-0.001061357870698291,-0.009160560577314066,0.0,0.0,0.0,0.0,0.0,0.0,0.0,0.0,0.0
9.079,258,9,79000000,base_footprint,0.00010031065613145953,0.0038734418738617326,-0.028697511601768946,0.999580631671947,0.0,0.0,0.0,0.0,0.0,0.0,0.0,0.0,0.0,-0.00023857061983966932,-0.0006453070014319866,-0.02305057171697086,0.0,0.0,0.0,0.0,0.0,0.0,0.0,0.0,0.0,-0.08652623202773436,0.0036913740298622965,0.003732895927841217,0.0,0.0,0.0,0.0,0.0,0.0,0.0,0.0,0.0
9.113,259,9,113000000,base_footprint,0.0001002766657559694,0.0038688792924419188,-0.029242403789132045,0.999564857094448,0.0,0.0,0.0,0.0,0.0,0.0,0.0,0.0,0.0,-0.00047127337205284147,7.406003445057804e-05,-0.0336304059510971,0.0,0.0,0.0,0.0,0.0,0.0,0.0,0.0,0.0,-0.02368175618492281,-0.0048259375072762165,0.00012005001885427215,0.0,0.0,0.0,0.0,0.0,0.0,0.0,0.0,0.0
9.147,260,9,147000000,base_footprint,0.00010747456945007227,0.003870841362346808,-0.029623718253029237,0.9995536205493079,0.0,0.0,0.0,0.0,0.0,0.0,0.0,0.0,0.0,2.8154769131254493e-05,-6.583129520367856e-05,-0.011941073328315642,0.0,0.0,0.0,0.0,0.0,0.0,0.0,0.0,0.0,0.04990328076824613,-0.012765869077318697,-0.0008726494018655141,0.0,0.0,0.0,0.0,0.0,0.0,0.0,0.0,0.0
9.181,261,9,181000000,base_footprint,0.00010736462683706493,0.003865585382226771,-0.02986753006540788,0.9995463853019937,0.0,0.0,0.0,0.0,0.0,0.0,0.0,0.0,0.0,-5.149570576631363e-06,-0.00025375892762209316,-0.014734049702114838,0.0,0.0,0.0,0.0,0.0,0.0,0.0,0.0,0.0,-0.00196605934437478,-0.0016835243188273196,0.0001054634767424497,0.0,0.0,0.0,0.0,0.0,0.0,0.0,0.0,0.0
9.215,262,9,215000000,base_footprint,0.00010620426894993477,0.003852439750427915,-0.03018035022440468,0.9995370397783941,0.0,0.0,0.0,0.0,0.0,0.0,0.0,0.0,0.0,-0.00041417727424181594,0.0011809782336930363,-0.04273076374305237,0.0,0.0,0.0,0.0,0.0,0.0,0.0,0.0,0.0,0.1545758229376346,-0.021712404455706408,-0.0024944242680935923,0.0,0.0,0.0,0.0,0.0,0.0,0.0,0.0,0.0
9.249,263,9,249000000,base_footprint,0.00010906072822510847,0.0038611941140072287,-0.030558007605364028,0.9995255311681448,0.0,0.0,0.0,0.0,0.0,0.0,0.0,0.0,0.0,-1.6890869297549342e-05,4.914733786423661e-05,-0.008357405409931637,0.0,0.0,0.0,0.0,0.0,0.0,0.0,0.0,0.0,0.1908972704636109,-0.029098992549256214,-0.0005212036443370212,0.0,0.0,0.0,0.0,0.0,0.0,0.0,0.0,0.0
9.283,264,9,283000000,base_footprint,0.00010846478535584134,0.003861817208969474,-0.030675044794875584,0.9995219438461905,0.0,0.0,0.0,0.0,0.0,0.0,0.0,0.0,0.0,-8.199372609616265e-05,-0.00026092927868749704,-0.0025843272808609157,0.0,0.0,0.0,0.0,0.0,0.0,0.0,0.0,0.0,0.0046442068207341765,-0.0028755146510645877,0.0003448486293013828,0.0,0.0,0.0,0.0,0.0,0.0,0.0,0.0,0.0
9.317,265,9,317000000,base_footprint,0.00010733220950018378,0.0038629030254392436,-0.0307243158561058,0.999520426442195,0.0,0.0,0.0,0.0,0.0,0.0,0.0,0.0,0.0,-9.037478525514586e-05,-6.314435156710581e-05,-0.003084668842317039,0.0,0.0,0.0,0.0,0.0,0.0,0.0,0.0,0.0,0.005369561215809625,-0.0011739215874718664,-0.00040642021003438485,0.0,0.0,0.0,0.0,0.0,0.0,0.0,0.0,0.0
9.351,266,9,351000000,base_footprint,0.00010577211966846194,0.0038661560604702316,-0.030777616587696458,0.9995187741942397,0.0,0.0,0.0,0.0,0.0,0.0,0.0,0.0,0.0,-0.0001273484803005668,5.4467013677286055e-05,-0.003215006207966022,0.0,0.0,0.0,0.0,0.0,0.0,0.0,0.0,0.0,0.004968990765423556,-0.0014725055480929736,-0.00029670053650872016,0.0,0.0,0.0,0.0,0.0,0.0,0.0,0.0,0.0
9.385,267,9,385000000,base_footprint,0.00010501139243111988,0.0038700436397765695,-0.030828873308050255,0.9995171795949233,0.0,0.0,0.0,0.0,0.0,0.0,0.0,0.0,0.0,-0.00010848753960743443,3.434974612746436e-05,-0.002713248713811087,0.0,0.0,0.0,0.0,0.0,0.0,0.0,0.0,0.0,0.003389502545723527,-0.0017227678801492515,-0.00010016399773524448,0.0,0.0,0.0,0.0,0.0,0.0,0.0,0.0,0.0
9.419,268,9,419000000,base_footprint,0.00010545786234033509,0.003873731436194033,-0.030860184106691748,0.9995161990284603,0.0,0.0,0.0,0.0,0.0,0.0,0.0,0.0,0.0,-3.257380190204668e-05,7.387767887640471e-05,-0.0007806670063695938,0.0,0.0,0.0,0.0,0.0,0.0,0.0,0.0,0.0,-0.0006306027162210049,-0.0004550908900037927,-9.428486414657955e-05,0.0,0.0,0.0,0.0,0.0,0.0,0.0,0.0,0.0
9.454,269,9,453000000,base_footprint,0.00010620950660284947,0.0038754545838924127,-0.030853909483794073,0.9995163859791768,0.0,0.0,0.0,0.0,0.0,0.0,0.0,0.0,0.0,0.00018195709285884809,-0.00023972835376351174,0.0013937569584908042,0.0,0.0,0.0,0.0,0.0,0.0,0.0,0.0,0.0,-0.003420180692635607,-0.0004078860613125096,0.0005577846168409105,0.0,0.0,0.0,0.0,0.0,0.0,0.0,0.0,0.0
9.487,270,9,487000000,base_footprint,0.00011361065294758846,0.0038743454222682095,-0.030848628321415075,0.9995165524746731,0.0,0.0,0.0,0.0,0.0,0.0,0.0,0.0,0.0,0.00018226563840119178,-6.665454329333411e-05,0.0008265800103283387,0.0,0.0,0.0,0.0,0.0,0.0,0.0,0.0,0.0,-0.005395127532463793,0.0022900428075190004,-0.0002903880415224319,0.0,0.0,0.0,0.0,0.0,0.0,0.0,0.0,0.0
9.521,271,9,521000000,base_footprint,0.00011287680849077804,0.0038738601900339107,-0.030718132599173244,0.9995205734729395,0.0,0.0,0.0,0.0,0.0,0.0,0.0,0.0,0.0,-0.00027343059041377496,-0.0001820598897558364,0.012790223949023663,0.0,0.0,0.0,0.0,0.0,0.0,0.0,0.0,0.0,-0.026560159630873766,0.004876726838455189,0.0003790039570798852,0.0,0.0,0.0,0.0,0.0,0.0,0.0,0.0,0.0
9.557,272,9,555000000,base_footprint,0.00010373031949668789,0.0038684455710894594,-0.030623604274624693,0.9995234960870684,0.0,0.0,0.0,0.0,0.0,0.0,0.0,0.0,0.0,-0.00042021975991381666,-1.996812666810469e-05,-0.004025957370274743,0.0,0.0,0.0,0.0,0.0,0.0,0.0,0.0,0.0,-0.022935017753762166,0.009460995855810506,0.0001033903524299488,0.0,0.0,0.0,0.0,0.0,0.0,0.0,0.0,0.0
9.589,273,9,589000000,base_footprint,0.00010543646888302049,0.00386519318019181,-0.030911153645066716,0.9995146570937127,0.0,0.0,0.0,0.0,0.0,0.0,0.0,0.0,0.0,-0.000419898441840606,-0.0009990160320196293,-0.018700350850243647,0.0,0.0,0.0,0.0,0.0,0.0,0.0,0.0,0.0,-0.03217156511742461,-0.0033465867934834963,0.0016505471214709327,0.0,0.0,0.0,0.0,0.0,0.0,0.0,0.0,0.0
9.623,274,9,623000000,base_footprint,0.00011060909122440681,0.003867526709780984,-0.031000728573801623,0.9995118732814892,0.0,0.0,0.0,0.0,0.0,0.0,0.0,0.0,0.0,0.001005181021307757,0.0010488662586260248,0.013302125767715712,0.0,0.0,0.0,0.0,0.0,0.0,0.0,0.0,0.0,0.05420842835239878,-0.010250519217877266,-0.0036992256986681047,0.0,0.0,0.0,0.0,0.0,0.0,0.0,0.0,0.0
9.657,275,9,657000000,base_footprint,0.00010952678320287633,0.003864776930943932,-0.030787801065921414,0.9995184654665882,0.0,0.0,0.0,0.0,0.0,0.0,0.0,0.0,0.0,2.2672991212494688e-05,-0.00028597794667697783,0.011933230376189444,0.0,0.0,0.0,0.0,0.0,0.0,0.0,0.0,0.0,0.003787994309976511,0.003743918073824548,0.0021971190898068434,0.0,0.0,0.0,0.0,0.0,0.0,0.0,0.0,0.0
9.691,276,9,691000000,base_footprint,0.00010684292031984319,0.0038604617890330394,-0.030592479819289455,0.9995244797391769,0.0,0.0,0.0,0.0,0.0,0.0,0.0,0.0,0.0,-0.0007184759044970784,-0.001184168444085765,-0.005787047877276339,0.0,0.0,0.0,0.0,0.0,0.0,0.0,0.0,0.0,-0.32007885720949636,0.04409894935187626,0.0029320696630142796,0.0,0.0,0.0,0.0,0.0,0.0,0.0,0.0,0.0
9.725,277,9,725000000,base_footprint,0.00010736947342966314,0.0038619210859486236,-0.030516238579964546,0.9995268046532083,0.0,0.0,0.0,0.0,0.0,0.0,0.0,0.0,0.0,3.8331150026326705e-05,-2.870621440261996e-05,0.013677564827704138,0.0,0.0,0.0,0.0,0.0,0.0,0.0,0.0,0.0,-0.008730252089925795,-0.0006581276753217743,-0.0006000739942773095,0.0,0.0,0.0,0.0,0.0,0.0,0.0,0.0,0.0
9.759,278,9,759000000,base_footprint,0.00010565096985138813,0.003861601834343246,-0.030285746828598484,0.9995338165405808,0.0,0.0,0.0,0.0,0.0,0.0,0.0,0.0,0.0,-1.2160052295171949e-05,-0.00016048863207573696,0.013529295936255592,0.0,0.0,0.0,0.0,0.0,0.0,0.0,0.0,0.0,0.005763252898358808,0.0018218529356157623,5.269596169153745e-05,0.0,0.0,0.0,0.0,0.0,0.0,0.0,0.0,0.0
9.793,279,9,793000000,base_footprint,0.00010424396928577747,0.003862507571454977,-0.030160702707808785,0.9995375941807424,0.0,0.0,0.0,0.0,0.0,0.0,0.0,0.0,0.0,-0.00013346465419226687,-9.755061936507767e-05,0.002515287948543291,0.0,0.0,0.0,0.0,0.0,0.0,0.0,0.0,0.0,0.008469083700009934,0.0006560195959890158,-0.00024716294633894334,0.0,0.0,0.0,0.0,0.0,0.0,0.0,0.0,0.0
9.827,280,9,827000000,base_footprint,0.00010312148791844338,0.0038647876278721884,-0.030117179377745523,0.999538897836837,0.0,0.0,0.0,0.0,0.0,0.0,0.0,0.0,0.0,-0.00012209434042708287,1.9308870397459245e-05,0.002549686840086228,0.0,0.0,0.0,0.0,0.0,0.0,0.0,0.0,0.0,0.0047388739003479865,-0.00021701720015105568,-0.0002276425030312608,0.0,0.0,0.0,0.0,0.0,0.0,0.0,0.0,0.0
9.870000000000001,281,9,861000000,base_footprint,0.00010176849023657247,0.0038686345184724123,-0.030071655137374156,0.9995402537504109,0.0,0.0,0.0,0.0,0.0,0.0,0.0,0.0,0.0,-0.0001307640971070248,0.0001225629734598526,0.0028417473482082027,0.0,0.0,0.0,0.0,0.0,0.0,0.0,0.0,0.0,0.0039770675250224916,-0.00013050861951796627,-0.0002558889456790928,0.0,0.0,0.0,0.0,0.0,0.0,0.0,0.0,0.0
9.895,282,9,895000000,base_footprint,0.00010373998684639359,0.0038617762016500507,-0.029910157541362007,0.9995451257439228,0.0,0.0,0.0,0.0,0.0,0.0,0.0,0.0,0.0,0.0005380737606184589,-2.7284227255881693e-05,0.012219128275050518,0.0,0.0,0.0,0.0,0.0,0.0,0.0,0.0,0.0,0.3179680560497406,-0.03619481383340488,-0.0020724443631252062,0.0,0.0,0.0,0.0,0.0,0.0,0.0,0.0,0.0
9.929,283,9,929000000,base_footprint,0.00010047809274246838,0.0038759172423991385,-0.029771010138450304,0.9995492254636683,0.0,0.0,0.0,0.0,0.0,0.0,0.0,0.0,0.0,0.0002335634242951535,-0.0003434241775474807,0.01337435553940216,0.0,0.0,0.0,0.0,0.0,0.0,0.0,0.0,0.0,0.013246781630651136,-0.0012817996047312465,0.000223010729825246,0.0,0.0,0.0,0.0,0.0,0.0,0.0,0.0,0.0
9.963000000000001,284,9,963000000,base_footprint,0.00010810108631024225,0.003873451022186982,-0.029592376185156536,0.9995545387636685,0.0,0.0,0.0,0.0,0.0,0.0,0.0,0.0,0.0,0.0004363714334345617,-1.69995007484421e-05,0.008831756471152991,0.0,0.0,0.0,0.0,0.0,0.0,0.0,0.0,0.0,0.006552685905314933,0.007431193339982141,-0.000569055077598356,0.0,0.0,0.0,0.0,0.0,0.0,0.0,0.0,0.0
9.997,285,9,997000000,base_footprint,0.00010959690104094872,0.003873502778271306,-0.029256299538590623,0.9995644315911079,0.0,0.0,0.0,0.0,0.0,0.0,0.0,0.0,0.0,0.00043262085509368714,0.00019855510843796854,0.031343602158901106,0.0,0.0,0.0,0.0,0.0,0.0,0.0,0.0,0.0,-0.0436217734862011,0.003872447382768013,-0.0002850507683267315,0.0,0.0,0.0,0.0,0.0,0.0,0.0,0.0,0.0
10.031,286,10,31000000,base_footprint,9.77891688189015e-05,0.0038677969034304383,-0.028918151983917693,0.9995742949227073,0.0,0.0,0.0,0.0,0.0,0.0,0.0,0.0,0.0,-0.00035116997739352855,4.342129173711828e-05,0.011510058089887566,0.0,0.0,0.0,0.0,0.0,0.0,0.0,0.0,0.0,-0.010951877506484483,0.01718248390989339,0.0008723865720971133,0.0,0.0,0.0,0.0,0.0,0.0,0.0,0.0,0.0
10.065,287,10,65000000,base_footprint,9.800097093842991e-05,0.003868277924005795,-0.02897551058042846,0.9995726319824467,0.0,0.0,0.0,0.0,0.0,0.0,0.0,0.0,0.0,-0.001113627164535765,-0.00042831038676775383,-0.00798997654448322,0.0,0.0,0.0,0.0,0.0,0.0,0.0,0.0,0.0,-0.041324861032271995,-0.0042159080405464195,0.0017545629626789783,0.0,0.0,0.0,0.0,0.0,0.0,0.0,0.0,0.0
10.099,288,10,99000000,base_footprint,0.00010215816031196076,0.0038684470857687104,-0.02896021009266404,0.9995730743233552,0.0,0.0,0.0,0.0,0.0,0.0,0.0,0.0,0.0,0.0010086096681187525,0.0007051673738209762,0.014662880328327094,0.0,0.0,0.0,0.0,0.0,0.0,0.0,0.0,0.0,0.059860618377592545,-0.00872626625769711,-0.0032492706621914595,0.0,0.0,0.0,0.0,0.0,0.0,0.0,0.0,0.0
10.133,289,10,133000000,base_footprint,0.0001016000546778949,0.003865819040035029,-0.028704833887616955,0.999580450805268,0.0,0.0,0.0,0.0,0.0,0.0,0.0,0.0,0.0,6.63578487459064e-05,-0.00034432700871109474,0.014399440413930183,0.0,0.0,0.0,0.0,0.0,0.0,0.0,0.0,0.0,0.005923947167620218,0.0035567249118280434,0.0017970806650909911,0.0,0.0,0.0,0.0,0.0,0.0,0.0,0.0,0.0
10.167,290,10,167000000,base_footprint,0.00010044334706269365,0.0038639160492688956,-0.028463333719899807,0.9995873642145782,0.0,0.0,0.0,0.0,0.0,0.0,0.0,0.0,0.0,0.00012302902659068606,-0.00016705114673559442,0.014017935089067676,0.0,0.0,0.0,0.0,0.0,0.0,0.0,0.0,0.0,0.005191386324773403,0.002577174534557396,-0.0003515524175036515,0.0,0.0,0.0,0.0,0.0,0.0,0.0,0.0,0.0
10.201,291,10,201000000,base_footprint,9.832957847838608e-05,0.0038622609800882217,-0.028115717001608795,0.9995972087440527,0.0,0.0,0.0,0.0,0.0,0.0,0.0,0.0,0.0,8.866961956804673e-05,-0.0002619460686447454,0.0220133982456147,0.0,0.0,0.0,0.0,0.0,0.0,0.0,0.0,0.0,0.0037886247580979143,0.003571015364715237,0.0002795897514015009,0.0,0.0,0.0,0.0,0.0,0.0,0.0,0.0,0.0
10.235,292,10,235000000,base_footprint,9.597396918046927e-05,0.003861833706854492,-0.027742830115127317,0.9996076292258984,0.0,0.0,0.0,0.0,0.0,0.0,0.0,0.0,0.0,0.00010160122569279378,-0.00015881882811621029,0.021834192640973964,0.0,0.0,0.0,0.0,0.0,0.0,0.0,0.0,0.0,0.006102243623653498,0.004093008134539984,-0.00022731569466822048,0.0,0.0,0.0,0.0,0.0,0.0,0.0,0.0,0.0
10.269,293,10,269000000,base_footprint,9.370027446166278e-05,0.0038629530591533677,-0.027371686343329732,0.9996178567836029,0.0,0.0,0.0,0.0,0.0,0.0,0.0,0.0,0.0,5.249288646612839e-05,-8.906809949212494e-05,0.021812283018493753,0.0,0.0,0.0,0.0,0.0,0.0,0.0,0.0,0.0,0.005592042649954729,0.0038624803886193747,-0.00026508645026860977,0.0,0.0,0.0,0.0,0.0,0.0,0.0,0.0,0.0
10.303,294,10,303000000,base_footprint,9.195995092519417e-05,0.003863950026738339,-0.027001974075973188,0.9996279081886214,0.0,0.0,0.0,0.0,0.0,0.0,0.0,0.0,0.0,3.8783857203731775e-05,-5.3967378233768673e-05,0.02174445701376818,0.0,0.0,0.0,0.0,0.0,0.0,0.0,0.0,0.0,0.005833589453676673,0.0031795168821945655,-0.00013014416646275607,0.0,0.0,0.0,0.0,0.0,0.0,0.0,0.0,0.0
10.337,295,10,337000000,base_footprint,8.963746606500534e-05,0.0038680279700127893,-0.026785983813033765,0.9996337036114359,0.0,0.0,0.0,0.0,0.0,0.0,0.0,0.0,0.0,-5.5635068486434194e-05,9.714978920922239e-05,0.011408507541468623,0.0,0.0,0.0,0.0,0.0,0.0,0.0,0.0,0.0,0.007202596256019718,0.0023283135335943296,-0.000378348982626765,0.0,0.0,0.0,0.0,0.0,0.0,0.0,0.0,0.0
10.371,296,10,371000000,base_footprint,8.766917786471272e-05,0.003872666877365477,-0.02658145545072846,0.999639145387721,0.0,0.0,0.0,0.0,0.0,0.0,0.0,0.0,0.0,3.9495665636769405e-05,0.0001115089825809936,0.012931878605210929,0.0,0.0,0.0,0.0,0.0,0.0,0.0,0.0,0.0,0.0012782807323889348,0.0020452377425777897,-0.00015116196850976783,0.0,0.0,0.0,0.0,0.0,0.0,0.0,0.0,0.0
10.405,297,10,405000000,base_footprint,8.717267186991697e-05,0.003875587568057214,-0.02634578938388835,0.9996453729216513,0.0,0.0,0.0,0.0,0.0,0.0,0.0,0.0,0.0,0.00041898923951179786,-0.0002992422639238337,0.01432384352705918,0.0,0.0,0.0,0.0,0.0,0.0,0.0,0.0,0.0,-0.0011218869820169316,0.004282405012774429,0.0007920585183786471,0.0,0.0,0.0,0.0,0.0,0.0,0.0,0.0,0.0
10.439,298,10,439000000,base_footprint,9.465533329568164e-05,0.0038750189144844197,-0.02613738714227857,0.9996508451765322,0.0,0.0,0.0,0.0,0.0,0.0,0.0,0.0,0.0,0.00037537410345262395,3.418850420655525e-05,0.01145986427572476,0.0,0.0,0.0,0.0,0.0,0.0,0.0,0.0,0.0,-0.000541858248131427,0.006529722331562687,-0.0005609899853233295,0.0,0.0,0.0,0.0,0.0,0.0,0.0,0.0,0.0
10.473,299,10,473000000,base_footprint,9.559862200829386e-05,0.003874201663957878,-0.025845290039743136,0.9996584428719302,0.0,0.0,0.0,0.0,0.0,0.0,0.0,0.0,0.0,2.553638478678952e-05,-2.749231928039473e-05,0.02200599740513868,0.0,0.0,0.0,0.0,0.0,0.0,0.0,0.0,0.0,-0.03898717247638052,0.004478361130216508,0.0001937124835011393,0.0,0.0,0.0,0.0,0.0,0.0,0.0,0.0,0.0
10.507,300,10,507000000,base_footprint,8.436704051367267e-05,0.003869688606064863,-0.02568520163655112,0.9996625874809881,0.0,0.0,0.0,0.0,0.0,0.0,0.0,0.0,0.0,-6.98661077084112e-05,0.00044963451046298603,-0.0031814317889002444,0.0,0.0,0.0,0.0,0.0,0.0,0.0,0.0,0.0,-0.02959179190082589,0.010315979768917063,-0.0003179414222761227,0.0,0.0,0.0,0.0,0.0,0.0,0.0,0.0,0.0
10.541,301,10,541000000,base_footprint,8.401382994292655e-05,0.003871449704107035,-0.025185846173194668,0.9996752862661982,0.0,0.0,0.0,0.0,0.0,0.0,0.0,0.0,0.0,-0.001161281472134176,0.0008583172286644603,0.014314844002404693,0.0,0.0,0.0,0.0,0.0,0.0,0.0,0.0,0.0,-0.284241153397036,0.0305772780004061,0.0013280718188961424,0.0,0.0,0.0,0.0,0.0,0.0,0.0,0.0,0.0
10.575,302,10,575000000,base_footprint,8.835115138058849e-05,0.003870769937647043,-0.02490874929735201,0.9996822312828241,0.0,0.0,0.0,0.0,0.0,0.0,0.0,0.0,0.0,-1.2160973813450236e-05,-0.0008241704902711862,0.019118783839631438,0.0,0.0,0.0,0.0,0.0,0.0,0.0,0.0,0.0,-0.01826246761069423,0.0061550186501058745,0.003296873079097063,0.0,0.0,0.0,0.0,0.0,0.0,0.0,0.0,0.0
10.609,303,10,609000000,base_footprint,8.656962829900926e-05,0.0038663967259125994,-0.024591109716357883,0.9996901123873214,0.0,0.0,0.0,0.0,0.0,0.0,0.0,0.0,0.0,7.130508146799138e-05,-0.0002716725866934954,0.020442547872397326,0.0,0.0,0.0,0.0,0.0,0.0,0.0,0.0,0.0,0.0026906758133954196,0.002811657355534998,-0.0008713926170254731,0.0,0.0,0.0,0.0,0.0,0.0,0.0,0.0,0.0
10.643,304,10,643000000,base_footprint,8.54230082864217e-05,0.0038642763939107207,-0.02422044560389518,0.9996991697933983,0.0,0.0,0.0,0.0,0.0,0.0,0.0,0.0,0.0,0.00019665657198671314,-0.00031890696178014434,0.02155824230482217,0.0,0.0,0.0,0.0,0.0,0.0,0.0,0.0,0.0,0.004679030712012723,0.003734578258800918,9.315369991302032e-05,0.0,0.0,0.0,0.0,0.0,0.0,0.0,0.0,0.0
10.677,305,10,677000000,base_footprint,8.318537594326763e-05,0.0038622290872373914,-0.0238557974943592,0.9997079459485051,0.0,0.0,0.0,0.0,0.0,0.0,0.0,0.0,0.0,0.0001460744756514452,-0.0002680492915627289,0.021306415251549957,0.0,0.0,0.0,0.0,0.0,0.0,0.0,0.0,0.0,0.005754237397130227,0.003807336707532227,-0.00011892792579968364,0.0,0.0,0.0,0.0,0.0,0.0,0.0,0.0,0.0
10.711,306,10,711000000,base_footprint,7.972863951996184e-05,0.003854229737056547,-0.02350525010813951,0.999716280638578,0.0,0.0,0.0,0.0,0.0,0.0,0.0,0.0,0.0,-0.0001795345592490543,-0.0029270278241422185,0.01268362202372839,0.0,0.0,0.0,0.0,0.0,0.0,0.0,0.0,0.0,0.09798674121806823,-0.003995907306387918,0.00243083476440754,0.0,0.0,0.0,0.0,0.0,0.0,0.0,0.0,0.0
10.745,307,10,745000000,base_footprint,7.958443433905148e-05,0.0038637186948227062,-0.02351103985931881,0.9997161078770805,0.0,0.0,0.0,0.0,0.0,0.0,0.0,0.0,0.0,-0.00026319124348109257,0.0004662471487432501,0.010678895734964913,0.0,0.0,0.0,0.0,0.0,0.0,0.0,0.0,0.0,0.2563261867859471,-0.025127288108487033,-0.0065656774434955855,0.0,0.0,0.0,0.0,0.0,0.0,0.0,0.0,0.0
10.779,308,10,779000000,base_footprint,7.792330225978497e-05,0.0038655484097616577,-0.023328201659926995,0.9997203841428686,0.0,0.0,0.0,0.0,0.0,0.0,0.0,0.0,0.0,6.288512807617343e-06,4.734831763109615e-06,0.01050200875058962,0.0,0.0,0.0,0.0,0.0,0.0,0.0,0.0,0.0,0.004284903669417249,0.0017176860116287097,0.0007838917389406449,0.0,0.0,0.0,0.0,0.0,0.0,0.0,0.0,0.0
10.813,309,10,813000000,base_footprint,7.546720404407467e-05,0.003869698989872675,-0.023129186843243405,0.9997249924106126,0.0,0.0,0.0,0.0,0.0,0.0,0.0,0.0,0.0,-0.0002064829943981379,0.00018887206108961208,0.019730009661617635,0.0,0.0,0.0,0.0,0.0,0.0,0.0,0.0,0.0,0.0026342262332675176,0.0012684197536836118,-0.0006507951008389985,0.0,0.0,0.0,0.0,0.0,0.0,0.0,0.0,0.0
10.847,310,10,847000000,base_footprint,7.399152532541092e-05,0.0038739415068239427,-0.02279443019545322,0.999732664793204,0.0,0.0,0.0,0.0,0.0,0.0,0.0,0.0,0.0,8.79906083871775e-05,8.680455040201885e-05,0.020274454535460784,0.0,0.0,0.0,0.0,0.0,0.0,0.0,0.0,0.0,0.002491355140970686,0.003735286266735464,0.00030020577702534473,0.0,0.0,0.0,0.0,0.0,0.0,0.0,0.0,0.0
10.881,311,10,881000000,base_footprint,7.267848285841586e-05,0.0038765179327312944,-0.022431305819403512,0.9997408683482896,0.0,0.0,0.0,0.0,0.0,0.0,0.0,0.0,0.0,0.00022209774094122074,-1.505280547254944e-05,0.022431848296976635,0.0,0.0,0.0,0.0,0.0,0.0,0.0,0.0,0.0,-0.001128024862511097,0.00349672262227495,0.0001097533002527146,0.0,0.0,0.0,0.0,0.0,0.0,0.0,0.0,0.0
10.915,312,10,915000000,base_footprint,7.749841083762344e-05,0.0038751051584962723,-0.02206501217899215,0.999749024901524,0.0,0.0,0.0,0.0,0.0,0.0,0.0,0.0,0.0,0.0007436789817905309,-2.9602007722097415e-05,0.017842310076372176,0.0,0.0,0.0,0.0,0.0,0.0,0.0,0.0,0.0,-0.002943232509847692,0.010866503843413413,0.0002019228143276734,0.0,0.0,0.0,0.0,0.0,0.0,0.0,0.0,0.0
10.949,313,10,949000000,base_footprint,7.970513582763081e-05,0.003874042797572718,-0.021710254893364846,0.9997567955617802,0.0,0.0,0.0,0.0,0.0,0.0,0.0,0.0,0.0,0.00036372429240554146,-3.1214428665809435e-05,0.02729647751508838,0.0,0.0,0.0,0.0,0.0,0.0,0.0,0.0,0.0,-0.031336292359662586,0.004051538661172718,8.096553383040686e-05,0.0,0.0,0.0,0.0,0.0,0.0,0.0,0.0,0.0
10.983,314,10,983000000,base_footprint,6.855503713798211e-05,0.0038706898525229304,-0.02141648813654014,0.9997631454980574,0.0,0.0,0.0,0.0,0.0,0.0,0.0,0.0,0.0,-0.0004792976936342116,-0.00040637282208194007,0.004023597278515938,0.0,0.0,0.0,0.0,0.0,0.0,0.0,0.0,0.0,-0.025005435658254145,0.015161839377026816,0.0009379798702246263,0.0,0.0,0.0,0.0,0.0,0.0,0.0,0.0,0.0
11.017,315,11,17000000,base_footprint,6.87170477542584e-05,0.003868836412784489,-0.021540396923528632,0.9997604906592156,0.0,0.0,0.0,0.0,0.0,0.0,0.0,0.0,0.0,-0.0009283776147412194,-0.0005091149011761392,-0.011441971169977623,0.0,0.0,0.0,0.0,0.0,0.0,0.0,0.0,0.0,-0.022831333135269104,-0.006571585783915064,0.00023860125898498148,0.0,0.0,0.0,0.0,0.0,0.0,0.0,0.0,0.0
11.051,316,11,51000000,base_footprint,7.451030979871757e-05,0.0038721844914970803,-0.02150620565723686,0.9997612133673253,0.0,0.0,0.0,0.0,0.0,0.0,0.0,0.0,0.0,0.00030588351580168355,-0.00012664364025937345,0.014000718610116127,0.0,0.0,0.0,0.0,0.0,0.0,0.0,0.0,0.0,0.054494725613858236,-0.006619016560633817,-0.0005997099141220935,0.0,0.0,0.0,0.0,0.0,0.0,0.0,0.0,0.0
11.085,317,11,85000000,base_footprint,7.298671886491223e-05,0.003866497009488809,-0.021304614733272446,0.9997655516494263,0.0,0.0,0.0,0.0,0.0,0.0,0.0,0.0,0.0,0.0001939119152952415,-0.00030226197597142814,0.011522770871627192,0.0,0.0,0.0,0.0,0.0,0.0,0.0,0.0,0.0,-0.00044698634535779615,0.0037900689115988664,0.0001415765956259134,0.0,0.0,0.0,0.0,0.0,0.0,0.0,0.0,0.0
11.119,318,11,119000000,base_footprint,7.238930371811289e-05,0.003864444309751551,-0.02109966540478954,0.9997699060032621,0.0,0.0,0.0,0.0,0.0,0.0,0.0,0.0,0.0,9.531101849543307e-05,-0.00032898389069126215,0.013408059048290264,0.0,0.0,0.0,0.0,0.0,0.0,0.0,0.0,0.0,0.004617927971676052,0.001907386798631656,6.764735129807879e-05,0.0,0.0,0.0,0.0,0.0,0.0,0.0,0.0,0.0
11.153,319,11,153000000,base_footprint,7.081071465899067e-05,0.0038623362204492718,-0.02087401022290169,0.9997746511299319,0.0,0.0,0.0,0.0,0.0,0.0,0.0,0.0,0.0,8.988251970150308e-05,-0.00026475637701399565,0.013145341291451436,0.0,0.0,0.0,0.0,0.0,0.0,0.0,0.0,0.0,0.005881276533293492,0.002299359692005207,-0.0001373198297819576,0.0,0.0,0.0,0.0,0.0,0.0,0.0,0.0,0.0
11.186,320,11,187000000,base_footprint,6.920832742260675e-05,0.0038619320175256656,-0.020652228233646493,0.9997792587167853,0.0,0.0,0.0,0.0,0.0,0.0,0.0,0.0,0.0,8.355128232238295e-05,-0.00017786798111152718,0.012911200610812216,0.0,0.0,0.0,0.0,0.0,0.0,0.0,0.0,0.0,0.00588376225499109,0.0023241747451674868,-0.00021700125109721602,0.0,0.0,0.0,0.0,0.0,0.0,0.0,0.0,0.0
11.222,321,11,221000000,base_footprint,6.728989253608336e-05,0.0038642059799504115,-0.020482673417501204,0.9997827381355847,0.0,0.0,0.0,0.0,0.0,0.0,0.0,0.0,0.0,-0.00166864673199595,0.0005839917561674778,0.0028575278719386063,0.0,0.0,0.0,0.0,0.0,0.0,0.0,0.0,0.0,-0.32118670075553374,0.029216554613795118,-0.00013699557354456866,0.0,0.0,0.0,0.0,0.0,0.0,0.0,0.0,0.0
11.256,322,11,255000000,base_footprint,6.622387811343962e-05,0.0038653768430855317,-0.020321516348660446,0.9997860223315538,0.0,0.0,0.0,0.0,0.0,0.0,0.0,0.0,0.0,4.2777902505819394e-05,-0.00019293029311514033,0.017048811878754,0.0,0.0,0.0,0.0,0.0,0.0,0.0,0.0,0.0,-0.00910766348585187,0.0007495998128084257,0.0025260421731276984,0.0,0.0,0.0,0.0,0.0,0.0,0.0,0.0,0.0
11.291,323,11,289000000,base_footprint,6.444856856610512e-05,0.003868234095709213,-0.020033189658852046,0.9997918302944145,0.0,0.0,0.0,0.0,0.0,0.0,0.0,0.0,0.0,1.5268420847239696e-06,5.300822190621896e-05,0.017082251738410704,0.0,0.0,0.0,0.0,0.0,0.0,0.0,0.0,0.0,0.005068830791967781,0.003132809563806405,-0.0004891331279931951,0.0,0.0,0.0,0.0,0.0,0.0,0.0,0.0,0.0
11.323,324,11,323000000,base_footprint,6.207105302048062e-05,0.0038731783239863067,-0.019788796724800134,0.9997966784106854,0.0,0.0,0.0,0.0,0.0,0.0,0.0,0.0,0.0,-5.048698785390189e-05,0.00022593828260337158,0.01105253972869666,0.0,0.0,0.0,0.0,0.0,0.0,0.0,0.0,0.0,0.004453559202720393,0.003051687475361197,-0.0005438583818554401,0.0,0.0,0.0,0.0,0.0,0.0,0.0,0.0,0.0
11.357,325,11,357000000,base_footprint,6.107304828374174e-05,0.0038763865794123114,-0.019585052149705903,0.9998006779500919,0.0,0.0,0.0,0.0,0.0,0.0,0.0,0.0,0.0,0.00013941836417328166,2.3026431103724528e-06,0.012812728141050235,0.0,0.0,0.0,0.0,0.0,0.0,0.0,0.0,0.0,-0.002060818582907579,0.0016519182701078474,0.0005076038264157861,0.0,0.0,0.0,0.0,0.0,0.0,0.0,0.0,0.0
