Time,header.seq,header.stamp.secs,header.stamp.nsecs,header.frame_id,orientation.x,orientation.y,orientation.z,orientation.w,orientation_covariance_0,orientation_covariance_1,orientation_covariance_2,orientation_covariance_3,orientation_covariance_4,orientation_covariance_5,orientation_covariance_6,orientation_covariance_7,orientation_covariance_8,angular_velocity.x,angular_velocity.y,angular_velocity.z,angular_velocity_covariance_0,angular_velocity_covariance_1,angular_velocity_covariance_2,angular_velocity_covariance_3,angular_velocity_covariance_4,angular_velocity_covariance_5,angular_velocity_covariance_6,angular_velocity_covariance_7,angular_velocity_covariance_8,linear_acceleration.x,linear_acceleration.y,linear_acceleration.z,linear_acceleration_covariance_0,linear_acceleration_covariance_1,linear_acceleration_covariance_2,linear_acceleration_covariance_3,linear_acceleration_covariance_4,linear_acceleration_covariance_5,linear_acceleration_covariance_6,linear_acceleration_covariance_7,linear_acceleration_covariance_8
0.464,0,0,464000000,base_footprint,1.868821070697946e-05,-0.0001212730261575926,0.3824978174367769,0.9239563867411199,0.0,0.0,0.0,0.0,0.0,0.0,0.0,0.0,0.0,-0.047633054614846376,-0.00041473913126420514,-0.0003236227313437807,0.0,0.0,0.0,0.0,0.0,0.0,0.0,0.0,0.0,-1.3068401539740305e-06,0.0001257938927242778,-0.044302607227441546,0.0,0.0,0.0,0.0,0.0,0.0,0.0,0.0,0.0
0.49800000000000005,1,0,498000000,base_footprint,-0.0004103440669476302,0.0008859656086925048,0.38249431089168134,0.923957330626358,0.0,0.0,0.0,0.0,0.0,0.0,0.0,0.0,0.0,-0.0677911087261438,-0.0005641894703592581,-0.00014631272204822503,0.0,0.0,0.0,0.0,0.0,0.0,0.0,0.0,0.0,-3.4884443097743067e-06,-0.0010107853741880975,0.0029849911919319246,0.0,0.0,0.0,0.0,0.0,0.0,0.0,0.0,0.0
0.532,2,0,532000000,base_footprint,-0.0008617670975039347,0.0019482418206662748,0.38249022167774394,0.9239570834363402,0.0,0.0,0.0,0.0,0.0,0.0,0.0,0.0,0.0,-0.06771510199640335,-0.0005637075880001834,-4.486260522982458e-05,0.0,0.0,0.0,0.0,0.0,0.0,0.0,0.0,0.0,-1.9242466835662415e-05,-0.0002598545069202647,0.00015080012319495956,0.0,0.0,0.0,0.0,0.0,0.0,0.0,0.0,0.0
0.5660000000000001,3,0,566000000,base_footprint,-0.0013126942490968188,0.003009317459810957,0.3824854476612683,0.9239556824705358,0.0,0.0,0.0,0.0,0.0,0.0,0.0,0.0,0.0,-0.06763891107725874,-0.0005635463370514786,5.276449676508297e-05,0.0,0.0,0.0,0.0,0.0,0.0,0.0,0.0,0.0,-2.152133548338108e-06,-0.00026764981393679824,0.00015254772648909873,0.0,0.0,0.0,0.0,0.0,0.0,0.0,0.0,0.0
0.6000000000000001,4,0,600000000,base_footprint,-0.0014878024425635712,0.0035733298738074653,0.3824779062899104,0.9239565297986652,0.0,0.0,0.0,0.0,0.0,0.0,0.0,0.0,0.0,0.034816076033111376,8.143442030639908e-06,-0.0007777971820740258,0.0,0.0,0.0,0.0,0.0,0.0,0.0,0.0,0.0,-0.003166319993877008,0.008052875015685766,0.13116646546770597,0.0,0.0,0.0,0.0,0.0,0.0,0.0,0.0,0.0
0.634,5,0,634000000,base_footprint,-0.001483290834626657,0.003564489956945284,0.38247418735939576,0.9239581106648811,0.0,0.0,0.0,0.0,0.0,0.0,0.0,0.0,0.0,-0.00018591371196601534,3.51921245322001e-05,6.760800489057814e-05,0.0,0.0,0.0,0.0,0.0,0.0,0.0,0.0,0.0,0.0038191375079200743,-0.006172646430043603,0.00043976409355044234,0.0,0.0,0.0,0.0,0.0,0.0,0.0,0.0,0.0
0.668,6,0,668000000,base_footprint,-0.00148333224251345,0.0035643873584036297,0.3824771313593706,0.9239568923144221,0.0,0.0,0.0,0.0,0.0,0.0,0.0,0.0,0.0,0.0001931687585853687,3.315744936548346e-05,0.00027453632852251933,0.0,0.0,0.0,0.0,0.0,0.0,0.0,0.0,0.0,-0.0004042246994538575,-4.289203452452752e-05,0.00038728484240207567,0.0,0.0,0.0,0.0,0.0,0.0,0.0,0.0,0.0
0.7020000000000001,7,0,702000000,base_footprint,-0.0014833342843925802,0.0035642842176549657,0.3824816294378384,0.9239550306914253,0.0,0.0,0.0,0.0,0.0,0.0,0.0,0.0,0.0,0.00018030945192707345,3.4326372757019556e-05,0.00032033175724522175,0.0,0.0,0.0,0.0,0.0,0.0,0.0,0.0,0.0,-8.915250397323302e-05,-1.2301967495425524e-05,-1.7925978782092236e-05,0.0,0.0,0.0,0.0,0.0,0.0,0.0,0.0,0.0
0.7360000000000001,8,0,736000000,base_footprint,-0.0014833546187666745,0.0035642529370519607,0.38248650818045593,0.9239530111537047,0.0,0.0,0.0,0.0,0.0,0.0,0.0,0.0,0.0,0.00017852874871006688,3.4663359663267135e-05,0.00033172909877587475,0.0,0.0,0.0,0.0,0.0,0.0,0.0,0.0,0.0,-2.2202016239910684e-05,-2.975914916239785e-06,-2.8963533813538816e-06,0.0,0.0,0.0,0.0,0.0,0.0,0.0,0.0,0.0
0.77,9,0,770000000,base_footprint,-0.001483377862294363,0.0035642377987455363,0.38249148136484806,0.9239509524224518,0.0,0.0,0.0,0.0,0.0,0.0,0.0,0.0,0.0,0.00017807409205292736,3.4771257789732536e-05,0.0003345664464162305,0.0,0.0,0.0,0.0,0.0,0.0,0.0,0.0,0.0,-5.5304391733557675e-06,-7.278056931417104e-07,-6.778827247848128e-07,0.0,0.0,0.0,0.0,0.0,0.0,0.0,0.0,0.0
0.804,10,0,804000000,base_footprint,-0.0014834014804705952,0.003564226835068118,0.3824964781037349,0.9239488838920448,0.0,0.0,0.0,0.0,0.0,0.0,0.0,0.0,0.0,0.00017796225796919382,3.482453865213151e-05,0.0003352813601134304,0.0,0.0,0.0,0.0,0.0,0.0,0.0,0.0,0.0,-1.3921206159584467e-06,-1.9891432465731074e-07,-1.726007288428157e-07,0.0,0.0,0.0,0.0,0.0,0.0,0.0,0.0,0.0
0.8380000000000001,11,0,838000000,base_footprint,-0.0014834248845044518,0.0035642170352578866,0.3825014808241693,0.9239468128495575,0.0,0.0,0.0,0.0,0.0,0.0,0.0,0.0,0.0,0.00017793568245941471,3.486235677317161e-05,0.00033546996860739944,0.0,0.0,0.0,0.0,0.0,0.0,0.0,0.0,0.0,-3.658646200202109e-07,-6.772107631931313e-08,-4.7605157292186016e-08,0.0,0.0,0.0,0.0,0.0,0.0,0.0,0.0,0.0
0.8720000000000001,12,0,872000000,base_footprint,-0.0014834479575105274,0.0035642076417141226,0.38250648516831115,0.9239447411021012,0.0,0.0,0.0,0.0,0.0,0.0,0.0,0.0,0.0,0.00017793024075241196,3.489459226156452e-05,0.0003355280794718736,0.0,0.0,0.0,0.0,0.0,0.0,0.0,0.0,0.0,-1.1134292803415233e-07,-3.5149263921123085e-08,-1.7066164530065755e-08,0.0,0.0,0.0,0.0,0.0,0.0,0.0,0.0,0.0
0.906,13,0,906000000,base_footprint,-0.0014834706963536655,0.003564198455606595,0.3825114900554847,0.9239426690978152,0.0,0.0,0.0,0.0,0.0,0.0,0.0,0.0,0.0,0.00017793004434738029,3.492385883114111e-05,0.0003355538443984654,0.0,0.0,0.0,0.0,0.0,0.0,0.0,0.0,0.0,-4.819981046859857e-08,-2.7040844157284956e-08,-9.894499304173619e-09,0.0,0.0,0.0,0.0,0.0,0.0,0.0,0.0,0.0
0.9400000000000001,14,0,940000000,base_footprint,-0.0014834931237104063,0.0035641894176982178,0.38251649521769077,0.9239405969478346,0.0,0.0,0.0,0.0,0.0,0.0,0.0,0.0,0.0,0.00017793115246913334,3.4950951726359915e-05,0.00033557160175074754,0.0,0.0,0.0,0.0,0.0,0.0,0.0,0.0,0.0,-3.2517236515951096e-08,-2.5002896100614784e-08,-8.480328888484678e-09,0.0,0.0,0.0,0.0,0.0,0.0,0.0,0.0,0.0
0.9740000000000001,15,0,974000000,base_footprint,-0.0014835152664806309,0.003564180504289318,0.38252150058845863,0.9239385246797218,0.0,0.0,0.0,0.0,0.0,0.0,0.0,0.0,0.0,0.00017793258770537108,3.49762015600247e-05,0.0003355873857076526,0.0,0.0,0.0,0.0,0.0,0.0,0.0,0.0,0.0,-2.8606137548638158e-08,-2.4473228257204582e-08,-8.460156669202477e-09,0.0,0.0,0.0,0.0,0.0,0.0,0.0,0.0,0.0
1.008,16,1,8000000,base_footprint,-0.0014835371506358636,0.003564171701328576,0.38252650615129324,0.9239364523003143,0.0,0.0,0.0,0.0,0.0,0.0,0.0,0.0,0.0,0.00017793410733894373,3.499981156764917e-05,0.0003356026914800583,0.0,0.0,0.0,0.0,0.0,0.0,0.0,0.0,0.0,-2.761614201703437e-08,-2.4320059601478355e-08,-8.755106897829947e-09,0.0,0.0,0.0,0.0,0.0,0.0,0.0,0.0,0.0
1.042,17,1,42000000,base_footprint,-0.0014835588001259174,0.003564162997916659,0.38253151190209445,0.9239343798113092,0.0,0.0,0.0,0.0,0.0,0.0,0.0,0.0,0.0,0.0001779356508183348,3.502194183400115e-05,0.0003356178888645225,0.0,0.0,0.0,0.0,0.0,0.0,0.0,0.0,0.0,-2.7352444043082443e-08,-2.426246830198799e-08,-9.100482702098372e-09,0.0,0.0,0.0,0.0,0.0,0.0,0.0,0.0,0.0
1.076,18,1,76000000,base_footprint,-0.001483580236773147,0.0035641543846234624,0.3825365178398366,0.9239323072131292,0.0,0.0,0.0,0.0,0.0,0.0,0.0,0.0,0.0,0.00017793720295031747,3.504273172373776e-05,0.0003356330686577634,0.0,0.0,0.0,0.0,0.0,0.0,0.0,0.0,0.0,-2.7270584958508263e-08,-2.423056355909785e-08,-9.433061163423232e-09,0.0,0.0,0.0,0.0,0.0,0.0,0.0,0.0,0.0
1.11,19,1,110000000,base_footprint,-0.0014836014803980713,0.0035641458530080725,0.38254152396425767,0.9239302345058792,0.0,0.0,0.0,0.0,0.0,0.0,0.0,0.0,0.0,0.00017793875977241788,3.506230636964835e-05,0.0003356482526107831,0.0,0.0,0.0,0.0,0.0,0.0,0.0,0.0,0.0,-2.7235507689038524e-08,-2.4206834926226286e-08,-9.73966772746371e-09,0.0,0.0,0.0,0.0,0.0,0.0,0.0,0.0,0.0
1.1440000000000001,20,1,144000000,base_footprint,-0.0014836225489869449,0.0035641373954413548,0.382546530275287,0.9239281616895857,0.0,0.0,0.0,0.0,0.0,0.0,0.0,0.0,0.0,0.0001779403199081886,3.5080778677054324e-05,0.0003356634453321834,0.0,0.0,0.0,0.0,0.0,0.0,0.0,0.0,0.0,-2.7213373245385044e-08,-2.4186751464054246e-08,-1.0019284118987329e-08,0.0,0.0,0.0,0.0,0.0,0.0,0.0,0.0,0.0
1.178,21,1,178000000,base_footprint,-0.0014836434588575032,0.003564129005009181,0.38255153677290216,0.9239260887642547,0.0,0.0,0.0,0.0,0.0,0.0,0.0,0.0,0.0,0.00017794188308947907,3.5098251101452824e-05,0.0003356786472605407,0.0,0.0,0.0,0.0,0.0,0.0,0.0,0.0,0.0,-2.7195691242543598e-08,-2.416901828167638e-08,-1.0272990569347928e-08,0.0,0.0,0.0,0.0,0.0,0.0,0.0,0.0,0.0
1.212,22,1,212000000,base_footprint,-0.0014836642248130224,0.003564120675441249,0.382556543457093,0.9239240157298869,0.0,0.0,0.0,0.0,0.0,0.0,0.0,0.0,0.0,0.0001779434488010819,3.511481649876975e-05,0.000335693857990275,0.0,0.0,0.0,0.0,0.0,0.0,0.0,0.0,0.0,-2.718047602644261e-08,-2.4153239137764732e-08,-1.0503487333449157e-08,0.0,0.0,0.0,0.0,0.0,0.0,0.0,0.0,0.0
1.246,23,1,246000000,base_footprint,-0.0014836848602825142,0.003564112401049636,0.382561550327854,0.9239219425864811,0.0,0.0,0.0,0.0,0.0,0.0,0.0,0.0,0.0,0.00017794501686225662,3.513055909529799e-05,0.0003357090768112558,0.0,0.0,0.0,0.0,0.0,0.0,0.0,0.0,0.0,-2.7166835904372136e-08,-2.4139121033301038e-08,-1.0712714587789183e-08,0.0,0.0,0.0,0.0,0.0,0.0,0.0,0.0,0.0
1.279,24,1,280000000,base_footprint,-0.0014837053774481078,0.0035641041766745173,0.3825665573851814,0.9239198693340357,0.0,0.0,0.0,0.0,0.0,0.0,0.0,0.0,0.0,0.0001779465870977035,3.514555539618645e-05,0.0003357243030228485,0.0,0.0,0.0,0.0,0.0,0.0,0.0,0.0,0.0,-2.7154518299210824e-08,-2.4126492870024312e-08,-1.090255129214296e-08,0.0,0.0,0.0,0.0,0.0,0.0,0.0,0.0,0.0
1.314,25,1,314000000,base_footprint,-0.0014837257873609863,0.0035640959976350494,0.38257156462907255,0.923917795972548,0.0,0.0,0.0,0.0,0.0,0.0,0.0,0.0,0.0,0.00017794815928845987,3.515987472884234e-05,0.00033573953609013793,0.0,0.0,0.0,0.0,0.0,0.0,0.0,0.0,0.0,-2.71435925097773e-08,-2.4115252567714776e-08,-1.107497801305807e-08,0.0,0.0,0.0,0.0,0.0,0.0,0.0,0.0,0.0
1.348,26,1,348000000,base_footprint,-0.0014837461000464685,0.0035640878596850255,0.382576572059526,0.9239157225020155,0.0,0.0,0.0,0.0,0.0,0.0,0.0,0.0,0.0,0.00017794973329098948,3.517357992776493e-05,0.00033575477538189716,0.0,0.0,0.0,0.0,0.0,0.0,0.0,0.0,0.0,-2.7133644688471277e-08,-2.4105213904407546e-08,-1.1231380343439746e-08,0.0,0.0,0.0,0.0,0.0,0.0,0.0,0.0,0.0
1.3820000000000001,27,1,382000000,base_footprint,-0.0014837663245988227,0.0035640797589722795,0.3825815796765411,0.9239136489224349,0.0,0.0,0.0,0.0,0.0,0.0,0.0,0.0,0.0,0.00017795130885125022,3.5186728148628576e-05,0.00033577002039790515,0.0,0.0,0.0,0.0,0.0,0.0,0.0,0.0,0.0,-2.7124728381638105e-08,-2.409629134832014e-08,-1.1373109852663172e-08,0.0,0.0,0.0,0.0,0.0,0.0,0.0,0.0,0.0
1.416,28,1,416000000,base_footprint,-0.0014821986095937207,0.003559754049412427,0.3825310826457972,0.9239345767142951,0.0,0.0,0.0,0.0,0.0,0.0,0.0,0.0,0.0,-0.0002659362282874874,-1.3546895958484035e-05,-0.01050422765425331,0.0,0.0,0.0,0.0,0.0,0.0,0.0,0.0,0.0,0.00030390642368555154,0.4592509369693408,-0.002943624780318328,0.0,0.0,0.0,0.0,0.0,0.0,0.0,0.0,0.0
1.45,29,1,450000000,base_footprint,-0.0014812561081476666,0.0035606854523902807,0.3822256356784421,0.924060977874113,0.0,0.0,0.0,0.0,0.0,0.0,0.0,0.0,0.0,1.5453584084229607e-05,-0.00011242483728438067,-0.02783133508690956,0.0,0.0,0.0,0.0,0.0,0.0,0.0,0.0,0.0,0.0014443249600362695,0.7495238116386691,-0.003703641479813999,0.0,0.0,0.0,0.0,0.0,0.0,0.0,0.0,0.0
1.484,30,1,484000000,base_footprint,-0.001479344180691685,0.003562201066865032,0.38164696834588335,0.9243001210736428,0.0,0.0,0.0,0.0,0.0,0.0,0.0,0.0,0.0,-3.467313526262128e-06,-0.00020842437733135314,-0.04521786611040978,0.0,0.0,0.0,0.0,0.0,0.0,0.0,0.0,0.0,0.0047590427725446305,0.7494060867185779,-0.004040275774677433,0.0,0.0,0.0,0.0,0.0,0.0,0.0,0.0,0.0
1.518,31,1,518000000,base_footprint,-0.0014765531436453816,0.0035645361531408343,0.3807951359108302,0.9246513820567616,0.0,0.0,0.0,0.0,0.0,0.0,0.0,0.0,0.0,-0.0001238143628407254,-0.00030356872928476224,-0.06253177900515032,0.0,0.0,0.0,0.0,0.0,0.0,0.0,0.0,0.0,0.009607158539035598,0.7413892600670863,-0.0041263432762560235,0.0,0.0,0.0,0.0,0.0,0.0,0.0,0.0,0.0
1.552,32,1,552000000,base_footprint,-0.001472859688094757,0.003567631579972361,0.37967307854932264,0.9251126721184445,0.0,0.0,0.0,0.0,0.0,0.0,0.0,0.0,0.0,-0.00018503112909693344,-0.00039523172850318314,-0.07946889602370752,0.0,0.0,0.0,0.0,0.0,0.0,0.0,0.0,0.0,0.01590323776624239,0.7157210942307591,-0.003946854388453602,0.0,0.0,0.0,0.0,0.0,0.0,0.0,0.0,0.0
1.586,33,1,586000000,base_footprint,-0.001468326630719871,0.0035715961670474165,0.3782900682098901,0.925679054538603,0.0,0.0,0.0,0.0,0.0,0.0,0.0,0.0,0.0,-0.00028156780054833735,-0.00047983761045551756,-0.09553128343361275,0.0,0.0,0.0,0.0,0.0,0.0,0.0,0.0,0.0,0.022943381580198485,0.6585246478062706,-0.003704364979355891,0.0,0.0,0.0,0.0,0.0,0.0,0.0,0.0,0.0
1.62,34,1,620000000,base_footprint,-0.0014629620804359352,0.0035763408775560733,0.3766665470048127,0.9263408562161931,0.0,0.0,0.0,0.0,0.0,0.0,0.0,0.0,0.0,-0.0004530253111739113,-0.0005504663510778514,-0.10990920928791785,0.0,0.0,0.0,0.0,0.0,0.0,0.0,0.0,0.0,0.029109313640218765,0.55885154706416,-0.0032724664934746512,0.0,0.0,0.0,0.0,0.0,0.0,0.0,0.0,0.0
1.654,35,1,654000000,base_footprint,-0.0014566849944743932,0.0035814931342809846,0.37483398050561667,0.9270838894264484,0.0,0.0,0.0,0.0,0.0,0.0,0.0,0.0,0.0,-0.0006100069113420951,-0.0006016169783097087,-0.1219812678623277,0.0,0.0,0.0,0.0,0.0,0.0,0.0,0.0,0.0,0.03260171345314661,0.4143326176907388,-0.0024925963525409033,0.0,0.0,0.0,0.0,0.0,0.0,0.0,0.0,0.0
1.6880000000000002,36,1,688000000,base_footprint,-0.0014488711389275253,0.00358571372668746,0.3728285489901353,0.9278921901209232,0.0,0.0,0.0,0.0,0.0,0.0,0.0,0.0,0.0,-0.000436306695180469,-0.0006212375618311948,-0.13171933887118983,0.0,0.0,0.0,0.0,0.0,0.0,0.0,0.0,0.0,0.03599597013028791,0.2338120567452525,-0.0009912630649894583,0.0,0.0,0.0,0.0,0.0,0.0,0.0,0.0,0.0
1.721,37,1,722000000,base_footprint,-0.0014390880106592617,0.003583486390825974,0.37068853000576113,0.9287492133903277,0.0,0.0,0.0,0.0,0.0,0.0,0.0,0.0,0.0,8.743969808880256e-05,-0.0002414468612453319,-0.13888380626998525,0.0,0.0,0.0,0.0,0.0,0.0,0.0,0.0,0.0,0.030828143991896886,0.029200947873211296,0.0006873695669522002,0.0,0.0,0.0,0.0,0.0,0.0,0.0,0.0,0.0
1.756,38,1,756000000,base_footprint,-0.0014277257727515515,0.003577106770691086,0.3684672925760828,0.9296327340449669,0.0,0.0,0.0,0.0,0.0,0.0,0.0,0.0,0.0,-0.0007238861496904619,-0.0008698261972439313,-0.14381455193411685,0.0,0.0,0.0,0.0,0.0,0.0,0.0,0.0,0.0,0.008814729688168108,0.0019800961251424483,-0.0019043999351492451,0.0,0.0,0.0,0.0,0.0,0.0,0.0,0.0,0.0
1.79,39,1,790000000,base_footprint,-0.001420547886480335,0.0035822485528009137,0.36612550725297455,0.9305575008981231,0.0,0.0,0.0,0.0,0.0,0.0,0.0,0.0,0.0,-0.0007329442308839799,-0.0007964866468704462,-0.15245644106533918,0.0,0.0,0.0,0.0,0.0,0.0,0.0,0.0,0.0,0.04279321371089998,0.17607431307384408,-0.00087173936879299,0.0,0.0,0.0,0.0,0.0,0.0,0.0,0.0,0.0
1.824,40,1,824000000,base_footprint,-0.001423951406235068,0.00358975787632349,0.3647426773354203,0.9311003519121726,0.0,0.0,0.0,0.0,0.0,0.0,0.0,0.0,0.0,0.00038056137328873604,-0.00027460969224985785,-0.033789156488533825,0.0,0.0,0.0,0.0,0.0,0.0,0.0,0.0,0.0,0.030976548712509835,0.11560791053605027,-0.00019017631877204632,0.0,0.0,0.0,0.0,0.0,0.0,0.0,0.0,0.0
1.858,41,1,858000000,base_footprint,-0.0014229761615720934,0.00359643007011765,0.36487930678917574,0.9310467938329658,0.0,0.0,0.0,0.0,0.0,0.0,0.0,0.0,0.0,0.001039598273583696,8.175516330603859e-05,0.027603164522223732,0.0,0.0,0.0,0.0,0.0,0.0,0.0,0.0,0.0,0.006911697543833223,0.15219399872657915,-0.00042704655308597263,0.0,0.0,0.0,0.0,0.0,0.0,0.0,0.0,0.0
1.892,42,1,892000000,base_footprint,-0.0014227234276169313,0.0035937283885224144,0.36531872372949137,0.9308744765364306,0.0,0.0,0.0,0.0,0.0,0.0,0.0,0.0,0.0,0.0005907121769328743,0.0002176734114253722,0.027764041625934575,0.0,0.0,0.0,0.0,0.0,0.0,0.0,0.0,0.0,-0.003382283094191402,0.005494705450079844,-0.0003582587849016311,0.0,0.0,0.0,0.0,0.0,0.0,0.0,0.0,0.0
1.9260000000000002,43,1,926000000,base_footprint,-0.001419092598040462,0.0035830468561746875,0.3656796897488223,0.9307327825195746,0.0,0.0,0.0,0.0,0.0,0.0,0.0,0.0,0.0,0.00027403418572806627,0.00011795169055099575,0.017157704919026285,0.0,0.0,0.0,0.0,0.0,0.0,0.0,0.0,0.0,0.039468528738352104,0.5999683783069587,-0.0038362023778359105,0.0,0.0,0.0,0.0,0.0,0.0,0.0,0.0,0.0
1.96,44,1,960000000,base_footprint,-0.0014219085487984786,0.00358992050902275,0.3657088366809522,0.9307212995415344,0.0,0.0,0.0,0.0,0.0,0.0,0.0,0.0,0.0,0.0001811033693271829,5.3425663885960065e-05,7.085058076244012e-05,0.0,0.0,0.0,0.0,0.0,0.0,0.0,0.0,0.0,0.00667533753373311,0.09819061284708319,-0.0005239840712625775,0.0,0.0,0.0,0.0,0.0,0.0,0.0,0.0,0.0
1.9940000000000002,45,1,994000000,base_footprint,-0.0014218640951967028,0.0035905366524789845,0.36570781923507295,0.9307216970176259,0.0,0.0,0.0,0.0,0.0,0.0,0.0,0.0,0.0,0.0001341800387815066,4.444173826590561e-05,-0.00019647094155191705,0.0,0.0,0.0,0.0,0.0,0.0,0.0,0.0,0.0,0.00042585245613096113,0.005802250299591216,-0.0001675602061426774,0.0,0.0,0.0,0.0,0.0,0.0,0.0,0.0,0.0
2.028,46,2,28000000,base_footprint,-0.0014247956757988663,0.003591400562661535,0.3663144643549561,0.930483092271763,0.0,0.0,0.0,0.0,0.0,0.0,0.0,0.0,0.0,0.00025102967570153135,0.00025698689035512747,0.04065841306674397,0.0,0.0,0.0,0.0,0.0,0.0,0.0,0.0,0.0,-0.00836445796885041,-0.004607984934772695,-0.00016782590360168724,0.0,0.0,0.0,0.0,0.0,0.0,0.0,0.0,0.0
2.062,47,2,62000000,base_footprint,-0.0014287791159287276,0.0035941024780392727,0.36695550467446925,0.9302304545685014,0.0,0.0,0.0,0.0,0.0,0.0,0.0,0.0,0.0,0.00014489423162854367,0.00025321421543852084,0.040407018928448876,0.0,0.0,0.0,0.0,0.0,0.0,0.0,0.0,0.0,-0.00821066566703606,0.005764441132739311,-0.0002230173643735488,0.0,0.0,0.0,0.0,0.0,0.0,0.0,0.0,0.0
2.096,48,2,96000000,base_footprint,-0.0014338809404224895,0.0035986248976009397,0.3675917242538234,0.9299792030709054,0.0,0.0,0.0,0.0,0.0,0.0,0.0,0.0,0.0,-0.001754914841746996,0.0007667787511932895,0.0403078614799863,0.0,0.0,0.0,0.0,0.0,0.0,0.0,0.0,0.0,-0.010358959370152934,-0.016843547726413253,0.00470473075730706,0.0,0.0,0.0,0.0,0.0,0.0,0.0,0.0,0.0
2.13,49,2,130000000,base_footprint,-0.0014332013303797243,0.0036015103663486732,0.36790465644738635,0.9298554397439198,0.0,0.0,0.0,0.0,0.0,0.0,0.0,0.0,0.0,0.0007259615494319227,0.00152069742139274,0.007965686232587777,0.0,0.0,0.0,0.0,0.0,0.0,0.0,0.0,0.0,-0.02768177183401721,-0.31867480158765776,-0.00138553788613186,0.0,0.0,0.0,0.0,0.0,0.0,0.0,0.0,0.0
2.164,50,2,164000000,base_footprint,-0.0014386036351871807,0.0036000456839013957,0.3684107630602552,0.9296550326610485,0.0,0.0,0.0,0.0,0.0,0.0,0.0,0.0,0.0,0.00024676309228325807,0.00011249024750361339,0.031995996885115965,0.0,0.0,0.0,0.0,0.0,0.0,0.0,0.0,0.0,0.0002908017010270354,-6.779530138670483e-05,-0.0012834177985593406,0.0,0.0,0.0,0.0,0.0,0.0,0.0,0.0,0.0
2.198,51,2,198000000,base_footprint,-0.0014400353693846465,0.00359553615557266,0.36890717312839305,0.92945817336355,0.0,0.0,0.0,0.0,0.0,0.0,0.0,0.0,0.0,-0.0006509175797592899,-0.0005865296655046654,0.028595664292387298,0.0,0.0,0.0,0.0,0.0,0.0,0.0,0.0,0.0,-0.0036283160232995606,-0.014689181982237285,0.001286952182528158,0.0,0.0,0.0,0.0,0.0,0.0,0.0,0.0,0.0
2.232,52,2,232000000,base_footprint,-0.0014317465955752376,0.0035809641902827347,0.3692812104460697,0.9293096977911289,0.0,0.0,0.0,0.0,0.0,0.0,0.0,0.0,0.0,0.0008245321612830454,0.00019301934588903457,0.025315570720879553,0.0,0.0,0.0,0.0,0.0,0.0,0.0,0.0,0.0,-0.024229019502851272,-0.03706999805640439,-0.0009411506624203558,0.0,0.0,0.0,0.0,0.0,0.0,0.0,0.0,0.0
2.266,53,2,266000000,base_footprint,-0.001424598722501003,0.0035725557343243173,0.36972031396798677,0.9291351337687207,0.0,0.0,0.0,0.0,0.0,0.0,0.0,0.0,0.0,0.00017373374780428792,5.446762332541986e-05,0.029506641701213754,0.0,0.0,0.0,0.0,0.0,0.0,0.0,0.0,0.0,0.008564235549924554,0.12018230181344305,-0.00047079551346494654,0.0,0.0,0.0,0.0,0.0,0.0,0.0,0.0,0.0
2.3,54,2,300000000,base_footprint,-0.001447638068491958,0.0036095731877107385,0.3701956421199975,0.9289456721901385,0.0,0.0,0.0,0.0,0.0,0.0,0.0,0.0,0.0,-0.005500053756082801,-8.680240518874581e-05,0.027783222830557806,0.0,0.0,0.0,0.0,0.0,0.0,0.0,0.0,0.0,-8.467880984570908e-05,0.12544842856149255,0.0012699324642631675,0.0,0.0,0.0,0.0,0.0,0.0,0.0,0.0,0.0
2.334,55,2,334000000,base_footprint,-0.0014401627015326237,0.003593390878225844,0.3702429162440248,0.9289269058674691,0.0,0.0,0.0,0.0,0.0,0.0,0.0,0.0,0.0,0.0018437246647031525,0.003217506431756133,0.02498827062296721,0.0,0.0,0.0,0.0,0.0,0.0,0.0,0.0,0.0,-0.012760121005874592,-0.21936098340683127,0.0027836311287055622,0.0,0.0,0.0,0.0,0.0,0.0,0.0,0.0,0.0
2.368,56,2,368000000,base_footprint,-0.0014410465934210405,0.0035872392217144583,0.37060082386812626,0.928784196919687,0.0,0.0,0.0,0.0,0.0,0.0,0.0,0.0,0.0,0.0005545467072976115,0.00018293120652235857,0.021970614327502754,0.0,0.0,0.0,0.0,0.0,0.0,0.0,0.0,0.0,-0.002289959193265762,0.0006286481131847198,-0.0025954011760051686,0.0,0.0,0.0,0.0,0.0,0.0,0.0,0.0,0.0
2.402,57,2,402000000,base_footprint,-0.001435707714097434,0.003578525974153446,0.370908979511588,0.928661220151291,0.0,0.0,0.0,0.0,0.0,0.0,0.0,0.0,0.0,-0.0014477870557836599,0.00022330956696408987,-0.0006011475275763306,0.0,0.0,0.0,0.0,0.0,0.0,0.0,0.0,0.0,0.003997893911546889,0.11135986187661229,-0.0025746358569503675,0.0,0.0,0.0,0.0,0.0,0.0,0.0,0.0,0.0
2.436,58,2,436000000,base_footprint,-0.0014353825409001476,0.003585225652256033,0.36974720480085466,0.9291243675504043,0.0,0.0,0.0,0.0,0.0,0.0,0.0,0.0,0.0,-0.00040406071512788804,-0.00045420785399308267,-0.10087545585937407,0.0,0.0,0.0,0.0,0.0,0.0,0.0,0.0,0.0,0.02694571554147182,0.27200235202642925,-7.836454862010072e-05,0.0,0.0,0.0,0.0,0.0,0.0,0.0,0.0,0.0
2.47,59,2,470000000,base_footprint,-0.0014292138860497084,0.0035879805320299823,0.36815088165338244,0.929758039535667,0.0,0.0,0.0,0.0,0.0,0.0,0.0,0.0,0.0,-0.0004199523649310021,-0.0005063217015562222,-0.10127382355836619,0.0,0.0,0.0,0.0,0.0,0.0,0.0,0.0,0.0,0.022692806575272735,0.003934457192883823,-0.0002482337463769015,0.0,0.0,0.0,0.0,0.0,0.0,0.0,0.0,0.0
2.504,60,2,504000000,base_footprint,-0.0014269308400969986,0.0035917493074663688,0.36678040901425435,0.9302995188478957,0.0,0.0,0.0,0.0,0.0,0.0,0.0,0.0,0.0,-0.0002951141250647814,0.00020932431273445784,-0.026672238829782965,0.0,0.0,0.0,0.0,0.0,0.0,0.0,0.0,0.0,0.019450710141746715,-0.014801597665288501,-0.00039566564474043683,0.0,0.0,0.0,0.0,0.0,0.0,0.0,0.0,0.0
2.5380000000000003,61,2,538000000,base_footprint,-0.0014248596138578624,0.0035951788672732013,0.36633884201747513,0.9304734801665702,0.0,0.0,0.0,0.0,0.0,0.0,0.0,0.0,0.0,-0.00021921491350848844,-0.00014828221209139077,-0.02843809719733406,0.0,0.0,0.0,0.0,0.0,0.0,0.0,0.0,0.0,0.006359885983336582,0.004616983531877259,-0.00015669503188067715,0.0,0.0,0.0,0.0,0.0,0.0,0.0,0.0,0.0
2.572,62,2,572000000,base_footprint,-0.0014253334290783473,0.0036007183171062333,0.36588709844938205,0.9306511883839772,0.0,0.0,0.0,0.0,0.0,0.0,0.0,0.0,0.0,-0.00024279867453019045,-0.0001539426572553787,-0.028520304711776138,0.0,0.0,0.0,0.0,0.0,0.0,0.0,0.0,0.0,0.007100239415655726,0.003477083972300889,-0.0002624939449974375,0.0,0.0,0.0,0.0,0.0,0.0,0.0,0.0,0.0
2.606,63,2,606000000,base_footprint,-0.0014244747650603922,0.0036042585378009704,0.36543396594341193,0.9308291984713983,0.0,0.0,0.0,0.0,0.0,0.0,0.0,0.0,0.0,-0.00019749025914565405,-0.00013665594565859517,-0.028942651956659755,0.0,0.0,0.0,0.0,0.0,0.0,0.0,0.0,0.0,0.006791016082417591,-0.001036707598615648,-1.736443303044676e-05,0.0,0.0,0.0,0.0,0.0,0.0,0.0,0.0,0.0
2.64,64,2,640000000,base_footprint,-0.0014234242742709204,0.003606754206434803,0.36498095824777155,0.9310069093749886,0.0,0.0,0.0,0.0,0.0,0.0,0.0,0.0,0.0,-3.351792143786309e-05,-0.00013718829641132905,-0.028372731948039034,0.0,0.0,0.0,0.0,0.0,0.0,0.0,0.0,0.0,0.00722622802129601,-0.008337721551384146,0.00030240729085268426,0.0,0.0,0.0,0.0,0.0,0.0,0.0,0.0,0.0
2.674,65,2,674000000,base_footprint,-0.0014196819530359823,0.0036038202415793826,0.3645374073674511,0.9311806890247648,0.0,0.0,0.0,0.0,0.0,0.0,0.0,0.0,0.0,0.0004061399297164926,-0.00014983901343926842,-0.02765231613198522,0.0,0.0,0.0,0.0,0.0,0.0,0.0,0.0,0.0,0.007327640200895605,-0.01875165713102346,0.0009452705486006438,0.0,0.0,0.0,0.0,0.0,0.0,0.0,0.0,0.0
2.708,66,2,708000000,base_footprint,-0.0014162065039846961,0.0035990757783955995,0.36413585784921754,0.9313378109156173,0.0,0.0,0.0,0.0,0.0,0.0,0.0,0.0,0.0,0.0006393208735289802,-0.0001299219514771947,-0.012173846834037568,0.0,0.0,0.0,0.0,0.0,0.0,0.0,0.0,0.0,-0.014132269725190407,-0.09159166698172014,0.00144538154085376,0.0,0.0,0.0,0.0,0.0,0.0,0.0,0.0,0.0
2.742,67,2,742000000,base_footprint,-0.0014240970079519996,0.0035981729387753085,0.36424806257894426,0.9312939246052775,0.0,0.0,0.0,0.0,0.0,0.0,0.0,0.0,0.0,-0.00043357327961255113,1.3786581333829714e-05,0.010225431819459212,0.0,0.0,0.0,0.0,0.0,0.0,0.0,0.0,0.0,0.006152084421195584,0.037016836579509584,-0.002667474221308181,0.0,0.0,0.0,0.0,0.0,0.0,0.0,0.0,0.0
2.776,68,2,776000000,base_footprint,-0.0014204186908222355,0.0036023268442941995,0.3646730716018824,0.9311275726239118,0.0,0.0,0.0,0.0,0.0,0.0,0.0,0.0,0.0,0.00030778999023215993,0.00020884608137332583,0.029921334960420435,0.0,0.0,0.0,0.0,0.0,0.0,0.0,0.0,0.0,-0.0016423133772428856,0.026922599747009265,0.0006927083299393519,0.0,0.0,0.0,0.0,0.0,0.0,0.0,0.0,0.0
2.81,69,2,810000000,base_footprint,-0.0014214810328331308,0.003599439896739357,0.36495511338897685,0.9310170721503136,0.0,0.0,0.0,0.0,0.0,0.0,0.0,0.0,0.0,-0.0002844902522631977,0.0003246511012315703,0.0008986958047222148,0.0,0.0,0.0,0.0,0.0,0.0,0.0,0.0,0.0,-0.004370319582695104,0.013340269875859605,-0.0006674627056214975,0.0,0.0,0.0,0.0,0.0,0.0,0.0,0.0,0.0
2.8440000000000003,70,2,844000000,base_footprint,-0.001419171725424627,0.0035954198148944964,0.3649698776914307,0.9310113035220736,0.0,0.0,0.0,0.0,0.0,0.0,0.0,0.0,0.0,0.0004009697134147153,5.360717299983251e-05,0.0007679779611913791,0.0,0.0,0.0,0.0,0.0,0.0,0.0,0.0,0.0,0.001750807543645465,0.003114329800788061,0.0012739451060628463,0.0,0.0,0.0,0.0,0.0,0.0,0.0,0.0,0.0
2.878,71,2,878000000,base_footprint,-0.0014176764881435751,0.0035928381669013496,0.3649790700701874,0.9310077121689072,0.0,0.0,0.0,0.0,0.0,0.0,0.0,0.0,0.0,0.00030314943359133374,4.550706050160688e-05,0.00039170979084887647,0.0,0.0,0.0,0.0,0.0,0.0,0.0,0.0,0.0,0.000296394063071876,0.005692705579534229,-0.0002152908510881949,0.0,0.0,0.0,0.0,0.0,0.0,0.0,0.0,0.0
2.912,72,2,912000000,base_footprint,-0.001417664248302907,0.0035914270571242445,0.3651716275363552,0.93093220715701,0.0,0.0,0.0,0.0,0.0,0.0,0.0,0.0,0.0,0.00035356595393019007,0.0001447892005056529,0.02543610145040791,0.0,0.0,0.0,0.0,0.0,0.0,0.0,0.0,0.0,-0.0019324675536672678,-0.0012195668279182648,-0.00012848644380278413,0.0,0.0,0.0,0.0,0.0,0.0,0.0,0.0,0.0
2.946,73,2,946000000,base_footprint,-0.001419443829640586,0.003591351852457484,0.36556784498953715,0.9307766853981637,0.0,0.0,0.0,0.0,0.0,0.0,0.0,0.0,0.0,0.00027666110617256194,0.0001598291762502527,0.024829275989633585,0.0,0.0,0.0,0.0,0.0,0.0,0.0,0.0,0.0,-0.005462162287414888,0.006666401238147095,-0.0001897615324275136,0.0,0.0,0.0,0.0,0.0,0.0,0.0,0.0,0.0
2.98,74,2,980000000,base_footprint,-0.001421901195663043,0.00359258650721092,0.3659576911576894,0.9306234683273956,0.0,0.0,0.0,0.0,0.0,0.0,0.0,0.0,0.0,0.0001802371287790326,0.0001494123628324109,0.02445659002533219,0.0,0.0,0.0,0.0,0.0,0.0,0.0,0.0,0.0,-0.004877768401573841,0.006014723523652429,-0.0002088248032760549,0.0,0.0,0.0,0.0,0.0,0.0,0.0,0.0,0.0
3.014,75,3,14000000,base_footprint,-0.0014255085673993866,0.0035953171901296497,0.36640656687604944,0.9304468116822874,0.0,0.0,0.0,0.0,0.0,0.0,0.0,0.0,0.0,0.00011757048371037167,0.00020112004311281884,0.03183680198878436,0.0,0.0,0.0,0.0,0.0,0.0,0.0,0.0,0.0,-0.0055885802397800406,0.003535254907588675,-0.0002118169328020217,0.0,0.0,0.0,0.0,0.0,0.0,0.0,0.0,0.0
3.048,76,3,48000000,base_footprint,-0.0014297386667776863,0.0035992855410251295,0.3669078641193791,0.9302492247985452,0.0,0.0,0.0,0.0,0.0,0.0,0.0,0.0,0.0,9.254119464616593e-05,0.0001639562889489657,0.03153248455862067,0.0,0.0,0.0,0.0,0.0,0.0,0.0,0.0,0.0,-0.0058464857855730894,0.004383495198704656,-0.0002874358964240064,0.0,0.0,0.0,0.0,0.0,0.0,0.0,0.0,0.0
3.082,77,3,82000000,base_footprint,-0.0014330881239899304,0.003601274876046205,0.36740568781514055,0.9300527069143876,0.0,0.0,0.0,0.0,0.0,0.0,0.0,0.0,0.0,0.00014407301801908385,0.00019526208899652833,0.03177152176546917,0.0,0.0,0.0,0.0,0.0,0.0,0.0,0.0,0.0,-0.005038277844142423,0.002714173428504907,0.00010502370475849026,0.0,0.0,0.0,0.0,0.0,0.0,0.0,0.0,0.0
3.116,78,3,116000000,base_footprint,-0.001431954504084721,0.0036015012013883097,0.3675923818414591,0.9299789349805283,0.0,0.0,0.0,0.0,0.0,0.0,0.0,0.0,0.0,1.997290424527289e-05,-0.0009660559709806172,-0.0044923868135356105,0.0,0.0,0.0,0.0,0.0,0.0,0.0,0.0,0.0,-0.005123758958742227,-0.00013092771916640208,2.7507848719355035e-05,0.0,0.0,0.0,0.0,0.0,0.0,0.0,0.0,0.0
3.15,79,3,150000000,base_footprint,-0.0014308663562494334,0.0035974772600629234,0.36760671805050327,0.9299732854351095,0.0,0.0,0.0,0.0,0.0,0.0,0.0,0.0,0.0,0.0007054401608957102,-6.396433299798478e-06,-0.000989909778975115,0.0,0.0,0.0,0.0,0.0,0.0,0.0,0.0,0.0,0.0032189553407290933,-0.02543394217240055,0.0016257337798762479,0.0,0.0,0.0,0.0,0.0,0.0,0.0,0.0,0.0
3.184,80,3,184000000,base_footprint,-0.0014286161072427916,0.003597883631944847,0.36756715078566987,0.9299889267903645,0.0,0.0,0.0,0.0,0.0,0.0,0.0,0.0,0.0,-0.0004043466470023554,-0.0007744764133278278,0.0015066967618979905,0.0,0.0,0.0,0.0,0.0,0.0,0.0,0.0,0.0,-0.011473631435646121,-0.07594504535356669,-0.0016664113042394115,0.0,0.0,0.0,0.0,0.0,0.0,0.0,0.0,0.0
3.217,81,3,218000000,base_footprint,-0.001431493423627261,0.003598314555822584,0.367531352281587,0.930003068838487,0.0,0.0,0.0,0.0,0.0,0.0,0.0,0.0,0.0,0.0010572300892172563,-0.0003721978752119802,-0.005949098913445463,0.0,0.0,0.0,0.0,0.0,0.0,0.0,0.0,0.0,-0.014487031989738691,-0.23891260549457136,0.0035331460693465884,0.0,0.0,0.0,0.0,0.0,0.0,0.0,0.0,0.0
3.252,82,3,252000000,base_footprint,-0.0014316806101455275,0.003600537500043252,0.36743352135217977,0.9300417161649678,0.0,0.0,0.0,0.0,0.0,0.0,0.0,0.0,0.0,2.3335106952735682e-05,0.00018651857481572612,-0.004905861133297152,0.0,0.0,0.0,0.0,0.0,0.0,0.0,0.0,0.0,-0.0010448191715218226,-0.022041266752801318,-0.0009644101695408554,0.0,0.0,0.0,0.0,0.0,0.0,0.0,0.0,0.0
3.286,83,3,286000000,base_footprint,-0.0014300182292994556,0.0035962808493692207,0.36736167375514245,0.9300701169630905,0.0,0.0,0.0,0.0,0.0,0.0,0.0,0.0,0.0,0.00016589424489281464,-0.00011560955536409919,-0.0043818729559927895,0.0,0.0,0.0,0.0,0.0,0.0,0.0,0.0,0.0,0.0015616090615505173,-0.006804160083622871,0.00020886040827505962,0.0,0.0,0.0,0.0,0.0,0.0,0.0,0.0,0.0
3.32,84,3,320000000,base_footprint,-0.001429557735488332,0.0035863240276313864,0.3674259544849287,0.930044763769728,0.0,0.0,0.0,0.0,0.0,0.0,0.0,0.0,0.0,0.0005089615106457947,0.0012240434553848292,0.04486188501456666,0.0,0.0,0.0,0.0,0.0,0.0,0.0,0.0,0.0,0.019167999779028833,0.3144995753340209,-0.002619580968518866,0.0,0.0,0.0,0.0,0.0,0.0,0.0,0.0,0.0
3.354,85,3,354000000,base_footprint,-0.0014299074267745242,0.003587905571901517,0.36821970446333124,0.9297307844442364,0.0,0.0,0.0,0.0,0.0,0.0,0.0,0.0,0.0,0.0005185785879666655,0.00032110350054318214,0.05020210182535239,0.0,0.0,0.0,0.0,0.0,0.0,0.0,0.0,0.0,-0.008214282984734348,0.02204434458638483,0.0010224293419968888,0.0,0.0,0.0,0.0,0.0,0.0,0.0,0.0,0.0
3.388,86,3,388000000,base_footprint,-0.001432203140160923,0.0035856920597970698,0.3690098746545962,0.9294174541152199,0.0,0.0,0.0,0.0,0.0,0.0,0.0,0.0,0.0,0.0005016487206886207,0.00030878894219651433,0.04981402346327999,0.0,0.0,0.0,0.0,0.0,0.0,0.0,0.0,0.0,-0.010588681362202963,0.0064957684452937245,-5.6654059307659576e-05,0.0,0.0,0.0,0.0,0.0,0.0,0.0,0.0,0.0
3.422,87,3,422000000,base_footprint,-0.0014334974861212413,0.0035858474048366565,0.36930838344783623,0.9292988780249832,0.0,0.0,0.0,0.0,0.0,0.0,0.0,0.0,0.0,0.00020587953180171078,8.919756750719755e-05,0.009175746281357498,0.0,0.0,0.0,0.0,0.0,0.0,0.0,0.0,0.0,-0.003365321904319271,0.016639557546051627,-0.0002082467086893697,0.0,0.0,0.0,0.0,0.0,0.0,0.0,0.0,0.0
3.456,88,3,456000000,base_footprint,-0.0014348467094410873,0.003587298373324012,0.369450141933901,0.9292425222353536,0.0,0.0,0.0,0.0,0.0,0.0,0.0,0.0,0.0,9.969808754472316e-05,7.278757283033096e-05,0.008772854407943745,0.0,0.0,0.0,0.0,0.0,0.0,0.0,0.0,0.0,-0.0017172256486800031,0.005753942476579018,-0.0002473947010731444,0.0,0.0,0.0,0.0,0.0,0.0,0.0,0.0,0.0
3.49,89,3,490000000,base_footprint,-0.0014371288984745463,0.0035904333334672686,0.36958542244469283,0.9291887100935876,0.0,0.0,0.0,0.0,0.0,0.0,0.0,0.0,0.0,-2.3144081264165702e-05,6.011243838801885e-05,0.008375980498652338,0.0,0.0,0.0,0.0,0.0,0.0,0.0,0.0,0.0,-0.0014151251768019268,0.005384996251033126,-0.0002887353081127027,0.0,0.0,0.0,0.0,0.0,0.0,0.0,0.0,0.0
3.524,90,3,524000000,base_footprint,-0.0014385974148576476,0.0035957342581486645,0.36939044276638755,0.9292662169289676,0.0,0.0,0.0,0.0,0.0,0.0,0.0,0.0,0.0,-0.00017929681598342364,-5.9922265961416586e-05,-0.01671166536528635,0.0,0.0,0.0,0.0,0.0,0.0,0.0,0.0,0.0,0.0037648862345533254,0.010069230028683714,-0.00031436753064753505,0.0,0.0,0.0,0.0,0.0,0.0,0.0,0.0,0.0
3.558,91,3,558000000,base_footprint,-0.0014384358705219489,0.0035987868782797567,0.3691252409889436,0.9293715812849592,0.0,0.0,0.0,0.0,0.0,0.0,0.0,0.0,0.0,-0.0001329382169317689,-8.108446605972511e-05,-0.016805729444072267,0.0,0.0,0.0,0.0,0.0,0.0,0.0,0.0,0.0,0.0039155947833584125,-0.0012903462022892168,4.3927101657117546e-05,0.0,0.0,0.0,0.0,0.0,0.0,0.0,0.0,0.0
3.592,92,3,592000000,base_footprint,-0.0014381533273025106,0.003600724887455121,0.36886121388251436,0.9294763963589446,0.0,0.0,0.0,0.0,0.0,0.0,0.0,0.0,0.0,5.9731494279340535e-05,-8.36537669517164e-05,-0.016650586781331966,0.0,0.0,0.0,0.0,0.0,0.0,0.0,0.0,0.0,0.0049664526578543445,-0.00824077114100168,0.00037559822025445496,0.0,0.0,0.0,0.0,0.0,0.0,0.0,0.0,0.0
3.626,93,3,626000000,base_footprint,-0.0014341291669830289,0.003597209868537711,0.36844859100488847,0.9296400589159262,0.0,0.0,0.0,0.0,0.0,0.0,0.0,0.0,0.0,0.0003563719559456647,-0.0004219362419265278,-0.03252594947177466,0.0,0.0,0.0,0.0,0.0,0.0,0.0,0.0,0.0,0.006830350333270595,-0.018297202950321306,0.0008193120615375788,0.0,0.0,0.0,0.0,0.0,0.0,0.0,0.0,0.0
3.66,94,3,660000000,base_footprint,-0.0014303386799957524,0.003596461411357046,0.36789542693608707,0.9298591153696839,0.0,0.0,0.0,0.0,0.0,0.0,0.0,0.0,0.0,-0.00032893671173962703,-0.000137694854735645,-0.029662462779780584,0.0,0.0,0.0,0.0,0.0,0.0,0.0,0.0,0.0,-0.005438214965325667,-0.07610990582988467,-0.0015631768793788947,0.0,0.0,0.0,0.0,0.0,0.0,0.0,0.0,0.0
3.693,95,3,694000000,base_footprint,-0.0014327281574572277,0.003602911398232839,0.36741847969448066,0.9300476477570813,0.0,0.0,0.0,0.0,0.0,0.0,0.0,0.0,0.0,-0.0004845856383936472,0.0005856056039746072,-0.0250660545452858,0.0,0.0,0.0,0.0,0.0,0.0,0.0,0.0,0.0,0.011422199062979442,0.07355315081999567,0.0002784286146152136,0.0,0.0,0.0,0.0,0.0,0.0,0.0,0.0,0.0
3.728,96,3,728000000,base_footprint,-0.001430218419864769,0.003599084041569393,0.36709998693799295,0.9301734250447379,0.0,0.0,0.0,0.0,0.0,0.0,0.0,0.0,0.0,0.0002265865987830452,-0.00014992450616766142,-0.02000943742312208,0.0,0.0,0.0,0.0,0.0,0.0,0.0,0.0,0.0,0.006511651017505427,-0.011051383522852985,0.0009198458077844968,0.0,0.0,0.0,0.0,0.0,0.0,0.0,0.0,0.0
3.762,97,3,762000000,base_footprint,-0.0014285617418735097,0.003596891945652113,0.36678727001270495,0.9302967914253538,0.0,0.0,0.0,0.0,0.0,0.0,0.0,0.0,0.0,0.00020182528928850254,-0.00022844238188528932,-0.019896408206799984,0.0,0.0,0.0,0.0,0.0,0.0,0.0,0.0,0.0,0.0049916810772019145,0.004653733515221326,8.71566505467204e-05,0.0,0.0,0.0,0.0,0.0,0.0,0.0,0.0,0.0
3.7960000000000003,98,3,796000000,base_footprint,-0.001425793895767286,0.003592604548156486,0.366474092667407,0.9304202274821459,0.0,0.0,0.0,0.0,0.0,0.0,0.0,0.0,0.0,0.00018901147200049278,-0.0018360099067881881,-0.01258362433811702,0.0,0.0,0.0,0.0,0.0,0.0,0.0,0.0,0.0,0.0051660569224377196,0.004493690034071712,-0.0002539735995754944,0.0,0.0,0.0,0.0,0.0,0.0,0.0,0.0,0.0
3.83,99,3,830000000,base_footprint,-0.001423394635381477,0.0035904537263305183,0.3664827846933344,0.9304168157944965,0.0,0.0,0.0,0.0,0.0,0.0,0.0,0.0,0.0,0.00028786054096912423,5.086439921212036e-05,0.00047794009662257913,0.0,0.0,0.0,0.0,0.0,0.0,0.0,0.0,0.0,-0.0006453778905929821,0.00043450905560260187,0.0002505583557544427,0.0,0.0,0.0,0.0,0.0,0.0,0.0,0.0,0.0
3.864,100,3,864000000,base_footprint,-0.001422793431857815,0.0035896366242800883,0.3664870801656394,0.9304151279076562,0.0,0.0,0.0,0.0,0.0,0.0,0.0,0.0,0.0,0.00021066121881314898,3.983294361107939e-05,7.176699723866453e-05,0.0,0.0,0.0,0.0,0.0,0.0,0.0,0.0,0.0,0.00039308039143459055,0.005764386409555164,-0.00018641856010363805,0.0,0.0,0.0,0.0,0.0,0.0,0.0,0.0,0.0
3.898,101,3,898000000,base_footprint,-0.001423376406078177,0.0035902494007768308,0.3665070783248908,0.9304072472023202,0.0,0.0,0.0,0.0,0.0,0.0,0.0,0.0,0.0,7.989032468879115e-06,-0.00036363873164344483,0.020733579048235137,0.0,0.0,0.0,0.0,0.0,0.0,0.0,0.0,0.0,-0.0006635473561696882,0.002963564922969059,-0.0005790576770301126,0.0,0.0,0.0,0.0,0.0,0.0,0.0,0.0,0.0
3.932,102,3,932000000,base_footprint,-0.0014255199234779173,0.0035913997699159018,0.3668992567695537,0.9302526566060372,0.0,0.0,0.0,0.0,0.0,0.0,0.0,0.0,0.0,0.0001694701762671683,0.0001515738442151445,0.024409071222829336,0.0,0.0,0.0,0.0,0.0,0.0,0.0,0.0,0.0,-0.0042698672770754885,0.002161331443478208,0.0001970980508250063,0.0,0.0,0.0,0.0,0.0,0.0,0.0,0.0,0.0
3.965,103,3,966000000,base_footprint,-0.0014289143757960675,0.003594429181354444,0.3672823769597626,0.9301014427778046,0.0,0.0,0.0,0.0,0.0,0.0,0.0,0.0,0.0,4.4214972170390875e-05,0.00014070651680920369,0.02406178089714683,0.0,0.0,0.0,0.0,0.0,0.0,0.0,0.0,0.0,-0.00476651380734801,0.0055077946990610485,-0.00027551272058412964,0.0,0.0,0.0,0.0,0.0,0.0,0.0,0.0,0.0
4.0,104,4,0,base_footprint,-0.0014314338391995239,0.0035957179331352345,0.3675989433462419,0.9299763645708615,0.0,0.0,0.0,0.0,0.0,0.0,0.0,0.0,0.0,0.0015554455653222848,0.00339307987937621,-0.016590903893917364,0.0,0.0,0.0,0.0,0.0,0.0,0.0,0.0,0.0,-0.003181498140600275,0.014519113693846392,0.0033096180901634777,0.0,0.0,0.0,0.0,0.0,0.0,0.0,0.0,0.0
4.034,105,4,34000000,base_footprint,-0.0014319338602006367,0.0036018019663857357,0.36730583633381564,0.9300921455335118,0.0,0.0,0.0,0.0,0.0,0.0,0.0,0.0,0.0,-0.0001256567511667909,-8.09857511948901e-05,-0.017682841180550225,0.0,0.0,0.0,0.0,0.0,0.0,0.0,0.0,0.0,0.004159087562199354,-0.002557348213086731,-0.0034849954185054576,0.0,0.0,0.0,0.0,0.0,0.0,0.0,0.0,0.0
4.068,106,4,68000000,base_footprint,-0.001431211893109328,0.0036032685137188116,0.3670283054064988,0.9302016937841863,0.0,0.0,0.0,0.0,0.0,0.0,0.0,0.0,0.0,0.00012255665431132957,-8.063480879798423e-05,-0.017432334518433346,0.0,0.0,0.0,0.0,0.0,0.0,0.0,0.0,0.0,0.005557612976917853,-0.008924379622464399,0.000482008225221429,0.0,0.0,0.0,0.0,0.0,0.0,0.0,0.0,0.0
4.102,107,4,102000000,base_footprint,-0.0014279818644185895,0.0035983245359164895,0.3667468417249808,0.9303127253849004,0.0,0.0,0.0,0.0,0.0,0.0,0.0,0.0,0.0,0.0005112150740539857,-0.00037245191883773137,-0.018695998178796986,0.0,0.0,0.0,0.0,0.0,0.0,0.0,0.0,0.0,0.005022600865977371,-0.027519944960391816,0.0009012794302712848,0.0,0.0,0.0,0.0,0.0,0.0,0.0,0.0,0.0
4.136,108,4,136000000,base_footprint,-0.0014255726662691466,0.003598230428601567,0.3664690514636304,0.9304221916956318,0.0,0.0,0.0,0.0,0.0,0.0,0.0,0.0,0.0,-0.0002542236559848129,-0.00038903195862316985,-0.0070611148194136475,0.0,0.0,0.0,0.0,0.0,0.0,0.0,0.0,0.0,-0.009229841342510915,-0.06970605908349617,-0.0013276020377743917,0.0,0.0,0.0,0.0,0.0,0.0,0.0,0.0,0.0
4.17,109,4,170000000,base_footprint,-0.0014274238274434965,0.003605109301823273,0.3663712487960973,0.9304606782146825,0.0,0.0,0.0,0.0,0.0,0.0,0.0,0.0,0.0,0.00021459623949243736,0.0001734210570986645,0.0027810941034444856,0.0,0.0,0.0,0.0,0.0,0.0,0.0,0.0,0.0,0.005384007895716667,0.07088565975333697,0.0007604545472067025,0.0,0.0,0.0,0.0,0.0,0.0,0.0,0.0,0.0
4.204,110,4,204000000,base_footprint,-0.0014238847517828695,0.003594262716472649,0.3665630249987236,0.9303851904085338,0.0,0.0,0.0,0.0,0.0,0.0,0.0,0.0,0.0,0.0019919025492405344,0.0035796840674371267,0.06712924167354949,0.0,0.0,0.0,0.0,0.0,0.0,0.0,0.0,0.0,-0.002904714664583795,-0.03660058865567097,0.001895246648359763,0.0,0.0,0.0,0.0,0.0,0.0,0.0,0.0,0.0
4.238,111,4,238000000,base_footprint,-0.001430745102204716,0.003594710781824,0.3675376254057234,0.9300006048030129,0.0,0.0,0.0,0.0,0.0,0.0,0.0,0.0,0.0,0.0006513848834512436,0.00017144360815368533,0.06089168109663827,0.0,0.0,0.0,0.0,0.0,0.0,0.0,0.0,0.0,-0.011313337237176766,0.018350043289950393,-0.0015881106331663056,0.0,0.0,0.0,0.0,0.0,0.0,0.0,0.0,0.0
4.272,112,4,272000000,base_footprint,-0.0014322901530242895,0.00358912294515324,0.3684987936053479,0.9296201944088809,0.0,0.0,0.0,0.0,0.0,0.0,0.0,0.0,0.0,0.0007218589194127472,0.00037983335541756625,0.06064756279772368,0.0,0.0,0.0,0.0,0.0,0.0,0.0,0.0,0.0,-0.01289907321798165,0.006035576388100549,0.00033355662258549676,0.0,0.0,0.0,0.0,0.0,0.0,0.0,0.0,0.0
4.306,113,4,306000000,base_footprint,-0.0014332755472428777,0.003583648184314947,0.36910588663601734,0.9293793346301262,0.0,0.0,0.0,0.0,0.0,0.0,0.0,0.0,0.0,-0.0012225562722785633,0.0004271937300193569,-0.03008624497667,0.0,0.0,0.0,0.0,0.0,0.0,0.0,0.0,0.0,-0.01141834032807949,0.02622538216767558,-0.0019183347041886443,0.0,0.0,0.0,0.0,0.0,0.0,0.0,0.0,0.0
4.34,114,4,340000000,base_footprint,-0.0014310122041638874,0.0035865279525681376,0.3686430276738044,0.9295630194714114,0.0,0.0,0.0,0.0,0.0,0.0,0.0,0.0,0.0,3.255294472885528e-05,-0.0001127441318687611,-0.029260584580195023,0.0,0.0,0.0,0.0,0.0,0.0,0.0,0.0,0.0,0.010530020866694897,0.009044145615130573,0.001380794456990637,0.0,0.0,0.0,0.0,0.0,0.0,0.0,0.0,0.0
4.374,115,4,374000000,base_footprint,-0.001429462695757599,0.003587980611238182,0.36817688916972724,0.929747740687138,0.0,0.0,0.0,0.0,0.0,0.0,0.0,0.0,0.0,-4.8517225745736296e-05,-0.00012568732538755832,-0.029710236004234305,0.0,0.0,0.0,0.0,0.0,0.0,0.0,0.0,0.0,0.006979745814843991,0.0053127283960008945,-0.0002338510393081264,0.0,0.0,0.0,0.0,0.0,0.0,0.0,0.0,0.0
4.408,116,4,408000000,base_footprint,-0.0014300240092252091,0.003590580598601486,0.36793006574484877,0.9298454331141759,0.0,0.0,0.0,0.0,0.0,0.0,0.0,0.0,0.0,0.00043962167807557747,0.00021832005876469128,0.011679081946278307,0.0,0.0,0.0,0.0,0.0,0.0,0.0,0.0,0.0,0.005504525671362474,-0.006569904395106681,0.00036580881013089614,0.0,0.0,0.0,0.0,0.0,0.0,0.0,0.0,0.0
4.442,117,4,442000000,base_footprint,-0.0014322616821260015,0.0035939362504226143,0.36809889593924433,0.929778594643376,0.0,0.0,0.0,0.0,0.0,0.0,0.0,0.0,0.0,-4.894684216627754e-05,6.825223686095339e-05,0.010406013526448975,0.0,0.0,0.0,0.0,0.0,0.0,0.0,0.0,0.0,-0.0036252236341030885,0.006374004526512904,-0.000877185925699035,0.0,0.0,0.0,0.0,0.0,0.0,0.0,0.0,0.0
4.476,118,4,476000000,base_footprint,-0.0014348255205231886,0.003597954298821765,0.36826146704852714,0.9297141968841048,0.0,0.0,0.0,0.0,0.0,0.0,0.0,0.0,0.0,9.151325746730324e-06,8.103916521536401e-05,0.010251662947510709,0.0,0.0,0.0,0.0,0.0,0.0,0.0,0.0,0.0,-0.0005699335159977736,0.003937805780219017,-0.00012482254103486344,0.0,0.0,0.0,0.0,0.0,0.0,0.0,0.0,0.0
4.51,119,4,510000000,base_footprint,-0.0014297274049715684,0.0035863104959475275,0.3684356859045602,0.9296452224416638,0.0,0.0,0.0,0.0,0.0,0.0,0.0,0.0,0.0,-0.00012122888275202453,0.00014900943811772536,0.013292890915602902,0.0,0.0,0.0,0.0,0.0,0.0,0.0,0.0,0.0,-0.018204566980316278,-0.20810555326888075,0.0019417523394116443,0.0,0.0,0.0,0.0,0.0,0.0,0.0,0.0,0.0
4.5440000000000005,120,4,544000000,base_footprint,-0.0014309413486018662,0.003589774314837674,0.3686254253130372,0.9295699875426314,0.0,0.0,0.0,0.0,0.0,0.0,0.0,0.0,0.0,-0.0008768319503764757,0.0006679571134093053,0.0011263452521935325,0.0,0.0,0.0,0.0,0.0,0.0,0.0,0.0,0.0,-0.006890016798397458,-0.130461407587831,-0.0009267991357336245,0.0,0.0,0.0,0.0,0.0,0.0,0.0,0.0,0.0
4.578,121,4,578000000,base_footprint,-0.0014362571602022896,0.0035975406393029576,0.3686127261764443,0.9295749851235715,0.0,0.0,0.0,0.0,0.0,0.0,0.0,0.0,0.0,0.0006444489987247884,-7.533838560081719e-05,0.0006566093115601263,0.0,0.0,0.0,0.0,0.0,0.0,0.0,0.0,0.0,0.0017079326775468577,-0.028840011856299908,0.0023985029393919105,0.0,0.0,0.0,0.0,0.0,0.0,0.0,0.0,0.0
4.612,122,4,612000000,base_footprint,-0.0014287191025844112,0.0035814989286611105,0.36857926510949857,0.9295883266040361,0.0,0.0,0.0,0.0,0.0,0.0,0.0,0.0,0.0,0.0023451879800111273,-0.002405911414827749,-0.0018327168372685452,0.0,0.0,0.0,0.0,0.0,0.0,0.0,0.0,0.0,-0.015106947570244689,-0.03923379796346817,0.004907232011270567,0.0,0.0,0.0,0.0,0.0,0.0,0.0,0.0,0.0
4.646,123,4,646000000,base_footprint,-0.0014248342114428787,0.0035764539653424976,0.3685478024215002,0.9296008262446773,0.0,0.0,0.0,0.0,0.0,0.0,0.0,0.0,0.0,0.00027875070474204556,-0.00013250090217026877,-0.0023452155300599828,0.0,0.0,0.0,0.0,0.0,0.0,0.0,0.0,0.0,0.014184526667210665,0.1356557371423803,-0.005965827065666953,0.0,0.0,0.0,0.0,0.0,0.0,0.0,0.0,0.0
4.68,124,4,680000000,base_footprint,-0.0014321485801097383,0.0035962019624381234,0.36841852811860093,0.9296519802704739,0.0,0.0,0.0,0.0,0.0,0.0,0.0,0.0,0.0,-0.0017154293060822282,-0.0015179309541579296,-0.026446839273278934,0.0,0.0,0.0,0.0,0.0,0.0,0.0,0.0,0.0,0.019579597264000603,0.24331746519485822,-0.00473636024445548,0.0,0.0,0.0,0.0,0.0,0.0,0.0,0.0,0.0
4.714,125,4,714000000,base_footprint,-0.001433034904710944,0.0035939495856659857,0.3684195848014976,0.9296515688536375,0.0,0.0,0.0,0.0,0.0,0.0,0.0,0.0,0.0,0.0005267672004939522,-0.00021473752338841854,0.02381001035266648,0.0,0.0,0.0,0.0,0.0,0.0,0.0,0.0,0.0,-0.001750235580052661,-0.011879232303965996,0.0034716657635312374,0.0,0.0,0.0,0.0,0.0,0.0,0.0,0.0,0.0
4.748,126,4,748000000,base_footprint,-0.0014331002804291943,0.003589410396817149,0.3687990096202107,0.9295011311772252,0.0,0.0,0.0,0.0,0.0,0.0,0.0,0.0,0.0,0.0005457273615546863,0.00018589329103199572,0.023848721205653563,0.0,0.0,0.0,0.0,0.0,0.0,0.0,0.0,0.0,-0.004913047413798691,0.004653969887177927,0.00033600659974289534,0.0,0.0,0.0,0.0,0.0,0.0,0.0,0.0,0.0
4.782,127,4,782000000,base_footprint,-0.001433009088177189,0.0035864831866537403,0.36917236732258984,0.929352918340896,0.0,0.0,0.0,0.0,0.0,0.0,0.0,0.0,0.0,0.0004234082749164341,0.00017502185060397336,0.023417034492362918,0.0,0.0,0.0,0.0,0.0,0.0,0.0,0.0,0.0,-0.004858808814849187,0.006037076006198195,-0.00021886508937180678,0.0,0.0,0.0,0.0,0.0,0.0,0.0,0.0,0.0
4.816,128,4,816000000,base_footprint,-0.001433045430716399,0.003585625630918635,0.36931629199300453,0.9292957366404767,0.0,0.0,0.0,0.0,0.0,0.0,0.0,0.0,0.0,0.0002194265416692331,4.3435606258653306e-05,-0.0008398896517839175,0.0,0.0,0.0,0.0,0.0,0.0,0.0,0.0,0.0,-0.0015831471235504733,0.012325714202558012,-0.00021088531053537604,0.0,0.0,0.0,0.0,0.0,0.0,0.0,0.0,0.0
4.85,129,4,850000000,base_footprint,-0.0014331743687035384,0.003586182507767564,0.36930030614225673,0.9293020871543792,0.0,0.0,0.0,0.0,0.0,0.0,0.0,0.0,0.0,0.00012071706898257833,2.3030811278171607e-05,-0.00123043696541067,0.0,0.0,0.0,0.0,0.0,0.0,0.0,0.0,0.0,0.0007006467218697435,0.005609253343435714,-0.0002139760045967943,0.0,0.0,0.0,0.0,0.0,0.0,0.0,0.0,0.0
4.884,130,4,884000000,base_footprint,-0.0014341523762914515,0.003588161732114027,0.3692771996208678,0.9293112600966995,0.0,0.0,0.0,0.0,0.0,0.0,0.0,0.0,0.0,2.2754936395264482e-05,8.826348382488195e-06,-0.001675944954283408,0.0,0.0,0.0,0.0,0.0,0.0,0.0,0.0,0.0,0.0007765286381865247,0.005597476047644075,-0.00024314178702709453,0.0,0.0,0.0,0.0,0.0,0.0,0.0,0.0,0.0
4.918,131,4,918000000,base_footprint,-0.0014331777080281768,0.003587054616265424,0.3692669334689835,0.9293153452339258,0.0,0.0,0.0,0.0,0.0,0.0,0.0,0.0,0.0,0.00047902673392298035,3.537195215667674e-05,0.0014393575766992394,0.0,0.0,0.0,0.0,0.0,0.0,0.0,0.0,0.0,-0.03157821127352073,-0.54141208799563,0.003733357172004011,0.0,0.0,0.0,0.0,0.0,0.0,0.0,0.0,0.0
4.952,132,4,952000000,base_footprint,-0.0014378220303069946,0.0035955777912011137,0.36933519419185845,0.9292881785643348,0.0,0.0,0.0,0.0,0.0,0.0,0.0,0.0,0.0,-0.00012244183377809544,3.341594147263206e-05,0.006113903593833979,0.0,0.0,0.0,0.0,0.0,0.0,0.0,0.0,0.0,-0.007394852572615754,-0.13243040321382263,-0.0005866803234032053,0.0,0.0,0.0,0.0,0.0,0.0,0.0,0.0,0.0
4.986,133,4,986000000,base_footprint,-0.0014390796915636213,0.0035979836667658052,0.3694299710654604,0.9292504937000293,0.0,0.0,0.0,0.0,0.0,0.0,0.0,0.0,0.0,1.252439541492817e-05,4.659853852961298e-05,0.0059361299290350954,0.0,0.0,0.0,0.0,0.0,0.0,0.0,0.0,0.0,-0.00039702366154290047,0.00014984539805929124,0.0002846466672132113,0.0,0.0,0.0,0.0,0.0,0.0,0.0,0.0,0.0
5.02,134,5,20000000,base_footprint,-0.0014362143737378331,0.0035900773032867374,0.36944145540383055,0.9292459629518596,0.0,0.0,0.0,0.0,0.0,0.0,0.0,0.0,0.0,0.00018092996660451144,1.2879102659431069e-05,-0.007862434547690093,0.0,0.0,0.0,0.0,0.0,0.0,0.0,0.0,0.0,0.012232360151445437,0.21566758675674608,-0.0003704576588867278,0.0,0.0,0.0,0.0,0.0,0.0,0.0,0.0,0.0
5.054,135,5,54000000,base_footprint,-0.0014340028379111565,0.0035895830088750404,0.3691611707015216,0.9293573524624235,0.0,0.0,0.0,0.0,0.0,0.0,0.0,0.0,0.0,0.0002640633422283792,-3.779260234234544e-05,-0.027100587171217484,0.0,0.0,0.0,0.0,0.0,0.0,0.0,0.0,0.0,0.015470424466968682,0.12663271281406577,-0.00034484469109869636,0.0,0.0,0.0,0.0,0.0,0.0,0.0,0.0,0.0
5.088,136,5,88000000,base_footprint,-0.001433058747854291,0.00358023802114007,0.3686492961951074,0.9295605545918938,0.0,0.0,0.0,0.0,0.0,0.0,0.0,0.0,0.0,0.0010786479237887246,-0.0014450948358661272,-0.026631868904079672,0.0,0.0,0.0,0.0,0.0,0.0,0.0,0.0,0.0,-0.011810391488249783,-0.04224449590153587,-0.00013058290601442065,0.0,0.0,0.0,0.0,0.0,0.0,0.0,0.0,0.0
5.122,137,5,122000000,base_footprint,-0.0014267963323605498,0.003580001296710225,0.36828795319354385,0.9297037868995972,0.0,0.0,0.0,0.0,0.0,0.0,0.0,0.0,0.0,0.0004826389910422781,0.0013163606085376887,-0.019695885743825983,0.0,0.0,0.0,0.0,0.0,0.0,0.0,0.0,0.0,0.01578120331053509,0.09451353321246656,0.001373592139802989,0.0,0.0,0.0,0.0,0.0,0.0,0.0,0.0,0.0
5.156,138,5,156000000,base_footprint,-0.0014365300815200816,0.003590374988980233,0.3680484788999404,0.9297985603173429,0.0,0.0,0.0,0.0,0.0,0.0,0.0,0.0,0.0,-0.002591324881955596,0.0009393237674346293,-0.0074663045050330674,0.0,0.0,0.0,0.0,0.0,0.0,0.0,0.0,0.0,0.02513924626782757,0.236747945375705,-0.008989117835086234,0.0,0.0,0.0,0.0,0.0,0.0,0.0,0.0,0.0
5.19,139,5,190000000,base_footprint,-0.001433281601975553,0.0035952315804398216,0.3680614318267083,0.9297934192149383,0.0,0.0,0.0,0.0,0.0,0.0,0.0,0.0,0.0,0.0003778358746108321,-0.00012628233403576307,0.0011491446444071068,0.0,0.0,0.0,0.0,0.0,0.0,0.0,0.0,0.0,-0.0022317741256993725,0.012193333193983523,0.00556749686256561,0.0,0.0,0.0,0.0,0.0,0.0,0.0,0.0,0.0
5.224,140,5,224000000,base_footprint,-0.0014322765061748242,0.0035906666282332672,0.3682982662414935,0.9296996519202773,0.0,0.0,0.0,0.0,0.0,0.0,0.0,0.0,0.0,-0.0005673982153251093,0.00020730041917693735,0.03225091316268639,0.0,0.0,0.0,0.0,0.0,0.0,0.0,0.0,0.0,-0.023455449449735447,-0.34516652361474814,0.0005603757493827881,0.0,0.0,0.0,0.0,0.0,0.0,0.0,0.0,0.0
5.258,141,5,258000000,base_footprint,-0.0014311508293873146,0.003588143498986959,0.36838311366577525,0.9296660468143617,0.0,0.0,0.0,0.0,0.0,0.0,0.0,0.0,0.0,0.0003532934868419339,6.231406661821644e-05,0.0008275979832403064,0.0,0.0,0.0,0.0,0.0,0.0,0.0,0.0,0.0,-0.0008836937081239185,0.015320733650584348,0.0015026124753295307,0.0,0.0,0.0,0.0,0.0,0.0,0.0,0.0,0.0
5.292,142,5,292000000,base_footprint,-0.0014302034704299328,0.003586886468684199,0.3683930365861746,0.9296621210731949,0.0,0.0,0.0,0.0,0.0,0.0,0.0,0.0,0.0,0.00023954136691854046,5.1265221039950745e-05,0.00044020852663710267,0.0,0.0,0.0,0.0,0.0,0.0,0.0,0.0,0.0,0.0001263451830235795,0.005417566621475597,-0.00022916274137171476,0.0,0.0,0.0,0.0,0.0,0.0,0.0,0.0,0.0
5.326,143,5,326000000,base_footprint,-0.0014305112383502542,0.0035866574356331867,0.3685391772770094,0.9296041976766356,0.0,0.0,0.0,0.0,0.0,0.0,0.0,0.0,0.0,0.0003352890076397503,0.00016280687203785543,0.021028774058097683,0.0,0.0,0.0,0.0,0.0,0.0,0.0,0.0,0.0,0.019581441375172495,0.343060978691462,-0.0020287119949205052,0.0,0.0,0.0,0.0,0.0,0.0,0.0,0.0,0.0
5.36,144,5,360000000,base_footprint,-0.001430720903825713,0.003588439838351194,0.3684309406753456,0.9296470933049282,0.0,0.0,0.0,0.0,0.0,0.0,0.0,0.0,0.0,3.6714158387110916e-05,-1.8113222642088445e-05,-0.009562767737382669,0.0,0.0,0.0,0.0,0.0,0.0,0.0,0.0,0.0,0.0018184293806183653,0.010703871224086062,-0.00028300281599398584,0.0,0.0,0.0,0.0,0.0,0.0,0.0,0.0,0.0
5.394,145,5,394000000,base_footprint,-0.0014316008002017951,0.0035916354372618584,0.3682762759018351,0.9297083603377515,0.0,0.0,0.0,0.0,0.0,0.0,0.0,0.0,0.0,-9.57206807624842e-05,-3.114451328786598e-05,-0.009985455599978788,0.0,0.0,0.0,0.0,0.0,0.0,0.0,0.0,0.0,0.002525549298470541,0.005278919636935693,-0.00032181072628815506,0.0,0.0,0.0,0.0,0.0,0.0,0.0,0.0,0.0
5.428,146,5,428000000,base_footprint,-0.0014348132217781196,0.003595989178313946,0.3684775785794275,0.9296285732791834,0.0,0.0,0.0,0.0,0.0,0.0,0.0,0.0,0.0,-8.940797797915809e-05,4.75473083124729e-05,0.01390821390865768,0.0,0.0,0.0,0.0,0.0,0.0,0.0,0.0,0.0,-0.0024185694391755165,-0.0016728385965656051,-0.0004263172439730054,0.0,0.0,0.0,0.0,0.0,0.0,0.0,0.0,0.0
5.462,147,5,462000000,base_footprint,-0.0014367568407481122,0.0035987140705273425,0.3686953333138258,0.9295422186105514,0.0,0.0,0.0,0.0,0.0,0.0,0.0,0.0,0.0,4.3530934640944945e-05,9.986818665099272e-05,0.013670836531379748,0.0,0.0,0.0,0.0,0.0,0.0,0.0,0.0,0.0,-0.001190173794468679,0.0020733814619377715,0.00021057818927952654,0.0,0.0,0.0,0.0,0.0,0.0,0.0,0.0,0.0
5.496,148,5,496000000,base_footprint,-0.0014366070239473913,0.0036011551798006075,0.3689142020907577,0.9294553670496338,0.0,0.0,0.0,0.0,0.0,0.0,0.0,0.0,0.0,0.00024385580273516335,0.004072640156246736,0.01847236633196913,0.0,0.0,0.0,0.0,0.0,0.0,0.0,0.0,0.0,-0.007423475822720787,-0.009911038188415752,0.0023953417279312683,0.0,0.0,0.0,0.0,0.0,0.0,0.0,0.0,0.0
5.53,149,5,530000000,base_footprint,-0.0014460476504743961,0.003590737874492109,0.37015023630778393,0.9289638411203102,0.0,0.0,0.0,0.0,0.0,0.0,0.0,0.0,0.0,0.0013703414799452153,0.000654637256038355,0.09998784765707697,0.0,0.0,0.0,0.0,0.0,0.0,0.0,0.0,0.0,-0.01313436549141305,-0.050093964288961526,-0.00010094832151165552,0.0,0.0,0.0,0.0,0.0,0.0,0.0,0.0,0.0
5.564,150,5,564000000,base_footprint,-0.0014426217091807131,0.003586597844443079,0.3715787210725169,0.9283934021763722,0.0,0.0,0.0,0.0,0.0,0.0,0.0,0.0,0.0,0.000513125182039188,0.00046531108159042473,0.09055409372606409,0.0,0.0,0.0,0.0,0.0,0.0,0.0,0.0,0.0,-0.030356512319422005,-0.06138518581041565,-0.0006835706148598489,0.0,0.0,0.0,0.0,0.0,0.0,0.0,0.0,0.0
5.598,151,5,598000000,base_footprint,-0.0014487173355842262,0.0035939136686420113,0.37327457596002317,0.9277128197586196,0.0,0.0,0.0,0.0,0.0,0.0,0.0,0.0,0.0,-0.0008380195160109809,0.002636149169480086,0.1047055256042991,0.0,0.0,0.0,0.0,0.0,0.0,0.0,0.0,0.0,-0.02085745372495556,0.027310483757177914,-0.0002077208095436282,0.0,0.0,0.0,0.0,0.0,0.0,0.0,0.0,0.0
5.632,152,5,632000000,base_footprint,-0.0014593461459986776,0.0035879259205977903,0.37437545727113314,0.9272691163246215,0.0,0.0,0.0,0.0,0.0,0.0,0.0,0.0,0.0,0.0010967022749152325,0.000533071843069914,0.0634046363328882,0.0,0.0,0.0,0.0,0.0,0.0,0.0,0.0,0.0,-0.01568780265215102,0.044898716097809425,0.0007921652478984975,0.0,0.0,0.0,0.0,0.0,0.0,0.0,0.0,0.0
5.666,153,5,666000000,base_footprint,-0.0014618370312988094,0.003583332715564276,0.37538257413189574,0.9268618806474109,0.0,0.0,0.0,0.0,0.0,0.0,0.0,0.0,0.0,0.0006527823975273255,0.00024572656187752626,0.06392176260530537,0.0,0.0,0.0,0.0,0.0,0.0,0.0,0.0,0.0,-0.010704134263828106,0.002144571952913129,-0.0006400341972248127,0.0,0.0,0.0,0.0,0.0,0.0,0.0,0.0,0.0
5.7,154,5,700000000,base_footprint,-0.001463038313299325,0.003576163805946659,0.37632920536867664,0.9264779542751719,0.0,0.0,0.0,0.0,0.0,0.0,0.0,0.0,0.0,0.001939870789337818,-0.002431304708963899,0.026593819039745777,0.0,0.0,0.0,0.0,0.0,0.0,0.0,0.0,0.0,-0.009205600511439902,0.009514165633579097,0.0012059933436055351,0.0,0.0,0.0,0.0,0.0,0.0,0.0,0.0,0.0
5.734,155,5,734000000,base_footprint,-0.0014636352321680296,0.0035747974733242663,0.3767328841777031,0.9263138844765748,0.0,0.0,0.0,0.0,0.0,0.0,0.0,0.0,0.0,0.00042995503168225614,0.00022201027677873797,0.025926802530549065,0.0,0.0,0.0,0.0,0.0,0.0,0.0,0.0,0.0,-0.009065346426122431,0.011046220877518852,-0.0010194878917330092,0.0,0.0,0.0,0.0,0.0,0.0,0.0,0.0,0.0
5.768,156,5,768000000,base_footprint,-0.0014639986681204559,0.0035731400907289866,0.3771377618808048,0.9261491229501485,0.0,0.0,0.0,0.0,0.0,0.0,0.0,0.0,0.0,0.00037227905904207634,0.00020884351658750352,0.025535205091417816,0.0,0.0,0.0,0.0,0.0,0.0,0.0,0.0,0.0,-0.005491584678258407,0.005980653394714004,-0.0001327007852332135,0.0,0.0,0.0,0.0,0.0,0.0,0.0,0.0,0.0
5.802,157,5,802000000,base_footprint,-0.0014641116330839535,0.0035727210286881123,0.37742969075326566,0.9260301942050655,0.0,0.0,0.0,0.0,0.0,0.0,0.0,0.0,0.0,-0.00014371690903850403,-0.0002371878850688571,-0.015530161325813776,0.0,0.0,0.0,0.0,0.0,0.0,0.0,0.0,0.0,-0.004136115829115394,0.014939927847153738,-0.0003425020248045027,0.0,0.0,0.0,0.0,0.0,0.0,0.0,0.0,0.0
5.836,158,5,836000000,base_footprint,-0.0014643290620578492,0.003575225592034872,0.37719176968978724,0.9261271199898266,0.0,0.0,0.0,0.0,0.0,0.0,0.0,0.0,0.0,-2.159272036635866e-05,-2.9317894745195256e-05,-0.015048446142247087,0.0,0.0,0.0,0.0,0.0,0.0,0.0,0.0,0.0,0.0036338848477847456,0.006992330495272364,-0.00013315496117569534,0.0,0.0,0.0,0.0,0.0,0.0,0.0,0.0,0.0
5.87,159,5,870000000,base_footprint,-0.00146470763349775,0.0035788858901107078,0.37695072900089055,0.9262252394061777,0.0,0.0,0.0,0.0,0.0,0.0,0.0,0.0,0.0,-0.00014036471624708194,-3.9292948721065835e-05,-0.015531718888872928,0.0,0.0,0.0,0.0,0.0,0.0,0.0,0.0,0.0,0.0036786556560830996,0.00526128088242943,-0.00030646546108300637,0.0,0.0,0.0,0.0,0.0,0.0,0.0,0.0,0.0
5.904,160,5,904000000,base_footprint,-0.0014676115722215583,0.003578493827994003,0.37691482037790625,0.926239849433011,0.0,0.0,0.0,0.0,0.0,0.0,0.0,0.0,0.0,0.00010773116061757286,-0.0018783689646114713,0.06168315036993129,0.0,0.0,0.0,0.0,0.0,0.0,0.0,0.0,0.0,0.0035316423339992733,-0.01501032343652958,-0.0009337833138558048,0.0,0.0,0.0,0.0,0.0,0.0,0.0,0.0,0.0
5.938,161,5,938000000,base_footprint,-0.0014719737126925498,0.003585146743662054,0.3778300967099126,0.9258668360171421,0.0,0.0,0.0,0.0,0.0,0.0,0.0,0.0,0.0,0.000251127344750277,0.0002749965576468122,0.05681800360911656,0.0,0.0,0.0,0.0,0.0,0.0,0.0,0.0,0.0,-0.013579136602655001,0.0015511809340183176,0.0007636420268976728,0.0,0.0,0.0,0.0,0.0,0.0,0.0,0.0,0.0
5.972,162,5,972000000,base_footprint,-0.0014772510314472454,0.003584416732196519,0.37871767174065796,0.9255041300812307,0.0,0.0,0.0,0.0,0.0,0.0,0.0,0.0,0.0,0.00045682853479379415,0.00023478279529125186,0.05664410511207617,0.0,0.0,0.0,0.0,0.0,0.0,0.0,0.0,0.0,-0.010125807919833661,0.00044394873177221357,0.0004266725770901621,0.0,0.0,0.0,0.0,0.0,0.0,0.0,0.0,0.0
6.006,163,6,6000000,base_footprint,-0.0014749422347816513,0.0035751215036238446,0.37954113908411147,0.9251667778267731,0.0,0.0,0.0,0.0,0.0,0.0,0.0,0.0,0.0,0.0023603136392223176,0.0010302755442529105,0.03559909203168023,0.0,0.0,0.0,0.0,0.0,0.0,0.0,0.0,0.0,-0.011219921168916302,0.0030671962305599478,0.0033232969119608275,0.0,0.0,0.0,0.0,0.0,0.0,0.0,0.0,0.0
6.04,164,6,40000000,base_footprint,-0.0014729861873890768,0.0035754155947855053,0.37973697853219734,0.9250864142609889,0.0,0.0,0.0,0.0,0.0,0.0,0.0,0.0,0.0,-0.0004683190559903319,0.0002652415035920648,0.011504999696629907,0.0,0.0,0.0,0.0,0.0,0.0,0.0,0.0,0.0,-0.0117773435710858,-0.05784646228566,-0.003814475964944253,0.0,0.0,0.0,0.0,0.0,0.0,0.0,0.0,0.0
6.074,165,6,74000000,base_footprint,-0.0014789216467608309,0.0035796696981445727,0.3801885433995471,0.9249008975146179,0.0,0.0,0.0,0.0,0.0,0.0,0.0,0.0,0.0,-0.00018191198572734847,-0.00017933073351360896,0.023449612546484727,0.0,0.0,0.0,0.0,0.0,0.0,0.0,0.0,0.0,-0.0035237457203318,0.005706928351329707,-0.00029897072316046285,0.0,0.0,0.0,0.0,0.0,0.0,0.0,0.0,0.0
6.108,166,6,108000000,base_footprint,-0.0014827168111875824,0.0035778573171603312,0.3803180760382088,0.9248476423316823,0.0,0.0,0.0,0.0,0.0,0.0,0.0,0.0,0.0,-0.0007616458073821968,0.00023645111470154046,-0.009524271910440744,0.0,0.0,0.0,0.0,0.0,0.0,0.0,0.0,0.0,-0.0015788721523645292,0.029230243215484758,0.00022024675615129702,0.0,0.0,0.0,0.0,0.0,0.0,0.0,0.0,0.0
6.142,167,6,142000000,base_footprint,-0.0014800322387975124,0.003575396929015029,0.38021175854540884,0.9248913691375761,0.0,0.0,0.0,0.0,0.0,0.0,0.0,0.0,0.0,0.0003142473930618976,-0.0001428526558229373,-0.006377918711814008,0.0,0.0,0.0,0.0,0.0,0.0,0.0,0.0,0.0,0.0016535826635626022,-0.000526322461511518,0.0014230049826255014,0.0,0.0,0.0,0.0,0.0,0.0,0.0,0.0,0.0
6.176,168,6,176000000,base_footprint,-0.0014785277076450455,0.003572085254437559,0.3801117245503554,0.9249325007924133,0.0,0.0,0.0,0.0,0.0,0.0,0.0,0.0,0.0,0.0003737349622575945,6.96781215960002e-05,-0.006456983509361702,0.0,0.0,0.0,0.0,0.0,0.0,0.0,0.0,0.0,0.001652858466473181,0.004734035463701904,0.00025388182275175243,0.0,0.0,0.0,0.0,0.0,0.0,0.0,0.0,0.0
6.21,169,6,210000000,base_footprint,-0.0014732008897874634,0.00356735579972711,0.37995249673836123,0.9249979480377358,0.0,0.0,0.0,0.0,0.0,0.0,0.0,0.0,0.0,0.0043678245913184,-0.0008348967871126118,-0.027881525932516867,0.0,0.0,0.0,0.0,0.0,0.0,0.0,0.0,0.0,0.0004922337173262209,-0.33107855181993895,0.00641218385604844,0.0,0.0,0.0,0.0,0.0,0.0,0.0,0.0,0.0
6.244,170,6,244000000,base_footprint,-0.0014727479257567102,0.003569825028885966,0.37948652070484223,0.925189206576765,0.0,0.0,0.0,0.0,0.0,0.0,0.0,0.0,0.0,2.7333718741772324e-05,-9.113384966387921e-05,-0.029950468024860778,0.0,0.0,0.0,0.0,0.0,0.0,0.0,0.0,0.0,0.003798696437386227,0.007437534604589702,-0.005066235726344586,0.0,0.0,0.0,0.0,0.0,0.0,0.0,0.0,0.0
6.2780000000000005,171,6,278000000,base_footprint,-0.0014705880016935464,0.0035709237781457303,0.3790113691180289,0.9253839570435491,0.0,0.0,0.0,0.0,0.0,0.0,0.0,0.0,0.0,-1.3304072737367263e-05,-0.00010493907632888608,-0.030414507741351522,0.0,0.0,0.0,0.0,0.0,0.0,0.0,0.0,0.0,0.006414546068128922,0.0054101953522680025,-0.00017900374930741801,0.0,0.0,0.0,0.0,0.0,0.0,0.0,0.0,0.0
6.312,172,6,312000000,base_footprint,-0.0014669989020681046,0.003568245143963535,0.3784765085197552,0.9256028565424319,0.0,0.0,0.0,0.0,0.0,0.0,0.0,0.0,0.0,-3.883829737386439e-05,-0.0002109954533309182,-0.043687092525682265,0.0,0.0,0.0,0.0,0.0,0.0,0.0,0.0,0.0,0.013486752615876535,0.36770594612663415,-0.002060127219040209,0.0,0.0,0.0,0.0,0.0,0.0,0.0,0.0,0.0
6.346,173,6,346000000,base_footprint,-0.0014701498868102717,0.0035799241480294268,0.37817682542975795,0.925725289440812,0.0,0.0,0.0,0.0,0.0,0.0,0.0,0.0,0.0,-0.00026516069245866795,0.0004410461277539532,-0.022201738062972858,0.0,0.0,0.0,0.0,0.0,0.0,0.0,0.0,0.0,0.006099371854222408,-0.020840079012179064,-0.0005128690337132817,0.0,0.0,0.0,0.0,0.0,0.0,0.0,0.0,0.0
6.38,174,6,380000000,base_footprint,-0.0014702214856654671,0.0035824820808068973,0.3778195134258568,0.9258711678984137,0.0,0.0,0.0,0.0,0.0,0.0,0.0,0.0,0.0,-0.00026702271045046143,-0.00013725297210620113,-0.02306382687269409,0.0,0.0,0.0,0.0,0.0,0.0,0.0,0.0,0.0,0.003997934658555546,0.0059778717113431355,-0.0003078110651960856,0.0,0.0,0.0,0.0,0.0,0.0,0.0,0.0,0.0
6.414,175,6,414000000,base_footprint,-0.0014705356040080931,0.003585594677879891,0.37763526232269706,0.9259463211689495,0.0,0.0,0.0,0.0,0.0,0.0,0.0,0.0,0.0,-1.157199880973536e-05,0.0002275547911889379,-0.002418180203531803,0.0,0.0,0.0,0.0,0.0,0.0,0.0,0.0,0.0,0.004005556708209091,-0.006209827823882388,0.0002775608517605592,0.0,0.0,0.0,0.0,0.0,0.0,0.0,0.0,0.0
6.447,176,6,448000000,base_footprint,-0.0014713414383821755,0.003586684587123862,0.37759857840804517,0.925961275881593,0.0,0.0,0.0,0.0,0.0,0.0,0.0,0.0,0.0,9.63601782925249e-05,-4.988183207615818e-05,-0.0027070124911170446,0.0,0.0,0.0,0.0,0.0,0.0,0.0,0.0,0.0,0.0005167944504416129,-0.007627259519619104,0.00020143994804223134,0.0,0.0,0.0,0.0,0.0,0.0,0.0,0.0,0.0
6.482,177,6,482000000,base_footprint,-0.001471170249797199,0.003582040622072372,0.3775181744611597,0.9259940780558974,0.0,0.0,0.0,0.0,0.0,0.0,0.0,0.0,0.0,0.0005597776820082162,-0.00033618894535649313,-0.010659047576130258,0.0,0.0,0.0,0.0,0.0,0.0,0.0,0.0,0.0,0.0010367305531640402,-0.025553103751442124,0.001112579963923,0.0,0.0,0.0,0.0,0.0,0.0,0.0,0.0,0.0
6.516,178,6,516000000,base_footprint,-0.0014686577930053066,0.003579348749389788,0.3772738812694874,0.9260936506739877,0.0,0.0,0.0,0.0,0.0,0.0,0.0,0.0,0.0,0.0004101418723775064,0.0004742382619620679,-0.0035789301288414533,0.0,0.0,0.0,0.0,0.0,0.0,0.0,0.0,0.0,-0.0042996967485484025,-0.049314735881053125,-0.0012353691547936391,0.0,0.0,0.0,0.0,0.0,0.0,0.0,0.0,0.0
6.55,179,6,550000000,base_footprint,-0.0014691756799484414,0.003582908545175953,0.3773115677532495,0.9260782823977481,0.0,0.0,0.0,0.0,0.0,0.0,0.0,0.0,0.0,0.0011350393948984837,-0.00016533976936909304,-0.016223544297672147,0.0,0.0,0.0,0.0,0.0,0.0,0.0,0.0,0.0,-0.004427941479316341,-0.23885129603660693,0.0034642594161682647,0.0,0.0,0.0,0.0,0.0,0.0,0.0,0.0,0.0
6.584,180,6,584000000,base_footprint,-0.0014703841474157443,0.0035840427725434966,0.3771652061310058,0.9261378946420559,0.0,0.0,0.0,0.0,0.0,0.0,0.0,0.0,0.0,0.00047950062592917107,0.00016919373884184628,-0.009394221787796083,0.0,0.0,0.0,0.0,0.0,0.0,0.0,0.0,0.0,9.399909766295497e-05,-0.05348625751284663,-0.00043454723711476735,0.0,0.0,0.0,0.0,0.0,0.0,0.0,0.0,0.0
6.618,181,6,618000000,base_footprint,-0.0014595249509537446,0.0035660376892876528,0.37710215018958676,0.9261636580456537,0.0,0.0,0.0,0.0,0.0,0.0,0.0,0.0,0.0,2.824232599312652e-05,8.465426653970989e-05,0.004316406332181646,0.0,0.0,0.0,0.0,0.0,0.0,0.0,0.0,0.0,0.010458455421515564,0.2939040104500048,-0.0022502596244979717,0.0,0.0,0.0,0.0,0.0,0.0,0.0,0.0,0.0
6.652,182,6,652000000,base_footprint,-0.001466634135167768,0.003578009530363569,0.3769233442223742,0.9262363841980814,0.0,0.0,0.0,0.0,0.0,0.0,0.0,0.0,0.0,0.0011770125399706078,-1.2479117253472963e-05,-0.022345776798049992,0.0,0.0,0.0,0.0,0.0,0.0,0.0,0.0,0.0,0.003466139210051414,0.05737685589738596,0.0014653698294959626,0.0,0.0,0.0,0.0,0.0,0.0,0.0,0.0,0.0
6.686,183,6,686000000,base_footprint,-0.0014626199927211265,0.0035752415133370272,0.3765710208395411,0.9263796978856694,0.0,0.0,0.0,0.0,0.0,0.0,0.0,0.0,0.0,0.00019299250389761736,-3.825577659792336e-05,-0.022570879510601917,0.0,0.0,0.0,0.0,0.0,0.0,0.0,0.0,0.0,0.005348301852641531,0.00406576796285124,-0.0013786335318920443,0.0,0.0,0.0,0.0,0.0,0.0,0.0,0.0,0.0
6.72,184,6,720000000,base_footprint,-0.0014611655463722228,0.0035742933987223174,0.3765055114364339,0.9264063305482835,0.0,0.0,0.0,0.0,0.0,0.0,0.0,0.0,0.0,0.0002334271229013585,7.949142052560459e-05,0.0032440761465574127,0.0,0.0,0.0,0.0,0.0,0.0,0.0,0.0,0.0,0.0010807046752910692,-0.0012238820825139869,-0.0001981226607240934,0.0,0.0,0.0,0.0,0.0,0.0,0.0,0.0,0.0
6.754,185,6,754000000,base_footprint,-0.0014611261810801729,0.0035747391913725055,0.3765524092300297,0.9263872675361299,0.0,0.0,0.0,0.0,0.0,0.0,0.0,0.0,0.0,0.00015674307296314127,7.290082492993205e-05,0.0027723182118587725,0.0,0.0,0.0,0.0,0.0,0.0,0.0,0.0,0.0,-0.0003099826012297707,0.005815265726676948,-0.00017977115375258487,0.0,0.0,0.0,0.0,0.0,0.0,0.0,0.0,0.0
6.787,186,6,788000000,base_footprint,-0.0014618302270591468,0.0035765273897279504,0.3765921190363756,0.9263711175246723,0.0,0.0,0.0,0.0,0.0,0.0,0.0,0.0,0.0,6.19816920200431e-05,6.301929754667737e-05,0.002311542571352329,0.0,0.0,0.0,0.0,0.0,0.0,0.0,0.0,0.0,-0.0002842076731359698,0.005672159423613832,-0.0002295385238532415,0.0,0.0,0.0,0.0,0.0,0.0,0.0,0.0,0.0
6.822,187,6,822000000,base_footprint,-0.00146343688394274,0.003579959363722581,0.3766372369541741,0.9263527589331,0.0,0.0,0.0,0.0,0.0,0.0,0.0,0.0,0.0,-5.462573115319342e-05,5.997425467873257e-05,0.002871374459990587,0.0,0.0,0.0,0.0,0.0,0.0,0.0,0.0,0.0,-0.00021005755623588942,0.009200715130773186,-0.0003149715813935581,0.0,0.0,0.0,0.0,0.0,0.0,0.0,0.0,0.0
6.856,188,6,856000000,base_footprint,-0.0014656985255148698,0.003584399196378461,0.37671127512585734,0.9263226322417498,0.0,0.0,0.0,0.0,0.0,0.0,0.0,0.0,0.0,0.0010227809720108872,-0.00019362942876369665,-0.0003977739904408248,0.0,0.0,0.0,0.0,0.0,0.0,0.0,0.0,0.0,-0.011155471216998947,-0.3576539466827112,0.003212071576390669,0.0,0.0,0.0,0.0,0.0,0.0,0.0,0.0,0.0
6.89,189,6,890000000,base_footprint,-0.0014667580274898234,0.0035868617162003232,0.3766898453690227,0.9263313356676321,0.0,0.0,0.0,0.0,0.0,0.0,0.0,0.0,0.0,-1.5937402161892045e-05,-1.0216467173859105e-05,-0.0019387086909351031,0.0,0.0,0.0,0.0,0.0,0.0,0.0,0.0,0.0,0.0024939848179285707,0.01673174241878559,-0.0014460075383518555,0.0,0.0,0.0,0.0,0.0,0.0,0.0,0.0,0.0
6.924,190,6,924000000,base_footprint,-0.0014615696199371713,0.0035789902942758942,0.37635687436493975,0.9264667062344834,0.0,0.0,0.0,0.0,0.0,0.0,0.0,0.0,0.0,1.4907615171850361e-05,-0.00019428813446424855,-0.044051377383524395,0.0,0.0,0.0,0.0,0.0,0.0,0.0,0.0,0.0,0.01029721844229034,0.239916737920581,-0.0007226164705747935,0.0,0.0,0.0,0.0,0.0,0.0,0.0,0.0,0.0
6.958,191,6,958000000,base_footprint,-0.001465660992950093,0.003580953587445924,0.3756604861268482,0.9267492798876071,0.0,0.0,0.0,0.0,0.0,0.0,0.0,0.0,0.0,0.000286955164247985,-0.0005935938000590341,-0.04593072361954363,0.0,0.0,0.0,0.0,0.0,0.0,0.0,0.0,0.0,0.012240000812427048,0.016334119365709013,0.0002690064625126078,0.0,0.0,0.0,0.0,0.0,0.0,0.0,0.0,0.0
6.992,192,6,992000000,base_footprint,-0.0014597322171829032,0.0035814706909871492,0.3749140466927099,0.927051508731872,0.0,0.0,0.0,0.0,0.0,0.0,0.0,0.0,0.0,-1.518725949861639e-05,-0.00095013464404998,-0.033885223590084425,0.0,0.0,0.0,0.0,0.0,0.0,0.0,0.0,0.0,0.0017040183817788948,-0.04545167459274212,0.0005088319215743844,0.0,0.0,0.0,0.0,0.0,0.0,0.0,0.0,0.0
7.026,193,7,26000000,base_footprint,-0.0014644701639108888,0.003583185263402967,0.3749002025047977,0.9270570933186203,0.0,0.0,0.0,0.0,0.0,0.0,0.0,0.0,0.0,-0.001129529863176357,0.0004074319698968514,0.021117734819961955,0.0,0.0,0.0,0.0,0.0,0.0,0.0,0.0,0.0,0.010122330785987087,0.05894761389379126,-0.003421606294172986,0.0,0.0,0.0,0.0,0.0,0.0,0.0,0.0,0.0
7.06,194,7,60000000,base_footprint,-0.0014627585700684137,0.003586314075069041,0.37536508062177704,0.9268689524083368,0.0,0.0,0.0,0.0,0.0,0.0,0.0,0.0,0.0,0.000341780627939383,8.045878115901502e-05,0.031041431631111296,0.0,0.0,0.0,0.0,0.0,0.0,0.0,0.0,0.0,-0.008287123441896764,0.024212576655329592,0.002061964447169994,0.0,0.0,0.0,0.0,0.0,0.0,0.0,0.0,0.0
7.094,195,7,94000000,base_footprint,-0.0014635713986061137,0.003582134802398103,0.3758578232287048,0.926669262998832,0.0,0.0,0.0,0.0,0.0,0.0,0.0,0.0,0.0,0.0005314053064553776,5.054663387827783e-05,0.03154326693176262,0.0,0.0,0.0,0.0,0.0,0.0,0.0,0.0,0.0,-0.0075722654547199925,0.002804591876528333,0.00044481069619695996,0.0,0.0,0.0,0.0,0.0,0.0,0.0,0.0,0.0
7.128,196,7,128000000,base_footprint,-0.0014623720107395603,0.0035786912652928824,0.37588017378137356,0.9266602124808286,0.0,0.0,0.0,0.0,0.0,0.0,0.0,0.0,0.0,0.00045632515367355304,9.762067682827332e-05,-0.0003282993653485429,0.0,0.0,0.0,0.0,0.0,0.0,0.0,0.0,0.0,4.378351239213256e-05,0.013168360974857223,0.0002780987185018835,0.0,0.0,0.0,0.0,0.0,0.0,0.0,0.0,0.0
7.162,197,7,162000000,base_footprint,-0.0014600856451782711,0.003576133544020324,0.3758717790451297,0.9266636310637391,0.0,0.0,0.0,0.0,0.0,0.0,0.0,0.0,0.0,0.0003046722017040138,7.92926433562305e-05,-0.0007107928378065781,0.0,0.0,0.0,0.0,0.0,0.0,0.0,0.0,0.0,7.587869592962375e-05,0.005544090418980931,-0.00029438200228924116,0.0,0.0,0.0,0.0,0.0,0.0,0.0,0.0,0.0
7.196,198,7,196000000,base_footprint,-0.0014602315082230483,0.003578074140402181,0.37585689670088396,0.9266696597557132,0.0,0.0,0.0,0.0,0.0,0.0,0.0,0.0,0.0,-0.005920209666569927,-0.00016295127674271245,-0.0011165975198583922,0.0,0.0,0.0,0.0,0.0,0.0,0.0,0.0,0.0,-0.0005317822357203145,-0.028768761235074762,-0.005231730739532699,0.0,0.0,0.0,0.0,0.0,0.0,0.0,0.0,0.0
7.23,199,7,230000000,base_footprint,-0.0014582502662872508,0.0035749496383706875,0.3758797401987395,0.9266604092920838,0.0,0.0,0.0,0.0,0.0,0.0,0.0,0.0,0.0,0.001217858366414582,2.7266257258784336e-06,0.007572004312006405,0.0,0.0,0.0,0.0,0.0,0.0,0.0,0.0,0.0,-0.0186216370123517,-0.6601276631853041,0.010048975654643312,0.0,0.0,0.0,0.0,0.0,0.0,0.0,0.0,0.0
7.264,200,7,264000000,base_footprint,-0.0014595505800311503,0.0035769561627387405,0.3760097331050598,0.9266076600735481,0.0,0.0,0.0,0.0,0.0,0.0,0.0,0.0,0.0,0.00012022737630328,9.801075849544476e-05,0.007983964715548493,0.0,0.0,0.0,0.0,0.0,0.0,0.0,0.0,0.0,-0.001901178499717806,0.021442145078835982,-0.0015745509280712046,0.0,0.0,0.0,0.0,0.0,0.0,0.0,0.0,0.0
7.298,201,7,298000000,base_footprint,-0.0014596443132162402,0.003575890021040958,0.3761288969759147,0.9265592994022122,0.0,0.0,0.0,0.0,0.0,0.0,0.0,0.0,0.0,0.0016912283437793857,-0.0001681092294498896,0.00434826206316007,0.0,0.0,0.0,0.0,0.0,0.0,0.0,0.0,0.0,0.0018766581145678238,0.06401706704310045,0.002907496408288589,0.0,0.0,0.0,0.0,0.0,0.0,0.0,0.0,0.0
7.332,202,7,332000000,base_footprint,-0.0014607900282690683,0.003578052086185339,0.3759786328738625,0.9266202734982995,0.0,0.0,0.0,0.0,0.0,0.0,0.0,0.0,0.0,-0.000538142437327418,0.00031104665629549976,0.0023483017846676734,0.0,0.0,0.0,0.0,0.0,0.0,0.0,0.0,0.0,0.014852303832510738,0.5527526831818376,-0.006564221829252897,0.0,0.0,0.0,0.0,0.0,0.0,0.0,0.0,0.0
7.366,203,7,366000000,base_footprint,-0.001465874197214069,0.0035867252732124746,0.376429364658895,0.9264372186161096,0.0,0.0,0.0,0.0,0.0,0.0,0.0,0.0,0.0,0.0001123606063779221,0.00016505210728974166,0.03093048353666441,0.0,0.0,0.0,0.0,0.0,0.0,0.0,0.0,0.0,-0.0001794676006351692,0.0708732476576604,-0.0007187691089411215,0.0,0.0,0.0,0.0,0.0,0.0,0.0,0.0,0.0
7.4,204,7,400000000,base_footprint,-0.0014700088834882494,0.0035864826937198847,0.37688594618161636,0.9262515639860254,0.0,0.0,0.0,0.0,0.0,0.0,0.0,0.0,0.0,0.0005581424465771602,0.0015364230259086974,0.010742828108414497,0.0,0.0,0.0,0.0,0.0,0.0,0.0,0.0,0.0,-0.00567077744734386,0.0064844235062562665,0.0018181944249310435,0.0,0.0,0.0,0.0,0.0,0.0,0.0,0.0,0.0
7.434,205,7,434000000,base_footprint,-0.0014688350725121193,0.0035844377659772137,0.37675271172143526,0.9263057748605354,0.0,0.0,0.0,0.0,0.0,0.0,0.0,0.0,0.0,0.0008924290574917533,-0.00044723845321659455,-0.010096762570308775,0.0,0.0,0.0,0.0,0.0,0.0,0.0,0.0,0.0,-0.0007585454747429856,-0.03792921913840236,0.00026461727078343515,0.0,0.0,0.0,0.0,0.0,0.0,0.0,0.0,0.0
7.468,206,7,468000000,base_footprint,-0.0014641266261031802,0.0035811272638238347,0.37642757182643277,0.9264379714959867,0.0,0.0,0.0,0.0,0.0,0.0,0.0,0.0,0.0,0.00013080470573670236,-0.00012742781373794413,-0.018695745819615896,0.0,0.0,0.0,0.0,0.0,0.0,0.0,0.0,0.0,-0.004117603969663208,-0.04866862821864205,-3.7365999174975104e-05,0.0,0.0,0.0,0.0,0.0,0.0,0.0,0.0,0.0
7.502,207,7,502000000,base_footprint,-0.0014696060077556813,0.0035934907693670657,0.37648230824288625,0.9264156727206102,0.0,0.0,0.0,0.0,0.0,0.0,0.0,0.0,0.0,0.00721405670311762,-0.0008673749100239938,0.005584109772635153,0.0,0.0,0.0,0.0,0.0,0.0,0.0,0.0,0.0,-0.007149493068513625,-0.05185260432423502,0.009968067484141563,0.0,0.0,0.0,0.0,0.0,0.0,0.0,0.0,0.0
7.536,208,7,536000000,base_footprint,-0.0014624385771109568,0.0035792529818112376,0.37655063625890145,0.9263879687012979,0.0,0.0,0.0,0.0,0.0,0.0,0.0,0.0,0.0,0.0008083789485396813,-0.0012222982451603644,0.00682951640155143,0.0,0.0,0.0,0.0,0.0,0.0,0.0,0.0,0.0,0.0049155690432322735,-0.2752653555311992,-0.009088826732767182,0.0,0.0,0.0,0.0,0.0,0.0,0.0,0.0,0.0
7.57,209,7,570000000,base_footprint,-0.0014666850962173567,0.003582486352477555,0.37657108488954627,0.926379637433527,0.0,0.0,0.0,0.0,0.0,0.0,0.0,0.0,0.0,0.000301376520781586,-0.00011449395271450804,0.0015517646400747646,0.0,0.0,0.0,0.0,0.0,0.0,0.0,0.0,0.0,-0.0015729184942235089,0.03539999154673089,4.180452732881102e-05,0.0,0.0,0.0,0.0,0.0,0.0,0.0,0.0,0.0
7.604,210,7,604000000,base_footprint,-0.00145756176296958,0.0035662012958527977,0.3766100154569696,0.9263638885338341,0.0,0.0,0.0,0.0,0.0,0.0,0.0,0.0,0.0,-0.001776013871395314,-0.0010119498006021784,0.007907187527586351,0.0,0.0,0.0,0.0,0.0,0.0,0.0,0.0,0.0,0.0055575860984375045,0.14228801410291278,-0.003922092786520513,0.0,0.0,0.0,0.0,0.0,0.0,0.0,0.0,0.0
7.638,211,7,638000000,base_footprint,-0.0014667335311224139,0.003573874420364421,0.3774932098592665,0.9260042940637608,0.0,0.0,0.0,0.0,0.0,0.0,0.0,0.0,0.0,0.00035613549006964366,0.0004642842139896518,0.07264616106119352,0.0,0.0,0.0,0.0,0.0,0.0,0.0,0.0,0.0,-0.009523618377892111,0.1882014219660578,0.0019300888321847677,0.0,0.0,0.0,0.0,0.0,0.0,0.0,0.0,0.0
7.672,212,7,672000000,base_footprint,-0.0014696517822852019,0.003570869122728791,0.3786328816684551,0.9255388862369798,0.0,0.0,0.0,0.0,0.0,0.0,0.0,0.0,0.0,0.000648443864095464,0.0004732994920325106,0.07225159801038156,0.0,0.0,0.0,0.0,0.0,0.0,0.0,0.0,0.0,-0.015889849365298872,0.006350217350806596,0.0003388573668459498,0.0,0.0,0.0,0.0,0.0,0.0,0.0,0.0,0.0
7.706,213,7,706000000,base_footprint,-0.001476721063107953,0.0035748352998491544,0.37977442673319184,0.9250710376219528,0.0,0.0,0.0,0.0,0.0,0.0,0.0,0.0,0.0,0.004455919010216004,0.0002726030327575709,0.07508989454668538,0.0,0.0,0.0,0.0,0.0,0.0,0.0,0.0,0.0,-0.020431019594342417,-0.30699300038061805,0.004058112309238973,0.0,0.0,0.0,0.0,0.0,0.0,0.0,0.0,0.0
7.74,214,7,740000000,base_footprint,-0.0014772096067981126,0.003565990389894491,0.3809367813639889,0.924593029482897,0.0,0.0,0.0,0.0,0.0,0.0,0.0,0.0,0.0,-0.00040288261606379706,0.00013763346696160162,0.0659371567207724,0.0,0.0,0.0,0.0,0.0,0.0,0.0,0.0,0.0,-0.017797540261746653,-0.3719369089945948,-3.6049290869956396e-05,0.0,0.0,0.0,0.0,0.0,0.0,0.0,0.0,0.0
7.774,215,7,774000000,base_footprint,-0.0014824740547202107,0.0035691639976218794,0.38195431185849266,0.9241731260925847,0.0,0.0,0.0,0.0,0.0,0.0,0.0,0.0,0.0,0.00036914559141865524,0.000424065923084359,0.06453866612908885,0.0,0.0,0.0,0.0,0.0,0.0,0.0,0.0,0.0,-0.012278173295888914,0.015321824819695597,-0.0006143564522914436,0.0,0.0,0.0,0.0,0.0,0.0,0.0,0.0,0.0
7.808,216,7,808000000,base_footprint,-0.0014859364335313967,0.0035634966102593567,0.3828969078593809,0.9237830110131648,0.0,0.0,0.0,0.0,0.0,0.0,0.0,0.0,0.0,0.00036593226609555463,-0.0002210934058014164,0.038812724427066056,0.0,0.0,0.0,0.0,0.0,0.0,0.0,0.0,0.0,-0.011886040718833299,0.23527045132442323,-0.0006045874652792283,0.0,0.0,0.0,0.0,0.0,0.0,0.0,0.0,0.0
7.8420000000000005,217,7,842000000,base_footprint,-0.0014894530624452015,0.003575599477005078,0.38283581889263846,0.923808276857681,0.0,0.0,0.0,0.0,0.0,0.0,0.0,0.0,0.0,-4.8993999258386685e-05,-3.613522192466851e-05,-0.010571343993258316,0.0,0.0,0.0,0.0,0.0,0.0,0.0,0.0,0.0,0.0007974184503533946,0.13126814479844448,-0.0016644227545652215,0.0,0.0,0.0,0.0,0.0,0.0,0.0,0.0,0.0
7.876,218,7,876000000,base_footprint,-0.0014897792736013364,0.0035779527725581144,0.38265925613329627,0.9238814169075953,0.0,0.0,0.0,0.0,0.0,0.0,0.0,0.0,0.0,-6.977233692731954e-05,-8.07251592947411e-05,-0.01189200296880474,0.0,0.0,0.0,0.0,0.0,0.0,0.0,0.0,0.0,0.002679866920878663,-0.0020433320771230416,-1.9850024676961143e-05,0.0,0.0,0.0,0.0,0.0,0.0,0.0,0.0,0.0
7.91,219,7,910000000,base_footprint,-0.0014785695910300113,0.00356248125092089,0.3825632349513205,0.9239212595361589,0.0,0.0,0.0,0.0,0.0,0.0,0.0,0.0,0.0,0.001361943191182085,0.002458423742824599,0.01390208480999802,0.0,0.0,0.0,0.0,0.0,0.0,0.0,0.0,0.0,-0.004248616155188685,-0.14079672772307258,0.004760195530742619,0.0,0.0,0.0,0.0,0.0,0.0,0.0,0.0,0.0
7.944,220,7,944000000,base_footprint,-0.0014884227991088985,0.0035668424693447213,0.38297732039368126,0.9237496599709499,0.0,0.0,0.0,0.0,0.0,0.0,0.0,0.0,0.0,0.0007600589523650269,-0.0014690888698170176,0.012074736466925395,0.0,0.0,0.0,0.0,0.0,0.0,0.0,0.0,0.0,0.0006413536328838468,-0.10143090001011695,0.00019694944302576988,0.0,0.0,0.0,0.0,0.0,0.0,0.0,0.0,0.0
7.978,221,7,978000000,base_footprint,-0.0014863898490195101,0.0035585066060682606,0.38323152750367356,0.9236442626916234,0.0,0.0,0.0,0.0,0.0,0.0,0.0,0.0,0.0,5.661408001706223e-05,0.000947363130129342,0.03730120629426796,0.0,0.0,0.0,0.0,0.0,0.0,0.0,0.0,0.0,-0.01588932964324956,0.018016384196698727,-0.0026476256055398403,0.0,0.0,0.0,0.0,0.0,0.0,0.0,0.0,0.0
8.011,222,8,12000000,base_footprint,-0.0014822229741269072,0.0035537292535662074,0.38422047121753006,0.9232333418593732,0.0,0.0,0.0,0.0,0.0,0.0,0.0,0.0,0.0,0.0003654132839310821,0.00038471379821814313,0.08630989770058771,0.0,0.0,0.0,0.0,0.0,0.0,0.0,0.0,0.0,-0.00373767894401672,0.14227681384855864,-0.0015415862854974503,0.0,0.0,0.0,0.0,0.0,0.0,0.0,0.0,0.0
8.046,223,8,46000000,base_footprint,-0.0014865554121429496,0.003562053526633208,0.3856528657133009,0.9226358811008809,0.0,0.0,0.0,0.0,0.0,0.0,0.0,0.0,0.0,4.479266593526814e-05,0.00046971143082214314,0.06754221265701203,0.0,0.0,0.0,0.0,0.0,0.0,0.0,0.0,0.0,-0.02194996250858003,0.21748394205480112,-0.001286893000124392,0.0,0.0,0.0,0.0,0.0,0.0,0.0,0.0,0.0
8.08,224,8,80000000,base_footprint,-0.00149941380332844,0.0035658055454428107,0.3860576151687905,0.922466560130634,0.0,0.0,0.0,0.0,0.0,0.0,0.0,0.0,0.0,0.0009729940856716441,-7.462822201128433e-05,0.004796402542792733,0.0,0.0,0.0,0.0,0.0,0.0,0.0,0.0,0.0,-0.009803403844283201,0.17072511564055753,0.0007126893633559475,0.0,0.0,0.0,0.0,0.0,0.0,0.0,0.0,0.0
8.114,225,8,114000000,base_footprint,-0.0014983082152000024,0.0035634497790978017,0.3858681999764945,0.922545819536929,0.0,0.0,0.0,0.0,0.0,0.0,0.0,0.0,0.0,0.0003061190237318175,-0.0002723687245668414,-0.027548251335553543,0.0,0.0,0.0,0.0,0.0,0.0,0.0,0.0,0.0,0.004160580348037533,0.011354829365580674,-0.0008284425141469391,0.0,0.0,0.0,0.0,0.0,0.0,0.0,0.0,0.0
8.148,226,8,148000000,base_footprint,-0.001494567871115858,0.003561981119646493,0.3854344900887144,0.9227271169784894,0.0,0.0,0.0,0.0,0.0,0.0,0.0,0.0,0.0,0.0001430662057300302,-5.7117422018455963e-05,-0.027928066453751742,0.0,0.0,0.0,0.0,0.0,0.0,0.0,0.0,0.0,0.006866706493058265,0.005113188767160748,8.139991151348523e-06,0.0,0.0,0.0,0.0,0.0,0.0,0.0,0.0,0.0
8.182,227,8,182000000,base_footprint,-0.0014917901946991682,0.003561976211394674,0.3849906701860427,0.9229123852008848,0.0,0.0,0.0,0.0,0.0,0.0,0.0,0.0,0.0,5.625005447060745e-05,-8.487293816125189e-05,-0.02858392082775065,0.0,0.0,0.0,0.0,0.0,0.0,0.0,0.0,0.0,0.0062010089698171815,0.005905959712448158,-0.0002364895598222061,0.0,0.0,0.0,0.0,0.0,0.0,0.0,0.0,0.0
8.216,228,8,216000000,base_footprint,-0.0014922464019411117,0.0035617889737288035,0.3851988126925555,0.9228255314848133,0.0,0.0,0.0,0.0,0.0,0.0,0.0,0.0,0.0,0.0006063865772746058,0.000330787843464996,0.04644374594805845,0.0,0.0,0.0,0.0,0.0,0.0,0.0,0.0,0.0,-0.001291672232170333,-0.014212844344886757,0.00020077092025369136,0.0,0.0,0.0,0.0,0.0,0.0,0.0,0.0,0.0
8.25,229,8,250000000,base_footprint,-0.0014958481591857218,0.003562816238765824,0.3859187888152863,0.9225246648291175,0.0,0.0,0.0,0.0,0.0,0.0,0.0,0.0,0.0,0.00027745098634800473,0.0003025877682630632,0.045627039312470745,0.0,0.0,0.0,0.0,0.0,0.0,0.0,0.0,0.0,-0.010607165622381266,0.00564657512668899,-0.0004774428071393288,0.0,0.0,0.0,0.0,0.0,0.0,0.0,0.0,0.0
8.284,230,8,284000000,base_footprint,-0.0015002128924002424,0.003565447905940813,0.3866289124874729,0.9222272610215237,0.0,0.0,0.0,0.0,0.0,0.0,0.0,0.0,0.0,0.00014631395789805896,0.0002944454000521792,0.044991730849713876,0.0,0.0,0.0,0.0,0.0,0.0,0.0,0.0,0.0,-0.009881208107930008,0.004996241980988834,-0.00025682884269810754,0.0,0.0,0.0,0.0,0.0,0.0,0.0,0.0,0.0
8.318,231,8,318000000,base_footprint,-0.001508874942115683,0.003557654828223365,0.38724943882692053,0.921966885802721,0.0,0.0,0.0,0.0,0.0,0.0,0.0,0.0,0.0,0.00013935680610480808,0.0003986058109417395,0.0007120830538493875,0.0,0.0,0.0,0.0,0.0,0.0,0.0,0.0,0.0,-0.0026954328341925876,-0.30881777851143133,0.00023160388533029918,0.0,0.0,0.0,0.0,0.0,0.0,0.0,0.0,0.0
8.352,232,8,352000000,base_footprint,-0.0015092282549801232,0.003568664453184181,0.3875640618712539,0.9218346298604484,0.0,0.0,0.0,0.0,0.0,0.0,0.0,0.0,0.0,-0.0005211748984987042,0.0006810388836198918,0.04299329573083197,0.0,0.0,0.0,0.0,0.0,0.0,0.0,0.0,0.0,-0.0008127535329780482,-0.022759256906232345,0.0002898693017897324,0.0,0.0,0.0,0.0,0.0,0.0,0.0,0.0,0.0
8.386,233,8,386000000,base_footprint,-0.0015125856897552122,0.003568913578082313,0.3882235719599691,0.9215570699175641,0.0,0.0,0.0,0.0,0.0,0.0,0.0,0.0,0.0,0.0003683762620554336,0.00017983288650726925,0.041226197049901055,0.0,0.0,0.0,0.0,0.0,0.0,0.0,0.0,0.0,-0.007896672225486009,-0.008765783543949305,0.0016127505967288435,0.0,0.0,0.0,0.0,0.0,0.0,0.0,0.0,0.0
8.42,234,8,420000000,base_footprint,-0.0015102776902323404,0.0035574752004792773,0.38848199455526883,0.92144820979687,0.0,0.0,0.0,0.0,0.0,0.0,0.0,0.0,0.0,-0.0006777522981446854,0.001427147878584677,-0.01725814271175154,0.0,0.0,0.0,0.0,0.0,0.0,0.0,0.0,0.0,-0.009218276646722631,0.03717802522524033,-0.0016972307462117856,0.0,0.0,0.0,0.0,0.0,0.0,0.0,0.0,0.0
8.454,235,8,454000000,base_footprint,-0.0015081286163552378,0.003549159845594645,0.3882439933964214,0.9215485503238918,0.0,0.0,0.0,0.0,0.0,0.0,0.0,0.0,0.0,-0.0007632486460138517,-0.001055617902009229,0.00632865457630903,0.0,0.0,0.0,0.0,0.0,0.0,0.0,0.0,0.0,-0.007565043165692861,0.017452489515824152,0.0021746698985224354,0.0,0.0,0.0,0.0,0.0,0.0,0.0,0.0,0.0
8.488,236,8,488000000,base_footprint,-0.001497491126922619,0.0035605551224552894,0.38870910581590534,0.9213524358373099,0.0,0.0,0.0,0.0,0.0,0.0,0.0,0.0,0.0,-0.0002988448836611905,0.001319404869701951,0.03781390823646915,0.0,0.0,0.0,0.0,0.0,0.0,0.0,0.0,0.0,0.0008389539526105494,0.10671957417113237,0.0011973995091772984,0.0,0.0,0.0,0.0,0.0,0.0,0.0,0.0,0.0
8.522,237,8,522000000,base_footprint,-0.0015108762634698902,0.003565515256301802,0.388787131699318,0.9213194725929171,0.0,0.0,0.0,0.0,0.0,0.0,0.0,0.0,0.0,4.911915363761319e-05,-0.00012617944513058812,-0.026480607773637664,0.0,0.0,0.0,0.0,0.0,0.0,0.0,0.0,0.0,0.011140912201507314,-0.4263912287080304,0.0003417018485235026,0.0,0.0,0.0,0.0,0.0,0.0,0.0,0.0,0.0
8.556000000000001,238,8,556000000,base_footprint,-0.0015005104065845827,0.003556997145122333,0.3885425674781703,0.9214226877482997,0.0,0.0,0.0,0.0,0.0,0.0,0.0,0.0,0.0,-0.0028287590585676244,-0.0017139314386223434,-0.018650996044115714,0.0,0.0,0.0,0.0,0.0,0.0,0.0,0.0,0.0,0.0004981185970734797,0.22773295791845927,-0.006704285592792278,0.0,0.0,0.0,0.0,0.0,0.0,0.0,0.0,0.0
8.59,239,8,590000000,base_footprint,-0.001507986247598884,0.003560137719285419,0.38809952068662734,0.9216093605425819,0.0,0.0,0.0,0.0,0.0,0.0,0.0,0.0,0.0,0.00011654826512672335,-0.00024653016337526255,-0.028867673939300766,0.0,0.0,0.0,0.0,0.0,0.0,0.0,0.0,0.0,0.0019271245186022745,0.028044356539283687,0.005208439966724364,0.0,0.0,0.0,0.0,0.0,0.0,0.0,0.0,0.0
8.624,240,8,624000000,base_footprint,-0.001505894244512685,0.0035589956472176407,0.38794688830453505,0.9216736286166247,0.0,0.0,0.0,0.0,0.0,0.0,0.0,0.0,0.0,0.000833569199428962,0.0001962666111030445,0.01860749924957523,0.0,0.0,0.0,0.0,0.0,0.0,0.0,0.0,0.0,-0.004882884554863964,0.33587949512141985,-0.0009322264151028598,0.0,0.0,0.0,0.0,0.0,0.0,0.0,0.0,0.0
8.658,241,8,658000000,base_footprint,-0.001504952616058025,0.0035562993979837703,0.3882347004610189,0.9215524430059086,0.0,0.0,0.0,0.0,0.0,0.0,0.0,0.0,0.0,0.0003278549556652348,0.00018432114158263018,0.01811536159375548,0.0,0.0,0.0,0.0,0.0,0.0,0.0,0.0,0.0,-0.0045739828107928295,0.0029222013602384867,-0.000815655763125837,0.0,0.0,0.0,0.0,0.0,0.0,0.0,0.0,0.0
8.692,242,8,692000000,base_footprint,-0.0015056571345672533,0.0035562160940663984,0.3885135606601387,0.9214349133318458,0.0,0.0,0.0,0.0,0.0,0.0,0.0,0.0,0.0,0.00024003688577918967,0.00016572099611564007,0.01755325824281619,0.0,0.0,0.0,0.0,0.0,0.0,0.0,0.0,0.0,-0.004000866881642156,0.005714979661693584,-0.00018472684027016608,0.0,0.0,0.0,0.0,0.0,0.0,0.0,0.0,0.0
8.726,243,8,726000000,base_footprint,-0.0015051728660143368,0.003558582849643534,0.3882395000504729,0.9215504118295995,0.0,0.0,0.0,0.0,0.0,0.0,0.0,0.0,0.0,-5.643139136645001e-05,-6.532568681117884e-05,-0.022279049605525,0.0,0.0,0.0,0.0,0.0,0.0,0.0,0.0,0.0,0.0033231851839754705,0.01608850469366837,-0.00028064402119296294,0.0,0.0,0.0,0.0,0.0,0.0,0.0,0.0,0.0
8.76,244,8,760000000,base_footprint,-0.0015052132221734793,0.0035624839943058234,0.38788501827518485,0.9216996558741929,0.0,0.0,0.0,0.0,0.0,0.0,0.0,0.0,0.0,-0.00018836637711924523,-8.29598450302165e-05,-0.022917911339624335,0.0,0.0,0.0,0.0,0.0,0.0,0.0,0.0,0.0,0.004847554382841608,0.005450900294221943,-0.00034704671651711544,0.0,0.0,0.0,0.0,0.0,0.0,0.0,0.0,0.0
8.794,245,8,794000000,base_footprint,-0.0015060474278075554,0.0035678385187526925,0.3875197449749668,0.9218532690206104,0.0,0.0,0.0,0.0,0.0,0.0,0.0,0.0,0.0,-0.00019981488723154082,-0.00011055758557348611,-0.023627739465584004,0.0,0.0,0.0,0.0,0.0,0.0,0.0,0.0,0.0,0.00556732507591869,0.003768509585987155,-0.0003099790774110273,0.0,0.0,0.0,0.0,0.0,0.0,0.0,0.0,0.0
8.828,246,8,828000000,base_footprint,-0.0015036235247518268,0.0035553616070830105,0.387515235423205,0.9218552168508007,0.0,0.0,0.0,0.0,0.0,0.0,0.0,0.0,0.0,-0.0022418151044953463,-0.002243307155346024,0.021979036288766622,0.0,0.0,0.0,0.0,0.0,0.0,0.0,0.0,0.0,0.01457004560193842,-0.5511621156510293,-0.002108541319819195,0.0,0.0,0.0,0.0,0.0,0.0,0.0,0.0,0.0
8.862,247,8,862000000,base_footprint,-0.001509775313759663,0.0035703717970703456,0.3874790266423126,0.9218703688350434,0.0,0.0,0.0,0.0,0.0,0.0,0.0,0.0,0.0,-0.0006485305303368791,-0.0003119319184275707,-0.006825413700094891,0.0,0.0,0.0,0.0,0.0,0.0,0.0,0.0,0.0,-0.001533941174678033,0.188215133845196,0.0015909484995321574,0.0,0.0,0.0,0.0,0.0,0.0,0.0,0.0,0.0
8.896,248,8,896000000,base_footprint,-0.001510932379664829,0.003565960892757032,0.387134820421545,0.9220149845980995,0.0,0.0,0.0,0.0,0.0,0.0,0.0,0.0,0.0,0.0010355745211241048,-0.002861197119904196,-0.028479355717633253,0.0,0.0,0.0,0.0,0.0,0.0,0.0,0.0,0.0,0.001962332945844588,-0.01465150061629987,-0.0004478450527398639,0.0,0.0,0.0,0.0,0.0,0.0,0.0,0.0,0.0
8.93,249,8,930000000,base_footprint,-0.0015028854940206727,0.0035451918705771677,0.38641406907864295,0.9223173749680088,0.0,0.0,0.0,0.0,0.0,0.0,0.0,0.0,0.0,0.002142920157358748,-0.0009818536278793201,-0.039548202316156494,0.0,0.0,0.0,0.0,0.0,0.0,0.0,0.0,0.0,-0.005667857643427362,0.012518706956614936,0.005881703802269244,0.0,0.0,0.0,0.0,0.0,0.0,0.0,0.0,0.0
8.964,250,8,964000000,base_footprint,-0.001492191536290538,0.003548022715953691,0.386201582632041,0.9224063759925626,0.0,0.0,0.0,0.0,0.0,0.0,0.0,0.0,0.0,0.0018978879603884647,0.004009494002195376,0.0074210592734214095,0.0,0.0,0.0,0.0,0.0,0.0,0.0,0.0,0.0,0.00809014117154594,0.08614512484778418,0.0029378717916223175,0.0,0.0,0.0,0.0,0.0,0.0,0.0,0.0,0.0
8.998,251,8,998000000,base_footprint,-0.0014900141097344746,0.0035580670718831095,0.38632720644943835,0.9223537334307472,0.0,0.0,0.0,0.0,0.0,0.0,0.0,0.0,0.0,-0.0005647341053228424,-0.0054353187475084256,-0.0008779675288143531,0.0,0.0,0.0,0.0,0.0,0.0,0.0,0.0,0.0,0.0031949453704371786,0.17241322044296561,-0.008297149256435583,0.0,0.0,0.0,0.0,0.0,0.0,0.0,0.0,0.0
9.032,252,9,32000000,base_footprint,-0.0015014294287928466,0.003566320530900994,0.38633439469614983,0.922350672218707,0.0,0.0,0.0,0.0,0.0,0.0,0.0,0.0,0.0,0.0003835304219522013,-0.0001309146046815674,0.0006865009740328373,0.0,0.0,0.0,0.0,0.0,0.0,0.0,0.0,0.0,-0.002549713731417977,0.06548958801925567,0.001564797380218075,0.0,0.0,0.0,0.0,0.0,0.0,0.0,0.0,0.0
9.066,253,9,66000000,base_footprint,-0.0015006792827505322,0.0035630034758587824,0.38634743306733993,0.9223452249186304,0.0,0.0,0.0,0.0,0.0,0.0,0.0,0.0,0.0,0.00025959597361992714,-9.606785973772622e-05,0.0008513470632047198,0.0,0.0,0.0,0.0,0.0,0.0,0.0,0.0,0.0,-0.000794792202788272,0.0038853172828012387,-0.00022633619160722482,0.0,0.0,0.0,0.0,0.0,0.0,0.0,0.0,0.0
9.1,254,9,100000000,base_footprint,-0.0014979132844116388,0.003559242560198822,0.38629149587784,0.922368672636192,0.0,0.0,0.0,0.0,0.0,0.0,0.0,0.0,0.0,0.000786841978313652,-0.0021141882020279225,-0.03767942294237258,0.0,0.0,0.0,0.0,0.0,0.0,0.0,0.0,0.0,0.0030401179565348714,0.010904595128239596,-8.721328682623038e-05,0.0,0.0,0.0,0.0,0.0,0.0,0.0,0.0,0.0
9.134,255,9,134000000,base_footprint,-0.0014951319611474405,0.003560692290725993,0.38567789062793567,0.9226254119259971,0.0,0.0,0.0,0.0,0.0,0.0,0.0,0.0,0.0,5.2799285617352185e-06,-0.00013989392576523082,-0.039050725501142886,0.0,0.0,0.0,0.0,0.0,0.0,0.0,0.0,0.0,0.005820392492897235,0.010666020465780138,2.57240117788459e-05,0.0,0.0,0.0,0.0,0.0,0.0,0.0,0.0,0.0
9.168,256,9,168000000,base_footprint,-0.001492460848055363,0.003561937920697276,0.38505999641769756,0.9228834619374588,0.0,0.0,0.0,0.0,0.0,0.0,0.0,0.0,0.0,-6.353413082669558e-05,-0.00016097004103969695,-0.03966512149578444,0.0,0.0,0.0,0.0,0.0,0.0,0.0,0.0,0.0,0.008686872620460832,0.0059237541736556,-0.00023231277042056494,0.0,0.0,0.0,0.0,0.0,0.0,0.0,0.0,0.0
9.202,257,9,202000000,base_footprint,-0.0014931112878154762,0.0035645905418029452,0.3845971978825242,0.9230764105391612,0.0,0.0,0.0,0.0,0.0,0.0,0.0,0.0,0.0,0.0006786093388954585,-0.0013965467595104205,0.033869790308240964,0.0,0.0,0.0,0.0,0.0,0.0,0.0,0.0,0.0,0.007667384114374481,-0.012357051677722157,0.00018617036424954536,0.0,0.0,0.0,0.0,0.0,0.0,0.0,0.0,0.0
9.236,258,9,236000000,base_footprint,-0.0014947212357285231,0.003566298908938112,0.3851452079599327,0.9228478835138649,0.0,0.0,0.0,0.0,0.0,0.0,0.0,0.0,0.0,0.00012352735426345387,0.00022593920209368682,0.034279517718347856,0.0,0.0,0.0,0.0,0.0,0.0,0.0,0.0,0.0,-0.007697611726898129,0.0036887069280252386,-0.0006053944792358307,0.0,0.0,0.0,0.0,0.0,0.0,0.0,0.0,0.0
9.27,259,9,270000000,base_footprint,-0.0014990220933125927,0.0035702325957497768,0.38567820233652794,0.9226252384443211,0.0,0.0,0.0,0.0,0.0,0.0,0.0,0.0,0.0,7.241505304956213e-05,0.00018270069625399117,0.03372680672611324,0.0,0.0,0.0,0.0,0.0,0.0,0.0,0.0,0.0,-0.006929356765231497,0.0037134249542510687,-0.00031881676931082954,0.0,0.0,0.0,0.0,0.0,0.0,0.0,0.0,0.0
9.304,260,9,304000000,base_footprint,-0.0014989985261320644,0.0035728491576828367,0.3860764798916675,0.9224586383284478,0.0,0.0,0.0,0.0,0.0,0.0,0.0,0.0,0.0,-0.0008241326766895333,0.0007731167366365076,-0.009059507274443683,0.0,0.0,0.0,0.0,0.0,0.0,0.0,0.0,0.0,-0.0030106873429697725,0.008495116571007348,-0.0007032531721776954,0.0,0.0,0.0,0.0,0.0,0.0,0.0,0.0,0.0
9.338,261,9,338000000,base_footprint,-0.0015030343186400708,0.0035734799566339444,0.38602186405582856,0.9224814857761103,0.0,0.0,0.0,0.0,0.0,0.0,0.0,0.0,0.0,0.0001077911129261011,-7.931694748777491e-05,-0.0035604311162296806,0.0,0.0,0.0,0.0,0.0,0.0,0.0,0.0,0.0,-0.0008110139426524706,-0.007337128408518594,0.0011265994380014496,0.0,0.0,0.0,0.0,0.0,0.0,0.0,0.0,0.0
9.372,262,9,372000000,base_footprint,-0.0015044183763981854,0.003567770098698637,0.38591978501595925,0.9225242150074476,0.0,0.0,0.0,0.0,0.0,0.0,0.0,0.0,0.0,0.00033166875337732767,-0.0004177942078548136,-0.013340069884869686,0.0,0.0,0.0,0.0,0.0,0.0,0.0,0.0,0.0,6.264771871220855e-05,-0.029552713418983478,0.0006453801465032654,0.0,0.0,0.0,0.0,0.0,0.0,0.0,0.0,0.0
9.406,263,9,406000000,base_footprint,-0.001497548364638384,0.003572551964437924,0.3856328137015674,0.9226442040233979,0.0,0.0,0.0,0.0,0.0,0.0,0.0,0.0,0.0,-0.00034929709939929884,0.0005854483609297828,-0.006730465436083046,0.0,0.0,0.0,0.0,0.0,0.0,0.0,0.0,0.0,0.0019717396844529805,-0.04428022010586216,-0.0009179467312310096,0.0,0.0,0.0,0.0,0.0,0.0,0.0,0.0,0.0
9.44,264,9,440000000,base_footprint,-0.0014980569690836074,0.0035707318348937238,0.3855323039654766,0.9226862133458764,0.0,0.0,0.0,0.0,0.0,0.0,0.0,0.0,0.0,-0.00011531887066306656,-0.0003436430193505458,-0.014089307520673906,0.0,0.0,0.0,0.0,0.0,0.0,0.0,0.0,0.0,0.0023919474595448234,0.0174536542871103,-9.009592832946505e-06,0.0,0.0,0.0,0.0,0.0,0.0,0.0,0.0,0.0
9.474,265,9,474000000,base_footprint,-0.001500554729296605,0.003571230659259185,0.38513936931274834,0.9228502916792416,0.0,0.0,0.0,0.0,0.0,0.0,0.0,0.0,0.0,0.00015083290133006787,-2.7627233890806257e-05,-0.025033688223930484,0.0,0.0,0.0,0.0,0.0,0.0,0.0,0.0,0.0,0.00610642060380835,0.02959131855231091,0.0007471217606056932,0.0,0.0,0.0,0.0,0.0,0.0,0.0,0.0,0.0
9.508,266,9,508000000,base_footprint,-0.0014972402554129264,0.0035682199107132558,0.384692182494258,0.9230368090201446,0.0,0.0,0.0,0.0,0.0,0.0,0.0,0.0,0.0,-0.0002662360697707791,5.136006110902386e-06,-0.040193645411927104,0.0,0.0,0.0,0.0,0.0,0.0,0.0,0.0,0.0,0.007711349365793804,-0.2835725437177287,0.0019590417014578635,0.0,0.0,0.0,0.0,0.0,0.0,0.0,0.0,0.0
9.542,267,9,542000000,base_footprint,-0.0014875505620923523,0.003555247204321777,0.38423442310572853,0.9232275209888672,0.0,0.0,0.0,0.0,0.0,0.0,0.0,0.0,0.0,0.0018279417775083973,-0.0003628060311505698,-0.00986828528982815,0.0,0.0,0.0,0.0,0.0,0.0,0.0,0.0,0.0,0.007930445138394061,-0.15662267593908735,0.002629701750409514,0.0,0.0,0.0,0.0,0.0,0.0,0.0,0.0,0.0
9.576,268,9,576000000,base_footprint,-0.0014908009933774224,0.0035640174284179375,0.38374763894308406,0.9234299241944548,0.0,0.0,0.0,0.0,0.0,0.0,0.0,0.0,0.0,0.00015729698450986016,-0.0001052183241502583,-0.035686502074558576,0.0,0.0,0.0,0.0,0.0,0.0,0.0,0.0,0.0,0.005752781974681584,0.11794130942490169,-0.002537996222515653,0.0,0.0,0.0,0.0,0.0,0.0,0.0,0.0,0.0
9.61,269,9,610000000,base_footprint,-0.0014876196014505713,0.0035620726391753913,0.3832359967612214,0.923642392602715,0.0,0.0,0.0,0.0,0.0,0.0,0.0,0.0,0.0,0.0005101465526578978,0.00020577499614377902,-0.004232938377201556,0.0,0.0,0.0,0.0,0.0,0.0,0.0,0.0,0.0,0.003945846707527942,0.26353744767950554,-0.0013787181548817872,0.0,0.0,0.0,0.0,0.0,0.0,0.0,0.0,0.0
9.644,270,9,644000000,base_footprint,-0.0014883724982225335,0.003563195570735488,0.38360852491107394,0.9234877302921687,0.0,0.0,0.0,0.0,0.0,0.0,0.0,0.0,0.0,0.0002726437943021994,0.0002081030028238293,0.02562487891023509,0.0,0.0,0.0,0.0,0.0,0.0,0.0,0.0,0.0,-0.0027438762221720404,0.07198871908530051,-0.0008600565407083808,0.0,0.0,0.0,0.0,0.0,0.0,0.0,0.0,0.0
9.678,271,9,678000000,base_footprint,-0.001490260710150013,0.003564219732377194,0.38400699943419336,0.9233220997280757,0.0,0.0,0.0,0.0,0.0,0.0,0.0,0.0,0.0,0.0002012059600839442,0.0001988859427204519,0.02518700303701649,0.0,0.0,0.0,0.0,0.0,0.0,0.0,0.0,0.0,-0.005453596572476134,0.005703154174742691,-0.00016749102593809672,0.0,0.0,0.0,0.0,0.0,0.0,0.0,0.0,0.0
9.712,272,9,712000000,base_footprint,-0.0014916642413886358,0.003567283174178464,0.38410158163102065,0.9232827434849492,0.0,0.0,0.0,0.0,0.0,0.0,0.0,0.0,0.0,-0.00024008457822677936,-0.00012083740087148367,-0.016357021395942584,0.0,0.0,0.0,0.0,0.0,0.0,0.0,0.0,0.0,-0.002906598502839692,0.0166104562884792,-0.000630939674937443,0.0,0.0,0.0,0.0,0.0,0.0,0.0,0.0,0.0
9.746,273,9,746000000,base_footprint,-0.0014932933958718595,0.003572432466081168,0.38384488965362745,0.9233894673906042,0.0,0.0,0.0,0.0,0.0,0.0,0.0,0.0,0.0,-0.00024261738325146785,-0.00013426386040131766,-0.016659214118321733,0.0,0.0,0.0,0.0,0.0,0.0,0.0,0.0,0.0,0.005179798931423328,0.0035472162945834754,-0.00016773709735830945,0.0,0.0,0.0,0.0,0.0,0.0,0.0,0.0,0.0
9.78,274,9,780000000,base_footprint,-0.001493275885580816,0.003575725747249748,0.38357665470620567,0.9235009118982538,0.0,0.0,0.0,0.0,0.0,0.0,0.0,0.0,0.0,-0.0001340760979953917,-9.517745170857687e-05,-0.017596857220788867,0.0,0.0,0.0,0.0,0.0,0.0,0.0,0.0,0.0,0.00430320643758775,-0.0001892217220771633,0.00016098174470521545,0.0,0.0,0.0,0.0,0.0,0.0,0.0,0.0,0.0
9.814,275,9,814000000,base_footprint,-0.0014856633544898063,0.0035591628442493985,0.3833991623017073,0.9235746897303946,0.0,0.0,0.0,0.0,0.0,0.0,0.0,0.0,0.0,0.0017572463032309296,0.0001360131618007664,0.004005658013094344,0.0,0.0,0.0,0.0,0.0,0.0,0.0,0.0,0.0,0.0013817363286399986,-0.21472038938373947,0.003923803229086045,0.0,0.0,0.0,0.0,0.0,0.0,0.0,0.0,0.0
9.848,276,9,848000000,base_footprint,-0.0014863320679396868,0.0035782221819685577,0.3833833792459254,0.9235811667963868,0.0,0.0,0.0,0.0,0.0,0.0,0.0,0.0,0.0,-0.0013884069881050594,-0.0002696866780152429,-0.03245037273302704,0.0,0.0,0.0,0.0,0.0,0.0,0.0,0.0,0.0,0.0022187219301620514,-0.12063304338194597,-0.004024580946106279,0.0,0.0,0.0,0.0,0.0,0.0,0.0,0.0,0.0
9.882,277,9,882000000,base_footprint,-0.001488100258202507,0.0035791395839236315,0.3828232126343545,0.9238134893937046,0.0,0.0,0.0,0.0,0.0,0.0,0.0,0.0,0.0,0.00014797579976840822,-1.121011337796615e-05,-0.02777372347751042,0.0,0.0,0.0,0.0,0.0,0.0,0.0,0.0,0.0,0.0048703184233772345,-0.04609503211680925,0.0027320150455218154,0.0,0.0,0.0,0.0,0.0,0.0,0.0,0.0,0.0
9.916,278,9,916000000,base_footprint,-0.0014891669711668482,0.0035750764449646805,0.38240870834386925,0.9239851627558303,0.0,0.0,0.0,0.0,0.0,0.0,0.0,0.0,0.0,-0.0007566025011019001,0.0005073012730195829,-0.03902440396757379,0.0,0.0,0.0,0.0,0.0,0.0,0.0,0.0,0.0,0.005527895274894151,-0.024457300408241105,-0.0014041702916243219,0.0,0.0,0.0,0.0,0.0,0.0,0.0,0.0,0.0
9.95,279,9,950000000,base_footprint,-0.0014741369825150975,0.003556533988364489,0.38179896779331735,0.9242373754496752,0.0,0.0,0.0,0.0,0.0,0.0,0.0,0.0,0.0,0.0009850268716522018,0.00034083177735732683,-0.030757262977215084,0.0,0.0,0.0,0.0,0.0,0.0,0.0,0.0,0.0,0.010278089650687133,0.20177095803924472,0.002200728933029192,0.0,0.0,0.0,0.0,0.0,0.0,0.0,0.0,0.0
9.984,280,9,984000000,base_footprint,-0.0014851237800287084,0.003574467058477289,0.38137127278635874,0.924413852062981,0.0,0.0,0.0,0.0,0.0,0.0,0.0,0.0,0.0,0.0002275211544976876,-0.0001795127753582186,-0.027806936697314405,0.0,0.0,0.0,0.0,0.0,0.0,0.0,0.0,0.0,0.0050350244317586695,0.1686180706623949,-0.0025454247481652248,0.0,0.0,0.0,0.0,0.0,0.0,0.0,0.0,0.0
10.018,281,10,18000000,base_footprint,-0.0014836575432558001,0.0035714573611995543,0.3811825245154347,0.9244917124867327,0.0,0.0,0.0,0.0,0.0,0.0,0.0,0.0,0.0,0.00047031638074252364,5.226675967940215e-05,-0.003360324097152155,0.0,0.0,0.0,0.0,0.0,0.0,0.0,0.0,0.0,0.004286929329864604,0.00039735008529176354,0.00041882737878280133,0.0,0.0,0.0,0.0,0.0,0.0,0.0,0.0,0.0
10.052,282,10,52000000,base_footprint,-0.001480875952234112,0.0035683130771701752,0.3811264671718628,0.9245148404267464,0.0,0.0,0.0,0.0,0.0,0.0,0.0,0.0,0.0,0.00031615334656543543,7.168610454078422e-05,-0.0037389027497554623,0.0,0.0,0.0,0.0,0.0,0.0,0.0,0.0,0.0,0.0009614944986951841,0.005267830642870262,-0.0002712882659774662,0.0,0.0,0.0,0.0,0.0,0.0,0.0,0.0,0.0
10.086,283,10,86000000,base_footprint,-0.0014792726270695866,0.0035671203670907523,0.38106418672222486,0.9245405199354493,0.0,0.0,0.0,0.0,0.0,0.0,0.0,0.0,0.0,0.00021993015502033632,5.277029258778936e-05,-0.004153731162191922,0.0,0.0,0.0,0.0,0.0,0.0,0.0,0.0,0.0,0.0009245951797833486,0.005749992491438778,-0.00021614909516819305,0.0,0.0,0.0,0.0,0.0,0.0,0.0,0.0,0.0
10.12,284,10,120000000,base_footprint,-0.0014775668912875093,0.0035675143274940583,0.38075926949047173,0.9246661388494158,0.0,0.0,0.0,0.0,0.0,0.0,0.0,0.0,0.0,0.00013912202890042279,-0.00018090032864963084,-0.03873378982643067,0.0,0.0,0.0,0.0,0.0,0.0,0.0,0.0,0.0,0.0009974376931517343,-0.30805008187128435,0.001684075796328814,0.0,0.0,0.0,0.0,0.0,0.0,0.0,0.0,0.0
10.154,285,10,154000000,base_footprint,-0.0014768380787617563,0.003569369348817907,0.3804657868149216,0.9247869287652392,0.0,0.0,0.0,0.0,0.0,0.0,0.0,0.0,0.0,-8.873110658927376e-06,-1.5315509648893236e-05,-0.01164684109213076,0.0,0.0,0.0,0.0,0.0,0.0,0.0,0.0,0.0,0.004365734157421664,-0.019896950838327793,-0.0002970194377810171,0.0,0.0,0.0,0.0,0.0,0.0,0.0,0.0,0.0
10.188,286,10,188000000,base_footprint,-0.0014772398582586527,0.0035724215156267233,0.38027865628273816,0.9248638814132115,0.0,0.0,0.0,0.0,0.0,0.0,0.0,0.0,0.0,-7.360677197708925e-05,-2.3797871204165435e-05,-0.012102505390830662,0.0,0.0,0.0,0.0,0.0,0.0,0.0,0.0,0.0,0.002828544199169325,0.005239812406906652,-0.00021287374893727432,0.0,0.0,0.0,0.0,0.0,0.0,0.0,0.0,0.0
10.222,287,10,222000000,base_footprint,-0.0014757590391170296,0.003574688683139189,0.37985803932206924,0.9250367093788605,0.0,0.0,0.0,0.0,0.0,0.0,0.0,0.0,0.0,-0.00263936941708873,-0.0007906008045758699,-0.048671217206701305,0.0,0.0,0.0,0.0,0.0,0.0,0.0,0.0,0.0,0.00857539069432292,0.36560306088666544,-0.006027197907143778,0.0,0.0,0.0,0.0,0.0,0.0,0.0,0.0,0.0
10.256,288,10,256000000,base_footprint,-0.0014775985294662437,0.0035815364835187573,0.3794382578844869,0.9252089481585166,0.0,0.0,0.0,0.0,0.0,0.0,0.0,0.0,0.0,-0.0001870629468476427,-9.301255421328072e-05,-0.02145600178964011,0.0,0.0,0.0,0.0,0.0,0.0,0.0,0.0,0.0,0.008015988267368193,-0.0169824563543282,0.003677557134754931,0.0,0.0,0.0,0.0,0.0,0.0,0.0,0.0,0.0
10.29,289,10,290000000,base_footprint,-0.0014774220345209533,0.0035843579750003077,0.37909646833314603,0.9253490353911733,0.0,0.0,0.0,0.0,0.0,0.0,0.0,0.0,0.0,-8.511056111271398e-05,-0.00012540744914305469,-0.021885063659190625,0.0,0.0,0.0,0.0,0.0,0.0,0.0,0.0,0.0,0.005305317275530708,-0.005525067176381604,0.00016439039052406487,0.0,0.0,0.0,0.0,0.0,0.0,0.0,0.0,0.0
10.324,290,10,324000000,base_footprint,-0.0014788954688508633,0.0035794414272492803,0.37925377867467874,0.9252845896416081,0.0,0.0,0.0,0.0,0.0,0.0,0.0,0.0,0.0,0.0005205973942414882,0.0005933422978915345,0.018796120794562297,0.0,0.0,0.0,0.0,0.0,0.0,0.0,0.0,0.0,-0.0001218486615611877,-0.014758343609695863,0.0008984970043725061,0.0,0.0,0.0,0.0,0.0,0.0,0.0,0.0,0.0
10.358,291,10,358000000,base_footprint,-0.0014758635933046975,0.0035763694181361843,0.3793485619884656,0.9252457510984431,0.0,0.0,0.0,0.0,0.0,0.0,0.0,0.0,0.0,-0.00013574093755109698,0.000608920573908043,-0.002927800592616607,0.0,0.0,0.0,0.0,0.0,0.0,0.0,0.0,0.0,-0.009675491196414924,-0.054308716400728436,-0.0007083182930834088,0.0,0.0,0.0,0.0,0.0,0.0,0.0,0.0,0.0
10.392,292,10,392000000,base_footprint,-0.0014770949785487832,0.0035827885184328227,0.3796077002941392,0.9251394358118411,0.0,0.0,0.0,0.0,0.0,0.0,0.0,0.0,0.0,-0.00033231206843192026,0.0003666691679221274,0.028462989741040678,0.0,0.0,0.0,0.0,0.0,0.0,0.0,0.0,0.0,0.0011119936136291643,0.006510864645587396,-0.00026469434491681456,0.0,0.0,0.0,0.0,0.0,0.0,0.0,0.0,0.0
10.426,293,10,426000000,base_footprint,-0.0014844975560812654,0.0035776831275068097,0.38107028291730466,0.9245379580783964,0.0,0.0,0.0,0.0,0.0,0.0,0.0,0.0,0.0,0.0006625612552804713,-0.00022653078030949162,0.12224594258499198,0.0,0.0,0.0,0.0,0.0,0.0,0.0,0.0,0.0,-0.016277011635106958,-0.008321783185781152,0.0003457307753081201,0.0,0.0,0.0,0.0,0.0,0.0,0.0,0.0,0.0
10.46,294,10,460000000,base_footprint,-0.001491445669751122,0.0035713338850313103,0.3830051427000111,0.9237381024021041,0.0,0.0,0.0,0.0,0.0,0.0,0.0,0.0,0.0,0.0009266939916928351,0.0006783047227408483,0.12379574370587504,0.0,0.0,0.0,0.0,0.0,0.0,0.0,0.0,0.0,-0.031182819636839772,0.0010807624378159335,0.0009325222684642922,0.0,0.0,0.0,0.0,0.0,0.0,0.0,0.0,0.0
10.494,295,10,494000000,base_footprint,-0.0014983227624545095,0.0035647769077736145,0.3849517260454796,0.9229286082948688,0.0,0.0,0.0,0.0,0.0,0.0,0.0,0.0,0.0,0.0010359931485730072,0.0007161128048784274,0.1241962963666652,0.0,0.0,0.0,0.0,0.0,0.0,0.0,0.0,0.0,-0.02671056905297567,0.0038790308637012046,0.000546520787836092,0.0,0.0,0.0,0.0,0.0,0.0,0.0,0.0,0.0
10.528,296,10,528000000,base_footprint,-0.001499533131638024,0.003560707669096778,0.3858681916942129,0.9225458315985828,0.0,0.0,0.0,0.0,0.0,0.0,0.0,0.0,0.0,0.0007334358422035392,0.0003911016774066822,0.05151155299825457,0.0,0.0,0.0,0.0,0.0,0.0,0.0,0.0,0.0,-0.013481104659021324,0.024820558217880692,8.503937933722615e-05,0.0,0.0,0.0,0.0,0.0,0.0,0.0,0.0,0.0
10.562,297,10,562000000,base_footprint,-0.0015009976796194029,0.0035578692683362616,0.3866728647734303,0.9222088614951299,0.0,0.0,0.0,0.0,0.0,0.0,0.0,0.0,0.0,0.0005210492797146324,0.00037174346268270146,0.05115686351906401,0.0,0.0,0.0,0.0,0.0,0.0,0.0,0.0,0.0,-0.011599899332790821,0.005291989488069658,-0.00030977382197594055,0.0,0.0,0.0,0.0,0.0,0.0,0.0,0.0,0.0
10.596,298,10,596000000,base_footprint,-0.0015043844723476756,0.003558427776717882,0.3874707909827118,0.9218738853847358,0.0,0.0,0.0,0.0,0.0,0.0,0.0,0.0,0.0,-0.003473374964181264,-0.00016343089646540365,0.049539136612376,0.0,0.0,0.0,0.0,0.0,0.0,0.0,0.0,0.0,-0.010493900566769965,-0.024200171460042483,-0.0022038549027447894,0.0,0.0,0.0,0.0,0.0,0.0,0.0,0.0,0.0
10.63,299,10,630000000,base_footprint,-0.0015019727090024122,0.003560332887605228,0.3870723867213444,0.9220412331048721,0.0,0.0,0.0,0.0,0.0,0.0,0.0,0.0,0.0,-0.0011921212185614267,0.0007282640418339891,-0.023888266447143557,0.0,0.0,0.0,0.0,0.0,0.0,0.0,0.0,0.0,0.007295419396813191,-0.28840625992214675,0.0028466397525776584,0.0,0.0,0.0,0.0,0.0,0.0,0.0,0.0,0.0
10.664,300,10,664000000,base_footprint,-0.0015053866581705765,0.0035604804942998523,0.3876957950570709,0.9217792725401917,0.0,0.0,0.0,0.0,0.0,0.0,0.0,0.0,0.0,0.00020380004498104002,0.0003012664817797815,0.04323610900496739,0.0,0.0,0.0,0.0,0.0,0.0,0.0,0.0,0.0,-0.004528578951740239,-0.010011930920136664,0.0005928295038289664,0.0,0.0,0.0,0.0,0.0,0.0,0.0,0.0,0.0
10.698,301,10,698000000,base_footprint,-0.0015091456533677958,0.0035617719674983063,0.388364816814163,0.9214975883423407,0.0,0.0,0.0,0.0,0.0,0.0,0.0,0.0,0.0,0.001095178517134594,4.997143095144537e-05,0.038136523394106475,0.0,0.0,0.0,0.0,0.0,0.0,0.0,0.0,0.0,-0.008645618631790496,0.056075112713100575,0.0028897801641212554,0.0,0.0,0.0,0.0,0.0,0.0,0.0,0.0,0.0
10.732,302,10,732000000,base_footprint,-0.0015158861075036099,0.003561218235138532,0.38921415694992995,0.9211391642112208,0.0,0.0,0.0,0.0,0.0,0.0,0.0,0.0,0.0,-0.0012111603451830798,0.0012649196751854243,0.08514745762028438,0.0,0.0,0.0,0.0,0.0,0.0,0.0,0.0,0.0,-0.018818738494127574,0.2851723943849705,-0.006966946150607325,0.0,0.0,0.0,0.0,0.0,0.0,0.0,0.0,0.0
10.766,303,10,766000000,base_footprint,-0.001521459152329502,0.0035660515891750813,0.3904979373986509,0.9205956383372184,0.0,0.0,0.0,0.0,0.0,0.0,0.0,0.0,0.0,0.0005018714831800757,0.0003796374763498373,0.08093646192472234,0.0,0.0,0.0,0.0,0.0,0.0,0.0,0.0,0.0,-0.01702797161206638,-0.009071180392452834,0.0023327207200933278,0.0,0.0,0.0,0.0,0.0,0.0,0.0,0.0,0.0
10.8,304,10,800000000,base_footprint,-0.0015287190170659689,0.003560630314780288,0.3917073879022433,0.9200816850653696,0.0,0.0,0.0,0.0,0.0,0.0,0.0,0.0,0.0,0.0015907929949245659,0.0015661959336867558,0.06347256399364004,0.0,0.0,0.0,0.0,0.0,0.0,0.0,0.0,0.0,-0.01535690744732516,0.0029873803870391945,0.003990960798381856,0.0,0.0,0.0,0.0,0.0,0.0,0.0,0.0,0.0
10.834,305,10,834000000,base_footprint,-0.0015274726822895848,0.003558893868088542,0.39219362090012855,0.9198745375467714,0.0,0.0,0.0,0.0,0.0,0.0,0.0,0.0,0.0,-0.0004061751277393055,0.0007589249888568873,0.020364938770046623,0.0,0.0,0.0,0.0,0.0,0.0,0.0,0.0,0.0,-0.009006797287225587,-0.027719052572541605,-0.0045630983461633625,0.0,0.0,0.0,0.0,0.0,0.0,0.0,0.0,0.0
10.868,306,10,868000000,base_footprint,-0.0015291512062547757,0.0035591405098078653,0.3928226037308269,0.9196061092737224,0.0,0.0,0.0,0.0,0.0,0.0,0.0,0.0,0.0,0.0003609789895831826,-0.0001346396211809457,0.0472310223486383,0.0,0.0,0.0,0.0,0.0,0.0,0.0,0.0,0.0,-0.011494986741459668,-0.025556117051899405,0.0008551715163911543,0.0,0.0,0.0,0.0,0.0,0.0,0.0,0.0,0.0
10.902,307,10,902000000,base_footprint,-0.0015363594968668653,0.0035645388012851974,0.393433202123031,0.9193450109343331,0.0,0.0,0.0,0.0,0.0,0.0,0.0,0.0,0.0,0.005655729463555808,0.0009399525581417782,0.022628547351604442,0.0,0.0,0.0,0.0,0.0,0.0,0.0,0.0,0.0,-0.010760549042651037,-0.07134427335531507,0.009339963153136269,0.0,0.0,0.0,0.0,0.0,0.0,0.0,0.0,0.0
10.936,308,10,936000000,base_footprint,-0.0015340019484672703,0.0035547069439830228,0.393743227869885,0.9192123157373211,0.0,0.0,0.0,0.0,0.0,0.0,0.0,0.0,0.0,-1.3281488539927178e-05,-0.00014590276268357087,0.024129898023612983,0.0,0.0,0.0,0.0,0.0,0.0,0.0,0.0,0.0,0.015418449440318643,-0.23699885390648928,-0.007476239590123095,0.0,0.0,0.0,0.0,0.0,0.0,0.0,0.0,0.0
10.97,309,10,970000000,base_footprint,-0.001534395494973029,0.0035503045321933226,0.3941394191332017,0.9190425230932115,0.0,0.0,0.0,0.0,0.0,0.0,0.0,0.0,0.0,0.0004132883262372804,6.299506216954722e-05,0.02565459895721341,0.0,0.0,0.0,0.0,0.0,0.0,0.0,0.0,0.0,-0.006195157074902444,0.00035761271635857596,0.0006782177163594861,0.0,0.0,0.0,0.0,0.0,0.0,0.0,0.0,0.0
11.004,310,11,4000000,base_footprint,-0.0015274923456823758,0.0035382001721261367,0.3945505638985646,0.9188661493569128,0.0,0.0,0.0,0.0,0.0,0.0,0.0,0.0,0.0,-0.0012611967176857984,0.00023076260573801327,0.029395382338708156,0.0,0.0,0.0,0.0,0.0,0.0,0.0,0.0,0.0,-0.011987575360469918,0.16598076401201717,-0.002030258113886729,0.0,0.0,0.0,0.0,0.0,0.0,0.0,0.0,0.0
11.038,311,11,38000000,base_footprint,-0.0015309937881337486,0.0035462225911186613,0.39428970149286385,0.9189780800759197,0.0,0.0,0.0,0.0,0.0,0.0,0.0,0.0,0.0,-7.595103249777454e-05,-7.34683139634118e-05,-0.030260196081778618,0.0,0.0,0.0,0.0,0.0,0.0,0.0,0.0,0.0,-0.008506168038194359,0.19938802375384118,8.345065353103294e-05,0.0,0.0,0.0,0.0,0.0,0.0,0.0,0.0,0.0
11.072,312,11,72000000,base_footprint,-0.0015280341398560243,0.0035466745137043717,0.3938128922391777,0.9191825129525555,0.0,0.0,0.0,0.0,0.0,0.0,0.0,0.0,0.0,1.6961828698279105e-05,-7.721465994362417e-05,-0.030716858034696225,0.0,0.0,0.0,0.0,0.0,0.0,0.0,0.0,0.0,0.006022018656437318,0.005933430960524773,-6.788980246340707e-05,0.0,0.0,0.0,0.0,0.0,0.0,0.0,0.0,0.0
11.106,313,11,106000000,base_footprint,-0.0015283124309717878,0.0035504534271487034,0.393350655575235,0.9193804002153342,0.0,0.0,0.0,0.0,0.0,0.0,0.0,0.0,0.0,0.0006741050780753704,-6.967482949288013e-05,-0.023027206627392327,0.0,0.0,0.0,0.0,0.0,0.0,0.0,0.0,0.0,0.019783583350149528,-0.2964078068578674,0.002174812241321454,0.0,0.0,0.0,0.0,0.0,0.0,0.0,0.0,0.0
11.14,314,11,140000000,base_footprint,-0.0015223135536102444,0.003547676468921825,0.3926068772905731,0.9196982855574221,0.0,0.0,0.0,0.0,0.0,0.0,0.0,0.0,0.0,-0.0009531006374050763,-6.401661166777233e-06,-0.07261595253857896,0.0,0.0,0.0,0.0,0.0,0.0,0.0,0.0,0.0,0.015015129928268992,-0.1300478495343306,0.0002905798934637972,0.0,0.0,0.0,0.0,0.0,0.0,0.0,0.0,0.0
11.174,315,11,174000000,base_footprint,-0.001522845339334752,0.003557438580972169,0.39193154466123414,0.9199862443929661,0.0,0.0,0.0,0.0,0.0,0.0,0.0,0.0,0.0,-0.00022980485523564376,-0.00018306439408759278,-0.03915015816514056,0.0,0.0,0.0,0.0,0.0,0.0,0.0,0.0,0.0,0.006061193900038002,0.10446591628241886,-0.0014041116892084642,0.0,0.0,0.0,0.0,0.0,0.0,0.0,0.0,0.0
11.208,316,11,208000000,base_footprint,-0.001518828576202793,0.0035526769719337217,0.39123153587829285,0.9202841718623662,0.0,0.0,0.0,0.0,0.0,0.0,0.0,0.0,0.0,-0.0007994832883679621,-0.0003614386235841311,-0.06492860724582927,0.0,0.0,0.0,0.0,0.0,0.0,0.0,0.0,0.0,0.00173149777126623,0.19474166231697004,-0.0010326323943810833,0.0,0.0,0.0,0.0,0.0,0.0,0.0,0.0,0.0
11.242,317,11,242000000,base_footprint,-0.001520060515802323,0.0035665236249387416,0.39026082956172253,0.9206961791139666,0.0,0.0,0.0,0.0,0.0,0.0,0.0,0.0,0.0,-0.00048667819494500853,5.673961247712075e-05,-0.0561823816530372,0.0,0.0,0.0,0.0,0.0,0.0,0.0,0.0,0.0,0.01236327330411309,0.15105146115394716,-0.001457793659914877,0.0,0.0,0.0,0.0,0.0,0.0,0.0,0.0,0.0
11.276,318,11,276000000,base_footprint,-0.0015175880444076395,0.003566638641651398,0.3893647591234576,0.9210754911341736,0.0,0.0,0.0,0.0,0.0,0.0,0.0,0.0,0.0,-6.433291070205135e-05,-0.0004334284311933125,-0.05885584678403305,0.0,0.0,0.0,0.0,0.0,0.0,0.0,0.0,0.0,0.012287675983861011,-0.014443815398824035,0.0008384514040673794,0.0,0.0,0.0,0.0,0.0,0.0,0.0,0.0,0.0
11.31,319,11,310000000,base_footprint,-0.0015172562312118372,0.00356616772634742,0.3883660002855672,0.9214970592484099,0.0,0.0,0.0,0.0,0.0,0.0,0.0,0.0,0.0,-0.00037056694071458995,-0.0011095390603569765,-0.05834461471917079,0.0,0.0,0.0,0.0,0.0,0.0,0.0,0.0,0.0,0.014641756900882917,-0.07178334431643306,-0.00034094327208958146,0.0,0.0,0.0,0.0,0.0,0.0,0.0,0.0,0.0
11.344,320,11,344000000,base_footprint,-0.0015161403469044917,0.0035670840099016007,0.3877851772110984,0.921741630591497,0.0,0.0,0.0,0.0,0.0,0.0,0.0,0.0,0.0,-6.124520815615189e-05,-3.0199678470328063e-05,-0.019295146598928413,0.0,0.0,0.0,0.0,0.0,0.0,0.0,0.0,0.0,0.011931177057188784,0.008403379330937582,0.0003720066073963295,0.0,0.0,0.0,0.0,0.0,0.0,0.0,0.0,0.0
11.383,321,11,378000000,base_footprint,-0.0015114070295279818,0.003568371424427356,0.3875735241116053,0.9218306491877343,0.0,0.0,0.0,0.0,0.0,0.0,0.0,0.0,0.0,0.00023674058875652795,0.00013706378809987668,-0.010492574873300976,0.0,0.0,0.0,0.0,0.0,0.0,0.0,0.0,0.0,-0.005698588770518421,0.03052294805987217,0.00021796114421512814,0.0,0.0,0.0,0.0,0.0,0.0,0.0,0.0,0.0
11.412,322,11,412000000,base_footprint,-0.0015086068119755094,0.0035685926685301134,0.3872981764745512,0.9219463714074373,0.0,0.0,0.0,0.0,0.0,0.0,0.0,0.0,0.0,-0.0016481932189090637,-1.1953600238262725e-05,-0.03691973767447328,0.0,0.0,0.0,0.0,0.0,0.0,0.0,0.0,0.0,0.012241658171793776,-0.3235038582611665,0.00011888871115139894,0.0,0.0,0.0,0.0,0.0,0.0,0.0,0.0,0.0
11.446,323,11,446000000,base_footprint,-0.0015001101276449626,0.003552460944157026,0.38650699397376925,0.922278414200509,0.0,0.0,0.0,0.0,0.0,0.0,0.0,0.0,0.0,-0.0027327225704713238,-0.0017563224683807403,-0.0444844448879275,0.0,0.0,0.0,0.0,0.0,0.0,0.0,0.0,0.0,0.013135788780700274,-0.08327558902226218,-0.00303160362431067,0.0,0.0,0.0,0.0,0.0,0.0,0.0,0.0,0.0
11.48,324,11,480000000,base_footprint,-0.0015018060562764785,0.0035614203399798715,0.38614890290313764,0.9224283634247349,0.0,0.0,0.0,0.0,0.0,0.0,0.0,0.0,0.0,0.0003965651482753677,1.5953026970681142e-05,-0.02006112761178211,0.0,0.0,0.0,0.0,0.0,0.0,0.0,0.0,0.0,0.0025452437607994954,0.07776421850394763,0.005125988586285395,0.0,0.0,0.0,0.0,0.0,0.0,0.0,0.0,0.0
11.514,325,11,514000000,base_footprint,-0.0014992386438938752,0.0035572727610045716,0.38593758792989435,0.9225168162786236,0.0,0.0,0.0,0.0,0.0,0.0,0.0,0.0,0.0,0.0008313870437168221,0.00035174477720251033,0.024417434476975905,0.0,0.0,0.0,0.0,0.0,0.0,0.0,0.0,0.0,-0.0029642965750923123,0.3100839638116887,-0.0015045318113066385,0.0,0.0,0.0,0.0,0.0,0.0,0.0,0.0,0.0
11.548,326,11,548000000,base_footprint,-0.0014997367150791712,0.0035582252599729498,0.3864457759902516,0.9223040453354181,0.0,0.0,0.0,0.0,0.0,0.0,0.0,0.0,0.0,0.0003515159419940522,0.0002614304634828927,0.03256168882166664,0.0,0.0,0.0,0.0,0.0,0.0,0.0,0.0,0.0,-0.005488115434343801,0.027493123483106213,-0.0008351016446174456,0.0,0.0,0.0,0.0,0.0,0.0,0.0,0.0,0.0
11.582,327,11,582000000,base_footprint,-0.001501438782579088,0.003558209706196451,0.3869526542878377,0.9220914966340739,0.0,0.0,0.0,0.0,0.0,0.0,0.0,0.0,0.0,0.0002946344749912904,0.00025167517087077774,0.03215128890231487,0.0,0.0,0.0,0.0,0.0,0.0,0.0,0.0,0.0,-0.007105827548348324,0.0056381342053488355,-0.00013259015645647785,0.0,0.0,0.0,0.0,0.0,0.0,0.0,0.0,0.0
11.616,328,11,616000000,base_footprint,-0.0015075764532371657,0.0035592944065121973,0.38751405769477254,0.9218556902929537,0.0,0.0,0.0,0.0,0.0,0.0,0.0,0.0,0.0,0.000247290256622133,-0.0009580806591806149,0.03201672527119955,0.0,0.0,0.0,0.0,0.0,0.0,0.0,0.0,0.0,0.004523211656839915,-0.5224557505902768,0.0016406012467763322,0.0,0.0,0.0,0.0,0.0,0.0,0.0,0.0,0.0
