Time,header.seq,header.stamp.secs,header.stamp.nsecs,header.frame_id,orientation.x,orientation.y,orientation.z,orientation.w,orientation_covariance_0,orientation_covariance_1,orientation_covariance_2,orientation_covariance_3,orientation_covariance_4,orientation_covariance_5,orientation_covariance_6,orientation_covariance_7,orientation_covariance_8,angular_velocity.x,angular_velocity.y,angular_velocity.z,angular_velocity_covariance_0,angular_velocity_covariance_1,angular_velocity_covariance_2,angular_velocity_covariance_3,angular_velocity_covariance_4,angular_velocity_covariance_5,angular_velocity_covariance_6,angular_velocity_covariance_7,angular_velocity_covariance_8,linear_acceleration.x,linear_acceleration.y,linear_acceleration.z,linear_acceleration_covariance_0,linear_acceleration_covariance_1,linear_acceleration_covariance_2,linear_acceleration_covariance_3,linear_acceleration_covariance_4,linear_acceleration_covariance_5,linear_acceleration_covariance_6,linear_acceleration_covariance_7,linear_acceleration_covariance_8
0.234,0,0,234000000,base_footprint,0.0006688016891989687,-2.3691820389815503e-05,0.9999997748871617,4.866851219635207e-05,0.0,0.0,0.0,0.0,0.0,0.0,0.0,0.0,0.0,-0.00043637156156428635,0.04765831043132235,-2.134956583482269e-05,0.0,0.0,0.0,0.0,0.0,0.0,0.0,0.0,0.0,0.00038332188262923093,-2.835779308155886e-05,-0.05707135537750564,0.0,0.0,0.0,0.0,0.0,0.0,0.0,0.0,0.0
0.268,1,0,268000000,base_footprint,-0.00019387259569652636,-3.273210308150102e-05,0.9999999794848383,4.870676618716415e-05,0.0,0.0,0.0,0.0,0.0,0.0,0.0,0.0,0.0,-0.0006698567502255039,0.06958071401935553,-5.816378545511535e-05,0.0,0.0,0.0,0.0,0.0,0.0,0.0,0.0,0.0,-0.0017748367728266067,-5.8642123905686376e-05,0.004162998414792807,0.0,0.0,0.0,0.0,0.0,0.0,0.0,0.0,0.0
0.30200000000000005,2,0,302000000,base_footprint,-0.0013497379872237432,-4.313081057782851e-05,0.9999990869580084,4.9297553937961086e-05,0.0,0.0,0.0,0.0,0.0,0.0,0.0,0.0,0.0,-0.0005918285474095129,0.06777839555788813,-6.87352579618521e-06,0.0,0.0,0.0,0.0,0.0,0.0,0.0,0.0,0.0,0.0003886953720020104,9.84331840394194e-05,-0.0010813202894933444,0.0,0.0,0.0,0.0,0.0,0.0,0.0,0.0,0.0
0.336,3,0,336000000,base_footprint,-0.002503757665765203,-5.354621001941503e-05,0.9999968629448619,4.930303820514493e-05,0.0,0.0,0.0,0.0,0.0,0.0,0.0,0.0,0.0,-0.0005900719312396113,0.06770224891728341,6.985222267923423e-06,0.0,0.0,0.0,0.0,0.0,0.0,0.0,0.0,0.0,-0.00023383426506900923,2.429014342787647e-05,0.00015029252265085123,0.0,0.0,0.0,0.0,0.0,0.0,0.0,0.0,0.0
0.37,4,0,370000000,base_footprint,-0.0036564817355383104,-6.394731840049114e-05,0.9999933117948941,4.916846565237894e-05,0.0,0.0,0.0,0.0,0.0,0.0,0.0,0.0,0.0,-0.0005899657343599442,0.0676262514542153,1.1785074262033905e-05,0.0,0.0,0.0,0.0,0.0,0.0,0.0,0.0,0.0,-0.00023378330293355494,6.619924256085167e-06,0.00014965943117508667,0.0,0.0,0.0,0.0,0.0,0.0,0.0,0.0,0.0
0.404,5,0,404000000,base_footprint,-0.003871347642117747,-7.302126293646739e-06,0.9999925045094961,5.948897765590012e-05,0.0,0.0,0.0,0.0,0.0,0.0,0.0,0.0,0.0,-0.0005177646415340007,-0.0001414388480234012,-0.00011134426161178994,0.0,0.0,0.0,0.0,0.0,0.0,0.0,0.0,0.0,0.008142208716329553,0.00033084139169982406,0.13188472815288663,0.0,0.0,0.0,0.0,0.0,0.0,0.0,0.0,0.0
0.438,6,0,438000000,base_footprint,-0.0038607351287094686,-7.067017553997931e-06,0.9999925455365845,5.9544817799171316e-05,0.0,0.0,0.0,0.0,0.0,0.0,0.0,0.0,0.0,3.468077025314339e-05,-0.00025172654678952834,0.00019207682628301812,0.0,0.0,0.0,0.0,0.0,0.0,0.0,0.0,0.0,-0.008444446559447337,3.250498335006004e-05,0.00016697470759398367,0.0,0.0,0.0,0.0,0.0,0.0,0.0,0.0,0.0
0.47200000000000003,7,0,472000000,base_footprint,-0.0038606715268733258,-7.159220853536517e-06,0.9999925460218334,5.536134485451821e-05,0.0,0.0,0.0,0.0,0.0,0.0,0.0,0.0,0.0,2.8355054360145354e-05,-0.00018314067541215894,0.0003071128370882442,0.0,0.0,0.0,0.0,0.0,0.0,0.0,0.0,0.0,-3.45435944909621e-05,0.0002251124837523536,-8.899244524515927e-05,0.0,0.0,0.0,0.0,0.0,0.0,0.0,0.0,0.0
0.506,8,0,506000000,base_footprint,-0.0038606115282151204,-7.206830653468367e-06,0.9999925465265956,5.0179123585459434e-05,0.0,0.0,0.0,0.0,0.0,0.0,0.0,0.0,0.0,2.9562292003392917e-05,-0.00018006986059156295,0.00033456105602317794,0.0,0.0,0.0,0.0,0.0,0.0,0.0,0.0,0.0,-7.920563817796342e-06,5.39407486530828e-05,-6.7956520873860805e-06,0.0,0.0,0.0,0.0,0.0,0.0,0.0,0.0,0.0
0.54,9,0,540000000,base_footprint,-0.0038605967973082763,-7.239408415049959e-06,0.9999925468410796,4.474651740314989e-05,0.0,0.0,0.0,0.0,0.0,0.0,0.0,0.0,0.0,2.9923768547187965e-05,-0.0001788206952891441,0.00034173334006950873,0.0,0.0,0.0,0.0,0.0,0.0,0.0,0.0,0.0,-2.083748818937416e-06,1.410012839855263e-05,-2.2211302157727742e-06,0.0,0.0,0.0,0.0,0.0,0.0,0.0,0.0,0.0
0.5740000000000001,10,0,574000000,base_footprint,-0.0038605930806364817,-7.267402542446315e-06,0.9999925470861616,3.924769462713138e-05,0.0,0.0,0.0,0.0,0.0,0.0,0.0,0.0,0.0,3.0047672084699345e-05,-0.00017850212006688393,0.0003436448608448411,0.0,0.0,0.0,0.0,0.0,0.0,0.0,0.0,0.0,-5.617463362179619e-07,3.7533581069909585e-06,-5.694522371457681e-07,0.0,0.0,0.0,0.0,0.0,0.0,0.0,0.0,0.0
0.608,11,0,608000000,base_footprint,-0.003860592296931188,-7.293829489721617e-06,0.9999925472902913,3.373116654459099e-05,0.0,0.0,0.0,0.0,0.0,0.0,0.0,0.0,0.0,3.0105391477988688e-05,-0.0001784167846703141,0.0003441637564484363,0.0,0.0,0.0,0.0,0.0,0.0,0.0,0.0,0.0,-1.5904810808842034e-07,1.0143788921545116e-06,-1.4704692921309227e-07,0.0,0.0,0.0,0.0,0.0,0.0,0.0,0.0,0.0
0.642,12,0,642000000,base_footprint,-0.0038605922919622577,-7.319521189290256e-06,0.9999925474611241,2.8209774533256027e-05,0.0,0.0,0.0,0.0,0.0,0.0,0.0,0.0,0.0,3.0143761363098096e-05,-0.0001783935191976994,0.000344313977048326,0.0,0.0,0.0,0.0,0.0,0.0,0.0,0.0,0.0,-5.241440482247645e-08,2.8926983453736853e-07,-3.5396780154754235e-08,0.0,0.0,0.0,0.0,0.0,0.0,0.0,0.0,0.0
0.676,13,0,676000000,base_footprint,-0.0038605924954519207,-7.344727684899734e-06,0.9999925476007023,2.2686918132811602e-05,0.0,0.0,0.0,0.0,0.0,0.0,0.0,0.0,0.0,3.0175329186127225e-05,-0.000178386690127229,0.0003443665900308657,0.0,0.0,0.0,0.0,0.0,0.0,0.0,0.0,0.0,-2.4175660785922837e-08,9.728626203173728e-08,-6.308729661336171e-09,0.0,0.0,0.0,0.0,0.0,0.0,0.0,0.0,0.0
0.7100000000000001,14,0,710000000,base_footprint,-0.003860592756214333,-7.369542223470778e-06,0.9999925477095691,1.7163497344544262e-05,0.0,0.0,0.0,0.0,0.0,0.0,0.0,0.0,0.0,3.0203572619670232e-05,-0.00017838422338437447,0.00034439335499222785,0.0,0.0,0.0,0.0,0.0,0.0,0.0,0.0,0.0,-1.6693710349665594e-08,4.6437248314113884e-08,9.736681107351467e-10,0.0,0.0,0.0,0.0,0.0,0.0,0.0,0.0,0.0
0.744,15,0,744000000,base_footprint,-0.0038605930340286404,-7.3940140310302006e-06,0.9999925477878675,1.163975047413427e-05,0.0,0.0,0.0,0.0,0.0,0.0,0.0,0.0,0.0,3.0229553826398317e-05,-0.00017838292147442418,0.00034441326929858025,0.0,0.0,0.0,0.0,0.0,0.0,0.0,0.0,0.0,-1.4708024933605742e-08,3.2952320337472967e-08,2.522417866812882e-09,0.0,0.0,0.0,0.0,0.0,0.0,0.0,0.0,0.0
0.778,16,0,778000000,base_footprint,-0.00386059331806668,-7.418178400603986e-06,0.9999925478356332,6.115740655682554e-06,0.0,0.0,0.0,0.0,0.0,0.0,0.0,0.0,0.0,3.025368255991539e-05,-0.0001783819371190064,0.0003444313627255382,0.0,0.0,0.0,0.0,0.0,0.0,0.0,0.0,0.0,-1.4178089919284556e-08,2.9360644572478877e-08,2.58859812143188e-09,0.0,0.0,0.0,0.0,0.0,0.0,0.0,0.0,0.0
0.812,17,0,812000000,base_footprint,-0.0038605936052975255,-7.442064869168962e-06,0.9999925478528732,5.914846462229975e-07,0.0,0.0,0.0,0.0,0.0,0.0,0.0,0.0,0.0,3.027618348251047e-05,-0.00017838104516707952,0.000344448967540122,0.0,0.0,0.0,0.0,0.0,0.0,0.0,0.0,0.0,-1.4034112956779722e-08,2.8390076495987596e-08,2.294304083240608e-09,0.0,0.0,0.0,0.0,0.0,0.0,0.0,0.0,0.0
0.8460000000000001,18,0,846000000,base_footprint,-0.0038605938947694515,-7.465699573837427e-06,0.9999925478395869,-4.93301307892232e-06,0.0,0.0,0.0,0.0,0.0,0.0,0.0,0.0,0.0,3.02972219451578e-05,-0.0001783801851692133,0.0003444664370636365,0.0,0.0,0.0,0.0,0.0,0.0,0.0,0.0,0.0,-1.3992786356788513e-08,2.8115211797189242e-08,1.9333987337370116e-09,0.0,0.0,0.0,0.0,0.0,0.0,0.0,0.0,0.0
0.881,19,0,880000000,base_footprint,-0.003860594186094924,-7.489106050160102e-06,0.999992547795772,-1.0457751300074736e-05,0.0,0.0,0.0,0.0,0.0,0.0,0.0,0.0,0.0,3.031693746359417e-05,-0.00017837934061652906,0.00034448386550514463,0.0,0.0,0.0,0.0,0.0,0.0,0.0,0.0,0.0,-1.3979081339973741e-08,2.8026367262202493e-08,1.5813380470701786e-09,0.0,0.0,0.0,0.0,0.0,0.0,0.0,0.0,0.0
0.914,20,0,914000000,base_footprint,-0.0038605944790483715,-7.5123056013951505e-06,0.9999925477214249,-1.598272966401703e-05,0.0,0.0,0.0,0.0,0.0,0.0,0.0,0.0,0.0,3.0335453994686287e-05,-0.00017837850627608706,0.000344501278292688,0.0,0.0,0.0,0.0,0.0,0.0,0.0,0.0,0.0,-1.3973063513841136e-08,2.7988205098476234e-08,1.255228826453224e-09,0.0,0.0,0.0,0.0,0.0,0.0,0.0,0.0,0.0
0.9480000000000001,21,0,948000000,base_footprint,-0.003860594773458296,-7.535317539725056e-06,0.9999925476165422,-2.1507948049936427e-05,0.0,0.0,0.0,0.0,0.0,0.0,0.0,0.0,0.0,3.035288309693606e-05,-0.00017837768044381128,0.00034451868269828526,0.0,0.0,0.0,0.0,0.0,0.0,0.0,0.0,0.0,-1.396943804320087e-08,2.796495068577982e-08,9.57729201143927e-10,0.0,0.0,0.0,0.0,0.0,0.0,0.0,0.0,0.0
0.9820000000000001,22,0,982000000,base_footprint,-0.003860595069177806,-7.558159380146132e-06,0.9999925474811207,-2.7033406402709805e-05,0.0,0.0,0.0,0.0,0.0,0.0,0.0,0.0,0.0,3.0369326003808763e-05,-0.00017837686190245265,0.0003445360811111036,0.0,0.0,0.0,0.0,0.0,0.0,0.0,0.0,0.0,-1.3966773853874334e-08,2.7946949664886902e-08,6.873788016910276e-10,0.0,0.0,0.0,0.0,0.0,0.0,0.0,0.0,0.0
1.016,23,1,16000000,base_footprint,-0.003860595366076228,-7.580847009680006e-06,0.9999925473151563,-3.255910468702969e-05,0.0,0.0,0.0,0.0,0.0,0.0,0.0,0.0,0.0,3.038487426383971e-05,-0.00017837604994687143,0.0003445534745583995,0.0,0.0,0.0,0.0,0.0,0.0,0.0,0.0,0.0,-1.3964645172351949e-08,2.793146817100725e-08,4.4189928509284576e-10,0.0,0.0,0.0,0.0,0.0,0.0,0.0,0.0,0.0
1.05,24,1,50000000,base_footprint,-0.003860595664035162,-7.603394839575559e-06,0.9999925471186457,-3.8085042875953126e-05,0.0,0.0,0.0,0.0,0.0,0.0,0.0,0.0,0.0,3.039961110064477e-05,-0.00017837524404007218,0.00034457086376982096,0.0,0.0,0.0,0.0,0.0,0.0,0.0,0.0,0.0,-1.3962943098926527e-08,2.7917877270627943e-08,2.1930365958537978e-10,0.0,0.0,0.0,0.0,0.0,0.0,0.0,0.0,0.0
1.084,25,1,84000000,base_footprint,-0.0038605959629475577,-7.62581594196773e-06,0.9999925468915852,-4.361122094759238e-05,0.0,0.0,0.0,0.0,0.0,0.0,0.0,0.0,0.0,3.04136119472123e-05,-0.00017837444349514458,0.00034458824919860603,0.0,0.0,0.0,0.0,0.0,0.0,0.0,0.0,0.0,-1.3961571591280678e-08,2.7905591310014152e-08,1.7191259632764557e-11,0.0,0.0,0.0,0.0,0.0,0.0,0.0,0.0,0.0
1.118,26,1,118000000,base_footprint,-0.003860596262716191,-7.648122174913216e-06,0.9999925466339713,-4.91376388832916e-05,0.0,0.0,0.0,0.0,0.0,0.0,0.0,0.0,0.0,3.0426945039288398e-05,-0.00017837364781253184,0.00034460563129473144,0.0,0.0,0.0,0.0,0.0,0.0,0.0,0.0,0.0,-1.396051054056915e-08,2.789456189508036e-08,-1.6600754443147112e-10,0.0,0.0,0.0,0.0,0.0,0.0,0.0,0.0,0.0
1.152,27,1,152000000,base_footprint,-0.0038605965632527387,-7.670324294767288e-06,0.9999925463457998,-5.4664296667510975e-05,0.0,0.0,0.0,0.0,0.0,0.0,0.0,0.0,0.0,3.043967260831932e-05,-0.0001783728566418691,0.0003446230105162607,0.0,0.0,0.0,0.0,0.0,0.0,0.0,0.0,0.0,-1.3959739532264352e-08,2.7884775255587337e-08,-3.323130162036321e-10,0.0,0.0,0.0,0.0,0.0,0.0,0.0,0.0,0.0
1.186,28,1,186000000,base_footprint,-0.003860596864477289,-7.692432058765518e-06,0.9999925460270676,-6.0191194287433466e-05,0.0,0.0,0.0,0.0,0.0,0.0,0.0,0.0,0.0,3.0451850845142006e-05,-0.00017837206941719114,0.00034464038717846036,0.0,0.0,0.0,0.0,0.0,0.0,0.0,0.0,0.0,-1.3959210652374226e-08,2.787591596071202e-08,-4.832551182685711e-10,0.0,0.0,0.0,0.0,0.0,0.0,0.0,0.0,0.0
1.22,29,1,220000000,base_footprint,-0.0038605971663170677,-7.714454317761259e-06,0.9999925456777703,-6.571833173276262e-05,0.0,0.0,0.0,0.0,0.0,0.0,0.0,0.0,0.0,3.0463530751934694e-05,-0.0001783712858146695,0.0003446577615882868,0.0,0.0,0.0,0.0,0.0,0.0,0.0,0.0,0.0,-1.3958902336617143e-08,2.7867939769442124e-08,-6.201745218017384e-10,0.0,0.0,0.0,0.0,0.0,0.0,0.0,0.0,0.0
1.254,30,1,254000000,base_footprint,-0.0038605974687060717,-7.736399100426835e-06,0.9999925452979047,-7.124570899539592e-05,0.0,0.0,0.0,0.0,0.0,0.0,0.0,0.0,0.0,3.0474758743815918e-05,-0.00017837050552228914,0.0003446751341163285,0.0,0.0,0.0,0.0,0.0,0.0,0.0,0.0,0.0,-1.3958821685333934e-08,2.7860946746288304e-08,-7.44286292842283e-10,0.0,0.0,0.0,0.0,0.0,0.0,0.0,0.0,0.0
1.288,31,1,288000000,base_footprint,-0.0038605977715844377,-7.758273689551875e-06,0.9999925448874665,-7.677332606901702e-05,0.0,0.0,0.0,0.0,0.0,0.0,0.0,0.0,0.0,3.0485576839316192e-05,-0.0001783697282142539,0.0003446925049769136,0.0,0.0,0.0,0.0,0.0,0.0,0.0,0.0,0.0,-1.3958911871846077e-08,2.7854606535150013e-08,-8.569869857750212e-10,0.0,0.0,0.0,0.0,0.0,0.0,0.0,0.0,0.0
1.322,32,1,322000000,base_footprint,-0.0038534985956557998,-7.612504371650506e-06,0.9999925716619865,-8.432953176989504e-05,0.0,0.0,0.0,0.0,0.0,0.0,0.0,0.0,0.0,-3.2739065495697745e-05,-0.004161010596266069,0.0002556654308666766,0.0,0.0,0.0,0.0,0.0,0.0,0.0,0.0,0.0,0.7871165405558326,-4.4048663059575015e-05,0.00889308340933238,0.0,0.0,0.0,0.0,0.0,0.0,0.0,0.0,0.0
1.356,33,1,356000000,base_footprint,-0.003853019395995408,-7.706427608014261e-06,0.9999925728945728,-9.13117611989808e-05,0.0,0.0,0.0,0.0,0.0,0.0,0.0,0.0,0.0,3.615179216091217e-06,-0.0021411237289218153,0.00026754085924397407,0.0,0.0,0.0,0.0,0.0,0.0,0.0,0.0,0.0,0.7834377633332744,0.0001665918726789375,0.006019213903544378,0.0,0.0,0.0,0.0,0.0,0.0,0.0,0.0,0.0
1.389,34,1,390000000,base_footprint,-0.0038537288220479708,-7.8162596982414e-06,0.9999925694020033,-9.92665703232883e-05,0.0,0.0,0.0,0.0,0.0,0.0,0.0,0.0,0.0,-8.325972286306656e-08,-0.002186633464797678,0.00032631108119930084,0.0,0.0,0.0,0.0,0.0,0.0,0.0,0.0,0.0,0.7846489250068213,0.00026975461379882034,0.0061132703634462614,0.0,0.0,0.0,0.0,0.0,0.0,0.0,0.0,0.0
1.424,35,1,424000000,base_footprint,-0.0038548220894460317,-7.93186955667437e-06,0.9999925643034028,-0.00010780375298387341,0.0,0.0,0.0,0.0,0.0,0.0,0.0,0.0,0.0,7.580903649441208e-05,-0.00033472672548647795,0.00027551553249789327,0.0,0.0,0.0,0.0,0.0,0.0,0.0,0.0,0.0,0.7683216083400896,6.810473669335366e-05,0.004046573856322852,0.0,0.0,0.0,0.0,0.0,0.0,0.0,0.0,0.0
1.458,36,1,458000000,base_footprint,-0.0038570251051445034,-8.051350303863777e-06,0.9999925548347083,-0.00011648032878966793,0.0,0.0,0.0,0.0,0.0,0.0,0.0,0.0,0.0,0.00011515380461704831,0.0010275837603837211,0.00021915133703511813,0.0,0.0,0.0,0.0,0.0,0.0,0.0,0.0,0.0,0.7326545350450543,6.174656695872263e-05,0.0035815736456613514,0.0,0.0,0.0,0.0,0.0,0.0,0.0,0.0,0.0
1.492,37,1,492000000,base_footprint,-0.0038603216582827077,-8.223553498918512e-06,0.9999925411401994,-0.00012455133237039144,0.0,0.0,0.0,0.0,0.0,0.0,0.0,0.0,0.0,7.752583295480858e-05,0.0005072825578547915,0.00032093230183871186,0.0,0.0,0.0,0.0,0.0,0.0,0.0,0.0,0.0,0.6630027435505245,0.00036195601206069346,0.005546799500791236,0.0,0.0,0.0,0.0,0.0,0.0,0.0,0.0,0.0
1.526,38,1,526000000,base_footprint,-0.003864177016652905,-8.387247792839717e-06,0.9999925253379313,-0.0001316582889546214,0.0,0.0,0.0,0.0,0.0,0.0,0.0,0.0,0.0,2.958400712429889e-05,-7.727474417244851e-05,0.00045901913689747856,0.0,0.0,0.0,0.0,0.0,0.0,0.0,0.0,0.0,0.5435266507930506,0.0004102706627096063,0.0046949275215264034,0.0,0.0,0.0,0.0,0.0,0.0,0.0,0.0,0.0
1.565,39,1,560000000,base_footprint,-0.003866593279017195,-8.515920762987342e-06,0.9999925150320358,-0.00013879408274717237,0.0,0.0,0.0,0.0,0.0,0.0,0.0,0.0,0.0,3.033752164078467e-05,-6.669522938901326e-05,0.0003182386182791808,0.0,0.0,0.0,0.0,0.0,0.0,0.0,0.0,0.0,0.3794871515234603,-0.00016812859152152195,0.0029431654893773765,0.0,0.0,0.0,0.0,0.0,0.0,0.0,0.0,0.0
1.594,40,1,594000000,base_footprint,-0.0038658216620014404,-8.404010011662107e-06,0.999992520847387,-0.00011662563473329563,0.0,0.0,0.0,0.0,0.0,0.0,0.0,0.0,0.0,6.644694701047214e-05,-0.0003766508213205268,-0.002871637491584988,0.0,0.0,0.0,0.0,0.0,0.0,0.0,0.0,0.0,0.18549395064127153,-0.006143683481199837,0.0020423218059350294,0.0,0.0,0.0,0.0,0.0,0.0,0.0,0.0,0.0
1.631,41,1,628000000,base_footprint,-0.0038576956105883377,-7.598253953301666e-06,0.9999925588678,-1.8326813766975704e-05,0.0,0.0,0.0,0.0,0.0,0.0,0.0,0.0,0.0,-0.0004753801808994765,-0.0033769659207542823,-0.004879695416212353,0.0,0.0,0.0,0.0,0.0,0.0,0.0,0.0,0.0,-0.0024349809405694966,-0.0038982341799057058,0.009729824948629407,0.0,0.0,0.0,0.0,0.0,0.0,0.0,0.0,0.0
1.662,42,1,662000000,base_footprint,-0.003852251867861199,-7.278542789912871e-06,0.9999925773668115,-7.28961669160124e-05,0.0,0.0,0.0,0.0,0.0,0.0,0.0,0.0,0.0,-1.487171545228999e-05,0.00033518276367319603,0.004377845916977238,0.0,0.0,0.0,0.0,0.0,0.0,0.0,0.0,0.0,0.09428937414512367,0.017978379298230054,-0.010584212580218537,0.0,0.0,0.0,0.0,0.0,0.0,0.0,0.0,0.0
1.6960000000000002,43,1,696000000,base_footprint,-0.0038530730038262065,-7.488141740037057e-06,0.9999925715477486,-0.0001030615158379302,0.0,0.0,0.0,0.0,0.0,0.0,0.0,0.0,0.0,2.8047684209703655e-05,-0.00018991608597765866,0.0013566341824826132,0.0,0.0,0.0,0.0,0.0,0.0,0.0,0.0,0.0,0.2697700027118539,-0.005808584717218919,0.003095852934872893,0.0,0.0,0.0,0.0,0.0,0.0,0.0,0.0,0.0
1.73,44,1,730000000,base_footprint,-0.0038516428128942074,-8.703582956978408e-06,0.9999925749776417,-0.00012149681218947311,0.0,0.0,0.0,0.0,0.0,0.0,0.0,0.0,0.0,-0.0006784644575502257,0.0024958869319396957,0.001193390468324784,0.0,0.0,0.0,0.0,0.0,0.0,0.0,0.0,0.0,0.4170348648121249,-0.0002252844784333367,-0.0026787531173593183,0.0,0.0,0.0,0.0,0.0,0.0,0.0,0.0,0.0
1.764,45,1,764000000,base_footprint,-0.003866109937066389,-9.244134827636455e-06,0.9999925164442346,-0.000142000097681261,0.0,0.0,0.0,0.0,0.0,0.0,0.0,0.0,0.0,7.812634032886325e-05,-0.0006375404142288891,0.0012156006751474846,0.0,0.0,0.0,0.0,0.0,0.0,0.0,0.0,0.0,0.051042062870973785,7.021546517646998e-05,0.007097298718201004,0.0,0.0,0.0,0.0,0.0,0.0,0.0,0.0,0.0
1.798,46,1,798000000,base_footprint,-0.0038749021503613488,-9.070005427123138e-06,0.9999924788315532,-0.00016532206730683908,0.0,0.0,0.0,0.0,0.0,0.0,0.0,0.0,0.0,0.00018738239206199758,-0.004020033741083582,0.000699251520657331,0.0,0.0,0.0,0.0,0.0,0.0,0.0,0.0,0.0,-0.2674500273385196,0.002630447366795496,-0.0024618597276515578,0.0,0.0,0.0,0.0,0.0,0.0,0.0,0.0,0.0
1.831,47,1,832000000,base_footprint,-0.003860185133857413,-8.741743619942207e-06,0.9999925351354503,-0.0001690197903057492,0.0,0.0,0.0,0.0,0.0,0.0,0.0,0.0,0.0,5.192637179548755e-05,-0.000364089717088605,0.0009137238483301384,0.0,0.0,0.0,0.0,0.0,0.0,0.0,0.0,0.0,-0.06262653513803214,-0.002304223477634542,-0.0006255709030624338,0.0,0.0,0.0,0.0,0.0,0.0,0.0,0.0,0.0
1.866,48,1,866000000,base_footprint,-0.003860421060760431,-8.585430910810696e-06,0.9999925322825275,-0.00018015188688541412,0.0,0.0,0.0,0.0,0.0,0.0,0.0,0.0,0.0,5.206192403896328e-05,-0.0001626884572496738,0.0004140576279171916,0.0,0.0,0.0,0.0,0.0,0.0,0.0,0.0,0.0,0.0062926947221622394,0.00012815434592675123,-0.00020286972685541524,0.0,0.0,0.0,0.0,0.0,0.0,0.0,0.0,0.0
1.899,49,1,900000000,base_footprint,-0.003861774483986223,-8.621917706406318e-06,0.9999925263592255,-0.0001839814966446984,0.0,0.0,0.0,0.0,0.0,0.0,0.0,0.0,0.0,4.1748780121319975e-05,-8.399374872614457e-05,6.889434192876252e-06,0.0,0.0,0.0,0.0,0.0,0.0,0.0,0.0,0.0,0.0055592643969361935,-4.8286327700980384e-05,-0.00012856762150943377,0.0,0.0,0.0,0.0,0.0,0.0,0.0,0.0,0.0
1.9340000000000002,50,1,934000000,base_footprint,-0.0038647082724349233,-8.873360617461949e-06,0.9999925155469046,-0.00018111158517048972,0.0,0.0,0.0,0.0,0.0,0.0,0.0,0.0,0.0,2.9046061825006638e-05,1.4592857254204953e-05,-0.00037072776962225753,0.0,0.0,0.0,0.0,0.0,0.0,0.0,0.0,0.0,0.005362797663830505,-0.0001830393986626166,-0.0001790976198666285,0.0,0.0,0.0,0.0,0.0,0.0,0.0,0.0,0.0
1.968,51,1,968000000,base_footprint,-0.0038695639188606563,-9.307654578634654e-06,0.9999924982898677,-0.00017248894027765627,0.0,0.0,0.0,0.0,0.0,0.0,0.0,0.0,0.0,-4.5189066970465486e-05,0.00016138010681683536,-0.0005795721805334265,0.0,0.0,0.0,0.0,0.0,0.0,0.0,0.0,0.0,0.004592874438128256,-0.0003647351470000527,-0.0003957921383335509,0.0,0.0,0.0,0.0,0.0,0.0,0.0,0.0,0.0
2.002,52,2,2000000,base_footprint,-0.0038635709022656088,-8.852878212239886e-06,0.9999925202066686,-0.00017964471893808793,0.0,0.0,0.0,0.0,0.0,0.0,0.0,0.0,0.0,2.5913438140374575e-05,0.0008669325776527114,0.0024118224553331055,0.0,0.0,0.0,0.0,0.0,0.0,0.0,0.0,0.0,0.21583687000369012,0.00243683901718709,0.001450667557102679,0.0,0.0,0.0,0.0,0.0,0.0,0.0,0.0,0.0
2.036,53,2,36000000,base_footprint,-0.0038754451871391773,-8.53866062024824e-06,0.9999924742565862,-0.00017967159944757446,0.0,0.0,0.0,0.0,0.0,0.0,0.0,0.0,0.0,0.00011153437344854283,7.814933912456198e-05,0.000512439575128285,0.0,0.0,0.0,0.0,0.0,0.0,0.0,0.0,0.0,0.12271669456946041,-0.0031055926879659094,0.0012932774219684689,0.0,0.0,0.0,0.0,0.0,0.0,0.0,0.0,0.0
2.07,54,2,70000000,base_footprint,-0.003875538749979943,-7.294193086799192e-06,0.9999924738982576,-0.00017970262843967067,0.0,0.0,0.0,0.0,0.0,0.0,0.0,0.0,0.0,3.392444045933682e-05,-0.00024038851266322425,-0.00043458458572596107,0.0,0.0,0.0,0.0,0.0,0.0,0.0,0.0,0.0,-0.008346671087368744,-0.00237207205140298,0.0004776287327876888,0.0,0.0,0.0,0.0,0.0,0.0,0.0,0.0,0.0
2.104,55,2,104000000,base_footprint,-0.0038694148485665615,-7.204203770250498e-06,0.999992500975431,-0.00015990538410303725,0.0,0.0,0.0,0.0,0.0,0.0,0.0,0.0,0.0,0.00010024402661898905,-0.0005213744275294895,-0.0010494343140701253,0.0,0.0,0.0,0.0,0.0,0.0,0.0,0.0,0.0,-0.036324450962630025,-0.0011989395586959803,0.00032258120174954454,0.0,0.0,0.0,0.0,0.0,0.0,0.0,0.0,0.0
2.138,56,2,138000000,base_footprint,-0.0038773723818147435,-6.4728808706185845e-06,0.9999924624215919,-0.0002025870574314751,0.0,0.0,0.0,0.0,0.0,0.0,0.0,0.0,0.0,1.9674578371518506e-05,0.0007678720850202125,0.0012680231931292102,0.0,0.0,0.0,0.0,0.0,0.0,0.0,0.0,0.0,0.006205631299618291,0.004493865116781621,-0.002401276114653899,0.0,0.0,0.0,0.0,0.0,0.0,0.0,0.0,0.0
2.172,57,2,172000000,base_footprint,-0.003873887412033131,-8.485240212867232e-06,0.9999924709455865,-0.00022577967128509902,0.0,0.0,0.0,0.0,0.0,0.0,0.0,0.0,0.0,-1.900568921902158e-05,-2.117600803305499e-05,0.0014501277356060392,0.0,0.0,0.0,0.0,0.0,0.0,0.0,0.0,0.0,0.0019498080814075508,0.00035300752738126243,0.0015705345378214724,0.0,0.0,0.0,0.0,0.0,0.0,0.0,0.0,0.0
2.206,58,2,206000000,base_footprint,-0.0038696909226001836,-9.094974909204128e-06,0.9999924803790781,-0.00025415496155419405,0.0,0.0,0.0,0.0,0.0,0.0,0.0,0.0,0.0,-1.3003074157322661e-05,-0.0002412877391215735,0.0016612439471188332,0.0,0.0,0.0,0.0,0.0,0.0,0.0,0.0,0.0,0.0011671508563159767,0.0018852510089817991,0.0003616894368192128,0.0,0.0,0.0,0.0,0.0,0.0,0.0,0.0,0.0
2.24,59,2,240000000,base_footprint,-0.003866589457507633,-1.004449016195279e-05,0.9999924846315158,-0.0002829585888302777,0.0,0.0,0.0,0.0,0.0,0.0,0.0,0.0,0.0,-6.342878391233603e-05,-0.00034194764934760623,0.0017253120015939239,0.0,0.0,0.0,0.0,0.0,0.0,0.0,0.0,0.0,0.0040276450050640905,-0.00013896032623318566,0.00039496750054311274,0.0,0.0,0.0,0.0,0.0,0.0,0.0,0.0,0.0
2.274,60,2,274000000,base_footprint,-0.003862529005568871,-9.44085023061937e-06,0.9999924925046374,-0.00030937827081121375,0.0,0.0,0.0,0.0,0.0,0.0,0.0,0.0,0.0,7.364832932644719e-05,-0.00034374118601967124,0.0013070871618381433,0.0,0.0,0.0,0.0,0.0,0.0,0.0,0.0,0.0,0.005622185156899638,0.0002402335548211711,0.00013183414152968622,0.0,0.0,0.0,0.0,0.0,0.0,0.0,0.0,0.0
2.308,61,2,308000000,base_footprint,-0.003860624503013977,-9.034091553368856e-06,0.9999924939409043,-0.0003279614040989245,0.0,0.0,0.0,0.0,0.0,0.0,0.0,0.0,0.0,6.165988909804856e-05,-0.0002479935715732078,0.0008494998986932289,0.0,0.0,0.0,0.0,0.0,0.0,0.0,0.0,0.0,0.005914855775229823,0.00023458559661842338,-0.00013813258032010508,0.0,0.0,0.0,0.0,0.0,0.0,0.0,0.0,0.0
2.342,62,2,342000000,base_footprint,-0.0038604168112746397,-8.876392158747983e-06,0.9999924911509852,-0.0003387401655546531,0.0,0.0,0.0,0.0,0.0,0.0,0.0,0.0,0.0,5.082691720848772e-05,-0.00016596438953037508,0.00039027813903237495,0.0,0.0,0.0,0.0,0.0,0.0,0.0,0.0,0.0,0.005932168185193634,8.45035328369571e-05,-0.00012251837758117822,0.0,0.0,0.0,0.0,0.0,0.0,0.0,0.0,0.0
2.376,63,2,376000000,base_footprint,-0.0038617851632926047,-8.951204540085025e-06,0.9999924848184514,-0.0003418213682614429,0.0,0.0,0.0,0.0,0.0,0.0,0.0,0.0,0.0,3.891890777024109e-05,-7.864721506751112e-05,-5.4669897732192615e-05,0.0,0.0,0.0,0.0,0.0,0.0,0.0,0.0,0.0,0.00587400740488449,-6.430426585799893e-05,-0.00014369040548742885,0.0,0.0,0.0,0.0,0.0,0.0,0.0,0.0,0.0
2.41,64,2,410000000,base_footprint,-0.0038649086963079204,-9.273055435472789e-06,0.9999924741730767,-0.0003376269956736398,0.0,0.0,0.0,0.0,0.0,0.0,0.0,0.0,0.0,2.4261040751813657e-05,3.196381149564299e-05,-0.0004619189833502729,0.0,0.0,0.0,0.0,0.0,0.0,0.0,0.0,0.0,0.0056525078718739,-0.00021034504226825885,-0.00020247822081671633,0.0,0.0,0.0,0.0,0.0,0.0,0.0,0.0,0.0
2.444,65,2,444000000,base_footprint,-0.003870036317538191,-9.61427351242978e-06,0.999992457694954,-0.0003275357573929317,0.0,0.0,0.0,0.0,0.0,0.0,0.0,0.0,0.0,6.233679078245026e-06,9.670944254055616e-05,-0.0006414741530197587,0.0,0.0,0.0,0.0,0.0,0.0,0.0,0.0,0.0,0.00472641142642245,-0.0004911750286368521,-0.00030463234489358455,0.0,0.0,0.0,0.0,0.0,0.0,0.0,0.0,0.0
2.478,66,2,478000000,base_footprint,-0.0038729802897474875,-9.227574935348812e-06,0.9999924496565266,-0.0003171253163530368,0.0,0.0,0.0,0.0,0.0,0.0,0.0,0.0,0.0,3.574396875277673e-05,6.179491410715898e-05,-0.0005399050990574061,0.0,0.0,0.0,0.0,0.0,0.0,0.0,0.0,0.0,0.0017872086946182308,-0.0010423465795974137,5.245534474810368e-05,0.0,0.0,0.0,0.0,0.0,0.0,0.0,0.0,0.0
2.512,67,2,512000000,base_footprint,-0.0038663892470742578,-1.0615996181877527e-05,0.9999924665208791,-0.00034325352027987795,0.0,0.0,0.0,0.0,0.0,0.0,0.0,0.0,0.0,-3.00255683726962e-05,0.003607944542891657,0.0007171307660468049,0.0,0.0,0.0,0.0,0.0,0.0,0.0,0.0,0.0,-0.29356490360673226,-0.00209882369945876,-0.008443965735239041,0.0,0.0,0.0,0.0,0.0,0.0,0.0,0.0,0.0
2.5460000000000003,68,2,546000000,base_footprint,-0.003873632065929962,-9.187832579305832e-06,0.9999924349476305,-0.00035346528945241794,0.0,0.0,0.0,0.0,0.0,0.0,0.0,0.0,0.0,0.00019954668967070958,-7.657408351478916e-05,0.0008287083363483349,0.0,0.0,0.0,0.0,0.0,0.0,0.0,0.0,0.0,-0.05746080807316501,0.00018260611240678492,0.006123752267093822,0.0,0.0,0.0,0.0,0.0,0.0,0.0,0.0,0.0
2.58,69,2,580000000,base_footprint,-0.0038684588801220976,-7.5768729976583915e-06,0.9999924602930261,-0.00033812066550094187,0.0,0.0,0.0,0.0,0.0,0.0,0.0,0.0,0.0,6.329382800437861e-05,-0.00034648023632195466,-0.0003545322631902897,0.0,0.0,0.0,0.0,0.0,0.0,0.0,0.0,0.0,-0.029790384374662977,-0.0023122128709859887,0.0002736432771482048,0.0,0.0,0.0,0.0,0.0,0.0,0.0,0.0,0.0
2.614,70,2,614000000,base_footprint,-0.0038760462680772524,-7.024246714474713e-06,0.9999924081017089,-0.000399943662505293,0.0,0.0,0.0,0.0,0.0,0.0,0.0,0.0,0.0,8.500000882417238e-05,0.0004187757948303679,0.0026625531788794813,0.0,0.0,0.0,0.0,0.0,0.0,0.0,0.0,0.0,-0.013498894164255367,0.0058393195557595945,-0.002003542853380161,0.0,0.0,0.0,0.0,0.0,0.0,0.0,0.0,0.0
2.648,71,2,648000000,base_footprint,-0.003873933869927649,-9.385534808474254e-06,0.9999924053748329,-0.00042631084815962115,0.0,0.0,0.0,0.0,0.0,0.0,0.0,0.0,0.0,4.5641938680353e-05,8.764357151900005e-05,0.002168586972836309,0.0,0.0,0.0,0.0,0.0,0.0,0.0,0.0,0.0,0.011301114304607094,-0.0006160759444578336,0.0011780984339526462,0.0,0.0,0.0,0.0,0.0,0.0,0.0,0.0,0.0
2.682,72,2,682000000,base_footprint,-0.00387022350210927,-9.878220998985387e-06,0.9999924077795798,-0.0004534927378438154,0.0,0.0,0.0,0.0,0.0,0.0,0.0,0.0,0.0,-1.5202458742125071e-05,-0.0002597136916952547,0.001612887061710344,0.0,0.0,0.0,0.0,0.0,0.0,0.0,0.0,0.0,0.0024017312229086644,0.002260759688713038,0.0005978030728583505,0.0,0.0,0.0,0.0,0.0,0.0,0.0,0.0,0.0
2.716,73,2,716000000,base_footprint,-0.0038697809848597074,-9.316591022811534e-06,0.99999238484276,-0.0005049404123270415,0.0,0.0,0.0,0.0,0.0,0.0,0.0,0.0,0.0,-0.00047667588240584254,0.0015568003467790416,-0.0005725217562644508,0.0,0.0,0.0,0.0,0.0,0.0,0.0,0.0,0.0,0.34304649304348234,-0.0013586706737857292,-0.0002523296161452591,0.0,0.0,0.0,0.0,0.0,0.0,0.0,0.0,0.0
2.75,74,2,750000000,base_footprint,-0.0038631879469025296,-1.038978344796977e-05,0.9999924000209879,-0.0005249487632292143,0.0,0.0,0.0,0.0,0.0,0.0,0.0,0.0,0.0,7.342121324326915e-05,-0.0004497545648995924,0.0013032130329144965,0.0,0.0,0.0,0.0,0.0,0.0,0.0,0.0,0.0,0.0067975227310415045,0.0025444429702133836,0.0035222969761616097,0.0,0.0,0.0,0.0,0.0,0.0,0.0,0.0,0.0
2.784,75,2,784000000,base_footprint,-0.0038608671310630047,-9.94512017460489e-06,0.9999923988534731,-0.0005439130143464188,0.0,0.0,0.0,0.0,0.0,0.0,0.0,0.0,0.0,6.33866531850521e-05,-0.00026301330430234643,0.0008768906781884369,0.0,0.0,0.0,0.0,0.0,0.0,0.0,0.0,0.0,0.0057787699878111744,0.00019649913029683096,-0.00025185887111565903,0.0,0.0,0.0,0.0,0.0,0.0,0.0,0.0,0.0
2.818,76,2,818000000,base_footprint,-0.003860377617302395,-9.755371280254017e-06,0.99999239453272,-0.0005552172561431639,0.0,0.0,0.0,0.0,0.0,0.0,0.0,0.0,0.0,5.261125365805695e-05,-0.00018041810955236458,0.0004247920384729107,0.0,0.0,0.0,0.0,0.0,0.0,0.0,0.0,0.0,0.005931254154595968,0.00010499766650073166,-0.00012198362706501362,0.0,0.0,0.0,0.0,0.0,0.0,0.0,0.0,0.0
2.8520000000000003,77,2,852000000,base_footprint,-0.0038614615526547584,-9.795834076332185e-06,0.999992388287287,-0.0005589152055051508,0.0,0.0,0.0,0.0,0.0,0.0,0.0,0.0,0.0,4.108524214975242e-05,-9.528917787337364e-05,-1.7216551811026586e-05,0.0,0.0,0.0,0.0,0.0,0.0,0.0,0.0,0.0,0.005883749616254307,-4.121219597322175e-05,-0.00013742960880821839,0.0,0.0,0.0,0.0,0.0,0.0,0.0,0.0,0.0
2.886,78,2,886000000,base_footprint,-0.003864248213892454,-1.0077175702183238e-05,0.9999923795077561,-0.0005553472859427297,0.0,0.0,0.0,0.0,0.0,0.0,0.0,0.0,0.0,2.702707793494315e-05,9.902255346035844e-06,-0.00042673632139907087,0.0,0.0,0.0,0.0,0.0,0.0,0.0,0.0,0.0,0.005705923709245377,-0.00018650696997398228,-0.00018930264906531205,0.0,0.0,0.0,0.0,0.0,0.0,0.0,0.0,0.0
2.92,79,2,920000000,base_footprint,-0.0038700715068751288,-1.6241368959157174e-05,0.9999907927035567,-0.0018538583716038396,0.0,0.0,0.0,0.0,0.0,0.0,0.0,0.0,0.0,-0.0007103607181740052,4.8412947899092684e-05,0.08938273737929386,0.0,0.0,0.0,0.0,0.0,0.0,0.0,0.0,0.0,-0.019061278654218465,0.015807418267151107,-0.00037818004690463847,0.0,0.0,0.0,0.0,0.0,0.0,0.0,0.0,0.0
2.954,80,2,954000000,base_footprint,-0.00387481626923278,-2.2057030407102565e-05,0.9999868126156797,-0.0033704461278331443,0.0,0.0,0.0,0.0,0.0,0.0,0.0,0.0,0.0,-0.000719749841875102,9.93839972917052e-05,0.08915716213723672,0.0,0.0,0.0,0.0,0.0,0.0,0.0,0.0,0.0,0.0025940154994210417,0.01836844684799301,-0.00019400189518257833,0.0,0.0,0.0,0.0,0.0,0.0,0.0,0.0,0.0
2.988,81,2,988000000,base_footprint,-0.0038781398004753644,-2.8698856241362825e-05,0.9999805941706162,-0.0048754989739461085,0.0,0.0,0.0,0.0,0.0,0.0,0.0,0.0,0.0,-0.0007587262420927722,1.3755340792348654e-05,0.08757313306933107,0.0,0.0,0.0,0.0,0.0,0.0,0.0,0.0,0.0,-0.0007223904275144344,0.01882166206158479,0.00011274546585437697,0.0,0.0,0.0,0.0,0.0,0.0,0.0,0.0,0.0
3.022,82,3,22000000,base_footprint,-0.003877956694194409,-3.514609430226e-05,0.9999733717058665,-0.0061819168411581206,0.0,0.0,0.0,0.0,0.0,0.0,0.0,0.0,0.0,-0.0007093161505366417,-0.00031040819812791487,0.07512081148639357,0.0,0.0,0.0,0.0,0.0,0.0,0.0,0.0,0.0,-0.002875264459918892,0.013669117920268682,0.0005778988469912724,0.0,0.0,0.0,0.0,0.0,0.0,0.0,0.0,0.0
3.056,83,3,56000000,base_footprint,-0.0038709904612292505,-4.107776824939725e-05,0.999965773015105,-0.00731208204067318,0.0,0.0,0.0,0.0,0.0,0.0,0.0,0.0,0.0,-0.00019478080226942773,-0.0002276777010313956,0.05108956566582961,0.0,0.0,0.0,0.0,0.0,0.0,0.0,0.0,0.0,-0.04153163526602346,0.023898593180133175,-0.00036496865015571184,0.0,0.0,0.0,0.0,0.0,0.0,0.0,0.0,0.0
3.09,84,3,90000000,base_footprint,-0.0038719239809833364,-3.762931553009603e-05,0.9999582299462183,-0.008279199933951143,0.0,0.0,0.0,0.0,0.0,0.0,0.0,0.0,0.0,0.004147521201511796,0.0014625437365612022,0.060508480859614425,0.0,0.0,0.0,0.0,0.0,0.0,0.0,0.0,0.0,-0.03733694155027716,0.010545029408883695,-0.0018932217575195643,0.0,0.0,0.0,0.0,0.0,0.0,0.0,0.0,0.0
3.124,85,3,124000000,base_footprint,-0.003869572792916621,-4.022594122372576e-05,0.9999551217635437,-0.008647499472699487,0.0,0.0,0.0,0.0,0.0,0.0,0.0,0.0,0.0,-0.001331243711805714,0.00046317192796653864,0.0013629265339311946,0.0,0.0,0.0,0.0,0.0,0.0,0.0,0.0,0.0,0.05172828708881187,0.0028021632631976563,7.875006652290405e-05,0.0,0.0,0.0,0.0,0.0,0.0,0.0,0.0,0.0
3.158,86,3,158000000,base_footprint,-0.0038703222991086856,-4.296342730739205e-05,0.9999553934646226,-0.008615674115046814,0.0,0.0,0.0,0.0,0.0,0.0,0.0,0.0,0.0,1.7067834572894358e-05,-0.0002624085778914487,-0.0013135291154925941,0.0,0.0,0.0,0.0,0.0,0.0,0.0,0.0,0.0,0.013881957189593749,0.0004795486641649565,0.002146848468032719,0.0,0.0,0.0,0.0,0.0,0.0,0.0,0.0,0.0
3.192,87,3,192000000,base_footprint,-0.0038667085948822597,-4.2790222832438166e-05,0.999955748544995,-0.00857599472118757,0.0,0.0,0.0,0.0,0.0,0.0,0.0,0.0,0.0,-0.0008523752177057206,-0.0008786726287771715,-0.015398469143522215,0.0,0.0,0.0,0.0,0.0,0.0,0.0,0.0,0.0,0.005781429298576126,-0.0020581233439286774,0.0010679847844647504,0.0,0.0,0.0,0.0,0.0,0.0,0.0,0.0,0.0
3.226,88,3,226000000,base_footprint,-0.0038629061508068416,-4.1267845703501644e-05,0.999958175953886,-0.008289909288547878,0.0,0.0,0.0,0.0,0.0,0.0,0.0,0.0,0.0,0.0002326602796061164,-0.00034180287615516393,-0.01678530494974864,0.0,0.0,0.0,0.0,0.0,0.0,0.0,0.0,0.0,0.007561765107440687,-0.0017837906268347442,-0.0005487760374619468,0.0,0.0,0.0,0.0,0.0,0.0,0.0,0.0,0.0
3.26,89,3,260000000,base_footprint,-0.0038608961333711366,-3.94728802879503e-05,0.9999605343894358,-0.008001349044578434,0.0,0.0,0.0,0.0,0.0,0.0,0.0,0.0,0.0,0.00021733113542015339,-0.00025016653734292175,-0.01717793982854149,0.0,0.0,0.0,0.0,0.0,0.0,0.0,0.0,0.0,0.0059920475832957966,-0.003534694195227487,-0.00013387059823634194,0.0,0.0,0.0,0.0,0.0,0.0,0.0,0.0,0.0
3.294,90,3,294000000,base_footprint,-0.00387096083598193,-3.835167869621487e-05,0.9999627848460311,-0.007709936077890277,0.0,0.0,0.0,0.0,0.0,0.0,0.0,0.0,0.0,-1.3169452676321946e-05,0.0007072251435972861,-0.015894474474505454,0.0,0.0,0.0,0.0,0.0,0.0,0.0,0.0,0.0,-0.16830999285504475,-0.004361167805777395,-0.001059594974286688,0.0,0.0,0.0,0.0,0.0,0.0,0.0,0.0,0.0
3.328,91,3,328000000,base_footprint,-0.0038605764442136456,-3.734473689352658e-05,0.9999626680684481,-0.007730266768988704,0.0,0.0,0.0,0.0,0.0,0.0,0.0,0.0,0.0,9.682068104228088e-06,0.00011260185780627302,-0.008873054293146578,0.0,0.0,0.0,0.0,0.0,0.0,0.0,0.0,0.0,-0.16352737932554473,-0.009598072391988122,-0.0020663375806380556,0.0,0.0,0.0,0.0,0.0,0.0,0.0,0.0,0.0
3.362,92,3,362000000,base_footprint,-0.0038643317583318105,-3.7343154540408646e-05,0.9999637861928705,-0.007582337922408494,0.0,0.0,0.0,0.0,0.0,0.0,0.0,0.0,0.0,0.00011141357122606277,1.046542103007678e-07,-0.008746774100222296,0.0,0.0,0.0,0.0,0.0,0.0,0.0,0.0,0.0,0.005813534041144978,-0.001838264002218992,6.142039644115188e-05,0.0,0.0,0.0,0.0,0.0,0.0,0.0,0.0,0.0
3.396,93,3,396000000,base_footprint,-0.00386843290950821,-3.62452231682282e-05,0.9999651303299701,-0.007400813284645803,0.0,0.0,0.0,0.0,0.0,0.0,0.0,0.0,0.0,0.000106414660004175,0.0001416813218252137,-0.018427076108426005,0.0,0.0,0.0,0.0,0.0,0.0,0.0,0.0,0.0,0.007069302814167627,-0.0024191423477394557,-0.00046364201089311134,0.0,0.0,0.0,0.0,0.0,0.0,0.0,0.0,0.0
3.43,94,3,430000000,base_footprint,-0.003872479385745889,-3.574265724695239e-05,0.9999673217750084,-0.007096337646036162,0.0,0.0,0.0,0.0,0.0,0.0,0.0,0.0,0.0,0.00018689866215141382,3.799241560437958e-05,-0.01791246835201437,0.0,0.0,0.0,0.0,0.0,0.0,0.0,0.0,0.0,0.002891199077229447,-0.004345698696247763,0.00022316173871687428,0.0,0.0,0.0,0.0,0.0,0.0,0.0,0.0,0.0
3.464,95,3,464000000,base_footprint,-0.003875435579226237,-3.4037266515275675e-05,0.9999694131552588,-0.006793570082322047,0.0,0.0,0.0,0.0,0.0,0.0,0.0,0.0,0.0,0.0001812109910039739,3.582312616547871e-05,-0.0176429105800475,0.0,0.0,0.0,0.0,0.0,0.0,0.0,0.0,0.0,-0.002679237011787454,-0.004013472496400502,-3.3011675721605256e-05,0.0,0.0,0.0,0.0,0.0,0.0,0.0,0.0,0.0
3.498,96,3,498000000,base_footprint,-0.0038654520133742064,-3.339444627208562e-05,0.9999713591699171,-0.006506766125495839,0.0,0.0,0.0,0.0,0.0,0.0,0.0,0.0,0.0,0.00022312720628900153,-0.0044013573522975,-0.014970116667875148,0.0,0.0,0.0,0.0,0.0,0.0,0.0,0.0,0.0,0.05690823719715825,-0.0009112470787680405,0.007102731412283057,0.0,0.0,0.0,0.0,0.0,0.0,0.0,0.0,0.0
3.532,97,3,532000000,base_footprint,-0.0038601729020518545,-3.23042414578299e-05,0.999972743244299,-0.006293710358250607,0.0,0.0,0.0,0.0,0.0,0.0,0.0,0.0,0.0,0.00022295175812727516,-6.57171120093318e-05,-0.011413071963327052,0.0,0.0,0.0,0.0,0.0,0.0,0.0,0.0,0.0,0.05021274001681726,-0.01326206509089887,-0.0056392444672957905,0.0,0.0,0.0,0.0,0.0,0.0,0.0,0.0,0.0
3.566,98,3,566000000,base_footprint,-0.0038571843439182013,-3.850100874491248e-05,0.999971001476945,-0.006566342346029304,0.0,0.0,0.0,0.0,0.0,0.0,0.0,0.0,0.0,0.00025177227667311886,0.0015250991802845304,0.04720897559430446,0.0,0.0,0.0,0.0,0.0,0.0,0.0,0.0,0.0,-0.0057101512733272195,0.024028134171587404,-0.0012806797686932144,0.0,0.0,0.0,0.0,0.0,0.0,0.0,0.0,0.0
3.6,99,3,600000000,base_footprint,-0.003871810320402346,-4.4202926330487964e-05,0.9999651919753997,-0.007390667665796306,0.0,0.0,0.0,0.0,0.0,0.0,0.0,0.0,0.0,7.632129211434204e-05,0.001038934787495883,0.05179306600037798,0.0,0.0,0.0,0.0,0.0,0.0,0.0,0.0,0.0,0.16966008491996412,0.0065748770479279114,0.00037995382645401063,0.0,0.0,0.0,0.0,0.0,0.0,0.0,0.0,0.0
3.634,100,3,634000000,base_footprint,-0.003872688270137045,-4.228690644626719e-05,0.9999562825284517,-0.008510788991575669,0.0,0.0,0.0,0.0,0.0,0.0,0.0,0.0,0.0,-0.0005172558834997879,-0.0002630260926287168,0.06711498290173996,0.0,0.0,0.0,0.0,0.0,0.0,0.0,0.0,0.0,0.010939434358967328,0.014862031376128472,0.002220013999002999,0.0,0.0,0.0,0.0,0.0,0.0,0.0,0.0,0.0
3.668,101,3,668000000,base_footprint,-0.0038691623201583506,-4.732458754938637e-05,0.9999459157166682,-0.009653651375391276,0.0,0.0,0.0,0.0,0.0,0.0,0.0,0.0,0.0,-0.0004212077904888897,-0.0003681791539014846,0.06712885774353061,0.0,0.0,0.0,0.0,0.0,0.0,0.0,0.0,0.0,0.002384724798328211,0.014973386595389037,0.0005046049399974904,0.0,0.0,0.0,0.0,0.0,0.0,0.0,0.0,0.0
3.702,102,3,702000000,base_footprint,-0.0038627477448231074,-5.061418920734026e-05,0.9999347127684468,-0.010753921087108898,0.0,0.0,0.0,0.0,0.0,0.0,0.0,0.0,0.0,-0.0003768636371915274,-0.00039881421888729684,0.06040355513928185,0.0,0.0,0.0,0.0,0.0,0.0,0.0,0.0,0.0,0.005325069707961128,0.013498578278073397,0.00010467712773422997,0.0,0.0,0.0,0.0,0.0,0.0,0.0,0.0,0.0
3.736,103,3,736000000,base_footprint,-0.0038606365646717423,-5.365960197896313e-05,0.999923187737882,-0.011777573182750302,0.0,0.0,0.0,0.0,0.0,0.0,0.0,0.0,0.0,-0.00036428309558800607,-0.00027859586527638946,0.0600266251986289,0.0,0.0,0.0,0.0,0.0,0.0,0.0,0.0,0.0,0.005489996701560978,0.013710250669516132,-0.00019169985542484734,0.0,0.0,0.0,0.0,0.0,0.0,0.0,0.0,0.0
3.77,104,3,770000000,base_footprint,-0.003859948997987521,-5.697248882458005e-05,0.9999106954389174,-0.01279447907221329,0.0,0.0,0.0,0.0,0.0,0.0,0.0,0.0,0.0,-0.0003743208218567098,-0.00019680174930596754,0.059623444337896125,0.0,0.0,0.0,0.0,0.0,0.0,0.0,0.0,0.0,0.005260050451210056,0.013349546726885613,-0.00012346745147263848,0.0,0.0,0.0,0.0,0.0,0.0,0.0,0.0,0.0
3.8040000000000003,105,3,804000000,base_footprint,-0.0038608260392308923,-6.050034247416223e-05,0.9998971671494031,-0.013811063992394294,0.0,0.0,0.0,0.0,0.0,0.0,0.0,0.0,0.0,-0.00038615049288632033,-0.0001157818859910512,0.06008898811580401,0.0,0.0,0.0,0.0,0.0,0.0,0.0,0.0,0.0,0.004938308378010211,0.01328700337316159,-0.00013262402730594987,0.0,0.0,0.0,0.0,0.0,0.0,0.0,0.0,0.0
3.838,106,3,838000000,base_footprint,-0.0038634024058380747,-6.417781151274042e-05,0.9998825791471126,-0.014828955498518741,0.0,0.0,0.0,0.0,0.0,0.0,0.0,0.0,0.0,-0.0003921081583662092,-8.906787751008165e-06,0.05968190103653175,0.0,0.0,0.0,0.0,0.0,0.0,0.0,0.0,0.0,0.004976348191438885,0.013357570295210501,-0.00019154309084715369,0.0,0.0,0.0,0.0,0.0,0.0,0.0,0.0,0.0
3.872,107,3,872000000,base_footprint,-0.003867864939852444,-6.809847547626747e-05,0.9998670582912863,-0.015839846190357828,0.0,0.0,0.0,0.0,0.0,0.0,0.0,0.0,0.0,-0.0003816176780657868,9.361302251018255e-05,0.059235227353106094,0.0,0.0,0.0,0.0,0.0,0.0,0.0,0.0,0.0,0.0043982232669784824,0.01313416802632377,-0.0002764604653215179,0.0,0.0,0.0,0.0,0.0,0.0,0.0,0.0,0.0
3.906,108,3,906000000,base_footprint,-0.0038596648984488982,-7.271539455798977e-05,0.9998484919828029,-0.016973237141396546,0.0,0.0,0.0,0.0,0.0,0.0,0.0,0.0,0.0,-0.00043509903760755676,-0.0013466272150941465,0.0872785202448579,0.0,0.0,0.0,0.0,0.0,0.0,0.0,0.0,0.0,-0.32324916471153536,-0.005846075702832105,-0.0002480044710816208,0.0,0.0,0.0,0.0,0.0,0.0,0.0,0.0,0.0
3.94,109,3,940000000,base_footprint,-0.0038660589289033548,-7.69110714150017e-05,0.9998243430919992,-0.018339319335723636,0.0,0.0,0.0,0.0,0.0,0.0,0.0,0.0,0.0,0.0006719555439731533,0.0005793329013196138,0.05038321984220086,0.0,0.0,0.0,0.0,0.0,0.0,0.0,0.0,0.0,-0.005506611022273047,0.014527406719770698,-0.0029231578041025177,0.0,0.0,0.0,0.0,0.0,0.0,0.0,0.0,0.0
3.974,110,3,974000000,base_footprint,-0.0038744275355986194,-8.132780028117496e-05,0.999808215384973,-0.019196735289524057,0.0,0.0,0.0,0.0,0.0,0.0,0.0,0.0,0.0,-0.0003453698834968691,-0.0002804807792928771,0.05073384934299342,0.0,0.0,0.0,0.0,0.0,0.0,0.0,0.0,0.0,-0.007817865720285104,0.005383466823442143,0.0011284412975753448,0.0,0.0,0.0,0.0,0.0,0.0,0.0,0.0,0.0
4.008,111,4,8000000,base_footprint,-0.003868404062605581,-8.395897839036474e-05,0.999791975592714,-0.020025831850792767,0.0,0.0,0.0,0.0,0.0,0.0,0.0,0.0,0.0,-0.00038701925511722493,-0.0005921369720844077,0.04243842823788042,0.0,0.0,0.0,0.0,0.0,0.0,0.0,0.0,0.0,-0.002026412048953179,0.012224103382813635,0.0005946763320863133,0.0,0.0,0.0,0.0,0.0,0.0,0.0,0.0,0.0
4.042,112,4,42000000,base_footprint,-0.003869151455199329,-8.435898167440349e-05,0.9997782770886922,-0.020698290077815984,0.0,0.0,0.0,0.0,0.0,0.0,0.0,0.0,0.0,-9.959105733744111e-06,0.00048433953754360346,0.054551677936997,0.0,0.0,0.0,0.0,0.0,0.0,0.0,0.0,0.0,-0.060464527517963676,0.008529398190821083,-0.0022263966053252967,0.0,0.0,0.0,0.0,0.0,0.0,0.0,0.0,0.0
4.076,113,4,76000000,base_footprint,-0.0038711481348551262,-9.196680852338544e-05,0.9997578350395031,-0.021662802943061162,0.0,0.0,0.0,0.0,0.0,0.0,0.0,0.0,0.0,-0.0006065594164875209,3.8254013450398825e-05,0.05007421102345942,0.0,0.0,0.0,0.0,0.0,0.0,0.0,0.0,0.0,0.0018268292672755176,0.011397930034273284,0.0007967983432121925,0.0,0.0,0.0,0.0,0.0,0.0,0.0,0.0,0.0
4.11,114,4,110000000,base_footprint,-0.003870744873993628,-9.699159255764548e-05,0.9997414418259365,-0.022406637912663518,0.0,0.0,0.0,0.0,0.0,0.0,0.0,0.0,0.0,-0.0003632246382733595,-0.00020246367815090184,0.0448293189459068,0.0,0.0,0.0,0.0,0.0,0.0,0.0,0.0,0.0,0.01665778925316712,0.009035452416586013,0.00040632974221075713,0.0,0.0,0.0,0.0,0.0,0.0,0.0,0.0,0.0
4.144,115,4,144000000,base_footprint,-0.0038673503184849683,-0.00010002123200617607,0.9997241305989486,-0.023166706616258703,0.0,0.0,0.0,0.0,0.0,0.0,0.0,0.0,0.0,-0.00040759681806943184,-0.00037550439566799357,0.0449857132178896,0.0,0.0,0.0,0.0,0.0,0.0,0.0,0.0,0.0,0.00296636553624266,0.010072132492814558,0.00044211632321547315,0.0,0.0,0.0,0.0,0.0,0.0,0.0,0.0,0.0
4.178,116,4,178000000,base_footprint,-0.003864140429161589,-0.00010324685043362632,0.9997060682997256,-0.023933966732155487,0.0,0.0,0.0,0.0,0.0,0.0,0.0,0.0,0.0,-0.00018929545786569961,-0.0004291076528032051,0.04526770284550909,0.0,0.0,0.0,0.0,0.0,0.0,0.0,0.0,0.0,0.0032417765337285124,0.00972068914548463,0.0003273070873848524,0.0,0.0,0.0,0.0,0.0,0.0,0.0,0.0,0.0
4.212,117,4,212000000,base_footprint,-0.0038611066613297297,-0.00010261136618635213,0.9997016815585628,-0.02411699017786688,0.0,0.0,0.0,0.0,0.0,0.0,0.0,0.0,0.0,0.0001923094798321111,-0.00022479872074455346,-0.006903343325057134,0.0,0.0,0.0,0.0,0.0,0.0,0.0,0.0,0.0,0.0005399558828562784,0.002564597883876688,-0.00026721772229307045,0.0,0.0,0.0,0.0,0.0,0.0,0.0,0.0,0.0
4.246,118,4,246000000,base_footprint,-0.003860286845110833,-0.00010261618624837123,0.9996969229104079,-0.024313576019453012,0.0,0.0,0.0,0.0,0.0,0.0,0.0,0.0,0.0,-8.442766192437952e-05,-0.0004101730242744589,0.037684113582159666,0.0,0.0,0.0,0.0,0.0,0.0,0.0,0.0,0.0,0.354352057619641,0.038600367407340797,0.0028750891350538916,0.0,0.0,0.0,0.0,0.0,0.0,0.0,0.0,0.0
4.28,119,4,280000000,base_footprint,-0.003859563515349007,-0.00010396617370371798,0.9996811095896638,-0.024955402022092447,0.0,0.0,0.0,0.0,0.0,0.0,0.0,0.0,0.0,-0.00018570402385982538,-0.00014510668010223773,0.0376154199616796,0.0,0.0,0.0,0.0,0.0,0.0,0.0,0.0,0.0,0.0015222510164603538,0.006558168386867705,-0.0003747471665861147,0.0,0.0,0.0,0.0,0.0,0.0,0.0,0.0,0.0
4.314,120,4,314000000,base_footprint,-0.0038613830076965764,-0.00010548338565590546,0.99966716908682,-0.02550744292293415,0.0,0.0,0.0,0.0,0.0,0.0,0.0,0.0,0.0,-0.0001384994837236746,-6.181692604179795e-05,0.03055777391855209,0.0,0.0,0.0,0.0,0.0,0.0,0.0,0.0,0.0,0.006820052886722771,0.007782101137470526,-0.00012916218092098546,0.0,0.0,0.0,0.0,0.0,0.0,0.0,0.0,0.0
4.348,121,4,348000000,base_footprint,-0.003865044278561613,-0.00010694734658692252,0.9996538719759317,-0.02602280228025863,0.0,0.0,0.0,0.0,0.0,0.0,0.0,0.0,0.0,-0.00014291261875990944,7.148551175232851e-05,0.030093215187339185,0.0,0.0,0.0,0.0,0.0,0.0,0.0,0.0,0.0,0.0047567004993884845,0.00705797910846859,-0.0002407436019227168,0.0,0.0,0.0,0.0,0.0,0.0,0.0,0.0,0.0
4.382,122,4,382000000,base_footprint,-0.003869330012758459,-0.00010938174269749158,0.999640525076263,-0.026529925483122975,0.0,0.0,0.0,0.0,0.0,0.0,0.0,0.0,0.0,-0.0002434092720300039,0.00015611313696951414,0.029818548848702102,0.0,0.0,0.0,0.0,0.0,0.0,0.0,0.0,0.0,0.004467807436354835,0.0060681191782253965,-0.0003609392032092356,0.0,0.0,0.0,0.0,0.0,0.0,0.0,0.0,0.0
4.416,123,4,416000000,base_footprint,-0.0038725205834786226,-0.0001100477536508189,0.99962998130677,-0.026923817456834344,0.0,0.0,0.0,0.0,0.0,0.0,0.0,0.0,0.0,-0.00012104977232864198,5.579218845845562e-05,0.020882318002838022,0.0,0.0,0.0,0.0,0.0,0.0,0.0,0.0,0.0,0.0031314221116534977,0.00415138746685616,0.0001945111226385678,0.0,0.0,0.0,0.0,0.0,0.0,0.0,0.0,0.0
4.45,124,4,450000000,base_footprint,-0.0038738201252756484,-0.0001112568405471472,0.9996204450278895,-0.027275392239099992,0.0,0.0,0.0,0.0,0.0,0.0,0.0,0.0,0.0,-0.00011972701222601352,-9.745622800559538e-05,0.020640888653631975,0.0,0.0,0.0,0.0,0.0,0.0,0.0,0.0,0.0,-0.004312781561859636,0.0032857606456604418,0.0002502572926997751,0.0,0.0,0.0,0.0,0.0,0.0,0.0,0.0,0.0
4.484,125,4,484000000,base_footprint,-0.003871713062684655,-0.0001136043012974653,0.999610802101947,-0.027626821263498667,0.0,0.0,0.0,0.0,0.0,0.0,0.0,0.0,0.0,-0.0001939831662992548,-0.0003622791531171647,0.019552121662433426,0.0,0.0,0.0,0.0,0.0,0.0,0.0,0.0,0.0,-0.013012410555387991,0.0019574431159445484,0.0003960257135665641,0.0,0.0,0.0,0.0,0.0,0.0,0.0,0.0,0.0
4.518,126,4,518000000,base_footprint,-0.0038676237808946334,-0.00012553258426809273,0.9995856989463142,-0.028521153375492787,0.0,0.0,0.0,0.0,0.0,0.0,0.0,0.0,0.0,-0.0010220844050063287,0.0007868976501805558,0.09458519115078069,0.0,0.0,0.0,0.0,0.0,0.0,0.0,0.0,0.0,-0.030896170885218628,0.013603164237883334,-0.002576857069024022,0.0,0.0,0.0,0.0,0.0,0.0,0.0,0.0,0.0
4.552,127,4,552000000,base_footprint,-0.003869130090987294,-0.00012835485364667362,0.9995228247111442,-0.030645329804488704,0.0,0.0,0.0,0.0,0.0,0.0,0.0,0.0,0.0,-0.0009342310701064838,5.1831247494931585e-05,0.14206710232438666,0.0,0.0,0.0,0.0,0.0,0.0,0.0,0.0,0.0,-0.04192721512934261,0.02363274852911625,0.0012643852566554589,0.0,0.0,0.0,0.0,0.0,0.0,0.0,0.0,0.0
4.586,128,4,586000000,base_footprint,-0.0038692210302375364,-0.00014025999105754647,0.9994478390309869,-0.03300040169520357,0.0,0.0,0.0,0.0,0.0,0.0,0.0,0.0,0.0,-0.0008579260283400893,-0.0004051041054624923,0.13817667197788688,0.0,0.0,0.0,0.0,0.0,0.0,0.0,0.0,0.0,0.009106297521353035,0.031131763176289406,0.0009211189888372033,0.0,0.0,0.0,0.0,0.0,0.0,0.0,0.0,0.0
4.62,129,4,620000000,base_footprint,-0.0038680714739370782,-0.0001448148547598536,0.9993906368321448,-0.03468965355795043,0.0,0.0,0.0,0.0,0.0,0.0,0.0,0.0,0.0,-0.0009674939937868823,0.0008027681201992478,0.025818180593913803,0.0,0.0,0.0,0.0,0.0,0.0,0.0,0.0,0.0,-0.5402962653085674,-0.05679186865358343,-0.006209626720607675,0.0,0.0,0.0,0.0,0.0,0.0,0.0,0.0,0.0
4.654,130,4,654000000,base_footprint,-0.0038624637985553052,-0.00015251530907010977,0.9993329663609806,-0.036313640090860376,0.0,0.0,0.0,0.0,0.0,0.0,0.0,0.0,0.0,-0.000877405406579497,-0.0008225875306654942,0.12913503466941745,0.0,0.0,0.0,0.0,0.0,0.0,0.0,0.0,0.0,0.2060228170486374,0.05151701461832603,0.004221637171459558,0.0,0.0,0.0,0.0,0.0,0.0,0.0,0.0,0.0
4.688,131,4,688000000,base_footprint,-0.0038592867485146174,-0.0001593974250868029,0.9992507944586552,-0.03850883368787235,0.0,0.0,0.0,0.0,0.0,0.0,0.0,0.0,0.0,-0.0008233174307336298,-0.000378138864804332,0.12914059669616132,0.0,0.0,0.0,0.0,0.0,0.0,0.0,0.0,0.0,0.0007264769874009468,0.025767958886001738,-0.00036189906074294404,0.0,0.0,0.0,0.0,0.0,0.0,0.0,0.0,0.0
4.722,132,4,722000000,base_footprint,-0.0038597056427871223,-0.00015172564254589503,0.9993108151897194,-0.03691848177456332,0.0,0.0,0.0,0.0,0.0,0.0,0.0,0.0,0.0,0.0018388698334074224,-0.003585581074357192,-0.22297294816065077,0.0,0.0,0.0,0.0,0.0,0.0,0.0,0.0,0.0,-0.20779550528444182,-0.045913137128566074,0.0001808593790352536,0.0,0.0,0.0,0.0,0.0,0.0,0.0,0.0,0.0
4.756,133,4,756000000,base_footprint,-0.003858908569981132,-0.00014264721992715538,0.9993872796271335,-0.03478726485219954,0.0,0.0,0.0,0.0,0.0,0.0,0.0,0.0,0.0,0.0008503736869980732,-0.00017535888033470812,-0.08606931845940342,0.0,0.0,0.0,0.0,0.0,0.0,0.0,0.0,0.0,0.282359891240172,0.01223122066843132,0.00011926791470586188,0.0,0.0,0.0,0.0,0.0,0.0,0.0,0.0,0.0
4.79,134,4,790000000,base_footprint,-0.0038595738676898577,-0.00013684963447861313,0.9994379755682594,-0.033298918207002745,0.0,0.0,0.0,0.0,0.0,0.0,0.0,0.0,0.0,0.00015612926786918123,-0.0012522882239283377,-0.11526880124087423,0.0,0.0,0.0,0.0,0.0,0.0,0.0,0.0,0.0,0.012968155174263859,-0.019344671751441868,0.0018311387399595552,0.0,0.0,0.0,0.0,0.0,0.0,0.0,0.0,0.0
4.824,135,4,824000000,base_footprint,-0.0038629358449333204,-0.00012071950529221404,0.999552440472727,-0.0296644888456659,0.0,0.0,0.0,0.0,0.0,0.0,0.0,0.0,0.0,0.0014966644981063452,-0.0004794100765800316,-0.20667934400894408,0.0,0.0,0.0,0.0,0.0,0.0,0.0,0.0,0.0,0.06516019010542205,-0.03517262196546199,-0.0002928996124049792,0.0,0.0,0.0,0.0,0.0,0.0,0.0,0.0,0.0
4.8580000000000005,136,4,858000000,base_footprint,-0.0038655149886055703,-0.0001146586236759138,0.9996124493385837,-0.027568020868219138,0.0,0.0,0.0,0.0,0.0,0.0,0.0,0.0,0.0,0.0010628297541543453,0.001853360098172686,-0.07595511651489348,0.0,0.0,0.0,0.0,0.0,0.0,0.0,0.0,0.0,0.2865682187924158,0.004320691538534073,-0.0017187683862635089,0.0,0.0,0.0,0.0,0.0,0.0,0.0,0.0,0.0
4.892,137,4,892000000,base_footprint,-0.0038725704855841103,-0.00010826646192829566,0.9996475464580511,-0.026263555292570833,0.0,0.0,0.0,0.0,0.0,0.0,0.0,0.0,0.0,0.00019842728176323545,0.00014225722409839519,-0.06928588827411142,0.0,0.0,0.0,0.0,0.0,0.0,0.0,0.0,0.0,-0.003957932505251288,-0.01762542353668924,0.0019380506699792975,0.0,0.0,0.0,0.0,0.0,0.0,0.0,0.0,0.0
4.926,138,4,926000000,base_footprint,-0.003874509003786544,-0.00010402279446930352,0.999676796904611,-0.025125267954295562,0.0,0.0,0.0,0.0,0.0,0.0,0.0,0.0,0.0,0.0005650244303681483,-1.5544924138333182e-05,-0.06738988948702992,0.0,0.0,0.0,0.0,0.0,0.0,0.0,0.0,0.0,-0.0011135095679692237,-0.01626098430782129,0.00037473394264336867,0.0,0.0,0.0,0.0,0.0,0.0,0.0,0.0,0.0
4.96,139,4,960000000,base_footprint,-0.0038737025701888464,-9.912880900137277e-05,0.9997048456116575,-0.02398345810030236,0.0,0.0,0.0,0.0,0.0,0.0,0.0,0.0,0.0,0.0005885150474788116,-0.0002910054527474084,-0.06700093800965225,0.0,0.0,0.0,0.0,0.0,0.0,0.0,0.0,0.0,-0.006303229312257882,-0.016612610086647196,0.00047876548079579025,0.0,0.0,0.0,0.0,0.0,0.0,0.0,0.0,0.0
4.994,140,4,994000000,base_footprint,-0.0038692209078891684,-9.556844306562574e-05,0.9997321975784339,-0.0228156332639306,0.0,0.0,0.0,0.0,0.0,0.0,0.0,0.0,0.0,0.0006833715277696723,-0.00020191161640937305,-0.07061792251817424,0.0,0.0,0.0,0.0,0.0,0.0,0.0,0.0,0.0,-0.03745382756099913,-0.016519556435121877,-0.00039637422795121553,0.0,0.0,0.0,0.0,0.0,0.0,0.0,0.0,0.0
5.027,141,5,28000000,base_footprint,-0.003871378202478228,-9.131912835907116e-05,0.9997538768102824,-0.021844676569840047,0.0,0.0,0.0,0.0,0.0,0.0,0.0,0.0,0.0,0.00010776112791473722,-0.00019459145701861935,-0.05410390810947388,0.0,0.0,0.0,0.0,0.0,0.0,0.0,0.0,0.0,-0.03487266444427985,-0.01333335714931916,-0.0011093866237140396,0.0,0.0,0.0,0.0,0.0,0.0,0.0,0.0,0.0
5.062,142,5,62000000,base_footprint,-0.003874687220360027,-8.94285383750377e-05,0.9997765474521548,-0.02078061515283611,0.0,0.0,0.0,0.0,0.0,0.0,0.0,0.0,0.0,0.0006885813736657252,-0.00036989931846675484,-0.06803709612210505,0.0,0.0,0.0,0.0,0.0,0.0,0.0,0.0,0.0,0.049982505320404796,-0.007827952083373394,0.0016051653841782478,0.0,0.0,0.0,0.0,0.0,0.0,0.0,0.0,0.0
5.096,143,5,96000000,base_footprint,-0.0038708357646244427,-8.588685392818543e-05,0.9997986316069243,-0.019690238466139966,0.0,0.0,0.0,0.0,0.0,0.0,0.0,0.0,0.0,0.0005994469750681938,-0.00012556399537383045,-0.05505701624390443,0.0,0.0,0.0,0.0,0.0,0.0,0.0,0.0,0.0,-0.002126315111393108,-0.017614868541849755,-0.00013819115993529322,0.0,0.0,0.0,0.0,0.0,0.0,0.0,0.0,0.0
5.13,144,5,130000000,base_footprint,-0.003865999233367144,-8.299618095782662e-05,0.9998170643562239,-0.01873192418478089,0.0,0.0,0.0,0.0,0.0,0.0,0.0,0.0,0.0,0.000584861345937819,-0.0004350974198260328,-0.056509449763881905,0.0,0.0,0.0,0.0,0.0,0.0,0.0,0.0,0.0,0.0057381644521563935,-0.011539901649773959,0.00043735915618151906,0.0,0.0,0.0,0.0,0.0,0.0,0.0,0.0,0.0
5.164,145,5,164000000,base_footprint,-0.0038622167575131836,-7.788871449778559e-05,0.9998346597475714,-0.017768803632333127,0.0,0.0,0.0,0.0,0.0,0.0,0.0,0.0,0.0,0.0005682674763530007,-0.00031232572690061366,-0.05686150843322197,0.0,0.0,0.0,0.0,0.0,0.0,0.0,0.0,0.0,0.006345742941467146,-0.011994001793249835,-0.00016852678480292616,0.0,0.0,0.0,0.0,0.0,0.0,0.0,0.0,0.0
5.198,146,5,198000000,base_footprint,-0.0038605009821025367,-7.33059266044323e-05,0.9998506695560246,-0.016844279348717333,0.0,0.0,0.0,0.0,0.0,0.0,0.0,0.0,0.0,0.00036517404546524237,-0.00029907199298690574,-0.04674576734383193,0.0,0.0,0.0,0.0,0.0,0.0,0.0,0.0,0.0,0.0037768574655675595,-0.012359007218802622,-0.00012034172570717458,0.0,0.0,0.0,0.0,0.0,0.0,0.0,0.0,0.0
5.232,147,5,232000000,base_footprint,-0.0038604729879407975,-6.973033131651654e-05,0.9998638928856557,-0.016040186705043626,0.0,0.0,0.0,0.0,0.0,0.0,0.0,0.0,0.0,0.0004508346497965585,-0.00014189713808801985,-0.047577356737085255,0.0,0.0,0.0,0.0,0.0,0.0,0.0,0.0,0.0,0.006758869530555232,-0.009591078313128101,-0.00016026256483814334,0.0,0.0,0.0,0.0,0.0,0.0,0.0,0.0,0.0
5.266,148,5,266000000,base_footprint,-0.003862055736233362,-6.632170151754412e-05,0.9998765930627725,-0.015227566191116754,0.0,0.0,0.0,0.0,0.0,0.0,0.0,0.0,0.0,0.0004379438042306867,-5.2551069766202634e-05,-0.048031026621272684,0.0,0.0,0.0,0.0,0.0,0.0,0.0,0.0,0.0,0.006471158898398846,-0.01027479160294086,-0.00014885198034308333,0.0,0.0,0.0,0.0,0.0,0.0,0.0,0.0,0.0
5.3,149,5,300000000,base_footprint,-0.0038653663524155484,-6.286640014452826e-05,0.9998893129463102,-0.014367214292728352,0.0,0.0,0.0,0.0,0.0,0.0,0.0,0.0,0.0,0.00040469148654134144,5.7276891449688534e-05,-0.05593098771428861,0.0,0.0,0.0,0.0,0.0,0.0,0.0,0.0,0.0,0.008307899405775766,-0.010460051469213418,-0.00022669927401688104,0.0,0.0,0.0,0.0,0.0,0.0,0.0,0.0,0.0
5.336,150,5,334000000,base_footprint,-0.0038705083028418032,-5.988608682195174e-05,0.999902517248178,-0.013415348668273208,0.0,0.0,0.0,0.0,0.0,0.0,0.0,0.0,0.0,0.00038973337255859705,0.00016466601768535071,-0.0561927981274107,0.0,0.0,0.0,0.0,0.0,0.0,0.0,0.0,0.0,0.005036209666323047,-0.012983436239821986,-0.0003617268748062539,0.0,0.0,0.0,0.0,0.0,0.0,0.0,0.0,0.0
5.368,151,5,368000000,base_footprint,-0.003873784173924042,-5.568554703269425e-05,0.9999148942105573,-0.012457729776474042,0.0,0.0,0.0,0.0,0.0,0.0,0.0,0.0,0.0,0.00047777202997248327,7.813898680382313e-05,-0.05651895559647411,0.0,0.0,0.0,0.0,0.0,0.0,0.0,0.0,0.0,0.0016962326587869432,-0.013069627612676923,0.00015923980079363332,0.0,0.0,0.0,0.0,0.0,0.0,0.0,0.0,0.0
5.402,152,5,402000000,base_footprint,-0.0038583552088448233,-5.2554613954401064e-05,0.9999256996502297,-0.011563109966332018,0.0,0.0,0.0,0.0,0.0,0.0,0.0,0.0,0.0,-0.0022382908792111054,0.004307055987427396,-0.03756130619737141,0.0,0.0,0.0,0.0,0.0,0.0,0.0,0.0,0.0,-0.15881617316685603,-0.022003384164817688,-0.007966476169729099,0.0,0.0,0.0,0.0,0.0,0.0,0.0,0.0,0.0
5.436,153,5,436000000,base_footprint,-0.003876275227110208,-5.1159027028975814e-05,0.9999311484416974,-0.01107566021445227,0.0,0.0,0.0,0.0,0.0,0.0,0.0,0.0,0.0,0.0013522959474414574,0.0003607700011317275,-0.028955536664230657,0.0,0.0,0.0,0.0,0.0,0.0,0.0,0.0,0.0,-0.1685563939327153,-0.015579175499793867,0.005314762518868912,0.0,0.0,0.0,0.0,0.0,0.0,0.0,0.0,0.0
5.47,154,5,470000000,base_footprint,-0.0038709574269345684,-4.3171818615632235e-05,0.9999363233890132,-0.010600141133773047,0.0,0.0,0.0,0.0,0.0,0.0,0.0,0.0,0.0,-0.0003823442486980455,-0.0007668274700495703,-0.02061735771919079,0.0,0.0,0.0,0.0,0.0,0.0,0.0,0.0,0.0,-0.04535055280503352,-0.01745555674732492,0.001184804354925109,0.0,0.0,0.0,0.0,0.0,0.0,0.0,0.0,0.0
5.504,155,5,504000000,base_footprint,-0.00387388157547926,-4.44767724731803e-05,0.9999412490370019,-0.010123711655143475,0.0,0.0,0.0,0.0,0.0,0.0,0.0,0.0,0.0,0.0009233517078539897,0.0009437844900477648,-0.02531522848728279,0.0,0.0,0.0,0.0,0.0,0.0,0.0,0.0,0.0,-0.03256452287720055,0.005221869916824258,-0.0032124033717603534,0.0,0.0,0.0,0.0,0.0,0.0,0.0,0.0,0.0
5.538,156,5,538000000,base_footprint,-0.003874012430126517,-4.521872808167961e-05,0.9999469771068725,-0.009541119315137271,0.0,0.0,0.0,0.0,0.0,0.0,0.0,0.0,0.0,0.0002454121355873044,-0.00038694016942576737,-0.034965587412980885,0.0,0.0,0.0,0.0,0.0,0.0,0.0,0.0,0.0,0.01585595592970654,-0.003165791344689821,0.002446254583304384,0.0,0.0,0.0,0.0,0.0,0.0,0.0,0.0,0.0
5.572,157,5,572000000,base_footprint,-0.0038708917013936454,-4.319519136105478e-05,0.9999524808741777,-0.008947084731296087,0.0,0.0,0.0,0.0,0.0,0.0,0.0,0.0,0.0,0.00021545548270343146,-0.00024902621901591934,-0.03462568237020915,0.0,0.0,0.0,0.0,0.0,0.0,0.0,0.0,0.0,0.005421714428082758,-0.007317240389658229,-9.418774802173118e-05,0.0,0.0,0.0,0.0,0.0,0.0,0.0,0.0,0.0
5.606,158,5,606000000,base_footprint,-0.0038556669123883044,-3.4415878609238724e-05,0.9999652654769712,-0.0073892142869685,0.0,0.0,0.0,0.0,0.0,0.0,0.0,0.0,0.0,0.0006018466900531395,-0.0027996113236089075,-0.22175692997563898,0.0,0.0,0.0,0.0,0.0,0.0,0.0,0.0,0.0,0.018612751235185965,-0.013623577329876525,0.0010020147636413007,0.0,0.0,0.0,0.0,0.0,0.0,0.0,0.0,0.0
5.64,159,5,640000000,base_footprint,-0.0038591604574904903,-2.7116191329504306e-05,0.9999837675818699,-0.004191744033743311,0.0,0.0,0.0,0.0,0.0,0.0,0.0,0.0,0.0,0.0009201561709915695,-0.0006777167566713702,-0.10401522543346138,0.0,0.0,0.0,0.0,0.0,0.0,0.0,0.0,0.0,0.21408170511452754,-0.03992810087144319,0.0015766188362212902,0.0,0.0,0.0,0.0,0.0,0.0,0.0,0.0,0.0
5.674,160,5,674000000,base_footprint,-0.003861258399609859,-2.0617667190827e-05,0.9999872848390063,-0.0032435195074770606,0.0,0.0,0.0,0.0,0.0,0.0,0.0,0.0,0.0,0.00044101980758372327,-0.00038143192531907316,-0.04830131547120189,0.0,0.0,0.0,0.0,0.0,0.0,0.0,0.0,0.0,0.1295607459291106,-0.010381694791257483,0.0006304369567268161,0.0,0.0,0.0,0.0,0.0,0.0,0.0,0.0,0.0
5.708,161,5,708000000,base_footprint,-0.0038606198731587836,-1.8191211374489407e-05,0.9999890052175695,-0.0026617150957111584,0.0,0.0,0.0,0.0,0.0,0.0,0.0,0.0,0.0,0.00022706509461422862,-0.00016143772193212357,-0.023292396681566893,0.0,0.0,0.0,0.0,0.0,0.0,0.0,0.0,0.0,-0.0010624307938473304,-0.008219559170264023,-0.000306807519835544,0.0,0.0,0.0,0.0,0.0,0.0,0.0,0.0,0.0
5.742,162,5,742000000,base_footprint,-0.0038618790602906626,-1.677767696365174e-05,0.9999899874597336,-0.002260661167716763,0.0,0.0,0.0,0.0,0.0,0.0,0.0,0.0,0.0,0.0002204526210471164,-8.800506281123336e-05,-0.023821666426316224,0.0,0.0,0.0,0.0,0.0,0.0,0.0,0.0,0.0,0.006100831289867351,-0.0049787588841182515,-0.0001515948264991783,0.0,0.0,0.0,0.0,0.0,0.0,0.0,0.0,0.0
5.776,163,5,776000000,base_footprint,-0.0038648013889525826,-1.5597709793958333e-05,0.9999908151883765,-0.0018527292898862537,0.0,0.0,0.0,0.0,0.0,0.0,0.0,0.0,0.0,0.00020385683881783402,1.9466212743416074e-05,-0.02419670749507445,0.0,0.0,0.0,0.0,0.0,0.0,0.0,0.0,0.0,0.005681487004338554,-0.005399470333835952,-0.0001961365138259473,0.0,0.0,0.0,0.0,0.0,0.0,0.0,0.0,0.0
5.8100000000000005,164,5,810000000,base_footprint,-0.003869939370280064,-1.4271873243698534e-05,0.9999915976834228,-0.0013520089273505404,0.0,0.0,0.0,0.0,0.0,0.0,0.0,0.0,0.0,0.00018985433820841076,0.00020053923968386077,-0.03266845696790059,0.0,0.0,0.0,0.0,0.0,0.0,0.0,0.0,0.0,0.00700354252116007,-0.006548955163075601,-0.0004375583215970786,0.0,0.0,0.0,0.0,0.0,0.0,0.0,0.0,0.0
5.844,165,5,844000000,base_footprint,-0.003873288566094995,-1.1822471073030293e-05,0.9999921797316577,-0.00079873114454027,0.0,0.0,0.0,0.0,0.0,0.0,0.0,0.0,0.0,0.000280489394419441,5.151360431009724e-05,-0.03240853567568353,0.0,0.0,0.0,0.0,0.0,0.0,0.0,0.0,0.0,0.0021169074012032238,-0.008248027553954899,0.00019888085254522495,0.0,0.0,0.0,0.0,0.0,0.0,0.0,0.0,0.0
5.878,166,5,878000000,base_footprint,-0.003876188290943921,-9.118681936953437e-06,0.999992454561811,-0.00025671117509770626,0.0,0.0,0.0,0.0,0.0,0.0,0.0,0.0,0.0,0.00029692970821876226,2.3541272830303008e-05,-0.03139777652753174,0.0,0.0,0.0,0.0,0.0,0.0,0.0,0.0,0.0,-0.004756777178035408,-0.007442900628744867,1.4971270412841973e-05,0.0,0.0,0.0,0.0,0.0,0.0,0.0,0.0,0.0
5.912,167,5,912000000,base_footprint,-0.0038752341003565763,-6.07379295845638e-06,0.9999924764442063,0.0001719847670250986,0.0,0.0,0.0,0.0,0.0,0.0,0.0,0.0,0.0,0.0005538056754581799,-0.0003653497888590628,-0.0196115119681357,0.0,0.0,0.0,0.0,0.0,0.0,0.0,0.0,0.0,-0.01260172541490747,-0.009646126228830456,0.0007471270158007167,0.0,0.0,0.0,0.0,0.0,0.0,0.0,0.0,0.0
5.946,168,5,946000000,base_footprint,-0.00387007654032986,-1.2245737180959073e-06,0.9999924207580835,0.0004253615646516469,0.0,0.0,0.0,0.0,0.0,0.0,0.0,0.0,0.0,-2.3305735778528092e-05,-0.00013444206647107815,-0.007096810995195016,0.0,0.0,0.0,0.0,0.0,0.0,0.0,0.0,0.0,-0.04591403761714161,-0.0066172696475245455,-0.0009092382070440113,0.0,0.0,0.0,0.0,0.0,0.0,0.0,0.0,0.0
5.98,169,5,980000000,base_footprint,-0.0038712536807549523,-2.412959126665051e-06,0.9999923492689955,0.0005610638040070911,0.0,0.0,0.0,0.0,0.0,0.0,0.0,0.0,0.0,4.680614461944481e-05,0.00038156272620430194,-0.0156994604369767,0.0,0.0,0.0,0.0,0.0,0.0,0.0,0.0,0.0,-0.006925783929858294,0.008229029618760658,-0.0016710583251818404,0.0,0.0,0.0,0.0,0.0,0.0,0.0,0.0,0.0
6.014,170,6,14000000,base_footprint,-0.003873682393808468,-3.5613436057064045e-06,0.9999920276930478,0.000969083265446908,0.0,0.0,0.0,0.0,0.0,0.0,0.0,0.0,0.0,0.00019573054771035767,-0.0001621868328907843,-0.025350270296394372,0.0,0.0,0.0,0.0,0.0,0.0,0.0,0.0,0.0,0.024492685423064486,-0.006657716863303362,0.0019142651721454238,0.0,0.0,0.0,0.0,0.0,0.0,0.0,0.0,0.0
6.048,171,6,48000000,base_footprint,-0.003870637407504528,-2.285861910961264e-06,0.999991519904695,0.0014065132536181509,0.0,0.0,0.0,0.0,0.0,0.0,0.0,0.0,0.0,0.00018209036110056206,-0.00020801233610628572,-0.025363586037242654,0.0,0.0,0.0,0.0,0.0,0.0,0.0,0.0,0.0,0.004140602277534388,-0.005383006348220126,0.0001398203284468272,0.0,0.0,0.0,0.0,0.0,0.0,0.0,0.0,0.0
6.082,172,6,82000000,base_footprint,-0.003866539193299957,-1.289542204034882e-06,0.999990822924803,0.0018449767421610558,0.0,0.0,0.0,0.0,0.0,0.0,0.0,0.0,0.0,0.0002757742869273521,-0.0004470716908734615,-0.026043662897816185,0.0,0.0,0.0,0.0,0.0,0.0,0.0,0.0,0.0,0.00543604083628073,-0.005399943755079561,0.0007401140880752736,0.0,0.0,0.0,0.0,0.0,0.0,0.0,0.0,0.0
6.116,173,6,116000000,base_footprint,-0.003862477513899892,3.3484662504871747e-07,0.9999902057625001,0.002160936467251792,0.0,0.0,0.0,0.0,0.0,0.0,0.0,0.0,0.0,0.00019655493236272537,-0.00034569084366040467,-0.016900199677702062,0.0,0.0,0.0,0.0,0.0,0.0,0.0,0.0,0.0,0.003181746994458113,-0.003974891480795562,-0.00017588404294002373,0.0,0.0,0.0,0.0,0.0,0.0,0.0,0.0,0.0
6.15,174,6,150000000,base_footprint,-0.003860649234889792,1.706619007745312e-06,0.9999895437369366,0.002451081672695939,0.0,0.0,0.0,0.0,0.0,0.0,0.0,0.0,0.0,0.0001892012658076411,-0.0002466269641638424,-0.017281908883181103,0.0,0.0,0.0,0.0,0.0,0.0,0.0,0.0,0.0,0.005852188837061746,-0.0039513016632149464,-0.00013364011591370325,0.0,0.0,0.0,0.0,0.0,0.0,0.0,0.0,0.0
6.184,175,6,184000000,base_footprint,-0.003860491094360491,2.9534511567965536e-06,0.9999887725087917,0.0027479912932142736,0.0,0.0,0.0,0.0,0.0,0.0,0.0,0.0,0.0,0.00018529367346274147,-0.00015357163991581472,-0.01775386770003186,0.0,0.0,0.0,0.0,0.0,0.0,0.0,0.0,0.0,0.005894212829592295,-0.003723871750468426,-0.0001460523349739707,0.0,0.0,0.0,0.0,0.0,0.0,0.0,0.0,0.0
6.218,176,6,218000000,base_footprint,-0.003865553088817721,6.692569905499987e-06,0.9999839372409212,0.004145203815536979,0.0,0.0,0.0,0.0,0.0,0.0,0.0,0.0,0.0,0.0013645481025425406,-2.81934547878912e-06,-0.18744973830327805,0.0,0.0,0.0,0.0,0.0,0.0,0.0,0.0,0.0,-0.5026965397530733,-0.007158419290601825,-0.004191497706931068,0.0,0.0,0.0,0.0,0.0,0.0,0.0,0.0,0.0
6.252,177,6,252000000,base_footprint,-0.0038664777253023365,1.2009778113425351e-05,0.9999767597368203,0.005615175154391523,0.0,0.0,0.0,0.0,0.0,0.0,0.0,0.0,0.0,0.00024190509498537256,0.0012904601282658409,-0.027314887727093454,0.0,0.0,0.0,0.0,0.0,0.0,0.0,0.0,0.0,0.17691060253156116,-0.02179120407514635,-0.0006506330765157959,0.0,0.0,0.0,0.0,0.0,0.0,0.0,0.0,0.0
6.286,178,6,286000000,base_footprint,-0.0038712602381174663,1.2909487628711486e-05,0.9999739996563137,0.0060838465520283045,0.0,0.0,0.0,0.0,0.0,0.0,0.0,0.0,0.0,0.00013059000589638734,0.00014398639597117027,-0.02763578357516162,0.0,0.0,0.0,0.0,0.0,0.0,0.0,0.0,0.0,0.0014038966091772314,-0.008752286700756413,0.0015862823036395639,0.0,0.0,0.0,0.0,0.0,0.0,0.0,0.0,0.0
6.32,179,6,320000000,base_footprint,-0.003870906506659858,1.0156386812544008e-05,0.9999745642026969,0.00599056986361165,0.0,0.0,0.0,0.0,0.0,0.0,0.0,0.0,0.0,-0.0013610162161626378,-0.0002788159033708989,0.06145835378940162,0.0,0.0,0.0,0.0,0.0,0.0,0.0,0.0,0.0,0.319536826652967,-0.009351161637013147,0.0038107466383524957,0.0,0.0,0.0,0.0,0.0,0.0,0.0,0.0,0.0
6.354,180,6,354000000,base_footprint,-0.003878263873204558,7.833372341023618e-06,0.9999801756609179,0.004960573870828087,0.0,0.0,0.0,0.0,0.0,0.0,0.0,0.0,0.0,-0.0005317375535348211,2.2833961371684568e-05,0.06025533816757319,0.0,0.0,0.0,0.0,0.0,0.0,0.0,0.0,0.0,0.00192648936018566,0.012779325586067859,-0.0012536036639447944,0.0,0.0,0.0,0.0,0.0,0.0,0.0,0.0,0.0
6.388,181,6,388000000,base_footprint,-0.0038779673783109463,3.2756886867800547e-06,0.999984751172474,0.003931765609513172,0.0,0.0,0.0,0.0,0.0,0.0,0.0,0.0,0.0,-0.00040422073920606393,-0.00035927697187160333,0.060654205401341775,0.0,0.0,0.0,0.0,0.0,0.0,0.0,0.0,0.0,-0.0022443951651645944,0.011446825461489346,0.000766193028801596,0.0,0.0,0.0,0.0,0.0,0.0,0.0,0.0,0.0
6.421,182,6,422000000,base_footprint,-0.0038723128788404598,1.3947213828129955e-07,0.9999882393301901,0.002919999016339258,0.0,0.0,0.0,0.0,0.0,0.0,0.0,0.0,0.0,-0.0006048572621058621,-0.0007936961057558792,0.05253969640523858,0.0,0.0,0.0,0.0,0.0,0.0,0.0,0.0,0.0,-0.023708985459551586,0.023937595694550548,0.0006825790431591898,0.0,0.0,0.0,0.0,0.0,0.0,0.0,0.0,0.0
6.456,183,6,456000000,base_footprint,-0.0038704398032780953,-3.314561552012107e-06,0.9999903534873984,0.002076684109612355,0.0,0.0,0.0,0.0,0.0,0.0,0.0,0.0,0.0,-0.001140782412941229,0.00034846352906039817,0.05370548263922325,0.0,0.0,0.0,0.0,0.0,0.0,0.0,0.0,0.0,-0.07396569472884194,0.006472719370284615,-0.0023367043638510576,0.0,0.0,0.0,0.0,0.0,0.0,0.0,0.0,0.0
6.49,184,6,490000000,base_footprint,-0.003877289377147165,-9.112949795413342e-07,0.9999919063188,0.001074208149255353,0.0,0.0,0.0,0.0,0.0,0.0,0.0,0.0,0.0,0.004503853802598934,0.001665261121295346,0.05540933191828239,0.0,0.0,0.0,0.0,0.0,0.0,0.0,0.0,0.0,0.05557735639111465,0.012368732381427543,0.0019772369706773756,0.0,0.0,0.0,0.0,0.0,0.0,0.0,0.0,0.0
6.524,185,6,524000000,base_footprint,-0.0038697078030155243,-5.928441090297971e-06,0.9999918240445494,0.0011735290485406866,0.0,0.0,0.0,0.0,0.0,0.0,0.0,0.0,0.0,7.892927919152973e-05,-2.6027868395367246e-05,-0.011892119233610667,0.0,0.0,0.0,0.0,0.0,0.0,0.0,0.0,0.0,0.02239568289206907,-0.001136039472196012,-0.0009655373443156588,0.0,0.0,0.0,0.0,0.0,0.0,0.0,0.0,0.0
6.558,186,6,558000000,base_footprint,-0.0038667213882543246,-4.648558362221938e-06,0.9999915747823901,0.0013779725440432624,0.0,0.0,0.0,0.0,0.0,0.0,0.0,0.0,0.0,0.00018605506352913716,-0.00044816207381279165,-0.012105188597758746,0.0,0.0,0.0,0.0,0.0,0.0,0.0,0.0,0.0,0.0057530660670577,-0.002760372095129935,0.0010058943271680804,0.0,0.0,0.0,0.0,0.0,0.0,0.0,0.0,0.0
6.5920000000000005,187,6,592000000,base_footprint,-0.0038625714384147346,-3.224905865466532e-06,0.9999912671395433,0.0015956741941033441,0.0,0.0,0.0,0.0,0.0,0.0,0.0,0.0,0.0,-0.0002711068385481284,-0.0004171068156374787,-0.019118260364328735,0.0,0.0,0.0,0.0,0.0,0.0,0.0,0.0,0.0,0.006685924832866338,-0.0031125192516384035,-0.00016820460529140798,0.0,0.0,0.0,0.0,0.0,0.0,0.0,0.0,0.0
6.626,188,6,626000000,base_footprint,-0.0038608458741623253,-1.6143308164893999e-06,0.9999906809126874,0.001931826676902074,0.0,0.0,0.0,0.0,0.0,0.0,0.0,0.0,0.0,0.00021309963236645677,-0.00024983420285669937,-0.01985205641844161,0.0,0.0,0.0,0.0,0.0,0.0,0.0,0.0,0.0,0.006656974174695959,-0.003928489157946599,-0.00010134536478376748,0.0,0.0,0.0,0.0,0.0,0.0,0.0,0.0,0.0
6.66,189,6,660000000,base_footprint,-0.0038605944428323014,-1.9454021361120963e-07,0.9999899677000008,0.002271631541787582,0.0,0.0,0.0,0.0,0.0,0.0,0.0,0.0,0.0,0.00020481873909821628,-0.00016988680668221225,-0.02016980840706844,0.0,0.0,0.0,0.0,0.0,0.0,0.0,0.0,0.0,0.005852535875570217,-0.004527170220595943,-0.00011948568259097095,0.0,0.0,0.0,0.0,0.0,0.0,0.0,0.0,0.0
6.694,190,6,694000000,base_footprint,-0.003861899602345623,1.0570496848966219e-06,0.9999891168006306,0.0026176345503171406,0.0,0.0,0.0,0.0,0.0,0.0,0.0,0.0,0.0,0.0001982826059716531,-8.72106747784377e-05,-0.02085536989412669,0.0,0.0,0.0,0.0,0.0,0.0,0.0,0.0,0.0,0.0058757073839421255,-0.004650970705109732,-0.00013620905186190955,0.0,0.0,0.0,0.0,0.0,0.0,0.0,0.0,0.0
6.728,191,6,728000000,base_footprint,-0.003864977418786372,2.069358897736443e-06,0.9999881088010776,0.0029739202602580396,0.0,0.0,0.0,0.0,0.0,0.0,0.0,0.0,0.0,0.00018106991606053983,2.7017732577619547e-05,-0.021101367944996903,0.0,0.0,0.0,0.0,0.0,0.0,0.0,0.0,0.0,0.005582624840858733,-0.00489137231373824,-0.00020789227340528265,0.0,0.0,0.0,0.0,0.0,0.0,0.0,0.0,0.0
6.7620000000000005,192,6,762000000,base_footprint,-0.0038702019042117313,3.0728524228716984e-06,0.9999869493887517,0.003335053216441096,0.0,0.0,0.0,0.0,0.0,0.0,0.0,0.0,0.0,0.00018582555182324262,0.00022983720587186859,-0.021603086318994387,0.0,0.0,0.0,0.0,0.0,0.0,0.0,0.0,0.0,0.004560294101905599,-0.004013351378230703,-0.0005605411636205573,0.0,0.0,0.0,0.0,0.0,0.0,0.0,0.0,0.0
6.796,193,6,796000000,base_footprint,-0.003876299593782424,3.4189534607573584e-06,0.9999856811824336,0.003689406439321707,0.0,0.0,0.0,0.0,0.0,0.0,0.0,0.0,0.0,-0.0002303532373528198,0.00015594774335646203,-0.012848947341746028,0.0,0.0,0.0,0.0,0.0,0.0,0.0,0.0,0.0,-0.0009302663642043544,-0.007701936685291483,-4.315794802735066e-05,0.0,0.0,0.0,0.0,0.0,0.0,0.0,0.0,0.0
6.83,194,6,830000000,base_footprint,-0.0038783212593056396,4.771979780006306e-06,0.9999847583653482,0.0039295850206002,0.0,0.0,0.0,0.0,0.0,0.0,0.0,0.0,0.0,9.859789128240172e-05,1.2731831811450784e-05,-0.014154885531271873,0.0,0.0,0.0,0.0,0.0,0.0,0.0,0.0,0.0,-0.005111462730103858,-0.0016251484446205724,0.0003440415068187242,0.0,0.0,0.0,0.0,0.0,0.0,0.0,0.0,0.0
6.864,195,6,864000000,base_footprint,-0.0038776514062190967,5.614252664128358e-06,0.9999837649642156,0.004175355798557738,0.0,0.0,0.0,0.0,0.0,0.0,0.0,0.0,0.0,0.00023906429698069013,-0.0004218856370840149,-0.015261094192966628,0.0,0.0,0.0,0.0,0.0,0.0,0.0,0.0,0.0,-0.008424415522914086,-0.005239382159538264,0.0008400284942424095,0.0,0.0,0.0,0.0,0.0,0.0,0.0,0.0,0.0
6.898,196,6,898000000,base_footprint,-0.0038701783589060687,5.8922490074836945e-06,0.9999822738260783,0.004524789318624242,0.0,0.0,0.0,0.0,0.0,0.0,0.0,0.0,0.0,2.321416915005594e-05,-0.00046372439603404057,-0.026351774392737816,0.0,0.0,0.0,0.0,0.0,0.0,0.0,0.0,0.0,-0.038484433597668635,0.0057907408505608335,-0.0003264866969637244,0.0,0.0,0.0,0.0,0.0,0.0,0.0,0.0,0.0
6.932,197,6,932000000,base_footprint,-0.00387205402806265,5.749029168871947e-06,0.9999800414048713,0.00499238985504031,0.0,0.0,0.0,0.0,0.0,0.0,0.0,0.0,0.0,-0.0005140564554386755,-0.0005182148544003539,-0.02866516092353435,0.0,0.0,0.0,0.0,0.0,0.0,0.0,0.0,0.0,-0.03365777797993886,-0.009627410152788564,-0.000587214567801322,0.0,0.0,0.0,0.0,0.0,0.0,0.0,0.0,0.0
6.966,198,6,966000000,base_footprint,-0.0038765309239726193,1.1285185364443522e-05,0.9999787267147247,0.005245807720292086,0.0,0.0,0.0,0.0,0.0,0.0,0.0,0.0,0.0,-0.00013982383371247242,-0.00037816060564562843,-0.00457267748753575,0.0,0.0,0.0,0.0,0.0,0.0,0.0,0.0,0.0,0.04820400620971433,-0.006932313125364434,0.0007122756068970459,0.0,0.0,0.0,0.0,0.0,0.0,0.0,0.0,0.0
7.0,199,7,0,base_footprint,-0.0038692903621471977,1.07871317573032e-05,0.9999782774792865,0.005336013988959083,0.0,0.0,0.0,0.0,0.0,0.0,0.0,0.0,0.0,-0.0002777380984432955,-0.0001737199197737126,-0.0040063252248344625,0.0,0.0,0.0,0.0,0.0,0.0,0.0,0.0,0.0,-0.2506222899020087,0.00665170165998728,-0.0020877484765062892,0.0,0.0,0.0,0.0,0.0,0.0,0.0,0.0,0.0
7.034,200,7,34000000,base_footprint,-0.0038677438892920505,1.232945277928499e-05,0.9999767157084725,0.00562213892468692,0.0,0.0,0.0,0.0,0.0,0.0,0.0,0.0,0.0,0.00023268804678804056,3.3086228640354016e-06,-0.01796788947370868,0.0,0.0,0.0,0.0,0.0,0.0,0.0,0.0,0.0,-0.08457352290731515,-0.0031206796799603397,-0.000802191780119447,0.0,0.0,0.0,0.0,0.0,0.0,0.0,0.0,0.0
7.068,201,7,68000000,base_footprint,-0.0038642360673429555,1.3775370085695241e-05,0.9999749452350418,0.005930968894737331,0.0,0.0,0.0,0.0,0.0,0.0,0.0,0.0,0.0,0.00019074182256666178,-0.00032125405587665946,-0.01830662199195807,0.0,0.0,0.0,0.0,0.0,0.0,0.0,0.0,0.0,0.005033391878481498,-0.003994677140504127,0.00042084246445362486,0.0,0.0,0.0,0.0,0.0,0.0,0.0,0.0,0.0
7.102,202,7,102000000,base_footprint,-0.003862472036324764,1.491528056584268e-05,0.999973367516875,0.006192361767856363,0.0,0.0,0.0,0.0,0.0,0.0,0.0,0.0,0.0,0.00012055243642896218,-0.0003214695447874238,-0.010445472045200436,0.0,0.0,0.0,0.0,0.0,0.0,0.0,0.0,0.0,0.002905785155430035,-0.003612244776266112,-2.2491578909598053e-05,0.0,0.0,0.0,0.0,0.0,0.0,0.0,0.0,0.0
7.136,203,7,136000000,base_footprint,-0.0038622978552997587,1.5508267479999753e-05,0.9999722191492826,0.006375213285054885,0.0,0.0,0.0,0.0,0.0,0.0,0.0,0.0,0.0,0.00011072913506423278,-0.00017277618336098273,-0.010932900379269342,0.0,0.0,0.0,0.0,0.0,0.0,0.0,0.0,0.0,0.005508166896458329,-0.0022214874387088326,-0.000204717307040847,0.0,0.0,0.0,0.0,0.0,0.0,0.0,0.0,0.0
7.17,204,7,170000000,base_footprint,-0.003863428982452832,1.5939423789208063e-05,0.9999709908769489,0.006564378645810113,0.0,0.0,0.0,0.0,0.0,0.0,0.0,0.0,0.0,9.668188893491346e-05,-0.0001001281064999312,-0.01129422216609315,0.0,0.0,0.0,0.0,0.0,0.0,0.0,0.0,0.0,0.005246542063870157,-0.0025566303708392936,-0.00011831039399909534,0.0,0.0,0.0,0.0,0.0,0.0,0.0,0.0,0.0
7.204,205,7,204000000,base_footprint,-0.003860053391504426,1.994001557901618e-05,0.9999626635707102,0.0077311742174991155,0.0,0.0,0.0,0.0,0.0,0.0,0.0,0.0,0.0,0.0031186325602148303,3.773399391094595e-05,-0.22405834130003813,0.0,0.0,0.0,0.0,0.0,0.0,0.0,0.0,0.0,0.03773210330862557,-0.011467796803045943,-0.000620601895156808,0.0,0.0,0.0,0.0,0.0,0.0,0.0,0.0,0.0
7.238,206,7,238000000,base_footprint,-0.0038650179984705763,3.083133162062846e-05,0.9999332309860526,0.010890098947867731,0.0,0.0,0.0,0.0,0.0,0.0,0.0,0.0,0.0,0.0008923043674115892,-0.0017025235733496822,-0.08553659599717763,0.0,0.0,0.0,0.0,0.0,0.0,0.0,0.0,0.0,0.12906631850126618,-0.05030519563068114,0.004160987714203654,0.0,0.0,0.0,0.0,0.0,0.0,0.0,0.0,0.0
7.272,207,7,272000000,base_footprint,-0.003874968080122727,3.281680973769971e-05,0.999928450265438,0.011317150489175717,0.0,0.0,0.0,0.0,0.0,0.0,0.0,0.0,0.0,9.723104895229517e-05,-0.00010566033341573839,-0.004107864000716916,0.0,0.0,0.0,0.0,0.0,0.0,0.0,0.0,0.0,0.182881547169886,-0.014253628270683143,-0.0013322819722536615,0.0,0.0,0.0,0.0,0.0,0.0,0.0,0.0,0.0
7.306,208,7,306000000,base_footprint,-0.003877531470675967,3.3341923786069556e-05,0.9999276376863188,0.011387845672831024,0.0,0.0,0.0,0.0,0.0,0.0,0.0,0.0,0.0,2.2849632075898794e-05,3.475452642465589e-05,-0.004223544024814057,0.0,0.0,0.0,0.0,0.0,0.0,0.0,0.0,0.0,-0.00496783995579424,0.00011303734729247356,-8.151214244007741e-05,0.0,0.0,0.0,0.0,0.0,0.0,0.0,0.0,0.0
7.34,209,7,340000000,base_footprint,-0.003878126609403492,3.373806989161911e-05,0.9999268334095199,0.011458046227624743,0.0,0.0,0.0,0.0,0.0,0.0,0.0,0.0,0.0,0.00012191778373869049,-0.0002914123033909093,-0.004313044662680657,0.0,0.0,0.0,0.0,0.0,0.0,0.0,0.0,0.0,-0.007838113401164465,-0.0026151379381539543,0.0006166599784018385,0.0,0.0,0.0,0.0,0.0,0.0,0.0,0.0,0.0
7.374,210,7,374000000,base_footprint,-0.003872932924172166,3.570936081595056e-05,0.999925418383075,0.01158260708298815,0.0,0.0,0.0,0.0,0.0,0.0,0.0,0.0,0.0,-0.000354425122891859,-0.0007195511218294253,-0.010965940824691838,0.0,0.0,0.0,0.0,0.0,0.0,0.0,0.0,0.0,-0.020527317308501047,0.005159959825931531,0.0006002033911120376,0.0,0.0,0.0,0.0,0.0,0.0,0.0,0.0,0.0
7.408,211,7,408000000,base_footprint,-0.0038727891223684294,3.424056557313311e-05,0.9999214309856229,0.01192192046868588,0.0,0.0,0.0,0.0,0.0,0.0,0.0,0.0,0.0,0.00026157535462662635,-0.0006367866405143936,-0.025514801383193387,0.0,0.0,0.0,0.0,0.0,0.0,0.0,0.0,0.0,-0.06799058365089962,-0.003004765306043597,-0.001751510883167983,0.0,0.0,0.0,0.0,0.0,0.0,0.0,0.0,0.0
7.445,212,7,442000000,base_footprint,-0.0038719491695152993,3.349631491748269e-05,0.9999173128211355,0.012262724337808263,0.0,0.0,0.0,0.0,0.0,0.0,0.0,0.0,0.0,0.0005545694646728556,0.0001790356320290106,-0.00743678578326739,0.0,0.0,0.0,0.0,0.0,0.0,0.0,0.0,0.0,0.04106427199387139,-0.007879052982239804,-0.0004685583732944998,0.0,0.0,0.0,0.0,0.0,0.0,0.0,0.0,0.0
7.476,213,7,476000000,base_footprint,-0.003872280751727728,3.633292656675414e-05,0.9999172328384301,0.012269131771852832,0.0,0.0,0.0,0.0,0.0,0.0,0.0,0.0,0.0,0.00014636107383616767,-0.00025404027403956586,0.0002958977088478644,0.0,0.0,0.0,0.0,0.0,0.0,0.0,0.0,0.0,0.019777338968912445,0.00020945787921333684,0.001565999707114211,0.0,0.0,0.0,0.0,0.0,0.0,0.0,0.0,0.0
7.51,214,7,510000000,base_footprint,-0.003867877493414567,3.758139356802889e-05,0.99991723752232,0.01227013516907331,0.0,0.0,0.0,0.0,0.0,0.0,0.0,0.0,0.0,0.00016007635245242916,-0.0003100664353370266,-0.00026898600843063757,0.0,0.0,0.0,0.0,0.0,0.0,0.0,0.0,0.0,0.003707044912326368,-5.521771933165029e-05,0.00010937662063732169,0.0,0.0,0.0,0.0,0.0,0.0,0.0,0.0,0.0
7.5440000000000005,215,7,544000000,base_footprint,-0.0038642573410753223,3.789547531247783e-05,0.9999171672618995,0.012276998577574437,0.0,0.0,0.0,0.0,0.0,0.0,0.0,0.0,0.0,3.754028398996214e-05,-0.0003452074119521813,-0.0005207370835489116,0.0,0.0,0.0,0.0,0.0,0.0,0.0,0.0,0.0,0.0054247218153524466,-0.0007476425284480963,0.0001680064328255214,0.0,0.0,0.0,0.0,0.0,0.0,0.0,0.0,0.0
7.578,216,7,578000000,base_footprint,-0.0038623479042402854,3.7910556240376616e-05,0.999917034086132,0.012288440741189803,0.0,0.0,0.0,0.0,0.0,0.0,0.0,0.0,0.0,3.5571014707424876e-05,-0.00024991597121402876,-0.000812279811715605,0.0,0.0,0.0,0.0,0.0,0.0,0.0,0.0,0.0,0.005627434488838331,-0.0004499157084492546,-0.0001344230586102202,0.0,0.0,0.0,0.0,0.0,0.0,0.0,0.0,0.0
7.612,217,7,612000000,base_footprint,-0.0038620912158869656,3.7822433937515876e-05,0.9999168303416076,0.012305089211243351,0.0,0.0,0.0,0.0,0.0,0.0,0.0,0.0,0.0,2.7586648442987524e-05,-0.00017088489948059,-0.0011333497383715645,0.0,0.0,0.0,0.0,0.0,0.0,0.0,0.0,0.0,0.005637105788899095,-0.0005640303472993004,-0.00011650533239488547,0.0,0.0,0.0,0.0,0.0,0.0,0.0,0.0,0.0
7.646,218,7,646000000,base_footprint,-0.00386334891183048,3.754640557744282e-05,0.9999165515517997,0.012327329727476402,0.0,0.0,0.0,0.0,0.0,0.0,0.0,0.0,0.0,1.3697217447511035e-05,-8.747494852576327e-05,-0.0014672708892447984,0.0,0.0,0.0,0.0,0.0,0.0,0.0,0.0,0.0,0.005572327415919673,-0.0006734017891926345,-0.00013694989054711568,0.0,0.0,0.0,0.0,0.0,0.0,0.0,0.0,0.0
7.68,219,7,680000000,base_footprint,-0.003866276454023924,3.698169587639935e-05,0.9999161975495218,0.012355096796103783,0.0,0.0,0.0,0.0,0.0,0.0,0.0,0.0,0.0,-7.3868077553050255e-06,1.7769058721169388e-05,-0.0017744503793570773,0.0,0.0,0.0,0.0,0.0,0.0,0.0,0.0,0.0,0.005348681459388346,-0.0007779938837370701,-0.00019371483565958872,0.0,0.0,0.0,0.0,0.0,0.0,0.0,0.0,0.0
7.714,220,7,714000000,base_footprint,-0.003868946718820446,3.4675541869464835e-05,0.9999078385798638,0.013013239236976904,0.0,0.0,0.0,0.0,0.0,0.0,0.0,0.0,0.0,0.0007937599046701261,-7.758914392839782e-05,-0.11752376278697757,0.0,0.0,0.0,0.0,0.0,0.0,0.0,0.0,0.0,-0.4037450217103916,0.012490216017551712,-0.002923501258728173,0.0,0.0,0.0,0.0,0.0,0.0,0.0,0.0,0.0
7.748,221,7,748000000,base_footprint,-0.0038709458999127123,4.0184352581673405e-05,0.999892086879404,0.014171406387802319,0.0,0.0,0.0,0.0,0.0,0.0,0.0,0.0,0.0,-0.0004276862516589264,0.00011303011682834586,0.000283898384991071,0.0,0.0,0.0,0.0,0.0,0.0,0.0,0.0,0.0,0.07161751049728755,-0.01972940206148597,0.000245432660985189,0.0,0.0,0.0,0.0,0.0,0.0,0.0,0.0,0.0
7.782,222,7,782000000,base_footprint,-0.0038772295962671856,4.3042926554272135e-05,0.9998918838422479,0.014184000294875928,0.0,0.0,0.0,0.0,0.0,0.0,0.0,0.0,0.0,2.883363687955771e-05,1.6883856918410864e-05,-0.0005065087817739076,0.0,0.0,0.0,0.0,0.0,0.0,0.0,0.0,0.0,-0.006573400192922449,0.0008192746032224688,-0.00018942082758748824,0.0,0.0,0.0,0.0,0.0,0.0,0.0,0.0,0.0
7.816,223,7,816000000,base_footprint,-0.003878089393845911,4.2662068766532134e-05,0.999895209503959,0.013947351491771466,0.0,0.0,0.0,0.0,0.0,0.0,0.0,0.0,0.0,8.2364348720676e-05,-0.0006497551540082298,0.018156099953293422,0.0,0.0,0.0,0.0,0.0,0.0,0.0,0.0,0.0,-0.014211286653355233,0.002054728553464321,0.0011938903417251412,0.0,0.0,0.0,0.0,0.0,0.0,0.0,0.0,0.0
7.85,224,7,850000000,base_footprint,-0.0038728859364834424,4.685319719554756e-05,0.9998986071449419,0.013703064945703823,0.0,0.0,0.0,0.0,0.0,0.0,0.0,0.0,0.0,-0.00020649093096127252,-0.0004719171940368355,0.012648189859674272,0.0,0.0,0.0,0.0,0.0,0.0,0.0,0.0,0.0,-0.009376306470610963,0.005226188737118111,-0.00040248304738221727,0.0,0.0,0.0,0.0,0.0,0.0,0.0,0.0,0.0
7.884,225,7,884000000,base_footprint,-0.003873532736069919,3.926188100196318e-05,0.9999004184196708,0.013570093839568656,0.0,0.0,0.0,0.0,0.0,0.0,0.0,0.0,0.0,0.0003306333221230582,0.0006876978790602062,-0.009750651266541134,0.0,0.0,0.0,0.0,0.0,0.0,0.0,0.0,0.0,-0.06979398487963792,0.005334035930179522,-0.0029021085986058914,0.0,0.0,0.0,0.0,0.0,0.0,0.0,0.0,0.0
7.918,226,7,918000000,base_footprint,-0.003858822982807822,5.36814981343742e-05,0.999881176052179,0.014924489270849191,0.0,0.0,0.0,0.0,0.0,0.0,0.0,0.0,0.0,0.00135455103115371,-8.109640044004124e-05,-0.16150710442992983,0.0,0.0,0.0,0.0,0.0,0.0,0.0,0.0,0.0,0.021219469693927826,-0.014111006981509673,0.0022146251381948167,0.0,0.0,0.0,0.0,0.0,0.0,0.0,0.0,0.0
7.952,227,7,952000000,base_footprint,-0.003863409679294533,4.9342390335492034e-05,0.999842895857144,0.017298995201427695,0.0,0.0,0.0,0.0,0.0,0.0,0.0,0.0,0.0,0.0006872440593911598,0.0003058247136598213,-0.10207036662902746,0.0,0.0,0.0,0.0,0.0,0.0,0.0,0.0,0.0,0.15175125437449896,-0.0334452880717967,0.00022000279881969514,0.0,0.0,0.0,0.0,0.0,0.0,0.0,0.0,0.0
7.986,228,7,986000000,base_footprint,-0.003859748804363289,5.638841036977215e-05,0.999825296659926,0.018288666392209642,0.0,0.0,0.0,0.0,0.0,0.0,0.0,0.0,0.0,-0.0004760558939849193,-0.0006360844746202298,-0.01079524439536001,0.0,0.0,0.0,0.0,0.0,0.0,0.0,0.0,0.0,0.18958634773511873,-0.03579447473890046,0.003361067174602508,0.0,0.0,0.0,0.0,0.0,0.0,0.0,0.0,0.0
8.02,229,8,20000000,base_footprint,-0.0038648629713923742,6.059459819361259e-05,0.9998282542161416,0.018125154719600484,0.0,0.0,0.0,0.0,0.0,0.0,0.0,0.0,0.0,-9.088487332207536e-05,-0.0005314292494731376,0.011372242532691363,0.0,0.0,0.0,0.0,0.0,0.0,0.0,0.0,0.0,0.037771323975563154,0.00040132201478432564,-4.8244077412728945e-05,0.0,0.0,0.0,0.0,0.0,0.0,0.0,0.0,0.0
8.054,230,8,54000000,base_footprint,-0.0038624070630585827,5.9628372283924194e-05,0.999831714315732,0.017933803405885983,0.0,0.0,0.0,0.0,0.0,0.0,0.0,0.0,0.0,-6.980501977613319e-05,-0.00027011174630329826,0.011132695857037776,0.0,0.0,0.0,0.0,0.0,0.0,0.0,0.0,0.0,0.005738662063663538,0.002172693844874535,-0.00034269760514883685,0.0,0.0,0.0,0.0,0.0,0.0,0.0,0.0,0.0
8.088,231,8,88000000,base_footprint,-0.003861750871585374,5.8632592081228233e-05,0.9998350512324962,0.017746936900118256,0.0,0.0,0.0,0.0,0.0,0.0,0.0,0.0,0.0,-7.316671789204745e-05,-0.0001880550992153598,0.010852184880011427,0.0,0.0,0.0,0.0,0.0,0.0,0.0,0.0,0.0,0.0058246861484681795,0.0019498131898902317,-0.0001180247434666633,0.0,0.0,0.0,0.0,0.0,0.0,0.0,0.0,0.0
8.122,232,8,122000000,base_footprint,-0.0038640696860885305,6.411987986911341e-05,0.9998058378955519,0.019322302245736677,0.0,0.0,0.0,0.0,0.0,0.0,0.0,0.0,0.0,0.001103399630962358,-0.002936755305638462,-0.1877342496211162,0.0,0.0,0.0,0.0,0.0,0.0,0.0,0.0,0.0,-0.556981613176561,0.027281825696083468,-0.0016774972127813652,0.0,0.0,0.0,0.0,0.0,0.0,0.0,0.0,0.0
8.156,233,8,156000000,base_footprint,-0.0038641761296561864,6.636667175730117e-05,0.9997912536383259,0.02006272380831527,0.0,0.0,0.0,0.0,0.0,0.0,0.0,0.0,0.0,-5.775024627246882e-05,0.00032777443117959216,0.01782430007859462,0.0,0.0,0.0,0.0,0.0,0.0,0.0,0.0,0.0,0.22561508640184358,-0.03320787672682596,-0.0016637806598556563,0.0,0.0,0.0,0.0,0.0,0.0,0.0,0.0,0.0
8.19,234,8,190000000,base_footprint,-0.0038664630167566465,6.361346687083903e-05,0.9997971427588772,0.019766632192976197,0.0,0.0,0.0,0.0,0.0,0.0,0.0,0.0,0.0,-0.0004001037824046594,-0.0017779257138604537,0.01597845659573797,0.0,0.0,0.0,0.0,0.0,0.0,0.0,0.0,0.0,0.043094097661828784,0.0015825267259756506,0.001628073480996943,0.0,0.0,0.0,0.0,0.0,0.0,0.0,0.0,0.0
8.224,235,8,224000000,base_footprint,-0.003873090276099228,6.26857421128809e-05,0.999804363418323,0.01939665259504169,0.0,0.0,0.0,0.0,0.0,0.0,0.0,0.0,0.0,-0.0003383902616829109,0.00014140863703424392,0.031208582803960407,0.0,0.0,0.0,0.0,0.0,0.0,0.0,0.0,0.0,0.3015177587219387,-0.021018139421890188,0.000889809008251275,0.0,0.0,0.0,0.0,0.0,0.0,0.0,0.0,0.0
8.258,236,8,258000000,base_footprint,-0.0038764194905694196,5.973517083895152e-05,0.9998146785605486,0.018856784946263656,0.0,0.0,0.0,0.0,0.0,0.0,0.0,0.0,0.0,-0.000256473855559824,4.1167633133462434e-05,0.03272899913865702,0.0,0.0,0.0,0.0,0.0,0.0,0.0,0.0,0.0,0.00040853083936127563,0.006426547352758023,0.000195307758867278,0.0,0.0,0.0,0.0,0.0,0.0,0.0,0.0,0.0
8.292,237,8,292000000,base_footprint,-0.003869376029731806,6.145726246122654e-05,0.9998249875452204,0.018303508744095396,0.0,0.0,0.0,0.0,0.0,0.0,0.0,0.0,0.0,0.004451305282800875,-0.00928497035944899,0.025564752093013503,0.0,0.0,0.0,0.0,0.0,0.0,0.0,0.0,0.0,-0.02602476869302371,0.012957808017309579,0.018017788113020183,0.0,0.0,0.0,0.0,0.0,0.0,0.0,0.0,0.0
8.326,238,8,326000000,base_footprint,-0.0038781429726625,6.11236307808234e-05,0.9998274710977253,0.018165470247499583,0.0,0.0,0.0,0.0,0.0,0.0,0.0,0.0,0.0,-0.0010201301921041624,0.0013628641189462741,0.007127384387041892,0.0,0.0,0.0,0.0,0.0,0.0,0.0,0.0,0.0,-0.10908877746992723,0.014200254439623526,-0.021361908030442817,0.0,0.0,0.0,0.0,0.0,0.0,0.0,0.0,0.0
8.36,239,8,360000000,base_footprint,-0.003867170500743343,5.783158187216679e-05,0.9998327301173496,0.017876057560697454,0.0,0.0,0.0,0.0,0.0,0.0,0.0,0.0,0.0,-0.00014188227962537762,0.00020212532556859982,0.028939088704842002,0.0,0.0,0.0,0.0,0.0,0.0,0.0,0.0,0.0,-0.10904292156086164,0.011353755387019479,0.0012556539425436796,0.0,0.0,0.0,0.0,0.0,0.0,0.0,0.0,0.0
8.394,240,8,394000000,base_footprint,-0.0038737681257369812,6.118449801467529e-05,0.9998510066928536,0.016821254181907105,0.0,0.0,0.0,0.0,0.0,0.0,0.0,0.0,0.0,-0.005056611086051022,-0.0024046326901259575,0.07449934020294412,0.0,0.0,0.0,0.0,0.0,0.0,0.0,0.0,0.0,-0.1759890416094567,0.01442321816438034,0.0017179238606920872,0.0,0.0,0.0,0.0,0.0,0.0,0.0,0.0,0.0
8.428,241,8,428000000,base_footprint,-0.0038691815284522487,5.3525194856384425e-05,0.9998545482142994,0.016610508256297268,0.0,0.0,0.0,0.0,0.0,0.0,0.0,0.0,0.0,0.0016535533124433827,-5.098699132093432e-05,0.016204995532923684,0.0,0.0,0.0,0.0,0.0,0.0,0.0,0.0,0.0,-0.23146909419266642,0.021355226003484447,-0.00521120373867538,0.0,0.0,0.0,0.0,0.0,0.0,0.0,0.0,0.0
8.462,242,8,462000000,base_footprint,-0.0038625365018492967,4.600613133730879e-05,0.9998747114281362,0.015350574637753975,0.0,0.0,0.0,0.0,0.0,0.0,0.0,0.0,0.0,0.00030538896218907036,-0.0015690570222589863,0.10643547988293842,0.0,0.0,0.0,0.0,0.0,0.0,0.0,0.0,0.0,-0.10647956683857723,0.025651441560211968,0.0019000811926075732,0.0,0.0,0.0,0.0,0.0,0.0,0.0,0.0,0.0
8.496,243,8,496000000,base_footprint,-0.0038529177922919365,4.298557395809653e-05,0.9999017939169249,0.01347426058979959,0.0,0.0,0.0,0.0,0.0,0.0,0.0,0.0,0.0,-0.0007834238503397651,0.0008410356384751014,0.0938579830477789,0.0,0.0,0.0,0.0,0.0,0.0,0.0,0.0,0.0,0.1607681395520572,0.010355962754417188,-0.000818943706623906,0.0,0.0,0.0,0.0,0.0,0.0,0.0,0.0,0.0
8.53,244,8,530000000,base_footprint,-0.0038590653619733147,3.618886535695709e-05,0.9999165279815179,0.012330586939994437,0.0,0.0,0.0,0.0,0.0,0.0,0.0,0.0,0.0,-0.0010254059332461623,-0.0019039641368262018,0.09351222391892546,0.0,0.0,0.0,0.0,0.0,0.0,0.0,0.0,0.0,0.5303324937808521,-0.013725688764713808,0.0069639858229051735,0.0,0.0,0.0,0.0,0.0,0.0,0.0,0.0,0.0
8.564,245,8,564000000,base_footprint,-0.0038617330975054317,3.203691283328589e-05,0.9999364914506187,0.010587684191869067,0.0,0.0,0.0,0.0,0.0,0.0,0.0,0.0,0.0,-0.000764016018809256,-0.00015197111013510014,0.10288521943137025,0.0,0.0,0.0,0.0,0.0,0.0,0.0,0.0,0.0,0.03092158151975118,0.02132701128444089,-0.0020266013098317677,0.0,0.0,0.0,0.0,0.0,0.0,0.0,0.0,0.0
8.598,246,8,598000000,base_footprint,-0.0038679842489938547,2.585362250693683e-05,0.9999533787989378,0.008847500100467602,0.0,0.0,0.0,0.0,0.0,0.0,0.0,0.0,0.0,-0.0008548327497427577,-0.00465963695194685,0.10071255343132046,0.0,0.0,0.0,0.0,0.0,0.0,0.0,0.0,0.0,-0.27743869510819785,0.03173739115909381,-0.0017712147957873424,0.0,0.0,0.0,0.0,0.0,0.0,0.0,0.0,0.0
8.632,247,8,632000000,base_footprint,-0.0038635667271092735,1.92794364005469e-05,0.9999645828498157,0.007476999828992433,0.0,0.0,0.0,0.0,0.0,0.0,0.0,0.0,0.0,-0.00048140200797392764,0.00032685994477882726,0.08786958830549055,0.0,0.0,0.0,0.0,0.0,0.0,0.0,0.0,0.0,-0.38715541059989006,0.02808597361321309,-0.003921618416280069,0.0,0.0,0.0,0.0,0.0,0.0,0.0,0.0,0.0
8.666,248,8,666000000,base_footprint,-0.003865604486210325,1.3267339956586992e-05,0.9999745519268229,0.005996034079603414,0.0,0.0,0.0,0.0,0.0,0.0,0.0,0.0,0.0,-0.000675600020529959,-1.5593654995597475e-05,0.08692357968808317,0.0,0.0,0.0,0.0,0.0,0.0,0.0,0.0,0.0,0.0050757304047699394,0.017790446375495927,0.0002020739061324567,0.0,0.0,0.0,0.0,0.0,0.0,0.0,0.0,0.0
8.7,249,8,700000000,base_footprint,-0.003862465851396525,7.960920066532553e-06,0.9999820770917061,0.0045745808035212365,0.0,0.0,0.0,0.0,0.0,0.0,0.0,0.0,0.0,-0.00046296718282996916,-0.00017328703301713235,0.07039530421081752,0.0,0.0,0.0,0.0,0.0,0.0,0.0,0.0,0.0,0.2365461075373168,0.012332715370236677,0.0023849454892188623,0.0,0.0,0.0,0.0,0.0,0.0,0.0,0.0,0.0
8.734,250,8,734000000,base_footprint,-0.003870284506392131,1.2248669522696732e-06,0.9999861721231277,0.0035604015045768377,0.0,0.0,0.0,0.0,0.0,0.0,0.0,0.0,0.0,-0.000866062055410166,0.0007180584991602986,0.07824106754239019,0.0,0.0,0.0,0.0,0.0,0.0,0.0,0.0,0.0,0.4622031937921992,0.004362423563887422,0.000821435473067891,0.0,0.0,0.0,0.0,0.0,0.0,0.0,0.0,0.0
8.768,251,8,768000000,base_footprint,-0.0038776442441974717,-2.3432194621240293e-06,0.9999899197898939,0.002263666986634764,0.0,0.0,0.0,0.0,0.0,0.0,0.0,0.0,0.0,-0.0005272040418145305,-7.100665543479443e-05,0.07520088037310417,0.0,0.0,0.0,0.0,0.0,0.0,0.0,0.0,0.0,-0.004401248321410357,0.015454172905155505,0.002020401763761893,0.0,0.0,0.0,0.0,0.0,0.0,0.0,0.0,0.0
8.802,252,8,802000000,base_footprint,-0.003856814613471544,-6.2247842620517605e-06,0.9999920223552716,0.0010393113601784743,0.0,0.0,0.0,0.0,0.0,0.0,0.0,0.0,0.0,-0.002140749526453046,0.0018770088623259837,0.059539774452523044,0.0,0.0,0.0,0.0,0.0,0.0,0.0,0.0,0.0,-0.11379026533759416,0.020915334490628743,-0.004148741663723037,0.0,0.0,0.0,0.0,0.0,0.0,0.0,0.0,0.0
8.836,253,8,836000000,base_footprint,-0.003879799541414673,-5.231264094466479e-06,0.9999924033429943,0.0003746791353266917,0.0,0.0,0.0,0.0,0.0,0.0,0.0,0.0,0.0,-0.001006408331765199,0.0006349392086384303,0.02395461561816542,0.0,0.0,0.0,0.0,0.0,0.0,0.0,0.0,0.0,-0.13075091055745325,0.006462438006102422,0.00048164733804058595,0.0,0.0,0.0,0.0,0.0,0.0,0.0,0.0,0.0
8.870000000000001,254,8,870000000,base_footprint,-0.0038701208759671438,-6.469113580581769e-06,0.9999925103396838,3.724370413153066e-05,0.0,0.0,0.0,0.0,0.0,0.0,0.0,0.0,0.0,-0.0006482677081591209,-0.0004594697760295138,0.03509760743154169,0.0,0.0,0.0,0.0,0.0,0.0,0.0,0.0,0.0,-0.09093246900364232,0.006991433413206355,0.0017076614849514582,0.0,0.0,0.0,0.0,0.0,0.0,0.0,0.0,0.0
8.904,255,8,904000000,base_footprint,-0.003854664670213816,-1.0932976071813364e-05,0.9999920031355256,-0.001065413417102093,0.0,0.0,0.0,0.0,0.0,0.0,0.0,0.0,0.0,0.0004212254962804353,4.996633426494461e-05,0.05975027632338167,0.0,0.0,0.0,0.0,0.0,0.0,0.0,0.0,0.0,0.03908021070019224,0.013949805228443588,-0.0005276058769686206,0.0,0.0,0.0,0.0,0.0,0.0,0.0,0.0,0.0
8.938,256,8,938000000,base_footprint,-0.0038696146044660744,-1.1902042309044996e-05,0.9999912941683022,-0.001561258709624734,0.0,0.0,0.0,0.0,0.0,0.0,0.0,0.0,0.0,-0.001519761832113286,0.001258708157884712,-0.0026651978438902396,0.0,0.0,0.0,0.0,0.0,0.0,0.0,0.0,0.0,0.2754882235660554,0.00011625562054044645,-0.00025585335562719556,0.0,0.0,0.0,0.0,0.0,0.0,0.0,0.0,0.0
8.972,257,8,972000000,base_footprint,-0.0038684442338165156,-1.4849047751292988e-05,0.9999914093432442,-0.0014886767372240262,0.0,0.0,0.0,0.0,0.0,0.0,0.0,0.0,0.0,-8.786106577977936e-05,-0.0002940794798210617,-0.003913109482304307,0.0,0.0,0.0,0.0,0.0,0.0,0.0,0.0,0.0,0.00336646323841002,0.0050339542680346945,0.0031845673926255667,0.0,0.0,0.0,0.0,0.0,0.0,0.0,0.0,0.0
9.006,258,9,6000000,base_footprint,-0.003872328626267854,-1.4143395747966432e-05,0.9999914578294486,-0.0014453854532982474,0.0,0.0,0.0,0.0,0.0,0.0,0.0,0.0,0.0,0.0001398352217797502,0.0014090529767392932,0.0016426148253710679,0.0,0.0,0.0,0.0,0.0,0.0,0.0,0.0,0.0,-0.47016738575704925,-0.003908222426528101,-0.005281965371938729,0.0,0.0,0.0,0.0,0.0,0.0,0.0,0.0,0.0
9.04,259,9,40000000,base_footprint,-0.0038564869750782747,-1.3665589593361174e-05,0.9999909519354533,-0.0017953742475610452,0.0,0.0,0.0,0.0,0.0,0.0,0.0,0.0,0.0,0.0008942112626999419,0.0018150146333095248,0.004252905597649247,0.0,0.0,0.0,0.0,0.0,0.0,0.0,0.0,0.0,0.0960534713723881,-0.00280534840428134,0.0004246910415609509,0.0,0.0,0.0,0.0,0.0,0.0,0.0,0.0,0.0
9.074,260,9,74000000,base_footprint,-0.0038605945424981625,-1.4459473476328214e-05,0.9999911976755712,-0.001643220033659838,0.0,0.0,0.0,0.0,0.0,0.0,0.0,0.0,0.0,0.00013592202949846692,-0.00021531320489647868,-0.009998203631405286,0.0,0.0,0.0,0.0,0.0,0.0,0.0,0.0,0.0,0.050956518470267755,0.006703047016712304,0.0023566237110309186,0.0,0.0,0.0,0.0,0.0,0.0,0.0,0.0,0.0
9.108,261,9,108000000,base_footprint,-0.0038683713258264567,-1.3749643962717066e-05,0.9999914131097755,-0.0014863448278812474,0.0,0.0,0.0,0.0,0.0,0.0,0.0,0.0,0.0,9.106084950638333e-05,-0.000497124646038105,-0.006969944146369664,0.0,0.0,0.0,0.0,0.0,0.0,0.0,0.0,0.0,-0.5666925414620909,-0.004873741031003823,-0.00405017790372958,0.0,0.0,0.0,0.0,0.0,0.0,0.0,0.0,0.0
9.142,262,9,142000000,base_footprint,-0.0038588018755992015,-1.457098041519266e-05,0.9999911052372573,-0.001702610389989837,0.0,0.0,0.0,0.0,0.0,0.0,0.0,0.0,0.0,0.001245098094061184,-0.00025091144701225917,-0.015209228858552798,0.0,0.0,0.0,0.0,0.0,0.0,0.0,0.0,0.0,0.22968743580490902,-0.001842835188134496,0.0032316460837837693,0.0,0.0,0.0,0.0,0.0,0.0,0.0,0.0,0.0
9.176,263,9,176000000,base_footprint,-0.0038657300327306268,-1.4012315585338143e-05,0.999991572136959,-0.0013826026262899762,0.0,0.0,0.0,0.0,0.0,0.0,0.0,0.0,0.0,0.0001650493929324714,1.2337796333596149e-05,-0.018896241016995264,0.0,0.0,0.0,0.0,0.0,0.0,0.0,0.0,0.0,0.013674328980441464,0.0015786534237446656,-0.0021907002316667403,0.0,0.0,0.0,0.0,0.0,0.0,0.0,0.0,0.0
9.21,264,9,210000000,base_footprint,-0.003866162752821075,-1.1623959097456764e-05,0.9999919950929853,-0.0010307280936691912,0.0,0.0,0.0,0.0,0.0,0.0,0.0,0.0,0.0,-0.00025087935580143277,0.0018683816542754217,-0.034262829529144,0.0,0.0,0.0,0.0,0.0,0.0,0.0,0.0,0.0,0.27165496099272946,-0.00021644876766382454,-0.0012249635236474753,0.0,0.0,0.0,0.0,0.0,0.0,0.0,0.0,0.0
9.244,265,9,244000000,base_footprint,-0.00386465652062491,-1.0429784978007054e-05,0.9999923729984551,-0.0005641507918215416,0.0,0.0,0.0,0.0,0.0,0.0,0.0,0.0,0.0,0.0011763747563740985,0.0011858525154711252,-0.0351259066613145,0.0,0.0,0.0,0.0,0.0,0.0,0.0,0.0,0.0,0.3075396334570765,-0.007552771863822566,0.004173409378931842,0.0,0.0,0.0,0.0,0.0,0.0,0.0,0.0,0.0
9.278,266,9,278000000,base_footprint,-0.0038771160198138727,-5.1744730175303875e-06,0.9999922366312604,0.0007032935398138757,0.0,0.0,0.0,0.0,0.0,0.0,0.0,0.0,0.0,0.000447647915517922,0.000597983762860732,-0.08370173165222822,0.0,0.0,0.0,0.0,0.0,0.0,0.0,0.0,0.0,0.12198571284263864,-0.0192697966509615,0.0009955078101669228,0.0,0.0,0.0,0.0,0.0,0.0,0.0,0.0,0.0
9.312,267,9,312000000,base_footprint,-0.0038736596735513573,2.8576359635812426e-06,0.9999901478051385,0.002167728125202645,0.0,0.0,0.0,0.0,0.0,0.0,0.0,0.0,0.0,0.0006980017522513935,-0.0004306297716088925,-0.08865171516611545,0.0,0.0,0.0,0.0,0.0,0.0,0.0,0.0,0.0,-0.011538088233751298,-0.01994679712531189,0.002005075666924267,0.0,0.0,0.0,0.0,0.0,0.0,0.0,0.0,0.0
9.346,268,9,346000000,base_footprint,-0.003869902814547981,1.0474914128635275e-05,0.9999864153480148,0.003491827875192761,0.0,0.0,0.0,0.0,0.0,0.0,0.0,0.0,0.0,0.000490415666809896,-0.00023630962143619255,-0.06342003908822853,0.0,0.0,0.0,0.0,0.0,0.0,0.0,0.0,0.0,-0.051908943799388124,-0.01778402011507613,-0.000887908899543299,0.0,0.0,0.0,0.0,0.0,0.0,0.0,0.0,0.0
9.38,269,9,380000000,base_footprint,-0.003873190941451202,1.1020339372969942e-05,0.9999810625017382,0.0047825629507483565,0.0,0.0,0.0,0.0,0.0,0.0,0.0,0.0,0.0,0.0006958472520809369,0.0012016320667254461,-0.09249143366367736,0.0,0.0,0.0,0.0,0.0,0.0,0.0,0.0,0.0,0.009398869618331135,-0.012687102159156048,-0.002459617021816937,0.0,0.0,0.0,0.0,0.0,0.0,0.0,0.0,0.0
9.414,270,9,414000000,base_footprint,-0.0038728584400903733,1.514332922295724e-05,0.9999739510909665,0.006090802714265792,0.0,0.0,0.0,0.0,0.0,0.0,0.0,0.0,0.0,0.0005210126214983644,-3.863639480644055e-05,-0.0570913359454297,0.0,0.0,0.0,0.0,0.0,0.0,0.0,0.0,0.0,-0.3481447543209154,-0.007818568205841564,0.00010096686944470663,0.0,0.0,0.0,0.0,0.0,0.0,0.0,0.0,0.0
9.448,271,9,448000000,base_footprint,-0.003871031947640831,2.0544208253398808e-05,0.9999667902585655,0.007171685267636014,0.0,0.0,0.0,0.0,0.0,0.0,0.0,0.0,0.0,0.00037174031497959337,-7.844990737651506e-05,-0.07551666843448962,0.0,0.0,0.0,0.0,0.0,0.0,0.0,0.0,0.0,0.023937330380989857,-0.01007958521037242,-0.00039233298968030387,0.0,0.0,0.0,0.0,0.0,0.0,0.0,0.0,0.0
9.482,272,9,482000000,base_footprint,-0.0038669820630849706,2.502939620670528e-05,0.9999567554407538,0.008457722604438193,0.0,0.0,0.0,0.0,0.0,0.0,0.0,0.0,0.0,0.0006454951396136533,-0.00046202393058893847,-0.07583752127983338,0.0,0.0,0.0,0.0,0.0,0.0,0.0,0.0,0.0,0.0020748438874592947,-0.018667061484125332,0.0011387152960080544,0.0,0.0,0.0,0.0,0.0,0.0,0.0,0.0,0.0
9.516,273,9,516000000,base_footprint,-0.0038657758005027896,2.690859714249786e-05,0.9999467616324504,0.009567076573486832,0.0,0.0,0.0,0.0,0.0,0.0,0.0,0.0,0.0,0.0002611899548356431,-0.002018324380359093,-0.031276299871148695,0.0,0.0,0.0,0.0,0.0,0.0,0.0,0.0,0.0,-0.6958335019775773,0.01554590390562079,-0.0042187652584628425,0.0,0.0,0.0,0.0,0.0,0.0,0.0,0.0,0.0
9.55,274,9,550000000,base_footprint,-0.0038619490150769353,3.230997723105781e-05,0.9999398931780906,0.010261302883124393,0.0,0.0,0.0,0.0,0.0,0.0,0.0,0.0,0.0,0.0004115272908384836,-0.0019901665048552863,-0.06749973937852626,0.0,0.0,0.0,0.0,0.0,0.0,0.0,0.0,0.0,0.36540673775238836,-0.026201625021811826,0.0035043895471701192,0.0,0.0,0.0,0.0,0.0,0.0,0.0,0.0,0.0
9.584,275,9,584000000,base_footprint,-0.003860440416941176,3.6460635739786355e-05,0.9999274985429645,0.011405846221091066,0.0,0.0,0.0,0.0,0.0,0.0,0.0,0.0,0.0,0.0005507475665673991,-0.00021007246444084584,-0.06742916557929307,0.0,0.0,0.0,0.0,0.0,0.0,0.0,0.0,0.0,0.0015244452961194652,-0.012446391730490386,-0.0022973192935688814,0.0,0.0,0.0,0.0,0.0,0.0,0.0,0.0,0.0
9.618,276,9,618000000,base_footprint,-0.0038673658526352708,4.1488680869912554e-05,0.9999136462020317,0.012559534187609443,0.0,0.0,0.0,0.0,0.0,0.0,0.0,0.0,0.0,0.0005978312577767319,-1.5160832673230396e-05,-0.06796105027894639,0.0,0.0,0.0,0.0,0.0,0.0,0.0,0.0,0.0,-0.8524720745409283,0.029529760355482854,-0.006770091197889877,0.0,0.0,0.0,0.0,0.0,0.0,0.0,0.0,0.0
9.652,277,9,652000000,base_footprint,-0.0038642349727554624,4.3971022169251016e-05,0.9998997435343474,0.013622357893221011,0.0,0.0,0.0,0.0,0.0,0.0,0.0,0.0,0.0,0.00044693389908174346,-0.00013427054732392539,-0.06099156038595476,0.0,0.0,0.0,0.0,0.0,0.0,0.0,0.0,0.0,0.17789414868351272,-0.02069961406799474,0.001345376909374034,0.0,0.0,0.0,0.0,0.0,0.0,0.0,0.0,0.0
9.686,278,9,686000000,base_footprint,-0.0038667881746507317,4.704309499816801e-05,0.9998850323318891,0.014661782115988264,0.0,0.0,0.0,0.0,0.0,0.0,0.0,0.0,0.0,0.00043542383429225995,-3.437238972264928e-05,-0.06129310468941373,0.0,0.0,0.0,0.0,0.0,0.0,0.0,0.0,0.0,0.00346635473683986,-0.010690104258307628,-0.00017811907511547706,0.0,0.0,0.0,0.0,0.0,0.0,0.0,0.0,0.0
9.72,279,9,720000000,base_footprint,-0.0038660774008020377,5.781014915268364e-05,0.9998671677676929,0.01583341162636322,0.0,0.0,0.0,0.0,0.0,0.0,0.0,0.0,0.0,0.00025121682707590447,-0.0004239031883528171,-0.045133502817408425,0.0,0.0,0.0,0.0,0.0,0.0,0.0,0.0,0.0,-0.6645750396244506,0.03222198409603126,-0.004519683298101252,0.0,0.0,0.0,0.0,0.0,0.0,0.0,0.0,0.0
9.754,280,9,754000000,base_footprint,-0.003872906287092624,5.543561468914646e-05,0.999850837394881,0.016831532447737173,0.0,0.0,0.0,0.0,0.0,0.0,0.0,0.0,0.0,0.0002804551348686098,0.00035384781802608856,-0.06973476441915959,0.0,0.0,0.0,0.0,0.0,0.0,0.0,0.0,0.0,0.33352869175870475,-0.034564065800501094,0.0007041615930348821,0.0,0.0,0.0,0.0,0.0,0.0,0.0,0.0,0.0
9.788,281,9,788000000,base_footprint,-0.003876169543398733,5.973537392632567e-05,0.9998302618555849,0.018011641211968125,0.0,0.0,0.0,0.0,0.0,0.0,0.0,0.0,0.0,0.0005156722339536975,-1.3605466664576647e-05,-0.06903055284662024,0.0,0.0,0.0,0.0,0.0,0.0,0.0,0.0,0.0,-0.003559852089563479,-0.010947019938041327,0.0009286687893074042,0.0,0.0,0.0,0.0,0.0,0.0,0.0,0.0,0.0
9.822,282,9,822000000,base_footprint,-0.003854979674097956,6.836465957777935e-05,0.9998015633788898,0.019544009903636222,0.0,0.0,0.0,0.0,0.0,0.0,0.0,0.0,0.0,0.0022410738801189683,0.00022666186228936325,-0.09973942645781983,0.0,0.0,0.0,0.0,0.0,0.0,0.0,0.0,0.0,-0.43649858866236907,0.01896415983287491,-0.01744075264165355,0.0,0.0,0.0,0.0,0.0,0.0,0.0,0.0,0.0
9.856,283,9,856000000,base_footprint,-0.0038791213842197672,7.083538847614651e-05,0.9997764833189623,0.02078294497906965,0.0,0.0,0.0,0.0,0.0,0.0,0.0,0.0,0.0,0.000499166596392619,-0.0001656744321410053,-0.06578373196987675,0.0,0.0,0.0,0.0,0.0,0.0,0.0,0.0,0.0,0.0876252970292099,-0.02042601150062704,0.01497809958410375,0.0,0.0,0.0,0.0,0.0,0.0,0.0,0.0,0.0
9.89,284,9,890000000,base_footprint,-0.003874218740303294,7.446585886580341e-05,0.9997530241029319,0.021883228304593084,0.0,0.0,0.0,0.0,0.0,0.0,0.0,0.0,0.0,-0.0027407814850692836,-0.0030799114374427867,-0.06855825813859501,0.0,0.0,0.0,0.0,0.0,0.0,0.0,0.0,0.0,-0.01525207152011291,-0.004882134165158601,0.0077433796330546876,0.0,0.0,0.0,0.0,0.0,0.0,0.0,0.0,0.0
9.924,285,9,924000000,base_footprint,-0.003871831578183279,9.050084707219738e-05,0.999715595662028,0.023531436844012134,0.0,0.0,0.0,0.0,0.0,0.0,0.0,0.0,0.0,0.0014789609897696576,0.00031397408056629605,-0.10467314844611329,0.0,0.0,0.0,0.0,0.0,0.0,0.0,0.0,0.0,-0.1359899706432386,-0.004803789996774423,-0.009067217835481402,0.0,0.0,0.0,0.0,0.0,0.0,0.0,0.0,0.0
9.958,286,9,958000000,base_footprint,-0.0038745037164687763,9.211054896487024e-05,0.9996766411388671,0.02513151204982368,0.0,0.0,0.0,0.0,0.0,0.0,0.0,0.0,0.0,0.0005702104080884949,-0.00017658319316885647,-0.07751437762584157,0.0,0.0,0.0,0.0,0.0,0.0,0.0,0.0,0.0,-0.1664213366313306,0.004867089675029637,-0.0009788133653422988,0.0,0.0,0.0,0.0,0.0,0.0,0.0,0.0,0.0
9.992,287,9,992000000,base_footprint,-0.003871976655695611,9.277340408560539e-05,0.9996547335640557,0.02598870625579865,0.0,0.0,0.0,0.0,0.0,0.0,0.0,0.0,0.0,0.00021333493288508006,-0.00033260437381824927,-0.05658751257292239,0.0,0.0,0.0,0.0,0.0,0.0,0.0,0.0,0.0,-0.09373049004914724,0.0013358964927016772,-0.0013707634187119905,0.0,0.0,0.0,0.0,0.0,0.0,0.0,0.0,0.0
10.026,288,10,26000000,base_footprint,-0.003876568179382678,9.626552702664005e-05,0.999626174483816,0.027064261285881647,0.0,0.0,0.0,0.0,0.0,0.0,0.0,0.0,0.0,0.00034955753287105453,-6.025061246100711e-05,-0.05678405182698467,0.0,0.0,0.0,0.0,0.0,0.0,0.0,0.0,0.0,0.03309462118422417,-0.011840406748835824,0.0007710176121709959,0.0,0.0,0.0,0.0,0.0,0.0,0.0,0.0,0.0
10.06,289,10,60000000,base_footprint,-0.003873546710863358,9.868348515059812e-05,0.9995982360143353,0.028077614828861654,0.0,0.0,0.0,0.0,0.0,0.0,0.0,0.0,0.0,0.00043468992091105616,-0.00031554140000666355,-0.05996217585452444,0.0,0.0,0.0,0.0,0.0,0.0,0.0,0.0,0.0,-0.0033937127322808893,-0.006921568545461925,0.0003510453310603399,0.0,0.0,0.0,0.0,0.0,0.0,0.0,0.0,0.0
10.094,290,10,94000000,base_footprint,-0.003882865997767269,0.00010624211128218092,0.9995696633192325,0.02907576716328615,0.0,0.0,0.0,0.0,0.0,0.0,0.0,0.0,0.0,-0.0004823026353974561,-0.0016033569096156749,-0.05048230658469096,0.0,0.0,0.0,0.0,0.0,0.0,0.0,0.0,0.0,-0.11924155549870595,0.0036422235095632557,0.006466653323365729,0.0,0.0,0.0,0.0,0.0,0.0,0.0,0.0,0.0
10.128,291,10,128000000,base_footprint,-0.0038650242413583004,0.00010600953515554689,0.9995631409519617,0.02930149483970189,0.0,0.0,0.0,0.0,0.0,0.0,0.0,0.0,0.0,-0.0017693419138439456,-0.004926192729338743,0.03091468974481908,0.0,0.0,0.0,0.0,0.0,0.0,0.0,0.0,0.0,-0.5838704605789194,0.0669175624910576,-0.00633654655918518,0.0,0.0,0.0,0.0,0.0,0.0,0.0,0.0,0.0
10.157,292,10,162000000,base_footprint,-0.0038660364338721468,0.00010372209049275352,0.9995784290876909,0.028775112625393683,0.0,0.0,0.0,0.0,0.0,0.0,0.0,0.0,0.0,-0.00022257212201399676,-0.0003511536237047914,0.030914229054360382,0.0,0.0,0.0,0.0,0.0,0.0,0.0,0.0,0.0,0.011583766333719664,0.004229785291613019,-0.005155840968809716,0.0,0.0,0.0,0.0,0.0,0.0,0.0,0.0,0.0
10.196,293,10,196000000,base_footprint,-0.003864407951516342,0.00010255040982707236,0.9995955603901753,0.02817395043030461,0.0,0.0,0.0,0.0,0.0,0.0,0.0,0.0,0.0,-0.0006841073452283044,-1.4505097270277974e-05,0.05463621369379872,0.0,0.0,0.0,0.0,0.0,0.0,0.0,0.0,0.0,-0.002458820478012395,0.0029903177318104934,-0.00043575626162613306,0.0,0.0,0.0,0.0,0.0,0.0,0.0,0.0,0.0
10.23,294,10,230000000,base_footprint,-0.0038624473414486417,9.753189741929537e-05,0.9996206301531048,0.02727027246606271,0.0,0.0,0.0,0.0,0.0,0.0,0.0,0.0,0.0,-0.00039475451879262847,-0.0002377458216253601,0.05294324583970472,0.0,0.0,0.0,0.0,0.0,0.0,0.0,0.0,0.0,0.00336099948636441,0.007121053303410346,0.0002875515491402078,0.0,0.0,0.0,0.0,0.0,0.0,0.0,0.0,0.0
10.264,295,10,264000000,base_footprint,-0.0038615493813268114,9.388098444398526e-05,0.9996447375044863,0.026371924509275533,0.0,0.0,0.0,0.0,0.0,0.0,0.0,0.0,0.0,-0.0003918905268748014,-0.00020722303885511878,0.05277845373204345,0.0,0.0,0.0,0.0,0.0,0.0,0.0,0.0,0.0,0.003592838063940677,0.005755528907531972,-2.5734566081430146e-05,0.0,0.0,0.0,0.0,0.0,0.0,0.0,0.0,0.0
10.298,296,10,298000000,base_footprint,-0.0038607133199732983,9.041007354164975e-05,0.9996662628756644,0.025543092743101087,0.0,0.0,0.0,0.0,0.0,0.0,0.0,0.0,0.0,-0.00012890101521219482,-3.0021163339183202e-05,0.03726814826098009,0.0,0.0,0.0,0.0,0.0,0.0,0.0,0.0,0.0,0.007576883546409065,0.005642512572854627,-0.00021056413434465527,0.0,0.0,0.0,0.0,0.0,0.0,0.0,0.0,0.0
10.332,297,10,332000000,base_footprint,-0.003861169034826548,8.781144175354782e-05,0.999682416862149,0.024902792604203385,0.0,0.0,0.0,0.0,0.0,0.0,0.0,0.0,0.0,-0.00027951930565699065,-0.00017356295829677648,0.03764757261377453,0.0,0.0,0.0,0.0,0.0,0.0,0.0,0.0,0.0,0.0032787413462530223,0.003387935725863267,0.0002116402405089611,0.0,0.0,0.0,0.0,0.0,0.0,0.0,0.0,0.0
10.366,298,10,366000000,base_footprint,-0.0038615795637010663,8.508640529115932e-05,0.999698111092027,0.02426453466708593,0.0,0.0,0.0,0.0,0.0,0.0,0.0,0.0,0.0,-0.00028249842962865693,-0.00015569875527773089,0.03746146151653143,0.0,0.0,0.0,0.0,0.0,0.0,0.0,0.0,0.0,0.003372563454692689,0.003993699781246883,-1.716085633718669e-05,0.0,0.0,0.0,0.0,0.0,0.0,0.0,0.0,0.0
10.4,299,10,400000000,base_footprint,-0.0038625319238067865,8.211445372676583e-05,0.9997142305335217,0.023590917174259544,0.0,0.0,0.0,0.0,0.0,0.0,0.0,0.0,0.0,-0.00032769994924594593,-0.0002669583236479659,0.044418697420832556,0.0,0.0,0.0,0.0,0.0,0.0,0.0,0.0,0.0,0.0014211128900210284,0.0040926126929720615,0.00014268952727872048,0.0,0.0,0.0,0.0,0.0,0.0,0.0,0.0,0.0
10.434,300,10,434000000,base_footprint,-0.0038636797925432837,7.885323365326592e-05,0.9997316574569027,0.022840289820892947,0.0,0.0,0.0,0.0,0.0,0.0,0.0,0.0,0.0,-0.00034481020694081727,-0.00010747786714044333,0.04406347010279867,0.0,0.0,0.0,0.0,0.0,0.0,0.0,0.0,0.0,0.0034492045116079873,0.005024690380832159,-0.00021877949146315408,0.0,0.0,0.0,0.0,0.0,0.0,0.0,0.0,0.0
10.468,301,10,468000000,base_footprint,-0.0038654544229900574,7.54655774564112e-05,0.9997484512409824,0.022092686760724924,0.0,0.0,0.0,0.0,0.0,0.0,0.0,0.0,0.0,-0.0003510086604930682,-7.850959086232108e-05,0.0439166311124518,0.0,0.0,0.0,0.0,0.0,0.0,0.0,0.0,0.0,0.003239277300834598,0.004759187006729093,-4.9467467524497624e-05,0.0,0.0,0.0,0.0,0.0,0.0,0.0,0.0,0.0
10.501,302,10,502000000,base_footprint,-0.0038678453899123077,7.174518145958203e-05,0.9997655328077409,0.021305258372583614,0.0,0.0,0.0,0.0,0.0,0.0,0.0,0.0,0.0,-0.0003899105635003525,-0.00018531311006749173,0.050348510849139744,0.0,0.0,0.0,0.0,0.0,0.0,0.0,0.0,0.0,0.0012908915666991064,0.004833761911840659,0.00012017752108820999,0.0,0.0,0.0,0.0,0.0,0.0,0.0,0.0,0.0
10.536,303,10,536000000,base_footprint,-0.0038706545073168416,6.79878495154299e-05,0.9997833532297247,0.02045140621240945,0.0,0.0,0.0,0.0,0.0,0.0,0.0,0.0,0.0,-0.0004750467010357861,-9.103024175271381e-06,0.05030629764837586,0.0,0.0,0.0,0.0,0.0,0.0,0.0,0.0,0.0,0.002592095012981449,0.0056491870273774015,-0.000372292822768372,0.0,0.0,0.0,0.0,0.0,0.0,0.0,0.0,0.0
10.57,304,10,570000000,base_footprint,-0.0038732526504398944,6.456261249123926e-05,0.9998004872250938,0.019595394613017826,0.0,0.0,0.0,0.0,0.0,0.0,0.0,0.0,0.0,-0.00047688959473561404,1.4123428586633661e-05,0.05039869561480734,0.0,0.0,0.0,0.0,0.0,0.0,0.0,0.0,0.0,0.0023662568248182065,0.0051747201016906445,-4.6323507607756525e-05,0.0,0.0,0.0,0.0,0.0,0.0,0.0,0.0,0.0
10.604,305,10,604000000,base_footprint,-0.003875094388505191,6.127739352047196e-05,0.9998154091045729,0.018818278497698918,0.0,0.0,0.0,0.0,0.0,0.0,0.0,0.0,0.0,-0.0004673993097992103,6.136741182986215e-05,0.03965561371217456,0.0,0.0,0.0,0.0,0.0,0.0,0.0,0.0,0.0,0.006067477698909416,0.0044250969602359315,-0.0002315039063933195,0.0,0.0,0.0,0.0,0.0,0.0,0.0,0.0,0.0
10.638,306,10,638000000,base_footprint,-0.003876867953696592,5.7726365999923574e-05,0.9998280096445218,0.018136088134171578,0.0,0.0,0.0,0.0,0.0,0.0,0.0,0.0,0.0,-0.0003503722810355808,-2.7348292092252203e-05,0.040631214295807294,0.0,0.0,0.0,0.0,0.0,0.0,0.0,0.0,0.0,0.0003945316769842664,0.0036666594103398125,0.0002384476006761642,0.0,0.0,0.0,0.0,0.0,0.0,0.0,0.0,0.0
10.672,307,10,672000000,base_footprint,-0.0038780245168789657,5.5080912992277416e-05,0.9998404112815058,0.01743874595172982,0.0,0.0,0.0,0.0,0.0,0.0,0.0,0.0,0.0,-0.0003009283757052406,-4.5720670437032154e-05,0.04125794707093751,0.0,0.0,0.0,0.0,0.0,0.0,0.0,0.0,0.0,-0.0007692440209643162,0.004464856335010923,2.6932183037367786e-05,0.0,0.0,0.0,0.0,0.0,0.0,0.0,0.0,0.0
10.706,308,10,706000000,base_footprint,-0.00387317976582345,6.004694366971016e-05,0.9998440329523233,0.01723092111582357,0.0,0.0,0.0,0.0,0.0,0.0,0.0,0.0,0.0,0.0023803939440914857,0.00139312499760338,-0.05608855182433821,0.0,0.0,0.0,0.0,0.0,0.0,0.0,0.0,0.0,-0.02247720470752271,0.0016193540436651504,-0.002664978648660686,0.0,0.0,0.0,0.0,0.0,0.0,0.0,0.0,0.0
10.74,309,10,740000000,base_footprint,-0.0038710161766388803,6.447209077956499e-05,0.9998248265522822,0.018311943829331233,0.0,0.0,0.0,0.0,0.0,0.0,0.0,0.0,0.0,0.0006110352466250281,0.00022563654031024582,-0.06556590411778916,0.0,0.0,0.0,0.0,0.0,0.0,0.0,0.0,0.0,0.042018937930300954,-0.008598250843838078,0.0022317105039153656,0.0,0.0,0.0,0.0,0.0,0.0,0.0,0.0,0.0
10.774000000000001,310,10,774000000,base_footprint,-0.0038690831809923038,7.09275703952737e-05,0.9998039893616991,0.019416694390391252,0.0,0.0,0.0,0.0,0.0,0.0,0.0,0.0,0.0,0.0005283196701014812,-4.248526220657003e-05,-0.06392647163065387,0.0,0.0,0.0,0.0,0.0,0.0,0.0,0.0,0.0,-0.033509545409281485,0.004466284727395266,0.0002519383747076015,0.0,0.0,0.0,0.0,0.0,0.0,0.0,0.0,0.0
10.808,311,10,808000000,base_footprint,-0.0038748043820107845,7.305121859982492e-05,0.9997808520411736,0.020572516772278702,0.0,0.0,0.0,0.0,0.0,0.0,0.0,0.0,0.0,0.000973789605087381,0.00018815222514815026,-0.07613063333034933,0.0,0.0,0.0,0.0,0.0,0.0,0.0,0.0,0.0,-0.04210786706426273,-0.022122693788195546,-0.0010922712729658118,0.0,0.0,0.0,0.0,0.0,0.0,0.0,0.0,0.0
10.842,312,10,842000000,base_footprint,-0.003850345237851993,8.784326625413683e-05,0.9997481771057689,0.02210767963405753,0.0,0.0,0.0,0.0,0.0,0.0,0.0,0.0,0.0,6.51751478720654e-05,-0.0012644748011722228,-0.11563418534810761,0.0,0.0,0.0,0.0,0.0,0.0,0.0,0.0,0.0,0.021372358675774476,0.007519406215009396,0.002257209584328444,0.0,0.0,0.0,0.0,0.0,0.0,0.0,0.0,0.0
10.876,313,10,876000000,base_footprint,-0.0038571223232783413,9.672838959751251e-05,0.9996820697786346,0.02491731554776815,0.0,0.0,0.0,0.0,0.0,0.0,0.0,0.0,0.0,9.065777768686571e-05,0.002302730804542377,-0.2217443782302005,0.0,0.0,0.0,0.0,0.0,0.0,0.0,0.0,0.0,0.03470995987967101,-0.030596280976997677,-0.006622246173051711,0.0,0.0,0.0,0.0,0.0,0.0,0.0,0.0,0.0
10.91,314,10,910000000,base_footprint,-0.0038632158683109354,9.630568132873522e-05,0.9995879342324024,0.02844341796213781,0.0,0.0,0.0,0.0,0.0,0.0,0.0,0.0,0.0,0.0007543407568368143,-0.0004907905646316325,-0.10996028804357108,0.0,0.0,0.0,0.0,0.0,0.0,0.0,0.0,0.0,-0.14239339433836787,-0.007732159999819199,0.005366678397251474,0.0,0.0,0.0,0.0,0.0,0.0,0.0,0.0,0.0
10.944,315,10,944000000,base_footprint,-0.0038664848632370672,0.00010047333765463701,0.9995552323952973,0.029569876413232745,0.0,0.0,0.0,0.0,0.0,0.0,0.0,0.0,0.0,0.0006611221432122475,0.001157651322655152,-0.07251578464567635,0.0,0.0,0.0,0.0,0.0,0.0,0.0,0.0,0.0,0.08992634931362252,-0.01792952001796522,-0.0018805228846798248,0.0,0.0,0.0,0.0,0.0,0.0,0.0,0.0,0.0
10.978,316,10,978000000,base_footprint,-0.003871729206624781,0.00011132031249079508,0.9995248996699693,0.03057731610976526,0.0,0.0,0.0,0.0,0.0,0.0,0.0,0.0,0.0,0.0005209965478090129,-5.087776043288846e-05,-0.056949960934343916,0.0,0.0,0.0,0.0,0.0,0.0,0.0,0.0,0.0,0.029259700112372753,-0.011756970875084283,0.0020843589310042144,0.0,0.0,0.0,0.0,0.0,0.0,0.0,0.0,0.0
11.012,317,11,12000000,base_footprint,-0.003869052016057494,0.00011492412578161836,0.9995030737785358,0.03128294641176256,0.0,0.0,0.0,0.0,0.0,0.0,0.0,0.0,0.0,0.00036873204902475266,-0.0003014706554395728,-0.03423091870532721,0.0,0.0,0.0,0.0,0.0,0.0,0.0,0.0,0.0,-0.004285787410866845,-0.003827238761414471,0.0005054020590500489,0.0,0.0,0.0,0.0,0.0,0.0,0.0,0.0,0.0
11.046,318,11,46000000,base_footprint,-0.003866548017908593,0.00011737579207463775,0.9994846146708897,0.03186755506046504,0.0,0.0,0.0,0.0,0.0,0.0,0.0,0.0,0.0,0.00028016937320739097,-0.0003238683547171963,-0.034577167695094085,0.0,0.0,0.0,0.0,0.0,0.0,0.0,0.0,0.0,0.00232803487023358,-0.004402629741044454,0.00018531391636512144,0.0,0.0,0.0,0.0,0.0,0.0,0.0,0.0,0.0
11.08,319,11,80000000,base_footprint,-0.0038641644848794766,0.00011938752623657138,0.9994656276452232,0.03245786707706792,0.0,0.0,0.0,0.0,0.0,0.0,0.0,0.0,0.0,0.0002785300520764435,-0.0002992833030541682,-0.03490515684006954,0.0,0.0,0.0,0.0,0.0,0.0,0.0,0.0,0.0,0.002338381699524232,-0.004313962431039768,-1.8012613170143657e-05,0.0,0.0,0.0,0.0,0.0,0.0,0.0,0.0,0.0
11.114,320,11,114000000,base_footprint,-0.0038607932476679018,0.00012616784641727793,0.9994052026970491,0.034268340771674295,0.0,0.0,0.0,0.0,0.0,0.0,0.0,0.0,0.0,0.0011146744999067217,-0.0004584588462709354,-0.1414593152297763,0.0,0.0,0.0,0.0,0.0,0.0,0.0,0.0,0.0,0.028839005690664193,-0.014976503150572277,0.0003058010309794311,0.0,0.0,0.0,0.0,0.0,0.0,0.0,0.0,0.0
11.148,321,11,148000000,base_footprint,-0.003859602806956389,0.00013525978934172427,0.999319893512696,0.03667200022818317,0.0,0.0,0.0,0.0,0.0,0.0,0.0,0.0,0.0,0.001099513405909898,-0.0003117555095225571,-0.14169790851672825,0.0,0.0,0.0,0.0,0.0,0.0,0.0,0.0,0.0,0.000710338450315672,-0.017264552412805185,-0.00013702073473447385,0.0,0.0,0.0,0.0,0.0,0.0,0.0,0.0,0.0
11.182,322,11,182000000,base_footprint,-0.0038585766129106643,0.0001441831104988981,0.9992285916121243,0.03908084316648893,0.0,0.0,0.0,0.0,0.0,0.0,0.0,0.0,0.0,0.001092625193665085,-0.00030279095907831345,-0.14198166767876091,0.0,0.0,0.0,0.0,0.0,0.0,0.0,0.0,0.0,0.0005899825841932785,-0.016927429104417937,-1.528951324288919e-05,0.0,0.0,0.0,0.0,0.0,0.0,0.0,0.0,0.0
11.216,323,11,216000000,base_footprint,-0.0038625047695585147,0.00015186817829566216,0.999140905275733,0.041261475952155575,0.0,0.0,0.0,0.0,0.0,0.0,0.0,0.0,0.0,0.0007936578057920443,0.0008668719798278513,-0.07047477769792265,0.0,0.0,0.0,0.0,0.0,0.0,0.0,0.0,0.0,-0.6915697980012699,0.10075302373043377,-0.006879335236197762,0.0,0.0,0.0,0.0,0.0,0.0,0.0,0.0,0.0
11.25,324,11,250000000,base_footprint,-0.003865876776056864,0.00015610026460616497,0.9991122370555655,0.04194959350558072,0.0,0.0,0.0,0.0,0.0,0.0,0.0,0.0,0.0,0.00036582998444481996,-5.516390252018406e-05,-0.043463011374557874,0.0,0.0,0.0,0.0,0.0,0.0,0.0,0.0,0.0,-0.9044819765070093,0.14789228483657454,-0.005815241964273465,0.0,0.0,0.0,0.0,0.0,0.0,0.0,0.0,0.0
11.284,325,11,284000000,base_footprint,-0.0038655953840676573,0.00015917756618049318,0.9990789485871874,0.04273507136708047,0.0,0.0,0.0,0.0,0.0,0.0,0.0,0.0,0.0,0.00036895204250403683,-0.00027087833988331247,-0.04819969980461301,0.0,0.0,0.0,0.0,0.0,0.0,0.0,0.0,0.0,-0.9526257486570815,0.1616230384602578,-0.007204445602469557,0.0,0.0,0.0,0.0,0.0,0.0,0.0,0.0,0.0
