Time,header.seq,header.stamp.secs,header.stamp.nsecs,header.frame_id,orientation.x,orientation.y,orientation.z,orientation.w,orientation_covariance_0,orientation_covariance_1,orientation_covariance_2,orientation_covariance_3,orientation_covariance_4,orientation_covariance_5,orientation_covariance_6,orientation_covariance_7,orientation_covariance_8,angular_velocity.x,angular_velocity.y,angular_velocity.z,angular_velocity_covariance_0,angular_velocity_covariance_1,angular_velocity_covariance_2,angular_velocity_covariance_3,angular_velocity_covariance_4,angular_velocity_covariance_5,angular_velocity_covariance_6,angular_velocity_covariance_7,angular_velocity_covariance_8,linear_acceleration.x,linear_acceleration.y,linear_acceleration.z,linear_acceleration_covariance_0,linear_acceleration_covariance_1,linear_acceleration_covariance_2,linear_acceleration_covariance_3,linear_acceleration_covariance_4,linear_acceleration_covariance_5,linear_acceleration_covariance_6,linear_acceleration_covariance_7,linear_acceleration_covariance_8
0.14,0,0,140000000,base_footprint,0.0005615611955142435,-0.0013747886997529859,0.3826817086091687,0.9238790529614913,0.0,0.0,0.0,0.0,0.0,0.0,0.0,0.0,0.0,0.16689618805565568,-9.511321512468973e-05,0.00027474460463441843,0.0,0.0,0.0,0.0,0.0,0.0,0.0,0.0,0.0,0.00028886126686651116,0.003318532631335293,-0.13168662941668377,0.0,0.0,0.0,0.0,0.0,0.0,0.0,0.0,0.0
0.17600000000000002,1,0,174000000,base_footprint,0.00032765796844990433,-0.0008470756707221131,0.38268594754053886,0.9238780442558768,0.0,0.0,0.0,0.0,0.0,0.0,0.0,0.0,0.0,-0.04765508092561936,-0.00045312406104382197,-0.0003750209864723253,0.0,0.0,0.0,0.0,0.0,0.0,0.0,0.0,0.0,-2.378305865409708e-05,-0.0026863456634582793,0.005161579614564336,0.0,0.0,0.0,0.0,0.0,0.0,0.0,0.0,0.0
0.20800000000000002,2,0,208000000,base_footprint,9.350792082024453e-06,-9.928287140139104e-05,0.3826816102546009,0.9238802818701242,0.0,0.0,0.0,0.0,0.0,0.0,0.0,0.0,0.0,-0.04763191247977182,-0.00045268754955488794,-0.0003222785000407621,0.0,0.0,0.0,0.0,0.0,0.0,0.0,0.0,0.0,-2.6996076748819238e-05,-0.0001832872780622595,6.669063176788276e-05,0.0,0.0,0.0,0.0,0.0,0.0,0.0,0.0,0.0
0.24100000000000002,3,0,242000000,base_footprint,-0.00042381331331929254,0.0009171393328509422,0.3826781234220139,0.9238811790982244,0.0,0.0,0.0,0.0,0.0,0.0,0.0,0.0,0.0,-0.06778845826874165,-0.0006181970908648374,-0.00014319354837852798,0.0,0.0,0.0,0.0,0.0,0.0,0.0,0.0,0.0,-4.484756616742803e-06,-0.001011931186408535,0.0029868075147014726,0.0,0.0,0.0,0.0,0.0,0.0,0.0,0.0,0.0
0.275,4,0,276000000,base_footprint,-0.0008754335042633561,0.0019792900587242484,0.38267401329967843,0.9238808990190027,0.0,0.0,0.0,0.0,0.0,0.0,0.0,0.0,0.0,-0.06771236914187251,-0.0006176522425371499,-4.198678604692563e-05,0.0,0.0,0.0,0.0,0.0,0.0,0.0,0.0,0.0,-1.720310727717852e-05,-0.000261000338252213,0.00015123020418051234,0.0,0.0,0.0,0.0,0.0,0.0,0.0,0.0,0.0
0.31,5,0,310000000,base_footprint,-0.001326557777376458,0.0030402401961508894,0.3826692167365162,0.9238794660269672,0.0,0.0,0.0,0.0,0.0,0.0,0.0,0.0,0.0,-0.06763618864409236,-0.0006174271402002024,5.565267554230884e-05,0.0,0.0,0.0,0.0,0.0,0.0,0.0,0.0,0.0,-1.8077768323796373e-06,-0.00026766834458755005,0.0001525518217861427,0.0,0.0,0.0,0.0,0.0,0.0,0.0,0.0,0.0
0.34400000000000003,6,0,344000000,base_footprint,-0.001483367788687691,0.0035599433474294228,0.3826618502736513,0.9238804223320853,0.0,0.0,0.0,0.0,0.0,0.0,0.0,0.0,0.0,0.028242377018219387,-0.0004850040901536179,-0.00012413708722336408,0.0,0.0,0.0,0.0,0.0,0.0,0.0,0.0,0.0,0.0008451303116111657,0.0028285042082335098,0.15038558130174834,0.0,0.0,0.0,0.0,0.0,0.0,0.0,0.0,0.0
0.378,7,0,378000000,base_footprint,-0.0014840718546073556,0.003564374281340669,0.38265813719629693,0.9238819420273202,0.0,0.0,0.0,0.0,0.0,0.0,0.0,0.0,0.0,-0.00020866232690235515,2.83612814650678e-05,8.415185868514842e-05,0.0,0.0,0.0,0.0,0.0,0.0,0.0,0.0,0.0,-0.00022812462154553082,-0.0009482241119148608,-0.01881006271422372,0.0,0.0,0.0,0.0,0.0,0.0,0.0,0.0,0.0
0.41200000000000003,8,0,412000000,base_footprint,-0.0014840340918503762,0.0035640862107294566,0.38266117120451265,0.923880686552483,0.0,0.0,0.0,0.0,0.0,0.0,0.0,0.0,0.0,0.00019450743981519662,3.355979659443098e-05,0.0002769417652322605,0.0,0.0,0.0,0.0,0.0,0.0,0.0,0.0,0.0,-0.0003770414162658789,-3.905290837145391e-05,0.0004148651991301126,0.0,0.0,0.0,0.0,0.0,0.0,0.0,0.0,0.0
0.447,9,0,446000000,base_footprint,-0.0014840389151252879,0.0035639896516426145,0.38266568917583976,0.9238788156104897,0.0,0.0,0.0,0.0,0.0,0.0,0.0,0.0,0.0,0.0001801306654534332,3.4451880094336173e-05,0.0003209406442996335,0.0,0.0,0.0,0.0,0.0,0.0,0.0,0.0,0.0,-8.56312413548535e-05,-1.1920065806043379e-05,-1.942715906080705e-05,0.0,0.0,0.0,0.0,0.0,0.0,0.0,0.0,0.0
0.47900000000000004,10,0,480000000,base_footprint,-0.001484059888284476,0.0035639589806861207,0.38267057256980547,0.9238767930042022,0.0,0.0,0.0,0.0,0.0,0.0,0.0,0.0,0.0,0.00017847905698816592,3.4782396490375695e-05,0.0003318806144166263,0.0,0.0,0.0,0.0,0.0,0.0,0.0,0.0,0.0,-2.130942912159799e-05,-2.8702244415747865e-06,-2.710987959552464e-06,0.0,0.0,0.0,0.0,0.0,0.0,0.0,0.0,0.0
0.514,11,0,514000000,base_footprint,-0.0014840836038237262,0.0035639438683631305,0.382675546608437,0.9238747327575824,0.0,0.0,0.0,0.0,0.0,0.0,0.0,0.0,0.0,0.00017804094673539505,3.488984400049869e-05,0.00033460441882254854,0.0,0.0,0.0,0.0,0.0,0.0,0.0,0.0,0.0,-5.3085131194388375e-06,-7.039573796895488e-07,-6.519675870621432e-07,0.0,0.0,0.0,0.0,0.0,0.0,0.0,0.0,0.0
0.548,12,0,548000000,base_footprint,-0.0014841076214230347,0.0035639327871907255,0.3826805432601883,0.9238726630968923,0.0,0.0,0.0,0.0,0.0,0.0,0.0,0.0,0.0,0.0001779336521543267,3.4944795256625705e-05,0.0003352911603116044,0.0,0.0,0.0,0.0,0.0,0.0,0.0,0.0,0.0,-1.3371120646953554e-06,-1.9303133845934656e-07,-1.6523613114860694e-07,0.0,0.0,0.0,0.0,0.0,0.0,0.0,0.0,0.0
0.5820000000000001,13,0,582000000,base_footprint,-0.001484131380601742,0.0035639228456136886,0.38268554565988017,0.9238705910196491,0.0,0.0,0.0,0.0,0.0,0.0,0.0,0.0,0.0,0.00017790816929775328,3.4984641652664415e-05,0.0003354727631432029,0.0,0.0,0.0,0.0,0.0,0.0,0.0,0.0,0.0,-3.522331123383948e-07,-6.630183919235405e-08,-4.537499543387609e-08,0.0,0.0,0.0,0.0,0.0,0.0,0.0,0.0,0.0
0.615,14,0,616000000,base_footprint,-0.0014841547738949556,0.00356391331446272,0.3826905496253066,0.9238685182611078,0.0,0.0,0.0,0.0,0.0,0.0,0.0,0.0,0.0,0.00017790297473303346,3.501884461993061e-05,0.00033552912168975104,0.0,0.0,0.0,0.0,0.0,0.0,0.0,0.0,0.0,-1.0797558361329107e-07,-3.4834677125645354e-08,-1.6139549064062127e-08,0.0,0.0,0.0,0.0,0.0,0.0,0.0,0.0,0.0
0.65,15,0,650000000,base_footprint,-0.001484177802719902,0.0035639040010162996,0.3826955541193828,0.9238664452515744,0.0,0.0,0.0,0.0,0.0,0.0,0.0,0.0,0.0,0.00017790281772563072,3.504992734682647e-05,0.0003355544386251701,0.0,0.0,0.0,0.0,0.0,0.0,0.0,0.0,0.0,-4.737611825770752e-08,-2.6997677653310488e-08,-9.325693844293522e-09,0.0,0.0,0.0,0.0,0.0,0.0,0.0,0.0,0.0
0.684,16,0,684000000,base_footprint,-0.0014842004928955464,0.0035638948466980374,0.3827005588848955,0.9238643720977703,0.0,0.0,0.0,0.0,0.0,0.0,0.0,0.0,0.0,0.0001779039149181177,3.50786757125357e-05,0.00033557207119297184,0.0,0.0,0.0,0.0,0.0,0.0,0.0,0.0,0.0,-3.231953880663647e-08,-2.5024265843639007e-08,-8.031582139696862e-09,0.0,0.0,0.0,0.0,0.0,0.0,0.0,0.0,0.0
0.7170000000000001,17,0,718000000,base_footprint,-0.0014842228739223532,0.003563885827190972,0.3827055638580578,0.9238622988261601,0.0,0.0,0.0,0.0,0.0,0.0,0.0,0.0,0.0,0.00017790532883678044,3.510542928414988e-05,0.0003355878151037353,0.0,0.0,0.0,0.0,0.0,0.0,0.0,0.0,0.0,-2.8568679021640417e-08,-2.4509424251472188e-08,-8.069117058942321e-09,0.0,0.0,0.0,0.0,0.0,0.0,0.0,0.0,0.0
0.752,18,0,752000000,base_footprint,-0.0014842449740754002,0.003563876927587764,0.3827105690230228,0.9238602254433169,0.0,0.0,0.0,0.0,0.0,0.0,0.0,0.0,0.0,0.00017790682495492986,3.5130403591415995e-05,0.00033560309855511954,0.0,0.0,0.0,0.0,0.0,0.0,0.0,0.0,0.0,-2.760845898562319e-08,-2.435681929589592e-08,-8.404854964414116e-09,0.0,0.0,0.0,0.0,0.0,0.0,0.0,0.0,0.0
0.787,19,0,786000000,base_footprint,-0.0014842668193732877,0.003563868136133484,0.38271557437586484,0.9238581519508658,0.0,0.0,0.0,0.0,0.0,0.0,0.0,0.0,0.0,0.00017790834665824308,3.5153771647980614e-05,0.00033561828220724166,0.0,0.0,0.0,0.0,0.0,0.0,0.0,0.0,0.0,-2.7357095939800193e-08,-2.4298360408356866e-08,-8.782165562406905e-09,0.0,0.0,0.0,0.0,0.0,0.0,0.0,0.0,0.0
0.8200000000000001,20,0,820000000,base_footprint,-0.0014842884335148079,0.0035638594426057194,0.382720579915619,0.9238560783492048,0.0,0.0,0.0,0.0,0.0,0.0,0.0,0.0,0.0,0.00017790987773409452,3.5175684669234015e-05,0.00033563345034850594,0.0,0.0,0.0,0.0,0.0,0.0,0.0,0.0,0.0,-2.727525803802642e-08,-2.4264653932467156e-08,-9.145760743486891e-09,0.0,0.0,0.0,0.0,0.0,0.0,0.0,0.0,0.0
0.8540000000000001,21,0,854000000,base_footprint,-0.001484309838021866,0.003563850837842176,0.3827255856420277,0.923854004638437,0.0,0.0,0.0,0.0,0.0,0.0,0.0,0.0,0.0,0.00017791141505333694,3.519627759904773e-05,0.0003356486239171548,0.0,0.0,0.0,0.0,0.0,0.0,0.0,0.0,0.0,-2.7238984982806788e-08,-2.4238858952746865e-08,-9.477930814289403e-09,0.0,0.0,0.0,0.0,0.0,0.0,0.0,0.0,0.0
0.889,22,0,888000000,base_footprint,-0.0014843310524225418,0.0035638423135570738,0.38273059155500916,0.9238519308185938,0.0,0.0,0.0,0.0,0.0,0.0,0.0,0.0,0.0,0.00017791295661775085,3.521567372500754e-05,0.0003356638067728039,0.0,0.0,0.0,0.0,0.0,0.0,0.0,0.0,0.0,-2.7214534947966256e-08,-2.4216982313177937e-08,-9.782271066259362e-09,0.0,0.0,0.0,0.0,0.0,0.0,0.0,0.0,0.0
0.904,23,0,922000000,base_footprint,-0.001484352094432723,0.003563833862237923,0.382735597654527,0.9238498568896866,0.0,0.0,0.0,0.0,0.0,0.0,0.0,0.0,0.0,0.00017791450278475146,3.523398410140076e-05,0.00033567899912938107,0.0,0.0,0.0,0.0,0.0,0.0,0.0,0.0,0.0,-2.7194422535446674e-08,-2.4197394627122748e-08,-1.005640868318652e-08,0.0,0.0,0.0,0.0,0.0,0.0,0.0,0.0,0.0
0.9560000000000001,24,0,956000000,base_footprint,-0.0014843729801273212,0.003563825477070854,0.3827406039405873,0.9238477828517095,0.0,0.0,0.0,0.0,0.0,0.0,0.0,0.0,0.0,0.00017791605234027173,3.525130956942062e-05,0.00033569420074621565,0.0,0.0,0.0,0.0,0.0,0.0,0.0,0.0,0.0,-2.717738451100418e-08,-2.4179984311668814e-08,-1.0307744596506523e-08,0.0,0.0,0.0,0.0,0.0,0.0,0.0,0.0,0.0
0.9900000000000001,25,0,990000000,base_footprint,-0.0014843937240839055,0.0035638171518813473,0.382745610413185,0.9238457087046614,0.0,0.0,0.0,0.0,0.0,0.0,0.0,0.0,0.0,0.0001779176047577696,3.526774188924201e-05,0.0003357094126408057,0.0,0.0,0.0,0.0,0.0,0.0,0.0,0.0,0.0,-2.7165516284584327e-08,-2.4165018991130924e-08,-1.0534800754512439e-08,0.0,0.0,0.0,0.0,0.0,0.0,0.0,0.0,0.0
1.024,26,1,24000000,base_footprint,-0.0014844143395317424,0.0035638088810601917,0.38275061707231817,0.9238436344485399,0.0,0.0,0.0,0.0,0.0,0.0,0.0,0.0,0.0,0.0001779191606607015,3.528336332269127e-05,0.00033572463117770854,0.0,0.0,0.0,0.0,0.0,0.0,0.0,0.0,0.0,-2.7149478303734316e-08,-2.4150821251740926e-08,-1.0740705060909278e-08,0.0,0.0,0.0,0.0,0.0,0.0,0.0,0.0,0.0
1.058,27,1,58000000,base_footprint,-0.00148443483846781,0.0035638006595237227,0.38275562391799006,0.92384156008334,0.0,0.0,0.0,0.0,0.0,0.0,0.0,0.0,0.0,0.00017792071907607546,3.52982500027938e-05,0.0003357398587296145,0.0,0.0,0.0,0.0,0.0,0.0,0.0,0.0,0.0,-2.7140714689247385e-08,-2.413900825282615e-08,-1.0928282547899317e-08,0.0,0.0,0.0,0.0,0.0,0.0,0.0,0.0,0.0
1.092,28,1,92000000,base_footprint,-0.0014844552317789582,0.003563792482660693,0.3827606309501919,0.9238394856090621,0.0,0.0,0.0,0.0,0.0,0.0,0.0,0.0,0.0,0.00017792227987329325,3.531246941930556e-05,0.000335755090338057,0.0,0.0,0.0,0.0,0.0,0.0,0.0,0.0,0.0,-2.7124697856246038e-08,-2.412714145300017e-08,-1.1097798682556566e-08,0.0,0.0,0.0,0.0,0.0,0.0,0.0,0.0,0.0
1.126,29,1,126000000,base_footprint,-0.0014844755293383217,0.0035637843462837664,0.3827656381689154,0.9238374110257059,0.0,0.0,0.0,0.0,0.0,0.0,0.0,0.0,0.0,0.00017792384328664778,3.532608475862263e-05,0.00033577033036447204,0.0,0.0,0.0,0.0,0.0,0.0,0.0,0.0,0.0,-2.7119364389168857e-08,-2.411798174990677e-08,-1.125138953924171e-08,0.0,0.0,0.0,0.0,0.0,0.0,0.0,0.0,0.0
1.16,30,1,160000000,base_footprint,-0.0014844957401013805,0.0035637762466000328,0.38277064557415735,0.9238353363332693,0.0,0.0,0.0,0.0,0.0,0.0,0.0,0.0,0.0,0.0001779254086210094,3.533915073119705e-05,0.00033578557438116515,0.0,0.0,0.0,0.0,0.0,0.0,0.0,0.0,0.0,-2.7107339171726803e-08,-2.4108820465080086e-08,-1.139156832908221e-08,0.0,0.0,0.0,0.0,0.0,0.0,0.0,0.0,0.0
1.194,31,1,194000000,base_footprint,-0.0014845158721958935,0.003563768180163435,0.3827756531659121,0.923833261531751,0.0,0.0,0.0,0.0,0.0,0.0,0.0,0.0,0.0,0.000177926975507145,3.535171920266074e-05,0.00033580082390978494,0.0,0.0,0.0,0.0,0.0,0.0,0.0,0.0,0.0,-2.7100101611578372e-08,-2.410114653122982e-08,-1.1518779936572808e-08,0.0,0.0,0.0,0.0,0.0,0.0,0.0,0.0,0.0
1.228,32,1,228000000,base_footprint,-0.0014845359329927995,0.0035637601438500885,0.3827806609441931,0.9238311866211422,0.0,0.0,0.0,0.0,0.0,0.0,0.0,0.0,0.0,0.00017792854418923192,3.536383647220817e-05,0.00033581607909442953,0.0,0.0,0.0,0.0,0.0,0.0,0.0,0.0,0.0,-2.7094766186707013e-08,-2.4094540757696777e-08,-1.1633725718610583e-08,0.0,0.0,0.0,0.0,0.0,0.0,0.0,0.0,0.0
1.262,33,1,262000000,base_footprint,-0.0014845559291784423,0.0035637521348248348,0.3827856689090045,0.9238291116014372,0.0,0.0,0.0,0.0,0.0,0.0,0.0,0.0,0.0,0.00017793011483739797,3.537554403899098e-05,0.0003358313404851987,0.0,0.0,0.0,0.0,0.0,0.0,0.0,0.0,0.0,-2.7091963800745108e-08,-2.408894598146887e-08,-1.173804877934261e-08,0.0,0.0,0.0,0.0,0.0,0.0,0.0,0.0,0.0
1.296,34,1,296000000,base_footprint,-0.00148457586682111,0.003563744150518606,0.38279067706034947,0.9238270364726313,0.0,0.0,0.0,0.0,0.0,0.0,0.0,0.0,0.0,0.00017793168613066367,3.538687995418915e-05,0.0003358466028101512,0.0,0.0,0.0,0.0,0.0,0.0,0.0,0.0,0.0,-2.7080244085479693e-08,-2.4082763655752875e-08,-1.1833957047561982e-08,0.0,0.0,0.0,0.0,0.0,0.0,0.0,0.0,0.0
1.33,35,1,330000000,base_footprint,-0.0014845957535325597,0.0035637361900878986,0.38279568539899955,0.9238249612343923,0.0,0.0,0.0,0.0,0.0,0.0,0.0,0.0,0.0,0.00017793227165920048,3.5396782988971956e-05,0.00033586205939801144,0.0,0.0,0.0,0.0,0.0,0.0,0.0,0.0,0.0,-2.789279913255265e-08,-2.115770175827559e-08,-6.7889980770402305e-09,0.0,0.0,0.0,0.0,0.0,0.0,0.0,0.0,0.0
1.364,36,1,364000000,base_footprint,-0.0014846155925172673,0.0035637282501273237,0.38280069392475474,0.9238228858868068,0.0,0.0,0.0,0.0,0.0,0.0,0.0,0.0,0.0,0.00017793297031847542,3.540643572068667e-05,0.0003358774623523572,0.0,0.0,0.0,0.0,0.0,0.0,0.0,0.0,0.0,-2.7799197654608118e-08,-2.1018376109554015e-08,-6.557747069479352e-09,0.0,0.0,0.0,0.0,0.0,0.0,0.0,0.0,0.0
1.3980000000000001,37,1,398000000,base_footprint,-0.001484635387988906,0.0035637203285266957,0.3828057026372229,0.9238208104300352,0.0,0.0,0.0,0.0,0.0,0.0,0.0,0.0,0.0,0.0001779336713869607,3.541581218474659e-05,0.00033589286124129835,0.0,0.0,0.0,0.0,0.0,0.0,0.0,0.0,0.0,-2.7780869269769687e-08,-2.101444988080623e-08,-6.629601565695483e-09,0.0,0.0,0.0,0.0,0.0,0.0,0.0,0.0,0.0
1.432,38,1,432000000,base_footprint,-0.0014846551440553977,0.003563712423536286,0.3828107115363523,0.9238187348640953,0.0,0.0,0.0,0.0,0.0,0.0,0.0,0.0,0.0,0.00017793437424678431,3.542493692623604e-05,0.00033590826024079484,0.0,0.0,0.0,0.0,0.0,0.0,0.0,0.0,0.0,-2.7771576267929448e-08,-2.101182317416492e-08,-6.695437118598028e-09,0.0,0.0,0.0,0.0,0.0,0.0,0.0,0.0,0.0
1.468,39,1,466000000,base_footprint,-0.001484674864440533,0.0035637045335715173,0.3828157206221291,0.9238166591889889,0.0,0.0,0.0,0.0,0.0,0.0,0.0,0.0,0.0,0.00017793507820365655,3.5433834499042836e-05,0.0003359236625286586,0.0,0.0,0.0,0.0,0.0,0.0,0.0,0.0,0.0,-2.7769319739200105e-08,-2.1010736190889447e-08,-6.756387272972692e-09,0.0,0.0,0.0,0.0,0.0,0.0,0.0,0.0,0.0
1.501,40,1,500000000,base_footprint,-0.0014846945525243168,0.003563696657202191,0.38282072989455607,0.9238145834047113,0.0,0.0,0.0,0.0,0.0,0.0,0.0,0.0,0.0,0.000177935783229697,3.5442525592990555e-05,0.0003359390663809928,0.0,0.0,0.0,0.0,0.0,0.0,0.0,0.0,0.0,-2.7764480428098486e-08,-2.1009283359740392e-08,-6.8109496462144065e-09,0.0,0.0,0.0,0.0,0.0,0.0,0.0,0.0,0.0
1.534,41,1,534000000,base_footprint,-0.0014847142113747081,0.0035636887931426017,0.38282573935393016,0.9238125075111361,0.0,0.0,0.0,0.0,0.0,0.0,0.0,0.0,0.0,0.00017793648959067365,3.5451054259963686e-05,0.0003359546307463529,0.0,0.0,0.0,0.0,0.0,0.0,0.0,0.0,0.0,-2.806631266621217e-08,-2.1085333586276508e-08,-6.9222218558420055e-09,0.0,0.0,0.0,0.0,0.0,0.0,0.0,0.0,0.0
1.568,42,1,568000000,base_footprint,-0.001484733843818268,0.0035636809403728686,0.382830749001392,0.9238104315077859,0.0,0.0,0.0,0.0,0.0,0.0,0.0,0.0,0.0,0.00017793720713941754,3.545944219863193e-05,0.00033597027245462,0.0,0.0,0.0,0.0,0.0,0.0,0.0,0.0,0.0,-2.820643791346366e-08,-2.114509568597591e-08,-7.016884505914816e-09,0.0,0.0,0.0,0.0,0.0,0.0,0.0,0.0,0.0
1.602,43,1,602000000,base_footprint,-0.0014847534523459716,0.0035636730977076443,0.3828357588360715,0.923808355395018,0.0,0.0,0.0,0.0,0.0,0.0,0.0,0.0,0.0,0.0001779379299773485,3.5467675252506374e-05,0.0003359858859112047,0.0,0.0,0.0,0.0,0.0,0.0,0.0,0.0,0.0,-2.8145393166083472e-08,-2.1136800757981235e-08,-7.049639299006944e-09,0.0,0.0,0.0,0.0,0.0,0.0,0.0,0.0,0.0
1.6360000000000001,44,1,636000000,base_footprint,-0.001482875714560574,0.0035593551508842775,0.38271507011544337,0.9238583804767138,0.0,0.0,0.0,0.0,0.0,0.0,0.0,0.0,0.0,2.1358559731943918e-05,-4.4718098180838664e-05,-0.016006765799419943,0.0,0.0,0.0,0.0,0.0,0.0,0.0,0.0,0.0,-0.0002859247569504675,0.7032199176521527,-0.0039324760467524785,0.0,0.0,0.0,0.0,0.0,0.0,0.0,0.0,0.0
1.67,45,1,670000000,base_footprint,-0.001481616718246928,0.003560472903956999,0.3823210471496288,0.9240215066496082,0.0,0.0,0.0,0.0,0.0,0.0,0.0,0.0,0.0,-7.461393463661085e-05,-0.00014142091890351568,-0.03341077920864223,0.0,0.0,0.0,0.0,0.0,0.0,0.0,0.0,0.0,0.0015928190972685496,0.7493588989428722,-0.004115161880882312,0.0,0.0,0.0,0.0,0.0,0.0,0.0,0.0,0.0
1.7040000000000002,46,1,704000000,base_footprint,-0.001479425437863325,0.0035622783591994535,0.3816529655014834,0.9242976443750082,0.0,0.0,0.0,0.0,0.0,0.0,0.0,0.0,0.0,-0.00017047079199004317,-0.00023766642981560283,-0.05084505993356348,0.0,0.0,0.0,0.0,0.0,0.0,0.0,0.0,0.0,0.005305065204169124,0.7481833036318022,-0.004121035536866271,0.0,0.0,0.0,0.0,0.0,0.0,0.0,0.0,0.0
1.738,47,1,738000000,base_footprint,-0.0014763340174888163,0.003564864203175303,0.3807112036699193,0.9246859421345622,0.0,0.0,0.0,0.0,0.0,0.0,0.0,0.0,0.0,-0.00026660621353684713,-0.00033209742558775563,-0.06815037559181263,0.0,0.0,0.0,0.0,0.0,0.0,0.0,0.0,0.0,0.010683746026314944,0.736276781269794,-0.004077334158661825,0.0,0.0,0.0,0.0,0.0,0.0,0.0,0.0,0.0
1.772,48,1,772000000,base_footprint,-0.001471638595963279,0.003566401040721415,0.3794998907352671,0.9251837374248317,0.0,0.0,0.0,0.0,0.0,0.0,0.0,0.0,0.0,0.003647438101910627,-0.0005595572004688499,-0.08511087783341517,0.0,0.0,0.0,0.0,0.0,0.0,0.0,0.0,0.0,0.017723158315907983,0.7053617800702785,-0.001025778123052782,0.0,0.0,0.0,0.0,0.0,0.0,0.0,0.0,0.0
1.806,49,1,806000000,base_footprint,-0.0014669900589985036,0.003571077363402655,0.3780301303694435,0.9257852428503562,0.0,0.0,0.0,0.0,0.0,0.0,0.0,0.0,0.0,0.0005879286215319255,-0.0005515007415132117,-0.10093231999845367,0.0,0.0,0.0,0.0,0.0,0.0,0.0,0.0,0.0,0.02455043991832867,0.6306420370093222,-0.00492014212803085,0.0,0.0,0.0,0.0,0.0,0.0,0.0,0.0,0.0
1.84,50,1,840000000,base_footprint,-0.00146188122152007,0.0035775544309205767,0.376325076721938,0.9264796277510994,0.0,0.0,0.0,0.0,0.0,0.0,0.0,0.0,0.0,-0.0005670236901016214,-0.000571576794405294,-0.1148864051627463,0.0,0.0,0.0,0.0,0.0,0.0,0.0,0.0,0.0,0.030036451912755086,0.5200706001298946,-0.004543711789039029,0.0,0.0,0.0,0.0,0.0,0.0,0.0,0.0,0.0
1.8730000000000002,51,1,874000000,base_footprint,-0.0014552327319248305,0.003582850784717288,0.37441528502113103,0.9272530613702473,0.0,0.0,0.0,0.0,0.0,0.0,0.0,0.0,0.0,-0.000633205554442606,-0.0006225700794319109,-0.12681568426666373,0.0,0.0,0.0,0.0,0.0,0.0,0.0,0.0,0.0,0.03311659495576802,0.3641125765987661,-0.002118996214692826,0.0,0.0,0.0,0.0,0.0,0.0,0.0,0.0,0.0
1.908,52,1,908000000,base_footprint,-0.0014463742449358048,0.003586127750773878,0.3723317177544444,0.9280916655391985,0.0,0.0,0.0,0.0,0.0,0.0,0.0,0.0,0.0,-0.0004134911416248544,-0.0006324680909012882,-0.1367516980076706,0.0,0.0,0.0,0.0,0.0,0.0,0.0,0.0,0.0,0.03700110830508386,0.1751377012715144,-0.0005870480583070369,0.0,0.0,0.0,0.0,0.0,0.0,0.0,0.0,0.0
1.9420000000000002,53,1,942000000,base_footprint,-0.0014367776740993458,0.003579632808959379,0.37011521577413314,0.9289778517011776,0.0,0.0,0.0,0.0,0.0,0.0,0.0,0.0,0.0,0.001780354812858617,-0.0036585210863962487,-0.14179343613562395,0.0,0.0,0.0,0.0,0.0,0.0,0.0,0.0,0.0,0.015204524723760191,-0.018135814870998933,0.006813426979098279,0.0,0.0,0.0,0.0,0.0,0.0,0.0,0.0,0.0
1.976,54,1,976000000,base_footprint,-0.0014254476485221184,0.0035785689157005387,0.36782120881265273,0.9298885526186007,0.0,0.0,0.0,0.0,0.0,0.0,0.0,0.0,0.0,-0.0007117233869910847,-0.0008307614830288109,-0.14862818594736865,0.0,0.0,0.0,0.0,0.0,0.0,0.0,0.0,0.0,0.027208283311195937,0.053395703592772535,-0.007933317254620736,0.0,0.0,0.0,0.0,0.0,0.0,0.0,0.0,0.0
2.009,55,2,10000000,base_footprint,-0.0014131849852278236,0.003581852653790787,0.3654035574262491,0.9308412396644264,0.0,0.0,0.0,0.0,0.0,0.0,0.0,0.0,0.0,0.002022838807209523,0.00045310257819893734,-0.15704442199552957,0.0,0.0,0.0,0.0,0.0,0.0,0.0,0.0,0.0,0.04615181496045022,0.22900931404714714,0.0028484011648327,0.0,0.0,0.0,0.0,0.0,0.0,0.0,0.0,0.0
2.044,56,2,44000000,base_footprint,-0.0014197785328258809,0.003593314561496422,0.3631676701726188,0.9317157912479384,0.0,0.0,0.0,0.0,0.0,0.0,0.0,0.0,0.0,-0.0010441280257676548,-0.0008817519971907985,-0.10597369486497064,0.0,0.0,0.0,0.0,0.0,0.0,0.0,0.0,0.0,0.05374444668567713,0.26700371445261695,-0.006783692309709451,0.0,0.0,0.0,0.0,0.0,0.0,0.0,0.0,0.0
2.078,57,2,78000000,base_footprint,-0.0014131373763566818,0.003599579380532074,0.36245952271632426,0.9319914916260198,0.0,0.0,0.0,0.0,0.0,0.0,0.0,0.0,0.0,-0.002200367702564115,0.0009582497803002954,0.004644074969288629,0.0,0.0,0.0,0.0,0.0,0.0,0.0,0.0,0.0,0.03226113432048873,0.2391908638726984,-0.0035494389612047246,0.0,0.0,0.0,0.0,0.0,0.0,0.0,0.0,0.0
2.112,58,2,112000000,base_footprint,-0.0014063369422532375,0.0035869946942392117,0.3625209337524808,0.93196766482357,0.0,0.0,0.0,0.0,0.0,0.0,0.0,0.0,0.0,-0.0011267647681997282,0.00023461281876650114,0.0012342484144125506,0.0,0.0,0.0,0.0,0.0,0.0,0.0,0.0,0.0,0.011673918986556578,0.1495619601364727,0.0013171054329364916,0.0,0.0,0.0,0.0,0.0,0.0,0.0,0.0,0.0
2.146,59,2,146000000,base_footprint,-0.0014114066037110664,0.0035944244746083406,0.3629875609225441,0.9317859832920851,0.0,0.0,0.0,0.0,0.0,0.0,0.0,0.0,0.0,0.00042469356232784685,0.0002529923460245189,0.038889352958564966,0.0,0.0,0.0,0.0,0.0,0.0,0.0,0.0,0.0,0.008421560792670008,0.19051637569335209,2.2110607652576792e-05,0.0,0.0,0.0,0.0,0.0,0.0,0.0,0.0,0.0
2.18,60,2,180000000,base_footprint,-0.001413304678218005,0.003593202925897306,0.36360158861288966,0.9315465507535321,0.0,0.0,0.0,0.0,0.0,0.0,0.0,0.0,0.0,0.0003994804112420295,0.0002485845980750096,0.03865013482675929,0.0,0.0,0.0,0.0,0.0,0.0,0.0,0.0,0.0,-0.007918507383317976,0.006309685286864643,-9.096177866381584e-05,0.0,0.0,0.0,0.0,0.0,0.0,0.0,0.0,0.0
2.214,61,2,214000000,base_footprint,-0.0014169222143990041,0.0035961857165852304,0.3642134937573389,0.9313074630565371,0.0,0.0,0.0,0.0,0.0,0.0,0.0,0.0,0.0,0.0018476257870013283,0.00016254632528169032,0.039157447012311906,0.0,0.0,0.0,0.0,0.0,0.0,0.0,0.0,0.0,-0.030876001121679042,-0.2686070436103538,0.0031028697273523084,0.0,0.0,0.0,0.0,0.0,0.0,0.0,0.0,0.0
2.248,62,2,248000000,base_footprint,-0.0014163203317110536,0.00359058224907895,0.36453542390084015,0.9311815217653674,0.0,0.0,0.0,0.0,0.0,0.0,0.0,0.0,0.0,-0.0001514293816505044,4.8778086803143564e-05,0.0039617889162783994,0.0,0.0,0.0,0.0,0.0,0.0,0.0,0.0,0.0,-0.018347427891994242,-0.19699262043730725,-0.0005657669117615943,0.0,0.0,0.0,0.0,0.0,0.0,0.0,0.0,0.0
2.282,63,2,282000000,base_footprint,-0.0014214222018048466,0.003598777659467877,0.3649346656019595,0.9310250899950377,0.0,0.0,0.0,0.0,0.0,0.0,0.0,0.0,0.0,0.0001157883920130127,0.00018295298798453626,0.02988664313548076,0.0,0.0,0.0,0.0,0.0,0.0,0.0,0.0,0.0,0.00591052752179215,0.14478024752534224,-0.001152264839414944,0.0,0.0,0.0,0.0,0.0,0.0,0.0,0.0,0.0
2.316,64,2,316000000,base_footprint,-0.0014262665087063702,0.00360167589263719,0.36548682249433345,0.9308084530544435,0.0,0.0,0.0,0.0,0.0,0.0,0.0,0.0,0.0,3.7386803309069896e-05,0.00036110800398812007,0.04655721538442242,0.0,0.0,0.0,0.0,0.0,0.0,0.0,0.0,0.0,-0.005464160188894764,-0.001027938869825279,-0.0004004821609033849,0.0,0.0,0.0,0.0,0.0,0.0,0.0,0.0,0.0
2.35,65,2,350000000,base_footprint,-0.0014295071324879104,0.0036032819021178013,0.3662105035780983,0.9305239598946219,0.0,0.0,0.0,0.0,0.0,0.0,0.0,0.0,0.0,0.00021582773055139274,0.0002552067942275366,0.045587689089378186,0.0,0.0,0.0,0.0,0.0,0.0,0.0,0.0,0.0,-0.008087941021465251,0.003983012340639268,0.0002668360407780357,0.0,0.0,0.0,0.0,0.0,0.0,0.0,0.0,0.0
2.384,66,2,384000000,base_footprint,-0.0014321131660662856,0.003602266851193098,0.36693361167814287,0.9302390538706952,0.0,0.0,0.0,0.0,0.0,0.0,0.0,0.0,0.0,0.0005464412410151098,0.0002537002466498083,0.045729512411062226,0.0,0.0,0.0,0.0,0.0,0.0,0.0,0.0,0.0,-0.00787397199527524,-0.004862776748620521,0.0006905761919506175,0.0,0.0,0.0,0.0,0.0,0.0,0.0,0.0,0.0
2.418,67,2,418000000,base_footprint,-0.0014287638174772406,0.0035883841169440304,0.36761274534340355,0.9299709412634726,0.0,0.0,0.0,0.0,0.0,0.0,0.0,0.0,0.0,0.0003267351337326472,0.000296895503013595,0.034942433881432824,0.0,0.0,0.0,0.0,0.0,0.0,0.0,0.0,0.0,-0.005112414563677675,-0.013909073524580085,0.0009947684664336038,0.0,0.0,0.0,0.0,0.0,0.0,0.0,0.0,0.0
2.452,68,2,452000000,base_footprint,-0.0014293745086536552,0.003577891482243724,0.3682342171947868,0.9297250759595538,0.0,0.0,0.0,0.0,0.0,0.0,0.0,0.0,0.0,0.0004828589710284393,0.00011257525549478761,0.04843200736139308,0.0,0.0,0.0,0.0,0.0,0.0,0.0,0.0,0.0,-0.026853785234074123,-0.017265313759681468,-0.0021984030184601915,0.0,0.0,0.0,0.0,0.0,0.0,0.0,0.0,0.0
2.485,69,2,486000000,base_footprint,-0.00143096577634885,0.003579450573473266,0.3691093490065778,0.9293779792670361,0.0,0.0,0.0,0.0,0.0,0.0,0.0,0.0,0.0,-0.0004021620797602111,5.190137314209532e-06,0.0617700110293485,0.0,0.0,0.0,0.0,0.0,0.0,0.0,0.0,0.0,0.004959537354655798,0.1581484821912688,-0.00023542007868549133,0.0,0.0,0.0,0.0,0.0,0.0,0.0,0.0,0.0
2.52,70,2,520000000,base_footprint,-0.001438665453529843,0.0035903755493720334,0.37015514538208033,0.9289618979227826,0.0,0.0,0.0,0.0,0.0,0.0,0.0,0.0,0.0,-0.0009581083848647797,0.0017939984112272152,0.058252237233192325,0.0,0.0,0.0,0.0,0.0,0.0,0.0,0.0,0.0,-0.02310053197947859,-0.14896159879879592,0.0015122239349951716,0.0,0.0,0.0,0.0,0.0,0.0,0.0,0.0,0.0
2.553,71,2,554000000,base_footprint,-0.001443665046561919,0.0035893776242896546,0.3709669211552333,0.9286380218406474,0.0,0.0,0.0,0.0,0.0,0.0,0.0,0.0,0.0,0.0005105338623603634,0.00012078264477807986,0.05107891518950214,0.0,0.0,0.0,0.0,0.0,0.0,0.0,0.0,0.0,-0.010261844774866162,-0.009783320100525381,0.0005268933276235337,0.0,0.0,0.0,0.0,0.0,0.0,0.0,0.0,0.0
2.588,72,2,588000000,base_footprint,-0.0014452840217278097,0.003584545793548903,0.37177338028611534,0.9283154721839909,0.0,0.0,0.0,0.0,0.0,0.0,0.0,0.0,0.0,0.0006792561740370767,0.00034665602886930526,0.0509901917783783,0.0,0.0,0.0,0.0,0.0,0.0,0.0,0.0,0.0,-0.01023381984110419,0.005025651275322556,0.0004728861369344746,0.0,0.0,0.0,0.0,0.0,0.0,0.0,0.0,0.0
2.622,73,2,622000000,base_footprint,-0.0014409552894204564,0.00357686576357778,0.3722010091310398,0.9281441366948342,0.0,0.0,0.0,0.0,0.0,0.0,0.0,0.0,0.0,0.00018096980728519205,-0.0002487489265305747,-0.036543869609009114,0.0,0.0,0.0,0.0,0.0,0.0,0.0,0.0,0.0,0.003549368316671353,0.2426739588464939,-0.0015608146428864034,0.0,0.0,0.0,0.0,0.0,0.0,0.0,0.0,0.0
2.656,74,2,656000000,base_footprint,-0.0014396921783555907,0.003583473815666932,0.3709196589541488,0.9286569294433665,0.0,0.0,0.0,0.0,0.0,0.0,0.0,0.0,0.0,-0.00016334774578395217,-0.00042084588040989244,-0.08856273127467539,0.0,0.0,0.0,0.0,0.0,0.0,0.0,0.0,0.0,0.02542354581304463,0.1451136365694104,-0.0008614278961112158,0.0,0.0,0.0,0.0,0.0,0.0,0.0,0.0,0.0
2.69,75,2,690000000,base_footprint,-0.0014343133986395955,0.003586167785031377,0.36951670538105463,0.9292160602303552,0.0,0.0,0.0,0.0,0.0,0.0,0.0,0.0,0.0,-0.00036815567763596703,-0.0004358484836798822,-0.08908712924109968,0.0,0.0,0.0,0.0,0.0,0.0,0.0,0.0,0.0,0.01976076649627359,0.0045848362935306305,-0.00045860084342855603,0.0,0.0,0.0,0.0,0.0,0.0,0.0,0.0,0.0
2.724,76,2,724000000,base_footprint,-0.0014320339403660033,0.003588906613006677,0.3687271649446435,0.9295296374295993,0.0,0.0,0.0,0.0,0.0,0.0,0.0,0.0,0.0,0.00015280255818583575,2.5570246505792897e-05,-0.01482672855482478,0.0,0.0,0.0,0.0,0.0,0.0,0.0,0.0,0.0,0.012192235345051877,-0.015006392195335625,0.00014543136447889255,0.0,0.0,0.0,0.0,0.0,0.0,0.0,0.0,0.0
2.758,77,2,758000000,base_footprint,-0.0014329617309249369,0.0035930116452228605,0.3684847045323735,0.9296257630970027,0.0,0.0,0.0,0.0,0.0,0.0,0.0,0.0,0.0,-0.00017678832147294252,-6.419531858464379e-05,-0.015573895636980976,0.0,0.0,0.0,0.0,0.0,0.0,0.0,0.0,0.0,0.0028239780463425743,0.005334600026539486,-0.0006659579798778384,0.0,0.0,0.0,0.0,0.0,0.0,0.0,0.0,0.0
2.792,78,2,792000000,base_footprint,-0.0014339912791992784,0.0035979699727804104,0.3682360864262327,0.9297242510199346,0.0,0.0,0.0,0.0,0.0,0.0,0.0,0.0,0.0,-0.00012060473828825638,-5.692156916982793e-05,-0.015850528190364054,0.0,0.0,0.0,0.0,0.0,0.0,0.0,0.0,0.0,0.004485932472570973,0.0030279844639603468,-0.00016110110533216226,0.0,0.0,0.0,0.0,0.0,0.0,0.0,0.0,0.0
2.826,79,2,826000000,base_footprint,-0.0014356783785527808,0.003599959438392403,0.36837617296494946,0.929668744398419,0.0,0.0,0.0,0.0,0.0,0.0,0.0,0.0,0.0,0.00020402876345159614,0.00021373872895300402,0.023326711672267127,0.0,0.0,0.0,0.0,0.0,0.0,0.0,0.0,0.0,-0.0008792926791748026,-0.008663201303561923,0.00025477115370592466,0.0,0.0,0.0,0.0,0.0,0.0,0.0,0.0,0.0
2.8600000000000003,80,2,860000000,base_footprint,-0.001437839960463651,0.0036001857330324534,0.368760169376252,0.9295164919249866,0.0,0.0,0.0,0.0,0.0,0.0,0.0,0.0,0.0,0.00037860766175341236,0.00011205639608531713,0.02424890015739675,0.0,0.0,0.0,0.0,0.0,0.0,0.0,0.0,0.0,-0.003706314774358114,-0.007506032869735632,0.0003624602572802954,0.0,0.0,0.0,0.0,0.0,0.0,0.0,0.0,0.0
2.893,81,2,894000000,base_footprint,-0.0014374369541949824,0.003593713102614007,0.36911775002283326,0.9293745776699619,0.0,0.0,0.0,0.0,0.0,0.0,0.0,0.0,0.0,0.0007815182396352397,4.87773938993713e-05,0.018175764244751005,0.0,0.0,0.0,0.0,0.0,0.0,0.0,0.0,0.0,-0.004294081607839017,-0.02667384636737102,0.0010557548499129043,0.0,0.0,0.0,0.0,0.0,0.0,0.0,0.0,0.0
2.928,82,2,928000000,base_footprint,-0.0014364548926648671,0.003593027931167524,0.369398299855341,0.9292631074198582,0.0,0.0,0.0,0.0,0.0,0.0,0.0,0.0,0.0,-0.00013114809533063175,-0.0002927418810392403,0.03140303259838832,0.0,0.0,0.0,0.0,0.0,0.0,0.0,0.0,0.0,-0.016704763874869584,-0.0685452596232732,-0.0011659889119916556,0.0,0.0,0.0,0.0,0.0,0.0,0.0,0.0,0.0
2.962,83,2,962000000,base_footprint,-0.001443240553731151,0.003598150978576196,0.36993260530790917,0.9290505034153645,0.0,0.0,0.0,0.0,0.0,0.0,0.0,0.0,0.0,0.0007576873806309963,-6.947919511977315e-06,0.03015931354903944,0.0,0.0,0.0,0.0,0.0,0.0,0.0,0.0,0.0,-0.006699321429606726,0.07066853762572464,0.0011285200537239314,0.0,0.0,0.0,0.0,0.0,0.0,0.0,0.0,0.0
2.996,84,2,996000000,base_footprint,-0.0014434004736117343,0.0035927989431983475,0.3704639071964085,0.9288387921784907,0.0,0.0,0.0,0.0,0.0,0.0,0.0,0.0,0.0,0.0004973644854026298,0.00016825570814986066,0.03393030587123614,0.0,0.0,0.0,0.0,0.0,0.0,0.0,0.0,0.0,-0.003189740234619885,-0.008964510673218934,-0.00047058486604774043,0.0,0.0,0.0,0.0,0.0,0.0,0.0,0.0,0.0
3.03,85,3,30000000,base_footprint,-0.0014448263058797223,0.003592789988671435,0.3709032314903764,0.9286634466840178,0.0,0.0,0.0,0.0,0.0,0.0,0.0,0.0,0.0,0.00015631392575938763,5.6724597121352765e-05,0.01890148431355454,0.0,0.0,0.0,0.0,0.0,0.0,0.0,0.0,0.0,-0.03470083873045832,-0.5747599400396277,0.003067742309117963,0.0,0.0,0.0,0.0,0.0,0.0,0.0,0.0,0.0
3.064,86,3,64000000,base_footprint,-0.0014416101331986017,0.0035782333372325423,0.3711632510300818,0.9285596152596713,0.0,0.0,0.0,0.0,0.0,0.0,0.0,0.0,0.0,-0.002974950492740181,-0.0005505194850257084,0.023096273165399604,0.0,0.0,0.0,0.0,0.0,0.0,0.0,0.0,0.0,0.007788586455480195,0.22415019335242153,-0.007140187016465042,0.0,0.0,0.0,0.0,0.0,0.0,0.0,0.0,0.0
3.098,87,3,98000000,base_footprint,-0.001443413654767388,0.003582623475992391,0.37158874335950487,0.9283894049236853,0.0,0.0,0.0,0.0,0.0,0.0,0.0,0.0,0.0,0.0003660459343511138,0.00021026575521730434,0.027081450147980447,0.0,0.0,0.0,0.0,0.0,0.0,0.0,0.0,0.0,-0.00430511123086829,0.02566851212792103,0.006134759018603559,0.0,0.0,0.0,0.0,0.0,0.0,0.0,0.0,0.0
3.132,88,3,132000000,base_footprint,-0.001444556769829362,0.0035810884605881883,0.37209086462464075,0.9281882769805183,0.0,0.0,0.0,0.0,0.0,0.0,0.0,0.0,0.0,0.0010540955424531543,0.00033259697063417476,0.041748845357144765,0.0,0.0,0.0,0.0,0.0,0.0,0.0,0.0,0.0,0.009454945788557254,0.34994577756351103,-0.0012574836941533244,0.0,0.0,0.0,0.0,0.0,0.0,0.0,0.0,0.0
3.166,89,3,166000000,base_footprint,-0.0014467832480319462,0.003580316179418161,0.3727599636055346,0.9279197689924972,0.0,0.0,0.0,0.0,0.0,0.0,0.0,0.0,0.0,0.00036434445428490235,0.00027938001587831876,0.04242711692068886,0.0,0.0,0.0,0.0,0.0,0.0,0.0,0.0,0.0,-0.009186208121853362,-0.0017875572717975874,-0.0008371439823413209,0.0,0.0,0.0,0.0,0.0,0.0,0.0,0.0,0.0
3.2,90,3,200000000,base_footprint,-0.0014499502456475411,0.003581144632944821,0.3734257834915365,0.9276520130259706,0.0,0.0,0.0,0.0,0.0,0.0,0.0,0.0,0.0,0.0002820076596264583,0.0002728456882785642,0.0420299311627298,0.0,0.0,0.0,0.0,0.0,0.0,0.0,0.0,0.0,-0.008912409623790743,0.00604399071454511,-0.00016867319831597284,0.0,0.0,0.0,0.0,0.0,0.0,0.0,0.0,0.0
3.234,91,3,234000000,base_footprint,-0.001451545390491182,0.003585217859258763,0.3733208449603845,0.9276942308470748,0.0,0.0,0.0,0.0,0.0,0.0,0.0,0.0,0.0,0.0007054012726046487,-0.0003108334085073682,-0.04895753840254716,0.0,0.0,0.0,0.0,0.0,0.0,0.0,0.0,0.0,-0.012871523896340387,-0.31205632762654983,0.002757782115512312,0.0,0.0,0.0,0.0,0.0,0.0,0.0,0.0,0.0
3.268,92,3,268000000,base_footprint,-0.0014508544999075673,0.003590636326871093,0.3725437516655745,0.9280065492478634,0.0,0.0,0.0,0.0,0.0,0.0,0.0,0.0,0.0,-0.0004004215624230279,-0.00027516850057694215,-0.04948033371423448,0.0,0.0,0.0,0.0,0.0,0.0,0.0,0.0,0.0,0.011795536180853319,0.0037943410254774558,-0.0016853784237728922,0.0,0.0,0.0,0.0,0.0,0.0,0.0,0.0,0.0
3.302,93,3,302000000,base_footprint,-0.0014485784309397414,0.00359451084862169,0.3717593435082917,0.9283210498672174,0.0,0.0,0.0,0.0,0.0,0.0,0.0,0.0,0.0,-0.000313228582650449,-0.00025782447371706105,-0.04997706844771659,0.0,0.0,0.0,0.0,0.0,0.0,0.0,0.0,0.0,0.010903058762670465,-0.0008034750918442103,9.764357052049635e-05,0.0,0.0,0.0,0.0,0.0,0.0,0.0,0.0,0.0
3.336,94,3,336000000,base_footprint,-0.0014420979956176493,0.003588432731594848,0.3707235754895053,0.9287352012711583,0.0,0.0,0.0,0.0,0.0,0.0,0.0,0.0,0.0,-0.00022683140055149978,-0.0004873754729041631,-0.08190153445268006,0.0,0.0,0.0,0.0,0.0,0.0,0.0,0.0,0.0,0.027917328966878846,0.282722068254814,-0.0007142889012788968,0.0,0.0,0.0,0.0,0.0,0.0,0.0,0.0,0.0
3.371,95,3,370000000,base_footprint,-0.001440020969950304,0.0035971999913430456,0.36926453633992995,0.9293162479444149,0.0,0.0,0.0,0.0,0.0,0.0,0.0,0.0,0.0,-0.0005548063722736549,-0.0005700396915695689,-0.09401830951440762,0.0,0.0,0.0,0.0,0.0,0.0,0.0,0.0,0.0,0.030078428633334355,0.058095141755272806,-0.0014240576643139537,0.0,0.0,0.0,0.0,0.0,0.0,0.0,0.0,0.0
3.4050000000000002,96,3,404000000,base_footprint,-0.0014314452803186426,0.003598057973299594,0.3677100014180254,0.929932449052288,0.0,0.0,0.0,0.0,0.0,0.0,0.0,0.0,0.0,-0.0010942016457678317,0.00017659973767022337,-0.09854425200045969,0.0,0.0,0.0,0.0,0.0,0.0,0.0,0.0,0.0,0.007354933282028332,-0.08041813503027727,-0.0006597549868671828,0.0,0.0,0.0,0.0,0.0,0.0,0.0,0.0,0.0
3.438,97,3,438000000,base_footprint,-0.0014314245071183793,0.003587464499397352,0.3670785941754032,0.9301819106070359,0.0,0.0,0.0,0.0,0.0,0.0,0.0,0.0,0.0,0.00039680097971580604,0.0001718303265495881,0.03479645600719964,0.0,0.0,0.0,0.0,0.0,0.0,0.0,0.0,0.0,0.00352830150145542,-0.09812220790143714,0.0021164066038275673,0.0,0.0,0.0,0.0,0.0,0.0,0.0,0.0,0.0
3.472,98,3,472000000,base_footprint,-0.001434752870291329,0.0035973680541155333,0.3677386054005957,0.9299211356482383,0.0,0.0,0.0,0.0,0.0,0.0,0.0,0.0,0.0,0.000964907200627276,0.00027333970928528566,0.03960475663386495,0.0,0.0,0.0,0.0,0.0,0.0,0.0,0.0,0.0,-0.004081096170244769,0.11496221968427864,0.00023377045847360644,0.0,0.0,0.0,0.0,0.0,0.0,0.0,0.0,0.0
3.5060000000000002,99,3,506000000,base_footprint,-0.0014385460172240468,0.0035990746835137017,0.36837734142518674,0.9296682803942976,0.0,0.0,0.0,0.0,0.0,0.0,0.0,0.0,0.0,-0.006394252919949237,0.0002781519848521429,0.03939955160252544,0.0,0.0,0.0,0.0,0.0,0.0,0.0,0.0,0.0,-0.007113030799195501,-0.0506786751623427,-0.009706727970546454,0.0,0.0,0.0,0.0,0.0,0.0,0.0,0.0,0.0
3.54,100,3,540000000,base_footprint,-0.0014380030243941922,0.003588720584980524,0.3693828556363118,0.929269260867822,0.0,0.0,0.0,0.0,0.0,0.0,0.0,0.0,0.0,0.0012108476511968104,0.00043471832458954964,0.0770528140958406,0.0,0.0,0.0,0.0,0.0,0.0,0.0,0.0,0.0,-0.031525062202604245,-0.291924927683347,0.011940987341382783,0.0,0.0,0.0,0.0,0.0,0.0,0.0,0.0,0.0
3.574,101,3,574000000,base_footprint,-0.001440551765180871,0.003583833288460089,0.3705985468072566,0.9287851194188687,0.0,0.0,0.0,0.0,0.0,0.0,0.0,0.0,0.0,0.0007452066284801937,0.00047689965308889614,0.07687575070147797,0.0,0.0,0.0,0.0,0.0,0.0,0.0,0.0,0.0,-0.015283308808658861,0.0055220497989528355,-0.0005575511646707717,0.0,0.0,0.0,0.0,0.0,0.0,0.0,0.0,0.0
3.608,102,3,608000000,base_footprint,-0.001442928685632149,0.003580569234083961,0.3717586258585085,0.9283213999367685,0.0,0.0,0.0,0.0,0.0,0.0,0.0,0.0,0.0,0.0008688217906893898,-0.0006938394978253812,0.0402402943802365,0.0,0.0,0.0,0.0,0.0,0.0,0.0,0.0,0.0,-0.012598201456327025,0.010571296593324179,-0.00025481237828493006,0.0,0.0,0.0,0.0,0.0,0.0,0.0,0.0,0.0
3.64,103,3,642000000,base_footprint,-0.001445783397579534,0.003580539069338058,0.3723336258690752,0.9280909225380495,0.0,0.0,0.0,0.0,0.0,0.0,0.0,0.0,0.0,0.0003631438902582204,0.0002562576565059624,0.0365780757994705,0.0,0.0,0.0,0.0,0.0,0.0,0.0,0.0,0.0,-0.00954680687232215,0.01191581801005393,-4.185032149130382e-05,0.0,0.0,0.0,0.0,0.0,0.0,0.0,0.0,0.0
3.676,104,3,676000000,base_footprint,-0.0014482349244841228,0.0035811388226965985,0.3729077223742771,0.9278603928684344,0.0,0.0,0.0,0.0,0.0,0.0,0.0,0.0,0.0,0.00028464746834436797,0.00025269814426352966,0.03623650689461766,0.0,0.0,0.0,0.0,0.0,0.0,0.0,0.0,0.0,-0.0072550380086696484,0.005718164802063803,-0.00015883003782567084,0.0,0.0,0.0,0.0,0.0,0.0,0.0,0.0,0.0
3.709,105,3,710000000,base_footprint,-0.0014496467094852578,0.003578220896236631,0.37346712495086104,0.9276353817317305,0.0,0.0,0.0,0.0,0.0,0.0,0.0,0.0,0.0,0.0013099465825848037,0.0001233134630620337,0.03028140596843009,0.0,0.0,0.0,0.0,0.0,0.0,0.0,0.0,0.0,-0.0011026757243141477,0.12516817989969015,0.001282075902067005,0.0,0.0,0.0,0.0,0.0,0.0,0.0,0.0,0.0
3.7439999999999998,106,3,744000000,base_footprint,-0.0014532341511848644,0.0035881494805112346,0.37333932588432583,0.9276867795986125,0.0,0.0,0.0,0.0,0.0,0.0,0.0,0.0,0.0,-0.0002926649271635078,-6.944724405049815e-05,-0.022072326522247523,0.0,0.0,0.0,0.0,0.0,0.0,0.0,0.0,0.0,0.0100520465200971,0.2403483292365648,-0.003976178825843793,0.0,0.0,0.0,0.0,0.0,0.0,0.0,0.0,0.0
3.778,107,3,778000000,base_footprint,-0.0014530639119480196,0.0035918748575470187,0.3729871468685287,0.9278284191116105,0.0,0.0,0.0,0.0,0.0,0.0,0.0,0.0,0.0,-0.00016330721910469867,-9.466290940217688e-05,-0.02270645262692745,0.0,0.0,0.0,0.0,0.0,0.0,0.0,0.0,0.0,0.005572774415306264,0.00028591496025596346,0.00013490958990757838,0.0,0.0,0.0,0.0,0.0,0.0,0.0,0.0,0.0
3.8120000000000003,108,3,812000000,base_footprint,-0.0014440674173438449,0.0035795793812391763,0.37264344405719446,0.9279665753042725,0.0,0.0,0.0,0.0,0.0,0.0,0.0,0.0,0.0,0.0029783881879819,0.0012123953640103408,-0.014394696968652913,0.0,0.0,0.0,0.0,0.0,0.0,0.0,0.0,0.0,-0.000721257465106942,-0.08794274655765505,0.005004253784421553,0.0,0.0,0.0,0.0,0.0,0.0,0.0,0.0,0.0
3.846,109,3,846000000,base_footprint,-0.0014491410274062836,0.003595644039668835,0.3726982642159648,0.9279444892797358,0.0,0.0,0.0,0.0,0.0,0.0,0.0,0.0,0.0,-1.0943676532597318e-05,2.0906973021947587e-05,0.006810555587528629,0.0,0.0,0.0,0.0,0.0,0.0,0.0,0.0,0.0,-0.006332565186394995,-0.23555382235030553,-0.0037583073052521307,0.0,0.0,0.0,0.0,0.0,0.0,0.0,0.0,0.0
3.879,110,3,880000000,base_footprint,-0.0014466452191705449,0.0035929101757786333,0.37258798876022786,0.9279887870258385,0.0,0.0,0.0,0.0,0.0,0.0,0.0,0.0,0.0,0.0008824934978268971,-0.0003439561191932194,-0.013365984024611668,0.0,0.0,0.0,0.0,0.0,0.0,0.0,0.0,0.0,-0.0009261816224364096,-0.049625164966761844,0.002664154680351671,0.0,0.0,0.0,0.0,0.0,0.0,0.0,0.0,0.0
3.914,111,3,914000000,base_footprint,-0.001435445604811228,0.0035702654004484825,0.3725207969271536,0.9280158665441256,0.0,0.0,0.0,0.0,0.0,0.0,0.0,0.0,0.0,7.246903368514335e-05,-0.0020788520425973024,0.009028068985213277,0.0,0.0,0.0,0.0,0.0,0.0,0.0,0.0,0.0,-0.009086730864285155,-0.008266237511980058,0.00011207348166458774,0.0,0.0,0.0,0.0,0.0,0.0,0.0,0.0,0.0
3.948,112,3,948000000,base_footprint,-0.0014378740510552104,0.0035829841157065585,0.3727109688677325,0.9279394529971856,0.0,0.0,0.0,0.0,0.0,0.0,0.0,0.0,0.0,0.0005208279703797826,-0.000257046007694505,-0.004655496731697312,0.0,0.0,0.0,0.0,0.0,0.0,0.0,0.0,0.0,0.008176964733048582,0.17441261285694917,-0.0018584150700392795,0.0,0.0,0.0,0.0,0.0,0.0,0.0,0.0,0.0
3.982,113,3,982000000,base_footprint,-0.0014473421921181106,0.003591330396426418,0.3720128887462384,0.9282194881348063,0.0,0.0,0.0,0.0,0.0,0.0,0.0,0.0,0.0,-0.0011189901928116345,-0.001075872345538216,-0.07290740940393917,0.0,0.0,0.0,0.0,0.0,0.0,0.0,0.0,0.0,0.018389703782634402,0.18676647848148292,-0.003060218397175407,0.0,0.0,0.0,0.0,0.0,0.0,0.0,0.0,0.0
4.016,114,4,16000000,base_footprint,-0.0014408297575189027,0.003586275855348053,0.37116680983863987,0.9285581629113527,0.0,0.0,0.0,0.0,0.0,0.0,0.0,0.0,0.0,-0.0007786354470426517,-0.0012994657386981507,-0.00528591034221145,0.0,0.0,0.0,0.0,0.0,0.0,0.0,0.0,0.0,0.017683581407467095,-0.023274342309210622,0.0002076137252106417,0.0,0.0,0.0,0.0,0.0,0.0,0.0,0.0,0.0
4.051,115,4,50000000,base_footprint,-0.0014409329181445832,0.003584748309757578,0.3710526570072402,0.9286037901170491,0.0,0.0,0.0,0.0,0.0,0.0,0.0,0.0,0.0,0.0002795621615662935,3.115752917524117e-05,-0.007583482425147471,0.0,0.0,0.0,0.0,0.0,0.0,0.0,0.0,0.0,-0.0025810300935256237,0.011079547444974238,0.0017439277993968056,0.0,0.0,0.0,0.0,0.0,0.0,0.0,0.0,0.0
4.086,116,4,84000000,base_footprint,-0.0014392013154335248,0.003583496474019496,0.3709287202396976,0.9286533108506826,0.0,0.0,0.0,0.0,0.0,0.0,0.0,0.0,0.0,0.00020466885729303295,1.32239766314715e-05,-0.008086730718526247,0.0,0.0,0.0,0.0,0.0,0.0,0.0,0.0,0.0,0.0019912109184830164,0.0057174271101768145,-0.00019670176376667423,0.0,0.0,0.0,0.0,0.0,0.0,0.0,0.0,0.0
4.118,117,4,118000000,base_footprint,-0.0014389384294120967,0.0035833431680122154,0.3709554260711726,0.9286426443881906,0.0,0.0,0.0,0.0,0.0,0.0,0.0,0.0,0.0,0.00035992629840460235,0.00016290257829701155,0.017932130229717912,0.0,0.0,0.0,0.0,0.0,0.0,0.0,0.0,0.0,0.0008163035763750077,-0.0017106422718254181,1.4569756573091694e-06,0.0,0.0,0.0,0.0,0.0,0.0,0.0,0.0,0.0
4.152,118,4,152000000,base_footprint,-0.0014404643121118143,0.0035841767242269906,0.37122793386730907,0.9285337365203183,0.0,0.0,0.0,0.0,0.0,0.0,0.0,0.0,0.0,0.00017888942114369647,0.00012723918776196127,0.016994701936182664,0.0,0.0,0.0,0.0,0.0,0.0,0.0,0.0,0.0,-0.0042867864598579875,0.006540084225178111,-0.00035597931090481554,0.0,0.0,0.0,0.0,0.0,0.0,0.0,0.0,0.0
4.186,119,4,186000000,base_footprint,-0.001442825024904992,0.003586587320351895,0.3714922331485128,0.9284280130186033,0.0,0.0,0.0,0.0,0.0,0.0,0.0,0.0,0.0,6.512756564440973e-05,0.00011751091251767657,0.01652595510834934,0.0,0.0,0.0,0.0,0.0,0.0,0.0,0.0,0.0,-0.0032761821138575682,0.005644106293901739,-0.0002567186492732524,0.0,0.0,0.0,0.0,0.0,0.0,0.0,0.0,0.0
4.22,120,4,220000000,base_footprint,-0.0014470756185512848,0.0035907208706181405,0.37192208109739944,0.9282558797486623,0.0,0.0,0.0,0.0,0.0,0.0,0.0,0.0,0.0,0.0004975287481930103,0.00029635478232483727,0.04100903070026091,0.0,0.0,0.0,0.0,0.0,0.0,0.0,0.0,0.0,-0.004666083719517681,-0.001387709115647352,0.0002553344927207758,0.0,0.0,0.0,0.0,0.0,0.0,0.0,0.0,0.0
4.254,121,4,254000000,base_footprint,-0.001450929686136182,0.003592845582661112,0.3725591989561323,0.9280003391900404,0.0,0.0,0.0,0.0,0.0,0.0,0.0,0.0,0.0,0.00017590060676538874,0.00017678375152326155,0.039739310955463604,0.0,0.0,0.0,0.0,0.0,0.0,0.0,0.0,0.0,-0.007772557118117217,0.003708855540395279,-0.0005103816767468017,0.0,0.0,0.0,0.0,0.0,0.0,0.0,0.0,0.0
4.288,122,4,288000000,base_footprint,-0.0014549495665726786,0.0035936178303518267,0.3731898305717028,0.9277469048132212,0.0,0.0,0.0,0.0,0.0,0.0,0.0,0.0,0.0,0.00030998836946879055,0.00020389768422529332,0.040062143297979684,0.0,0.0,0.0,0.0,0.0,0.0,0.0,0.0,0.0,-0.0072847703227681936,-0.001388994298896078,0.0002946673401196674,0.0,0.0,0.0,0.0,0.0,0.0,0.0,0.0,0.0
4.322,123,4,322000000,base_footprint,-0.0014522225416269084,0.0035919836359050022,0.3736737398996678,0.9275521143378654,0.0,0.0,0.0,0.0,0.0,0.0,0.0,0.0,0.0,0.0002453673084639948,0.0004541970090665889,0.00860729750833452,0.0,0.0,0.0,0.0,0.0,0.0,0.0,0.0,0.0,-0.006292775399247648,0.0015937898794073637,0.0004154637365773651,0.0,0.0,0.0,0.0,0.0,0.0,0.0,0.0,0.0
4.356,124,4,356000000,base_footprint,-0.0014529489603227817,0.003590599326542923,0.3736893465840124,0.9275458310969916,0.0,0.0,0.0,0.0,0.0,0.0,0.0,0.0,0.0,0.0003641521625604626,-0.00032680777472707316,0.0035796839882934173,0.0,0.0,0.0,0.0,0.0,0.0,0.0,0.0,0.0,-0.008457212577133395,-0.053739026553157175,0.0006972622309278448,0.0,0.0,0.0,0.0,0.0,0.0,0.0,0.0,0.0
4.39,125,4,390000000,base_footprint,-0.0014574697030411926,0.003591723262954528,0.3739946565492069,0.9274227580659793,0.0,0.0,0.0,0.0,0.0,0.0,0.0,0.0,0.0,0.0002547152403819977,-0.0006850891571076709,0.017248427789234445,0.0,0.0,0.0,0.0,0.0,0.0,0.0,0.0,0.0,-0.004144755051027316,0.014222884260544659,-0.0009259626970631624,0.0,0.0,0.0,0.0,0.0,0.0,0.0,0.0,0.0
4.424,126,4,424000000,base_footprint,-0.001458871094414285,0.0035905117207559473,0.3739382217944331,0.9274455165679171,0.0,0.0,0.0,0.0,0.0,0.0,0.0,0.0,0.0,-3.641869347246449e-05,0.00041093345405365903,-0.016164787592559446,0.0,0.0,0.0,0.0,0.0,0.0,0.0,0.0,0.0,0.002479708625359933,0.017252817996762218,0.0003838033340480097,0.0,0.0,0.0,0.0,0.0,0.0,0.0,0.0,0.0
4.458,127,4,458000000,base_footprint,-0.0014559185744121982,0.003586778323982165,0.37368390838860993,0.9275480321437657,0.0,0.0,0.0,0.0,0.0,0.0,0.0,0.0,0.0,0.00020024561734275135,-0.00019923571255696357,-0.015859280115278426,0.0,0.0,0.0,0.0,0.0,0.0,0.0,0.0,0.0,0.004100853480236638,-0.0024905866165964366,0.00020601066800278548,0.0,0.0,0.0,0.0,0.0,0.0,0.0,0.0,0.0
4.492,128,4,492000000,base_footprint,-0.0014536806944857694,0.003583100917224689,0.37343129776831874,0.927649779845457,0.0,0.0,0.0,0.0,0.0,0.0,0.0,0.0,0.0,0.0003376804015350087,3.6529529891511734e-06,-0.01616625185577454,0.0,0.0,0.0,0.0,0.0,0.0,0.0,0.0,0.0,0.003614935457159852,0.0050327435694336045,0.00037155187122374676,0.0,0.0,0.0,0.0,0.0,0.0,0.0,0.0,0.0
4.526,129,4,526000000,base_footprint,-0.001453828383203366,0.0035859726291139395,0.3731491590838194,0.9277632953821647,0.0,0.0,0.0,0.0,0.0,0.0,0.0,0.0,0.0,0.0023875635879664924,-0.000940779011139432,-0.0049107869933641655,0.0,0.0,0.0,0.0,0.0,0.0,0.0,0.0,0.0,-0.02058694843955161,-0.5714705711410462,0.004840982644880995,0.0,0.0,0.0,0.0,0.0,0.0,0.0,0.0,0.0
4.5600000000000005,130,4,560000000,base_footprint,-0.0014479741274877147,0.0035750458089754025,0.3734914620441417,0.9276255980720451,0.0,0.0,0.0,0.0,0.0,0.0,0.0,0.0,0.0,-0.0014484192746825292,-0.0009168989182779534,-0.021992760903851057,0.0,0.0,0.0,0.0,0.0,0.0,0.0,0.0,0.0,0.005073771035869187,0.22840944482626632,-0.006076842707397978,0.0,0.0,0.0,0.0,0.0,0.0,0.0,0.0,0.0
4.594,131,4,594000000,base_footprint,-0.0014483845406285147,0.0035796987534910552,0.37307117695665015,0.92779468896046,0.0,0.0,0.0,0.0,0.0,0.0,0.0,0.0,0.0,2.226892709642063e-05,-8.788694987002895e-05,-0.026913100788573213,0.0,0.0,0.0,0.0,0.0,0.0,0.0,0.0,0.0,0.00690923178776605,0.02114771465457396,0.0025204517564523295,0.0,0.0,0.0,0.0,0.0,0.0,0.0,0.0,0.0
4.628,132,4,628000000,base_footprint,-0.001449626701425681,0.0035798703498416268,0.373407880909255,0.9276592249234438,0.0,0.0,0.0,0.0,0.0,0.0,0.0,0.0,0.0,0.000351773003937434,0.0003072925044872496,0.04761758349289502,0.0,0.0,0.0,0.0,0.0,0.0,0.0,0.0,0.0,-0.004058079549081194,-0.014361525506470357,-6.034539023768656e-05,0.0,0.0,0.0,0.0,0.0,0.0,0.0,0.0,0.0
4.662,133,4,662000000,base_footprint,-0.001453503816590886,0.003581513454891632,0.37415397673406625,0.9273585400383778,0.0,0.0,0.0,0.0,0.0,0.0,0.0,0.0,0.0,0.0002646515051999462,0.00030556699581815277,0.04714082573054144,0.0,0.0,0.0,0.0,0.0,0.0,0.0,0.0,0.0,-0.009556701032461116,0.005794022233536485,-0.0001881311282213031,0.0,0.0,0.0,0.0,0.0,0.0,0.0,0.0,0.0
4.696,134,4,696000000,base_footprint,-0.0014581131093858626,0.0035845388540189636,0.37489354117205276,0.9270597919092612,0.0,0.0,0.0,0.0,0.0,0.0,0.0,0.0,0.0,0.00017453340706534898,0.00029113761012676347,0.04673333481258336,0.0,0.0,0.0,0.0,0.0,0.0,0.0,0.0,0.0,-0.009436300393098025,0.005002701647928666,-0.00023356007682953634,0.0,0.0,0.0,0.0,0.0,0.0,0.0,0.0,0.0
4.73,135,4,730000000,base_footprint,-0.0014572894091673873,0.003581418073569197,0.37536231579064444,0.9268700996560656,0.0,0.0,0.0,0.0,0.0,0.0,0.0,0.0,0.0,-0.0006729332197200724,0.0012687415217271377,-0.011216906088355776,0.0,0.0,0.0,0.0,0.0,0.0,0.0,0.0,0.0,0.0036941524302571,0.3550695995439872,-0.0015031042057447044,0.0,0.0,0.0,0.0,0.0,0.0,0.0,0.0,0.0
4.764,136,4,764000000,base_footprint,-0.0014618830439671166,0.003590242897421676,0.37516715037966003,0.9269490721339059,0.0,0.0,0.0,0.0,0.0,0.0,0.0,0.0,0.0,-4.082343746796097e-05,-9.22927672348238e-05,-0.012106216430897113,0.0,0.0,0.0,0.0,0.0,0.0,0.0,0.0,0.0,0.004449192981152322,-0.0020766319283851255,-0.0004172368800086149,0.0,0.0,0.0,0.0,0.0,0.0,0.0,0.0,0.0
4.797,137,4,798000000,base_footprint,-0.0014614903455845898,0.003589690984641001,0.37496786079684624,0.9270297090892188,0.0,0.0,0.0,0.0,0.0,0.0,0.0,0.0,0.0,0.0002691613354203015,-0.00014783859138297126,-0.01396659914355447,0.0,0.0,0.0,0.0,0.0,0.0,0.0,0.0,0.0,0.005087602775600957,-0.012125360051076506,0.0006498178540151049,0.0,0.0,0.0,0.0,0.0,0.0,0.0,0.0,0.0
4.832,138,4,832000000,base_footprint,-0.0014602694162082386,0.0035852431193351877,0.37468028279719945,0.9271459967707448,0.0,0.0,0.0,0.0,0.0,0.0,0.0,0.0,0.0,-0.0001805995825990005,0.00043384086273906146,-0.024007513959540906,0.0,0.0,0.0,0.0,0.0,0.0,0.0,0.0,0.0,-0.0038175586219416635,-0.06539261601925761,-0.0003832899200837288,0.0,0.0,0.0,0.0,0.0,0.0,0.0,0.0,0.0
4.866,139,4,866000000,base_footprint,-0.0014594105891372758,0.0035875288998379004,0.37454895011325684,0.9271990529148432,0.0,0.0,0.0,0.0,0.0,0.0,0.0,0.0,0.0,-0.00010314980360411484,0.00020382644739396912,0.0036181003207238355,0.0,0.0,0.0,0.0,0.0,0.0,0.0,0.0,0.0,0.0029781190632510415,0.003846925751737551,-0.0008848226105236297,0.0,0.0,0.0,0.0,0.0,0.0,0.0,0.0,0.0
4.9,140,4,900000000,base_footprint,-0.0014604851982128212,0.003589349613419544,0.3745754666593411,0.9271883321792156,0.0,0.0,0.0,0.0,0.0,0.0,0.0,0.0,0.0,0.00046665367203563177,9.266977295154259e-05,0.0014482804395685928,0.0,0.0,0.0,0.0,0.0,0.0,0.0,0.0,0.0,-0.0004792811100301289,0.03578690281503199,0.0016529872498307078,0.0,0.0,0.0,0.0,0.0,0.0,0.0,0.0,0.0
4.934,141,4,934000000,base_footprint,-0.0014578184992897285,0.0035868946247311333,0.37402749867758395,0.9274095315367231,0.0,0.0,0.0,0.0,0.0,0.0,0.0,0.0,0.0,5.353432089441929e-05,-0.00033263171288259275,-0.04220957138875303,0.0,0.0,0.0,0.0,0.0,0.0,0.0,0.0,0.0,0.00950426643351137,0.009697880190817056,-0.0003092273871705367,0.0,0.0,0.0,0.0,0.0,0.0,0.0,0.0,0.0
4.9670000000000005,142,4,968000000,base_footprint,-0.0014541664019271123,0.0035842109858669527,0.37335026730139886,0.927682390011613,0.0,0.0,0.0,0.0,0.0,0.0,0.0,0.0,0.0,0.00024211481242284057,-0.0001444171662815306,-0.043019675030925,0.0,0.0,0.0,0.0,0.0,0.0,0.0,0.0,0.0,0.009614649799767755,0.006644898369138737,0.0004395501338628208,0.0,0.0,0.0,0.0,0.0,0.0,0.0,0.0,0.0
5.002,143,5,2000000,base_footprint,-0.0014489237611353461,0.003581966728656061,0.3726689815228115,0.9279563030364305,0.0,0.0,0.0,0.0,0.0,0.0,0.0,0.0,0.0,0.00010953556385544014,-0.00015058366437608158,-0.04335519252884736,0.0,0.0,0.0,0.0,0.0,0.0,0.0,0.0,0.0,0.009592319560286498,0.005126400802257295,-0.00030512643807805394,0.0,0.0,0.0,0.0,0.0,0.0,0.0,0.0,0.0
5.036,144,5,36000000,base_footprint,-0.0014433608509523044,0.003582142921880227,0.37159167302423,0.9283882342536418,0.0,0.0,0.0,0.0,0.0,0.0,0.0,0.0,0.0,-0.00032903515806450624,-0.00037065679021104777,-0.08281168582983725,0.0,0.0,0.0,0.0,0.0,0.0,0.0,0.0,0.0,-0.0011183675282918915,-0.32546658261911393,0.0013847519171474231,0.0,0.0,0.0,0.0,0.0,0.0,0.0,0.0,0.0
5.07,145,5,70000000,base_footprint,-0.0014378124268545809,0.0035841502709714097,0.370280726686043,0.9289118741878135,0.0,0.0,0.0,0.0,0.0,0.0,0.0,0.0,0.0,-0.0002812360478017242,-0.0003913769505900736,-0.08324334356148229,0.0,0.0,0.0,0.0,0.0,0.0,0.0,0.0,0.0,0.01784938376331183,0.0049467031723707975,-9.47986622765835e-05,0.0,0.0,0.0,0.0,0.0,0.0,0.0,0.0,0.0
5.104,146,5,104000000,base_footprint,-0.0014329563915256628,0.003587189752481223,0.36896199146089237,0.9294364569796433,0.0,0.0,0.0,0.0,0.0,0.0,0.0,0.0,0.0,-0.00036029124434235987,-0.00040448112379336135,-0.0836962717844375,0.0,0.0,0.0,0.0,0.0,0.0,0.0,0.0,0.0,0.017850682885046737,0.004393511744503982,-0.00028478068899382444,0.0,0.0,0.0,0.0,0.0,0.0,0.0,0.0,0.0
5.138,147,5,138000000,base_footprint,-0.0014332480557317185,0.003589354530817801,0.3688334858745928,0.9294874512502359,0.0,0.0,0.0,0.0,0.0,0.0,0.0,0.0,0.0,-2.0515582827887734e-05,1.81349284254303e-05,-0.0028498684129228645,0.0,0.0,0.0,0.0,0.0,0.0,0.0,0.0,0.0,0.0015007063220804232,-0.016235207110787773,-0.00017142299661403925,0.0,0.0,0.0,0.0,0.0,0.0,0.0,0.0,0.0
5.172,148,5,172000000,base_footprint,-0.0014349130144254779,0.0035934023207998805,0.36878522001599107,0.9295065841521292,0.0,0.0,0.0,0.0,0.0,0.0,0.0,0.0,0.0,-0.00012230515306158076,1.21250458931058e-05,-0.0032367578185971287,0.0,0.0,0.0,0.0,0.0,0.0,0.0,0.0,0.0,0.001345110572741231,0.004644239940261524,-0.0002581006917002095,0.0,0.0,0.0,0.0,0.0,0.0,0.0,0.0,0.0
5.206,149,5,206000000,base_footprint,-0.0014364594430179261,0.0035965777308431647,0.36873029262248636,0.92952836025343,0.0,0.0,0.0,0.0,0.0,0.0,0.0,0.0,0.0,-6.383954909771478e-06,-0.00037590017546325734,-0.005200488792503681,0.0,0.0,0.0,0.0,0.0,0.0,0.0,0.0,0.0,0.004439303976732581,0.0295171222975786,-0.0027454925695193683,0.0,0.0,0.0,0.0,0.0,0.0,0.0,0.0,0.0
5.24,150,5,240000000,base_footprint,-0.001439247321593713,0.0035942703323567486,0.3688494023847466,0.9294811069345845,0.0,0.0,0.0,0.0,0.0,0.0,0.0,0.0,0.0,0.0003171703826752244,2.296808166711115e-05,0.04358035214406754,0.0,0.0,0.0,0.0,0.0,0.0,0.0,0.0,0.0,0.014409214829793973,0.2747794966851009,0.0012695163405974008,0.0,0.0,0.0,0.0,0.0,0.0,0.0,0.0,0.0
5.274,151,5,274000000,base_footprint,-0.001442379096777201,0.0035981278541196075,0.3696856700857301,0.9291487923641463,0.0,0.0,0.0,0.0,0.0,0.0,0.0,0.0,0.0,0.0006260127930055203,0.000264781039794166,0.05254290818815859,0.0,0.0,0.0,0.0,0.0,0.0,0.0,0.0,0.0,-0.005703138348424111,0.021231869632705083,0.00022949930729812003,0.0,0.0,0.0,0.0,0.0,0.0,0.0,0.0,0.0
5.312,152,5,308000000,base_footprint,-0.001438288151371243,0.0035902233780277125,0.3704605007810291,0.9288401686966163,0.0,0.0,0.0,0.0,0.0,0.0,0.0,0.0,0.0,0.004055375784979101,0.0009439350225207331,0.04270393627583869,0.0,0.0,0.0,0.0,0.0,0.0,0.0,0.0,0.0,-0.011926142513005108,-0.03623415982495948,0.0035256055847187385,0.0,0.0,0.0,0.0,0.0,0.0,0.0,0.0,0.0
5.342,153,5,342000000,base_footprint,-0.0014421293382336888,0.003586501191437151,0.37086281805508126,0.9286796150753065,0.0,0.0,0.0,0.0,0.0,0.0,0.0,0.0,0.0,-3.0645606643391895e-05,0.0001812501872405628,0.00722462050894981,0.0,0.0,0.0,0.0,0.0,0.0,0.0,0.0,0.0,-0.024616180260626036,-0.18225251085910016,-0.0020733395562429332,0.0,0.0,0.0,0.0,0.0,0.0,0.0,0.0,0.0
5.376,154,5,376000000,base_footprint,-0.0014431746141754687,0.003591554291902892,0.371314253591358,0.92849918851052,0.0,0.0,0.0,0.0,0.0,0.0,0.0,0.0,0.0,0.0004216531280680242,-0.0005490787158911517,0.05564477253591188,0.0,0.0,0.0,0.0,0.0,0.0,0.0,0.0,0.0,-0.01332815287647758,-0.18250691525977397,-0.00010187848555457546,0.0,0.0,0.0,0.0,0.0,0.0,0.0,0.0,0.0
5.41,155,5,410000000,base_footprint,-0.0014418226429613705,0.0035760786275239828,0.3720917691398688,0.928187937945478,0.0,0.0,0.0,0.0,0.0,0.0,0.0,0.0,0.0,0.007011465236708586,0.0017354724291714198,0.05221361354490849,0.0,0.0,0.0,0.0,0.0,0.0,0.0,0.0,0.0,-0.007807164698139156,0.09812406179366243,0.01105122106177939,0.0,0.0,0.0,0.0,0.0,0.0,0.0,0.0,0.0
5.444,156,5,444000000,base_footprint,-0.0014543422429079268,0.0035867826564856486,0.3732921862479044,0.9277057526851258,0.0,0.0,0.0,0.0,0.0,0.0,0.0,0.0,0.0,0.0006633222670893685,0.0003959108595342325,0.10321029128046944,0.0,0.0,0.0,0.0,0.0,0.0,0.0,0.0,0.0,-0.0009201112190994343,0.2627814463441752,-0.01201898199801386,0.0,0.0,0.0,0.0,0.0,0.0,0.0,0.0,0.0
5.478,157,5,478000000,base_footprint,-0.0014584523008181517,0.0035791254000168346,0.3749227941474601,0.9270479821492081,0.0,0.0,0.0,0.0,0.0,0.0,0.0,0.0,0.0,0.0009879583806735937,0.0006435186776082825,0.10341819781471703,0.0,0.0,0.0,0.0,0.0,0.0,0.0,0.0,0.0,-0.02314658055268342,0.0018010356771227037,0.0007840845486753301,0.0,0.0,0.0,0.0,0.0,0.0,0.0,0.0,0.0
5.5120000000000005,158,5,512000000,base_footprint,-0.001468722261666037,0.0035878575884943776,0.376544472232967,0.9263904309542706,0.0,0.0,0.0,0.0,0.0,0.0,0.0,0.0,0.0,0.0013295508083772541,0.00041476682796059684,0.10032818341243063,0.0,0.0,0.0,0.0,0.0,0.0,0.0,0.0,0.0,-0.029764579976948688,-0.22110107276289398,0.0026727470231711365,0.0,0.0,0.0,0.0,0.0,0.0,0.0,0.0,0.0
5.546,159,5,546000000,base_footprint,-0.0014666714097572274,0.0035717376274617386,0.37782317766951534,0.9258697197667749,0.0,0.0,0.0,0.0,0.0,0.0,0.0,0.0,0.0,0.000733376613311654,0.0005046337909435392,0.07908356605992235,0.0,0.0,0.0,0.0,0.0,0.0,0.0,0.0,0.0,-0.018131518733881392,-0.10090271894617507,-0.0009405441257660145,0.0,0.0,0.0,0.0,0.0,0.0,0.0,0.0,0.0
5.58,160,5,580000000,base_footprint,-0.001471094897170953,0.0035703567719164364,0.3790647850482037,0.925362078955413,0.0,0.0,0.0,0.0,0.0,0.0,0.0,0.0,0.0,0.0005734745255344512,0.0004991083384573506,0.07876212316396301,0.0,0.0,0.0,0.0,0.0,0.0,0.0,0.0,0.0,-0.01626614526975384,0.0056674063960509185,-0.00018645955570270538,0.0,0.0,0.0,0.0,0.0,0.0,0.0,0.0,0.0
5.614,161,5,614000000,base_footprint,-0.0014750852171676982,0.003565355253886151,0.38024911968211916,0.9248760562077976,0.0,0.0,0.0,0.0,0.0,0.0,0.0,0.0,0.0,-0.0002590018947128324,0.0005245344144060127,0.04921673607552755,0.0,0.0,0.0,0.0,0.0,0.0,0.0,0.0,0.0,-0.01323705026716665,0.18703486889566848,-0.0016485945159026003,0.0,0.0,0.0,0.0,0.0,0.0,0.0,0.0,0.0
5.648,162,5,648000000,base_footprint,-0.0014769518336360022,0.0035746557910245652,0.380117765956427,0.9249300105702872,0.0,0.0,0.0,0.0,0.0,0.0,0.0,0.0,0.0,-0.00016591606515908212,-4.095371624399685e-05,-0.020148139574420142,0.0,0.0,0.0,0.0,0.0,0.0,0.0,0.0,0.0,0.002993696227449452,0.19020087635973992,-0.0007795795672020582,0.0,0.0,0.0,0.0,0.0,0.0,0.0,0.0,0.0
5.682,163,5,682000000,base_footprint,-0.0014780275090977082,0.0035792077032860766,0.3797955606806272,0.9250623421122423,0.0,0.0,0.0,0.0,0.0,0.0,0.0,0.0,0.0,-0.00027048550324089524,-0.0001483547183460935,-0.02088688245601747,0.0,0.0,0.0,0.0,0.0,0.0,0.0,0.0,0.0,0.0047543672024771425,0.003553214333547509,-0.00045758104743354357,0.0,0.0,0.0,0.0,0.0,0.0,0.0,0.0,0.0
5.716,164,5,716000000,base_footprint,-0.0014768999131290791,0.003583120426239218,0.3794136917368854,0.9252190176046132,0.0,0.0,0.0,0.0,0.0,0.0,0.0,0.0,0.0,-0.00023746832805486342,-0.00023075481659018458,-0.03229656300752737,0.0,0.0,0.0,0.0,0.0,0.0,0.0,0.0,0.0,0.005602444460798556,0.0008238396307759411,9.103628808667244e-05,0.0,0.0,0.0,0.0,0.0,0.0,0.0,0.0,0.0
5.75,165,5,750000000,base_footprint,-0.0014766573710060097,0.0035844610360998667,0.3789215083827598,0.9254206943909475,0.0,0.0,0.0,0.0,0.0,0.0,0.0,0.0,0.0,-4.7650228552002254e-05,-0.0002245114616268137,-0.03193311196958461,0.0,0.0,0.0,0.0,0.0,0.0,0.0,0.0,0.0,0.007888034849093195,-0.007988147137019003,0.00035861994392940146,0.0,0.0,0.0,0.0,0.0,0.0,0.0,0.0,0.0
5.784,166,5,784000000,base_footprint,-0.00147543339494363,0.003579784862161999,0.37835661768226314,0.9256518125584132,0.0,0.0,0.0,0.0,0.0,0.0,0.0,0.0,0.0,0.0001252003837050916,-0.00045722120781688025,-0.04410555797180564,0.0,0.0,0.0,0.0,0.0,0.0,0.0,0.0,0.0,0.0063447301009237015,-0.034456120653423274,0.0006005693582333633,0.0,0.0,0.0,0.0,0.0,0.0,0.0,0.0,0.0
5.818,167,5,818000000,base_footprint,-0.0014651746696965706,0.003584148962480768,0.377638864271445,0.9259448662480801,0.0,0.0,0.0,0.0,0.0,0.0,0.0,0.0,0.0,0.0012879606780979334,0.001177483653457607,-0.029151637665394654,0.0,0.0,0.0,0.0,0.0,0.0,0.0,0.0,0.0,0.006777287948360985,-0.042757953952158916,0.0020090852404438726,0.0,0.0,0.0,0.0,0.0,0.0,0.0,0.0,0.0
5.852,168,5,852000000,base_footprint,-0.0014681500852672471,0.0035830869576061624,0.3776030407807645,0.9259594751479688,0.0,0.0,0.0,0.0,0.0,0.0,0.0,0.0,0.0,0.00027911882178980224,0.00019889970359377417,0.030284017278960674,0.0,0.0,0.0,0.0,0.0,0.0,0.0,0.0,0.0,-0.0022513172306722756,-0.15729033972016654,-0.001160845344766236,0.0,0.0,0.0,0.0,0.0,0.0,0.0,0.0,0.0
5.886,169,5,886000000,base_footprint,-0.0014743122101257256,0.003578458574226227,0.3787828304823802,0.9254774920923232,0.0,0.0,0.0,0.0,0.0,0.0,0.0,0.0,0.0,-0.00024769811245762353,-0.00019059680378822957,0.09487936393148799,0.0,0.0,0.0,0.0,0.0,0.0,0.0,0.0,0.0,-0.012891650043266326,-0.17648969123639754,-0.001008818543445207,0.0,0.0,0.0,0.0,0.0,0.0,0.0,0.0,0.0
5.92,170,5,920000000,base_footprint,-0.001471022472186924,0.003567967327810342,0.38028262213563463,0.9248622778574549,0.0,0.0,0.0,0.0,0.0,0.0,0.0,0.0,0.0,-0.0007757645050709106,0.0013856475806944396,0.0919537676080209,0.0,0.0,0.0,0.0,0.0,0.0,0.0,0.0,0.0,-0.020516827345817522,0.19573915880592616,-0.0005967091370354553,0.0,0.0,0.0,0.0,0.0,0.0,0.0,0.0,0.0
5.954,171,5,954000000,base_footprint,-0.0014822417931779196,0.003570337694369628,0.38095421788027634,0.9245858205311402,0.0,0.0,0.0,0.0,0.0,0.0,0.0,0.0,0.0,0.0007989138098417922,0.00031201050326433536,0.025093538511642442,0.0,0.0,0.0,0.0,0.0,0.0,0.0,0.0,0.0,-0.011168304509985606,0.1790754111748744,0.0016602411240534704,0.0,0.0,0.0,0.0,0.0,0.0,0.0,0.0,0.0
5.988,172,5,988000000,base_footprint,-0.0014816172204107979,0.0035674988834780686,0.38134338379290805,0.9244253898500968,0.0,0.0,0.0,0.0,0.0,0.0,0.0,0.0,0.0,0.00044406610557853855,0.00023593239743524726,0.02458593994273011,0.0,0.0,0.0,0.0,0.0,0.0,0.0,0.0,0.0,-0.004421223484494821,0.005929213568332443,-0.0004328033906987064,0.0,0.0,0.0,0.0,0.0,0.0,0.0,0.0,0.0
6.022,173,6,22000000,base_footprint,-0.0014801567856783438,0.003564389743885164,0.3816649294326044,0.9242926949310206,0.0,0.0,0.0,0.0,0.0,0.0,0.0,0.0,0.0,-0.0005075824501306853,-0.00012650792628290404,0.007765183780716246,0.0,0.0,0.0,0.0,0.0,0.0,0.0,0.0,0.0,-0.004089561983986842,-0.33773507800451585,0.0006190077092161351,0.0,0.0,0.0,0.0,0.0,0.0,0.0,0.0,0.0
6.056,174,6,56000000,base_footprint,-0.0014813792448897965,0.0035663848366058134,0.3817777443981341,0.9242460929303423,0.0,0.0,0.0,0.0,0.0,0.0,0.0,0.0,0.0,0.00020009953783433108,0.00011489492851624413,0.0069547089882180235,0.0,0.0,0.0,0.0,0.0,0.0,0.0,0.0,0.0,-0.0034152817977575827,0.012734333602642022,0.0008882050860322022,0.0,0.0,0.0,0.0,0.0,0.0,0.0,0.0,0.0
6.09,175,6,90000000,base_footprint,-0.0014819338260315179,0.003567860784711755,0.3818831118655254,0.9242025552407107,0.0,0.0,0.0,0.0,0.0,0.0,0.0,0.0,0.0,0.00010812317835321136,0.00010815103337239361,0.006515552750345587,0.0,0.0,0.0,0.0,0.0,0.0,0.0,0.0,0.0,-0.0012897164238402283,0.005366911609048031,-0.00020793206914993182,0.0,0.0,0.0,0.0,0.0,0.0,0.0,0.0,0.0
6.124,176,6,124000000,base_footprint,-0.0014824630042281134,0.0035713237306546812,0.38177304273076834,0.9242480142225586,0.0,0.0,0.0,0.0,0.0,0.0,0.0,0.0,0.0,-0.0002277063835223408,-6.41582287808257e-05,-0.01761774960039284,0.0,0.0,0.0,0.0,0.0,0.0,0.0,0.0,0.0,0.001083921846843929,0.011352759464436637,-0.0004401269146520799,0.0,0.0,0.0,0.0,0.0,0.0,0.0,0.0,0.0
6.158,177,6,158000000,base_footprint,-0.0014833077935828103,0.0035757671781964538,0.38149214633786205,0.9243639737514698,0.0,0.0,0.0,0.0,0.0,0.0,0.0,0.0,0.0,-0.00017158506888946591,-4.497524398847984e-05,-0.01828087022133882,0.0,0.0,0.0,0.0,0.0,0.0,0.0,0.0,0.0,0.004429605251863334,0.003907892723335559,-0.00011956408543711585,0.0,0.0,0.0,0.0,0.0,0.0,0.0,0.0,0.0
6.192,178,6,192000000,base_footprint,-0.0014835203788064867,0.003579189624755008,0.3811964074735258,0.9244859585186751,0.0,0.0,0.0,0.0,0.0,0.0,0.0,0.0,0.0,-0.000126859688467835,-9.382195949190576e-05,-0.019453252320038673,0.0,0.0,0.0,0.0,0.0,0.0,0.0,0.0,0.0,0.004427497278782883,0.0003062974302833672,-5.24502178452754e-05,0.0,0.0,0.0,0.0,0.0,0.0,0.0,0.0,0.0
6.226,179,6,226000000,base_footprint,-0.00147926369452481,0.0035723053878839745,0.38063683132400966,0.9247165257811474,0.0,0.0,0.0,0.0,0.0,0.0,0.0,0.0,0.0,0.00040098799162095527,-0.0003330217007171298,-0.06696716405131951,0.0,0.0,0.0,0.0,0.0,0.0,0.0,0.0,0.0,0.008360680656592678,0.20140687105270857,0.0003319189038291253,0.0,0.0,0.0,0.0,0.0,0.0,0.0,0.0,0.0
6.26,180,6,260000000,base_footprint,-0.0014815150322832935,0.0035770401937436614,0.37921540396871917,0.9253003227544573,0.0,0.0,0.0,0.0,0.0,0.0,0.0,0.0,0.0,-9.655155061600939e-05,-0.0012588668812774006,-0.09312187248468591,0.0,0.0,0.0,0.0,0.0,0.0,0.0,0.0,0.0,0.02289817919491587,0.06959343007840849,-0.0012120973493569243,0.0,0.0,0.0,0.0,0.0,0.0,0.0,0.0,0.0
6.2940000000000005,181,6,294000000,base_footprint,-0.0014707430492387603,0.003575656465986006,0.3776736381249641,0.9259307072676519,0.0,0.0,0.0,0.0,0.0,0.0,0.0,0.0,0.0,0.000510801070968213,-0.000129148547985698,-0.09195381937571549,0.0,0.0,0.0,0.0,0.0,0.0,0.0,0.0,0.0,0.0076557854906835875,-0.039974766049286715,0.0005834929986979619,0.0,0.0,0.0,0.0,0.0,0.0,0.0,0.0,0.0
6.328,182,6,328000000,base_footprint,-0.0014686149890660025,0.0035771061970064607,0.37679712120636627,0.9262877398151529,0.0,0.0,0.0,0.0,0.0,0.0,0.0,0.0,0.0,-0.0007684753465399238,0.00012813384078316542,-0.015537609775372045,0.0,0.0,0.0,0.0,0.0,0.0,0.0,0.0,0.0,0.025035616263446157,0.008206256182005538,-0.002874087597981855,0.0,0.0,0.0,0.0,0.0,0.0,0.0,0.0,0.0
6.362,183,6,362000000,base_footprint,-0.0014675032806248669,0.0035859151938194807,0.37663306029180743,0.9263544276040203,0.0,0.0,0.0,0.0,0.0,0.0,0.0,0.0,0.0,0.0002576311806542999,0.00015363271112805776,-0.010039345069174876,0.0,0.0,0.0,0.0,0.0,0.0,0.0,0.0,0.0,-0.0008730201226611056,0.060318021786686035,0.0019013722523778616,0.0,0.0,0.0,0.0,0.0,0.0,0.0,0.0,0.0
6.396,184,6,396000000,base_footprint,-0.001465315505405213,0.003582217555669087,0.3764776174353572,0.9264176294404431,0.0,0.0,0.0,0.0,0.0,0.0,0.0,0.0,0.0,0.00030258967879048565,-0.0001665311420891836,-0.009656756370408845,0.0,0.0,0.0,0.0,0.0,0.0,0.0,0.0,0.0,0.00449031398824387,0.0015393047922610467,0.0001367434491836449,0.0,0.0,0.0,0.0,0.0,0.0,0.0,0.0,0.0
6.43,185,6,430000000,base_footprint,-0.0014674316152160063,0.00357677398236275,0.3773379411854914,0.9260675631260542,0.0,0.0,0.0,0.0,0.0,0.0,0.0,0.0,0.0,0.0008380541389426621,0.0003127035799181187,0.08702191272795104,0.0,0.0,0.0,0.0,0.0,0.0,0.0,0.0,0.0,-0.012246672882535068,-0.020740168833867964,8.361739415513916e-05,0.0,0.0,0.0,0.0,0.0,0.0,0.0,0.0,0.0
6.464,186,6,464000000,base_footprint,-0.0014708107538927496,0.0035720933109336683,0.37870611340947125,0.9255089175861014,0.0,0.0,0.0,0.0,0.0,0.0,0.0,0.0,0.0,0.0008049294350410235,0.0005654416387190643,0.08677181705064378,0.0,0.0,0.0,0.0,0.0,0.0,0.0,0.0,0.0,-0.01808692700620818,0.005602227730104054,0.0002802513483486238,0.0,0.0,0.0,0.0,0.0,0.0,0.0,0.0,0.0
6.498,187,6,498000000,base_footprint,-0.0014745554383527213,0.0035687423144225346,0.38006737352847486,0.9249507453609189,0.0,0.0,0.0,0.0,0.0,0.0,0.0,0.0,0.0,0.0007146950660920853,0.0005529021735718825,0.0863670835749275,0.0,0.0,0.0,0.0,0.0,0.0,0.0,0.0,0.0,-0.018860799424275293,0.006033082751602269,-9.866532103552253e-05,0.0,0.0,0.0,0.0,0.0,0.0,0.0,0.0,0.0
6.532,188,6,532000000,base_footprint,-0.001477352914501482,0.0035677942150695754,0.38093341536960307,0.9245944090938765,0.0,0.0,0.0,0.0,0.0,0.0,0.0,0.0,0.0,0.00045903182030067617,0.0003364693888264712,0.0469737251105237,0.0,0.0,0.0,0.0,0.0,0.0,0.0,0.0,0.0,-0.012128350258437896,0.016206003315536278,-0.00012728973243840113,0.0,0.0,0.0,0.0,0.0,0.0,0.0,0.0,0.0
6.566,189,6,566000000,base_footprint,-0.0014803068280741655,0.003568189911479204,0.3816676033478213,0.9242915758932246,0.0,0.0,0.0,0.0,0.0,0.0,0.0,0.0,0.0,0.0003248735610215846,0.0003260049200106659,0.046509891084211163,0.0,0.0,0.0,0.0,0.0,0.0,0.0,0.0,0.0,-0.010317647094064915,0.0057427907159735255,-0.00022659553317022873,0.0,0.0,0.0,0.0,0.0,0.0,0.0,0.0,0.0
6.6,190,6,600000000,base_footprint,-0.001484030582208947,0.003570250111421986,0.382393691872925,0.9239914043881401,0.0,0.0,0.0,0.0,0.0,0.0,0.0,0.0,0.0,0.00020703698167256465,0.0003247461899473194,0.045971541211040835,0.0,0.0,0.0,0.0,0.0,0.0,0.0,0.0,0.0,-0.010002344042524884,0.005409391181020885,-0.00022561284056545473,0.0,0.0,0.0,0.0,0.0,0.0,0.0,0.0,0.0
6.634,191,6,634000000,base_footprint,-0.0014866317159899199,0.0035747318155336582,0.38249879621506044,0.9239478784610189,0.0,0.0,0.0,0.0,0.0,0.0,0.0,0.0,0.0,-2.6450809014111785e-05,4.869465250091248e-05,-0.0009507196550536517,0.0,0.0,0.0,0.0,0.0,0.0,0.0,0.0,0.0,-0.0013405843160599375,0.01628350215947901,-0.00022431135646137237,0.0,0.0,0.0,0.0,0.0,0.0,0.0,0.0,0.0
6.668,192,6,668000000,base_footprint,-0.0014877512865055216,0.00357750886494659,0.38247356153795314,0.9239583122364907,0.0,0.0,0.0,0.0,0.0,0.0,0.0,0.0,0.0,-4.427034764334044e-05,-1.6136488448255505e-05,-0.0023779794069217993,0.0,0.0,0.0,0.0,0.0,0.0,0.0,0.0,0.0,0.0005575290549322446,-0.0002905543755344008,-0.00010181551378992135,0.0,0.0,0.0,0.0,0.0,0.0,0.0,0.0,0.0
6.702,193,6,702000000,base_footprint,-0.0014889893014826364,0.0035786737721983583,0.3824245218078777,0.9239786042571053,0.0,0.0,0.0,0.0,0.0,0.0,0.0,0.0,0.0,9.23549036304778e-05,-7.995413503886148e-05,-0.003950918606104548,0.0,0.0,0.0,0.0,0.0,0.0,0.0,0.0,0.0,0.001655242274087582,-0.006476486829925911,0.0002808051007810066,0.0,0.0,0.0,0.0,0.0,0.0,0.0,0.0,0.0
6.736,194,6,736000000,base_footprint,-0.0014894366704961478,0.003580105225257461,0.3819906395609108,0.9241580577546393,0.0,0.0,0.0,0.0,0.0,0.0,0.0,0.0,0.0,9.323566961551546e-05,-0.0004948465891556801,-0.037448168752144975,0.0,0.0,0.0,0.0,0.0,0.0,0.0,0.0,0.0,0.008050710415754567,-0.022487209432079297,0.0003157486309385887,0.0,0.0,0.0,0.0,0.0,0.0,0.0,0.0,0.0
6.77,195,6,770000000,base_footprint,-0.0014825816823205887,0.003575699608532324,0.38138596496689525,0.9244077899120794,0.0,0.0,0.0,0.0,0.0,0.0,0.0,0.0,0.0,0.0001981272944982316,0.00041934606734679076,-0.028510552979724414,0.0,0.0,0.0,0.0,0.0,0.0,0.0,0.0,0.0,-0.0027285673491100736,-0.024836280770201842,0.00024070105530536688,0.0,0.0,0.0,0.0,0.0,0.0,0.0,0.0,0.0
6.804,196,6,804000000,base_footprint,-0.0014833033532577527,0.0035786371659230734,0.3811869573163571,0.9244898575642108,0.0,0.0,0.0,0.0,0.0,0.0,0.0,0.0,0.0,-0.0001009507984397481,0.0001876421471632738,-0.014130383338338185,0.0,0.0,0.0,0.0,0.0,0.0,0.0,0.0,0.0,0.00863836253348679,-0.0067814332484663195,-6.1950151483207e-05,0.0,0.0,0.0,0.0,0.0,0.0,0.0,0.0,0.0
6.838,197,6,838000000,base_footprint,-0.0014831448246779154,0.0035765273088301493,0.38126622081256134,0.9244571799716553,0.0,0.0,0.0,0.0,0.0,0.0,0.0,0.0,0.0,6.453736282154487e-05,0.00041814606146968464,0.05546454343193291,0.0,0.0,0.0,0.0,0.0,0.0,0.0,0.0,0.0,-0.0021254992694067915,-0.29482389372296325,0.0013312176663069066,0.0,0.0,0.0,0.0,0.0,0.0,0.0,0.0,0.0
6.872,198,6,872000000,base_footprint,-0.0014887472833852485,0.0035718161926532595,0.3823792336925983,0.9239973741311571,0.0,0.0,0.0,0.0,0.0,0.0,0.0,0.0,0.0,0.0007841207136488951,0.0003635451730966142,0.07053325701839319,0.0,0.0,0.0,0.0,0.0,0.0,0.0,0.0,0.0,-0.014721688830171642,-0.03976805867810033,0.001020008892573179,0.0,0.0,0.0,0.0,0.0,0.0,0.0,0.0,0.0
6.906,199,6,906000000,base_footprint,-0.0014899593307785319,0.0035628308063282107,0.38348707969431617,0.9235381670322907,0.0,0.0,0.0,0.0,0.0,0.0,0.0,0.0,0.0,0.006324680143431431,0.0012792399751915997,0.07225933399969864,0.0,0.0,0.0,0.0,0.0,0.0,0.0,0.0,0.0,-0.014716979677922803,0.046378986823145146,0.009186692781646884,0.0,0.0,0.0,0.0,0.0,0.0,0.0,0.0,0.0
6.94,200,6,940000000,base_footprint,-0.00149343939901181,0.0035645207090550498,0.3841944796514735,0.9232440986197582,0.0,0.0,0.0,0.0,0.0,0.0,0.0,0.0,0.0,0.00129697037766574,0.00045736752466282417,0.01629173803199171,0.0,0.0,0.0,0.0,0.0,0.0,0.0,0.0,0.0,-0.013941203592997178,0.32117004846421576,-0.009797458644464524,0.0,0.0,0.0,0.0,0.0,0.0,0.0,0.0,0.0
6.974,201,6,974000000,base_footprint,-0.0014920574801860704,0.0035619706123318383,0.3844497916935427,0.9231378249192395,0.0,0.0,0.0,0.0,0.0,0.0,0.0,0.0,0.0,0.00032863347121111515,0.00018611929024010186,0.01607834293257467,0.0,0.0,0.0,0.0,0.0,0.0,0.0,0.0,0.0,-0.0009922455649792653,0.0027519780549512935,-0.001363571699306935,0.0,0.0,0.0,0.0,0.0,0.0,0.0,0.0,0.0
7.008,202,7,8000000,base_footprint,-0.0014910577292789628,0.0035613533279254465,0.384647109907738,0.9230556290651969,0.0,0.0,0.0,0.0,0.0,0.0,0.0,0.0,0.0,0.0001121115044208414,0.00028278963688080925,-0.020779090690335962,0.0,0.0,0.0,0.0,0.0,0.0,0.0,0.0,0.0,-0.0016675481349199958,0.011091659478823429,-0.0008508923673155921,0.0,0.0,0.0,0.0,0.0,0.0,0.0,0.0,0.0
7.042,203,7,42000000,base_footprint,-0.0014906221713430494,0.0035642646291920922,0.38426424568998674,0.9232150689560376,0.0,0.0,0.0,0.0,0.0,0.0,0.0,0.0,0.0,-5.233947207677269e-05,-5.508631290116333e-05,-0.024314810797549456,0.0,0.0,0.0,0.0,0.0,0.0,0.0,0.0,0.0,0.0038705662813018154,0.01078591256525029,0.0003731629473694068,0.0,0.0,0.0,0.0,0.0,0.0,0.0,0.0,0.0
7.076,204,7,76000000,base_footprint,-0.0014899834943654844,0.003568076910857456,0.3838774237737482,0.9233759647582206,0.0,0.0,0.0,0.0,0.0,0.0,0.0,0.0,0.0,-0.00017605839893356418,-6.154862325611012e-05,-0.02491361459875938,0.0,0.0,0.0,0.0,0.0,0.0,0.0,0.0,0.0,0.0055398958931524925,0.005400561513816452,-0.00031928991701936626,0.0,0.0,0.0,0.0,0.0,0.0,0.0,0.0,0.0
7.11,205,7,110000000,base_footprint,-0.0014913910684622048,0.0035727210690068333,0.38351366414755295,0.9235270872199484,0.0,0.0,0.0,0.0,0.0,0.0,0.0,0.0,0.0,0.000244576161884843,-0.0010675089450488768,-0.008164624233083985,0.0,0.0,0.0,0.0,0.0,0.0,0.0,0.0,0.0,0.005750611471317859,0.0011051707666817736,-0.00016774670720431803,0.0,0.0,0.0,0.0,0.0,0.0,0.0,0.0,0.0
7.144,206,7,144000000,base_footprint,-0.0014913988378941361,0.0035760034553416497,0.38335287599979534,0.9235938286884985,0.0,0.0,0.0,0.0,0.0,0.0,0.0,0.0,0.0,-9.222342941088877e-05,-6.083636408314931e-05,-0.01131241801258084,0.0,0.0,0.0,0.0,0.0,0.0,0.0,0.0,0.0,0.002613596096477519,-0.0013139518102328667,-0.00012958250899566505,0.0,0.0,0.0,0.0,0.0,0.0,0.0,0.0,0.0
7.178,207,7,178000000,base_footprint,-0.0014920127776401203,0.003577392145580935,0.3831629490691344,0.9236726317391634,0.0,0.0,0.0,0.0,0.0,0.0,0.0,0.0,0.0,4.0272424169151385e-05,-0.00012475704389377463,-0.012972642551209902,0.0,0.0,0.0,0.0,0.0,0.0,0.0,0.0,0.0,0.003700770332207628,-0.006348066322662716,0.00026569876957156373,0.0,0.0,0.0,0.0,0.0,0.0,0.0,0.0,0.0
7.212,208,7,212000000,base_footprint,-0.0014922461078980991,0.003571204389333937,0.38287087905397105,0.9237937592737909,0.0,0.0,0.0,0.0,0.0,0.0,0.0,0.0,0.0,0.0029019813874817287,0.0015730646578164832,-0.03930188588133823,0.0,0.0,0.0,0.0,0.0,0.0,0.0,0.0,0.0,-0.001617597633156659,-0.005153161764847339,0.005745584006431478,0.0,0.0,0.0,0.0,0.0,0.0,0.0,0.0,0.0
7.246,209,7,246000000,base_footprint,-0.0014849044859532121,0.0035745732240969478,0.3818088801980803,0.9242331937811048,0.0,0.0,0.0,0.0,0.0,0.0,0.0,0.0,0.0,-0.00031266414915506085,-0.00012843290918503864,-0.0666320489378539,0.0,0.0,0.0,0.0,0.0,0.0,0.0,0.0,0.0,0.014234635797857864,-0.01912821002900455,-0.0050285550441428115,0.0,0.0,0.0,0.0,0.0,0.0,0.0,0.0,0.0
7.28,210,7,280000000,base_footprint,-0.0014838613472650272,0.003579352283653303,0.3810678843786519,0.9245389412501293,0.0,0.0,0.0,0.0,0.0,0.0,0.0,0.0,0.0,-0.0006726386646848001,-0.0005235664816043378,-0.04540952642109253,0.0,0.0,0.0,0.0,0.0,0.0,0.0,0.0,0.0,0.015634156047848055,-0.01967022961504554,-0.0018029394042491395,0.0,0.0,0.0,0.0,0.0,0.0,0.0,0.0,0.0
7.314,211,7,314000000,base_footprint,-0.001480874307713396,0.003580228841273824,0.38041470360619045,0.9248078947829886,0.0,0.0,0.0,0.0,0.0,0.0,0.0,0.0,0.0,-0.00010315517181561437,0.0015715265913983042,-0.0019218951826940837,0.0,0.0,0.0,0.0,0.0,0.0,0.0,0.0,0.0,0.00724829359575941,0.00510939361681971,0.0015693150315963746,0.0,0.0,0.0,0.0,0.0,0.0,0.0,0.0,0.0
7.348,212,7,348000000,base_footprint,-0.0014798739502091993,0.003575555286503499,0.38029167649258916,0.9248585114318518,0.0,0.0,0.0,0.0,0.0,0.0,0.0,0.0,0.0,0.0002495653003460453,-0.00016298462037519297,-0.008484280879517369,0.0,0.0,0.0,0.0,0.0,0.0,0.0,0.0,0.0,0.0025756363590433034,0.009824619907128946,2.5943456250460873e-05,0.0,0.0,0.0,0.0,0.0,0.0,0.0,0.0,0.0
7.382,213,7,382000000,base_footprint,-0.0014788810131774234,0.003572658717884295,0.3801594244212976,0.9249128937604353,0.0,0.0,0.0,0.0,0.0,0.0,0.0,0.0,0.0,0.0002680010970919787,-5.6488834324179126e-05,-0.00837957615976745,0.0,0.0,0.0,0.0,0.0,0.0,0.0,0.0,0.0,0.0017912070933462348,0.004262418326186308,8.107298571836022e-05,0.0,0.0,0.0,0.0,0.0,0.0,0.0,0.0,0.0
7.416,214,7,416000000,base_footprint,-0.0014755108016200717,0.003568023569002811,0.38036823702057926,0.9248270629374673,0.0,0.0,0.0,0.0,0.0,0.0,0.0,0.0,0.0,0.0002184738394312363,-0.0004069702602068329,0.06870035805045115,0.0,0.0,0.0,0.0,0.0,0.0,0.0,0.0,0.0,0.0019222816012482965,-0.01943172576509618,-0.000834709075023015,0.0,0.0,0.0,0.0,0.0,0.0,0.0,0.0,0.0
7.45,215,7,450000000,base_footprint,-0.0014796660783374354,0.00356669814177811,0.38142184214889924,0.9243930265771169,0.0,0.0,0.0,0.0,0.0,0.0,0.0,0.0,0.0,0.0005959237862462683,0.0004493125988362739,0.06665496861697301,0.0,0.0,0.0,0.0,0.0,0.0,0.0,0.0,0.0,-0.018806377236782773,0.010868169300732916,0.0008856892531333086,0.0,0.0,0.0,0.0,0.0,0.0,0.0,0.0,0.0
7.484,216,7,484000000,base_footprint,-0.001483100600663545,0.0035654083888801776,0.38246505354756294,0.9239618883322455,0.0,0.0,0.0,0.0,0.0,0.0,0.0,0.0,0.0,0.0005108063275756444,0.0004407116929496957,0.06620796432094796,0.0,0.0,0.0,0.0,0.0,0.0,0.0,0.0,0.0,-0.014526670158028356,0.005813965746929689,-0.000123796682319861,0.0,0.0,0.0,0.0,0.0,0.0,0.0,0.0,0.0
7.518,217,7,518000000,base_footprint,-0.001489681550645295,0.0035668064890306958,0.3835453217194033,0.9235139657457851,0.0,0.0,0.0,0.0,0.0,0.0,0.0,0.0,0.0,-0.00018441090278212461,0.00046610614396778733,0.07891929505479306,0.0,0.0,0.0,0.0,0.0,0.0,0.0,0.0,0.0,-0.013594850383091162,-0.37094188197252953,0.0014025826584490651,0.0,0.0,0.0,0.0,0.0,0.0,0.0,0.0,0.0
7.551,218,7,552000000,base_footprint,-0.0014894562125017572,0.0035619752913283297,0.38434436383147597,0.9231817285037617,0.0,0.0,0.0,0.0,0.0,0.0,0.0,0.0,0.0,-3.96834779697998e-05,0.0009223644705778301,0.02796210592730306,0.0,0.0,0.0,0.0,0.0,0.0,0.0,0.0,0.0,-0.012211131313029942,-0.03769213219601371,0.0018830885052801263,0.0,0.0,0.0,0.0,0.0,0.0,0.0,0.0,0.0
7.586,219,7,586000000,base_footprint,-0.0014966012814723964,0.0035699091282128956,0.3852079631879869,0.9228216734721738,0.0,0.0,0.0,0.0,0.0,0.0,0.0,0.0,0.0,0.0002643747103217737,0.0004048633339720106,0.05783845612190534,0.0,0.0,0.0,0.0,0.0,0.0,0.0,0.0,0.0,-0.00992589546844496,0.08389827666590285,-0.001891112742950027,0.0,0.0,0.0,0.0,0.0,0.0,0.0,0.0,0.0
7.62,220,7,620000000,base_footprint,-0.0014983204219040436,0.0035627848913468104,0.38596133024751805,0.92250686347219,0.0,0.0,0.0,0.0,0.0,0.0,0.0,0.0,0.0,-0.00038578991551319324,9.332725620365937e-05,0.01927365451539091,0.0,0.0,0.0,0.0,0.0,0.0,0.0,0.0,0.0,-0.01443418633275348,0.21389243537518432,-0.001088325837970542,0.0,0.0,0.0,0.0,0.0,0.0,0.0,0.0,0.0
7.654,221,7,654000000,base_footprint,-0.001502011218164503,0.0035739900292326723,0.3857756936652139,0.9225844594045005,0.0,0.0,0.0,0.0,0.0,0.0,0.0,0.0,0.0,-0.00010617837381319378,6.489614143150302e-05,-0.0194436526908615,0.0,0.0,0.0,0.0,0.0,0.0,0.0,0.0,0.0,0.004309676402995212,0.14222430287718818,-0.0008735511243689727,0.0,0.0,0.0,0.0,0.0,0.0,0.0,0.0,0.0
7.688,222,7,688000000,base_footprint,-0.0015039748815183624,0.003568812486363562,0.3853859923781121,0.9227473318930437,0.0,0.0,0.0,0.0,0.0,0.0,0.0,0.0,0.0,7.0273832406739765e-06,-0.000533676654036556,-0.032712172609611956,0.0,0.0,0.0,0.0,0.0,0.0,0.0,0.0,0.0,0.0017595405822480054,-0.03587307611720912,0.0004728975182771697,0.0,0.0,0.0,0.0,0.0,0.0,0.0,0.0,0.0
7.722,223,7,722000000,base_footprint,-0.001505581799790654,0.0035633917284979776,0.384882092004377,0.9229576429702328,0.0,0.0,0.0,0.0,0.0,0.0,0.0,0.0,0.0,-0.001136730137175112,-0.0003266313445118365,-0.010204462439257348,0.0,0.0,0.0,0.0,0.0,0.0,0.0,0.0,0.0,-0.0028018300492773512,-0.0478023332197269,-0.001757996383554541,0.0,0.0,0.0,0.0,0.0,0.0,0.0,0.0,0.0
7.756,224,7,756000000,base_footprint,-0.0015011641475136774,0.0035751533602509564,0.3852668173611162,0.9227970764068822,0.0,0.0,0.0,0.0,0.0,0.0,0.0,0.0,0.0,0.0003633767006356281,0.0009466623865372614,0.055117153965573616,0.0,0.0,0.0,0.0,0.0,0.0,0.0,0.0,0.0,0.008695904214102127,0.038416720164393514,0.002240206756958503,0.0,0.0,0.0,0.0,0.0,0.0,0.0,0.0,0.0
7.79,225,7,790000000,base_footprint,-0.0015052507015707903,0.003569649162247004,0.3861006801907254,0.9224485116153871,0.0,0.0,0.0,0.0,0.0,0.0,0.0,0.0,0.0,0.0005325240899540631,0.0003812501849540683,0.05264432403271841,0.0,0.0,0.0,0.0,0.0,0.0,0.0,0.0,0.0,-0.016880763714093805,-0.004385369154445028,-3.0288706126084693e-05,0.0,0.0,0.0,0.0,0.0,0.0,0.0,0.0,0.0
7.824,226,7,824000000,base_footprint,-0.001506509399287106,0.003565207382530643,0.38674142707394743,0.9221800736898168,0.0,0.0,0.0,0.0,0.0,0.0,0.0,0.0,0.0,0.0011443039098083488,9.388546221939957e-05,0.031160172818105247,0.0,0.0,0.0,0.0,0.0,0.0,0.0,0.0,0.0,-0.008481024207573053,0.006798420117038191,0.0010746040424803082,0.0,0.0,0.0,0.0,0.0,0.0,0.0,0.0,0.0
7.8580000000000005,227,7,858000000,base_footprint,-0.0015069636470666295,0.003561041450833741,0.38723649167457286,0.9219723138792837,0.0,0.0,0.0,0.0,0.0,0.0,0.0,0.0,0.0,0.00043081357379610075,8.819241550994894e-05,0.03169893672799913,0.0,0.0,0.0,0.0,0.0,0.0,0.0,0.0,0.0,-0.005730132372288452,0.002899529392577686,-0.0009643378693837457,0.0,0.0,0.0,0.0,0.0,0.0,0.0,0.0,0.0
7.892,228,7,892000000,base_footprint,-0.0015065544217609291,0.0035577431977646895,0.3877319248887025,0.9217640843400304,0.0,0.0,0.0,0.0,0.0,0.0,0.0,0.0,0.0,0.0004995740605960809,0.0003007774564443632,0.0314735356496271,0.0,0.0,0.0,0.0,0.0,0.0,0.0,0.0,0.0,-0.006835084062048469,0.005044970853509546,0.00032262821057455144,0.0,0.0,0.0,0.0,0.0,0.0,0.0,0.0,0.0
7.926,229,7,926000000,base_footprint,-0.0015052693584558163,0.003556693055070692,0.38784549263729956,0.9217163109870635,0.0,0.0,0.0,0.0,0.0,0.0,0.0,0.0,0.0,0.00010724244241980588,6.96211733149414e-05,-0.007806463072242006,0.0,0.0,0.0,0.0,0.0,0.0,0.0,0.0,0.0,-0.002298907229881296,0.015983830458804586,-0.0003450565636492276,0.0,0.0,0.0,0.0,0.0,0.0,0.0,0.0,0.0
7.96,230,7,960000000,base_footprint,-0.0015038634686818922,0.003557162773571404,0.38771982644428504,0.9217691799847093,0.0,0.0,0.0,0.0,0.0,0.0,0.0,0.0,0.0,0.0001131699301287451,4.857607085654402e-05,-0.008220096334151794,0.0,0.0,0.0,0.0,0.0,0.0,0.0,0.0,0.0,0.0016282196417010712,0.005783368607036791,-0.00012066187260369273,0.0,0.0,0.0,0.0,0.0,0.0,0.0,0.0,0.0
7.994,231,7,994000000,base_footprint,-0.0015032996929140077,0.0035591048177954967,0.3875862959957578,0.9218253283671578,0.0,0.0,0.0,0.0,0.0,0.0,0.0,0.0,0.0,1.7916194532937636e-05,4.018974429811869e-05,-0.008744472892402167,0.0,0.0,0.0,0.0,0.0,0.0,0.0,0.0,0.0,0.0018615961385903255,0.005711160608283,-0.00023885174031642784,0.0,0.0,0.0,0.0,0.0,0.0,0.0,0.0,0.0
8.028,232,8,28000000,base_footprint,-0.001506086714405218,0.0035609022576970845,0.38820523912153176,0.9215648343966443,0.0,0.0,0.0,0.0,0.0,0.0,0.0,0.0,0.0,0.00030377917644269786,0.0004909861299783273,0.06633429431813322,0.0,0.0,0.0,0.0,0.0,0.0,0.0,0.0,0.0,-0.0071610936547233574,-0.014855223337766857,-0.00013268399587166926,0.0,0.0,0.0,0.0,0.0,0.0,0.0,0.0,0.0
8.062,233,8,62000000,base_footprint,-0.0015120177597906929,0.003563528631615281,0.3892354242640878,0.9211301751456964,0.0,0.0,0.0,0.0,0.0,0.0,0.0,0.0,0.0,0.0002476708071101688,0.00044164251528926754,0.06522405543713129,0.0,0.0,0.0,0.0,0.0,0.0,0.0,0.0,0.0,-0.014323484498478839,0.003808665354374856,-0.00016916991716182258,0.0,0.0,0.0,0.0,0.0,0.0,0.0,0.0,0.0
8.096,234,8,96000000,base_footprint,-0.0015178216989351447,0.0035652813046207505,0.39024253801881126,0.9207039407470493,0.0,0.0,0.0,0.0,0.0,0.0,0.0,0.0,0.0,0.00029024736199441826,0.00031259854079036787,0.06334195853759758,0.0,0.0,0.0,0.0,0.0,0.0,0.0,0.0,0.0,-0.013199095806890397,-0.0009546344425569826,-6.031553003586791e-07,0.0,0.0,0.0,0.0,0.0,0.0,0.0,0.0,0.0
8.13,235,8,130000000,base_footprint,-0.001517732333397388,0.0035447436267855986,0.3916298416175667,0.920114774599226,0.0,0.0,0.0,0.0,0.0,0.0,0.0,0.0,0.0,0.000673969767561069,0.0006413942378475882,0.12786276862636864,0.0,0.0,0.0,0.0,0.0,0.0,0.0,0.0,0.0,-0.009530381898615173,-0.3140194637743773,0.0025237600103727355,0.0,0.0,0.0,0.0,0.0,0.0,0.0,0.0,0.0
8.164,236,8,164000000,base_footprint,-0.0015255729815684372,0.0035613611795619286,0.3933050815531639,0.9193998597770646,0.0,0.0,0.0,0.0,0.0,0.0,0.0,0.0,0.0,-0.0008745218363050589,-0.0004307040045760445,0.06268303303664655,0.0,0.0,0.0,0.0,0.0,0.0,0.0,0.0,0.0,-0.02131801975098884,-0.007947547518111223,-0.0023042120552002306,0.0,0.0,0.0,0.0,0.0,0.0,0.0,0.0,0.0
8.198,237,8,198000000,base_footprint,-0.0015352357654753212,0.00355804371011526,0.3942046094971965,0.9190145315647975,0.0,0.0,0.0,0.0,0.0,0.0,0.0,0.0,0.0,0.00023991158261012688,0.0007502945572947848,0.05986180412815813,0.0,0.0,0.0,0.0,0.0,0.0,0.0,0.0,0.0,-0.007974926396521174,-0.051639063988388384,0.0021941056456026183,0.0,0.0,0.0,0.0,0.0,0.0,0.0,0.0,0.0
8.232,238,8,232000000,base_footprint,-0.001531366208464924,0.003556626237989005,0.3948973099577439,0.9187171054875796,0.0,0.0,0.0,0.0,0.0,0.0,0.0,0.0,0.0,-0.0003843880038307473,0.0001936513894840039,0.04763750276938658,0.0,0.0,0.0,0.0,0.0,0.0,0.0,0.0,0.0,-0.004280609492324283,-0.07828658473465272,-0.0007181395608725705,0.0,0.0,0.0,0.0,0.0,0.0,0.0,0.0,0.0
8.266,239,8,266000000,base_footprint,-0.00153348170019887,0.0035512851995867863,0.3954971476966289,0.9184590589520782,0.0,0.0,0.0,0.0,0.0,0.0,0.0,0.0,0.0,0.00022156904362204507,0.00024110902509569225,0.027367213183845617,0.0,0.0,0.0,0.0,0.0,0.0,0.0,0.0,0.0,-0.01519640699758368,0.04084204275755988,0.0013661538917677418,0.0,0.0,0.0,0.0,0.0,0.0,0.0,0.0,0.0
8.3,240,8,300000000,base_footprint,-0.0015397321391577238,0.003551295912980822,0.3957016109892877,0.9183709776461584,0.0,0.0,0.0,0.0,0.0,0.0,0.0,0.0,0.0,0.0004979234704946683,8.762478116586887e-05,0.012145680124333456,0.0,0.0,0.0,0.0,0.0,0.0,0.0,0.0,0.0,-0.00316972615464731,0.04417232903951859,0.0003869428024073517,0.0,0.0,0.0,0.0,0.0,0.0,0.0,0.0,0.0
8.334,241,8,334000000,base_footprint,-0.00154061043122627,0.0035490874356197233,0.3962384257829247,0.9181394994394607,0.0,0.0,0.0,0.0,0.0,0.0,0.0,0.0,0.0,-0.0004535904753239089,-0.0003973413293941874,0.05261991871345008,0.0,0.0,0.0,0.0,0.0,0.0,0.0,0.0,0.0,-0.026638400310753194,0.34150502102996905,-0.0035432574761392866,0.0,0.0,0.0,0.0,0.0,0.0,0.0,0.0,0.0
8.368,242,8,368000000,base_footprint,-0.001542651350280494,0.003543710602650594,0.39708290566410953,0.9177746065191192,0.0,0.0,0.0,0.0,0.0,0.0,0.0,0.0,0.0,0.0005258253706202485,0.0002934329229959393,0.054240852636885814,0.0,0.0,0.0,0.0,0.0,0.0,0.0,0.0,0.0,-0.012160695062069064,-0.0038441815432876483,0.0015961901810153493,0.0,0.0,0.0,0.0,0.0,0.0,0.0,0.0,0.0
8.401,243,8,402000000,base_footprint,-0.001543502941109235,0.0035406317997682913,0.3979250148288057,0.9174098125149,0.0,0.0,0.0,0.0,0.0,0.0,0.0,0.0,0.0,0.000551336420401441,0.00043460340203709327,0.053772619024832054,0.0,0.0,0.0,0.0,0.0,0.0,0.0,0.0,0.0,-0.011996515800831229,0.004825887867775573,0.0001987850225084656,0.0,0.0,0.0,0.0,0.0,0.0,0.0,0.0,0.0
8.436,244,8,436000000,base_footprint,-0.001544789425544724,0.0035384757797732903,0.3987818947356942,0.9170376727516687,0.0,0.0,0.0,0.0,0.0,0.0,0.0,0.0,0.0,1.4182552100177222e-05,0.00010646363405050161,0.059241503827704524,0.0,0.0,0.0,0.0,0.0,0.0,0.0,0.0,0.0,0.037446685007421515,-0.6781584418165725,0.002881220898917384,0.0,0.0,0.0,0.0,0.0,0.0,0.0,0.0,0.0
8.47,245,8,470000000,base_footprint,-0.0015482603024776927,0.0035388400661595515,0.3995646017512894,0.9166969011229151,0.0,0.0,0.0,0.0,0.0,0.0,0.0,0.0,0.0,0.0002702177684609221,0.0003966612354375698,0.044637510511689765,0.0,0.0,0.0,0.0,0.0,0.0,0.0,0.0,0.0,-0.037629370625958294,0.35054799540865406,-0.0014757743740066009,0.0,0.0,0.0,0.0,0.0,0.0,0.0,0.0,0.0
8.504,246,8,504000000,base_footprint,-0.0015511614316876796,0.0035400670805150265,0.4002869092206592,0.9163817174790483,0.0,0.0,0.0,0.0,0.0,0.0,0.0,0.0,0.0,0.0002564860475293703,0.0003687853353203509,0.046223666125935134,0.0,0.0,0.0,0.0,0.0,0.0,0.0,0.0,0.0,-0.009794650646995778,0.0029345275012257308,-5.522468672901835e-05,0.0,0.0,0.0,0.0,0.0,0.0,0.0,0.0,0.0
8.538,247,8,538000000,base_footprint,-0.001552942702564047,0.0035440339439981737,0.4003887566225329,0.9163372041790231,0.0,0.0,0.0,0.0,0.0,0.0,0.0,0.0,0.0,-0.0003855364963477303,4.0602700196674325e-05,-0.015206651077600023,0.0,0.0,0.0,0.0,0.0,0.0,0.0,0.0,0.0,-0.030378334321262232,0.3614511093742068,-0.0027535853735145216,0.0,0.0,0.0,0.0,0.0,0.0,0.0,0.0,0.0
8.572,248,8,572000000,base_footprint,-0.0015542719647209087,0.003547638052166626,0.40014040615436774,0.9164456633459118,0.0,0.0,0.0,0.0,0.0,0.0,0.0,0.0,0.0,-0.00012524947403227008,-0.00010151083981424614,-0.016910620431512043,0.0,0.0,0.0,0.0,0.0,0.0,0.0,0.0,0.0,0.004551434552679691,-0.0003027312928818994,0.0004256800214876619,0.0,0.0,0.0,0.0,0.0,0.0,0.0,0.0,0.0
8.606,249,8,606000000,base_footprint,-0.0015559309297987147,0.0035495660686215187,0.3998616395348297,0.9165673182522842,0.0,0.0,0.0,0.0,0.0,0.0,0.0,0.0,0.0,0.0011059385039716785,-0.001613917308827404,-0.012813003103827617,0.0,0.0,0.0,0.0,0.0,0.0,0.0,0.0,0.0,0.005311952767261433,-0.025580495447494776,0.007705671309121708,0.0,0.0,0.0,0.0,0.0,0.0,0.0,0.0,0.0
8.64,250,8,640000000,base_footprint,-0.0015515412493971297,0.0035396084543548776,0.40046874340252464,0.9163022696956197,0.0,0.0,0.0,0.0,0.0,0.0,0.0,0.0,0.0,-0.0025179191190144576,-0.0025885844626901923,0.07630035941184422,0.0,0.0,0.0,0.0,0.0,0.0,0.0,0.0,0.0,0.021767614716163897,-0.3253509894903013,-0.016629892085327728,0.0,0.0,0.0,0.0,0.0,0.0,0.0,0.0,0.0
8.674,251,8,674000000,base_footprint,-0.001562517819942515,0.0035416307342607347,0.4006169732906986,0.9162374452625283,0.0,0.0,0.0,0.0,0.0,0.0,0.0,0.0,0.0,-0.00021861856733135617,-0.0014448526297076495,-0.040863118018740534,0.0,0.0,0.0,0.0,0.0,0.0,0.0,0.0,0.0,-0.00763685712325347,0.014308985416247923,0.009989111170444608,0.0,0.0,0.0,0.0,0.0,0.0,0.0,0.0,0.0
8.708,252,8,708000000,base_footprint,-0.0015583272695672086,0.0035418976082004705,0.4001155432107587,0.9164565339712589,0.0,0.0,0.0,0.0,0.0,0.0,0.0,0.0,0.0,0.00351719278054515,-0.0018223436703648692,-0.0113598052461305,0.0,0.0,0.0,0.0,0.0,0.0,0.0,0.0,0.0,-0.0036421862481404443,-0.03491867149668203,0.0076966810981799845,0.0,0.0,0.0,0.0,0.0,0.0,0.0,0.0,0.0
8.742,253,8,742000000,base_footprint,-0.0015494913924798917,0.003529195296610331,0.40072757973001916,0.9161891457012051,0.0,0.0,0.0,0.0,0.0,0.0,0.0,0.0,0.0,-0.0006841181852877878,0.0010866437631204314,0.08463228383099683,0.0,0.0,0.0,0.0,0.0,0.0,0.0,0.0,0.0,-0.0066379164004002345,0.13367434590169688,-0.011319711520165258,0.0,0.0,0.0,0.0,0.0,0.0,0.0,0.0,0.0
8.776,254,8,776000000,base_footprint,-0.001552415838738376,0.0035355925554835317,0.4018847189419661,0.915682129492152,0.0,0.0,0.0,0.0,0.0,0.0,0.0,0.0,0.0,-0.0009680266750059167,-0.0005843901368147899,0.04940619107354616,0.0,0.0,0.0,0.0,0.0,0.0,0.0,0.0,0.0,-0.025724418324159445,0.13273016351290595,0.002117847033505606,0.0,0.0,0.0,0.0,0.0,0.0,0.0,0.0,0.0
8.81,255,8,810000000,base_footprint,-0.0015611111593601713,0.003534656730552998,0.40230060842069926,0.9154994754766823,0.0,0.0,0.0,0.0,0.0,0.0,0.0,0.0,0.0,0.002684571568771433,-0.002091953952134824,-0.01086859838244007,0.0,0.0,0.0,0.0,0.0,0.0,0.0,0.0,0.0,-0.008471449350957632,0.05991718724853391,0.0027662474702522828,0.0,0.0,0.0,0.0,0.0,0.0,0.0,0.0,0.0
8.844,256,8,844000000,base_footprint,-0.0015620222269473038,0.0035360364357195804,0.40210364046857555,0.9155859975200618,0.0,0.0,0.0,0.0,0.0,0.0,0.0,0.0,0.0,0.00017942637081788389,-0.0001377334976933865,-0.012022139875202113,0.0,0.0,0.0,0.0,0.0,0.0,0.0,0.0,0.0,-0.0019032425597416834,0.01412501691374699,-0.001308396311928742,0.0,0.0,0.0,0.0,0.0,0.0,0.0,0.0,0.0
8.878,257,8,878000000,base_footprint,-0.0015594445547835866,0.0035346717096058885,0.40191078911472405,0.9156706786950022,0.0,0.0,0.0,0.0,0.0,0.0,0.0,0.0,0.0,0.00023434952762908164,7.7501367460283e-05,-0.012637244662613614,0.0,0.0,0.0,0.0,0.0,0.0,0.0,0.0,0.0,0.0021733727170041893,0.00598690497548186,0.0002660587309241252,0.0,0.0,0.0,0.0,0.0,0.0,0.0,0.0,0.0
8.912,258,8,912000000,base_footprint,-0.00156335492107376,0.003545236192929755,0.40171237234210694,0.915757695642796,0.0,0.0,0.0,0.0,0.0,0.0,0.0,0.0,0.0,0.0016760776272461645,0.0004914157608806921,-0.011081145670260556,0.0,0.0,0.0,0.0,0.0,0.0,0.0,0.0,0.0,0.01921326263657988,-0.21990630696157185,0.002668238982544676,0.0,0.0,0.0,0.0,0.0,0.0,0.0,0.0,0.0
8.946,259,8,946000000,base_footprint,-0.00155349661792691,0.003529438519522121,0.40168169986868835,0.9157712278198066,0.0,0.0,0.0,0.0,0.0,0.0,0.0,0.0,0.0,-0.0022169265075326398,-0.00027044354220689493,0.002170382714134392,0.0,0.0,0.0,0.0,0.0,0.0,0.0,0.0,0.0,0.0519863888679839,-0.5593370176617877,-0.0014231640089712597,0.0,0.0,0.0,0.0,0.0,0.0,0.0,0.0,0.0
8.98,260,8,980000000,base_footprint,-0.0015557625988395281,0.003536626674388065,0.4014694132122234,0.9158642815011048,0.0,0.0,0.0,0.0,0.0,0.0,0.0,0.0,0.0,-0.0004084623854434358,0.0002656727766800731,-0.019181797702874624,0.0,0.0,0.0,0.0,0.0,0.0,0.0,0.0,0.0,-0.0388412972491228,0.45987052847452514,-0.0007350517044184743,0.0,0.0,0.0,0.0,0.0,0.0,0.0,0.0,0.0
9.013,261,9,14000000,base_footprint,-0.0015585571811245343,0.0035375193164667025,0.40146584371735433,0.9158658379833324,0.0,0.0,0.0,0.0,0.0,0.0,0.0,0.0,0.0,0.0009713327991345507,-0.0010798149109180217,0.08324272259268442,0.0,0.0,0.0,0.0,0.0,0.0,0.0,0.0,0.0,0.005110074399630307,-0.027863880536133652,0.0013008293016121741,0.0,0.0,0.0,0.0,0.0,0.0,0.0,0.0,0.0
9.048,262,9,48000000,base_footprint,-0.001562978943843483,0.0035418340875977106,0.40276197496776334,0.9152965661621286,0.0,0.0,0.0,0.0,0.0,0.0,0.0,0.0,0.0,0.0003429624434848694,0.0005089001467303935,0.08186216714446097,0.0,0.0,0.0,0.0,0.0,0.0,0.0,0.0,0.0,-0.018478811295551466,0.004701280794818133,-0.0009162344500533477,0.0,0.0,0.0,0.0,0.0,0.0,0.0,0.0,0.0
9.082,263,9,82000000,base_footprint,-0.0015695822357417056,0.0035421934140446288,0.4040172611628425,0.914743156279345,0.0,0.0,0.0,0.0,0.0,0.0,0.0,0.0,0.0,0.0004253912784986341,0.00040588408308802357,0.07949294292154582,0.0,0.0,0.0,0.0,0.0,0.0,0.0,0.0,0.0,-0.01571416230410321,-0.0025632533579241557,0.00012776618736941165,0.0,0.0,0.0,0.0,0.0,0.0,0.0,0.0,0.0
9.116,264,9,116000000,base_footprint,-0.0015823304011355747,0.0035269275480666303,0.40524372933898056,0.9142005123844591,0.0,0.0,0.0,0.0,0.0,0.0,0.0,0.0,0.0,-0.0018256926732372562,-0.0003317121696623283,0.07660762876383526,0.0,0.0,0.0,0.0,0.0,0.0,0.0,0.0,0.0,-0.011202288960123687,-0.06891171055040245,-0.001239245027981889,0.0,0.0,0.0,0.0,0.0,0.0,0.0,0.0,0.0
9.15,265,9,150000000,base_footprint,-0.001578579921912089,0.003530471683685443,0.4062670915781551,0.9137461869445737,0.0,0.0,0.0,0.0,0.0,0.0,0.0,0.0,0.0,-0.0019628612883594017,-0.0004754252278565148,0.07526056549466421,0.0,0.0,0.0,0.0,0.0,0.0,0.0,0.0,0.0,0.0013067343444671461,-0.1356603569746061,-0.0011176252145732783,0.0,0.0,0.0,0.0,0.0,0.0,0.0,0.0,0.0
9.184,266,9,184000000,base_footprint,-0.001590958701855529,0.003530314616047072,0.4072532129916452,0.9133070821126389,0.0,0.0,0.0,0.0,0.0,0.0,0.0,0.0,0.0,-5.552767223280218e-05,0.0011158929232024536,0.044859404832037694,0.0,0.0,0.0,0.0,0.0,0.0,0.0,0.0,0.0,0.005877701985359016,-0.17446853512995017,0.004048851746040494,0.0,0.0,0.0,0.0,0.0,0.0,0.0,0.0,0.0
9.218,267,9,218000000,base_footprint,-0.0015840242129231516,0.0035248300857648003,0.4079571717055278,0.912992887428038,0.0,0.0,0.0,0.0,0.0,0.0,0.0,0.0,0.0,-0.00030187513177337266,0.0009890098098765327,0.024782644386350406,0.0,0.0,0.0,0.0,0.0,0.0,0.0,0.0,0.0,-0.00961427502758606,-0.07045354319497918,0.000742175057058517,0.0,0.0,0.0,0.0,0.0,0.0,0.0,0.0,0.0
9.252,268,9,252000000,base_footprint,-0.001583991846833146,0.0035287590286803418,0.4084572466141035,0.9127692569965161,0.0,0.0,0.0,0.0,0.0,0.0,0.0,0.0,0.0,0.0002535013419224098,-0.0007976393061002391,0.02519305791850613,0.0,0.0,0.0,0.0,0.0,0.0,0.0,0.0,0.0,-0.002555063083765733,0.023921419245330304,-0.0016068785980722792,0.0,0.0,0.0,0.0,0.0,0.0,0.0,0.0,0.0
9.286,269,9,286000000,base_footprint,-0.001592123472017978,0.0035307804268417337,0.40858742606889475,0.9127109695795393,0.0,0.0,0.0,0.0,0.0,0.0,0.0,0.0,0.0,0.0006353608079061775,0.00014505767797963904,-0.001310837548664547,0.0,0.0,0.0,0.0,0.0,0.0,0.0,0.0,0.0,-0.013053239762931625,0.07480331626186704,0.0027838793508097558,0.0,0.0,0.0,0.0,0.0,0.0,0.0,0.0,0.0
9.32,270,9,320000000,base_footprint,-0.0015794794146172337,0.0035155431570460904,0.4087267534541222,0.9126486658139281,0.0,0.0,0.0,0.0,0.0,0.0,0.0,0.0,0.0,0.0009552225777346776,0.0004497945262016152,0.0324473130884633,0.0,0.0,0.0,0.0,0.0,0.0,0.0,0.0,0.0,-0.023875946885270657,0.22154180009341334,-0.001084403724459807,0.0,0.0,0.0,0.0,0.0,0.0,0.0,0.0,0.0
9.354,271,9,354000000,base_footprint,-0.0015826852690982796,0.003517657804132601,0.40923658588543116,0.9124201542950201,0.0,0.0,0.0,0.0,0.0,0.0,0.0,0.0,0.0,-0.0005228805010027463,-0.002159784012837258,-0.00017190849419564314,0.0,0.0,0.0,0.0,0.0,0.0,0.0,0.0,0.0,-0.05580750593470678,0.43922702581145484,-0.006614033325500145,0.0,0.0,0.0,0.0,0.0,0.0,0.0,0.0,0.0
9.388,272,9,388000000,base_footprint,-0.0015874597853532976,0.0035220558813057507,0.409149958805747,0.9124589778741039,0.0,0.0,0.0,0.0,0.0,0.0,0.0,0.0,0.0,0.0002258350848951255,0.00011722280893287653,-0.005699921202728067,0.0,0.0,0.0,0.0,0.0,0.0,0.0,0.0,0.0,-0.0034067982798477326,0.022599213739940782,0.003618377868765098,0.0,0.0,0.0,0.0,0.0,0.0,0.0,0.0,0.0
9.421,273,9,422000000,base_footprint,-0.0015850061960360799,0.0035220963784587484,0.4089372242905912,0.9125543431390628,0.0,0.0,0.0,0.0,0.0,0.0,0.0,0.0,0.0,3.9962362996700265e-05,1.394923577702415e-05,-0.02158385795635249,0.0,0.0,0.0,0.0,0.0,0.0,0.0,0.0,0.0,0.0014629206920086222,0.010129663290868668,-0.00026383520953211163,0.0,0.0,0.0,0.0,0.0,0.0,0.0,0.0,0.0
9.456,274,9,456000000,base_footprint,-0.001583018936565131,0.0035237369383809276,0.4085981433171981,0.9127062148395693,0.0,0.0,0.0,0.0,0.0,0.0,0.0,0.0,0.0,-7.4324131939437e-06,-1.3290228806838046e-05,-0.022101211901553106,0.0,0.0,0.0,0.0,0.0,0.0,0.0,0.0,0.0,0.0043841206983828845,0.006254156874640652,-0.00020209087332172723,0.0,0.0,0.0,0.0,0.0,0.0,0.0,0.0,0.0
9.49,275,9,490000000,base_footprint,-0.0015818551041264616,0.0035268838635955473,0.40824894045598753,0.912862454831617,0.0,0.0,0.0,0.0,0.0,0.0,0.0,0.0,0.0,-0.00011616540851356608,-2.5340610184611654e-05,-0.02280798667035385,0.0,0.0,0.0,0.0,0.0,0.0,0.0,0.0,0.0,0.0044412333128583635,0.006027327823500142,-0.0002842682366851066,0.0,0.0,0.0,0.0,0.0,0.0,0.0,0.0,0.0
9.524000000000001,276,9,524000000,base_footprint,-0.0015808764787975335,0.003531980010903615,0.4076879086413162,0.9131131337870632,0.0,0.0,0.0,0.0,0.0,0.0,0.0,0.0,0.0,-0.0006218919691042396,-0.00024021351216448609,-0.04674108037750349,0.0,0.0,0.0,0.0,0.0,0.0,0.0,0.0,0.0,0.006233390873542723,0.010995787176827698,-0.0007524829663817828,0.0,0.0,0.0,0.0,0.0,0.0,0.0,0.0,0.0
9.558,277,9,558000000,base_footprint,-0.0015805097635161378,0.0035363300366107017,0.40694852440477197,0.9134428799019336,0.0,0.0,0.0,0.0,0.0,0.0,0.0,0.0,0.0,-0.00027907854882062684,-0.00029072041219600455,-0.048645814096347724,0.0,0.0,0.0,0.0,0.0,0.0,0.0,0.0,0.0,0.011168295401734555,0.0023677222126424944,0.0002049505532449191,0.0,0.0,0.0,0.0,0.0,0.0,0.0,0.0,0.0
9.592,278,9,592000000,base_footprint,-0.0015789999249727943,0.0035386908986245373,0.40617241678935584,0.9137882425734394,0.0,0.0,0.0,0.0,0.0,0.0,0.0,0.0,0.0,-0.00017950689126861665,-0.0003586410187318011,-0.05147263147754773,0.0,0.0,0.0,0.0,0.0,0.0,0.0,0.0,0.0,0.012483781508942814,-0.0021966119180857353,0.00014421493957071616,0.0,0.0,0.0,0.0,0.0,0.0,0.0,0.0,0.0
9.626,279,9,626000000,base_footprint,-0.0015785149681621785,0.0035438448965358247,0.40570139152868456,0.9139974454917986,0.0,0.0,0.0,0.0,0.0,0.0,0.0,0.0,0.0,-0.0035889784164831002,-0.0010738020330956241,0.008452258528747397,0.0,0.0,0.0,0.0,0.0,0.0,0.0,0.0,0.0,0.03134188639327288,-0.18881747568227417,-0.006400617044221638,0.0,0.0,0.0,0.0,0.0,0.0,0.0,0.0,0.0
9.66,280,9,660000000,base_footprint,-0.0015832373765922786,0.003535387203306702,0.405551182040613,0.914064129666072,0.0,0.0,0.0,0.0,0.0,0.0,0.0,0.0,0.0,-0.00032319406622392897,-0.0005653441585603652,-0.043904297189471725,0.0,0.0,0.0,0.0,0.0,0.0,0.0,0.0,0.0,0.007506151536350834,-0.11465174720938762,0.007710874038991258,0.0,0.0,0.0,0.0,0.0,0.0,0.0,0.0,0.0
9.694,281,9,694000000,base_footprint,-0.0015750880295458368,0.003542772639828557,0.4046297175023801,0.9144723941014653,0.0,0.0,0.0,0.0,0.0,0.0,0.0,0.0,0.0,0.0003662808416723477,-0.00047376435645210384,-0.050678666654827564,0.0,0.0,0.0,0.0,0.0,0.0,0.0,0.0,0.0,0.015806890728843247,-0.07374965472925218,0.0014869402284402096,0.0,0.0,0.0,0.0,0.0,0.0,0.0,0.0,0.0
9.728,282,9,728000000,base_footprint,-0.0015648900880748376,0.0035235969879360033,0.404239425620398,0.914645079884744,0.0,0.0,0.0,0.0,0.0,0.0,0.0,0.0,0.0,0.0002918493537206182,6.721388168276531e-05,0.013974541456070818,0.0,0.0,0.0,0.0,0.0,0.0,0.0,0.0,0.0,-0.0037472739138634456,0.11145150293301144,-0.000564262100410878,0.0,0.0,0.0,0.0,0.0,0.0,0.0,0.0,0.0
9.762,283,9,762000000,base_footprint,-0.0015676143491111614,0.003533127182517217,0.40467330665111745,0.9144531559799088,0.0,0.0,0.0,0.0,0.0,0.0,0.0,0.0,0.0,-0.0009650422468307941,-0.0008970110032228338,0.010041583628640919,0.0,0.0,0.0,0.0,0.0,0.0,0.0,0.0,0.0,-0.02232630414607032,0.19426606305374663,-0.003486446400724509,0.0,0.0,0.0,0.0,0.0,0.0,0.0,0.0,0.0
9.796,284,9,796000000,base_footprint,-0.001573800840611625,0.0035334783592709425,0.40465925195221236,0.9144593634990429,0.0,0.0,0.0,0.0,0.0,0.0,0.0,0.0,0.0,0.0003200016232877741,-5.9698322777992644e-05,-0.001042035066662111,0.0,0.0,0.0,0.0,0.0,0.0,0.0,0.0,0.0,-0.0038585496764261037,0.034257319435729607,0.0020095251528892003,0.0,0.0,0.0,0.0,0.0,0.0,0.0,0.0,0.0
9.83,285,9,830000000,base_footprint,-0.001571607210852403,0.0035321583451540803,0.4042631447034249,0.9146345520166496,0.0,0.0,0.0,0.0,0.0,0.0,0.0,0.0,0.0,9.852141598202731e-05,-6.489163667258049e-05,-0.03417925872589253,0.0,0.0,0.0,0.0,0.0,0.0,0.0,0.0,0.0,0.004009320559469239,0.013278167619216996,4.840484573971122e-05,0.0,0.0,0.0,0.0,0.0,0.0,0.0,0.0,0.0
9.864,286,9,864000000,base_footprint,-0.0015668232682407319,0.0035310974236421556,0.40372730898646747,0.9148712130099932,0.0,0.0,0.0,0.0,0.0,0.0,0.0,0.0,0.0,0.00010267182988617388,-5.384355911414496e-05,-0.03467649208393002,0.0,0.0,0.0,0.0,0.0,0.0,0.0,0.0,0.0,0.006815247552900764,0.006231070569323847,-0.00010164442310273272,0.0,0.0,0.0,0.0,0.0,0.0,0.0,0.0,0.0
9.898,287,9,898000000,base_footprint,-0.0015632329309285531,0.003531641553189567,0.4031827149142057,0.915111349620992,0.0,0.0,0.0,0.0,0.0,0.0,0.0,0.0,0.0,1.1220335648310125e-05,-8.458605022016518e-05,-0.03524589543703822,0.0,0.0,0.0,0.0,0.0,0.0,0.0,0.0,0.0,0.007185256445736523,0.006446699636325768,-0.0002561546031864719,0.0,0.0,0.0,0.0,0.0,0.0,0.0,0.0,0.0
9.932,288,9,932000000,base_footprint,-0.0015619819325428796,0.003532649411253631,0.40265441742423874,0.9153439248333528,0.0,0.0,0.0,0.0,0.0,0.0,0.0,0.0,0.0,0.00016213109804613857,0.0005374288622889856,-0.06157170787689463,0.0,0.0,0.0,0.0,0.0,0.0,0.0,0.0,0.0,0.06713625606160109,-0.6718038614922317,0.002487978012619807,0.0,0.0,0.0,0.0,0.0,0.0,0.0,0.0,0.0
9.966,289,9,966000000,base_footprint,-0.0015574946900697214,0.0035359996644650175,0.4016852111266443,0.9157696555787413,0.0,0.0,0.0,0.0,0.0,0.0,0.0,0.0,0.0,-0.0011524619215628627,0.0002175667524313266,-0.04230074713800005,0.0,0.0,0.0,0.0,0.0,0.0,0.0,0.0,0.0,-0.016774387121703732,0.34268882730778916,-0.002533375569428897,0.0,0.0,0.0,0.0,0.0,0.0,0.0,0.0,0.0
10.0,290,10,0,base_footprint,-0.0015559087411075262,0.0035419919021482376,0.4010337922419399,0.9160550916410013,0.0,0.0,0.0,0.0,0.0,0.0,0.0,0.0,0.0,-0.00028561415961423167,-0.00016045662769700652,-0.042010305594786856,0.0,0.0,0.0,0.0,0.0,0.0,0.0,0.0,0.0,0.007969305726935449,0.008827036933571083,0.0009884779621566287,0.0,0.0,0.0,0.0,0.0,0.0,0.0,0.0,0.0
10.034,291,10,34000000,base_footprint,-0.0015559788684487705,0.0035411582589364534,0.4003632756021029,0.9163483435228661,0.0,0.0,0.0,0.0,0.0,0.0,0.0,0.0,0.0,-0.00010718023793092685,-0.00018830204120197307,-0.009652397744588596,0.0,0.0,0.0,0.0,0.0,0.0,0.0,0.0,0.0,-0.014299896707427942,0.3118724193293823,-0.001682491916477291,0.0,0.0,0.0,0.0,0.0,0.0,0.0,0.0,0.0
10.068,292,10,68000000,base_footprint,-0.0015566904169945278,0.003548485390761491,0.4003293741831984,0.9163631251487949,0.0,0.0,0.0,0.0,0.0,0.0,0.0,0.0,0.0,6.108671001297312e-05,-0.00010096967271762167,-0.003714710154020003,0.0,0.0,0.0,0.0,0.0,0.0,0.0,0.0,0.0,-0.00018772804688384735,0.017366276227606368,-0.0001359480532165771,0.0,0.0,0.0,0.0,0.0,0.0,0.0,0.0,0.0
10.102,293,10,102000000,base_footprint,-0.001558828900347589,0.0035465217330520986,0.4002489070345031,0.9163982783995953,0.0,0.0,0.0,0.0,0.0,0.0,0.0,0.0,0.0,0.00041040017528496986,-0.0004899010597139601,-0.007663605790620731,0.0,0.0,0.0,0.0,0.0,0.0,0.0,0.0,0.0,-0.0007438146717454047,-0.01230515898900015,0.0006471930914667793,0.0,0.0,0.0,0.0,0.0,0.0,0.0,0.0,0.0
10.136,294,10,136000000,base_footprint,-0.0015616577756251305,0.0035409392577314164,0.40059824538030575,0.9162456377917362,0.0,0.0,0.0,0.0,0.0,0.0,0.0,0.0,0.0,-0.0006151678219235996,-0.0006991085745953975,0.03638520478857911,0.0,0.0,0.0,0.0,0.0,0.0,0.0,0.0,0.0,0.01850575461570489,-0.22343845645310229,-0.0008079730200339821,0.0,0.0,0.0,0.0,0.0,0.0,0.0,0.0,0.0
10.17,295,10,170000000,base_footprint,-0.00156663444643641,0.0035508558251672053,0.40094301850093944,0.9160947729327875,0.0,0.0,0.0,0.0,0.0,0.0,0.0,0.0,0.0,-0.0012167726281844783,0.0014360772390138562,0.02759198700696387,0.0,0.0,0.0,0.0,0.0,0.0,0.0,0.0,0.0,0.00125396629070057,-0.1523262791428905,0.0003752005447798474,0.0,0.0,0.0,0.0,0.0,0.0,0.0,0.0,0.0
10.204,296,10,204000000,base_footprint,-0.001566741941608671,0.0035453090442546607,0.40139845196271123,0.9158953318285928,0.0,0.0,0.0,0.0,0.0,0.0,0.0,0.0,0.0,0.000286863622528913,-0.00014999652342156803,0.02369950360483294,0.0,0.0,0.0,0.0,0.0,0.0,0.0,0.0,0.0,-0.005221044632931829,0.0067658542370781045,0.0019665518506398754,0.0,0.0,0.0,0.0,0.0,0.0,0.0,0.0,0.0
10.238,297,10,238000000,base_footprint,-0.0015652483901315631,0.003545255811088166,0.4010001267013764,0.9160698005851908,0.0,0.0,0.0,0.0,0.0,0.0,0.0,0.0,0.0,-0.0003603393513011113,-0.00015709686438567628,-0.03914697128566926,0.0,0.0,0.0,0.0,0.0,0.0,0.0,0.0,0.0,0.0013022174874109116,0.02498391049859724,-0.0002603429649724381,0.0,0.0,0.0,0.0,0.0,0.0,0.0,0.0,0.0
10.272,298,10,272000000,base_footprint,-0.0015608741179591855,0.0035413650641100618,0.40044597271036914,0.9163121986231094,0.0,0.0,0.0,0.0,0.0,0.0,0.0,0.0,0.0,0.0001379875049043508,-0.00031095033573272525,-0.03519798092920006,0.0,0.0,0.0,0.0,0.0,0.0,0.0,0.0,0.0,0.010199560827536766,-0.007223023327209769,0.0006361431989333305,0.0,0.0,0.0,0.0,0.0,0.0,0.0,0.0,0.0
10.306,299,10,306000000,base_footprint,-0.0015547035723288297,0.0035352246867743336,0.3998907148794822,0.9165546908048601,0.0,0.0,0.0,0.0,0.0,0.0,0.0,0.0,0.0,0.00586283418300791,0.0016874439295643143,-0.033946132875674634,0.0,0.0,0.0,0.0,0.0,0.0,0.0,0.0,0.0,0.0028168009455679446,0.049099896099881475,0.009690019812851195,0.0,0.0,0.0,0.0,0.0,0.0,0.0,0.0,0.0
10.34,300,10,340000000,base_footprint,-0.0015541861717190467,0.003536673058169543,0.39985830261635374,0.9165688268088718,0.0,0.0,0.0,0.0,0.0,0.0,0.0,0.0,0.0,0.0005444819639540391,0.0002760930763274562,0.017771325641354817,0.0,0.0,0.0,0.0,0.0,0.0,0.0,0.0,0.0,-0.019344899864891962,0.28825429369706573,-0.011070869763507303,0.0,0.0,0.0,0.0,0.0,0.0,0.0,0.0,0.0
10.374,301,10,374000000,base_footprint,-0.0015535368726064397,0.0035356393451818273,0.40013112190810274,0.9164497646124252,0.0,0.0,0.0,0.0,0.0,0.0,0.0,0.0,0.0,0.00030940657149073475,0.00022407438281814464,0.01736775312940148,0.0,0.0,0.0,0.0,0.0,0.0,0.0,0.0,0.0,-0.004808018825499754,0.00535546972238528,-0.0004109946940003687,0.0,0.0,0.0,0.0,0.0,0.0,0.0,0.0,0.0
10.408,302,10,408000000,base_footprint,-0.0015523922479151844,0.0035355039299771506,0.40034780571409634,0.916355130258012,0.0,0.0,0.0,0.0,0.0,0.0,0.0,0.0,0.0,-0.00018118930341951922,0.0006159997055601772,-0.01940484163245071,0.0,0.0,0.0,0.0,0.0,0.0,0.0,0.0,0.0,-0.0028950247216641594,0.010910082677627593,-0.001211839952979101,0.0,0.0,0.0,0.0,0.0,0.0,0.0,0.0,0.0
10.442,303,10,442000000,base_footprint,-0.0015520442278856,0.0035387053105729763,0.3999980645486259,0.9165078379811015,0.0,0.0,0.0,0.0,0.0,0.0,0.0,0.0,0.0,-6.35943687581195e-05,-1.96665916000458e-05,-0.02227109376612832,0.0,0.0,0.0,0.0,0.0,0.0,0.0,0.0,0.0,0.0029098856424319055,0.010679557332637604,0.0007303366493885282,0.0,0.0,0.0,0.0,0.0,0.0,0.0,0.0,0.0
10.476,304,10,476000000,base_footprint,-0.001551385461213367,0.0035430209306486706,0.3996455653957903,0.9166615854639677,0.0,0.0,0.0,0.0,0.0,0.0,0.0,0.0,0.0,-0.00018744279109127068,-4.169070884465355e-05,-0.02290547573058475,0.0,0.0,0.0,0.0,0.0,0.0,0.0,0.0,0.0,0.004746430763647608,0.00553664566877941,-0.00030771152349518726,0.0,0.0,0.0,0.0,0.0,0.0,0.0,0.0,0.0
10.51,305,10,510000000,base_footprint,-0.0015504712013294816,0.0035403056389715455,0.3993007136168905,0.9168118685859595,0.0,0.0,0.0,0.0,0.0,0.0,0.0,0.0,0.0,0.005893692029079888,-0.00013220814566596755,-0.010810260573034039,0.0,0.0,0.0,0.0,0.0,0.0,0.0,0.0,0.0,0.0098004252941764,-0.10472156004220738,0.008595383589280206,0.0,0.0,0.0,0.0,0.0,0.0,0.0,0.0,0.0
10.546,306,10,544000000,base_footprint,-0.0015558028625697153,0.0035434025717438933,0.3995563549208169,0.9167004652655402,0.0,0.0,0.0,0.0,0.0,0.0,0.0,0.0,0.0,0.0009546828765445053,0.001439370852852825,0.007057170852383707,0.0,0.0,0.0,0.0,0.0,0.0,0.0,0.0,0.0,0.0277767490127713,-0.3712866649536516,-0.002667817766917352,0.0,0.0,0.0,0.0,0.0,0.0,0.0,0.0,0.0
10.578,307,10,578000000,base_footprint,-0.0015554210021192908,0.0035499808461765788,0.3992689741388312,0.916825645688221,0.0,0.0,0.0,0.0,0.0,0.0,0.0,0.0,0.0,7.2344098080528e-05,0.0004752020431782481,-0.026805971023941645,0.0,0.0,0.0,0.0,0.0,0.0,0.0,0.0,0.0,-0.004299917968195226,0.13732152816729148,-0.0037418221982089524,0.0,0.0,0.0,0.0,0.0,0.0,0.0,0.0,0.0
10.611,308,10,612000000,base_footprint,-0.0015475679480619676,0.003541747334810389,0.39877096436066434,0.9170424085297956,0.0,0.0,0.0,0.0,0.0,0.0,0.0,0.0,0.0,-0.0005294761263028333,-1.4362088955133809e-05,-0.02299593504312836,0.0,0.0,0.0,0.0,0.0,0.0,0.0,0.0,0.0,0.007278960102025521,-0.07869177948739446,0.0005115962419299033,0.0,0.0,0.0,0.0,0.0,0.0,0.0,0.0,0.0
10.646,309,10,646000000,base_footprint,-0.0015619657048095731,0.0035398681717426017,0.39898204049885455,0.9169505771609691,0.0,0.0,0.0,0.0,0.0,0.0,0.0,0.0,0.0,0.0005762536629323434,0.0010311580291675014,0.048102669296784556,0.0,0.0,0.0,0.0,0.0,0.0,0.0,0.0,0.0,-0.0036955854919317813,-0.07610155097778101,-0.0005016971442640272,0.0,0.0,0.0,0.0,0.0,0.0,0.0,0.0,0.0
10.68,310,10,680000000,base_footprint,-0.001556511997428212,0.0035487768366560535,0.40029581625717897,0.9163777839626867,0.0,0.0,0.0,0.0,0.0,0.0,0.0,0.0,0.0,0.0015913184371429598,0.0007403719173355738,0.10639332923960475,0.0,0.0,0.0,0.0,0.0,0.0,0.0,0.0,0.0,-0.009279915907578314,0.036142208787716706,0.0024877767156557466,0.0,0.0,0.0,0.0,0.0,0.0,0.0,0.0,0.0
10.713000000000001,311,10,714000000,base_footprint,-0.0015670001632635425,0.0035450712768038254,0.4016641486485962,0.9157788426637345,0.0,0.0,0.0,0.0,0.0,0.0,0.0,0.0,0.0,0.0026021940275772607,-0.00018582134019422638,0.035255047544918094,0.0,0.0,0.0,0.0,0.0,0.0,0.0,0.0,0.0,-0.018718284883485863,-0.07957663326736061,0.0013571910042903944,0.0,0.0,0.0,0.0,0.0,0.0,0.0,0.0,0.0
10.748,312,10,748000000,base_footprint,-0.0015630856785335363,0.00353570995561559,0.4016781337730969,0.9157727514874164,0.0,0.0,0.0,0.0,0.0,0.0,0.0,0.0,0.0,0.001097540018019841,0.003350379796096113,0.06891537066763355,0.0,0.0,0.0,0.0,0.0,0.0,0.0,0.0,0.0,0.018301391038475855,-0.19825408469996714,-0.0007011205216012309,0.0,0.0,0.0,0.0,0.0,0.0,0.0,0.0,0.0
10.782,313,10,782000000,base_footprint,-0.0015668872156466992,0.003535572712516594,0.40286836504642826,0.9152497610132798,0.0,0.0,0.0,0.0,0.0,0.0,0.0,0.0,0.0,0.0006218101176724634,0.00036638592539004963,0.0755187077031651,0.0,0.0,0.0,0.0,0.0,0.0,0.0,0.0,0.0,-0.011875763605823405,-0.0023851016416807334,-0.0007708083941066207,0.0,0.0,0.0,0.0,0.0,0.0,0.0,0.0,0.0
10.816,314,10,816000000,base_footprint,-0.0015632098618162448,0.0035278035900227645,0.40403010693631675,0.9147375490630012,0.0,0.0,0.0,0.0,0.0,0.0,0.0,0.0,0.0,-0.00012435850164110407,0.00042405765077213706,0.058231440947689436,0.0,0.0,0.0,0.0,0.0,0.0,0.0,0.0,0.0,-0.029683925504935003,0.17469626145449713,-0.001034112296792821,0.0,0.0,0.0,0.0,0.0,0.0,0.0,0.0,0.0
10.85,315,10,850000000,base_footprint,-0.0015682544507635,0.003530155698476273,0.4040553392532641,0.9147263860847415,0.0,0.0,0.0,0.0,0.0,0.0,0.0,0.0,0.0,-7.627185272560993e-05,7.1080956296436035e-06,-0.0152465965593218,0.0,0.0,0.0,0.0,0.0,0.0,0.0,0.0,0.0,-0.02024249161269894,0.1959772423982651,-0.0008661658618023954,0.0,0.0,0.0,0.0,0.0,0.0,0.0,0.0,0.0
10.884,316,10,884000000,base_footprint,-0.0015659830910805736,0.0035303165328668374,0.4038137429869692,0.9148330697657308,0.0,0.0,0.0,0.0,0.0,0.0,0.0,0.0,0.0,0.00011552240311922974,2.642441506809982e-05,-0.01573825562190433,0.0,0.0,0.0,0.0,0.0,0.0,0.0,0.0,0.0,0.002271423738637961,0.006018978763645082,0.0001034082595514369,0.0,0.0,0.0,0.0,0.0,0.0,0.0,0.0,0.0
10.918,317,10,918000000,base_footprint,-0.0015644140288323353,0.003531691822456253,0.4035451147900891,0.9149515943975788,0.0,0.0,0.0,0.0,0.0,0.0,0.0,0.0,0.0,4.586195814224431e-05,-1.8862119504896928e-06,-0.019536821530054992,0.0,0.0,0.0,0.0,0.0,0.0,0.0,0.0,0.0,0.0023605695296354864,0.012236044309060721,-0.0002310908604280199,0.0,0.0,0.0,0.0,0.0,0.0,0.0,0.0,0.0
10.952,318,10,952000000,base_footprint,-0.0015613641237591847,0.0035303648081566686,0.403179274212282,0.9151128736456788,0.0,0.0,0.0,0.0,0.0,0.0,0.0,0.0,0.0,-0.0002753267641213292,0.0002923706672017307,-0.028714731004307326,0.0,0.0,0.0,0.0,0.0,0.0,0.0,0.0,0.0,-0.02060495294746635,0.2711137857500291,-0.0010381156392332556,0.0,0.0,0.0,0.0,0.0,0.0,0.0,0.0,0.0
10.986,319,10,986000000,base_footprint,-0.001563747579040774,0.003538762941040239,0.40304413837973957,0.9151723632016482,0.0,0.0,0.0,0.0,0.0,0.0,0.0,0.0,0.0,-0.00017076487570957916,1.5069989838962844e-05,-0.007148364721527657,0.0,0.0,0.0,0.0,0.0,0.0,0.0,0.0,0.0,-0.002477950454163675,0.07010377368408702,-0.001354417052692732,0.0,0.0,0.0,0.0,0.0,0.0,0.0,0.0,0.0
11.02,320,11,20000000,base_footprint,-0.0015656112680857946,0.003542363162850476,0.4029155117160644,0.915228982792373,0.0,0.0,0.0,0.0,0.0,0.0,0.0,0.0,0.0,-0.00013049606062982437,-8.58461979880465e-05,-0.009529767525763502,0.0,0.0,0.0,0.0,0.0,0.0,0.0,0.0,0.0,0.002019071568280374,0.001881581920096625,-0.0001896293245945806,0.0,0.0,0.0,0.0,0.0,0.0,0.0,0.0,0.0
11.054,321,11,54000000,base_footprint,-0.0015662648945201658,0.003544412585597724,0.40275035484882077,0.9153016637277857,0.0,0.0,0.0,0.0,0.0,0.0,0.0,0.0,0.0,-6.563652935952035e-06,-9.883700280511439e-05,-0.011752815099825684,0.0,0.0,0.0,0.0,0.0,0.0,0.0,0.0,0.0,0.003729963994865291,-0.0020492689071324806,0.00023417539380114953,0.0,0.0,0.0,0.0,0.0,0.0,0.0,0.0,0.0
11.088,322,11,88000000,base_footprint,-0.0015684465701449662,0.0035414580008644634,0.4025356669429348,0.9153961081899964,0.0,0.0,0.0,0.0,0.0,0.0,0.0,0.0,0.0,0.0003486929359162742,-0.0006183804743292151,-0.017305651693326138,0.0,0.0,0.0,0.0,0.0,0.0,0.0,0.0,0.0,-0.0003204738585906187,-0.016780487447098945,0.000621532128914186,0.0,0.0,0.0,0.0,0.0,0.0,0.0,0.0,0.0
11.122,323,11,122000000,base_footprint,-0.001563121897910479,0.00353764553681962,0.402170078351204,0.9155568086104622,0.0,0.0,0.0,0.0,0.0,0.0,0.0,0.0,0.0,-0.00028603118051133533,-0.0006261567238069193,-0.023820555394974102,0.0,0.0,0.0,0.0,0.0,0.0,0.0,0.0,0.0,0.02296421666539431,-0.1570341248964248,-0.00039031052343258406,0.0,0.0,0.0,0.0,0.0,0.0,0.0,0.0,0.0
11.156,324,11,156000000,base_footprint,-0.0015686441862413786,0.0035522015724283266,0.4015129462022427,0.9158451153177599,0.0,0.0,0.0,0.0,0.0,0.0,0.0,0.0,0.0,-0.0015652955567490583,0.00021694685807684935,-0.035915566901270166,0.0,0.0,0.0,0.0,0.0,0.0,0.0,0.0,0.0,0.019935345714235705,-0.13401624845430868,-0.0008375951857014187,0.0,0.0,0.0,0.0,0.0,0.0,0.0,0.0,0.0
11.19,325,11,190000000,base_footprint,-0.0015602301286022934,0.003544194585268586,0.40110451309366457,0.9160241120967186,0.0,0.0,0.0,0.0,0.0,0.0,0.0,0.0,0.0,0.00027626073698892937,0.00012633089553006164,-0.007478195862266544,0.0,0.0,0.0,0.0,0.0,0.0,0.0,0.0,0.0,0.009951997039182803,-0.08295157760352666,0.0029721857902576154,0.0,0.0,0.0,0.0,0.0,0.0,0.0,0.0,0.0
11.224,326,11,224000000,base_footprint,-0.0015539615061726801,0.0035296371182043026,0.40110054835985914,0.916025915010526,0.0,0.0,0.0,0.0,0.0,0.0,0.0,0.0,0.0,-0.00011653281483932481,-0.00036330411495499843,0.02501463266011294,0.0,0.0,0.0,0.0,0.0,0.0,0.0,0.0,0.0,-0.0145831296247345,0.20957170511930742,-0.0028228092798991277,0.0,0.0,0.0,0.0,0.0,0.0,0.0,0.0,0.0
11.258,327,11,258000000,base_footprint,-0.0015634707917858,0.0035383808859765402,0.4017383549159839,0.9157463238305618,0.0,0.0,0.0,0.0,0.0,0.0,0.0,0.0,0.0,0.00039590955384574277,0.00014912542349266423,0.04344359381996911,0.0,0.0,0.0,0.0,0.0,0.0,0.0,0.0,0.0,-0.020878985951866207,0.13766093075682148,0.0010539189746000615,0.0,0.0,0.0,0.0,0.0,0.0,0.0,0.0,0.0
11.292,328,11,292000000,base_footprint,-0.0015652449292411878,0.003534929642473259,0.4024128551966837,0.9154501342253369,0.0,0.0,0.0,0.0,0.0,0.0,0.0,0.0,0.0,0.0004902260288117803,0.0002455330456992247,0.04347160677251525,0.0,0.0,0.0,0.0,0.0,0.0,0.0,0.0,0.0,-0.010179359418894456,0.00408693295761973,0.00026305802923874753,0.0,0.0,0.0,0.0,0.0,0.0,0.0,0.0,0.0
