Time,header.seq,header.stamp.secs,header.stamp.nsecs,header.frame_id,orientation.x,orientation.y,orientation.z,orientation.w,orientation_covariance_0,orientation_covariance_1,orientation_covariance_2,orientation_covariance_3,orientation_covariance_4,orientation_covariance_5,orientation_covariance_6,orientation_covariance_7,orientation_covariance_8,angular_velocity.x,angular_velocity.y,angular_velocity.z,angular_velocity_covariance_0,angular_velocity_covariance_1,angular_velocity_covariance_2,angular_velocity_covariance_3,angular_velocity_covariance_4,angular_velocity_covariance_5,angular_velocity_covariance_6,angular_velocity_covariance_7,angular_velocity_covariance_8,linear_acceleration.x,linear_acceleration.y,linear_acceleration.z,linear_acceleration_covariance_0,linear_acceleration_covariance_1,linear_acceleration_covariance_2,linear_acceleration_covariance_3,linear_acceleration_covariance_4,linear_acceleration_covariance_5,linear_acceleration_covariance_6,linear_acceleration_covariance_7,linear_acceleration_covariance_8
0.133,0,0,133000000,base_footprint,0.0016522427699828227,-6.258439694265188e-06,0.9999986339591016,4.620164263945692e-05,0.0,0.0,0.0,0.0,0.0,0.0,0.0,0.0,0.0,-2.0558159804571074e-05,-0.1762001555127249,5.605366858725363e-06,0.0,0.0,0.0,0.0,0.0,0.0,0.0,0.0,0.0,0.00019073100220966572,-1.486812913840793e-06,-0.12438678485685196,0.0,0.0,0.0,0.0,0.0,0.0,0.0,0.0,0.0
0.167,1,0,167000000,base_footprint,0.0008599853310763495,-1.8325788265552144e-05,0.9999996289566576,4.664700588484633e-05,0.0,0.0,0.0,0.0,0.0,0.0,0.0,0.0,0.0,-0.00028345071894225656,0.047584420174021855,2.7191185422406726e-06,0.0,0.0,0.0,0.0,0.0,0.0,0.0,0.0,0.0,-0.000456334613346796,1.9973756960509135e-06,0.004978359254718347,0.0,0.0,0.0,0.0,0.0,0.0,0.0,0.0,0.0
0.201,2,0,201000000,base_footprint,4.886608927679641e-05,-2.3375665677391934e-05,0.9999999974466535,4.660876244976252e-05,0.0,0.0,0.0,0.0,0.0,0.0,0.0,0.0,0.0,-0.0002838260870046163,0.04755724502041572,3.2905447829296882e-06,0.0,0.0,0.0,0.0,0.0,0.0,0.0,0.0,0.0,-0.00021371312271327087,2.6228526040594976e-07,7.747138609954017e-05,0.0,0.0,0.0,0.0,0.0,0.0,0.0,0.0,0.0
0.23500000000000001,3,0,235000000,base_footprint,-0.0010747262650560609,-3.15924700277624e-05,0.9999994208986221,4.655954745280232e-05,0.0,0.0,0.0,0.0,0.0,0.0,0.0,0.0,0.0,-0.0004203630055165956,0.0677613128209201,6.97761155703072e-06,0.0,0.0,0.0,0.0,0.0,0.0,0.0,0.0,0.0,-0.0003782859067324185,9.915884772163236e-08,0.002822580105979383,0.0,0.0,0.0,0.0,0.0,0.0,0.0,0.0,0.0
0.269,4,0,269000000,base_footprint,-0.002228090612255769,-3.9053069364817174e-05,0.999997515961342,4.6456721961733435e-05,0.0,0.0,0.0,0.0,0.0,0.0,0.0,0.0,0.0,-0.00042083122121711573,0.06768432682224959,8.156344214347526e-06,0.0,0.0,0.0,0.0,0.0,0.0,0.0,0.0,0.0,-0.0002952503294074835,3.341821780901748e-07,0.0001509979239668774,0.0,0.0,0.0,0.0,0.0,0.0,0.0,0.0,0.0
0.303,5,0,303000000,base_footprint,-0.003380151910765647,-4.652083860169567e-05,0.9999942851146292,4.6335228554290324e-05,0.0,0.0,0.0,0.0,0.0,0.0,0.0,0.0,0.0,-0.0004213154940763283,0.06760802854054546,9.178705799550294e-06,0.0,0.0,0.0,0.0,0.0,0.0,0.0,0.0,0.0,-0.0002947172439510123,2.987594339519427e-08,0.00014965315183209198,0.0,0.0,0.0,0.0,0.0,0.0,0.0,0.0,0.0
0.338,6,0,337000000,base_footprint,-0.00386348343757142,-6.883293776560881e-06,0.9999925355474302,4.793505519110442e-05,0.0,0.0,0.0,0.0,0.0,0.0,0.0,0.0,0.0,3.3539481664396084e-05,-0.04397051967954095,-0.00012652358783412854,0.0,0.0,0.0,0.0,0.0,0.0,0.0,0.0,0.0,0.0009630513990990354,8.427705343141543e-05,0.1319077375305766,0.0,0.0,0.0,0.0,0.0,0.0,0.0,0.0,0.0
0.371,7,0,371000000,base_footprint,-0.003852667911344962,-6.862650340103321e-06,0.9999925772558577,4.833276959034187e-05,0.0,0.0,0.0,0.0,0.0,0.0,0.0,0.0,0.0,2.578658667047277e-05,0.0001410289004606471,7.756627170323787e-06,0.0,0.0,0.0,0.0,0.0,0.0,0.0,0.0,0.0,-0.0010194812928835365,-7.1010041325282e-05,-0.00036947970566635015,0.0,0.0,0.0,0.0,0.0,0.0,0.0,0.0,0.0
0.405,8,0,405000000,base_footprint,-0.0038531131116769134,-6.875477328009208e-06,0.9999925755465005,4.820739783069954e-05,0.0,0.0,0.0,0.0,0.0,0.0,0.0,0.0,0.0,3.875124951729604e-05,-0.00018393127512648735,9.213634970737895e-06,0.0,0.0,0.0,0.0,0.0,0.0,0.0,0.0,0.0,6.37025146242054e-06,3.0405795702348246e-06,0.0003642298920967287,0.0,0.0,0.0,0.0,0.0,0.0,0.0,0.0,0.0
0.44,9,0,439000000,base_footprint,-0.0038531014672255237,-6.876029277900953e-06,0.9999925755985336,4.805844930141692e-05,0.0,0.0,0.0,0.0,0.0,0.0,0.0,0.0,0.0,3.871105938394103e-05,-0.00018040853463943267,9.786208774643395e-06,0.0,0.0,0.0,0.0,0.0,0.0,0.0,0.0,0.0,-2.398942010607864e-07,1.113067527930373e-06,-4.065459974213273e-06,0.0,0.0,0.0,0.0,0.0,0.0,0.0,0.0,0.0
0.47300000000000003,10,0,473000000,base_footprint,-0.0038531016426142156,-6.876673544927504e-06,0.9999925756051928,4.79054887102462e-05,0.0,0.0,0.0,0.0,0.0,0.0,0.0,0.0,0.0,3.871131658178341e-05,-0.0001804104338848523,9.862494015184986e-06,0.0,0.0,0.0,0.0,0.0,0.0,0.0,0.0,0.0,-2.226083801782338e-08,1.4839654677178693e-07,-9.623704969833736e-10,0.0,0.0,0.0,0.0,0.0,0.0,0.0,0.0,0.0
0.507,11,0,507000000,base_footprint,-0.00385310162715254,-6.877306834675026e-06,0.9999925756125915,4.77519554417699e-05,0.0,0.0,0.0,0.0,0.0,0.0,0.0,0.0,0.0,3.871158792054644e-05,-0.0001804103837204729,9.873628253246303e-06,0.0,0.0,0.0,0.0,0.0,0.0,0.0,0.0,0.0,-3.257098597724181e-09,2.165821146738181e-08,-1.0723811219295561e-09,0.0,0.0,0.0,0.0,0.0,0.0,0.0,0.0,0.0
0.541,12,0,541000000,base_footprint,-0.003853101625193395,-6.87793675201098e-06,0.9999925756199185,4.759833796150976e-05,0.0,0.0,0.0,0.0,0.0,0.0,0.0,0.0,0.0,3.871184071679268e-05,-0.000180410143628557,9.875131907987228e-06,0.0,0.0,0.0,0.0,0.0,0.0,0.0,0.0,0.0,-4.5015428216807687e-10,2.9244922785682214e-09,-3.547421043985494e-10,0.0,0.0,0.0,0.0,0.0,0.0,0.0,0.0,0.0
0.5740000000000001,13,0,575000000,base_footprint,-0.0038531016243613845,-6.87856412666559e-06,0.9999925756272181,4.744470781105767e-05,0.0,0.0,0.0,0.0,0.0,0.0,0.0,0.0,0.0,3.871208321411655e-05,-0.0001804100973900252,9.875248735508686e-06,0.0,0.0,0.0,0.0,0.0,0.0,0.0,0.0,0.0,-4.121538956770211e-11,2.2664502433527376e-10,-2.367245950302998e-11,0.0,0.0,0.0,0.0,0.0,0.0,0.0,0.0,0.0
0.609,14,0,609000000,base_footprint,-0.0038531016236997687,-6.879189229206079e-06,0.9999925756344936,4.729107543233656e-05,0.0,0.0,0.0,0.0,0.0,0.0,0.0,0.0,0.0,3.871231819113972e-05,-0.00018041007002681778,9.875179894741066e-06,0.0,0.0,0.0,0.0,0.0,0.0,0.0,0.0,0.0,1.3362595474138564e-11,-1.3466373172993022e-10,1.2963408679077649e-11,0.0,0.0,0.0,0.0,0.0,0.0,0.0,0.0,0.0
0.643,15,0,643000000,base_footprint,-0.003853101623053839,-6.879812219594534e-06,0.9999925756417455,4.7137442361672296e-05,0.0,0.0,0.0,0.0,0.0,0.0,0.0,0.0,0.0,3.871254614366883e-05,-0.00018041004522889579,9.875098415454144e-06,0.0,0.0,0.0,0.0,0.0,0.0,0.0,0.0,0.0,1.7087034872784818e-11,-1.593819237548065e-10,1.6399215238290028e-11,0.0,0.0,0.0,0.0,0.0,0.0,0.0,0.0,0.0
0.675,16,0,677000000,base_footprint,-0.00385310162240169,-6.880433234318226e-06,0.9999925756489739,4.698380882559895e-05,0.0,0.0,0.0,0.0,0.0,0.0,0.0,0.0,0.0,3.8712767920190115e-05,-0.00018041002043065745,9.875029468583884e-06,0.0,0.0,0.0,0.0,0.0,0.0,0.0,0.0,0.0,1.3406121258693847e-11,-1.3512363501250742e-10,1.5311581635878867e-11,0.0,0.0,0.0,0.0,0.0,0.0,0.0,0.0,0.0
0.7170000000000001,17,0,711000000,base_footprint,-0.0038531016217404792,-6.881052399192571e-06,0.9999925756561787,4.683017485756375e-05,0.0,0.0,0.0,0.0,0.0,0.0,0.0,0.0,0.0,3.871298370077992e-05,-0.00018040999521163082,9.874975704299516e-06,0.0,0.0,0.0,0.0,0.0,0.0,0.0,0.0,0.0,8.947889160289225e-12,-1.0570527247839046e-10,1.3139636732735335e-11,0.0,0.0,0.0,0.0,0.0,0.0,0.0,0.0,0.0
0.747,18,0,745000000,base_footprint,-0.003853101621070478,-6.8816698315315835e-06,0.9999925756633602,4.667654046437331e-05,0.0,0.0,0.0,0.0,0.0,0.0,0.0,0.0,0.0,3.871319394042398e-05,-0.00018040996947295973,9.87493666972265e-06,0.0,0.0,0.0,0.0,0.0,0.0,0.0,0.0,0.0,4.617234253819408e-12,-7.716101487225905e-11,1.1200013316817815e-11,0.0,0.0,0.0,0.0,0.0,0.0,0.0,0.0,0.0
0.779,19,0,779000000,base_footprint,-0.003853101620392425,-6.882285641009931e-06,0.9999925756705178,4.6522905655381526e-05,0.0,0.0,0.0,0.0,0.0,0.0,0.0,0.0,0.0,3.871339910288936e-05,-0.0001804099434204702,9.874911522721577e-06,0.0,0.0,0.0,0.0,0.0,0.0,0.0,0.0,0.0,5.388185689984292e-13,-5.0245856317281454e-11,9.578735086306305e-12,0.0,0.0,0.0,0.0,0.0,0.0,0.0,0.0,0.0
0.812,20,0,813000000,base_footprint,-0.003853101619706453,-6.88289993342888e-06,0.9999925756776522,4.6369270433302064e-05,0.0,0.0,0.0,0.0,0.0,0.0,0.0,0.0,0.0,3.87135992643421e-05,-0.0001804099169654616,9.874899175951064e-06,0.0,0.0,0.0,0.0,0.0,0.0,0.0,0.0,0.0,-3.220497053273954e-12,-2.5442236816654668e-11,7.63550000262424e-12,0.0,0.0,0.0,0.0,0.0,0.0,0.0,0.0,0.0
0.8470000000000001,21,0,847000000,base_footprint,-0.003853101619013008,-6.883512810406641e-06,0.9999925756847627,4.621563480781386e-05,0.0,0.0,0.0,0.0,0.0,0.0,0.0,0.0,0.0,3.871379651077024e-05,-0.0001804098901526574,9.874900191469422e-06,0.0,0.0,0.0,0.0,0.0,0.0,0.0,0.0,0.0,-7.144559449328937e-12,4.8352909400629e-13,6.4057720628070396e-12,0.0,0.0,0.0,0.0,0.0,0.0,0.0,0.0,0.0
0.88,22,0,881000000,base_footprint,-0.0038531016183127346,-6.884124354718723e-06,0.9999925756918498,4.6061998774708614e-05,0.0,0.0,0.0,0.0,0.0,0.0,0.0,0.0,0.0,3.8713989456010425e-05,-0.00018040986301104785,9.874912090454112e-06,0.0,0.0,0.0,0.0,0.0,0.0,0.0,0.0,0.0,-1.0342263334969737e-11,2.1572412435978288e-11,4.955453903020324e-12,0.0,0.0,0.0,0.0,0.0,0.0,0.0,0.0,0.0
0.915,23,0,915000000,base_footprint,-0.0038531016176060508,-6.88473465052002e-06,0.9999925756989135,4.5908362340810454e-05,0.0,0.0,0.0,0.0,0.0,0.0,0.0,0.0,0.0,3.871417844062055e-05,-0.00018040983561695952,9.874934290272395e-06,0.0,0.0,0.0,0.0,0.0,0.0,0.0,0.0,0.0,-1.3366978990409268e-11,4.153383219324254e-11,3.525890127069129e-12,0.0,0.0,0.0,0.0,0.0,0.0,0.0,0.0,0.0
0.9510000000000001,24,0,949000000,base_footprint,-0.0038531016168930677,-6.885343776941131e-06,0.9999925757059536,4.5754725503206396e-05,0.0,0.0,0.0,0.0,0.0,0.0,0.0,0.0,0.0,3.871436365677778e-05,-0.00018040980781031707,9.874967372826105e-06,0.0,0.0,0.0,0.0,0.0,0.0,0.0,0.0,0.0,-1.6566863414039474e-11,6.26284291182577e-11,2.221822243516232e-12,0.0,0.0,0.0,0.0,0.0,0.0,0.0,0.0,0.0
0.9740000000000001,25,0,983000000,base_footprint,-0.0038531016161747885,-6.885951808182553e-06,0.9999925757129701,4.56010882625457e-05,0.0,0.0,0.0,0.0,0.0,0.0,0.0,0.0,0.0,3.871454540612116e-05,-0.00018040977971455822,9.87500976215049e-06,0.0,0.0,0.0,0.0,0.0,0.0,0.0,0.0,0.0,-1.9300629957332285e-11,8.066438032893715e-11,8.2187541977847e-13,0.0,0.0,0.0,0.0,0.0,0.0,0.0,0.0,0.0
1.017,26,1,17000000,base_footprint,-0.0038531016154512397,-6.8865588140296175e-06,0.9999925757199629,4.5447450627228465e-05,0.0,0.0,0.0,0.0,0.0,0.0,0.0,0.0,0.0,3.871472382296968e-05,-0.00018040975152144715,9.875060469003393e-06,0.0,0.0,0.0,0.0,0.0,0.0,0.0,0.0,0.0,-2.174208125709228e-11,9.678049153519987e-11,4.594292662220236e-15,0.0,0.0,0.0,0.0,0.0,0.0,0.0,0.0,0.0
1.054,27,1,51000000,base_footprint,-0.0038531016147223783,-6.88716485911794e-06,0.9999925757269321,4.5293812595147036e-05,0.0,0.0,0.0,0.0,0.0,0.0,0.0,0.0,0.0,3.871489920737678e-05,-0.00018040972311142496,9.875119547026002e-06,0.0,0.0,0.0,0.0,0.0,0.0,0.0,0.0,0.0,-2.4199948590268725e-11,1.1300543795335653e-10,-1.2219568106670198e-12,0.0,0.0,0.0,0.0,0.0,0.0,0.0,0.0,0.0
1.088,28,1,85000000,base_footprint,-0.0038531016139887846,-6.887770004854919e-06,0.999992575733878,4.5140174167433674e-05,0.0,0.0,0.0,0.0,0.0,0.0,0.0,0.0,0.0,3.871507159974841e-05,-0.00018040969429145666,9.875186470444262e-06,0.0,0.0,0.0,0.0,0.0,0.0,0.0,0.0,0.0,-2.6509696189367672e-11,1.282080568547364e-10,-2.2978406605008577e-12,0.0,0.0,0.0,0.0,0.0,0.0,0.0,0.0,0.0
1.12,29,1,119000000,base_footprint,-0.003853101613251528,-6.888374308019891e-06,0.9999925757408001,4.4986535356116554e-05,0.0,0.0,0.0,0.0,0.0,0.0,0.0,0.0,0.0,3.87152414281727e-05,-0.00018040966532974277,9.87525994544351e-06,0.0,0.0,0.0,0.0,0.0,0.0,0.0,0.0,0.0,-2.843319493850408e-11,1.4090285343230347e-10,-3.222560922252907e-12,0.0,0.0,0.0,0.0,0.0,0.0,0.0,0.0,0.0
1.153,30,1,153000000,base_footprint,-0.003853101612509501,-6.888977822329577e-06,0.9999925757476987,4.4832896144972784e-05,0.0,0.0,0.0,0.0,0.0,0.0,0.0,0.0,0.0,3.8715408662821374e-05,-0.00018040963632623815,9.875340912808852e-06,0.0,0.0,0.0,0.0,0.0,0.0,0.0,0.0,0.0,-3.063017475463372e-11,1.554262110800643e-10,-4.0313659258570695e-12,0.0,0.0,0.0,0.0,0.0,0.0,0.0,0.0,0.0
1.187,31,1,187000000,base_footprint,-0.0038531016117640685,-6.889580597886216e-06,0.9999925757545739,4.467925654876047e-05,0.0,0.0,0.0,0.0,0.0,0.0,0.0,0.0,0.0,3.871557356329424e-05,-0.00018040960692452434,9.875427254897675e-06,0.0,0.0,0.0,0.0,0.0,0.0,0.0,0.0,0.0,-3.221455912536112e-11,1.65837286650305e-10,-5.072908099502365e-12,0.0,0.0,0.0,0.0,0.0,0.0,0.0,0.0,0.0
1.221,32,1,221000000,base_footprint,-0.0038531016110154434,-6.8901826811387684e-06,0.9999925757614254,4.452561658393093e-05,0.0,0.0,0.0,0.0,0.0,0.0,0.0,0.0,0.0,3.871573628624402e-05,-0.00018040957741052326,9.875518453675515e-06,0.0,0.0,0.0,0.0,0.0,0.0,0.0,0.0,0.0,-3.364190234815771e-11,1.7524352832589526e-10,-5.705370917233433e-12,0.0,0.0,0.0,0.0,0.0,0.0,0.0,0.0,0.0
1.256,33,1,255000000,base_footprint,-0.0038531016102627564,-6.890784116436433e-06,0.9999925757682533,4.437197624662142e-05,0.0,0.0,0.0,0.0,0.0,0.0,0.0,0.0,0.0,3.871589688202201e-05,-0.00018040954774240905,9.875617179247246e-06,0.0,0.0,0.0,0.0,0.0,0.0,0.0,0.0,0.0,-3.585126290765483e-11,1.898412406891574e-10,-6.428845832230583e-12,0.0,0.0,0.0,0.0,0.0,0.0,0.0,0.0,0.0
1.2890000000000001,34,1,289000000,base_footprint,-0.0038531016095071295,-6.891384944546162e-06,0.9999925757750576,4.4218335527844904e-05,0.0,0.0,0.0,0.0,0.0,0.0,0.0,0.0,0.0,3.871605549846075e-05,-0.00018040951799756715,9.875720126092959e-06,0.0,0.0,0.0,0.0,0.0,0.0,0.0,0.0,0.0,-3.7090372693461153e-11,1.9801530511455749e-10,-7.152514168969281e-12,0.0,0.0,0.0,0.0,0.0,0.0,0.0,0.0,0.0
1.323,35,1,323000000,base_footprint,-0.003853101608748633,-6.891985204965438e-06,0.9999925757818385,4.406469442689245e-05,0.0,0.0,0.0,0.0,0.0,0.0,0.0,0.0,0.0,3.871621235562944e-05,-0.0001804094879221686,9.875828427085357e-06,0.0,0.0,0.0,0.0,0.0,0.0,0.0,0.0,0.0,-3.8667963839500797e-11,2.0839450188131798e-10,-7.954818132463774e-12,0.0,0.0,0.0,0.0,0.0,0.0,0.0,0.0,0.0
1.358,36,1,357000000,base_footprint,-0.0038531016079869527,-6.892584932920577e-06,0.9999925757885958,4.3911052944669225e-05,0.0,0.0,0.0,0.0,0.0,0.0,0.0,0.0,0.0,3.871636750197038e-05,-0.00018040945790244928,9.875941105725699e-06,0.0,0.0,0.0,0.0,0.0,0.0,0.0,0.0,0.0,-3.995086554184241e-11,2.1687825388618925e-10,-8.22225438714176e-12,0.0,0.0,0.0,0.0,0.0,0.0,0.0,0.0,0.0
1.391,37,1,391000000,base_footprint,-0.0038531016072228877,-6.893184162495773e-06,0.9999925757953293,4.3757411086852846e-05,0.0,0.0,0.0,0.0,0.0,0.0,0.0,0.0,0.0,3.871652106640472e-05,-0.00018040942772569753,9.87605794029383e-06,0.0,0.0,0.0,0.0,0.0,0.0,0.0,0.0,0.0,-4.1171182364985835e-11,2.2493167236405741e-10,-8.957384094543486e-12,0.0,0.0,0.0,0.0,0.0,0.0,0.0,0.0,0.0
1.425,38,1,425000000,base_footprint,-0.0038531016064563177,-6.89378292538683e-06,0.9999925758020394,4.360376885444478e-05,0.0,0.0,0.0,0.0,0.0,0.0,0.0,0.0,0.0,3.8716673077229395e-05,-0.00018040939745878027,9.876179044429397e-06,0.0,0.0,0.0,0.0,0.0,0.0,0.0,0.0,0.0,-4.2426177543510465e-11,2.3320628453526275e-10,-9.367652420237572e-12,0.0,0.0,0.0,0.0,0.0,0.0,0.0,0.0,0.0
1.459,39,1,459000000,base_footprint,-0.003853101605687533,-6.894381251469477e-06,0.9999925758087259,4.3450126243863994e-05,0.0,0.0,0.0,0.0,0.0,0.0,0.0,0.0,0.0,3.8716823655350894e-05,-0.00018040936687609984,9.876303122758148e-06,0.0,0.0,0.0,0.0,0.0,0.0,0.0,0.0,0.0,-4.330430855994958e-11,2.3896635818463404e-10,-1.0183933795716665e-11,0.0,0.0,0.0,0.0,0.0,0.0,0.0,0.0,0.0
1.493,40,1,493000000,base_footprint,-0.0038531016049164137,-6.894979168062654e-06,0.9999925758153889,4.3296483257683186e-05,0.0,0.0,0.0,0.0,0.0,0.0,0.0,0.0,0.0,3.8716972981157164e-05,-0.000180409336475566,9.876431659270313e-06,0.0,0.0,0.0,0.0,0.0,0.0,0.0,0.0,0.0,-4.460826304948635e-11,2.4761156269225515e-10,-1.0241361298374051e-11,0.0,0.0,0.0,0.0,0.0,0.0,0.0,0.0,0.0
1.528,41,1,527000000,base_footprint,-0.0038531016041434417,-6.89557670134879e-06,0.9999925758220282,4.314283989914424e-05,0.0,0.0,0.0,0.0,0.0,0.0,0.0,0.0,0.0,3.871712105877825e-05,-0.00018040930573381587,9.876563337302375e-06,0.0,0.0,0.0,0.0,0.0,0.0,0.0,0.0,0.0,-4.553618278858511e-11,2.5369830112596165e-10,-1.102282813733638e-11,0.0,0.0,0.0,0.0,0.0,0.0,0.0,0.0,0.0
1.561,42,1,561000000,base_footprint,-0.0038531016033683217,-6.896173875783099e-06,0.9999925758286439,4.298919616335197e-05,0.0,0.0,0.0,0.0,0.0,0.0,0.0,0.0,0.0,3.871726799737192e-05,-0.00018040927504191012,9.876697972339442e-06,0.0,0.0,0.0,0.0,0.0,0.0,0.0,0.0,0.0,-4.640337892414914e-11,2.594284852860623e-10,-1.1166748230956408e-11,0.0,0.0,0.0,0.0,0.0,0.0,0.0,0.0,0.0
1.597,43,1,595000000,base_footprint,-0.003853101602591747,-6.896770714036502e-06,0.9999925758352359,4.283555205631632e-05,0.0,0.0,0.0,0.0,0.0,0.0,0.0,0.0,0.0,3.871741392646211e-05,-0.00018040924425157025,9.876834992640094e-06,0.0,0.0,0.0,0.0,0.0,0.0,0.0,0.0,0.0,-4.7103937975891604e-11,2.6404921525832427e-10,-1.1684090533259304e-11,0.0,0.0,0.0,0.0,0.0,0.0,0.0,0.0,0.0
1.629,44,1,629000000,base_footprint,-0.00385310160181317,-6.897367237923999e-06,0.9999925758418047,4.2681907574790386e-05,0.0,0.0,0.0,0.0,0.0,0.0,0.0,0.0,0.0,3.8717558684549824e-05,-0.00018040921335399826,9.87697539807666e-06,0.0,0.0,0.0,0.0,0.0,0.0,0.0,0.0,0.0,-4.809942651816402e-11,2.706103921132645e-10,-1.2072283469930936e-11,0.0,0.0,0.0,0.0,0.0,0.0,0.0,0.0,0.0
1.662,45,1,663000000,base_footprint,-0.0038531016010329745,-6.8979634672130995e-06,0.9999925758483496,4.25282627209701e-05,0.0,0.0,0.0,0.0,0.0,0.0,0.0,0.0,0.0,3.871770263243317e-05,-0.000180409182409681,9.877117967415156e-06,0.0,0.0,0.0,0.0,0.0,0.0,0.0,0.0,0.0,-4.873540162597826e-11,2.7480422143523845e-10,-1.2300184111063142e-11,0.0,0.0,0.0,0.0,0.0,0.0,0.0,0.0,0.0
1.697,46,1,697000000,base_footprint,-0.003853101600251281,-6.8985594201347164e-06,0.9999925758548711,4.2374617490623e-05,0.0,0.0,0.0,0.0,0.0,0.0,0.0,0.0,0.0,3.871784561863534e-05,-0.00018040915138164165,9.877263548205653e-06,0.0,0.0,0.0,0.0,0.0,0.0,0.0,0.0,0.0,-4.9620463513086965e-11,2.8064309543494383e-10,-1.2627930147081944e-11,0.0,0.0,0.0,0.0,0.0,0.0,0.0,0.0,0.0
1.7320000000000002,47,1,731000000,base_footprint,-0.003846915107714518,-6.980922878322706e-06,0.9999925996919063,4.191471746227285e-05,0.0,0.0,0.0,0.0,0.0,0.0,0.0,0.0,0.0,-4.1207699559767624e-05,-0.005960972549071656,0.0003573935308249266,0.0,0.0,0.0,0.0,0.0,0.0,0.0,0.0,0.0,0.05188591031465425,0.0006689810234607565,0.006830482670376394,0.0,0.0,0.0,0.0,0.0,0.0,0.0,0.0,0.0
1.767,48,1,765000000,base_footprint,-0.0038448323236957853,-6.989134741495934e-06,0.9999926077267455,4.1320917904812106e-05,0.0,0.0,0.0,0.0,0.0,0.0,0.0,0.0,0.0,8.356292942934232e-05,-0.0003035503839239883,-5.4148940777107865e-05,0.0,0.0,0.0,0.0,0.0,0.0,0.0,0.0,0.0,0.7757454665840487,-0.0008613468814427123,0.0004941122905951739,0.0,0.0,0.0,0.0,0.0,0.0,0.0,0.0,0.0
1.8,49,1,799000000,base_footprint,-0.0038458901286629486,-7.002706718632994e-06,0.9999926036083945,4.2527462652159606e-05,0.0,0.0,0.0,0.0,0.0,0.0,0.0,0.0,0.0,0.00011402096150485949,0.001018687094079941,-0.00013790728777439063,0.0,0.0,0.0,0.0,0.0,0.0,0.0,0.0,0.0,0.7843971719027844,-0.0002289225746382061,0.004023915414037529,0.0,0.0,0.0,0.0,0.0,0.0,0.0,0.0,0.0
1.835,50,1,833000000,base_footprint,-0.003846576300382962,-7.068529460959651e-06,0.9999926008523444,4.518147038529389e-05,0.0,0.0,0.0,0.0,0.0,0.0,0.0,0.0,0.0,0.00011757875758623502,0.0010430255164701199,-0.00026288369999353064,0.0,0.0,0.0,0.0,0.0,0.0,0.0,0.0,0.0,0.7841957633536009,-0.00031346315435570903,0.00600336837297738,0.0,0.0,0.0,0.0,0.0,0.0,0.0,0.0,0.0
1.872,51,1,867000000,base_footprint,-0.003848631704889386,-7.108638693991956e-06,0.9999925927069158,5.014746054552741e-05,0.0,0.0,0.0,0.0,0.0,0.0,0.0,0.0,0.0,9.070384401720849e-05,0.0017891925708022009,-0.0004533799662780169,0.0,0.0,0.0,0.0,0.0,0.0,0.0,0.0,0.0,0.7687039840620692,-0.0004473208830590069,0.004786765771803168,0.0,0.0,0.0,0.0,0.0,0.0,0.0,0.0,0.0
1.901,52,1,901000000,base_footprint,-0.0038511865620592454,-7.17704196486964e-06,0.999992582403923,5.871701339835129e-05,0.0,0.0,0.0,0.0,0.0,0.0,0.0,0.0,0.0,5.559431785028466e-05,0.0018367464628655417,-0.0007324322881802487,0.0,0.0,0.0,0.0,0.0,0.0,0.0,0.0,0.0,0.7318280540788933,-0.0006282012400761873,0.005383377594221275,0.0,0.0,0.0,0.0,0.0,0.0,0.0,0.0,0.0
1.935,53,1,935000000,base_footprint,-0.0038533991856432924,-7.372968772213645e-06,0.9999925729738219,7.250897145713361e-05,0.0,0.0,0.0,0.0,0.0,0.0,0.0,0.0,0.0,4.095457117025442e-06,0.0011932509899615633,-0.00105543695708894,0.0,0.0,0.0,0.0,0.0,0.0,0.0,0.0,0.0,0.6578586153532169,-0.0007232469064367313,0.005736144934352288,0.0,0.0,0.0,0.0,0.0,0.0,0.0,0.0,0.0
1.969,54,1,969000000,base_footprint,-0.0038561217219166216,-8.024725093092627e-06,0.9999925608452087,9.227735945045055e-05,0.0,0.0,0.0,0.0,0.0,0.0,0.0,0.0,0.0,3.209545591977402e-05,-6.804352793819767e-05,-0.001289267639155275,0.0,0.0,0.0,0.0,0.0,0.0,0.0,0.0,0.0,0.5356793881483586,-0.0005525558930320403,0.005720726547637384,0.0,0.0,0.0,0.0,0.0,0.0,0.0,0.0,0.0
2.003,55,2,3000000,base_footprint,-0.003858057853453592,-7.85413470878211e-06,0.9999925516017447,0.00010985874630423462,0.0,0.0,0.0,0.0,0.0,0.0,0.0,0.0,0.0,7.807937433198828e-05,-3.850528897205131e-05,-0.0005327555793836411,0.0,0.0,0.0,0.0,0.0,0.0,0.0,0.0,0.0,0.3657448844218269,0.0013900741609760125,0.0027649653003905626,0.0,0.0,0.0,0.0,0.0,0.0,0.0,0.0,0.0
2.037,56,2,37000000,base_footprint,-0.0038601342882852445,-7.381185099599803e-06,0.999992543618769,0.00010961596174904443,0.0,0.0,0.0,0.0,0.0,0.0,0.0,0.0,0.0,9.763464435673315e-06,-8.796673626529059e-05,0.0022850673421150104,0.0,0.0,0.0,0.0,0.0,0.0,0.0,0.0,0.0,0.1668414628873326,-0.000325548975987833,0.0014435023132873823,0.0,0.0,0.0,0.0,0.0,0.0,0.0,0.0,0.0
2.071,57,2,71000000,base_footprint,-0.0038527962608768526,-1.2473798072627977e-06,0.9999925772594654,3.722080658944854e-05,0.0,0.0,0.0,0.0,0.0,0.0,0.0,0.0,0.0,6.8769481535475406e-06,-8.081941977550829e-05,0.0017362665969454026,0.0,0.0,0.0,0.0,0.0,0.0,0.0,0.0,0.0,0.02978847659237602,0.007505541759659806,0.00012543900409637385,0.0,0.0,0.0,0.0,0.0,0.0,0.0,0.0,0.0
2.105,58,2,105000000,base_footprint,-0.0038459453933456338,-4.898679298190358e-06,0.9999925431895976,0.0003496358608320464,0.0,0.0,0.0,0.0,0.0,0.0,0.0,0.0,0.0,0.0005250941005413948,-0.0002678679250373998,-0.03673284728761517,0.0,0.0,0.0,0.0,0.0,0.0,0.0,0.0,0.0,0.10920990656407815,-0.008018787378386886,0.000892514798209077,0.0,0.0,0.0,0.0,0.0,0.0,0.0,0.0,0.0
2.1390000000000002,59,2,139000000,base_footprint,-0.00384896026422027,1.8931023886115048e-06,0.9999914844270795,0.0014888165188192744,0.0,0.0,0.0,0.0,0.0,0.0,0.0,0.0,0.0,0.0009234467850401362,-6.636849920555558e-05,-0.10922824612904167,0.0,0.0,0.0,0.0,0.0,0.0,0.0,0.0,0.0,0.239151905952791,-0.015134781571273868,0.0015418925504464848,0.0,0.0,0.0,0.0,0.0,0.0,0.0,0.0,0.0
2.173,60,2,173000000,base_footprint,-0.003849019347425818,1.249332576236687e-05,0.9999830054489577,0.0043787791962822875,0.0,0.0,0.0,0.0,0.0,0.0,0.0,0.0,0.0,0.0018117393278530734,-0.00010187634878085135,-0.23344506603544274,0.0,0.0,0.0,0.0,0.0,0.0,0.0,0.0,0.0,0.32422710671314353,-0.03940754491323643,0.002521746212925849,0.0,0.0,0.0,0.0,0.0,0.0,0.0,0.0,0.0
2.207,61,2,207000000,base_footprint,-0.0038534835331456383,2.976428014090636e-05,0.9999483828858136,0.00940113518645279,0.0,0.0,0.0,0.0,0.0,0.0,0.0,0.0,0.0,0.002460656976320804,-0.0006627841511043101,-0.3197421209649658,0.0,0.0,0.0,0.0,0.0,0.0,0.0,0.0,0.0,0.22390950868468354,-0.07127222447000883,0.0025784424061315037,0.0,0.0,0.0,0.0,0.0,0.0,0.0,0.0,0.0
2.24,62,2,241000000,base_footprint,-0.0038533389343733486,5.042367954915365e-05,0.9998831511154461,0.01479301699976113,0.0,0.0,0.0,0.0,0.0,0.0,0.0,0.0,0.0,0.002350203497391774,-0.0002652638164370819,-0.31267028632294097,0.0,0.0,0.0,0.0,0.0,0.0,0.0,0.0,0.0,-0.0039347738195163965,-0.0705997472173515,-0.0005411355221262667,0.0,0.0,0.0,0.0,0.0,0.0,0.0,0.0,0.0
2.275,63,2,275000000,base_footprint,-0.0038529217150690253,7.069043655799866e-05,0.9997903926700261,0.02010772791328675,0.0,0.0,0.0,0.0,0.0,0.0,0.0,0.0,0.0,0.002408174704504166,-0.00025363019077814645,-0.3128864237330086,0.0,0.0,0.0,0.0,0.0,0.0,0.0,0.0,0.0,-0.0038621138698959993,-0.06954004362374812,2.0489006355298445e-05,0.0,0.0,0.0,0.0,0.0,0.0,0.0,0.0,0.0
2.309,64,2,309000000,base_footprint,-0.003852775007115315,9.084493781063248e-05,0.9996692913994658,0.025425493207248653,0.0,0.0,0.0,0.0,0.0,0.0,0.0,0.0,0.0,0.0023323911770477376,-0.0002489019604199873,-0.3130975230566132,0.0,0.0,0.0,0.0,0.0,0.0,0.0,0.0,0.0,-0.005394696630863383,-0.06953591026427602,-0.00014392168279683527,0.0,0.0,0.0,0.0,0.0,0.0,0.0,0.0,0.0
2.343,65,2,343000000,base_footprint,-0.0038517059594290904,0.00011327836443616824,0.9995194804573122,0.030756458111411703,0.0,0.0,0.0,0.0,0.0,0.0,0.0,0.0,0.0,0.002495194195066717,8.918252824205005e-05,-0.2923645303261974,0.0,0.0,0.0,0.0,0.0,0.0,0.0,0.0,0.0,-0.30021535833490787,-0.03323214535914394,-0.0024667977403814963,0.0,0.0,0.0,0.0,0.0,0.0,0.0,0.0,0.0
2.3810000000000002,66,2,377000000,base_footprint,-0.0038518342035913007,0.00012547675176912058,0.9993846719920242,0.03486294617852926,0.0,0.0,0.0,0.0,0.0,0.0,0.0,0.0,0.0,0.002052468143590133,-0.0003367808470045499,-0.2756372795978742,0.0,0.0,0.0,0.0,0.0,0.0,0.0,0.0,0.0,-0.14742916754542695,-0.03182825075454393,-0.0008226197933174381,0.0,0.0,0.0,0.0,0.0,0.0,0.0,0.0,0.0
2.411,67,2,411000000,base_footprint,-0.0038532457170196263,0.00014626741612361422,0.9991886140192283,0.040090456690102964,0.0,0.0,0.0,0.0,0.0,0.0,0.0,0.0,0.0,0.0022704201839407823,-0.00025807948661668535,-0.31219153130918037,0.0,0.0,0.0,0.0,0.0,0.0,0.0,0.0,0.0,0.08612417206783511,-0.07842931016580323,0.00038912711672806,0.0,0.0,0.0,0.0,0.0,0.0,0.0,0.0,0.0
2.455,68,2,445000000,base_footprint,-0.0038535542204854727,0.00016607840413591454,0.9989621425089837,0.045384582973675015,0.0,0.0,0.0,0.0,0.0,0.0,0.0,0.0,0.0,0.0022159480303087257,-0.00025481460594234254,-0.31111554398007474,0.0,0.0,0.0,0.0,0.0,0.0,0.0,0.0,0.0,-0.013707526198594892,-0.06481031530127378,-0.00018278458246155324,0.0,0.0,0.0,0.0,0.0,0.0,0.0,0.0,0.0
2.479,69,2,479000000,base_footprint,-0.0038537748944363686,0.00018512238295927445,0.9987264250200054,0.05030548792652727,0.0,0.0,0.0,0.0,0.0,0.0,0.0,0.0,0.0,0.0018856344503532328,-3.2116952794312037e-06,-0.23252027975988307,0.0,0.0,0.0,0.0,0.0,0.0,0.0,0.0,0.0,0.11507689265016265,-0.08612182384110131,0.0010828797621947508,0.0,0.0,0.0,0.0,0.0,0.0,0.0,0.0,0.0
2.511,70,2,513000000,base_footprint,-0.003845378252333895,0.00020440785987342014,0.9985455748768793,0.053776446306220846,0.0,0.0,0.0,0.0,0.0,0.0,0.0,0.0,0.0,0.0017320400689883053,-0.0003562556525488726,-0.21496559833790627,0.0,0.0,0.0,0.0,0.0,0.0,0.0,0.0,0.0,0.09516607070384792,-0.06601901466506258,0.0009021894954628737,0.0,0.0,0.0,0.0,0.0,0.0,0.0,0.0,0.0
2.544,71,2,547000000,base_footprint,-0.0038512960743477234,0.00021597351721772625,0.9983190128209007,0.057829659468909875,0.0,0.0,0.0,0.0,0.0,0.0,0.0,0.0,0.0,0.0021335364064903337,-0.0009208032310071057,-0.2467228123351209,0.0,0.0,0.0,0.0,0.0,0.0,0.0,0.0,0.0,0.06855146278365742,-0.06945122139859256,0.0011342167600333019,0.0,0.0,0.0,0.0,0.0,0.0,0.0,0.0,0.0
2.571,72,2,581000000,base_footprint,-0.0038508693011167043,0.00022533129348310194,0.9980850048174661,0.061736886785395774,0.0,0.0,0.0,0.0,0.0,0.0,0.0,0.0,0.0,0.0013646376879683565,-0.0005947158991610032,-0.18497419807960694,0.0,0.0,0.0,0.0,0.0,0.0,0.0,0.0,0.0,-0.27059491511585637,0.01465991969879692,-0.00204950905972343,0.0,0.0,0.0,0.0,0.0,0.0,0.0,0.0,0.0
2.614,73,2,615000000,base_footprint,-0.003841719719531905,0.0002444222465920613,0.9978925323775938,0.06477403239257944,0.0,0.0,0.0,0.0,0.0,0.0,0.0,0.0,0.0,0.002278318613359802,-8.91434033665559e-06,-0.26579061742279547,0.0,0.0,0.0,0.0,0.0,0.0,0.0,0.0,0.0,-0.05538995491295267,-0.024101381492732044,-0.0016042102976447153,0.0,0.0,0.0,0.0,0.0,0.0,0.0,0.0,0.0
2.641,74,2,649000000,base_footprint,-0.0038429379287639328,0.00026160243895341744,0.9974969729172072,0.07060419543658875,0.0,0.0,0.0,0.0,0.0,0.0,0.0,0.0,0.0,0.003133931900817636,0.0004047914415975133,-0.4060631857006218,0.0,0.0,0.0,0.0,0.0,0.0,0.0,0.0,0.0,0.17025390389801925,-0.12305389386456493,0.0006492577810643396,0.0,0.0,0.0,0.0,0.0,0.0,0.0,0.0,0.0
2.683,75,2,683000000,base_footprint,-0.0038395320158716387,0.0002873991462415646,0.9970010832222252,0.07729175537752711,0.0,0.0,0.0,0.0,0.0,0.0,0.0,0.0,0.0,0.0028649273332364018,-0.0006702474161128234,-0.37788913271786123,0.0,0.0,0.0,0.0,0.0,0.0,0.0,0.0,0.0,0.03043252102247465,-0.10092454093527826,0.002038991119581703,0.0,0.0,0.0,0.0,0.0,0.0,0.0,0.0,0.0
2.714,76,2,717000000,base_footprint,-0.003841879084914288,0.00031342522568884293,0.9965205658066638,0.08325805458988116,0.0,0.0,0.0,0.0,0.0,0.0,0.0,0.0,0.0,0.0025473179436026226,-0.0008965144230651418,-0.33875332076362363,0.0,0.0,0.0,0.0,0.0,0.0,0.0,0.0,0.0,0.053778087879087944,-0.10119194803794197,0.0006522122251712768,0.0,0.0,0.0,0.0,0.0,0.0,0.0,0.0,0.0
2.752,77,2,751000000,base_footprint,-0.0038392538193717618,0.00033441760821737267,0.9960365366482805,0.08886149873073451,0.0,0.0,0.0,0.0,0.0,0.0,0.0,0.0,0.0,0.002552002483143032,-0.0005450680465840975,-0.32673458223751983,0.0,0.0,0.0,0.0,0.0,0.0,0.0,0.0,0.0,-0.02702052374971222,-0.06875759264064549,-0.0005056580342594902,0.0,0.0,0.0,0.0,0.0,0.0,0.0,0.0,0.0
2.792,78,2,785000000,base_footprint,-0.00383782375349482,0.0003553140469295113,0.9955277198853895,0.09439122734959436,0.0,0.0,0.0,0.0,0.0,0.0,0.0,0.0,0.0,0.002467515541283623,-0.0005791858053821099,-0.3268957235225392,0.0,0.0,0.0,0.0,0.0,0.0,0.0,0.0,0.0,-0.025325521539134612,-0.06830462304853202,-0.00015052298715065692,0.0,0.0,0.0,0.0,0.0,0.0,0.0,0.0,0.0
2.819,79,2,819000000,base_footprint,-0.0038364614211446983,0.0003761634992797255,0.9949879917962299,0.09992014934982586,0.0,0.0,0.0,0.0,0.0,0.0,0.0,0.0,0.0,0.0023609934330370086,-0.0005580829863561555,-0.3269800255983375,0.0,0.0,0.0,0.0,0.0,0.0,0.0,0.0,0.0,-0.027013999779159692,-0.06773646680695042,-0.0001602864183659702,0.0,0.0,0.0,0.0,0.0,0.0,0.0,0.0,0.0
2.853,80,2,853000000,base_footprint,-0.003831369900543831,0.0003975360121834705,0.9945143447093747,0.1045293295543752,0.0,0.0,0.0,0.0,0.0,0.0,0.0,0.0,0.0,0.0017783065619939207,-0.00023094923836981064,-0.21136024443686138,0.0,0.0,0.0,0.0,0.0,0.0,0.0,0.0,0.0,-0.15679902125639678,0.0021301936252457986,-0.0012244614212672772,0.0,0.0,0.0,0.0,0.0,0.0,0.0,0.0,0.0
2.887,81,2,887000000,base_footprint,-0.0038355279684495007,0.00040456675091380415,0.9941765174633111,0.10769483355978524,0.0,0.0,0.0,0.0,0.0,0.0,0.0,0.0,0.0,0.0015787059333909625,-0.0004320995835084781,-0.199085114787867,0.0,0.0,0.0,0.0,0.0,0.0,0.0,0.0,0.0,0.0817248943370072,-0.08212496189897667,0.0010856353305479989,0.0,0.0,0.0,0.0,0.0,0.0,0.0,0.0,0.0
2.9210000000000003,82,2,921000000,base_footprint,-0.0038329742566164224,0.0004200302889377913,0.9937993122573691,0.11112181981809338,0.0,0.0,0.0,0.0,0.0,0.0,0.0,0.0,0.0,0.0012640785511435965,-0.0002476990292529902,-0.2002494661344728,0.0,0.0,0.0,0.0,0.0,0.0,0.0,0.0,0.0,-0.015978386508066614,-0.04343373679348363,-0.0005942488986182049,0.0,0.0,0.0,0.0,0.0,0.0,0.0,0.0,0.0
2.955,83,2,955000000,base_footprint,-0.003831134469278343,0.00043107227099450283,0.9934989049976863,0.11377636992703645,0.0,0.0,0.0,0.0,0.0,0.0,0.0,0.0,0.0,0.0008512113731491735,-0.0025218074234852578,-0.12317893637890814,0.0,0.0,0.0,0.0,0.0,0.0,0.0,0.0,0.0,-0.051387235462795444,-0.013790024076497072,0.003187530993867719,0.0,0.0,0.0,0.0,0.0,0.0,0.0,0.0,0.0
2.989,84,2,989000000,base_footprint,-0.003830093587996896,0.0004395576875801803,0.9932466019454591,0.11595828946627836,0.0,0.0,0.0,0.0,0.0,0.0,0.0,0.0,0.0,0.0009119429853421829,-8.821114190373379e-05,-0.129435775097861,0.0,0.0,0.0,0.0,0.0,0.0,0.0,0.0,0.0,0.0021350491683084626,-0.03334161434461074,-0.0035072645635397166,0.0,0.0,0.0,0.0,0.0,0.0,0.0,0.0,0.0
3.023,85,3,23000000,base_footprint,-0.0038290879243758663,0.0004487059855541739,0.9929889257685848,0.11814453034126572,0.0,0.0,0.0,0.0,0.0,0.0,0.0,0.0,0.0,0.0009648854577331654,-0.00034895733141617873,-0.12927936843286073,0.0,0.0,0.0,0.0,0.0,0.0,0.0,0.0,0.0,-0.012727328551255735,-0.025592882193657372,0.0002313499432984591,0.0,0.0,0.0,0.0,0.0,0.0,0.0,0.0,0.0
3.057,86,3,57000000,base_footprint,-0.0038238917342462977,0.00045294957957666863,0.9927669769876738,0.11999542529379513,0.0,0.0,0.0,0.0,0.0,0.0,0.0,0.0,0.0,0.0009472306584838081,0.000648759958978599,-0.11496214444512587,0.0,0.0,0.0,0.0,0.0,0.0,0.0,0.0,0.0,-0.4189342241203987,0.19150706452772287,-0.0044178912503526156,0.0,0.0,0.0,0.0,0.0,0.0,0.0,0.0,0.0
3.091,87,3,91000000,base_footprint,-0.0038269232544448028,0.000465820646290916,0.9924683223968256,0.12244087025319929,0.0,0.0,0.0,0.0,0.0,0.0,0.0,0.0,0.0,0.0006593935246369251,-0.000562095042308264,-0.13790475909684508,0.0,0.0,0.0,0.0,0.0,0.0,0.0,0.0,0.0,0.09851372360877617,-0.08661025278607111,0.0023492052063706845,0.0,0.0,0.0,0.0,0.0,0.0,0.0,0.0,0.0
3.125,88,3,125000000,base_footprint,-0.003827258271223315,0.00047699354422097595,0.9921702150637831,0.12483344468358892,0.0,0.0,0.0,0.0,0.0,0.0,0.0,0.0,0.0,0.0008853942193299383,-0.0005068564922872055,-0.14394521003726118,0.0,0.0,0.0,0.0,0.0,0.0,0.0,0.0,0.0,-0.024033342127966408,-0.019959021646500357,-0.00012735938899509933,0.0,0.0,0.0,0.0,0.0,0.0,0.0,0.0,0.0
3.159,89,3,159000000,base_footprint,-0.0038200009534554847,0.000483596264785607,0.9917512960824834,0.12811924307489,0.0,0.0,0.0,0.0,0.0,0.0,0.0,0.0,0.0,0.0014221444354748924,-0.0007382000620112835,-0.21153416132699435,0.0,0.0,0.0,0.0,0.0,0.0,0.0,0.0,0.0,0.02141887053426837,-0.05815951019121414,0.00028434962116050664,0.0,0.0,0.0,0.0,0.0,0.0,0.0,0.0,0.0
3.193,90,3,193000000,base_footprint,-0.003818275535840579,0.0004964801090829747,0.9912992465235733,0.13157119031623027,0.0,0.0,0.0,0.0,0.0,0.0,0.0,0.0,0.0,0.0013362140983867803,-0.0005849988673269754,-0.19148022757761987,0.0,0.0,0.0,0.0,0.0,0.0,0.0,0.0,0.0,0.015472471989931846,-0.05949673210484583,3.897042135597945e-05,0.0,0.0,0.0,0.0,0.0,0.0,0.0,0.0,0.0
3.229,91,3,227000000,base_footprint,-0.0038169922788227634,0.0005067333329739326,0.9909301738385513,0.13432261301646647,0.0,0.0,0.0,0.0,0.0,0.0,0.0,0.0,0.0,0.000930900855069965,-0.0004345714939493418,-0.13042340961654234,0.0,0.0,0.0,0.0,0.0,0.0,0.0,0.0,0.0,0.09229766795886236,-0.09662953706835707,0.0007318966601805553,0.0,0.0,0.0,0.0,0.0,0.0,0.0,0.0,0.0
3.261,92,3,261000000,base_footprint,-0.0038226438148920663,0.0005222926214456002,0.9906574770789393,0.1363190291642117,0.0,0.0,0.0,0.0,0.0,0.0,0.0,0.0,0.0,0.00024662763210709976,-0.00020718446307595498,-0.1253415633891554,0.0,0.0,0.0,0.0,0.0,0.0,0.0,0.0,0.0,-0.572053958894733,0.31820124134967254,-0.0062291470745708035,0.0,0.0,0.0,0.0,0.0,0.0,0.0,0.0,0.0
3.295,93,3,295000000,base_footprint,-0.0038161284500629724,0.0005233890666917184,0.990331092724748,0.1386704366840477,0.0,0.0,0.0,0.0,0.0,0.0,0.0,0.0,0.0,0.0006717225514286617,-0.00017068876918671929,-0.1038593635373594,0.0,0.0,0.0,0.0,0.0,0.0,0.0,0.0,0.0,0.3199343485485835,-0.2315381572602416,0.0037600023098123994,0.0,0.0,0.0,0.0,0.0,0.0,0.0,0.0,0.0
3.331,94,3,329000000,base_footprint,-0.00381858451454543,0.0005311896197588591,0.990117105364587,0.14019006353641636,0.0,0.0,0.0,0.0,0.0,0.0,0.0,0.0,0.0,0.000550674391627545,-0.0002090533898287767,-0.08953325991022586,0.0,0.0,0.0,0.0,0.0,0.0,0.0,0.0,0.0,0.020411545629002208,-0.03523874641928336,0.0003325935582651783,0.0,0.0,0.0,0.0,0.0,0.0,0.0,0.0,0.0
3.363,95,3,363000000,base_footprint,-0.0038192539544347442,0.0005367506441223285,0.9898725269380005,0.14190667923447156,0.0,0.0,0.0,0.0,0.0,0.0,0.0,0.0,0.0,0.0009337437756282246,-0.00033090585588081467,-0.11981445784999233,0.0,0.0,0.0,0.0,0.0,0.0,0.0,0.0,0.0,0.11485978302500799,-0.09717230023676313,0.001387237772016916,0.0,0.0,0.0,0.0,0.0,0.0,0.0,0.0,0.0
3.399,96,3,397000000,base_footprint,-0.00381069517945859,0.0005501595308331177,0.9895763393897555,0.14395778703047507,0.0,0.0,0.0,0.0,0.0,0.0,0.0,0.0,0.0,0.0007624087553229102,-0.0006420407215703245,-0.1240186507473587,0.0,0.0,0.0,0.0,0.0,0.0,0.0,0.0,0.0,-0.004786347488990939,-0.02893598343100996,0.0004713963061142505,0.0,0.0,0.0,0.0,0.0,0.0,0.0,0.0,0.0
3.431,97,3,431000000,base_footprint,-0.003808332872433213,0.000558892084036593,0.9892281725369106,0.14633115491806747,0.0,0.0,0.0,0.0,0.0,0.0,0.0,0.0,0.0,0.00046567104867622556,0.00015826933897181324,-0.1510675529919849,0.0,0.0,0.0,0.0,0.0,0.0,0.0,0.0,0.0,0.08520135765791591,-0.09220270773623657,-0.0015219604077022198,0.0,0.0,0.0,0.0,0.0,0.0,0.0,0.0,0.0
3.464,98,3,465000000,base_footprint,-0.0038133714571524056,0.0005651062614725797,0.9889067567510058,0.1484875931020845,0.0,0.0,0.0,0.0,0.0,0.0,0.0,0.0,0.0,0.0007897530931567018,-0.00031650953924160886,-0.12617547026242162,0.0,0.0,0.0,0.0,0.0,0.0,0.0,0.0,0.0,0.037065921597461714,-0.06040212424553938,0.002177252856825035,0.0,0.0,0.0,0.0,0.0,0.0,0.0,0.0,0.0
3.498,99,3,499000000,base_footprint,-0.0038115699739412912,0.0005739570398695533,0.9885855172827508,0.1506114787340138,0.0,0.0,0.0,0.0,0.0,0.0,0.0,0.0,0.0,0.000829365003783767,-0.0003927290931550723,-0.12617319561827497,0.0,0.0,0.0,0.0,0.0,0.0,0.0,0.0,0.0,-0.015115139535429232,-0.023559178898678403,2.937882108875878e-05,0.0,0.0,0.0,0.0,0.0,0.0,0.0,0.0,0.0
3.532,100,3,533000000,base_footprint,-0.0038127360960208746,0.0005832109383450927,0.9882652169693708,0.1526989974981704,0.0,0.0,0.0,0.0,0.0,0.0,0.0,0.0,0.0,0.0006160505069357915,-0.00035132742196733794,-0.10297570495866355,0.0,0.0,0.0,0.0,0.0,0.0,0.0,0.0,0.0,-0.019473985901627404,-0.02050567770221253,0.0018647644797821028,0.0,0.0,0.0,0.0,0.0,0.0,0.0,0.0,0.0
3.568,101,3,567000000,base_footprint,-0.003809498017239102,0.0005900130022380155,0.9879933918314702,0.15444804079968424,0.0,0.0,0.0,0.0,0.0,0.0,0.0,0.0,0.0,0.0007912157335480362,-0.0004093199074572092,-0.10429097464850651,0.0,0.0,0.0,0.0,0.0,0.0,0.0,0.0,0.0,-0.013283779947927144,-0.0183201601661346,-0.0021215605208886926,0.0,0.0,0.0,0.0,0.0,0.0,0.0,0.0,0.0
3.603,102,3,601000000,base_footprint,-0.0038090529391030885,0.000597272968445236,0.9877166389693616,0.15620811593440387,0.0,0.0,0.0,0.0,0.0,0.0,0.0,0.0,0.0,0.0008850725043329523,-0.0004221042431600136,-0.10511989080172239,0.0,0.0,0.0,0.0,0.0,0.0,0.0,0.0,0.0,-0.013436174301516758,-0.018137619709778324,-9.045802921105879e-05,0.0,0.0,0.0,0.0,0.0,0.0,0.0,0.0,0.0
3.635,103,3,635000000,base_footprint,-0.0038125591155038986,0.0006054320487384739,0.9874434242385648,0.15792587429880794,0.0,0.0,0.0,0.0,0.0,0.0,0.0,0.0,0.0,-7.999696644841729e-05,-0.0007438960952179316,-0.06728878988955765,0.0,0.0,0.0,0.0,0.0,0.0,0.0,0.0,0.0,-0.08697732990652504,0.03514112333911325,-0.0010298777687365094,0.0,0.0,0.0,0.0,0.0,0.0,0.0,0.0,0.0
3.669,104,3,669000000,base_footprint,-0.003803274289472696,0.0006031067972024166,0.9872364710757751,0.15921470266505122,0.0,0.0,0.0,0.0,0.0,0.0,0.0,0.0,0.0,0.00046421058619915037,-0.0003416895472496312,-0.07946118254945826,0.0,0.0,0.0,0.0,0.0,0.0,0.0,0.0,0.0,-0.03254093519428933,0.0035754675315369327,0.0003417019724297812,0.0,0.0,0.0,0.0,0.0,0.0,0.0,0.0,0.0
3.706,105,3,703000000,base_footprint,-0.0038027498799010667,0.000606969268582316,0.9870552597394863,0.16033429109917,0.0,0.0,0.0,0.0,0.0,0.0,0.0,0.0,0.0,0.00022067925910699486,-0.0002030098053596148,-0.04792669515822423,0.0,0.0,0.0,0.0,0.0,0.0,0.0,0.0,0.0,0.04436875415847874,-0.05227804065109565,0.00022812791584660367,0.0,0.0,0.0,0.0,0.0,0.0,0.0,0.0,0.0
3.7350000000000003,106,3,737000000,base_footprint,-0.003808802319630603,0.0006181342311149621,0.9869604503352513,0.16091668778905566,0.0,0.0,0.0,0.0,0.0,0.0,0.0,0.0,0.0,-0.001488922860628169,-0.0016003842553808615,-0.03722161765451088,0.0,0.0,0.0,0.0,0.0,0.0,0.0,0.0,0.0,-0.09163961576985648,0.059215937078386835,0.002096971807982443,0.0,0.0,0.0,0.0,0.0,0.0,0.0,0.0,0.0
3.771,107,3,771000000,base_footprint,-0.0038035773096678945,0.000612458971242357,0.9867783162173928,0.16202997357533935,0.0,0.0,0.0,0.0,0.0,0.0,0.0,0.0,0.0,0.0021104644007585186,0.0010831334298886683,-0.08547501699278458,0.0,0.0,0.0,0.0,0.0,0.0,0.0,0.0,0.0,-0.280074895090034,0.19633605567892848,-0.007436619209877445,0.0,0.0,0.0,0.0,0.0,0.0,0.0,0.0,0.0
3.808,108,3,805000000,base_footprint,-0.003805504802864148,0.0006181511080974772,0.9866771330386533,0.16264492356365307,0.0,0.0,0.0,0.0,0.0,0.0,0.0,0.0,0.0,0.00019471240315657978,0.00019586548062551314,-0.0196904568190412,0.0,0.0,0.0,0.0,0.0,0.0,0.0,0.0,0.0,0.10601723257112175,-0.09161491069326905,0.0023629368150477944,0.0,0.0,0.0,0.0,0.0,0.0,0.0,0.0,0.0
3.838,109,3,839000000,base_footprint,-0.0038022768002298753,0.0006255589156684529,0.9865888606345291,0.16317956808080875,0.0,0.0,0.0,0.0,0.0,0.0,0.0,0.0,0.0,0.0006971125514259621,0.0003948167487856633,-0.09977098749588358,0.0,0.0,0.0,0.0,0.0,0.0,0.0,0.0,0.0,-0.11750188459664512,0.0841021606295894,-0.0015397215623313381,0.0,0.0,0.0,0.0,0.0,0.0,0.0,0.0,0.0
3.874,110,3,873000000,base_footprint,-0.0038074251731470958,0.0006254824537932725,0.9863056456082288,0.16488264228409852,0.0,0.0,0.0,0.0,0.0,0.0,0.0,0.0,0.0,0.00039148621123270247,-0.0006107882705795495,-0.08383019979477682,0.0,0.0,0.0,0.0,0.0,0.0,0.0,0.0,0.0,-0.08508063000197962,0.038535988221431734,0.0010621421196116458,0.0,0.0,0.0,0.0,0.0,0.0,0.0,0.0,0.0
3.907,111,3,907000000,base_footprint,-0.0038004599266079583,0.0006318357620945776,0.9861515809027576,0.1658017393482595,0.0,0.0,0.0,0.0,0.0,0.0,0.0,0.0,0.0,0.0006257358670022008,0.0011494342953985656,-0.045640169943775684,0.0,0.0,0.0,0.0,0.0,0.0,0.0,0.0,0.0,-0.08548861565850298,0.05286943343307668,-0.0034646843807906026,0.0,0.0,0.0,0.0,0.0,0.0,0.0,0.0,0.0
3.94,112,3,941000000,base_footprint,-0.0037955239382595094,0.0006362595852942556,0.9860414776965579,0.16645537970808494,0.0,0.0,0.0,0.0,0.0,0.0,0.0,0.0,0.0,0.00021613942131471213,-0.0001657854597723627,-0.01317400238570765,0.0,0.0,0.0,0.0,0.0,0.0,0.0,0.0,0.0,0.13866790369686102,-0.11935069326412998,0.003314218970322787,0.0,0.0,0.0,0.0,0.0,0.0,0.0,0.0,0.0
3.975,113,3,975000000,base_footprint,-0.0037959810556926297,0.0006360481571686335,0.9860565921904111,0.1663658106955872,0.0,0.0,0.0,0.0,0.0,0.0,0.0,0.0,0.0,5.7233074957009464e-05,-0.0001596736754041685,-0.021208399388253012,0.0,0.0,0.0,0.0,0.0,0.0,0.0,0.0,0.0,0.3811913992577905,-0.2995074258394941,0.00375108465600136,0.0,0.0,0.0,0.0,0.0,0.0,0.0,0.0,0.0
4.008,114,4,9000000,base_footprint,-0.0038013883061135843,0.000636265483443482,0.9859884491899468,0.16676906990561685,0.0,0.0,0.0,0.0,0.0,0.0,0.0,0.0,0.0,0.00014769353033049296,-0.0001601243008528988,-0.023914576748424586,0.0,0.0,0.0,0.0,0.0,0.0,0.0,0.0,0.0,0.003853962249793392,-0.010165397594937408,-0.00019504120157501177,0.0,0.0,0.0,0.0,0.0,0.0,0.0,0.0,0.0
4.043,115,4,43000000,base_footprint,-0.0037986306578154214,0.0006351059715474605,0.9859403502717111,0.1670532632175326,0.0,0.0,0.0,0.0,0.0,0.0,0.0,0.0,0.0,-0.0012238484507278826,-0.0019134522370585004,-0.01250471452211389,0.0,0.0,0.0,0.0,0.0,0.0,0.0,0.0,0.0,-0.20549900663619877,0.15828845368184438,0.0007756142523286441,0.0,0.0,0.0,0.0,0.0,0.0,0.0,0.0,0.0
4.077,116,4,77000000,base_footprint,-0.0038009467711935204,0.0006402460686011604,0.9858451411120143,0.16761414210754108,0.0,0.0,0.0,0.0,0.0,0.0,0.0,0.0,0.0,0.0010223355491369,0.00032592308898048356,-0.020716637173404415,0.0,0.0,0.0,0.0,0.0,0.0,0.0,0.0,0.0,-0.06896279368016109,0.04611998959173524,-0.004461683722937725,0.0,0.0,0.0,0.0,0.0,0.0,0.0,0.0,0.0
4.11,117,4,111000000,base_footprint,-0.0038020259759083495,0.0006428587173336087,0.9857862336846035,0.1679602119821019,0.0,0.0,0.0,0.0,0.0,0.0,0.0,0.0,0.0,0.0003013117331775719,-0.00024639288000031384,-0.02120040302405221,0.0,0.0,0.0,0.0,0.0,0.0,0.0,0.0,0.0,-0.0025018076593712395,-0.003428961997156141,0.0011280333196608903,0.0,0.0,0.0,0.0,0.0,0.0,0.0,0.0,0.0
4.145,118,4,145000000,base_footprint,-0.003798690116054615,0.0006414827385223832,0.9856371025323116,0.1688332329993349,0.0,0.0,0.0,0.0,0.0,0.0,0.0,0.0,0.0,-0.0019118421714133698,-0.0018982196556611153,-0.11210418600219083,0.0,0.0,0.0,0.0,0.0,0.0,0.0,0.0,0.0,0.07608797001138339,-0.07305102556294073,0.003170852232374411,0.0,0.0,0.0,0.0,0.0,0.0,0.0,0.0,0.0
4.186,119,4,179000000,base_footprint,-0.0037962396101400646,0.0006474159713095795,0.9853015436225564,0.17078067089805637,0.0,0.0,0.0,0.0,0.0,0.0,0.0,0.0,0.0,0.0006551931107797093,-0.00038406045603463863,-0.1122146193490199,0.0,0.0,0.0,0.0,0.0,0.0,0.0,0.0,0.0,-0.016059010029100786,-0.019309304332755732,-0.002278690862490463,0.0,0.0,0.0,0.0,0.0,0.0,0.0,0.0,0.0
4.212,120,4,213000000,base_footprint,-0.003795501144108156,0.0006528444915338623,0.98503055414525,0.1723368079240091,0.0,0.0,0.0,0.0,0.0,0.0,0.0,0.0,0.0,0.000359798359595161,-0.00023640516566136193,-0.06801297929368454,0.0,0.0,0.0,0.0,0.0,0.0,0.0,0.0,0.0,0.05881941961808041,-0.07528683153303818,0.00042395780021160204,0.0,0.0,0.0,0.0,0.0,0.0,0.0,0.0,0.0
4.247,121,4,247000000,base_footprint,-0.0037956265323432067,0.0006612285030879666,0.9849258535935838,0.1729341461916762,0.0,0.0,0.0,0.0,0.0,0.0,0.0,0.0,0.0,0.0012729791486168211,0.0009794462688624346,0.005533567304811784,0.0,0.0,0.0,0.0,0.0,0.0,0.0,0.0,0.0,-0.1126797945661467,0.08295974104424295,-0.0029314976864961897,0.0,0.0,0.0,0.0,0.0,0.0,0.0,0.0,0.0
4.281,122,4,281000000,base_footprint,-0.0037990108713926254,0.0006557861830937772,0.9850100573194747,0.17245383277957785,0.0,0.0,0.0,0.0,0.0,0.0,0.0,0.0,0.0,-0.00031335134034624285,4.94342125906129e-05,0.031054341408290442,0.0,0.0,0.0,0.0,0.0,0.0,0.0,0.0,0.0,-0.049716805253258195,0.048960741317987395,0.001254359438606524,0.0,0.0,0.0,0.0,0.0,0.0,0.0,0.0,0.0
4.315,123,4,315000000,base_footprint,-0.0038000306658910682,0.0006538110607256766,0.985101120236773,0.17193287994531542,0.0,0.0,0.0,0.0,0.0,0.0,0.0,0.0,0.0,-0.0003515839623130293,0.00016938810882153124,0.03142262582649088,0.0,0.0,0.0,0.0,0.0,0.0,0.0,0.0,0.0,0.004368319688303562,0.005305898190479964,-9.745005249723651e-05,0.0,0.0,0.0,0.0,0.0,0.0,0.0,0.0,0.0
4.349,124,4,349000000,base_footprint,-0.0037939519244864564,0.0006533196017011066,0.9853040633729007,0.17076616117704257,0.0,0.0,0.0,0.0,0.0,0.0,0.0,0.0,0.0,0.0001979858936860687,0.0010698212947666352,0.13222488214860384,0.0,0.0,0.0,0.0,0.0,0.0,0.0,0.0,0.0,0.1117737906614668,-0.07574108556812606,9.886629120658085e-05,0.0,0.0,0.0,0.0,0.0,0.0,0.0,0.0,0.0
4.384,125,4,383000000,base_footprint,-0.0037941817850230086,0.000645946267211784,0.9856432650928086,0.16879733681308332,0.0,0.0,0.0,0.0,0.0,0.0,0.0,0.0,0.0,-0.000850075170384675,9.683619873659801e-05,0.09706684531436689,0.0,0.0,0.0,0.0,0.0,0.0,0.0,0.0,0.0,0.08797314986522091,-0.03732570235933329,0.002201492972541382,0.0,0.0,0.0,0.0,0.0,0.0,0.0,0.0,0.0
4.417,126,4,417000000,base_footprint,-0.003801649446818256,0.0006386131226153502,0.9858406601755912,0.1676404855019144,0.0,0.0,0.0,0.0,0.0,0.0,0.0,0.0,0.0,-0.00087540604016749,-0.0006444923162677143,0.05898972739787793,0.0,0.0,0.0,0.0,0.0,0.0,0.0,0.0,0.0,0.08799304886117082,-0.05112509485339545,0.0016616467908974818,0.0,0.0,0.0,0.0,0.0,0.0,0.0,0.0,0.0
4.451,127,4,451000000,base_footprint,-0.0038011704486816183,0.0006362185353872946,0.9859780319245269,0.16683065333274943,0.0,0.0,0.0,0.0,0.0,0.0,0.0,0.0,0.0,-0.0003838709261264764,5.7902067874422414e-05,0.042968665802031944,0.0,0.0,0.0,0.0,0.0,0.0,0.0,0.0,0.0,0.011894527465250273,0.004300918013787885,-0.0009726183556062382,0.0,0.0,0.0,0.0,0.0,0.0,0.0,0.0,0.0
4.486,128,4,485000000,base_footprint,-0.0038016304703113396,0.0006340265873552002,0.9860989130631225,0.1661146570046794,0.0,0.0,0.0,0.0,0.0,0.0,0.0,0.0,0.0,-0.0003927299920618851,1.1990972962867431e-05,0.04289282562231406,0.0,0.0,0.0,0.0,0.0,0.0,0.0,0.0,0.0,0.006878649019384699,0.0065078816756804665,9.992557154473479e-06,0.0,0.0,0.0,0.0,0.0,0.0,0.0,0.0,0.0
4.515,129,4,519000000,base_footprint,-0.0038023070228597406,0.0006319075611923071,0.9862189318116784,0.16540060970374362,0.0,0.0,0.0,0.0,0.0,0.0,0.0,0.0,0.0,-0.00032981679115805506,-3.24932225960398e-06,0.04266418840371571,0.0,0.0,0.0,0.0,0.0,0.0,0.0,0.0,0.0,0.006549783562852731,0.006831902194025833,-8.913677460735922e-05,0.0,0.0,0.0,0.0,0.0,0.0,0.0,0.0,0.0
4.554,130,4,553000000,base_footprint,-0.00380073524075964,0.0006238468297449044,0.9864136635405941,0.16423534822682506,0.0,0.0,0.0,0.0,0.0,0.0,0.0,0.0,0.0,-8.614071957217361e-06,0.0009673242934747886,0.07257838691961514,0.0,0.0,0.0,0.0,0.0,0.0,0.0,0.0,0.0,-0.2925220762383058,0.24675298990209546,-0.0037301159739409075,0.0,0.0,0.0,0.0,0.0,0.0,0.0,0.0,0.0
4.586,131,4,587000000,base_footprint,-0.003804468459593371,0.0006256058964788311,0.986515971943876,0.1636195945986662,0.0,0.0,0.0,0.0,0.0,0.0,0.0,0.0,0.0,-0.0005244434800125942,-0.00018588913969364395,0.03563910588333877,0.0,0.0,0.0,0.0,0.0,0.0,0.0,0.0,0.0,0.04320397422890283,-0.02418786454455301,0.0018445643006157297,0.0,0.0,0.0,0.0,0.0,0.0,0.0,0.0,0.0
4.621,132,4,621000000,base_footprint,-0.0038060932728606264,0.0006244261460962983,0.9865978306471154,0.16312524117497107,0.0,0.0,0.0,0.0,0.0,0.0,0.0,0.0,0.0,-0.0003363466148224016,-0.00011315975117106954,0.019351580331060582,0.0,0.0,0.0,0.0,0.0,0.0,0.0,0.0,0.0,-0.021671867824853794,0.025390765950495497,-0.00023884778801822336,0.0,0.0,0.0,0.0,0.0,0.0,0.0,0.0,0.0
4.655,133,4,655000000,base_footprint,-0.003800521490805085,0.0006205130664185328,0.9864944753545127,0.1637492628837063,0.0,0.0,0.0,0.0,0.0,0.0,0.0,0.0,0.0,0.00037096446577885623,-0.000249321704625607,-0.06380038822957744,0.0,0.0,0.0,0.0,0.0,0.0,0.0,0.0,0.0,0.09119020427926931,-0.07929722416510956,0.000580216295129602,0.0,0.0,0.0,0.0,0.0,0.0,0.0,0.0,0.0
4.689,134,4,689000000,base_footprint,-0.0038002205273629797,0.0006228838864668553,0.9863670617197788,0.16451501418988268,0.0,0.0,0.0,0.0,0.0,0.0,0.0,0.0,0.0,3.222330000472082e-05,-0.00013388802725339263,-0.021743263866745608,0.0,0.0,0.0,0.0,0.0,0.0,0.0,0.0,0.0,0.06380908987853944,-0.06257685614003985,0.00047411335072382126,0.0,0.0,0.0,0.0,0.0,0.0,0.0,0.0,0.0
4.723,135,4,723000000,base_footprint,-0.003802608713053607,0.000623203418506867,0.9864154110090879,0.16422481148793258,0.0,0.0,0.0,0.0,0.0,0.0,0.0,0.0,0.0,0.0011770311326480738,0.000681003477687257,0.05219439404007349,0.0,0.0,0.0,0.0,0.0,0.0,0.0,0.0,0.0,0.12464636786436584,-0.0934054916425725,-0.0006915418883591088,0.0,0.0,0.0,0.0,0.0,0.0,0.0,0.0,0.0
4.757,136,4,757000000,base_footprint,-0.003804406812485214,0.0006295717589197632,0.98646115187188,0.16394976662322355,0.0,0.0,0.0,0.0,0.0,0.0,0.0,0.0,0.0,0.0002627346047303945,-0.00022999249830885053,-0.040686146011608144,0.0,0.0,0.0,0.0,0.0,0.0,0.0,0.0,0.0,-0.3901308395113823,0.3083810674495942,-0.0014879940416688017,0.0,0.0,0.0,0.0,0.0,0.0,0.0,0.0,0.0
4.791,137,4,791000000,base_footprint,-0.003802905632317141,0.0006211854492162272,0.986454291509918,0.1639911058535045,0.0,0.0,0.0,0.0,0.0,0.0,0.0,0.0,0.0,0.0004049428974737632,0.00045291556024746216,0.06335142607101009,0.0,0.0,0.0,0.0,0.0,0.0,0.0,0.0,0.0,0.11862176970361582,-0.09455154129909624,-0.00052372531256699,0.0,0.0,0.0,0.0,0.0,0.0,0.0,0.0,0.0
4.825,138,4,825000000,base_footprint,-0.0038067961910386457,0.0006188350482305649,0.9866274626720964,0.16294592737213126,0.0,0.0,0.0,0.0,0.0,0.0,0.0,0.0,0.0,-0.0006195925341389862,0.0002623768539016625,0.06397668168491884,0.0,0.0,0.0,0.0,0.0,0.0,0.0,0.0,0.0,0.008194808684797732,0.010727582902427178,0.0011251875769085948,0.0,0.0,0.0,0.0,0.0,0.0,0.0,0.0,0.0
4.86,139,4,859000000,base_footprint,-0.0037992997145118155,0.0006153506461678872,0.9869697554616715,0.16085984107038606,0.0,0.0,0.0,0.0,0.0,0.0,0.0,0.0,0.0,-0.0010654024756594732,0.000305151809741349,0.1436658847591875,0.0,0.0,0.0,0.0,0.0,0.0,0.0,0.0,0.0,0.14387157196682895,-0.07738730432650683,0.0016012210168675684,0.0,0.0,0.0,0.0,0.0,0.0,0.0,0.0,0.0
4.893,140,4,893000000,base_footprint,-0.0038004010978312072,0.0006077814998862026,0.987292020723834,0.15886992594003574,0.0,0.0,0.0,0.0,0.0,0.0,0.0,0.0,0.0,-0.000783600172860929,8.767766279605205e-05,0.08817819235702326,0.0,0.0,0.0,0.0,0.0,0.0,0.0,0.0,0.0,0.13189414723059115,-0.06558878021687337,0.0012026128999133336,0.0,0.0,0.0,0.0,0.0,0.0,0.0,0.0,0.0
4.928,141,4,927000000,base_footprint,-0.003807609402468284,0.0006002577467779097,0.9875020919035283,0.15755875185920665,0.0,0.0,0.0,0.0,0.0,0.0,0.0,0.0,0.0,-0.000724578688842536,0.00011045827945466594,0.07785624410027368,0.0,0.0,0.0,0.0,0.0,0.0,0.0,0.0,0.0,0.03294817624016975,-0.0033645502621110677,0.00015748916392051773,0.0,0.0,0.0,0.0,0.0,0.0,0.0,0.0,0.0
4.961,142,4,961000000,base_footprint,-0.0038078975339422548,0.0005960453256617517,0.9877019012008601,0.15630130840958203,0.0,0.0,0.0,0.0,0.0,0.0,0.0,0.0,0.0,-0.0006530051204452587,6.818990125520768e-05,0.07491436837845676,0.0,0.0,0.0,0.0,0.0,0.0,0.0,0.0,0.0,0.011180358227910116,0.012220746316873699,6.211605295173906e-05,0.0,0.0,0.0,0.0,0.0,0.0,0.0,0.0,0.0
4.996,143,4,995000000,base_footprint,-0.0038087492423949745,0.0005919033534034289,0.9878993500037417,0.15504843547038297,0.0,0.0,0.0,0.0,0.0,0.0,0.0,0.0,0.0,-0.0005630385271385916,6.390736159002703e-05,0.07470849364758209,0.0,0.0,0.0,0.0,0.0,0.0,0.0,0.0,0.0,0.010428336443427267,0.012750060139734738,-0.00011237697743319877,0.0,0.0,0.0,0.0,0.0,0.0,0.0,0.0,0.0
5.03,144,5,29000000,base_footprint,-0.003809777757172455,0.0005876876280949361,0.9880943589888204,0.1538007735714134,0.0,0.0,0.0,0.0,0.0,0.0,0.0,0.0,0.0,-0.0005121017852578899,4.173627563023715e-05,0.07424100071485744,0.0,0.0,0.0,0.0,0.0,0.0,0.0,0.0,0.0,0.009724110931464594,0.013122314775859274,1.8855827862767022e-05,0.0,0.0,0.0,0.0,0.0,0.0,0.0,0.0,0.0
5.065,145,5,63000000,base_footprint,-0.0038076323507645043,0.0005789839968342945,0.9882685005105617,0.15267788841878466,0.0,0.0,0.0,0.0,0.0,0.0,0.0,0.0,0.0,-0.00037730371234119086,-0.00016876243191635358,0.030393113523211994,0.0,0.0,0.0,0.0,0.0,0.0,0.0,0.0,0.0,-0.2016259936529646,0.16061983224187926,-0.0013655653185960777,0.0,0.0,0.0,0.0,0.0,0.0,0.0,0.0,0.0
5.097,146,5,97000000,base_footprint,-0.0038101197323168624,0.0005814922557569791,0.9882794792846399,0.1526067353666377,0.0,0.0,0.0,0.0,0.0,0.0,0.0,0.0,0.0,-0.0001607026540149198,-0.0003312439152649141,-0.013250744253972043,0.0,0.0,0.0,0.0,0.0,0.0,0.0,0.0,0.0,-0.07284099983221479,0.052913918325572885,-0.0006022924408599586,0.0,0.0,0.0,0.0,0.0,0.0,0.0,0.0,0.0
5.129,147,5,131000000,base_footprint,-0.0038036577562742093,0.0005779003453970525,0.9882301966278153,0.15292572279316966,0.0,0.0,0.0,0.0,0.0,0.0,0.0,0.0,0.0,-0.0018597590863815817,-0.0018717307232157991,-0.03097895347193676,0.0,0.0,0.0,0.0,0.0,0.0,0.0,0.0,0.0,0.01548505871914371,-0.014748958865989682,0.0015838217154284001,0.0,0.0,0.0,0.0,0.0,0.0,0.0,0.0,0.0
5.165,148,5,165000000,base_footprint,-0.0038072889755883903,0.0005869725554851021,0.9879658451449096,0.1546242181580232,0.0,0.0,0.0,0.0,0.0,0.0,0.0,0.0,0.0,0.001449728352329001,-0.0009133713623746408,-0.0802210046037886,0.0,0.0,0.0,0.0,0.0,0.0,0.0,0.0,0.0,0.18147832882151171,-0.15622249115888037,0.0006083333876602998,0.0,0.0,0.0,0.0,0.0,0.0,0.0,0.0,0.0
5.201,149,5,199000000,base_footprint,-0.003809521029301077,0.0005890379554196746,0.9879064491984412,0.15500318776058183,0.0,0.0,0.0,0.0,0.0,0.0,0.0,0.0,0.0,0.0008991649599583877,0.0005235747507174925,0.00625360329792624,0.0,0.0,0.0,0.0,0.0,0.0,0.0,0.0,0.0,0.08416424377554398,-0.06761743544217809,-0.0013987160130999028,0.0,0.0,0.0,0.0,0.0,0.0,0.0,0.0,0.0
5.231,150,5,233000000,base_footprint,-0.003803822985574386,0.000588760159943943,0.9879296399840892,0.1548554510925472,0.0,0.0,0.0,0.0,0.0,0.0,0.0,0.0,0.0,-0.0019113663649588369,-0.0034261425090212566,0.04234244222384673,0.0,0.0,0.0,0.0,0.0,0.0,0.0,0.0,0.0,0.00391578302620036,-0.0006829443223346457,0.005930715233108612,0.0,0.0,0.0,0.0,0.0,0.0,0.0,0.0,0.0
5.267,151,5,267000000,base_footprint,-0.003812009869616648,0.0005880672858889176,0.9881730218475607,0.15329449321577515,0.0,0.0,0.0,0.0,0.0,0.0,0.0,0.0,0.0,-0.000659056220695834,-0.0009686026097614401,0.06974109887122759,0.0,0.0,0.0,0.0,0.0,0.0,0.0,0.0,0.0,-0.08146602654199027,0.08269427970815085,-0.004443426337804651,0.0,0.0,0.0,0.0,0.0,0.0,0.0,0.0,0.0
5.301,152,5,301000000,base_footprint,-0.003809923288487883,0.0005823571512635327,0.9882236524117842,0.15296783373832987,0.0,0.0,0.0,0.0,0.0,0.0,0.0,0.0,0.0,-0.00024341755309176816,0.0005158664654304313,0.022577982932840992,0.0,0.0,0.0,0.0,0.0,0.0,0.0,0.0,0.0,-0.18853013042194183,0.13905993735376598,-0.0034818952513812024,0.0,0.0,0.0,0.0,0.0,0.0,0.0,0.0,0.0
5.335,153,5,335000000,base_footprint,-0.0038043625645071684,0.0005809898172201177,0.9883013501356054,0.15246517830786688,0.0,0.0,0.0,0.0,0.0,0.0,0.0,0.0,0.0,-8.4739869114375e-06,-0.0013581276237584628,0.060956642368001086,0.0,0.0,0.0,0.0,0.0,0.0,0.0,0.0,0.0,0.04716239732423172,-0.026266655076084857,0.003593746783783235,0.0,0.0,0.0,0.0,0.0,0.0,0.0,0.0,0.0
5.369,154,5,369000000,base_footprint,-0.003805629022181307,0.0005758836005029888,0.9885909539398848,0.15057593212081702,0.0,0.0,0.0,0.0,0.0,0.0,0.0,0.0,0.0,-0.0009139452023694894,0.00011372142950582117,0.10410953617215123,0.0,0.0,0.0,0.0,0.0,0.0,0.0,0.0,0.0,0.20647957679386067,-0.11466691611451038,-0.00035657020989412363,0.0,0.0,0.0,0.0,0.0,0.0,0.0,0.0,0.0
5.411,155,5,403000000,base_footprint,-0.0038129506157624283,0.0005671706795130755,0.9888296226635458,0.14900039284542801,0.0,0.0,0.0,0.0,0.0,0.0,0.0,0.0,0.0,-0.0008106709730910106,0.0002599283708815053,0.09354231911446005,0.0,0.0,0.0,0.0,0.0,0.0,0.0,0.0,0.0,0.03546496106785493,0.00033514784913740193,-6.664688960198573e-06,0.0,0.0,0.0,0.0,0.0,0.0,0.0,0.0,0.0
5.44,156,5,437000000,base_footprint,-0.0038079802615721076,0.0005633886694551082,0.9890397478073721,0.1475993195670781,0.0,0.0,0.0,0.0,0.0,0.0,0.0,0.0,0.0,0.0009855381698833704,0.002343134089725846,0.03527983105987916,0.0,0.0,0.0,0.0,0.0,0.0,0.0,0.0,0.0,0.022751753539243105,0.007858276161505333,-0.003282432173123283,0.0,0.0,0.0,0.0,0.0,0.0,0.0,0.0,0.0
5.471,157,5,471000000,base_footprint,-0.003813668022647062,0.0005608534109150189,0.9891289565310266,0.14700016575333213,0.0,0.0,0.0,0.0,0.0,0.0,0.0,0.0,0.0,-0.0002713696954468594,-2.33884177966537e-05,0.035822186004207286,0.0,0.0,0.0,0.0,0.0,0.0,0.0,0.0,0.0,0.006109546925435329,0.004899755248785283,0.0035022270494691515,0.0,0.0,0.0,0.0,0.0,0.0,0.0,0.0,0.0
5.505,158,5,505000000,base_footprint,-0.003814270504516362,0.0005592026321746444,0.9892171819860349,0.14640527824003624,0.0,0.0,0.0,0.0,0.0,0.0,0.0,0.0,0.0,-0.00022014364159534164,-4.9731047076047516e-05,0.035311384980091065,0.0,0.0,0.0,0.0,0.0,0.0,0.0,0.0,0.0,0.004498589830249762,0.0063829870438311224,-4.253254893399532e-06,0.0,0.0,0.0,0.0,0.0,0.0,0.0,0.0,0.0
5.539,159,5,539000000,base_footprint,-0.0038156890881274087,0.0005581357889316511,0.989308751545036,0.14578519512497254,0.0,0.0,0.0,0.0,0.0,0.0,0.0,0.0,0.0,-0.0007749045622197157,-0.00021455297955255565,0.043340456683634655,0.0,0.0,0.0,0.0,0.0,0.0,0.0,0.0,0.0,0.0009497242943816841,0.009688907814525588,0.0008622103852669264,0.0,0.0,0.0,0.0,0.0,0.0,0.0,0.0,0.0
5.573,160,5,573000000,base_footprint,-0.003813407750662346,0.000551719202644536,0.9893968230611772,0.14518636314646916,0.0,0.0,0.0,0.0,0.0,0.0,0.0,0.0,0.0,-0.001623448056954269,-0.0007301026349051916,0.023046034819470606,0.0,0.0,0.0,0.0,0.0,0.0,0.0,0.0,0.0,-0.029811208374080793,0.028595864820794202,0.001126034325725242,0.0,0.0,0.0,0.0,0.0,0.0,0.0,0.0,0.0
5.607,161,5,607000000,base_footprint,-0.0038110859853646654,0.0005475610538980769,0.9894579088596905,0.14476954926887384,0.0,0.0,0.0,0.0,0.0,0.0,0.0,0.0,0.0,-0.00028942466441224087,-0.00011346461391163458,0.03398636497268649,0.0,0.0,0.0,0.0,0.0,0.0,0.0,0.0,0.0,0.02282977423729554,-0.008609655010614434,-0.001792184705703003,0.0,0.0,0.0,0.0,0.0,0.0,0.0,0.0,0.0
5.641,162,5,641000000,base_footprint,-0.0038149168118337367,0.0005477967830488664,0.9895582616633939,0.14408189720476852,0.0,0.0,0.0,0.0,0.0,0.0,0.0,0.0,0.0,-0.00020840010771393353,6.508838193391905e-05,0.03938008118854251,0.0,0.0,0.0,0.0,0.0,0.0,0.0,0.0,0.0,0.0219219895143175,-0.0036678392342749666,-0.0002681698078413698,0.0,0.0,0.0,0.0,0.0,0.0,0.0,0.0,0.0
5.674,163,5,675000000,base_footprint,-0.0038157312409675425,0.0005446689612966822,0.9896547000465333,0.14341798425101931,0.0,0.0,0.0,0.0,0.0,0.0,0.0,0.0,0.0,-0.00034724171135031554,2.5121705140624058e-05,0.039175672570152704,0.0,0.0,0.0,0.0,0.0,0.0,0.0,0.0,0.0,0.00567884163961343,0.006609509637150784,0.00012499081578508275,0.0,0.0,0.0,0.0,0.0,0.0,0.0,0.0,0.0
5.709,164,5,709000000,base_footprint,-0.003816849750200114,0.00054145307544367,0.989750617614279,0.14275452153506293,0.0,0.0,0.0,0.0,0.0,0.0,0.0,0.0,0.0,-0.0003779916620777587,3.463398497365567e-05,0.039360180828225025,0.0,0.0,0.0,0.0,0.0,0.0,0.0,0.0,0.0,0.004999250876215747,0.0069649616666640395,6.606178330842254e-07,0.0,0.0,0.0,0.0,0.0,0.0,0.0,0.0,0.0
5.744,165,5,743000000,base_footprint,-0.0038181201606598235,0.0005383989990840215,0.9898916136407389,0.14177350009324985,0.0,0.0,0.0,0.0,0.0,0.0,0.0,0.0,0.0,-0.0013090049884847805,0.0015165767813099047,0.09881974061606544,0.0,0.0,0.0,0.0,0.0,0.0,0.0,0.0,0.0,-0.013213884506530134,0.022605229601103356,-0.0027081382675357467,0.0,0.0,0.0,0.0,0.0,0.0,0.0,0.0,0.0
5.775,166,5,777000000,base_footprint,-0.003819379535891574,0.0005310018288778483,0.9901220927331525,0.1401548138978501,0.0,0.0,0.0,0.0,0.0,0.0,0.0,0.0,0.0,-0.0009203097331216535,0.0003453078825087946,0.09643434641479282,0.0,0.0,0.0,0.0,0.0,0.0,0.0,0.0,0.0,0.01758707842240711,0.014898262814063576,0.0024392648320916643,0.0,0.0,0.0,0.0,0.0,0.0,0.0,0.0,0.0
5.817,167,5,811000000,base_footprint,-0.0038193691351912583,0.0005255942090001428,0.990357931855521,0.1384785289530186,0.0,0.0,0.0,0.0,0.0,0.0,0.0,0.0,0.0,-0.0008823013704709025,-0.0005531189221787473,0.1055560752525942,0.0,0.0,0.0,0.0,0.0,0.0,0.0,0.0,0.0,-0.008196615225755327,0.030369791707516556,0.0013855330581108813,0.0,0.0,0.0,0.0,0.0,0.0,0.0,0.0,0.0
5.845,168,5,845000000,base_footprint,-0.0038167468260799004,0.0005222174274222449,0.990554959436364,0.1370621467387971,0.0,0.0,0.0,0.0,0.0,0.0,0.0,0.0,0.0,-0.0005243168869652026,0.001645548875533794,0.053451965898672744,0.0,0.0,0.0,0.0,0.0,0.0,0.0,0.0,0.0,0.04010789293415322,-0.0029328471236059477,-0.0034332172862948864,0.0,0.0,0.0,0.0,0.0,0.0,0.0,0.0,0.0
5.883,169,5,879000000,base_footprint,-0.003820236841370241,0.000517424916067395,0.9906815442520654,0.13614409990989312,0.0,0.0,0.0,0.0,0.0,0.0,0.0,0.0,0.0,-0.0005595200001608763,-5.358501417781521e-05,0.05544579834970195,0.0,0.0,0.0,0.0,0.0,0.0,0.0,0.0,0.0,0.00294134069602677,0.012242340319532237,0.0027650221832102185,0.0,0.0,0.0,0.0,0.0,0.0,0.0,0.0,0.0
5.912,170,5,913000000,base_footprint,-0.003820321247154961,0.0005146696629504459,0.99080874638361,0.13521526670626247,0.0,0.0,0.0,0.0,0.0,0.0,0.0,0.0,0.0,-0.0004334756124951762,1.5421025865422272e-07,0.05534312959386627,0.0,0.0,0.0,0.0,0.0,0.0,0.0,0.0,0.0,0.007161070816331949,0.009883351891280234,-0.00017991095567710798,0.0,0.0,0.0,0.0,0.0,0.0,0.0,0.0,0.0
5.943,171,5,947000000,base_footprint,-0.0038230355671985358,0.0005073923017029697,0.9909640181146742,0.13407252423268592,0.0,0.0,0.0,0.0,0.0,0.0,0.0,0.0,0.0,0.00014588347573679097,-0.002498115110129787,0.09864964307699753,0.0,0.0,0.0,0.0,0.0,0.0,0.0,0.0,0.0,-0.2937057008796518,0.1917548095773361,0.00023896726690240911,0.0,0.0,0.0,0.0,0.0,0.0,0.0,0.0,0.0
5.981,172,5,981000000,base_footprint,-0.0038216767943268803,0.0005075132817500287,0.9911262840722445,0.1328677020117873,0.0,0.0,0.0,0.0,0.0,0.0,0.0,0.0,0.0,-0.0007316200957489525,-0.0004998383685328193,0.04929376882117175,0.0,0.0,0.0,0.0,0.0,0.0,0.0,0.0,0.0,0.019168388775891363,0.0069776306663841235,-0.0018003881268240031,0.0,0.0,0.0,0.0,0.0,0.0,0.0,0.0,0.0
6.015,173,6,15000000,base_footprint,-0.003823692315673225,0.0005052610399480397,0.991232557072278,0.13207248724965376,0.0,0.0,0.0,0.0,0.0,0.0,0.0,0.0,0.0,-0.0004479689823021584,-1.0472713620377177e-05,0.044486720396770076,0.0,0.0,0.0,0.0,0.0,0.0,0.0,0.0,0.0,-0.0016997632204517684,0.013108628772373704,-0.0005891149175000582,0.0,0.0,0.0,0.0,0.0,0.0,0.0,0.0,0.0
6.05,174,6,49000000,base_footprint,-0.0038188301041422066,0.00049552251416453,0.9913548141281934,0.13115183376121375,0.0,0.0,0.0,0.0,0.0,0.0,0.0,0.0,0.0,-0.0007740770874639937,-0.00046867490408007033,0.06660574447005821,0.0,0.0,0.0,0.0,0.0,0.0,0.0,0.0,0.0,-0.08529054017431195,0.062026255036437154,-0.0001661725434756515,0.0,0.0,0.0,0.0,0.0,0.0,0.0,0.0,0.0
6.083,175,6,83000000,base_footprint,-0.003818618599208044,0.000490301778900125,0.9915205438875976,0.12989298982240066,0.0,0.0,0.0,0.0,0.0,0.0,0.0,0.0,0.0,-0.0007020720298552904,-2.3458178741377457e-05,0.08942171285504087,0.0,0.0,0.0,0.0,0.0,0.0,0.0,0.0,0.0,0.049542338732282164,-0.011454365118920038,-0.00024597236013328746,0.0,0.0,0.0,0.0,0.0,0.0,0.0,0.0,0.0
6.117,176,6,117000000,base_footprint,-0.0038227031606815885,0.00048609058943937416,0.9917550889115553,0.12808978989176842,0.0,0.0,0.0,0.0,0.0,0.0,0.0,0.0,0.0,-0.0007588593991662642,0.00010707978112617742,0.11121779301168225,0.0,0.0,0.0,0.0,0.0,0.0,0.0,0.0,0.0,0.05155314743918228,-0.004130279375309188,0.0001628702979294046,0.0,0.0,0.0,0.0,0.0,0.0,0.0,0.0,0.0
6.151,177,6,151000000,base_footprint,-0.003820028407722851,0.0004777365968035955,0.9919449163202462,0.12661146131819256,0.0,0.0,0.0,0.0,0.0,0.0,0.0,0.0,0.0,0.0006031862722528011,-0.0002523690074803957,0.05703952071220986,0.0,0.0,0.0,0.0,0.0,0.0,0.0,0.0,0.0,0.3172665856804235,-0.15474262437719646,0.003869491947111655,0.0,0.0,0.0,0.0,0.0,0.0,0.0,0.0,0.0
6.185,178,6,185000000,base_footprint,-0.0038250397417244186,0.0004755145415467839,0.9920747308713147,0.12559009245758024,0.0,0.0,0.0,0.0,0.0,0.0,0.0,0.0,0.0,-0.000512229158303951,7.161426248900823e-05,0.06041058460879298,0.0,0.0,0.0,0.0,0.0,0.0,0.0,0.0,0.0,0.009677512652310507,0.009345655194826488,-0.0013146021742878242,0.0,0.0,0.0,0.0,0.0,0.0,0.0,0.0,0.0
6.22,179,6,219000000,base_footprint,-0.0038261241838611075,0.00047119797103301514,0.9922039271992658,0.12456526641305835,0.0,0.0,0.0,0.0,0.0,0.0,0.0,0.0,0.0,-0.0005780333618116193,6.517273923094515e-05,0.06076489267472049,0.0,0.0,0.0,0.0,0.0,0.0,0.0,0.0,0.0,0.0063433832749929635,0.011660673873321493,7.898596989405713e-05,0.0,0.0,0.0,0.0,0.0,0.0,0.0,0.0,0.0
6.253,180,6,253000000,base_footprint,-0.003827876853904207,0.0004646905802872933,0.992390392339987,0.12307087637919242,0.0,0.0,0.0,0.0,0.0,0.0,0.0,0.0,0.0,-0.0007554408906569935,-0.0001248427613966066,0.10170071787467581,0.0,0.0,0.0,0.0,0.0,0.0,0.0,0.0,0.0,0.000402118172504822,0.021719257658124873,0.000453835369364188,0.0,0.0,0.0,0.0,0.0,0.0,0.0,0.0,0.0
6.287,181,6,287000000,base_footprint,-0.0038297033217554568,0.00045823748815426724,0.9926023851114506,0.12134920049976168,0.0,0.0,0.0,0.0,0.0,0.0,0.0,0.0,0.0,-0.0009500876046338895,0.0002977212669815149,0.10333744424765676,0.0,0.0,0.0,0.0,0.0,0.0,0.0,0.0,0.0,0.007524522827875496,0.021435966333247607,-0.0006894183214301746,0.0,0.0,0.0,0.0,0.0,0.0,0.0,0.0,0.0
6.321,182,6,321000000,base_footprint,-0.0038256543029409383,0.0004545234141787162,0.9928235503637316,0.11952638043869367,0.0,0.0,0.0,0.0,0.0,0.0,0.0,0.0,0.0,-0.0009292380346733978,0.0003114965189995989,0.10584840685118486,0.0,0.0,0.0,0.0,0.0,0.0,0.0,0.0,0.0,0.005458135729503046,0.02354606703748105,-5.932967276941135e-05,0.0,0.0,0.0,0.0,0.0,0.0,0.0,0.0,0.0
6.355,183,6,355000000,base_footprint,-0.0038301617288664103,0.0004481646227571267,0.9929713889709595,0.11829179893249278,0.0,0.0,0.0,0.0,0.0,0.0,0.0,0.0,0.0,-0.0006148918335113528,-0.0006909204520459057,0.06250977795014054,0.0,0.0,0.0,0.0,0.0,0.0,0.0,0.0,0.0,0.019915059341308043,0.008079864811269813,0.0015245425713024414,0.0,0.0,0.0,0.0,0.0,0.0,0.0,0.0,0.0
6.389,184,6,389000000,base_footprint,-0.0038295597955954603,0.00044529229613524503,0.9930948781428314,0.11725058291120753,0.0,0.0,0.0,0.0,0.0,0.0,0.0,0.0,0.0,-0.0004775403156358644,2.4969996474147653e-05,0.061813606931822654,0.0,0.0,0.0,0.0,0.0,0.0,0.0,0.0,0.0,0.008113385978428795,0.011093620917775672,-0.0010885770198153933,0.0,0.0,0.0,0.0,0.0,0.0,0.0,0.0,0.0
6.423,185,6,423000000,base_footprint,-0.003829857141889183,0.0004421426239294222,0.9932167167080939,0.11621398519871307,0.0,0.0,0.0,0.0,0.0,0.0,0.0,0.0,0.0,-0.0004334939693237081,-4.280717995087314e-06,0.061450083230618485,0.0,0.0,0.0,0.0,0.0,0.0,0.0,0.0,0.0,0.00631934118099773,0.011955312353357141,1.921806904413693e-05,0.0,0.0,0.0,0.0,0.0,0.0,0.0,0.0,0.0
6.455,186,6,457000000,base_footprint,-0.0038307975842840247,0.00043867274082542816,0.9933526196236678,0.11504653685744586,0.0,0.0,0.0,0.0,0.0,0.0,0.0,0.0,0.0,-0.00045447247839600145,2.3876954340777167e-05,0.07072099986600051,0.0,0.0,0.0,0.0,0.0,0.0,0.0,0.0,0.0,0.003877658013276215,0.01522691208054975,-7.255896237566277e-05,0.0,0.0,0.0,0.0,0.0,0.0,0.0,0.0,0.0
6.487,187,6,491000000,base_footprint,-0.003832340003705152,0.00043477344638186344,0.9934831562029071,0.11391375019398045,0.0,0.0,0.0,0.0,0.0,0.0,0.0,0.0,0.0,-0.0004890990113122782,-1.8499864407948988e-05,0.058387084861867125,0.0,0.0,0.0,0.0,0.0,0.0,0.0,0.0,0.0,-0.015044940996426464,0.024170748752775813,0.00026758426695213224,0.0,0.0,0.0,0.0,0.0,0.0,0.0,0.0,0.0
6.526,188,6,525000000,base_footprint,-0.0038264754947623584,0.0004257081523716291,0.9935791735779296,0.11307343936599683,0.0,0.0,0.0,0.0,0.0,0.0,0.0,0.0,0.0,-0.00042695097503901995,-0.00011983370705226433,0.05154349035473376,0.0,0.0,0.0,0.0,0.0,0.0,0.0,0.0,0.0,-0.007350744262013642,0.015410649949792129,-2.1333827188767163e-05,0.0,0.0,0.0,0.0,0.0,0.0,0.0,0.0,0.0
6.558,189,6,559000000,base_footprint,-0.003830430991022938,0.0004247712367616098,0.9937008978261642,0.11199854029090939,0.0,0.0,0.0,0.0,0.0,0.0,0.0,0.0,0.0,-0.0007628082555020261,-0.00040044097258725873,0.06800110878251935,0.0,0.0,0.0,0.0,0.0,0.0,0.0,0.0,0.0,0.03967673462141523,-0.004087644275824279,0.0006588549090386627,0.0,0.0,0.0,0.0,0.0,0.0,0.0,0.0,0.0
6.594,190,6,593000000,base_footprint,-0.003830691705570017,0.0004197333274421903,0.9938306607030089,0.11084118129834113,0.0,0.0,0.0,0.0,0.0,0.0,0.0,0.0,0.0,-0.00048552810028813965,-5.6468953185609926e-05,0.06828391766128247,0.0,0.0,0.0,0.0,0.0,0.0,0.0,0.0,0.0,0.008322251845671879,0.012690323471800545,-0.0004859523246726122,0.0,0.0,0.0,0.0,0.0,0.0,0.0,0.0,0.0
6.627,191,6,627000000,base_footprint,-0.0038314438076551558,0.000414803269310892,0.9939589295614822,0.10968497764775743,0.0,0.0,0.0,0.0,0.0,0.0,0.0,0.0,0.0,-0.0005577739240118613,2.6973170770016564e-05,0.06820766594453823,0.0,0.0,0.0,0.0,0.0,0.0,0.0,0.0,0.0,0.0074922854626253066,0.012994541122661343,-0.000156019772843889,0.0,0.0,0.0,0.0,0.0,0.0,0.0,0.0,0.0
6.66,192,6,661000000,base_footprint,-0.003830992800786183,0.00041399449185455935,0.994057113788577,0.10879157425575371,0.0,0.0,0.0,0.0,0.0,0.0,0.0,0.0,0.0,-6.711425928400763e-05,0.000971902777671731,0.07776123994143047,0.0,0.0,0.0,0.0,0.0,0.0,0.0,0.0,0.0,-0.5640323641495874,0.27561709473107543,-0.005752051936381087,0.0,0.0,0.0,0.0,0.0,0.0,0.0,0.0,0.0
6.695,193,6,695000000,base_footprint,-0.0038334770209479244,0.0004056114918662936,0.994202539650492,0.10745440933605094,0.0,0.0,0.0,0.0,0.0,0.0,0.0,0.0,0.0,-0.000622237557229879,0.00025413889413668624,0.07518750593247753,0.0,0.0,0.0,0.0,0.0,0.0,0.0,0.0,0.0,0.26710508143374395,-0.10558406435885337,0.0029707446336998513,0.0,0.0,0.0,0.0,0.0,0.0,0.0,0.0,0.0
6.729,194,6,729000000,base_footprint,-0.003834537820701582,0.00040043658211842275,0.9943395028634496,0.10617951316291288,0.0,0.0,0.0,0.0,0.0,0.0,0.0,0.0,0.0,-0.0007407242033909358,7.346164507220216e-05,0.07552201749504131,0.0,0.0,0.0,0.0,0.0,0.0,0.0,0.0,0.0,0.006320065221097115,0.014282713209301386,0.0002969472235552233,0.0,0.0,0.0,0.0,0.0,0.0,0.0,0.0,0.0
6.763,195,6,763000000,base_footprint,-0.0038358382255784867,0.00039318387826459865,0.9945325697202025,0.10435563960455341,0.0,0.0,0.0,0.0,0.0,0.0,0.0,0.0,0.0,-0.0009077087160201307,6.675895919924977e-05,0.10748943937714664,0.0,0.0,0.0,0.0,0.0,0.0,0.0,0.0,0.0,0.004311055582296096,0.023023339101281955,6.132063973287128e-05,0.0,0.0,0.0,0.0,0.0,0.0,0.0,0.0,0.0
6.798,196,6,797000000,base_footprint,-0.003837839232920091,0.00038609526083278775,0.9947240400706907,0.10251441862447883,0.0,0.0,0.0,0.0,0.0,0.0,0.0,0.0,0.0,-0.0009439212447474048,-8.101686603171325e-05,0.11354366664363323,0.0,0.0,0.0,0.0,0.0,0.0,0.0,0.0,0.0,-0.00494417129940329,0.025914798023119637,0.00019420157471246235,0.0,0.0,0.0,0.0,0.0,0.0,0.0,0.0,0.0
6.831,197,6,831000000,base_footprint,-0.0038385240462194318,0.00037955393783413,0.9949180790942335,0.10061380403997967,0.0,0.0,0.0,0.0,0.0,0.0,0.0,0.0,0.0,-0.0010037200692403188,0.0007468335513983258,0.10778644924088977,0.0,0.0,0.0,0.0,0.0,0.0,0.0,0.0,0.0,0.02229491186016193,0.015873195442055357,-0.0012517805429558952,0.0,0.0,0.0,0.0,0.0,0.0,0.0,0.0,0.0
6.866,198,6,865000000,base_footprint,-0.003833168235256316,0.0003775586927822188,0.9951057456450259,0.0987406666727087,0.0,0.0,0.0,0.0,0.0,0.0,0.0,0.0,0.0,0.0005142573381290867,-0.0035335820754255473,0.11245501004137894,0.0,0.0,0.0,0.0,0.0,0.0,0.0,0.0,0.0,0.035114363968635307,0.010138896611095271,0.0063724208854012915,0.0,0.0,0.0,0.0,0.0,0.0,0.0,0.0,0.0
6.901,199,6,899000000,base_footprint,-0.0038393199146499538,0.0003676634132306971,0.9952897799381668,0.09686783984813102,0.0,0.0,0.0,0.0,0.0,0.0,0.0,0.0,0.0,-0.0020762426957404443,-0.0002479145104173769,0.12039774744116763,0.0,0.0,0.0,0.0,0.0,0.0,0.0,0.0,0.0,0.2944900356852795,-0.0956065532209747,-0.0011063838686299042,0.0,0.0,0.0,0.0,0.0,0.0,0.0,0.0,0.0
6.933,200,6,933000000,base_footprint,-0.0038397673495428664,0.00036097375026156343,0.9954818395830208,0.09487377374732203,0.0,0.0,0.0,0.0,0.0,0.0,0.0,0.0,0.0,-0.0006153557519614418,0.00019023551293596792,0.11891185000342745,0.0,0.0,0.0,0.0,0.0,0.0,0.0,0.0,0.0,0.0017026234772166803,0.02813173291820798,-0.001911047728215918,0.0,0.0,0.0,0.0,0.0,0.0,0.0,0.0,0.0
6.9670000000000005,201,6,967000000,base_footprint,-0.003839459984182706,0.00035228732781959337,0.9956627751094081,0.09295575669156193,0.0,0.0,0.0,0.0,0.0,0.0,0.0,0.0,0.0,-0.0016157909282640856,-0.0005479049122070304,0.10121986268156065,0.0,0.0,0.0,0.0,0.0,0.0,0.0,0.0,0.0,-0.023878379907811484,0.03561330305117789,0.00148469756514305,0.0,0.0,0.0,0.0,0.0,0.0,0.0,0.0,0.0
7.001,202,7,1000000,base_footprint,-0.0038347352912513617,0.00034172908575411993,0.9958184889756609,0.09127275081156194,0.0,0.0,0.0,0.0,0.0,0.0,0.0,0.0,0.0,-0.0008219541968726584,-7.903313573367324e-05,0.1065154155949403,0.0,0.0,0.0,0.0,0.0,0.0,0.0,0.0,0.0,0.018768686549342096,0.015827544012508313,-0.0009380337850715626,0.0,0.0,0.0,0.0,0.0,0.0,0.0,0.0,0.0
7.037,203,7,35000000,base_footprint,-0.0038504553697747998,0.0003408151978993796,0.9960006014581899,0.08926286872698198,0.0,0.0,0.0,0.0,0.0,0.0,0.0,0.0,0.0,-0.001141314627062399,0.0008881698082129884,0.13958445298534758,0.0,0.0,0.0,0.0,0.0,0.0,0.0,0.0,0.0,-0.09897318547805424,0.06388052989094513,-0.0024072839755445905,0.0,0.0,0.0,0.0,0.0,0.0,0.0,0.0,0.0
7.069,204,7,69000000,base_footprint,-0.0038393147658440795,0.0003289812559957831,0.9961816425922058,0.08721975920487758,0.0,0.0,0.0,0.0,0.0,0.0,0.0,0.0,0.0,-0.0010552668884851407,-0.0005786374340752139,0.11323068204493285,0.0,0.0,0.0,0.0,0.0,0.0,0.0,0.0,0.0,-0.17625990755505827,0.09232684399252576,0.0006891349526542646,0.0,0.0,0.0,0.0,0.0,0.0,0.0,0.0,0.0
7.102,205,7,103000000,base_footprint,-0.0038399624841917103,0.00032112342339553644,0.9963481373555098,0.08529678045549713,0.0,0.0,0.0,0.0,0.0,0.0,0.0,0.0,0.0,-0.0008331868242868726,-3.0691022871265572e-06,0.11334634164453261,0.0,0.0,0.0,0.0,0.0,0.0,0.0,0.0,0.0,0.009554507192450544,0.021570033514548687,-0.0007328785689330907,0.0,0.0,0.0,0.0,0.0,0.0,0.0,0.0,0.0
7.135,206,7,137000000,base_footprint,-0.003836528166838393,0.00031096746190170075,0.9965086963384381,0.08340025463228141,0.0,0.0,0.0,0.0,0.0,0.0,0.0,0.0,0.0,-0.00014978730263609847,0.0010171448404954718,0.1019640856100461,0.0,0.0,0.0,0.0,0.0,0.0,0.0,0.0,0.0,0.15655422386941162,-0.029770319847228235,0.00012906687680995662,0.0,0.0,0.0,0.0,0.0,0.0,0.0,0.0,0.0
7.172,207,7,171000000,base_footprint,-0.0038418814399698176,0.0003094923774014667,0.9965870403211292,0.08245856671954582,0.0,0.0,0.0,0.0,0.0,0.0,0.0,0.0,0.0,-0.0004286299467239997,7.830754392566276e-06,0.042894797184944655,0.0,0.0,0.0,0.0,0.0,0.0,0.0,0.0,0.0,0.1971706360408329,-0.054370742575363354,0.0025113541285215818,0.0,0.0,0.0,0.0,0.0,0.0,0.0,0.0,0.0
7.206,208,7,205000000,base_footprint,-0.003843045191609493,0.00030620571517587294,0.9966472154360296,0.08172799523617238,0.0,0.0,0.0,0.0,0.0,0.0,0.0,0.0,0.0,-0.0004817813274165301,-2.672520272916884e-05,0.04318167326665043,0.0,0.0,0.0,0.0,0.0,0.0,0.0,0.0,0.0,0.003127702804548513,0.008854245558253638,2.2535482091748656e-05,0.0,0.0,0.0,0.0,0.0,0.0,0.0,0.0,0.0
7.239,209,7,239000000,base_footprint,-0.0038376903191710676,0.0003074783558809409,0.9966986954587438,0.08109801514780203,0.0,0.0,0.0,0.0,0.0,0.0,0.0,0.0,0.0,-0.00017513415075524753,-0.0008228322204088576,0.022154484812515585,0.0,0.0,0.0,0.0,0.0,0.0,0.0,0.0,0.0,-0.1050351236955989,0.045011396396542905,0.0004538500489154895,0.0,0.0,0.0,0.0,0.0,0.0,0.0,0.0,0.0
7.273,210,7,273000000,base_footprint,-0.0038384262157422962,0.000305577762016338,0.9967642073585717,0.08028877901211305,0.0,0.0,0.0,0.0,0.0,0.0,0.0,0.0,0.0,-0.0004897693973818779,-0.00012705282321872214,0.06523505705924185,0.0,0.0,0.0,0.0,0.0,0.0,0.0,0.0,0.0,-0.10294618325229511,0.04477225628913602,-0.001880770670015021,0.0,0.0,0.0,0.0,0.0,0.0,0.0,0.0,0.0
7.307,211,7,307000000,base_footprint,-0.0038471651554362885,0.00029508322660238006,0.9968625022707189,0.0790586099847273,0.0,0.0,0.0,0.0,0.0,0.0,0.0,0.0,0.0,-0.0006056801648181937,-0.0001365127219149173,0.08278474340697553,0.0,0.0,0.0,0.0,0.0,0.0,0.0,0.0,0.0,-0.03835640246462166,0.02725605512314413,-0.0001736808311405135,0.0,0.0,0.0,0.0,0.0,0.0,0.0,0.0,0.0
7.341,212,7,341000000,base_footprint,-0.003847123764165539,0.0002860552817345253,0.9969956499969789,0.07736143547156278,0.0,0.0,0.0,0.0,0.0,0.0,0.0,0.0,0.0,-0.0007492403161408136,0.00030373321202152104,0.09054979893624077,0.0,0.0,0.0,0.0,0.0,0.0,0.0,0.0,0.0,-0.2250716999471622,0.0944959751584219,-0.002332616649653753,0.0,0.0,0.0,0.0,0.0,0.0,0.0,0.0,0.0
7.376,213,7,375000000,base_footprint,-0.0038456189812288055,0.00028518255161141186,0.9971275654579934,0.07564223746941082,0.0,0.0,0.0,0.0,0.0,0.0,0.0,0.0,0.0,-0.0010964869665920519,0.000991915452967905,0.11416021100562838,0.0,0.0,0.0,0.0,0.0,0.0,0.0,0.0,0.0,-0.1728532987635202,0.0753362387847839,-0.0027371869332312075,0.0,0.0,0.0,0.0,0.0,0.0,0.0,0.0,0.0
7.412,214,7,409000000,base_footprint,-0.0038469696914677646,0.0002788005690676746,0.9972724721738159,0.07370711864373337,0.0,0.0,0.0,0.0,0.0,0.0,0.0,0.0,0.0,-0.0007086698922138545,0.00010146071042241228,0.11357919870476284,0.0,0.0,0.0,0.0,0.0,0.0,0.0,0.0,0.0,0.0014090212924439695,0.022983623142829708,0.0011064175229639531,0.0,0.0,0.0,0.0,0.0,0.0,0.0,0.0,0.0
7.443,215,7,443000000,base_footprint,-0.0038363768460300592,0.00027051755452842314,0.9973826089372062,0.07220208045866985,0.0,0.0,0.0,0.0,0.0,0.0,0.0,0.0,0.0,4.730603456558077e-05,0.00034809967201556563,0.014197701797463217,0.0,0.0,0.0,0.0,0.0,0.0,0.0,0.0,0.0,0.10488836662892992,-0.011052918253448979,0.0009075001775933416,0.0,0.0,0.0,0.0,0.0,0.0,0.0,0.0,0.0
7.476,216,7,477000000,base_footprint,-0.0038410678002757668,0.00027154224086136714,0.9973157575320514,0.07311943819009935,0.0,0.0,0.0,0.0,0.0,0.0,0.0,0.0,0.0,0.0005118496070911527,0.00022128627440222336,-0.060663326003112965,0.0,0.0,0.0,0.0,0.0,0.0,0.0,0.0,0.0,0.148694193758675,-0.05572479255948515,0.0010105345405256021,0.0,0.0,0.0,0.0,0.0,0.0,0.0,0.0,0.0
7.5120000000000005,217,7,511000000,base_footprint,-0.0038399343015208137,0.00027393542257586677,0.997269602661208,0.07374631836166973,0.0,0.0,0.0,0.0,0.0,0.0,0.0,0.0,0.0,8.457966693909911e-05,-0.00021193340053285298,-0.00770225025053413,0.0,0.0,0.0,0.0,0.0,0.0,0.0,0.0,0.0,0.10408670950788118,-0.04017808808126153,0.001490417771020868,0.0,0.0,0.0,0.0,0.0,0.0,0.0,0.0,0.0
7.545,218,7,545000000,base_footprint,-0.0038405475421775742,0.0002730509822785632,0.9972897103768037,0.07347386756043521,0.0,0.0,0.0,0.0,0.0,0.0,0.0,0.0,0.0,-0.0002047810472938606,-0.0009116693927390093,0.02939555076240972,0.0,0.0,0.0,0.0,0.0,0.0,0.0,0.0,0.0,0.28024397322921113,-0.08220244349207165,0.0030352600002904245,0.0,0.0,0.0,0.0,0.0,0.0,0.0,0.0,0.0
7.579,219,7,579000000,base_footprint,-0.0038434922677503596,0.0002721811805009853,0.9973461314975051,0.07270383395360962,0.0,0.0,0.0,0.0,0.0,0.0,0.0,0.0,0.0,-0.0003189914840891865,-0.00016357036737532586,0.04629558079276441,0.0,0.0,0.0,0.0,0.0,0.0,0.0,0.0,0.0,0.03822079968789128,-0.0012829885082838491,-0.0005140594971506248,0.0,0.0,0.0,0.0,0.0,0.0,0.0,0.0,0.0
7.6129999999999995,220,7,613000000,base_footprint,-0.0038439691638207972,0.00026893277509733245,0.9974031694298429,0.07191709940990586,0.0,0.0,0.0,0.0,0.0,0.0,0.0,0.0,0.0,-0.00031378237135264717,-0.00010506655989289588,0.0462328653301692,0.0,0.0,0.0,0.0,0.0,0.0,0.0,0.0,0.0,0.00423215748111329,0.009361673212331452,-7.022503958462372e-05,0.0,0.0,0.0,0.0,0.0,0.0,0.0,0.0,0.0
7.647,221,7,647000000,base_footprint,-0.003844726220409981,0.00026571751260061235,0.9974583582149934,0.07114753053721225,0.0,0.0,0.0,0.0,0.0,0.0,0.0,0.0,0.0,-0.0003940467805033066,-4.44912448350031e-05,0.04438315334020192,0.0,0.0,0.0,0.0,0.0,0.0,0.0,0.0,0.0,0.004484167392849043,0.00907394886683685,-0.00016138053961195758,0.0,0.0,0.0,0.0,0.0,0.0,0.0,0.0,0.0
7.681,222,7,681000000,base_footprint,-0.0038456605039796344,0.0002625744702886808,0.9975118175464709,0.07039400404204882,0.0,0.0,0.0,0.0,0.0,0.0,0.0,0.0,0.0,-0.00040264424977128283,-2.491752064902474e-05,0.044308028315831804,0.0,0.0,0.0,0.0,0.0,0.0,0.0,0.0,0.0,0.003972188183578553,0.008989760457965188,-4.684951733592281e-05,0.0,0.0,0.0,0.0,0.0,0.0,0.0,0.0,0.0
7.716,223,7,715000000,base_footprint,-0.003846786102408013,0.00025938345706945294,0.9975648596865185,0.06963824865346029,0.0,0.0,0.0,0.0,0.0,0.0,0.0,0.0,0.0,-0.00041820822552483843,-2.425193877800431e-05,0.04469468174904321,0.0,0.0,0.0,0.0,0.0,0.0,0.0,0.0,0.0,0.0025991579410684115,0.009386765449673186,-4.1310158182912816e-05,0.0,0.0,0.0,0.0,0.0,0.0,0.0,0.0,0.0
7.749,224,7,749000000,base_footprint,-0.003847765286554916,0.00025636225431922496,0.997622609628127,0.06880594261733533,0.0,0.0,0.0,0.0,0.0,0.0,0.0,0.0,0.0,-0.0004542303318981856,-6.758934449206798e-05,0.052064412800085155,0.0,0.0,0.0,0.0,0.0,0.0,0.0,0.0,0.0,0.0016260584245951842,0.011146524200902362,1.1449210558310635e-05,0.0,0.0,0.0,0.0,0.0,0.0,0.0,0.0,0.0
7.783,225,7,783000000,base_footprint,-0.0038489781343660104,0.00025359366965100477,0.9976816827701107,0.06794395427535896,0.0,0.0,0.0,0.0,0.0,0.0,0.0,0.0,0.0,-0.00047556472425230693,0.0001096658144537927,0.05089644416255975,0.0,0.0,0.0,0.0,0.0,0.0,0.0,0.0,0.0,0.006502407687931086,0.009841373581018588,-0.0002693953723718369,0.0,0.0,0.0,0.0,0.0,0.0,0.0,0.0,0.0
7.817,226,7,817000000,base_footprint,-0.003847024593318357,0.000252409526089022,0.9977445374009556,0.06701473552706735,0.0,0.0,0.0,0.0,0.0,0.0,0.0,0.0,0.0,-0.0003846480889423352,-0.00019459835636255295,0.05574656621438247,0.0,0.0,0.0,0.0,0.0,0.0,0.0,0.0,0.0,-0.010037545060193425,0.014931271635867957,0.00035083959315101396,0.0,0.0,0.0,0.0,0.0,0.0,0.0,0.0,0.0
7.851,227,7,851000000,base_footprint,-0.003848884793478046,0.00024883205722849423,0.9978051390461113,0.06610619230922425,0.0,0.0,0.0,0.0,0.0,0.0,0.0,0.0,0.0,-0.000408761806693173,0.00017364079397926428,0.05397343384432684,0.0,0.0,0.0,0.0,0.0,0.0,0.0,0.0,0.0,0.006696942595258519,0.010200359395516053,-0.0004747468223700565,0.0,0.0,0.0,0.0,0.0,0.0,0.0,0.0,0.0
7.885,228,7,885000000,base_footprint,-0.003850299622870069,0.0002464673368950195,0.9978639654531964,0.06521212231393668,0.0,0.0,0.0,0.0,0.0,0.0,0.0,0.0,0.0,-0.0006474852119892093,-0.00011511777387441322,0.0493666822190387,0.0,0.0,0.0,0.0,0.0,0.0,0.0,0.0,0.0,-0.006634740514873509,0.014478902915302789,0.0007308674105587548,0.0,0.0,0.0,0.0,0.0,0.0,0.0,0.0,0.0
7.9190000000000005,229,7,919000000,base_footprint,-0.003843688153306635,0.00023870168686870904,0.9979042189432666,0.06459364440960073,0.0,0.0,0.0,0.0,0.0,0.0,0.0,0.0,0.0,-0.00042377128607365845,-0.00022036018767076818,0.030435176433347658,0.0,0.0,0.0,0.0,0.0,0.0,0.0,0.0,0.0,-0.03565716896335104,0.01753803630741093,-0.00023216454733721037,0.0,0.0,0.0,0.0,0.0,0.0,0.0,0.0,0.0
7.953,230,7,953000000,base_footprint,-0.0038428686920059327,0.0002369845237006731,0.997981953304675,0.06338136221900893,0.0,0.0,0.0,0.0,0.0,0.0,0.0,0.0,0.0,-0.0017188506359205108,-0.0012321984057870271,0.12060586570728227,0.0,0.0,0.0,0.0,0.0,0.0,0.0,0.0,0.0,-0.2998500262174179,0.0924456735333416,-0.0011615929688456443,0.0,0.0,0.0,0.0,0.0,0.0,0.0,0.0,0.0
7.987,231,7,987000000,base_footprint,-0.0038475149097595696,0.00023252367346688143,0.9980587909499594,0.06215941094690008,0.0,0.0,0.0,0.0,0.0,0.0,0.0,0.0,0.0,-0.0001528075016071842,4.1423653973726e-05,0.04564902878001979,0.0,0.0,0.0,0.0,0.0,0.0,0.0,0.0,0.0,0.02714985412935624,0.009458046880659036,-0.0015188802582748948,0.0,0.0,0.0,0.0,0.0,0.0,0.0,0.0,0.0
8.021,232,8,21000000,base_footprint,-0.0038464206428067108,0.00022924381208778869,0.9981065325060618,0.06138812803986816,0.0,0.0,0.0,0.0,0.0,0.0,0.0,0.0,0.0,-0.00026683646540631354,-0.00012123313737009183,0.04535598638506869,0.0,0.0,0.0,0.0,0.0,0.0,0.0,0.0,0.0,0.0028039638400415685,0.009013471700069806,0.00036650818200021235,0.0,0.0,0.0,0.0,0.0,0.0,0.0,0.0,0.0
8.055,233,8,55000000,base_footprint,-0.003846523111542523,0.00022592610801415292,0.9981568706514876,0.0605641378092324,0.0,0.0,0.0,0.0,0.0,0.0,0.0,0.0,0.0,-0.0003110486171539078,-0.00011427305324069055,0.049418377958997645,0.0,0.0,0.0,0.0,0.0,0.0,0.0,0.0,0.0,0.002540552682413522,0.009674232129596866,1.1910979963450668e-05,0.0,0.0,0.0,0.0,0.0,0.0,0.0,0.0,0.0
8.089,234,8,89000000,base_footprint,-0.003846849358434007,0.00022250075807240825,0.9982074496936072,0.059724698572793174,0.0,0.0,0.0,0.0,0.0,0.0,0.0,0.0,0.0,-0.0003657794039305143,-0.00012520889055114094,0.04931289643550819,0.0,0.0,0.0,0.0,0.0,0.0,0.0,0.0,0.0,0.0036964108846092706,0.009667882553327992,8.314093659613776e-05,0.0,0.0,0.0,0.0,0.0,0.0,0.0,0.0,0.0
8.123,235,8,123000000,base_footprint,-0.00384745445666729,0.0002190672021142051,0.9982572309046457,0.05888675615411273,0.0,0.0,0.0,0.0,0.0,0.0,0.0,0.0,0.0,-0.0004669249958985887,-6.876778150882026e-05,0.04924699358061092,0.0,0.0,0.0,0.0,0.0,0.0,0.0,0.0,0.0,0.003578967027483103,0.009706195611733139,-0.00013851694725447583,0.0,0.0,0.0,0.0,0.0,0.0,0.0,0.0,0.0
8.156,236,8,157000000,base_footprint,-0.003848760618367918,0.00021435849234293516,0.9983295436870246,0.05764775185379288,0.0,0.0,0.0,0.0,0.0,0.0,0.0,0.0,0.0,-0.000920966003267136,0.00011199662743963873,0.11382156373220102,0.0,0.0,0.0,0.0,0.0,0.0,0.0,0.0,0.0,0.32249479667567704,-0.06096094314273008,0.0020783770917909843,0.0,0.0,0.0,0.0,0.0,0.0,0.0,0.0,0.0
8.191,237,8,191000000,base_footprint,-0.003849566518704632,0.0002101028047265101,0.9983835841683146,0.05670410529811273,0.0,0.0,0.0,0.0,0.0,0.0,0.0,0.0,0.0,-0.00036262326753076833,2.9628433456028654e-05,0.04038587916962748,0.0,0.0,0.0,0.0,0.0,0.0,0.0,0.0,0.0,0.019459677970178283,0.008852195716870757,0.00029775553815826646,0.0,0.0,0.0,0.0,0.0,0.0,0.0,0.0,0.0
8.225,238,8,225000000,base_footprint,-0.003850393228400716,0.00020746939764107003,0.9984224864405793,0.05601490871408181,0.0,0.0,0.0,0.0,0.0,0.0,0.0,0.0,0.0,-0.00038148486001239536,-6.743637619834438e-05,0.04045815740658838,0.0,0.0,0.0,0.0,0.0,0.0,0.0,0.0,0.0,0.0027464555173122387,0.008376409691705354,5.4294075020715584e-05,0.0,0.0,0.0,0.0,0.0,0.0,0.0,0.0,0.0
8.26,239,8,259000000,base_footprint,-0.0038511675893327475,0.00020552128241306747,0.9984591994209602,0.055356601782052546,0.0,0.0,0.0,0.0,0.0,0.0,0.0,0.0,0.0,-0.00035618323472665975,4.0782417380842646e-05,0.038482112462385545,0.0,0.0,0.0,0.0,0.0,0.0,0.0,0.0,0.0,0.004861478094122938,0.008546344583852967,-0.00020960866661509094,0.0,0.0,0.0,0.0,0.0,0.0,0.0,0.0,0.0
8.293,240,8,293000000,base_footprint,-0.003852328368824499,0.00020328859068176759,0.9984964527063191,0.054680455125987744,0.0,0.0,0.0,0.0,0.0,0.0,0.0,0.0,0.0,-0.00028396823778451837,-0.00017068593129763142,0.04295416826231528,0.0,0.0,0.0,0.0,0.0,0.0,0.0,0.0,0.0,-0.010326445938523155,0.010578863756568475,0.0002998341156715255,0.0,0.0,0.0,0.0,0.0,0.0,0.0,0.0,0.0
8.327,241,8,327000000,base_footprint,-0.003852773873171411,0.00020131632968015803,0.9985348151583551,0.05397535105849204,0.0,0.0,0.0,0.0,0.0,0.0,0.0,0.0,0.0,-0.00025020632873926096,-0.00010541315110238301,0.04104831636829138,0.0,0.0,0.0,0.0,0.0,0.0,0.0,0.0,0.0,0.00538269288881239,0.008124412931030833,-9.923692500710243e-05,0.0,0.0,0.0,0.0,0.0,0.0,0.0,0.0,0.0
8.361,242,8,361000000,base_footprint,-0.0038533649769929563,0.0001997552344467226,0.9985780535282521,0.053169377351326964,0.0,0.0,0.0,0.0,0.0,0.0,0.0,0.0,0.0,-0.0005761373994871274,-0.00020278539191678156,0.04380057255648448,0.0,0.0,0.0,0.0,0.0,0.0,0.0,0.0,0.0,-0.013231539707045681,0.014158113127968419,0.00036784468646299754,0.0,0.0,0.0,0.0,0.0,0.0,0.0,0.0,0.0
8.395,243,8,395000000,base_footprint,-0.0038464203966543744,0.00019230468703283505,0.9986061141915852,0.052640258056189576,0.0,0.0,0.0,0.0,0.0,0.0,0.0,0.0,0.0,-0.0003697358609225097,-0.0002848705287099403,0.027897388851948694,0.0,0.0,0.0,0.0,0.0,0.0,0.0,0.0,0.0,-0.03051521870559503,0.01333480648051742,-0.00026184068594225097,0.0,0.0,0.0,0.0,0.0,0.0,0.0,0.0,0.0
8.429,244,8,429000000,base_footprint,-0.003850062352942519,0.0001932655890298475,0.9986411966743942,0.05197018350000632,0.0,0.0,0.0,0.0,0.0,0.0,0.0,0.0,0.0,0.00011129167903320024,0.0006418440370179884,0.04925509483794216,0.0,0.0,0.0,0.0,0.0,0.0,0.0,0.0,0.0,0.04716065943229304,-0.001621092740890105,-0.0011259990367653847,0.0,0.0,0.0,0.0,0.0,0.0,0.0,0.0,0.0
8.464,245,8,463000000,base_footprint,-0.003848968658348528,0.00018966175259655334,0.998685871651397,0.0511045911105467,0.0,0.0,0.0,0.0,0.0,0.0,0.0,0.0,0.0,-0.0002898652877458052,-8.859786483690107e-05,0.0509508494122713,0.0,0.0,0.0,0.0,0.0,0.0,0.0,0.0,0.0,-5.751639664058612e-06,0.011431418834056252,0.001283523278895396,0.0,0.0,0.0,0.0,0.0,0.0,0.0,0.0,0.0
8.497,246,8,497000000,base_footprint,-0.0038487136097966165,0.00018622736938110233,0.9987297412626593,0.05023999044922387,0.0,0.0,0.0,0.0,0.0,0.0,0.0,0.0,0.0,-0.0003075148251172653,-0.0001190040325714117,0.05082087233584961,0.0,0.0,0.0,0.0,0.0,0.0,0.0,0.0,0.0,0.003374529319585265,0.010656788327302373,8.113159223742408e-05,0.0,0.0,0.0,0.0,0.0,0.0,0.0,0.0,0.0
8.53,247,8,531000000,base_footprint,-0.0038488014566502543,0.0001832675634973353,0.9987723376901565,0.04938593529829613,0.0,0.0,0.0,0.0,0.0,0.0,0.0,0.0,0.0,-3.62126231644721e-05,-9.159898084618831e-05,0.040731235799681555,0.0,0.0,0.0,0.0,0.0,0.0,0.0,0.0,0.0,0.005828586119337499,0.010120082280130603,0.00022127193157220424,0.0,0.0,0.0,0.0,0.0,0.0,0.0,0.0,0.0
8.567,248,8,565000000,base_footprint,-0.003849024386736027,0.0001800431816176489,0.9988061084147657,0.04869815591040652,0.0,0.0,0.0,0.0,0.0,0.0,0.0,0.0,0.0,-0.00029699935491218357,-0.00014656860967515102,0.040395371489649196,0.0,0.0,0.0,0.0,0.0,0.0,0.0,0.0,0.0,0.0033562388926391554,0.008463385292957405,-7.678188774287366e-05,0.0,0.0,0.0,0.0,0.0,0.0,0.0,0.0,0.0
8.599,249,8,599000000,base_footprint,-0.003849589946741509,0.00017721992485147695,0.9988393485480994,0.04801150947792308,0.0,0.0,0.0,0.0,0.0,0.0,0.0,0.0,0.0,-0.0003805081370660866,-9.648642631796237e-05,0.040319405595958445,0.0,0.0,0.0,0.0,0.0,0.0,0.0,0.0,0.0,0.002978501275221876,0.008475195772639879,-0.0001386154566809705,0.0,0.0,0.0,0.0,0.0,0.0,0.0,0.0,0.0
8.633,250,8,633000000,base_footprint,-0.00385350836884841,0.00017666967711559155,0.9988714187830281,0.0473392860049328,0.0,0.0,0.0,0.0,0.0,0.0,0.0,0.0,0.0,0.0004207553379003669,-0.00013363461677885774,0.030337224320577266,0.0,0.0,0.0,0.0,0.0,0.0,0.0,0.0,0.0,-0.08889448971474308,0.025714550756762655,-0.0008099021315357724,0.0,0.0,0.0,0.0,0.0,0.0,0.0,0.0,0.0
8.667,251,8,667000000,base_footprint,-0.003853465218479545,0.00016571299534688146,0.9989395954607946,0.04587818616333025,0.0,0.0,0.0,0.0,0.0,0.0,0.0,0.0,0.0,-0.0004904921796474659,-0.00010773308883003243,0.060738627583913726,0.0,0.0,0.0,0.0,0.0,0.0,0.0,0.0,0.0,-0.2695500275048975,0.06881041647992209,-0.0027953948124208967,0.0,0.0,0.0,0.0,0.0,0.0,0.0,0.0,0.0
8.701,252,8,701000000,base_footprint,-0.0038526946026281143,0.0001653744703190959,0.9989766837461725,0.045063452232193525,0.0,0.0,0.0,0.0,0.0,0.0,0.0,0.0,0.0,-0.0004465142073854509,-3.889661377294303e-05,0.04825252754865389,0.0,0.0,0.0,0.0,0.0,0.0,0.0,0.0,0.0,0.030524455190208143,0.00471982354201801,0.0006690715033443006,0.0,0.0,0.0,0.0,0.0,0.0,0.0,0.0,0.0
8.734,253,8,735000000,base_footprint,-0.003851428888226529,0.00016556475029247067,0.9990152877844354,0.04419947801517816,0.0,0.0,0.0,0.0,0.0,0.0,0.0,0.0,0.0,-0.0007662256938239775,0.0003353678575205444,0.07725538772235156,0.0,0.0,0.0,0.0,0.0,0.0,0.0,0.0,0.0,0.029411225648302453,0.005360493092705904,0.00012007884272100084,0.0,0.0,0.0,0.0,0.0,0.0,0.0,0.0,0.0
8.767,254,8,769000000,base_footprint,-0.0038565880767286735,0.00015354587291251066,0.9991166820501328,0.04184445962376723,0.0,0.0,0.0,0.0,0.0,0.0,0.0,0.0,0.0,-0.0014216320904578915,-8.948569949153239e-05,0.1855263954809807,0.0,0.0,0.0,0.0,0.0,0.0,0.0,0.0,0.0,0.1614584234199514,0.0009217637847925546,0.00185434411067536,0.0,0.0,0.0,0.0,0.0,0.0,0.0,0.0,0.0
8.8,255,8,803000000,base_footprint,-0.0038516232870890086,0.00014458138721188033,0.999261389196626,0.038233756748532785,0.0,0.0,0.0,0.0,0.0,0.0,0.0,0.0,0.0,-0.0020276810401424913,0.00044228947452621515,0.21540291866828834,0.0,0.0,0.0,0.0,0.0,0.0,0.0,0.0,0.0,0.10276112713308866,0.030857508021867788,-0.00038491155451752417,0.0,0.0,0.0,0.0,0.0,0.0,0.0,0.0,0.0
8.838000000000001,256,8,837000000,base_footprint,-0.0038550206421964824,0.00012589111855622418,0.9993901810809944,0.03470430702624499,0.0,0.0,0.0,0.0,0.0,0.0,0.0,0.0,0.0,-0.002298479478473987,-0.0011879542622273626,0.2010303907299375,0.0,0.0,0.0,0.0,0.0,0.0,0.0,0.0,0.0,-0.031192214599124378,0.04948194155787793,0.002371658622978924,0.0,0.0,0.0,0.0,0.0,0.0,0.0,0.0,0.0
8.871,257,8,871000000,base_footprint,-0.0038493821473889545,0.00011006202560275442,0.9995028513270324,0.03129249642591908,0.0,0.0,0.0,0.0,0.0,0.0,0.0,0.0,0.0,-0.0016703035878789935,-4.041433287587024e-05,0.20942121816664708,0.0,0.0,0.0,0.0,0.0,0.0,0.0,0.0,0.0,0.024171377004776125,0.04051922304571702,-0.00154803191790541,0.0,0.0,0.0,0.0,0.0,0.0,0.0,0.0,0.0
8.905,258,8,905000000,base_footprint,-0.0038528019074016546,9.89160864196571e-05,0.9996121386734621,0.027581123068822145,0.0,0.0,0.0,0.0,0.0,0.0,0.0,0.0,0.0,-0.0015909497963267215,0.000188839255089404,0.21963548088519216,0.0,0.0,0.0,0.0,0.0,0.0,0.0,0.0,0.0,0.027981744143549276,0.044544080210073216,-0.00016190471389288257,0.0,0.0,0.0,0.0,0.0,0.0,0.0,0.0,0.0
8.939,259,8,939000000,base_footprint,-0.0038521063256126945,8.452708769219351e-05,0.9997051918546047,0.023972557455880106,0.0,0.0,0.0,0.0,0.0,0.0,0.0,0.0,0.0,-0.0012766155689081667,0.000255132417714274,0.1940784392821003,0.0,0.0,0.0,0.0,0.0,0.0,0.0,0.0,0.0,0.012298581003056863,0.04569428982591172,1.7534511205585335e-05,0.0,0.0,0.0,0.0,0.0,0.0,0.0,0.0,0.0
8.973,260,8,973000000,base_footprint,-0.0038524074915489504,7.22539172186674e-05,0.9997788384899098,0.02067432813074087,0.0,0.0,0.0,0.0,0.0,0.0,0.0,0.0,0.0,-0.001402888380829925,-7.96807146412312e-05,0.1940072935509437,0.0,0.0,0.0,0.0,0.0,0.0,0.0,0.0,0.0,0.004602737585175201,0.041892344083955375,0.0005775301954623746,0.0,0.0,0.0,0.0,0.0,0.0,0.0,0.0,0.0
9.009,261,9,7000000,base_footprint,-0.003852431297332495,5.9600067288735285e-05,0.9998415834630127,0.017377088338008797,0.0,0.0,0.0,0.0,0.0,0.0,0.0,0.0,0.0,-0.0014249544003954002,-0.00011125633335246086,0.19393637340869202,0.0,0.0,0.0,0.0,0.0,0.0,0.0,0.0,0.0,0.0043891487836362365,0.04210816164547454,9.119081082419827e-05,0.0,0.0,0.0,0.0,0.0,0.0,0.0,0.0,0.0
9.039,262,9,41000000,base_footprint,-0.0038512833763049534,4.8789258647332295e-05,0.9998856277294889,0.01462520755304399,0.0,0.0,0.0,0.0,0.0,0.0,0.0,0.0,0.0,-0.00026308751328314815,0.0005076473893282129,0.0704674425517239,0.0,0.0,0.0,0.0,0.0,0.0,0.0,0.0,0.0,0.036266567024482096,0.03499184486509775,-0.0003427614670954865,0.0,0.0,0.0,0.0,0.0,0.0,0.0,0.0,0.0
9.074,263,9,75000000,base_footprint,-0.003853203591540744,4.428937285449702e-05,0.9999024596036743,0.013424683946224944,0.0,0.0,0.0,0.0,0.0,0.0,0.0,0.0,0.0,-0.0005105482204676424,-0.00014872055795971822,0.07056512969082666,0.0,0.0,0.0,0.0,0.0,0.0,0.0,0.0,0.0,0.0020303068177366097,0.015005159345269798,0.0006266137180805337,0.0,0.0,0.0,0.0,0.0,0.0,0.0,0.0,0.0
9.109,264,9,109000000,base_footprint,-0.0038538845433626983,3.962579490986957e-05,0.9999178402991964,0.012225328425593178,0.0,0.0,0.0,0.0,0.0,0.0,0.0,0.0,0.0,-0.0005582874823259116,-0.00010072995364419615,0.07049757570387935,0.0,0.0,0.0,0.0,0.0,0.0,0.0,0.0,0.0,0.0020827018351194703,0.01540862091863467,-0.0002460168202537379,0.0,0.0,0.0,0.0,0.0,0.0,0.0,0.0,0.0
9.142,265,9,143000000,base_footprint,-0.0038547853264010046,3.524001697751558e-05,0.9999311090958971,0.011086769163184008,0.0,0.0,0.0,0.0,0.0,0.0,0.0,0.0,0.0,-0.0005048960656598122,-6.04494011889164e-05,0.061861566878614764,0.0,0.0,0.0,0.0,0.0,0.0,0.0,0.0,0.0,0.004291179538604193,0.0146251504794195,-0.0001135606487400851,0.0,0.0,0.0,0.0,0.0,0.0,0.0,0.0,0.0
9.177,266,9,177000000,base_footprint,-0.0038560637611647136,3.119263332929189e-05,0.9999422168163056,0.01003458159476848,0.0,0.0,0.0,0.0,0.0,0.0,0.0,0.0,0.0,-0.00048157373585751154,-6.144444299142734e-05,0.061991057505037445,0.0,0.0,0.0,0.0,0.0,0.0,0.0,0.0,0.0,0.0009856977681117283,0.013509629586484682,-5.2833577733815554e-05,0.0,0.0,0.0,0.0,0.0,0.0,0.0,0.0,0.0
9.211,267,9,211000000,base_footprint,-0.003857316599733437,2.707789078669925e-05,0.999952233689795,0.008980574270442717,0.0,0.0,0.0,0.0,0.0,0.0,0.0,0.0,0.0,-0.0005111608603723214,-3.212411996425828e-05,0.06208798150278325,0.0,0.0,0.0,0.0,0.0,0.0,0.0,0.0,0.0,-0.0008444591234431808,0.013615420200358039,-0.00017299056160641964,0.0,0.0,0.0,0.0,0.0,0.0,0.0,0.0,0.0
9.245,268,9,245000000,base_footprint,-0.0038515297746821867,2.7564804067486417e-05,0.9999603699114882,0.008026429159721632,0.0,0.0,0.0,0.0,0.0,0.0,0.0,0.0,0.0,0.0011060763857352863,0.000602025744110578,0.04284330414997124,0.0,0.0,0.0,0.0,0.0,0.0,0.0,0.0,0.0,-0.09733123128338332,0.017128782337204156,-0.0019098183053746758,0.0,0.0,0.0,0.0,0.0,0.0,0.0,0.0,0.0
9.279,269,9,279000000,base_footprint,-0.003862416179495554,1.939934501163213e-05,0.9999668029859894,0.007174558585817106,0.0,0.0,0.0,0.0,0.0,0.0,0.0,0.0,0.0,9.163227697407515e-05,-0.0016862720287951665,0.04923916458715926,0.0,0.0,0.0,0.0,0.0,0.0,0.0,0.0,0.0,-0.04355291096625159,0.01962478169788701,0.003842516561634849,0.0,0.0,0.0,0.0,0.0,0.0,0.0,0.0,0.0
9.313,270,9,313000000,base_footprint,-0.0038553508268302605,1.0496446339689928e-05,0.9999739552464634,0.0061012284476888706,0.0,0.0,0.0,0.0,0.0,0.0,0.0,0.0,0.0,-0.0004165787880100826,-0.00024902809190884657,0.09907925001620502,0.0,0.0,0.0,0.0,0.0,0.0,0.0,0.0,0.0,-0.12520279039235704,0.006616202626273411,-0.003277237838344242,0.0,0.0,0.0,0.0,0.0,0.0,0.0,0.0,0.0
9.348,271,9,347000000,base_footprint,-0.003844746355007744,8.041755062744657e-06,0.9999851651245758,0.003858418273171738,0.0,0.0,0.0,0.0,0.0,0.0,0.0,0.0,0.0,-0.0009232906126042156,-0.0009179102836222527,0.12352936422297402,0.0,0.0,0.0,0.0,0.0,0.0,0.0,0.0,0.0,0.055501929423796795,0.027539022156178407,0.001181855598008348,0.0,0.0,0.0,0.0,0.0,0.0,0.0,0.0,0.0
9.38,272,9,381000000,base_footprint,-0.0038550484103205707,-8.627100362213519e-07,0.9999908634488326,0.0018470570830396342,0.0,0.0,0.0,0.0,0.0,0.0,0.0,0.0,0.0,-0.0010503002778463138,-0.00023083469494487212,0.1273687929048166,0.0,0.0,0.0,0.0,0.0,0.0,0.0,0.0,0.0,0.18710169440213217,0.023321205199769053,0.00035280876229671634,0.0,0.0,0.0,0.0,0.0,0.0,0.0,0.0,0.0
9.415,273,9,415000000,base_footprint,-0.0038537575537651945,-9.051327659128537e-06,0.9999925226021464,-0.0003212640441114057,0.0,0.0,0.0,0.0,0.0,0.0,0.0,0.0,0.0,-0.0009669476184416462,-0.00010735648997972654,0.1275399489671833,0.0,0.0,0.0,0.0,0.0,0.0,0.0,0.0,0.0,0.0011388257256307538,0.027876021616197816,1.4240364846035859e-05,0.0,0.0,0.0,0.0,0.0,0.0,0.0,0.0,0.0
9.449,274,9,449000000,base_footprint,-0.003863387172962352,-1.7282575597079675e-05,0.9999895252127029,-0.0024542627686299726,0.0,0.0,0.0,0.0,0.0,0.0,0.0,0.0,0.0,-0.0008295045829728944,-0.00011534300456249285,0.12070419564502781,0.0,0.0,0.0,0.0,0.0,0.0,0.0,0.0,0.0,-0.535264228665595,0.022226964732809856,-0.003914635762273459,0.0,0.0,0.0,0.0,0.0,0.0,0.0,0.0,0.0
9.483,275,9,483000000,base_footprint,-0.0038525020284836346,-2.5101491287430133e-05,0.9999823992322251,-0.00451207533167877,0.0,0.0,0.0,0.0,0.0,0.0,0.0,0.0,0.0,-0.0006545021712803343,0.001633028111224942,0.13159978034654654,0.0,0.0,0.0,0.0,0.0,0.0,0.0,0.0,0.0,0.19769688419417472,0.027681810926943256,-0.0005634072359477778,0.0,0.0,0.0,0.0,0.0,0.0,0.0,0.0,0.0
9.517,276,9,517000000,base_footprint,-0.00385290172446589,-3.335042298049211e-05,0.9999697963070673,-0.006749852565307185,0.0,0.0,0.0,0.0,0.0,0.0,0.0,0.0,0.0,-0.0009525123432944301,-0.00021764391181243418,0.13165867018625388,0.0,0.0,0.0,0.0,0.0,0.0,0.0,0.0,0.0,-0.0018648051697068603,0.027354956179859148,0.0021964304626300056,0.0,0.0,0.0,0.0,0.0,0.0,0.0,0.0,0.0
9.551,277,9,551000000,base_footprint,-0.0038542402862529524,-4.112876653233169e-05,0.999954077952695,-0.008774116822564477,0.0,0.0,0.0,0.0,0.0,0.0,0.0,0.0,0.0,-0.0007934642573379804,0.00017369339005438866,0.10245644777484242,0.0,0.0,0.0,0.0,0.0,0.0,0.0,0.0,0.0,0.3490577382002791,0.03723871003317248,0.001758061552958648,0.0,0.0,0.0,0.0,0.0,0.0,0.0,0.0,0.0
9.585,278,9,585000000,base_footprint,-0.003853530919160334,-4.771428396780892e-05,0.999937282872027,-0.01051562386690878,0.0,0.0,0.0,0.0,0.0,0.0,0.0,0.0,0.0,-0.0007124010885359957,-0.00015628921910498296,0.10241088978042374,0.0,0.0,0.0,0.0,0.0,0.0,0.0,0.0,0.0,-6.555416744919473e-05,0.022493832559213358,0.00070924323342094,0.0,0.0,0.0,0.0,0.0,0.0,0.0,0.0,0.0
9.619,279,9,619000000,base_footprint,-0.0038542621530270223,-5.4319504384924424e-05,0.9999174636704019,-0.012255919369747218,0.0,0.0,0.0,0.0,0.0,0.0,0.0,0.0,0.0,-0.0007622925897839676,-0.00011334723108248247,0.10236412592609877,0.0,0.0,0.0,0.0,0.0,0.0,0.0,0.0,0.0,0.00032001153804008783,0.022461187574626645,-0.00019274856283898957,0.0,0.0,0.0,0.0,0.0,0.0,0.0,0.0,0.0
9.653,280,9,653000000,base_footprint,-0.0038552532515086536,-6.03411050233558e-05,0.9998986359595865,-0.013705881492124336,0.0,0.0,0.0,0.0,0.0,0.0,0.0,0.0,0.0,-0.0005787720882781988,-7.172792765570976e-05,0.07758706918493057,0.0,0.0,0.0,0.0,0.0,0.0,0.0,0.0,0.0,0.006431756568581049,0.019368057986606384,-8.279291912450775e-05,0.0,0.0,0.0,0.0,0.0,0.0,0.0,0.0,0.0
9.687,281,9,687000000,base_footprint,-0.0038563166684300134,-6.559427079546724e-05,0.9998796894622202,-0.01502435090374715,0.0,0.0,0.0,0.0,0.0,0.0,0.0,0.0,0.0,-0.0005674456792535752,-7.585582100094668e-05,0.07758365070244702,0.0,0.0,0.0,0.0,0.0,0.0,0.0,0.0,0.0,-0.0018465231881546887,0.01687279496713511,-7.901995681882478e-05,0.0,0.0,0.0,0.0,0.0,0.0,0.0,0.0,0.0
9.721,282,9,721000000,base_footprint,-0.0038574773326185523,-7.073970417055219e-05,0.9998589449478954,-0.01634640854145052,0.0,0.0,0.0,0.0,0.0,0.0,0.0,0.0,0.0,-0.0005766489887144859,-1.8698472865722496e-05,0.07847431526301493,0.0,0.0,0.0,0.0,0.0,0.0,0.0,0.0,0.0,-0.0020355942241920433,0.016743231690708762,-0.00021149863051828012,0.0,0.0,0.0,0.0,0.0,0.0,0.0,0.0,0.0
9.755,283,9,755000000,base_footprint,-0.0038608157481864603,-7.481195909178806e-05,0.999838872649404,-0.01753046616888639,0.0,0.0,0.0,0.0,0.0,0.0,0.0,0.0,0.0,-0.00026962588141804967,0.00031784885146722715,0.05693922347768526,0.0,0.0,0.0,0.0,0.0,0.0,0.0,0.0,0.0,0.014666192185182862,0.016790865880963256,-0.00016550793330159325,0.0,0.0,0.0,0.0,0.0,0.0,0.0,0.0,0.0
9.789,284,9,789000000,base_footprint,-0.003853464854911264,-7.542560580826627e-05,0.9998207484620457,-0.018536883890900184,0.0,0.0,0.0,0.0,0.0,0.0,0.0,0.0,0.0,1.5398320322481665e-05,-0.000984900983342843,0.06836899987629494,0.0,0.0,0.0,0.0,0.0,0.0,0.0,0.0,0.0,-0.059011267768591516,0.009523161866649112,0.0024169757642735663,0.0,0.0,0.0,0.0,0.0,0.0,0.0,0.0,0.0
9.823,285,9,823000000,base_footprint,-0.0038546092399919713,-8.235128885969659e-05,0.9998011829892586,-0.019563478707820388,0.0,0.0,0.0,0.0,0.0,0.0,0.0,0.0,0.0,-0.0009534743623918029,0.0008943591555130986,0.05143022880209208,0.0,0.0,0.0,0.0,0.0,0.0,0.0,0.0,0.0,0.04576188671627452,0.016029245278640133,-0.0036789813040030935,0.0,0.0,0.0,0.0,0.0,0.0,0.0,0.0,0.0
9.857,286,9,857000000,base_footprint,-0.0038536470364937247,-8.547507216010228e-05,0.9997861007848065,-0.02031981240176722,0.0,0.0,0.0,0.0,0.0,0.0,0.0,0.0,0.0,-0.00031092050803314573,-0.0001317388377843258,0.04276084119684506,0.0,0.0,0.0,0.0,0.0,0.0,0.0,0.0,0.0,-0.004000508912433211,0.009630301719249461,0.0019116924011306263,0.0,0.0,0.0,0.0,0.0,0.0,0.0,0.0,0.0
9.894,287,9,891000000,base_footprint,-0.00385289192051463,-8.815982763908387e-05,0.999771099434996,-0.021045098864890137,0.0,0.0,0.0,0.0,0.0,0.0,0.0,0.0,0.0,-0.0003544888325476838,-0.00015174450117698057,0.04267084961440405,0.0,0.0,0.0,0.0,0.0,0.0,0.0,0.0,0.0,0.0003737815036259106,0.009413321055663643,0.00011087537698021282,0.0,0.0,0.0,0.0,0.0,0.0,0.0,0.0,0.0
9.924,288,9,925000000,base_footprint,-0.0038523177544322793,-9.083737175764279e-05,0.9997555944155591,-0.021769309389206123,0.0,0.0,0.0,0.0,0.0,0.0,0.0,0.0,0.0,-0.0003727337274873707,-0.00017357470123249342,0.042579743337745356,0.0,0.0,0.0,0.0,0.0,0.0,0.0,0.0,0.0,0.000358213954926408,0.00942655117484318,8.271490160492797e-05,0.0,0.0,0.0,0.0,0.0,0.0,0.0,0.0,0.0
9.959,289,9,959000000,base_footprint,-0.0038519933316468642,-9.314385071244228e-05,0.9997421847029386,-0.022376719978397835,0.0,0.0,0.0,0.0,0.0,0.0,0.0,0.0,0.0,-0.00026920691239326367,-0.00018727001085906908,0.034781591436591736,0.0,0.0,0.0,0.0,0.0,0.0,0.0,0.0,0.0,0.002534475257380136,0.00821916792599983,0.00010131717073788023,0.0,0.0,0.0,0.0,0.0,0.0,0.0,0.0,0.0
9.993,290,9,993000000,base_footprint,-0.003851883973106415,-9.536467448872802e-05,0.9997288139478551,-0.02296633313900269,0.0,0.0,0.0,0.0,0.0,0.0,0.0,0.0,0.0,-0.00022682572556497897,-0.00018530606783931158,0.03467459910734299,0.0,0.0,0.0,0.0,0.0,0.0,0.0,0.0,0.0,0.0006082875393811961,0.007707032390493467,6.87715599012499e-05,0.0,0.0,0.0,0.0,0.0,0.0,0.0,0.0,0.0
10.027,291,10,27000000,base_footprint,-0.00385208851794421,-9.761674119234561e-05,0.9997151406932372,-0.02355396683624316,0.0,0.0,0.0,0.0,0.0,0.0,0.0,0.0,0.0,-0.00022444351766641083,-0.0001813100546694018,0.0345571417777793,0.0,0.0,0.0,0.0,0.0,0.0,0.0,0.0,0.0,0.0006856293276245476,0.0076756488821912655,-2.6375584881672344e-05,0.0,0.0,0.0,0.0,0.0,0.0,0.0,0.0,0.0
10.062,292,10,61000000,base_footprint,-0.003852610313528174,-9.943944629694459e-05,0.9997041894385648,-0.024014185902319747,0.0,0.0,0.0,0.0,0.0,0.0,0.0,0.0,0.0,-0.0001714602841257096,-0.0001178343344664977,0.026567378830967103,0.0,0.0,0.0,0.0,0.0,0.0,0.0,0.0,0.0,0.002845541772887347,0.0063513150844487914,-0.00024165348499583967,0.0,0.0,0.0,0.0,0.0,0.0,0.0,0.0,0.0
10.096,293,10,95000000,base_footprint,-0.0038534112836334936,-0.00010119719237642272,0.9996932654249938,-0.024464587560811404,0.0,0.0,0.0,0.0,0.0,0.0,0.0,0.0,0.0,-0.00016997568678240492,-9.126150614569571e-05,0.026482418438468353,0.0,0.0,0.0,0.0,0.0,0.0,0.0,0.0,0.0,0.0008995241218097759,0.005935984765459073,-0.00011436661347903674,0.0,0.0,0.0,0.0,0.0,0.0,0.0,0.0,0.0
10.129,294,10,129000000,base_footprint,-0.003854611466756198,-0.000103079092294358,0.9996822149567516,-0.024911853489940745,0.0,0.0,0.0,0.0,0.0,0.0,0.0,0.0,0.0,-0.00017707776192163466,-8.761016892944225e-05,0.026229609314222628,0.0,0.0,0.0,0.0,0.0,0.0,0.0,0.0,0.0,0.00014058483165881524,0.0057330423233472195,-0.00010394326418948637,0.0,0.0,0.0,0.0,0.0,0.0,0.0,0.0,0.0
10.164,295,10,163000000,base_footprint,-0.003847902353126932,-0.00010820541184353726,0.9996545298498785,-0.026000055570870862,0.0,0.0,0.0,0.0,0.0,0.0,0.0,0.0,0.0,-0.003286722948598356,-0.002151807284535813,0.09461459916879418,0.0,0.0,0.0,0.0,0.0,0.0,0.0,0.0,0.0,-0.46909644773674125,-0.03653725428148035,-0.008409444620473779,0.0,0.0,0.0,0.0,0.0,0.0,0.0,0.0,0.0
10.197,296,10,197000000,base_footprint,-0.0038552828862336973,-0.00010841183598504757,0.9996405308889994,-0.02653175540178981,0.0,0.0,0.0,0.0,0.0,0.0,0.0,0.0,0.0,-0.0003087476968204361,5.492192666588734e-05,0.01166283843143027,0.0,0.0,0.0,0.0,0.0,0.0,0.0,0.0,0.0,0.13929586949185924,0.023869388459773926,0.005550418770222187,0.0,0.0,0.0,0.0,0.0,0.0,0.0,0.0,0.0
10.232,297,10,231000000,base_footprint,-0.0038544676079716846,-0.00011481958423164092,0.9996354592426403,-0.026722247672638113,0.0,0.0,0.0,0.0,0.0,0.0,0.0,0.0,0.0,-0.0038548801442870495,-0.0032207248666297665,0.008348285618171414,0.0,0.0,0.0,0.0,0.0,0.0,0.0,0.0,0.0,-0.010696151921576164,-0.0013382420348798125,0.003978143815262601,0.0,0.0,0.0,0.0,0.0,0.0,0.0,0.0,0.0
10.265,298,10,265000000,base_footprint,-0.0038444299520654147,-0.00011213220140888949,0.999618479461424,-0.027351477180286406,0.0,0.0,0.0,0.0,0.0,0.0,0.0,0.0,0.0,-0.0003598771281475514,-0.0006890816681746813,0.0789700487938534,0.0,0.0,0.0,0.0,0.0,0.0,0.0,0.0,0.0,0.05118275454009403,0.014952906904285095,-0.0019299909244591493,0.0,0.0,0.0,0.0,0.0,0.0,0.0,0.0,0.0
10.298,299,10,299000000,base_footprint,-0.00384759121480873,-0.00011626009097023279,0.9995630473597702,-0.02930694249294525,0.0,0.0,0.0,0.0,0.0,0.0,0.0,0.0,0.0,-0.0008048520235823311,-0.0005851353815221677,0.11852247710803149,0.0,0.0,0.0,0.0,0.0,0.0,0.0,0.0,0.0,0.10967339108635428,0.03692985915300892,0.0003084484556430811,0.0,0.0,0.0,0.0,0.0,0.0,0.0,0.0,0.0
10.333,300,10,333000000,base_footprint,-0.0038482758857924463,-0.000122309524505117,0.9995153240868868,-0.03089162877824295,0.0,0.0,0.0,0.0,0.0,0.0,0.0,0.0,0.0,-0.0008493883613054416,-0.000263935097390825,0.05659453003395239,0.0,0.0,0.0,0.0,0.0,0.0,0.0,0.0,0.0,0.13330478496834827,0.03712722162182521,0.0007385229995054973,0.0,0.0,0.0,0.0,0.0,0.0,0.0,0.0,0.0
10.368,301,10,367000000,base_footprint,-0.0038519574069353843,-0.0001292553589327242,0.9994892504971584,-0.031723553675712085,0.0,0.0,0.0,0.0,0.0,0.0,0.0,0.0,0.0,-0.0004035601630296531,-0.00022894750072398126,0.04870806021170972,0.0,0.0,0.0,0.0,0.0,0.0,0.0,0.0,0.0,0.02162999003837947,0.01336538384309402,1.204685787261031e-05,0.0,0.0,0.0,0.0,0.0,0.0,0.0,0.0,0.0
10.4,302,10,401000000,base_footprint,-0.003851136299609786,-0.00013226001097303347,0.9994626757636224,-0.032550130751067684,0.0,0.0,0.0,0.0,0.0,0.0,0.0,0.0,0.0,-0.00041391900324250057,-0.0001783752658619908,0.04862026083608919,0.0,0.0,0.0,0.0,0.0,0.0,0.0,0.0,0.0,-0.0002734868011691307,0.010691352405477823,-1.5267727879373597e-05,0.0,0.0,0.0,0.0,0.0,0.0,0.0,0.0,0.0
10.435,303,10,435000000,base_footprint,-0.003850446055285524,-0.00013527685454449312,0.9994362294592216,-0.033352346389455,0.0,0.0,0.0,0.0,0.0,0.0,0.0,0.0,0.0,-0.0005217818600232013,-6.998575320173707e-05,0.040737804209807965,0.0,0.0,0.0,0.0,0.0,0.0,0.0,0.0,0.0,0.002014722477009999,0.010924147368429449,-0.0001854242003727275,0.0,0.0,0.0,0.0,0.0,0.0,0.0,0.0,0.0
10.469,304,10,469000000,base_footprint,-0.0038506017233474127,-0.00013788079083412722,0.9994128842130008,-0.03404468716711866,0.0,0.0,0.0,0.0,0.0,0.0,0.0,0.0,0.0,-0.0002984886103230362,-0.00018217996863979498,0.040760335434912316,0.0,0.0,0.0,0.0,0.0,0.0,0.0,0.0,0.0,-0.00010457640700871769,0.008955716477520196,0.00030411690025274214,0.0,0.0,0.0,0.0,0.0,0.0,0.0,0.0,0.0
10.504,305,10,503000000,base_footprint,-0.0038507224375928174,-0.0001404943849751694,0.9993891249465913,-0.034735128278488944,0.0,0.0,0.0,0.0,0.0,0.0,0.0,0.0,0.0,-0.00027807267658563667,-0.00018560874022614744,0.04064335596291453,0.0,0.0,0.0,0.0,0.0,0.0,0.0,0.0,0.0,0.00015107217948113046,0.009022970826963178,6.312607849646345e-06,0.0,0.0,0.0,0.0,0.0,0.0,0.0,0.0,0.0
10.537,306,10,537000000,base_footprint,-0.0038511640752835067,-0.00014314756157447704,0.999364970489408,-0.03542320994412899,0.0,0.0,0.0,0.0,0.0,0.0,0.0,0.0,0.0,-0.0002755164038106099,-0.00013006604678928523,0.040414714969708235,0.0,0.0,0.0,0.0,0.0,0.0,0.0,0.0,0.0,0.00013760621295102522,0.008998965462174362,-0.0002220668423968839,0.0,0.0,0.0,0.0,0.0,0.0,0.0,0.0,0.0
10.571,307,10,571000000,base_footprint,-0.0038518778434540996,-0.00014576052894289568,0.9993404526451992,-0.036108191561414316,0.0,0.0,0.0,0.0,0.0,0.0,0.0,0.0,0.0,-0.0002632707791678885,-0.00010532229997743724,0.04031109349140082,0.0,0.0,0.0,0.0,0.0,0.0,0.0,0.0,0.0,0.0001269587699457268,0.009005552289761362,-0.0001205194700201104,0.0,0.0,0.0,0.0,0.0,0.0,0.0,0.0,0.0
10.606,308,10,605000000,base_footprint,-0.0038528268887347283,-0.00014845709112356847,0.9993155870482713,-0.03678982424294364,0.0,0.0,0.0,0.0,0.0,0.0,0.0,0.0,0.0,-0.00026320331171826854,-8.284213489736288e-05,0.0399551167353235,0.0,0.0,0.0,0.0,0.0,0.0,0.0,0.0,0.0,-0.0006157337877885608,0.008826406189803692,-0.00010105872196532094,0.0,0.0,0.0,0.0,0.0,0.0,0.0,0.0,0.0
10.639,309,10,639000000,base_footprint,-0.0038541211132337746,-0.0001516740599202531,0.9992889850113305,-0.03750529536544346,0.0,0.0,0.0,0.0,0.0,0.0,0.0,0.0,0.0,-0.0005052799566881629,-0.0004054520737351881,0.04966503081026088,0.0,0.0,0.0,0.0,0.0,0.0,0.0,0.0,0.0,-0.001507401729366394,0.008925329761236809,0.0004279371563074367,0.0,0.0,0.0,0.0,0.0,0.0,0.0,0.0,0.0
10.673,310,10,673000000,base_footprint,-0.0038552565682028915,-0.00015510393224797721,0.9992570756488499,-0.038345921625021546,0.0,0.0,0.0,0.0,0.0,0.0,0.0,0.0,0.0,-0.0002973492591779142,3.149589343435032e-05,0.0493694048293538,0.0,0.0,0.0,0.0,0.0,0.0,0.0,0.0,0.0,-0.0036236427348167967,0.011034194912429586,-0.0007290974960161426,0.0,0.0,0.0,0.0,0.0,0.0,0.0,0.0,0.0
10.707,311,10,707000000,base_footprint,-0.003853460236193247,-0.00016061017909170929,0.9992265888636381,-0.03913245656122677,0.0,0.0,0.0,0.0,0.0,0.0,0.0,0.0,0.0,-0.00022818073436956145,0.00042598344203919377,0.04986368181078747,0.0,0.0,0.0,0.0,0.0,0.0,0.0,0.0,0.0,-0.0066444658134818665,0.008611879403687846,-0.0006777506591317261,0.0,0.0,0.0,0.0,0.0,0.0,0.0,0.0,0.0
10.75,312,10,741000000,base_footprint,-0.003855810757981318,-0.00016305951955867049,0.9991892148948821,-0.04007516653416386,0.0,0.0,0.0,0.0,0.0,0.0,0.0,0.0,0.0,-7.236899717385551e-05,-9.538925496529515e-05,0.06889697592684921,0.0,0.0,0.0,0.0,0.0,0.0,0.0,0.0,0.0,-0.0326622794557698,0.007552149083380383,0.001005286988208265,0.0,0.0,0.0,0.0,0.0,0.0,0.0,0.0,0.0
10.775,313,10,775000000,base_footprint,-0.003847423377736598,-0.00016300562014868954,0.9991404617786487,-0.04127357991825875,0.0,0.0,0.0,0.0,0.0,0.0,0.0,0.0,0.0,-0.0005967777480261939,-2.146768528301492e-05,0.06373715019616887,0.0,0.0,0.0,0.0,0.0,0.0,0.0,0.0,0.0,0.007529422825551085,0.01668077560324495,-0.0005815873140062795,0.0,0.0,0.0,0.0,0.0,0.0,0.0,0.0,0.0
10.809,314,10,809000000,base_footprint,-0.003850820278421976,-0.00017017715275167837,0.9990989143677104,-0.042267026535854575,0.0,0.0,0.0,0.0,0.0,0.0,0.0,0.0,0.0,-0.0005654332647554567,7.538411540568578e-05,0.05836775369415755,0.0,0.0,0.0,0.0,0.0,0.0,0.0,0.0,0.0,0.01263964945265533,0.014913082701185132,0.00019769931993634165,0.0,0.0,0.0,0.0,0.0,0.0,0.0,0.0,0.0
10.843,315,10,843000000,base_footprint,-0.0038569067037351997,-0.00017370704255927836,0.9990607624572564,-0.04315885789577391,0.0,0.0,0.0,0.0,0.0,0.0,0.0,0.0,0.0,0.0017053885172972753,-0.0015014852096387097,0.027269646697495455,0.0,0.0,0.0,0.0,0.0,0.0,0.0,0.0,0.0,-0.3089002104566402,-0.041625808115023887,0.0020866616366745187,0.0,0.0,0.0,0.0,0.0,0.0,0.0,0.0,0.0
10.877,316,10,877000000,base_footprint,-0.0038496041227230725,-0.0001743440627756185,0.9990497924555877,-0.043412697989104396,0.0,0.0,0.0,0.0,0.0,0.0,0.0,0.0,0.0,-0.00014656284791085233,-0.00021618838764569552,0.014599878042200838,0.0,0.0,0.0,0.0,0.0,0.0,0.0,0.0,0.0,-0.016527218744656492,0.00018767583787932755,-0.003997203699204324,0.0,0.0,0.0,0.0,0.0,0.0,0.0,0.0,0.0
10.912,317,10,911000000,base_footprint,-0.0038492110283458907,-0.00017514888210630824,0.9990390591257186,-0.043659033870754343,0.0,0.0,0.0,0.0,0.0,0.0,0.0,0.0,0.0,-0.00013857512716133717,-0.00016370089652297673,0.014503716967584441,0.0,0.0,0.0,0.0,0.0,0.0,0.0,0.0,0.0,0.0006142042173487967,0.0031888466199098326,-2.590740778451999e-05,0.0,0.0,0.0,0.0,0.0,0.0,0.0,0.0,0.0
10.944,318,10,945000000,base_footprint,-0.0038473141605967908,-0.00017631003745906433,0.9990209281609391,-0.0440721248066852,0.0,0.0,0.0,0.0,0.0,0.0,0.0,0.0,0.0,-0.0006074537500645018,-0.0006130481778228635,0.07299453747734753,0.0,0.0,0.0,0.0,0.0,0.0,0.0,0.0,0.0,0.28219100484886295,0.05477878274753942,0.002499899266468171,0.0,0.0,0.0,0.0,0.0,0.0,0.0,0.0,0.0
10.979,319,10,979000000,base_footprint,-0.00384890490050575,-0.00018224483970919999,0.9989535219330743,-0.04557426615308373,0.0,0.0,0.0,0.0,0.0,0.0,0.0,0.0,0.0,-0.0006380230864563039,-0.0002090155327967529,0.08887744071114705,0.0,0.0,0.0,0.0,0.0,0.0,0.0,0.0,0.0,0.03205840432698101,0.025314979351189086,4.1810917444541366e-05,0.0,0.0,0.0,0.0,0.0,0.0,0.0,0.0,0.0
11.013,320,11,13000000,base_footprint,-0.0038491778228072573,-0.00018799181330267652,0.9988836208571639,-0.04708142385748955,0.0,0.0,0.0,0.0,0.0,0.0,0.0,0.0,0.0,-0.000600268856340166,-0.0001744676623030454,0.08876519163416069,0.0,0.0,0.0,0.0,0.0,0.0,0.0,0.0,0.0,-0.0022532428279476635,0.019401822398748516,-0.00020040337846648738,0.0,0.0,0.0,0.0,0.0,0.0,0.0,0.0,0.0
11.047,321,11,47000000,base_footprint,-0.0038496865651500185,-0.00019345868583344738,0.998814901198947,-0.04851737451702075,0.0,0.0,0.0,0.0,0.0,0.0,0.0,0.0,0.0,-0.0005581148861498661,-0.00013435361146681135,0.08084296548860907,0.0,0.0,0.0,0.0,0.0,0.0,0.0,0.0,0.0,-0.00028178458216870613,0.018942426246762054,-0.0001340988634864817,0.0,0.0,0.0,0.0,0.0,0.0,0.0,0.0,0.0
11.081,322,11,81000000,base_footprint,-0.0038503735333708313,-0.00019877929028113618,0.9987474832463156,-0.04988586793469793,0.0,0.0,0.0,0.0,0.0,0.0,0.0,0.0,0.0,-0.0005507765868589152,-0.00012343718911122733,0.0804309052766369,0.0,0.0,0.0,0.0,0.0,0.0,0.0,0.0,0.0,-0.002981053430705459,0.017450135157341336,-0.0001076755689467992,0.0,0.0,0.0,0.0,0.0,0.0,0.0,0.0,0.0
11.114,323,11,115000000,base_footprint,-0.003851331281403908,-0.00020416642899831545,0.9986785729578345,-0.05124678993199108,0.0,0.0,0.0,0.0,0.0,0.0,0.0,0.0,0.0,-0.0005323617079921507,-3.658646998161519e-05,0.07987952437682848,0.0,0.0,0.0,0.0,0.0,0.0,0.0,0.0,0.0,-0.003875398076951822,0.017099221776619287,-0.00019803314141367395,0.0,0.0,0.0,0.0,0.0,0.0,0.0,0.0,0.0
11.148,324,11,149000000,base_footprint,-0.003852610599192042,-0.00020934986872406814,0.9986110083200268,-0.05254681366422666,0.0,0.0,0.0,0.0,0.0,0.0,0.0,0.0,0.0,-0.0005042684931827647,-7.374917875662475e-05,0.07173091206101141,0.0,0.0,0.0,0.0,0.0,0.0,0.0,0.0,0.0,-0.0025038918877500456,0.016578397581554313,2.746680134241326e-06,0.0,0.0,0.0,0.0,0.0,0.0,0.0,0.0,0.0
11.182,325,11,183000000,base_footprint,-0.0038523437060531615,-0.00021521828380587438,0.998547427323023,-0.053741497147295154,0.0,0.0,0.0,0.0,0.0,0.0,0.0,0.0,0.0,-0.0004128145243526192,0.00021889480860160635,0.07259867965167263,0.0,0.0,0.0,0.0,0.0,0.0,0.0,0.0,0.0,-0.0028223753880068678,0.015438865043551929,-0.00030913109074851247,0.0,0.0,0.0,0.0,0.0,0.0,0.0,0.0,0.0
11.218,326,11,217000000,base_footprint,-0.0038524156552148846,-0.00022213116568653923,0.9984792410727912,-0.0549937696295483,0.0,0.0,0.0,0.0,0.0,0.0,0.0,0.0,0.0,-0.0006452030719161905,-3.9295423512906794e-05,0.07856555115296177,0.0,0.0,0.0,0.0,0.0,0.0,0.0,0.0,0.0,-0.025804983833656234,0.011429136846404231,0.00010672038734122148,0.0,0.0,0.0,0.0,0.0,0.0,0.0,0.0,0.0
11.251,327,11,251000000,base_footprint,-0.0038439343685514353,-0.00022089425523148988,0.9984011849788049,-0.05639369829348334,0.0,0.0,0.0,0.0,0.0,0.0,0.0,0.0,0.0,-0.0003886072124554433,-0.0004406330080780491,0.07948240053777135,0.0,0.0,0.0,0.0,0.0,0.0,0.0,0.0,0.0,-0.03760893722208281,0.009473713693292342,0.0005946681426965223,0.0,0.0,0.0,0.0,0.0,0.0,0.0,0.0,0.0
