Time,yaw_world,delta_position_x_world,delta_position_y_world,delta_yaw,Theta_calculated,linear_velocity_x,world_velocity_x,world_velocity_y,angular_velocity_yaw,linear_acceleration_x,angular_acceleration_yaw,kinematic_delta_x,kinematic_delta_y,kinematic_delta_yaw,header.seq_x,header.stamp.secs_x,header.stamp.nsecs_x,header.frame_id_x,child_frame_id,pose.pose.position.x,pose.pose.position.y,pose.pose.position.z,pose.pose.orientation.x,pose.pose.orientation.y,pose.pose.orientation.z,pose.pose.orientation.w,pose.covariance,twist.twist.linear.x,twist.twist.linear.y,twist.twist.linear.z,twist.twist.angular.x,twist.twist.angular.y,twist.twist.angular.z,twist.covariance,linear.x,linear.y,linear.z,angular.x,angular.y,angular.z,header.seq_y,header.stamp.secs_y,header.stamp.nsecs_y,header.frame_id_y,orientation.x,orientation.y,orientation.z,orientation.w,orientation_covariance_0,orientation_covariance_1,orientation_covariance_2,orientation_covariance_3,orientation_covariance_4,orientation_covariance_5,orientation_covariance_6,orientation_covariance_7,orientation_covariance_8,angular_velocity.x,angular_velocity.y,angular_velocity.z,angular_velocity_covariance_0,angular_velocity_covariance_1,angular_velocity_covariance_2,angular_velocity_covariance_3,angular_velocity_covariance_4,angular_velocity_covariance_5,angular_velocity_covariance_6,angular_velocity_covariance_7,angular_velocity_covariance_8,linear_acceleration.x,linear_acceleration.y,linear_acceleration.z,linear_acceleration_covariance_0,linear_acceleration_covariance_1,linear_acceleration_covariance_2,linear_acceleration_covariance_3,linear_acceleration_covariance_4,linear_acceleration_covariance_5,linear_acceleration_covariance_6,linear_acceleration_covariance_7,linear_acceleration_covariance_8
0.445,0.7849526843984598,1.7046730262874374e-07,3.964943335811772e-07,-2.191318620337057e-06,0.7853791311355885,3.809306157269819e-05,2.6936374799715045e-05,2.6935349498951226e-05,-0.00043005857112798424,-0.0043895810565738975,-0.02655917356425041,8.969607683453564e-07,8.969676510857956e-07,-1.4320950418561877e-05,7.0,0.0,427000000.0,odom,base_footprint,-1.1868077478404284e-05,7.575011820568946e-07,-0.0010024794888062,-0.0014835641469578,0.0035650147941869,0.3824741177331301,0.9239581370231028,"(1e-05, 0.0, 0.0, 0.0, 0.0, 0.0, 0.0, 1e-05, 0.0, 0.0, 0.0, 0.0, 0.0, 0.0, 1000000000000.0, 0.0, 0.0, 0.0, 0.0, 0.0, 0.0, 1000000000000.0, 0.0, 0.0, 0.0, 0.0, 0.0, 0.0, 1000000000000.0, 0.0, 0.0, 0.0, 0.0, 0.0, 0.0, 0.001)",1.0660937977718978e-06,1.7797774423208275e-06,0.0,0.0,0.0,2.7198135971328373e-05,"(0.0, 0.0, 0.0, 0.0, 0.0, 0.0, 0.0, 0.0, 0.0, 0.0, 0.0, 0.0, 0.0, 0.0, 0.0, 0.0, 0.0, 0.0, 0.0, 0.0, 0.0, 0.0, 0.0, 0.0, 0.0, 0.0, 0.0, 0.0, 0.0, 0.0, 0.0, 0.0, 0.0, 0.0, 0.0, 0.0)",,,,,,,5,0,445000000,base_footprint,-0.001483309868899,0.0035644481922508,0.3824748135878532,0.9239578515667556,0.0,0.0,0.0,0.0,0.0,0.0,0.0,0.0,0.0,0.0002448406298369,3.928879341162263e-05,0.0001739169458873,0.0,0.0,0.0,0.0,0.0,0.0,0.0,0.0,0.0,0.001367855352837,-0.0057938467753733,-0.0003359173580438,0.0,0.0,0.0,0.0,0.0,0.0,0.0,0.0,0.0
0.47900000000000004,0.7849606756342312,-4.232623020848317e-07,3.1951412723637065e-07,7.991235771442895e-06,0.7853648101851699,-7.710824291945934e-06,-5.452557996599182e-06,-5.452194288081253e-06,1.764611189470713e-05,-0.001375492068007331,0.013444585075756495,-1.8156467577017449e-07,-1.8156357548551446e-07,5.876155260937475e-07,8.0,0.0,460000000.0,odom,base_footprint,-1.2118792151516455e-05,9.49453463037174e-07,-0.0010024033019943,-0.0014833253728275,0.0035644049519663,0.3824763258581715,0.9239572256989016,"(1e-05, 0.0, 0.0, 0.0, 0.0, 0.0, 0.0, 1e-05, 0.0, 0.0, 0.0, 0.0, 0.0, 0.0, 1000000000000.0, 0.0, 0.0, 0.0, 0.0, 0.0, 0.0, 1000000000000.0, 0.0, 0.0, 0.0, 0.0, 0.0, 0.0, 1000000000000.0, 0.0, 0.0, 0.0, 0.0, 0.0, 0.0, 0.001)",-2.087085239481797e-06,1.674745024942935e-05,0.0,0.0,0.0,0.0002540657654753,"(0.0, 0.0, 0.0, 0.0, 0.0, 0.0, 0.0, 0.0, 0.0, 0.0, 0.0, 0.0, 0.0, 0.0, 0.0, 0.0, 0.0, 0.0, 0.0, 0.0, 0.0, 0.0, 0.0, 0.0, 0.0, 0.0, 0.0, 0.0, 0.0, 0.0, 0.0, 0.0, 0.0, 0.0, 0.0, 0.0)",,,,,,,6,0,479000000,base_footprint,-0.0014833278770874,0.0035643375007179,0.3824785056627238,0.9239563236119984,0.0,0.0,0.0,0.0,0.0,0.0,0.0,0.0,0.0,0.0001825212938199,3.3597533977434146e-05,0.0002965893829907,0.0,0.0,0.0,0.0,0.0,0.0,0.0,0.0,0.0,-0.0002382618911989,-3.4130482671582e-05,-8.1159191353981e-05,0.0,0.0,0.0,0.0,0.0,0.0,0.0,0.0,0.0
0.513,0.7849708104618786,-5.3778644615223e-07,4.053903857022603e-07,1.0134827647334532e-05,0.7853653978006959,-7.314346091720736e-06,-5.172193183068371e-06,-5.171854254181133e-06,0.00015222259634009014,1.1906252259014959e-05,0.0040413358692307205,-1.7222842465408152e-07,-1.7222835519149519e-07,5.069012458125002e-06,9.0,0.0,494000000.0,odom,base_footprint,-1.2615677826815185e-05,1.3241821441847476e-06,-0.0010023895704702,-0.0014833313950451,0.0035642962569249,0.3824806546066085,0.9239554341914256,"(1e-05, 0.0, 0.0, 0.0, 0.0, 0.0, 0.0, 1e-05, 0.0, 0.0, 0.0, 0.0, 0.0, 0.0, 1000000000000.0, 0.0, 0.0, 0.0, 0.0, 0.0, 0.0, 1000000000000.0, 0.0, 0.0, 0.0, 0.0, 0.0, 0.0, 1000000000000.0, 0.0, 0.0, 0.0, 0.0, 0.0, 0.0, 0.001)",-2.635694152265893e-06,2.087880335514669e-05,0.0,0.0,0.0,0.0003164871292122,"(0.0, 0.0, 0.0, 0.0, 0.0, 0.0, 0.0, 0.0, 0.0, 0.0, 0.0, 0.0, 0.0, 0.0, 0.0, 0.0, 0.0, 0.0, 0.0, 0.0, 0.0, 0.0, 0.0, 0.0, 0.0, 0.0, 0.0, 0.0, 0.0, 0.0, 0.0, 0.0, 0.0, 0.0, 0.0, 0.0)",,,,,,,7,0,513000000,base_footprint,-0.0014833402180537,0.0035642707471204,0.3824831878724473,0.9239543856007012,0.0,0.0,0.0,0.0,0.0,0.0,0.0,0.0,0.0,0.0001795177087071,3.448493998837734e-05,0.0003258334514339,0.0,0.0,0.0,0.0,0.0,0.0,0.0,0.0,0.0,-5.696493317199969e-05,-7.653443026101254e-06,-5.908845356973795e-06,0.0,0.0,0.0,0.0,0.0,0.0,0.0,0.0,0.0
0.547,0.7849814695689495,-5.658127007952297e-07,4.263921391648748e-07,1.0659107070987162e-05,0.785370466813154,-5.481099843603612e-06,-3.8758302105711995e-06,-3.87561552200101e-06,0.00019219827579234245,5.505243988339711e-05,0.0012004708544219912,-1.290608574070852e-07,-1.2906228558722764e-07,6.4002025838850045e-06,10.0,0.0,527000000.0,odom,base_footprint,-1.3154741786306457e-05,1.7304610461896415e-06,-0.0010023859897583,-0.0014833493871321,0.0035642580030846,0.3824853467833471,0.923953491922351,"(1e-05, 0.0, 0.0, 0.0, 0.0, 0.0, 0.0, 1e-05, 0.0, 0.0, 0.0, 0.0, 0.0, 0.0, 1000000000000.0, 0.0, 0.0, 0.0, 0.0, 0.0, 0.0, 1000000000000.0, 0.0, 0.0, 0.0, 0.0, 0.0, 0.0, 1000000000000.0, 0.0, 0.0, 0.0, 0.0, 0.0, 0.0, 0.001)",-2.769289690845512e-06,2.1867653440916667e-05,0.0,0.0,0.0,0.0003314207354817,"(0.0, 0.0, 0.0, 0.0, 0.0, 0.0, 0.0, 0.0, 0.0, 0.0, 0.0, 0.0, 0.0, 0.0, 0.0, 0.0, 0.0, 0.0, 0.0, 0.0, 0.0, 0.0, 0.0, 0.0, 0.0, 0.0, 0.0, 0.0, 0.0, 0.0, 0.0, 0.0, 0.0, 0.0, 0.0, 0.0)",,,,,,,8,0,547000000,base_footprint,-0.0014833620135618,0.0035642471723327,0.3824881121816664,0.923952347158086,0.0,0.0,0.0,0.0,0.0,0.0,0.0,0.0,0.0,0.000178308198251,3.470953434057731e-05,0.0003330966420121,0.0,0.0,0.0,0.0,0.0,0.0,0.0,0.0,0.0,-1.415202710703911e-05,-1.879645323335176e-06,-1.871248014914e-06,0.0,0.0,0.0,0.0,0.0,0.0,0.0,0.0,0.0
0.5810000000000001,0.7849922591019654,-5.727901482657262e-07,4.316100947637275e-07,1.0789533015809205e-05,0.785376867015738,-3.992184604536045e-06,-2.822960922548912e-06,-2.822840687402747e-06,0.00021238335643609233,4.4712169341368376e-05,0.0006061585778903868,-9.400144348045586e-08,-9.400375015973806e-08,7.072365769321875e-06,11.0,0.0,560000000.0,odom,base_footprint,-1.3707967229954938e-05,2.147347052246836e-06,-0.0010023851762806,-0.0014833716253132,0.0035642411641822,0.3824901612647138,0.9239514989052392,"(1e-05, 0.0, 0.0, 0.0, 0.0, 0.0, 0.0, 1e-05, 0.0, 0.0, 0.0, 0.0, 0.0, 0.0, 1000000000000.0, 0.0, 0.0, 0.0, 0.0, 0.0, 0.0, 1000000000000.0, 0.0, 0.0, 0.0, 0.0, 0.0, 0.0, 1000000000000.0, 0.0, 0.0, 0.0, 0.0, 0.0, 0.0, 0.001)",-2.8026606301144164e-06,2.2124648548070405e-05,0.0,0.0,0.0,0.0003352981807682,"(0.0, 0.0, 0.0, 0.0, 0.0, 0.0, 0.0, 0.0, 0.0, 0.0, 0.0, 0.0, 0.0, 0.0, 0.0, 0.0, 0.0, 0.0, 0.0, 0.0, 0.0, 0.0, 0.0, 0.0, 0.0, 0.0, 0.0, 0.0, 0.0, 0.0, 0.0, 0.0, 0.0, 0.0, 0.0, 0.0)",,,,,,,9,0,581000000,base_footprint,-0.0014833855082187,0.0035642340223687,0.3824930967089382,0.9239502837129684,0.0,0.0,0.0,0.0,0.0,0.0,0.0,0.0,0.0,0.0001780198511774,3.479151334186521e-05,0.0003349092279982,0.0,0.0,0.0,0.0,0.0,0.0,0.0,0.0,0.0,-3.5323840850614357e-06,-4.723926173790463e-07,-4.328393071971787e-07,0.0,0.0,0.0,0.0,0.0,0.0,0.0,0.0,0.0
0.615,0.7850030812957758,-5.745441714320211e-07,4.329082379161617e-07,1.082219381043359e-05,0.7853839393815072,-2.7581488252702534e-06,-1.9503334788529155e-06,-1.950277996493106e-06,0.0002306006151414414,3.7058131509483225e-05,0.0005470648259864582,-6.494390521557748e-08,-6.494645690192859e-08,7.679000484209998e-06,12.0,0.0,594000000.0,odom,base_footprint,-1.4281770801108809e-05,2.57971020561909e-06,-0.0010023850615941,-0.001483395238912,0.0035642295651875,0.382495154514045,0.9239494318302536,"(1e-05, 0.0, 0.0, 0.0, 0.0, 0.0, 0.0, 1e-05, 0.0, 0.0, 0.0, 0.0, 0.0, 0.0, 1000000000000.0, 0.0, 0.0, 0.0, 0.0, 0.0, 0.0, 1000000000000.0, 0.0, 0.0, 0.0, 0.0, 0.0, 0.0, 1000000000000.0, 0.0, 0.0, 0.0, 0.0, 0.0, 0.0, 0.001)",-2.8118396264608235e-06,2.2192670446276364e-05,0.0,0.0,0.0,0.0003363249619538,"(0.0, 0.0, 0.0, 0.0, 0.0, 0.0, 0.0, 0.0, 0.0, 0.0, 0.0, 0.0, 0.0, 0.0, 0.0, 0.0, 0.0, 0.0, 0.0, 0.0, 0.0, 0.0, 0.0, 0.0, 0.0, 0.0, 0.0, 0.0, 0.0, 0.0, 0.0, 0.0, 0.0, 0.0, 0.0, 0.0)",,,,,,,10,0,615000000,base_footprint,-0.0014834090856372,0.0035642235940796,0.3824980963061135,0.9239482139870476,0.0,0.0,0.0,0.0,0.0,0.0,0.0,0.0,0.0,0.0001779491842885,3.483772494699874e-05,0.0003353700248575,0.0,0.0,0.0,0.0,0.0,0.0,0.0,0.0,0.0,-8.966253026990778e-07,-1.3558126166648258e-07,-1.1214589948610717e-07,0.0,0.0,0.0,0.0,0.0,0.0,0.0,0.0,0.0
0.649,0.7850139119136189,-5.750032738079287e-07,4.3323455691576113e-07,1.0830617843127222e-05,0.7853916183819915,-1.5152495272477483e-06,-1.0714502284960537e-06,-1.0714362032712352e-06,0.0002304277070252814,3.732430324391907e-05,-5.1924359207202926e-06,-3.567808428760008e-08,-3.568003386462941e-08,7.673242643941871e-06,12.0,0.0,594000000.0,odom,base_footprint,-1.4281770801108809e-05,2.57971020561909e-06,-0.0010023850615941,-0.001483395238912,0.0035642295651875,0.382495154514045,0.9239494318302536,"(1e-05, 0.0, 0.0, 0.0, 0.0, 0.0, 0.0, 1e-05, 0.0, 0.0, 0.0, 0.0, 0.0, 0.0, 1000000000000.0, 0.0, 0.0, 0.0, 0.0, 0.0, 0.0, 1000000000000.0, 0.0, 0.0, 0.0, 0.0, 0.0, 0.0, 1000000000000.0, 0.0, 0.0, 0.0, 0.0, 0.0, 0.0, 0.001)",-2.8118396264608235e-06,2.2192670446276364e-05,0.0,0.0,0.0,0.0003363249619538,"(0.0, 0.0, 0.0, 0.0, 0.0, 0.0, 0.0, 0.0, 0.0, 0.0, 0.0, 0.0, 0.0, 0.0, 0.0, 0.0, 0.0, 0.0, 0.0, 0.0, 0.0, 0.0, 0.0, 0.0, 0.0, 0.0, 0.0, 0.0, 0.0, 0.0, 0.0, 0.0, 0.0, 0.0, 0.0, 0.0)",,,,,,,11,0,649000000,base_footprint,-0.0014834323866659,0.0035642139663745,0.3825030997807737,0.9239461426215576,0.0,0.0,0.0,0.0,0.0,0.0,0.0,0.0,0.0,0.000177932811419,3.4873204754005414e-05,0.0003354956227578,0.0,0.0,0.0,0.0,0.0,0.0,0.0,0.0,0.0,-2.429817133162876e-07,-5.200206129805746e-08,-3.277008546622341e-08,0.0,0.0,0.0,0.0,0.0,0.0,0.0,0.0,0.0
0.683,0.7850247449449022,-5.751412112827391e-07,4.3331986293668884e-07,1.0833031283241645e-05,0.7853992916246353,-4.6167647954503767e-07,-3.264542010855003e-07,-3.264549377153413e-07,0.00023349019222944806,3.163883026134266e-05,9.19665226476474e-05,-1.0870556179496506e-08,-1.0871318129223843e-08,7.775223401240621e-06,13.0,0.0,627000000.0,odom,base_footprint,-1.4839664737866312e-05,3.000065033998984e-06,-0.0010023851233131,-0.0014834180336658,0.0035642198587892,0.3825000091738713,0.9239474220916056,"(1e-05, 0.0, 0.0, 0.0, 0.0, 0.0, 0.0, 1e-05, 0.0, 0.0, 0.0, 0.0, 0.0, 0.0, 1000000000000.0, 0.0, 0.0, 0.0, 0.0, 0.0, 0.0, 1000000000000.0, 0.0, 0.0, 0.0, 0.0, 0.0, 0.0, 1000000000000.0, 0.0, 0.0, 0.0, 0.0, 0.0, 0.0, 0.001)",-2.8145117114855868e-06,2.2210005547437908e-05,0.0,0.0,0.0,0.0003365871273202,"(0.0, 0.0, 0.0, 0.0, 0.0, 0.0, 0.0, 0.0, 0.0, 0.0, 0.0, 0.0, 0.0, 0.0, 0.0, 0.0, 0.0, 0.0, 0.0, 0.0, 0.0, 0.0, 0.0, 0.0, 0.0, 0.0, 0.0, 0.0, 0.0, 0.0, 0.0, 0.0, 0.0, 0.0, 0.0, 0.0)",,,,,,,12,0,683000000,base_footprint,-0.0014834553498665,0.0035642046511734,0.3825081043573685,0.9239440707674692,0.0,0.0,0.0,0.0,0.0,0.0,0.0,0.0,0.0,0.0001779299014508,3.49043307633542e-05,0.0003355381131782,0.0,0.0,0.0,0.0,0.0,0.0,0.0,0.0,0.0,-8.086140341501179e-08,-3.124057090944071e-08,-1.3521315016904942e-08,0.0,0.0,0.0,0.0,0.0,0.0,0.0,0.0,0.0
0.7170000000000001,0.7850355788988735,-5.751994662643069e-07,4.333453856517075e-07,1.0833953971389755e-05,0.7854070668480364,5.941391567387401e-07,4.2011608616565044e-07,4.201235671978865e-07,0.00024060984670596885,3.170617526377711e-05,0.00021380343773335693,1.3989389499500137e-08,1.3990590932621186e-08,8.012307895308764e-06,15.0,0.0,694000000.0,odom,base_footprint,-1.5972988861712948e-05,3.853933004488181e-06,-0.0010023853300968,-0.0014834633750254,0.0035642014096682,0.3825098707909269,0.9239433394706812,"(1e-05, 0.0, 0.0, 0.0, 0.0, 0.0, 0.0, 1e-05, 0.0, 0.0, 0.0, 0.0, 0.0, 0.0, 1000000000000.0, 0.0, 0.0, 0.0, 0.0, 0.0, 0.0, 1000000000000.0, 0.0, 0.0, 0.0, 0.0, 0.0, 0.0, 1000000000000.0, 0.0, 0.0, 0.0, 0.0, 0.0, 0.0, 0.001)",-2.816356949696172e-06,2.2217245770374688e-05,0.0,0.0,0.0,0.0003366978229446,"(0.0, 0.0, 0.0, 0.0, 0.0, 0.0, 0.0, 0.0, 0.0, 0.0, 0.0, 0.0, 0.0, 0.0, 0.0, 0.0, 0.0, 0.0, 0.0, 0.0, 0.0, 0.0, 0.0, 0.0, 0.0, 0.0, 0.0, 0.0, 0.0, 0.0, 0.0, 0.0, 0.0, 0.0, 0.0, 0.0)",,,,,,,13,0,717000000,base_footprint,-0.0014834779850574,0.0035641955168382,0.3825131093476015,0.9239419987102088,0.0,0.0,0.0,0.0,0.0,0.0,0.0,0.0,0.0,0.0001779303340658,3.493284174600012e-05,0.0003355600090606,0.0,0.0,0.0,0.0,0.0,0.0,0.0,0.0,0.0,-4.0632832968510737e-08,-2.6062392525006404e-08,-9.13727247953871e-09,0.0,0.0,0.0,0.0,0.0,0.0,0.0,0.0,0.0
0.751,0.7850464134056383,-5.752379260812353e-07,4.3335606752419305e-07,1.0834506764756391e-05,0.7854150791559319,1.64255846908106e-06,1.1614445847680047e-06,1.1614838788648738e-06,0.00023059037653468437,3.1484063433703296e-05,-0.0003008849901286629,3.867479469489511e-08,3.8678723055329733e-08,7.678659538604991e-06,15.0,0.0,694000000.0,odom,base_footprint,-1.5972988861712948e-05,3.853933004488181e-06,-0.0010023853300968,-0.0014834633750254,0.0035642014096682,0.3825098707909269,0.9239433394706812,"(1e-05, 0.0, 0.0, 0.0, 0.0, 0.0, 0.0, 1e-05, 0.0, 0.0, 0.0, 0.0, 0.0, 0.0, 1000000000000.0, 0.0, 0.0, 0.0, 0.0, 0.0, 0.0, 1000000000000.0, 0.0, 0.0, 0.0, 0.0, 0.0, 0.0, 1000000000000.0, 0.0, 0.0, 0.0, 0.0, 0.0, 0.0, 0.001)",-2.816356949696172e-06,2.2217245770374688e-05,0.0,0.0,0.0,0.0003366978229446,"(0.0, 0.0, 0.0, 0.0, 0.0, 0.0, 0.0, 0.0, 0.0, 0.0, 0.0, 0.0, 0.0, 0.0, 0.0, 0.0, 0.0, 0.0, 0.0, 0.0, 0.0, 0.0, 0.0, 0.0, 0.0, 0.0, 0.0, 0.0, 0.0, 0.0, 0.0, 0.0, 0.0, 0.0, 0.0, 0.0)",,,,,,,14,0,751000000,base_footprint,-0.0014835003173996,0.0035641865211017,0.382518114580776,0.923939926520561,0.0,0.0,0.0,0.0,0.0,0.0,0.0,0.0,0.0,0.0001779315993944,3.495931140830905e-05,0.0003355768110925,0.0,0.0,0.0,0.0,0.0,0.0,0.0,0.0,0.0,-3.063339823163973e-08,-2.4752105674699977e-08,-8.402956194169957e-09,0.0,0.0,0.0,0.0,0.0,0.0,0.0,0.0,0.0
0.785,0.7850572483732732,-5.752714450466163e-07,4.333630545965729e-07,1.0834967634876236e-05,0.7854227578154704,2.7760133118964203e-06,1.962889559598687e-06,1.9629861142261314e-06,0.00022464153713721858,3.403768296742824e-05,-0.00017864382574972346,6.536201485744033e-08,6.536964489823109e-08,7.48056318666938e-06,17.0,0.0,760000000.0,odom,base_footprint,-1.708961384027166e-05,4.695149817651213e-06,-0.0010023855267001,-0.0014835068320369,0.0035641838986523,0.3825195867471008,0.9239393170308552,"(1e-05, 0.0, 0.0, 0.0, 0.0, 0.0, 0.0, 1e-05, 0.0, 0.0, 0.0, 0.0, 0.0, 0.0, 1000000000000.0, 0.0, 0.0, 0.0, 0.0, 0.0, 0.0, 1000000000000.0, 0.0, 0.0, 0.0, 0.0, 0.0, 0.0, 1000000000000.0, 0.0, 0.0, 0.0, 0.0, 0.0, 0.0, 0.001)",-2.8175371412828824e-06,2.2219447789660195e-05,0.0,0.0,0.0,0.0003367325950371,"(0.0, 0.0, 0.0, 0.0, 0.0, 0.0, 0.0, 0.0, 0.0, 0.0, 0.0, 0.0, 0.0, 0.0, 0.0, 0.0, 0.0, 0.0, 0.0, 0.0, 0.0, 0.0, 0.0, 0.0, 0.0, 0.0, 0.0, 0.0, 0.0, 0.0, 0.0, 0.0, 0.0, 0.0, 0.0, 0.0)",,,,,,,15,0,785000000,base_footprint,-0.0014835223737486,0.0035641776447518,0.3825231200145503,0.9239378542160817,0.0,0.0,0.0,0.0,0.0,0.0,0.0,0.0,0.0,0.0001779330746663,3.498401130705618e-05,0.000335592361884,0.0,0.0,0.0,0.0,0.0,0.0,0.0,0.0,0.0,-2.81322585965601e-08,-2.440372347582348e-08,-8.541318126145403e-09,0.0,0.0,0.0,0.0,0.0,0.0,0.0,0.0,0.0
0.8190000000000001,0.7850680837788043,-5.753037097817708e-07,4.3336911208051443e-07,1.0835405531151032e-05,0.7854302383786572,4.188570762130613e-06,2.9616717892446244e-06,2.9618617864728215e-06,0.00022181527726751124,4.2419142649675446e-05,-8.487266875998017e-05,9.862034446073686e-08,9.863332328448249e-08,7.386448733008125e-06,18.0,0.0,794000000.0,odom,base_footprint,-1.7664894840265823e-05,5.128514701731833e-06,-0.0010023856201715,-0.0014835288121295,0.0035641750548597,0.3825245922373156,0.9239372446936628,"(1e-05, 0.0, 0.0, 0.0, 0.0, 0.0, 0.0, 1e-05, 0.0, 0.0, 0.0, 0.0, 0.0, 0.0, 1000000000000.0, 0.0, 0.0, 0.0, 0.0, 0.0, 0.0, 1000000000000.0, 0.0, 0.0, 0.0, 0.0, 0.0, 0.0, 1000000000000.0, 0.0, 0.0, 0.0, 0.0, 0.0, 0.0, 0.001)",-2.8181246315185327e-06,2.222042281675821e-05,0.0,0.0,0.0,0.0003367481408805,"(0.0, 0.0, 0.0, 0.0, 0.0, 0.0, 0.0, 0.0, 0.0, 0.0, 0.0, 0.0, 0.0, 0.0, 0.0, 0.0, 0.0, 0.0, 0.0, 0.0, 0.0, 0.0, 0.0, 0.0, 0.0, 0.0, 0.0, 0.0, 0.0, 0.0, 0.0, 0.0, 0.0, 0.0, 0.0, 0.0)",,,,,,,16,0,819000000,base_footprint,-0.0014835441794661,0.0035641688751037,0.3825281256384137,0.9239357818011268,0.0,0.0,0.0,0.0,0.0,0.0,0.0,0.0,0.0,0.0001779346052225,3.50071261936458e-05,0.0003356076132344,0.0,0.0,0.0,0.0,0.0,0.0,0.0,0.0,0.0,-2.7492532366725333e-08,-2.4296247183317988e-08,-8.866204726824665e-09,0.0,0.0,0.0,0.0,0.0,0.0,0.0,0.0,0.0
0.8530000000000001,0.7850789196163732,-5.75335637364744e-07,4.333749269208771e-07,1.083583756888995e-05,0.7854376248273902,5.536731786963971e-06,3.914906095235824e-06,3.915215083014296e-06,0.00020243553233254506,4.048531606106179e-05,-0.0005819743223713566,1.3036201831738552e-07,1.3038101642286454e-07,6.741103226673751e-06,18.0,0.0,794000000.0,odom,base_footprint,-1.7664894840265823e-05,5.128514701731833e-06,-0.0010023856201715,-0.0014835288121295,0.0035641750548597,0.3825245922373156,0.9239372446936628,"(1e-05, 0.0, 0.0, 0.0, 0.0, 0.0, 0.0, 1e-05, 0.0, 0.0, 0.0, 0.0, 0.0, 0.0, 1000000000000.0, 0.0, 0.0, 0.0, 0.0, 0.0, 0.0, 1000000000000.0, 0.0, 0.0, 0.0, 0.0, 0.0, 0.0, 1000000000000.0, 0.0, 0.0, 0.0, 0.0, 0.0, 0.0, 0.001)",-2.8181246315185327e-06,2.222042281675821e-05,0.0,0.0,0.0,0.0003367481408805,"(0.0, 0.0, 0.0, 0.0, 0.0, 0.0, 0.0, 0.0, 0.0, 0.0, 0.0, 0.0, 0.0, 0.0, 0.0, 0.0, 0.0, 0.0, 0.0, 0.0, 0.0, 0.0, 0.0, 0.0, 0.0, 0.0, 0.0, 0.0, 0.0, 0.0, 0.0, 0.0, 0.0, 0.0, 0.0, 0.0)",,,,,,,17,0,853000000,base_footprint,-0.0014835657578071,0.0035641602018266,0.3825331314497501,0.9239337092767782,0.0,0.0,0.0,0.0,0.0,0.0,0.0,0.0,0.0,0.0001779361522959,3.5028808322198764e-05,0.0003356228002461,0.0,0.0,0.0,0.0,0.0,0.0,0.0,0.0,0.0,-2.7316328457559413e-08,-2.4250662991532567e-08,-9.210640721925718e-09,0.0,0.0,0.0,0.0,0.0,0.0,0.0,0.0,0.0
0.887,0.7850897558843828,-5.753674577348676e-07,4.3338067052698867e-07,1.0836268009573047e-05,0.7854443659306167,7.185165789256764e-06,5.080444707849367e-06,5.0809141883711395e-06,0.00018633113307528164,4.950252259137518e-05,-0.00048361559331121375,1.6917320295153351e-07,1.6920004758433687e-07,6.204826731406879e-06,20.0,0.0,860000000.0,odom,base_footprint,-1.8781708258027143e-05,5.969769256324638e-06,-0.0010023857878198,-0.001483570804352,0.0035641581740576,0.3825343093148715,0.9239332216081274,"(1e-05, 0.0, 0.0, 0.0, 0.0, 0.0, 0.0, 1e-05, 0.0, 0.0, 0.0, 0.0, 0.0, 0.0, 1000000000000.0, 0.0, 0.0, 0.0, 0.0, 0.0, 0.0, 1000000000000.0, 0.0, 0.0, 0.0, 0.0, 0.0, 0.0, 1000000000000.0, 0.0, 0.0, 0.0, 0.0, 0.0, 0.0, 0.001)",-2.819257283776149e-06,2.2222283061981903e-05,0.0,0.0,0.0,0.0003367778827203,"(0.0, 0.0, 0.0, 0.0, 0.0, 0.0, 0.0, 0.0, 0.0, 0.0, 0.0, 0.0, 0.0, 0.0, 0.0, 0.0, 0.0, 0.0, 0.0, 0.0, 0.0, 0.0, 0.0, 0.0, 0.0, 0.0, 0.0, 0.0, 0.0, 0.0, 0.0, 0.0, 0.0, 0.0, 0.0, 0.0)",,,,,,,18,0,887000000,base_footprint,-0.001483587129929,0.0035641516158407,0.3825381374479027,0.9239316366433054,0.0,0.0,0.0,0.0,0.0,0.0,0.0,0.0,0.0,0.0001779377061911,3.504919205092112e-05,0.0003356379802949,0.0,0.0,0.0,0.0,0.0,0.0,0.0,0.0,0.0,-2.7256655670594366e-08,-2.4222326280123872e-08,-9.53518775292656e-09,0.0,0.0,0.0,0.0,0.0,0.0,0.0,0.0,0.0
0.921,0.7851005925823066,-5.753992302435368e-07,4.3338638641308644e-07,1.0836697923788385e-05,0.7854505707573483,9.314641335058549e-06,6.586100865046908e-06,6.5867912215440455e-06,0.00017200089272381724,6.394821458864218e-05,-0.0004303375480920241,2.1930994387963276e-07,2.1934736160892248e-07,5.727629727703114e-06,21.0,0.0,894000000.0,odom,base_footprint,-1.93570831950058e-05,6.403151273585116e-06,-0.0010023858678901,-0.001483592130812,0.0035641496073937,0.3825393153569487,0.9239311489489908,"(1e-05, 0.0, 0.0, 0.0, 0.0, 0.0, 0.0, 1e-05, 0.0, 0.0, 0.0, 0.0, 0.0, 0.0, 1000000000000.0, 0.0, 0.0, 0.0, 0.0, 0.0, 0.0, 1000000000000.0, 0.0, 0.0, 0.0, 0.0, 0.0, 0.0, 1000000000000.0, 0.0, 0.0, 0.0, 0.0, 0.0, 0.0, 0.001)",-2.8198377527920523e-06,2.22232377776746e-05,0.0,0.0,0.0,0.0003367931728794,"(0.0, 0.0, 0.0, 0.0, 0.0, 0.0, 0.0, 0.0, 0.0, 0.0, 0.0, 0.0, 0.0, 0.0, 0.0, 0.0, 0.0, 0.0, 0.0, 0.0, 0.0, 0.0, 0.0, 0.0, 0.0, 0.0, 0.0, 0.0, 0.0, 0.0, 0.0, 0.0, 0.0, 0.0, 0.0, 0.0)",,,,,,,19,0,921000000,base_footprint,-0.0014836083150402,0.0035641431089809,0.3825431436327013,0.9239295639007752,0.0,0.0,0.0,0.0,0.0,0.0,0.0,0.0,0.0,0.00017793926419,3.506839819378794e-05,0.0003356531668878,0.0,0.0,0.0,0.0,0.0,0.0,0.0,0.0,0.0,-2.722754641956964e-08,-2.420002544786625e-08,-9.833011357808786e-09,0.0,0.0,0.0,0.0,0.0,0.0,0.0,0.0,0.0
0.9550000000000001,0.7851114297098974,-5.754309717101967e-07,4.3339208627814554e-07,1.0837127590868079e-05,0.7854562983870761,-0.00015254568850573425,-0.00010785981980683387,-0.00010787236139496455,0.0021899661840864303,-0.004860670565789573,0.060599558299177556,-3.5914931403101826e-06,-3.5923884484630324e-06,7.292587393007814e-05,22.0,0.0,927000000.0,odom,base_footprint,-1.9915565716708845e-05,6.823792223103076e-06,-0.0010023859419999,-0.0014836126550873,0.0035641413667035,0.3825441743409711,0.9239291371461302,"(1e-05, 0.0, 0.0, 0.0, 0.0, 0.0, 0.0, 1e-05, 0.0, 0.0, 0.0, 0.0, 0.0, 0.0, 1000000000000.0, 0.0, 0.0, 0.0, 0.0, 0.0, 0.0, 1000000000000.0, 0.0, 0.0, 0.0, 0.0, 0.0, 0.0, 1000000000000.0, 0.0, 0.0, 0.0, 0.0, 0.0, 0.0, 0.001)",-2.82040075544034e-06,2.2224163487243115e-05,0.0,0.0,0.0,0.0003368080146093,"(0.0, 0.0, 0.0, 0.0, 0.0, 0.0, 0.0, 0.0, 0.0, 0.0, 0.0, 0.0, 0.0, 0.0, 0.0, 0.0, 0.0, 0.0, 0.0, 0.0, 0.0, 0.0, 0.0, 0.0, 0.0, 0.0, 0.0, 0.0, 0.0, 0.0, 0.0, 0.0, 0.0, 0.0, 0.0, 0.0)",,,,,,,20,0,955000000,base_footprint,-0.0014836293305695,0.0035641346738583,0.3825481500040982,0.9239274910492046,0.0,0.0,0.0,0.0,0.0,0.0,0.0,0.0,0.0,0.0001779408253206,3.5086536257342794e-05,0.0003356683625876,0.0,0.0,0.0,0.0,0.0,0.0,0.0,0.0,0.0,-2.7207274176303573e-08,-2.4180779338767306e-08,-1.0104070093748321e-08,0.0,0.0,0.0,0.0,0.0,0.0,0.0,0.0,0.0
0.9890000000000001,0.7851222672669899,-5.754626881925018e-07,4.3339777383837735e-07,1.083755709241352e-05,0.7855292242610061,9.914435727662156e-06,7.009645863792511e-06,7.011483485123557e-06,0.0001618774338320382,0.004878682409411303,-0.06090356607370546,2.3341356650350507e-07,2.3349003856898614e-07,5.3905185466068725e-06,23.0,0.0,960000000.0,odom,base_footprint,-2.0474078134997097e-05,7.244438539549293e-06,-0.0010023860128815,-0.001483633022803,0.0035641331922397,0.3825490335007722,0.92392712524055,"(1e-05, 0.0, 0.0, 0.0, 0.0, 0.0, 0.0, 1e-05, 0.0, 0.0, 0.0, 0.0, 0.0, 0.0, 1000000000000.0, 0.0, 0.0, 0.0, 0.0, 0.0, 0.0, 1000000000000.0, 0.0, 0.0, 0.0, 0.0, 0.0, 0.0, 1000000000000.0, 0.0, 0.0, 0.0, 0.0, 0.0, 0.0, 0.001)",-2.8209641377404427e-06,2.2225089377795554e-05,0.0,0.0,0.0,0.0003368228597132,"(0.0, 0.0, 0.0, 0.0, 0.0, 0.0, 0.0, 0.0, 0.0, 0.0, 0.0, 0.0, 0.0, 0.0, 0.0, 0.0, 0.0, 0.0, 0.0, 0.0, 0.0, 0.0, 0.0, 0.0, 0.0, 0.0, 0.0, 0.0, 0.0, 0.0, 0.0, 0.0, 0.0, 0.0, 0.0, 0.0)",,,,,,,21,0,989000000,base_footprint,-0.0014836501923285,0.0035641263037745,0.3825531565620768,0.9239254180885972,0.0,0.0,0.0,0.0,0.0,0.0,0.0,0.0,0.0,0.0001779423893587,3.510370546903741e-05,0.0003356835674753,0.0,0.0,0.0,0.0,0.0,0.0,0.0,0.0,0.0,-2.7190643145160983e-08,-2.4163728338456694e-08,-1.0349949243698026e-08,0.0,0.0,0.0,0.0,0.0,0.0,0.0,0.0,0.0
1.023,0.7851331052534496,-5.754943829630078e-07,4.334034507890404e-07,1.0837986459732997e-05,0.7855346147795527,8.49276420582432e-06,6.004471674774255e-06,6.006110535326873e-06,0.00019068390647922312,-4.269283849362872e-05,0.0008650592386542021,1.9994226568263644e-07,2.000101198808029e-07,6.3497740857581306e-06,23.0,0.0,960000000.0,odom,base_footprint,-2.0474078134997097e-05,7.244438539549293e-06,-0.0010023860128815,-0.001483633022803,0.0035641331922397,0.3825490335007722,0.92392712524055,"(1e-05, 0.0, 0.0, 0.0, 0.0, 0.0, 0.0, 1e-05, 0.0, 0.0, 0.0, 0.0, 0.0, 0.0, 1000000000000.0, 0.0, 0.0, 0.0, 0.0, 0.0, 0.0, 1000000000000.0, 0.0, 0.0, 0.0, 0.0, 0.0, 0.0, 1000000000000.0, 0.0, 0.0, 0.0, 0.0, 0.0, 0.0, 0.001)",-2.8209641377404427e-06,2.2225089377795554e-05,0.0,0.0,0.0,0.0003368228597132,"(0.0, 0.0, 0.0, 0.0, 0.0, 0.0, 0.0, 0.0, 0.0, 0.0, 0.0, 0.0, 0.0, 0.0, 0.0, 0.0, 0.0, 0.0, 0.0, 0.0, 0.0, 0.0, 0.0, 0.0, 0.0, 0.0, 0.0, 0.0, 0.0, 0.0, 0.0, 0.0, 0.0, 0.0, 0.0, 0.0)",,,,,,,22,1,23000000,base_footprint,-0.0014836709146611,0.0035641179926536,0.3825581633066291,0.9239233450189523,0.0,0.0,0.0,0.0,0.0,0.0,0.0,0.0,0.0,0.0001779439558578,3.511999586696787e-05,0.0003356987808737,0.0,0.0,0.0,0.0,0.0,0.0,0.0,0.0,0.0,-2.7175854554068323e-08,-2.4148488569932543e-08,-1.0573537574442418e-08,0.0,0.0,0.0,0.0,0.0,0.0,0.0,0.0,0.0
1.057,0.7851439436691593,-5.7552605835752e-07,4.334091182073979e-07,1.0838415709701898e-05,0.7855409645536383,6.749430449369356e-06,4.7718864630027526e-06,4.773249519466305e-06,0.00020572386267162136,-5.2352365058707604e-05,0.0004516503361080552,1.5889850152531116e-07,1.5895452499491397e-07,6.850604626964992e-06,25.0,1.0,27000000.0,odom,base_footprint,-2.1608119469995742e-05,8.098494496860346e-06,-0.0010023861480376,-0.0014836739511049,0.0035641167750635,0.3825588996083285,0.9239230401465728,"(1e-05, 0.0, 0.0, 0.0, 0.0, 0.0, 0.0, 1e-05, 0.0, 0.0, 0.0, 0.0, 0.0, 0.0, 1000000000000.0, 0.0, 0.0, 0.0, 0.0, 0.0, 0.0, 1000000000000.0, 0.0, 0.0, 0.0, 0.0, 0.0, 0.0, 1000000000000.0, 0.0, 0.0, 0.0, 0.0, 0.0, 0.0, 0.001)",-2.822105505961665e-06,2.222696577852113e-05,0.0,0.0,0.0,0.0003368530109687,"(0.0, 0.0, 0.0, 0.0, 0.0, 0.0, 0.0, 0.0, 0.0, 0.0, 0.0, 0.0, 0.0, 0.0, 0.0, 0.0, 0.0, 0.0, 0.0, 0.0, 0.0, 0.0, 0.0, 0.0, 0.0, 0.0, 0.0, 0.0, 0.0, 0.0, 0.0, 0.0, 0.0, 0.0, 0.0, 0.0)",,,,,,,23,1,57000000,base_footprint,-0.0014836915105795,0.0035641097349844,0.3825631702377502,0.9239212718402692,0.0,0.0,0.0,0.0,0.0,0.0,0.0,0.0,0.0,0.0001779455246491,3.513548899861248e-05,0.0003357140021404,0.0,0.0,0.0,0.0,0.0,0.0,0.0,0.0,0.0,-2.7162676149702342e-08,-2.4134875173158463e-08,-1.0776235028748831e-08,0.0,0.0,0.0,0.0,0.0,0.0,0.0,0.0,0.0
1.091,0.7851547825140158,-5.755577163727051e-07,4.334147769872662e-07,1.0838844856531082e-05,0.7855478151582653,5.499584384027044e-06,3.888211403327803e-06,3.889375332886474e-06,0.00022303164271914424,-3.7532914875144506e-05,0.0005197531545802664,1.294730694056537e-07,1.2952056745772718e-07,7.426953702547504e-06,26.0,1.0,60000000.0,odom,base_footprint,-2.216672235910233e-05,8.519157015471172e-06,-0.0010023862108097,-0.0014836939258772,0.003564108766771,0.3825637593007359,0.923921027929726,"(1e-05, 0.0, 0.0, 0.0, 0.0, 0.0, 0.0, 1e-05, 0.0, 0.0, 0.0, 0.0, 0.0, 0.0, 1000000000000.0, 0.0, 0.0, 0.0, 0.0, 0.0, 0.0, 1000000000000.0, 0.0, 0.0, 0.0, 0.0, 0.0, 0.0, 1000000000000.0, 0.0, 0.0, 0.0, 0.0, 0.0, 0.0, 0.001)",-2.822666171349464e-06,2.222788939609989e-05,0.0,0.0,0.0,0.0003368678666856,"(0.0, 0.0, 0.0, 0.0, 0.0, 0.0, 0.0, 0.0, 0.0, 0.0, 0.0, 0.0, 0.0, 0.0, 0.0, 0.0, 0.0, 0.0, 0.0, 0.0, 0.0, 0.0, 0.0, 0.0, 0.0, 0.0, 0.0, 0.0, 0.0, 0.0, 0.0, 0.0, 0.0, 0.0, 0.0, 0.0)",,,,,,,24,1,91000000,base_footprint,-0.0014837119918879,0.003564101525767,0.3825681773554367,0.9239191985525456,0.0,0.0,0.0,0.0,0.0,0.0,0.0,0.0,0.0,0.0001779470955475,3.515025906018426e-05,0.0003357292306449,0.0,0.0,0.0,0.0,0.0,0.0,0.0,0.0,0.0,-2.7150875647472007e-08,-2.412271741175955e-08,-1.096012718703488e-08,0.0,0.0,0.0,0.0,0.0,0.0,0.0,0.0,0.0
1.125,0.7851656217879274,-5.755893588248184e-07,4.3342042792965216e-07,1.083927391154482e-05,0.7855552421119679,4.5944732228107895e-06,3.2482728170674482e-06,3.249293446432019e-06,0.0002447196150641891,-2.718051535183947e-05,0.0006512904608121581,1.0816379464124065e-07,1.0820516064772637e-07,8.149163181637498e-06,27.0,1.0,94000000.0,odom,base_footprint,-2.2742283798892447e-05,8.95257245766808e-06,-0.0010023862731802,-0.0014837143944262,0.0035641005629472,0.3825687664403711,0.923918954629174,"(1e-05, 0.0, 0.0, 0.0, 0.0, 0.0, 0.0, 1e-05, 0.0, 0.0, 0.0, 0.0, 0.0, 0.0, 1000000000000.0, 0.0, 0.0, 0.0, 0.0, 0.0, 0.0, 1000000000000.0, 0.0, 0.0, 0.0, 0.0, 0.0, 0.0, 1000000000000.0, 0.0, 0.0, 0.0, 0.0, 0.0, 0.0, 0.001)",-2.82324296510042e-06,2.22288406561828e-05,0.0,0.0,0.0,0.0003368831758255,"(0.0, 0.0, 0.0, 0.0, 0.0, 0.0, 0.0, 0.0, 0.0, 0.0, 0.0, 0.0, 0.0, 0.0, 0.0, 0.0, 0.0, 0.0, 0.0, 0.0, 0.0, 0.0, 0.0, 0.0, 0.0, 0.0, 0.0, 0.0, 0.0, 0.0, 0.0, 0.0, 0.0, 0.0, 0.0, 0.0)",,,,,,,25,1,125000000,base_footprint,-0.0014837323692946,0.003564093360466,0.3825731846596864,0.9239171251557792,0.0,0.0,0.0,0.0,0.0,0.0,0.0,0.0,0.0,0.0001779486683229,3.516437308425665e-05,0.0003357444657896,0.0,0.0,0.0,0.0,0.0,0.0,0.0,0.0,0.0,-2.7140264755509484e-08,-2.4111875801785772e-08,-1.1127119525855986e-08,0.0,0.0,0.0,0.0,0.0,0.0,0.0,0.0,0.0
1.159,0.7851764614908128,-5.756209873228162e-07,4.3342607174840123e-07,1.0839702885401259e-05,0.7855633912751496,3.6248699671126624e-06,2.5627465925176156e-06,2.563593606836838e-06,0.00024925369966762435,-2.9117214885829643e-05,0.00013615869679985747,8.533654365755622e-08,8.537058391849264e-08,8.300148198931891e-06,28.0,1.0,127000000.0,odom,base_footprint,-2.3300947219677664e-05,9.37324579017339e-06,-0.0010023863316842,-0.0014837341626445,0.0035640926419662,0.3825736264896064,0.9239169422037704,"(1e-05, 0.0, 0.0, 0.0, 0.0, 0.0, 0.0, 1e-05, 0.0, 0.0, 0.0, 0.0, 0.0, 0.0, 1000000000000.0, 0.0, 0.0, 0.0, 0.0, 0.0, 0.0, 1000000000000.0, 0.0, 0.0, 0.0, 0.0, 0.0, 0.0, 1000000000000.0, 0.0, 0.0, 0.0, 0.0, 0.0, 0.0, 0.001)",-2.8238035917387296e-06,2.2229762489390017e-05,0.0,0.0,0.0,0.0003368980376327,"(0.0, 0.0, 0.0, 0.0, 0.0, 0.0, 0.0, 0.0, 0.0, 0.0, 0.0, 0.0, 0.0, 0.0, 0.0, 0.0, 0.0, 0.0, 0.0, 0.0, 0.0, 0.0, 0.0, 0.0, 0.0, 0.0, 0.0, 0.0, 0.0, 0.0, 0.0, 0.0, 0.0, 0.0, 0.0, 0.0)",,,,,,,26,1,159000000,base_footprint,-0.0014837526525136,0.0035640852349669,0.382578192150498,0.9239150516499668,0.0,0.0,0.0,0.0,0.0,0.0,0.0,0.0,0.0,0.0001779502428418,3.5177892120469416e-05,0.0003357597069797,0.0,0.0,0.0,0.0,0.0,0.0,0.0,0.0,0.0,-2.7130640451985242e-08,-2.410221116700793e-08,-1.1278748227774537e-08,0.0,0.0,0.0,0.0,0.0,0.0,0.0,0.0,0.0
1.193,0.7851873016226004,-5.756526032878705e-07,4.334317090571634e-07,1.084013178764831e-05,0.7855716914233486,2.972739089684647e-06,2.101679173827522e-06,2.102408700904458e-06,0.0002585320834076571,-1.9583509832673128e-05,0.0002786301423433255,6.998351271841846e-08,7.001261259488837e-08,8.609118377474983e-06,28.0,1.0,127000000.0,odom,base_footprint,-2.3300947219677664e-05,9.37324579017339e-06,-0.0010023863316842,-0.0014837341626445,0.0035640926419662,0.3825736264896064,0.9239169422037704,"(1e-05, 0.0, 0.0, 0.0, 0.0, 0.0, 0.0, 1e-05, 0.0, 0.0, 0.0, 0.0, 0.0, 0.0, 1000000000000.0, 0.0, 0.0, 0.0, 0.0, 0.0, 0.0, 1000000000000.0, 0.0, 0.0, 0.0, 0.0, 0.0, 0.0, 1000000000000.0, 0.0, 0.0, 0.0, 0.0, 0.0, 0.0, 0.001)",-2.8238035917387296e-06,2.2229762489390017e-05,0.0,0.0,0.0,0.0003368980376327,"(0.0, 0.0, 0.0, 0.0, 0.0, 0.0, 0.0, 0.0, 0.0, 0.0, 0.0, 0.0, 0.0, 0.0, 0.0, 0.0, 0.0, 0.0, 0.0, 0.0, 0.0, 0.0, 0.0, 0.0, 0.0, 0.0, 0.0, 0.0, 0.0, 0.0, 0.0, 0.0, 0.0, 0.0, 0.0, 0.0)",,,,,,,27,1,193000000,base_footprint,-0.0014837728503572,0.003564077145537,0.3825831998278712,0.9239129780351052,0.0,0.0,0.0,0.0,0.0,0.0,0.0,0.0,0.0,0.0001779518189076,3.5190871423603565e-05,0.0003357749537736,0.0,0.0,0.0,0.0,0.0,0.0,0.0,0.0,0.0,-2.7122097389017253e-08,-2.409363243030172e-08,-1.1416384571725233e-08,0.0,0.0,0.0,0.0,0.0,0.0,0.0,0.0,0.0
1.227,0.785198142183227,-5.75684208094316e-07,4.3343734048607524e-07,1.084056062661265e-05,0.7855894297939807,2.034201888508992e-06,1.4381228061659176e-06,1.4386730405477876e-06,0.00027217252830501085,-1.468835755336512e-05,-5.943516699302701e-05,4.788783366942817e-08,4.790946733499889e-08,9.063345192556862e-06,30.0,1.0,194000000.0,odom,base_footprint,-2.4435294897406146e-05,1.022735647929424e-05,-0.0010023864450425,-0.0014837740359817,0.0035640766707375,0.3825834944029382,0.923912856054364,"(1e-05, 0.0, 0.0, 0.0, 0.0, 0.0, 0.0, 1e-05, 0.0, 0.0, 0.0, 0.0, 0.0, 0.0, 1000000000000.0, 0.0, 0.0, 0.0, 0.0, 0.0, 0.0, 1000000000000.0, 0.0, 0.0, 0.0, 0.0, 0.0, 0.0, 1000000000000.0, 0.0, 0.0, 0.0, 0.0, 0.0, 0.0, 0.001)",-2.82493975768186e-06,2.223163619437581e-05,0.0,0.0,0.0,0.000336928219554,"(0.0, 0.0, 0.0, 0.0, 0.0, 0.0, 0.0, 0.0, 0.0, 0.0, 0.0, 0.0, 0.0, 0.0, 0.0, 0.0, 0.0, 0.0, 0.0, 0.0, 0.0, 0.0, 0.0, 0.0, 0.0, 0.0, 0.0, 0.0, 0.0, 0.0, 0.0, 0.0, 0.0, 0.0, 0.0, 0.0)",,,,,,,28,1,227000000,base_footprint,-0.0014837929708195,0.0035640690887904,0.3825882076918061,0.9239109043111904,0.0,0.0,0.0,0.0,0.0,0.0,0.0,0.0,0.0,0.0001779533963549,3.5203361143783256e-05,0.0003357902056711,0.0,0.0,0.0,0.0,0.0,0.0,0.0,0.0,0.0,-2.711434151963573e-08,-2.4086014413435262e-08,-1.1541279534824251e-08,0.0,0.0,0.0,0.0,0.0,0.0,0.0,0.0,0.0
1.2610000000000001,0.7852089831726365,-5.757158028588776e-07,4.334429665048284e-07,1.0840989409510726e-05,0.7855984931391734,1.7087553969279566e-06,1.2080304513897088e-06,1.2085145572336294e-06,0.0002770294111898653,-9.773167915346403e-06,0.00014585233888451772,4.0226019891634925e-08,4.0244928288395215e-08,9.225079392622516e-06,32.0,1.0,260000000.0,odom,base_footprint,-2.555283200618473e-05,1.1068740627972508e-05,-0.0010023865506398,-0.0014838130211524,0.0035640610616552,0.3825932157423038,0.9239088304782188,"(1e-05, 0.0, 0.0, 0.0, 0.0, 0.0, 0.0, 1e-05, 0.0, 0.0, 0.0, 0.0, 0.0, 0.0, 1000000000000.0, 0.0, 0.0, 0.0, 0.0, 0.0, 0.0, 1000000000000.0, 0.0, 0.0, 0.0, 0.0, 0.0, 0.0, 1000000000000.0, 0.0, 0.0, 0.0, 0.0, 0.0, 0.0, 0.001)",-2.826057135851585e-06,2.2233480101295608e-05,0.0,0.0,0.0,0.0003369579604065,"(0.0, 0.0, 0.0, 0.0, 0.0, 0.0, 0.0, 0.0, 0.0, 0.0, 0.0, 0.0, 0.0, 0.0, 0.0, 0.0, 0.0, 0.0, 0.0, 0.0, 0.0, 0.0, 0.0, 0.0, 0.0, 0.0, 0.0, 0.0, 0.0, 0.0, 0.0, 0.0, 0.0, 0.0, 0.0, 0.0)",,,,,,,29,1,261000000,base_footprint,-0.0014838130211524,0.0035640610616552,0.3825932157423038,0.9239088304782188,0.0,0.0,0.0,0.0,0.0,0.0,0.0,0.0,0.0,0.0001779549751766,3.521540674560404e-05,0.0003358054622819,0.0,0.0,0.0,0.0,0.0,0.0,0.0,0.0,0.0,-2.7107423499189396e-08,-2.40792721156403e-08,-1.1654415622908901e-08,0.0,0.0,0.0,0.0,0.0,0.0,0.0,0.0,0.0
1.295,0.7852198245907799,-5.757473887477368e-07,4.334485876589765e-07,1.0841418143336945e-05,0.7856077182185661,1.4875447210720728e-06,1.0516325156360118e-06,1.052073357350363e-06,0.000289575661625225,-6.642963238915428e-06,0.00037676427733813003,3.501814178285009e-08,3.5035263233233285e-08,9.642869532119995e-06,32.0,1.0,260000000.0,odom,base_footprint,-2.555283200618473e-05,1.1068740627972508e-05,-0.0010023865506398,-0.0014838130211524,0.0035640610616552,0.3825932157423038,0.9239088304782188,"(1e-05, 0.0, 0.0, 0.0, 0.0, 0.0, 0.0, 1e-05, 0.0, 0.0, 0.0, 0.0, 0.0, 0.0, 1000000000000.0, 0.0, 0.0, 0.0, 0.0, 0.0, 0.0, 1000000000000.0, 0.0, 0.0, 0.0, 0.0, 0.0, 0.0, 1000000000000.0, 0.0, 0.0, 0.0, 0.0, 0.0, 0.0, 0.001)",-2.826057135851585e-06,2.2233480101295608e-05,0.0,0.0,0.0,0.0003369579604065,"(0.0, 0.0, 0.0, 0.0, 0.0, 0.0, 0.0, 0.0, 0.0, 0.0, 0.0, 0.0, 0.0, 0.0, 0.0, 0.0, 0.0, 0.0, 0.0, 0.0, 0.0, 0.0, 0.0, 0.0, 0.0, 0.0, 0.0, 0.0, 0.0, 0.0, 0.0, 0.0, 0.0, 0.0, 0.0, 0.0)",0.0,0.0,0.0,0.0,0.0,0.0,30,1,295000000,base_footprint,-0.0014838330079344,0.0035640530613448,0.3825982239793656,0.9239067565361864,0.0,0.0,0.0,0.0,0.0,0.0,0.0,0.0,0.0,0.0001779565551086,3.522704956133087e-05,0.0003358207232764,0.0,0.0,0.0,0.0,0.0,0.0,0.0,0.0,0.0,-2.7101316185670747e-08,-2.407334744850581e-08,-1.1757453331613493e-08,0.0,0.0,0.0,0.0,0.0,0.0,0.0,0.0,0.0
1.329,0.7852306664376152,-5.757789666906882e-07,4.3345420434838175e-07,1.0841846835307756e-05,0.7856173610880981,1.2296579483288296e-06,8.693088606394067e-07,8.69690045189712e-07,0.00028438047864082265,-7.744347529827123e-06,-0.00015601150103310398,2.894697824242441e-08,2.8961684845509565e-08,9.469869938739396e-06,33.0,1.0,294000000.0,odom,base_footprint,-2.6128579394932468e-05,1.1502189215631484e-05,-0.0010023866030372,-0.0014838330079344,0.0035640530613448,0.3825982239793656,0.923906756536186,"(1e-05, 0.0, 0.0, 0.0, 0.0, 0.0, 0.0, 1e-05, 0.0, 0.0, 0.0, 0.0, 0.0, 0.0, 1000000000000.0, 0.0, 0.0, 0.0, 0.0, 0.0, 0.0, 1000000000000.0, 0.0, 0.0, 0.0, 0.0, 0.0, 0.0, 1000000000000.0, 0.0, 0.0, 0.0, 0.0, 0.0, 0.0, 0.001)",-2.8266319749780354e-06,2.2234429734770525e-05,0.0,0.0,0.0,0.0003369732847282,"(0.0, 0.0, 0.0, 0.0, 0.0, 0.0, 0.0, 0.0, 0.0, 0.0, 0.0, 0.0, 0.0, 0.0, 0.0, 0.0, 0.0, 0.0, 0.0, 0.0, 0.0, 0.0, 0.0, 0.0, 0.0, 0.0, 0.0, 0.0, 0.0, 0.0, 0.0, 0.0, 0.0, 0.0, 0.0, 0.0)",0.0,0.0,0.0,0.0,0.0,0.0,31,1,329000000,base_footprint,-0.0014838529371335,0.0035640450853313,0.3826032324029939,0.9239046824850882,0.0,0.0,0.0,0.0,0.0,0.0,0.0,0.0,0.0,0.0001779581361016,3.523832701485175e-05,0.0003358359882468,0.0,0.0,0.0,0.0,0.0,0.0,0.0,0.0,0.0,-2.70957307227167e-08,-2.4068116660025385e-08,-1.185083522040282e-08,0.0,0.0,0.0,0.0,0.0,0.0,0.0,0.0,0.0
1.363,0.7852415087131382,-5.758105390066237e-07,4.3345981858141855e-07,1.0842275523059717e-05,0.7856268309580369,1.057806693860337e-06,7.478112275742918e-07,7.481533061409056e-07,0.0002871021710066996,-5.160698332387166e-06,8.173250347978802e-05,2.4901246631862023e-08,2.4914371913679663e-08,9.560502294523098e-06,34.0,1.0,327000000.0,odom,base_footprint,-2.668742323547668e-05,1.1922894686780972e-05,-0.001002386652749,-0.0014838523517505,0.0035640453195952,0.3826030850937535,0.9239047434881478,"(1e-05, 0.0, 0.0, 0.0, 0.0, 0.0, 0.0, 1e-05, 0.0, 0.0, 0.0, 0.0, 0.0, 0.0, 1000000000000.0, 0.0, 0.0, 0.0, 0.0, 0.0, 0.0, 1000000000000.0, 0.0, 0.0, 0.0, 0.0, 0.0, 0.0, 1000000000000.0, 0.0, 0.0, 0.0, 0.0, 0.0, 0.0, 0.001)",-2.827191951738562e-06,2.2235350978729424e-05,0.0,0.0,0.0,0.0003369881602557,"(0.0, 0.0, 0.0, 0.0, 0.0, 0.0, 0.0, 0.0, 0.0, 0.0, 0.0, 0.0, 0.0, 0.0, 0.0, 0.0, 0.0, 0.0, 0.0, 0.0, 0.0, 0.0, 0.0, 0.0, 0.0, 0.0, 0.0, 0.0, 0.0, 0.0, 0.0, 0.0, 0.0, 0.0, 0.0, 0.0)",0.0,0.0,0.0,0.0,0.0,0.0,32,1,363000000,base_footprint,-0.0014838728143604,0.0035640371314548,0.3826082410132063,0.9239026083249126,0.0,0.0,0.0,0.0,0.0,0.0,0.0,0.0,0.0,0.000177959431411,3.524902145800075e-05,0.0003358512946474,0.0,0.0,0.0,0.0,0.0,0.0,0.0,0.0,0.0,-2.723620321370164e-08,-2.3575275985686807e-08,-1.11385385784767e-08,0.0,0.0,0.0,0.0,0.0,0.0,0.0,0.0,0.0
1.397,0.785252351419438,-5.75842186047084e-07,4.3346555330271183e-07,1.0842706299807325e-05,0.7856363914603314,9.421945005000137e-07,6.6607338640903e-07,6.66390816781022e-07,0.0002981916138449892,-3.471837638448145e-06,0.0003330163014501389,2.2179467201144176e-08,2.2191590367693468e-08,9.929780741038142e-06,34.0,1.0,327000000.0,odom,base_footprint,-2.668742323547668e-05,1.1922894686780972e-05,-0.001002386652749,-0.0014838523517505,0.0035640453195952,0.3826030850937535,0.9239047434881478,"(1e-05, 0.0, 0.0, 0.0, 0.0, 0.0, 0.0, 1e-05, 0.0, 0.0, 0.0, 0.0, 0.0, 0.0, 1000000000000.0, 0.0, 0.0, 0.0, 0.0, 0.0, 0.0, 1000000000000.0, 0.0, 0.0, 0.0, 0.0, 0.0, 0.0, 1000000000000.0, 0.0, 0.0, 0.0, 0.0, 0.0, 0.0, 0.001)",-2.827191951738562e-06,2.2235350978729424e-05,0.0,0.0,0.0,0.0003369881602557,"(0.0, 0.0, 0.0, 0.0, 0.0, 0.0, 0.0, 0.0, 0.0, 0.0, 0.0, 0.0, 0.0, 0.0, 0.0, 0.0, 0.0, 0.0, 0.0, 0.0, 0.0, 0.0, 0.0, 0.0, 0.0, 0.0, 0.0, 0.0, 0.0, 0.0, 0.0, 0.0, 0.0, 0.0, 0.0, 0.0)",0.2084210515022277,2.22353501158068e-05,0.0,0.0,0.0,0.0413626320660114,33,1,397000000,base_footprint,-0.0014838926465313,0.0035640291990638,0.3826132498109871,0.9239005340552396,0.0,0.0,0.0,0.0,0.0,0.0,0.0,0.0,0.0,0.0001779601371475,3.525861474465397e-05,0.0003358667466591,0.0,0.0,0.0,0.0,0.0,0.0,0.0,0.0,0.0,-2.7904149832535456e-08,-2.1015234605947328e-08,-6.594329114365502e-09,0.0,0.0,0.0,0.0,0.0,0.0,0.0,0.0,0.0
1.431,0.7852603594509009,2.86528774795557e-06,4.003911725088039e-06,8.00803146283613e-06,0.7856463212410725,7.958017841756831e-07,5.625771781486026e-07,5.628564633399496e-07,0.00029138423722201607,-4.396177667397316e-06,-0.00020442572441360825,1.873316624250054e-08,1.874377367175202e-08,9.703095099493135e-06,36.0,1.0,394000000.0,odom,base_footprint,-2.7822137143077103e-05,1.2777070659684107e-05,-0.0010023867507552,-0.0014838914811574,0.0035640296651587,0.382612955170644,0.9239006560741284,"(1e-05, 0.0, 0.0, 0.0, 0.0, 0.0, 0.0, 1e-05, 0.0, 0.0, 0.0, 0.0, 0.0, 0.0, 1000000000000.0, 0.0, 0.0, 0.0, 0.0, 0.0, 0.0, 1000000000000.0, 0.0, 0.0, 0.0, 0.0, 0.0, 0.0, 1000000000000.0, 0.0, 0.0, 0.0, 0.0, 0.0, 0.0, 0.001)",-2.828211218616003e-06,2.2237253880760027e-05,0.0,0.0,0.0,0.0003370185641779,"(0.0, 0.0, 0.0, 0.0, 0.0, 0.0, 0.0, 0.0, 0.0, 0.0, 0.0, 0.0, 0.0, 0.0, 0.0, 0.0, 0.0, 0.0, 0.0, 0.0, 0.0, 0.0, 0.0, 0.0, 0.0, 0.0, 0.0, 0.0, 0.0, 0.0, 0.0, 0.0, 0.0, 0.0, 0.0, 0.0)",0.2084210515022277,2.22353501158068e-05,0.0,0.0,0.0,0.0413626320660114,34,1,431000000,base_footprint,-0.0014810321243921,0.0035566095694291,0.3826169614392031,0.9238990301387096,0.0,0.0,0.0,0.0,0.0,0.0,0.0,0.0,0.0,0.004018137503884,-7.931842616101478e-05,-0.0012163263378286,0.0,0.0,0.0,0.0,0.0,0.0,0.0,0.0,0.0,-0.0010375091695016,0.0687255134667473,0.0045837356243486,0.0,0.0,0.0,0.0,0.0,0.0,0.0,0.0,0.0
1.465,0.7849121011972533,0.0003654915138995213,0.00036684068955634795,-0.00034825825364759316,0.7856560243361718,0.033369929020300754,0.02359001780026165,0.023602186826716907,-0.00027240233675417553,1.0020760726281253,-0.01693052774703278,0.0007855275554672865,0.0007859728477596358,-9.070997813914046e-06,38.0,1.0,460000000.0,odom,base_footprint,0.0002656577814874,0.0003087968305753,-0.0010021303191963,-0.0014820243908624,0.0035597603277695,0.3824893381752737,0.9239518590772764,"(1e-05, 0.0, 0.0, 0.0, 0.0, 0.0, 0.0, 1e-05, 0.0, 0.0, 0.0, 0.0, 0.0, 0.0, 1000000000000.0, 0.0, 0.0, 0.0, 0.0, 0.0, 0.0, 1000000000000.0, 0.0, 0.0, 0.0, 0.0, 0.0, 0.0, 1000000000000.0, 0.0, 0.0, 0.0, 0.0, 0.0, 0.0, 0.001)",0.0246582719273697,2.874700707765701e-05,0.0,0.0,0.0,-0.0164864465508263,"(0.0, 0.0, 0.0, 0.0, 0.0, 0.0, 0.0, 0.0, 0.0, 0.0, 0.0, 0.0, 0.0, 0.0, 0.0, 0.0, 0.0, 0.0, 0.0, 0.0, 0.0, 0.0, 0.0, 0.0, 0.0, 0.0, 0.0, 0.0, 0.0, 0.0, 0.0, 0.0, 0.0, 0.0, 0.0, 0.0)",0.2084210515022277,2.22353501158068e-05,0.0,0.0,0.0,0.0413626320660114,35,1,465000000,base_footprint,-0.0014809869222225,0.0035576370505765,0.382456077382921,0.9239656372231718,0.0,0.0,0.0,0.0,0.0,0.0,0.0,0.0,0.0,-0.0011277376060054,2.29190339152012e-05,-0.0188987524358736,0.0,0.0,0.0,0.0,0.0,0.0,0.0,0.0,0.0,0.0020654816280848,0.7392235155740873,-0.0100256201159351,0.0,0.0,0.0,0.0,0.0,0.0,0.0,0.0,0.0
1.499,0.7839733452925819,0.0009785764703245,0.0009780648219671,-0.0009387559046714068,0.785646953338358,0.06840557267464581,0.04835800883188328,0.04838207679256596,4.490666627693624e-05,1.0521214310614129,0.009528798889823175,0.0016102721077436966,0.0016111727174162368,1.4953919870219769e-06,38.0,1.0,460000000.0,odom,base_footprint,0.0002656577814874,0.0003087968305753,-0.0010021303191963,-0.0014820243908624,0.0035597603277695,0.3824893381752737,0.9239518590772764,"(1e-05, 0.0, 0.0, 0.0, 0.0, 0.0, 0.0, 1e-05, 0.0, 0.0, 0.0, 0.0, 0.0, 0.0, 1000000000000.0, 0.0, 0.0, 0.0, 0.0, 0.0, 0.0, 1000000000000.0, 0.0, 0.0, 0.0, 0.0, 0.0, 0.0, 1000000000000.0, 0.0, 0.0, 0.0, 0.0, 0.0, 0.0, 0.001)",0.0246582719273697,2.874700707765701e-05,0.0,0.0,0.0,-0.0164864465508263,"(0.0, 0.0, 0.0, 0.0, 0.0, 0.0, 0.0, 0.0, 0.0, 0.0, 0.0, 0.0, 0.0, 0.0, 0.0, 0.0, 0.0, 0.0, 0.0, 0.0, 0.0, 0.0, 0.0, 0.0, 0.0, 0.0, 0.0, 0.0, 0.0, 0.0, 0.0, 0.0, 0.0, 0.0, 0.0, 0.0)",0.2084210515022277,2.8747006581397727e-05,0.0,0.0,0.0,0.0409494489431381,36,1,499000000,base_footprint,-0.0014795368902374,0.0035587121302128,0.3820223457378867,0.9241450502467062,0.0,0.0,0.0,0.0,0.0,0.0,0.0,0.0,0.0,-0.0012474541984684,-6.809971736985044e-05,-0.0362884342036378,0.0,0.0,0.0,0.0,0.0,0.0,0.0,0.0,0.0,0.0028127290652064,0.7495141235724562,-0.004139163290064,0.0,0.0,0.0,0.0,0.0,0.0,0.0,0.0,0.0
1.533,0.7824425014196941,0.0015931249472453,0.0015875755497005998,-0.0015308438728878213,0.785648448730345,0.10008737715444917,0.07075474757109454,0.070790174189697,4.356814577372144e-05,0.9514055399340346,-4.01958109073512e-05,0.002356060594100808,0.0023573852620273595,1.4508192542649243e-06,40.0,1.0,527000000.0,odom,base_footprint,0.0026394156921115,0.0026779236194271,-0.0010023052883388,-0.001478593860778,0.0035626318571934,0.3814363435383186,0.9243870602959364,"(1e-05, 0.0, 0.0, 0.0, 0.0, 0.0, 0.0, 1e-05, 0.0, 0.0, 0.0, 0.0, 0.0, 0.0, 1000000000000.0, 0.0, 0.0, 0.0, 0.0, 0.0, 0.0, 1000000000000.0, 0.0, 0.0, 0.0, 0.0, 0.0, 0.0, 1000000000000.0, 0.0, 0.0, 0.0, 0.0, 0.0, 0.0, 0.001)",0.0748242291725963,3.729383217994375e-05,0.0,0.0,0.0,-0.0507563971837843,"(0.0, 0.0, 0.0, 0.0, 0.0, 0.0, 0.0, 0.0, 0.0, 0.0, 0.0, 0.0, 0.0, 0.0, 0.0, 0.0, 0.0, 0.0, 0.0, 0.0, 0.0, 0.0, 0.0, 0.0, 0.0, 0.0, 0.0, 0.0, 0.0, 0.0, 0.0, 0.0, 0.0, 0.0, 0.0, 0.0)",0.2084210515022277,2.8747006581397727e-05,0.0,0.0,0.0,0.0409494489431381,37,1,533000000,base_footprint,-0.0014775656280149,0.0035615509992582,0.3813148704369284,0.9244371810663844,0.0,0.0,0.0,0.0,0.0,0.0,0.0,0.0,0.0,-0.0021181409759315,-0.0001756436731313,-0.053702984898173,0.0,0.0,0.0,0.0,0.0,0.0,0.0,0.0,0.0,0.0066875982504242,0.7459481897061662,-0.0053634039481969,0.0,0.0,0.0,0.0,0.0,0.0,0.0,0.0,0.0
1.5670000000000002,0.7803223640241044,0.0022042723385041004,0.0021880341688833003,-0.002120137395589694,0.7856498995495993,0.13345053125013373,0.09434001783642812,0.09438752738347025,4.3207295823255216e-05,1.0018965193899267,-1.0836334848835631e-05,0.0031414259454834743,0.0031432012584946627,1.4388029509143987e-06,40.0,1.0,527000000.0,odom,base_footprint,0.0026394156921115,0.0026779236194271,-0.0010023052883388,-0.001478593860778,0.0035626318571934,0.3814363435383186,0.9243870602959364,"(1e-05, 0.0, 0.0, 0.0, 0.0, 0.0, 0.0, 1e-05, 0.0, 0.0, 0.0, 0.0, 0.0, 0.0, 1000000000000.0, 0.0, 0.0, 0.0, 0.0, 0.0, 0.0, 1000000000000.0, 0.0, 0.0, 0.0, 0.0, 0.0, 0.0, 1000000000000.0, 0.0, 0.0, 0.0, 0.0, 0.0, 0.0, 0.001)",0.0748242291725963,3.729383217994375e-05,0.0,0.0,0.0,-0.0507563971837843,"(0.0, 0.0, 0.0, 0.0, 0.0, 0.0, 0.0, 0.0, 0.0, 0.0, 0.0, 0.0, 0.0, 0.0, 0.0, 0.0, 0.0, 0.0, 0.0, 0.0, 0.0, 0.0, 0.0, 0.0, 0.0, 0.0, 0.0, 0.0, 0.0, 0.0, 0.0, 0.0, 0.0, 0.0, 0.0, 0.0)",0.2084210515022277,2.8747006581397727e-05,0.0,0.0,0.0,0.0409494489431381,38,1,567000000,base_footprint,-0.0014747461903595,0.0035652330246908,0.3803346863446135,0.924840873123749,0.0,0.0,0.0,0.0,0.0,0.0,0.0,0.0,0.0,-0.0024049791784486,-0.0003051828389583,-0.0708965451102823,0.0,0.0,0.0,0.0,0.0,0.0,0.0,0.0,0.0,0.0122119086958261,0.7325182498307256,-0.0043738707556493,0.0,0.0,0.0,0.0,0.0,0.0,0.0,0.0,0.0
1.601,0.7776254815076135,0.002798522778660599,0.0027640150274490004,-0.002696882516490917,0.7856513383525502,0.1715282200231292,0.12125805637810687,0.121319470934005,4.308278201294123e-05,1.1434741373271913,-3.739153462882435e-06,0.004037769060521075,0.004040062532478494,1.4346566410309431e-06,41.0,1.0,560000000.0,odom,base_footprint,0.0046836911518206,0.0047086088748022,-0.0010024516026049,-0.001475611769589,0.0035651255191284,0.3805276924224818,0.9247614761383388,"(1e-05, 0.0, 0.0, 0.0, 0.0, 0.0, 0.0, 1e-05, 0.0, 0.0, 0.0, 0.0, 0.0, 0.0, 1000000000000.0, 0.0, 0.0, 0.0, 0.0, 0.0, 0.0, 1000000000000.0, 0.0, 0.0, 0.0, 0.0, 0.0, 0.0, 1000000000000.0, 0.0, 0.0, 0.0, 0.0, 0.0, 0.0, 0.001)",0.0991220877498154,3.879285516715514e-05,0.0,0.0,0.0,-0.0675220374708427,"(0.0, 0.0, 0.0, 0.0, 0.0, 0.0, 0.0, 0.0, 0.0, 0.0, 0.0, 0.0, 0.0, 0.0, 0.0, 0.0, 0.0, 0.0, 0.0, 0.0, 0.0, 0.0, 0.0, 0.0, 0.0, 0.0, 0.0, 0.0, 0.0, 0.0, 0.0, 0.0, 0.0, 0.0, 0.0, 0.0)",0.2199999988079071,3.8792855775682256e-05,0.0,0.0,0.0,0.0063241217285394,39,1,601000000,base_footprint,-0.0014706534374858,0.0035687463303882,0.3790872451963487,0.92535288498904,0.0,0.0,0.0,0.0,0.0,0.0,0.0,0.0,0.0,-0.0025889695655727,-0.0003774037511906,-0.0875570801817895,0.0,0.0,0.0,0.0,0.0,0.0,0.0,0.0,0.0,0.0191779183387829,0.6945224640808052,-0.0040058513884881,0.0,0.0,0.0,0.0,0.0,0.0,0.0,0.0,0.0
1.635,0.7743809180653884,0.0033512039269151007,0.0032896095504404994,-0.003244563442225012,0.7856527730091912,0.20017665877774918,0.14151022922788253,0.1415823073102553,3.861872194555216e-05,0.8603134761147139,-0.00013405585787955158,0.00471214601965746,0.004714835368873145,1.286003440786887e-06,41.0,1.0,560000000.0,odom,base_footprint,0.0046836911518206,0.0047086088748022,-0.0010024516026049,-0.001475611769589,0.0035651255191284,0.3805276924224818,0.9247614761383388,"(1e-05, 0.0, 0.0, 0.0, 0.0, 0.0, 0.0, 1e-05, 0.0, 0.0, 0.0, 0.0, 0.0, 0.0, 1000000000000.0, 0.0, 0.0, 0.0, 0.0, 0.0, 0.0, 1000000000000.0, 0.0, 0.0, 0.0, 0.0, 0.0, 0.0, 1000000000000.0, 0.0, 0.0, 0.0, 0.0, 0.0, 0.0, 0.001)",0.0991220877498154,3.879285516715514e-05,0.0,0.0,0.0,-0.0675220374708427,"(0.0, 0.0, 0.0, 0.0, 0.0, 0.0, 0.0, 0.0, 0.0, 0.0, 0.0, 0.0, 0.0, 0.0, 0.0, 0.0, 0.0, 0.0, 0.0, 0.0, 0.0, 0.0, 0.0, 0.0, 0.0, 0.0, 0.0, 0.0, 0.0, 0.0, 0.0, 0.0, 0.0, 0.0, 0.0, 0.0)",0.2199999988079071,3.8792855775682256e-05,0.0,0.0,0.0,0.0063241217285394,40,1,635000000,base_footprint,-0.0014660456433524,0.0035738153808324,0.3775855599745422,0.9259666427320732,0.0,0.0,0.0,0.0,0.0,0.0,0.0,0.0,0.0,-0.0015079970015589,-0.0004998113242024,-0.1028519424698446,0.0,0.0,0.0,0.0,0.0,0.0,0.0,0.0,0.0,0.0257785264463318,0.6224443068946058,-0.0021000837487429,0.0,0.0,0.0,0.0,0.0,0.0,0.0,0.0,0.0
1.669,0.7706431790913062,0.0038283106614901002,0.0037312388748720997,-0.0037377389740822498,0.7856540590126319,0.21801746537128583,0.1541221738494395,0.15420107241794065,0.006262723512252921,0.5357599577638633,0.18691005376298406,0.005131578697735824,0.0051355849389054745,0.00020854869295802229,43.0,1.0,627000000.0,odom,base_footprint,0.0105342483405144,0.0104743959618265,-0.0010028835216942,-0.0014670772937975,0.0035726626424852,0.3779146160815057,0.9258323966668184,"(1e-05, 0.0, 0.0, 0.0, 0.0, 0.0, 0.0, 1e-05, 0.0, 0.0, 0.0, 0.0, 0.0, 0.0, 1000000000000.0, 0.0, 0.0, 0.0, 0.0, 0.0, 0.0, 1000000000000.0, 0.0, 0.0, 0.0, 0.0, 0.0, 0.0, 1000000000000.0, 0.0, 0.0, 0.0, 0.0, 0.0, 0.0, 0.001)",0.1440676324282481,2.821501797620196e-05,0.0,0.0,0.0,-0.0996492792684208,"(0.0, 0.0, 0.0, 0.0, 0.0, 0.0, 0.0, 0.0, 0.0, 0.0, 0.0, 0.0, 0.0, 0.0, 0.0, 0.0, 0.0, 0.0, 0.0, 0.0, 0.0, 0.0, 0.0, 0.0, 0.0, 0.0, 0.0, 0.0, 0.0, 0.0, 0.0, 0.0, 0.0, 0.0, 0.0, 0.0)",0.2199999988079071,3.8792855775682256e-05,0.0,0.0,0.0,0.0063241217285394,41,1,669000000,base_footprint,-0.0014601802623277,0.003578624654537,0.3758543874784602,0.9266706754464472,0.0,0.0,0.0,0.0,0.0,0.0,0.0,0.0,0.0,-0.0005753838771272,-0.0005771116282352,-0.1163436699968668,0.0,0.0,0.0,0.0,0.0,0.0,0.0,0.0,0.0,0.0310562103500788,0.5012334767239449,-0.0016705160181565,0.0,0.0,0.0,0.0,0.0,0.0,0.0,0.0,0.0
1.703,0.7664796769073046,0.004191746017447101,0.004052769675202999,-0.004163502184001633,0.7858626077055899,0.22462110431681231,0.1587573207289048,0.1589048571299315,0.00648243891081976,0.1983074758416362,0.006598060017022189,0.0052858886892156376,0.005292261034472606,0.00021586521573029803,45.0,1.0,694000000.0,odom,base_footprint,0.0182744759484017,0.0179999442081248,-0.0010033694819895,-0.0014551036637414,0.0035826972122406,0.3743947694462691,0.9272613458811318,"(1e-05, 0.0, 0.0, 0.0, 0.0, 0.0, 0.0, 1e-05, 0.0, 0.0, 0.0, 0.0, 0.0, 0.0, 1000000000000.0, 0.0, 0.0, 0.0, 0.0, 0.0, 0.0, 1000000000000.0, 0.0, 0.0, 0.0, 0.0, 0.0, 0.0, 1000000000000.0, 0.0, 0.0, 0.0, 0.0, 0.0, 0.0, 0.001)",0.1744163709341254,7.848783592931396e-06,0.0,0.0,0.0,-0.1253517389571481,"(0.0, 0.0, 0.0, 0.0, 0.0, 0.0, 0.0, 0.0, 0.0, 0.0, 0.0, 0.0, 0.0, 0.0, 0.0, 0.0, 0.0, 0.0, 0.0, 0.0, 0.0, 0.0, 0.0, 0.0, 0.0, 0.0, 0.0, 0.0, 0.0, 0.0, 0.0, 0.0, 0.0, 0.0, 0.0, 0.0)",0.2199999988079071,2.821501766447909e-05,0.0,0.0,0.0,0.0,42,1,703000000,base_footprint,-0.0014534337970616,0.0035839543798885,0.373924472587992,0.9274510939133086,0.0,0.0,0.0,0.0,0.0,0.0,0.0,0.0,0.0,-0.0006188959523738,-0.0006280816085075,-0.127885237379406,0.0,0.0,0.0,0.0,0.0,0.0,0.0,0.0,0.0,0.0339690445390813,0.3364084703739829,-0.0019253631677483,0.0,0.0,0.0,0.0,0.0,0.0,0.0,0.0,0.0
1.737,0.7619608395821528,0.004413236633720098,0.004223539686875402,-0.004518837325151792,0.7860784729213204,0.21801488683392206,0.15405489283031598,0.1542646455810524,1.2397346496231433e-05,-0.19838490939610368,-0.194295542472178,0.005129872606389636,0.0051371678056653675,4.128316383245068e-07,45.0,1.0,694000000.0,odom,base_footprint,0.0182744759484017,0.0179999442081248,-0.0010033694819895,-0.0014551036637414,0.0035826972122406,0.3743947694462691,0.9272613458811318,"(1e-05, 0.0, 0.0, 0.0, 0.0, 0.0, 0.0, 1e-05, 0.0, 0.0, 0.0, 0.0, 0.0, 0.0, 1000000000000.0, 0.0, 0.0, 0.0, 0.0, 0.0, 0.0, 1000000000000.0, 0.0, 0.0, 0.0, 0.0, 0.0, 0.0, 1000000000000.0, 0.0, 0.0, 0.0, 0.0, 0.0, 0.0, 0.001)",0.1744163709341254,7.848783592931396e-06,0.0,0.0,0.0,-0.1253517389571481,"(0.0, 0.0, 0.0, 0.0, 0.0, 0.0, 0.0, 0.0, 0.0, 0.0, 0.0, 0.0, 0.0, 0.0, 0.0, 0.0, 0.0, 0.0, 0.0, 0.0, 0.0, 0.0, 0.0, 0.0, 0.0, 0.0, 0.0, 0.0, 0.0, 0.0, 0.0, 0.0, 0.0, 0.0, 0.0, 0.0)",0.2199999988079071,2.821501766447909e-05,0.0,0.0,0.0,0.0,43,1,737000000,base_footprint,-0.0014441316784003,0.0035865796729765,0.371828017993594,0.9282935828523756,0.0,0.0,0.0,0.0,0.0,0.0,0.0,0.0,0.0,-0.0003513589410597,-0.000698052887391,-0.1372187897435251,0.0,0.0,0.0,0.0,0.0,0.0,0.0,0.0,0.0,0.0370524137527421,0.1433923777381955,-0.0002463787304883,0.0,0.0,0.0,0.0,0.0,0.0,0.0,0.0,0.0
1.771,0.7571918559301397,0.0044682741138099,0.004237627162157698,-0.004768983652013059,0.7860788857529586,0.21801341484726913,0.15405378900200453,0.15426366761973911,1.8997603424070545e-06,-4.420380339125867e-05,-0.0003152428274421735,0.005129836754347503,0.005137134331308796,6.326201940215493e-08,46.0,1.0,727000000.0,odom,base_footprint,0.0225186611002957,0.0220731858106102,-0.0010032852242597,-0.0014468660853514,0.0035861777510987,0.3723971169335228,0.9280654250683348,"(1e-05, 0.0, 0.0, 0.0, 0.0, 0.0, 0.0, 1e-05, 0.0, 0.0, 0.0, 0.0, 0.0, 0.0, 1000000000000.0, 0.0, 0.0, 0.0, 0.0, 0.0, 0.0, 1000000000000.0, 0.0, 0.0, 0.0, 0.0, 0.0, 0.0, 1000000000000.0, 0.0, 0.0, 0.0, 0.0, 0.0, 0.0, 0.001)",0.1808642107776716,-0.0001689696848876,0.0,0.0,0.0,-0.1349974885475984,"(0.0, 0.0, 0.0, 0.0, 0.0, 0.0, 0.0, 0.0, 0.0, 0.0, 0.0, 0.0, 0.0, 0.0, 0.0, 0.0, 0.0, 0.0, 0.0, 0.0, 0.0, 0.0, 0.0, 0.0, 0.0, 0.0, 0.0, 0.0, 0.0, 0.0, 0.0, 0.0, 0.0, 0.0, 0.0, 0.0)",0.2199999988079071,2.821501766447909e-05,0.0,0.0,0.0,0.0,44,1,771000000,base_footprint,-0.0014318146172015,0.0035743798757698,0.3696134853207018,0.9291776176730092,0.0,0.0,0.0,0.0,0.0,0.0,0.0,0.0,0.0,0.0022701038699449,-0.0003371630057474,-0.14179470623084,0.0,0.0,0.0,0.0,0.0,0.0,0.0,0.0,0.0,0.0008674321879473,-0.028454030784671,0.0029858333635462,0.0,0.0,0.0,0.0,0.0,0.0,0.0,0.0,0.0
1.8050000000000002,0.7522591987316054,0.004484261676517203,0.004233435753933704,-0.004932657198534306,0.7860789490149781,0.22461384533228537,0.15871780994750392,0.1589340628072656,0.00011267933515638154,0.19821112567616334,0.003326713958377612,0.005285134208381985,0.0052926729192696665,3.752221860707506e-06,48.0,1.0,794000000.0,odom,base_footprint,0.0313211622427637,0.0304196241178961,-0.0010013172678729,-0.0014259248103149,0.003578240520397,0.3680066917508526,0.929815163223211,"(1e-05, 0.0, 0.0, 0.0, 0.0, 0.0, 0.0, 1e-05, 0.0, 0.0, 0.0, 0.0, 0.0, 0.0, 1000000000000.0, 0.0, 0.0, 0.0, 0.0, 0.0, 0.0, 1000000000000.0, 0.0, 0.0, 0.0, 0.0, 0.0, 0.0, 1000000000000.0, 0.0, 0.0, 0.0, 0.0, 0.0, 0.0, 0.001)",0.1818173179239119,0.0002048115173702,0.0,0.0,0.0,-0.1464111119186453,"(0.0, 0.0, 0.0, 0.0, 0.0, 0.0, 0.0, 0.0, 0.0, 0.0, 0.0, 0.0, 0.0, 0.0, 0.0, 0.0, 0.0, 0.0, 0.0, 0.0, 0.0, 0.0, 0.0, 0.0, 0.0, 0.0, 0.0, 0.0, 0.0, 0.0, 0.0, 0.0, 0.0, 0.0, 0.0, 0.0)",0.2084210515022277,0.0,0.0,0.0,0.0,0.0044896998442709,45,1,805000000,base_footprint,-0.0014238464832145,0.0035795490238104,0.3673207042461492,0.9300863721838372,0.0,0.0,0.0,0.0,0.0,0.0,0.0,0.0,0.0,-0.0008314751857639,-0.0008129915134923,-0.1484678499075891,0.0,0.0,0.0,0.0,0.0,0.0,0.0,0.0,0.0,0.0407624525932309,0.0788545305049774,-0.0045592184583369,0.0,0.0,0.0,0.0,0.0,0.0,0.0,0.0,0.0
1.839,0.7470700598264615,0.004656447969030995,0.004342282638326797,-0.005189138905143942,0.7860827012368388,0.21801802901733608,0.1540564608870766,0.1542675203519932,9.81322673146459e-06,-0.19807256201048926,-0.003089072325072581,0.005129925042888467,0.005137263315364597,3.267804501577709e-07,48.0,1.0,794000000.0,odom,base_footprint,0.0313211622427637,0.0304196241178961,-0.0010013172678729,-0.0014259248103149,0.003578240520397,0.3680066917508526,0.929815163223211,"(1e-05, 0.0, 0.0, 0.0, 0.0, 0.0, 0.0, 1e-05, 0.0, 0.0, 0.0, 0.0, 0.0, 0.0, 1000000000000.0, 0.0, 0.0, 0.0, 0.0, 0.0, 0.0, 1000000000000.0, 0.0, 0.0, 0.0, 0.0, 0.0, 0.0, 1000000000000.0, 0.0, 0.0, 0.0, 0.0, 0.0, 0.0, 0.001)",0.1818173179239119,0.0002048115173702,0.0,0.0,0.0,-0.1464111119186453,"(0.0, 0.0, 0.0, 0.0, 0.0, 0.0, 0.0, 0.0, 0.0, 0.0, 0.0, 0.0, 0.0, 0.0, 0.0, 0.0, 0.0, 0.0, 0.0, 0.0, 0.0, 0.0, 0.0, 0.0, 0.0, 0.0, 0.0, 0.0, 0.0, 0.0, 0.0, 0.0, 0.0, 0.0, 0.0, 0.0)",0.2084210515022277,0.0,0.0,0.0,0.0,0.0044896998442709,46,1,839000000,base_footprint,-0.0014105382105098,0.0035814914620953,0.3649062900937247,0.9310362950771028,0.0,0.0,0.0,0.0,0.0,0.0,0.0,0.0,0.0,-0.0005654600381317,-0.0007713416172943,-0.1565174252682971,0.0,0.0,0.0,0.0,0.0,0.0,0.0,0.0,0.0,0.0507540847707012,0.2499136728234807,-0.0015243343609902,0.0,0.0,0.0,0.0,0.0,0.0,0.0,0.0,0.0
1.8730000000000002,0.7425241455786449,0.0049203543556058035,0.004536906871966097,-0.004545914247816584,0.7860830280172889,0.20628056875012,0.14576245880083893,0.1459622507643902,0.013994304370889507,-0.35247628430078337,0.419954689013755,0.004852611175316299,0.004861819479258309,0.00046601033555062065,50.0,1.0,860000000.0,odom,base_footprint,0.0404650385690825,0.0389272316432211,-0.0010033705948257,-0.0014220546916158,0.0035948051199884,0.363386226179257,0.931630562916332,"(1e-05, 0.0, 0.0, 0.0, 0.0, 0.0, 0.0, 1e-05, 0.0, 0.0, 0.0, 0.0, 0.0, 0.0, 1000000000000.0, 0.0, 0.0, 0.0, 0.0, 0.0, 0.0, 1000000000000.0, 0.0, 0.0, 0.0, 0.0, 0.0, 0.0, 1000000000000.0, 0.0, 0.0, 0.0, 0.0, 0.0, 0.0, 0.001)",0.1980237005432198,0.000112908986815,0.0,0.0,0.0,-0.1250759742905341,"(0.0, 0.0, 0.0, 0.0, 0.0, 0.0, 0.0, 0.0, 0.0, 0.0, 0.0, 0.0, 0.0, 0.0, 0.0, 0.0, 0.0, 0.0, 0.0, 0.0, 0.0, 0.0, 0.0, 0.0, 0.0, 0.0, 0.0, 0.0, 0.0, 0.0, 0.0, 0.0, 0.0, 0.0, 0.0, 0.0)",0.2084210515022277,0.0,0.0,0.0,0.0,0.0044896998442709,47,1,873000000,base_footprint,-0.001418506666699,0.0035950473913798,0.3627891626188984,0.9318632340420824,0.0,0.0,0.0,0.0,0.0,0.0,0.0,0.0,0.0,-0.0001554519749904,-0.0003156040131047,-0.089242083976472,0.0,0.0,0.0,0.0,0.0,0.0,0.0,0.0,0.0,0.0498048316140421,0.2659299054166391,-0.0010204229058866,0.0,0.0,0.0,0.0,0.0,0.0,0.0,0.0,0.0
1.907,0.741394008597607,0.005172532036921397,0.004739189312808104,-0.0011301369810379212,0.7865490383528395,0.21243994435689745,0.1500447439873072,0.15039050754667044,0.00899395650901857,0.18496623443776145,-0.1501605964525807,0.004995589542422663,0.005008902064632908,0.0002994987517503184,51.0,1.0,894000000.0,odom,base_footprint,0.045537859553854,0.0435819091494837,-0.0010026590934176,-0.001413076168702,0.0035926583035794,0.3623089964761632,0.9320500453808748,"(1e-05, 0.0, 0.0, 0.0, 0.0, 0.0, 0.0, 1e-05, 0.0, 0.0, 0.0, 0.0, 0.0, 0.0, 1000000000000.0, 0.0, 0.0, 0.0, 0.0, 0.0, 0.0, 1000000000000.0, 0.0, 0.0, 0.0, 0.0, 0.0, 0.0, 1000000000000.0, 0.0, 0.0, 0.0, 0.0, 0.0, 0.0, 0.001)",0.2069334531523791,-2.448219848125155e-05,0.0,0.0,0.0,-0.0060743438081616,"(0.0, 0.0, 0.0, 0.0, 0.0, 0.0, 0.0, 0.0, 0.0, 0.0, 0.0, 0.0, 0.0, 0.0, 0.0, 0.0, 0.0, 0.0, 0.0, 0.0, 0.0, 0.0, 0.0, 0.0, 0.0, 0.0, 0.0, 0.0, 0.0, 0.0, 0.0, 0.0, 0.0, 0.0, 0.0, 0.0)",0.2199999988079071,0.0001129089869209,0.0,0.0,0.0,0.0308214593678712,48,1,907000000,base_footprint,-0.00140547549363,0.0035877954528043,0.3622625277442103,0.932068137721058,0.0,0.0,0.0,0.0,0.0,0.0,0.0,0.0,0.0,0.0005904755235104,0.0004957904102701,-0.009808688271268,0.0,0.0,0.0,0.0,0.0,0.0,0.0,0.0,0.0,0.040199638213294,0.3682803434253601,-0.0012180922503402,0.0,0.0,0.0,0.0,0.0,0.0,0.0,0.0,0.0
1.941,0.7421275604753955,0.0054785493154677,0.005019963475084897,0.000733551877788563,0.7868485371045899,0.21837101007153523,0.15418750514910615,0.15463541410542705,0.03914021797518977,0.178110081520654,0.9052931371222581,0.005130931974876218,0.005152857950758811,0.0013033692585738194,51.0,1.0,894000000.0,odom,base_footprint,0.045537859553854,0.0435819091494837,-0.0010026590934176,-0.001413076168702,0.0035926583035794,0.3623089964761632,0.9320500453808748,"(1e-05, 0.0, 0.0, 0.0, 0.0, 0.0, 0.0, 1e-05, 0.0, 0.0, 0.0, 0.0, 0.0, 0.0, 1000000000000.0, 0.0, 0.0, 0.0, 0.0, 0.0, 0.0, 1000000000000.0, 0.0, 0.0, 0.0, 0.0, 0.0, 0.0, 1000000000000.0, 0.0, 0.0, 0.0, 0.0, 0.0, 0.0, 0.001)",0.2069334531523791,-2.448219848125155e-05,0.0,0.0,0.0,-0.0060743438081616,"(0.0, 0.0, 0.0, 0.0, 0.0, 0.0, 0.0, 0.0, 0.0, 0.0, 0.0, 0.0, 0.0, 0.0, 0.0, 0.0, 0.0, 0.0, 0.0, 0.0, 0.0, 0.0, 0.0, 0.0, 0.0, 0.0, 0.0, 0.0, 0.0, 0.0, 0.0, 0.0, 0.0, 0.0, 0.0, 0.0)",0.2199999988079071,0.0001129089869209,0.0,0.0,0.0,0.0308214593678712,49,1,941000000,base_footprint,-0.0014104019410005,0.0035952709847653,0.3626043530509932,0.9319351736796834,0.0,0.0,0.0,0.0,0.0,0.0,0.0,0.0,0.0,-0.0003527480638495,0.0002917628521221,0.0312315350062044,0.0,0.0,0.0,0.0,0.0,0.0,0.0,0.0,0.0,0.0104131832788857,0.1694933657080567,-0.0030342414528509,0.0,0.0,0.0,0.0,0.0,0.0,0.0,0.0,0.0
1.975,0.7431859852501153,0.0054988444916930015,0.005048583427184505,0.001058424774719735,0.7881519063631637,0.2177853539564016,0.1535728477386792,0.15442098573493046,0.031089353119637543,-0.017587270724733175,-0.24176771337994665,0.005111158610282712,0.005145018580488629,0.0010352754588839302,53.0,1.0,960000000.0,odom,base_footprint,0.0561145655490808,0.0532764194827424,-0.0010026155223753,-0.0014112011142558,0.0035947937422262,0.3628948341469303,0.931822099608524,"(1e-05, 0.0, 0.0, 0.0, 0.0, 0.0, 0.0, 1e-05, 0.0, 0.0, 0.0, 0.0, 0.0, 0.0, 1000000000000.0, 0.0, 0.0, 0.0, 0.0, 0.0, 0.0, 1000000000000.0, 0.0, 0.0, 0.0, 0.0, 0.0, 0.0, 1000000000000.0, 0.0, 0.0, 0.0, 0.0, 0.0, 0.0, 0.001)",0.2195790104173071,1.5714967952523695e-05,0.0,0.0,0.0,0.031120148697917,"(0.0, 0.0, 0.0, 0.0, 0.0, 0.0, 0.0, 0.0, 0.0, 0.0, 0.0, 0.0, 0.0, 0.0, 0.0, 0.0, 0.0, 0.0, 0.0, 0.0, 0.0, 0.0, 0.0, 0.0, 0.0, 0.0, 0.0, 0.0, 0.0, 0.0, 0.0, 0.0, 0.0, 0.0, 0.0, 0.0)",0.2199999988079071,0.0001129089869209,0.0,0.0,0.0,0.0308214593678712,50,1,975000000,base_footprint,-0.0014116312775805,0.0035940613434436,0.363097493179827,0.9317431515534318,0.0,0.0,0.0,0.0,0.0,0.0,0.0,0.0,0.0,0.0004202340683439,0.0002094370332096,0.0310253949248455,0.0,0.0,0.0,0.0,0.0,0.0,0.0,0.0,0.0,-0.0062874260328949,0.0081220653332601,0.0009556624880586,0.0,0.0,0.0,0.0,0.0,0.0,0.0,0.0,0.0
2.009,0.7442297326420129,0.005427560418372897,0.004994047994159596,0.0010437473918976092,0.7891871818220476,0.22454939024701895,0.15817763636973553,0.15938087718666796,0.03168708393001355,0.20312421293145153,0.017949874185465675,0.00526435472843115,0.005310319295726909,0.0010551798948694514,53.0,1.0,960000000.0,odom,base_footprint,0.0561145655490808,0.0532764194827424,-0.0010026155223753,-0.0014112011142558,0.0035947937422262,0.3628948341469303,0.931822099608524,"(1e-05, 0.0, 0.0, 0.0, 0.0, 0.0, 0.0, 1e-05, 0.0, 0.0, 0.0, 0.0, 0.0, 0.0, 1000000000000.0, 0.0, 0.0, 0.0, 0.0, 0.0, 0.0, 1000000000000.0, 0.0, 0.0, 0.0, 0.0, 0.0, 0.0, 1000000000000.0, 0.0, 0.0, 0.0, 0.0, 0.0, 0.0, 0.001)",0.2195790104173071,1.5714967952523695e-05,0.0,0.0,0.0,0.031120148697917,"(0.0, 0.0, 0.0, 0.0, 0.0, 0.0, 0.0, 0.0, 0.0, 0.0, 0.0, 0.0, 0.0, 0.0, 0.0, 0.0, 0.0, 0.0, 0.0, 0.0, 0.0, 0.0, 0.0, 0.0, 0.0, 0.0, 0.0, 0.0, 0.0, 0.0, 0.0, 0.0, 0.0, 0.0, 0.0, 0.0)",0.2084210515022277,1.5714967958047055e-05,0.0,0.0,0.0,0.0229150224477052,51,2,9000000,base_footprint,-0.0014136638058458,0.0035941125934228,0.3635836943464822,0.9315535309979096,0.0,0.0,0.0,0.0,0.0,0.0,0.0,0.0,0.0,0.0016942866753007,0.0002912929392253,0.0293328469535122,0.0,0.0,0.0,0.0,0.0,0.0,0.0,0.0,0.0,-0.0315017617098387,-0.3114106430355677,0.0027911882203561,0.0,0.0,0.0,0.0,0.0,0.0,0.0,0.0,0.0
2.043,0.7451351013617163,0.0052180515664887045,0.004809869126213007,0.0009053687197034811,0.7902423617169172,0.20735356146380535,0.14590913013929635,0.14732964804722093,0.02878797067020046,-0.5163912547511591,-0.08706045825264531,0.004856274311286278,0.004908551267870711,0.0009586394233176755,55.0,2.0,27000000.0,odom,base_footprint,0.0667251828879331,0.0630396710345843,-0.0010026074920603,-0.0014143167838069,0.0035935792862793,0.3638450600944491,0.931451479219833,"(1e-05, 0.0, 0.0, 0.0, 0.0, 0.0, 0.0, 1e-05, 0.0, 0.0, 0.0, 0.0, 0.0, 0.0, 1000000000000.0, 0.0, 0.0, 0.0, 0.0, 0.0, 0.0, 1000000000000.0, 0.0, 0.0, 0.0, 0.0, 0.0, 0.0, 1000000000000.0, 0.0, 0.0, 0.0, 0.0, 0.0, 0.0, 0.001)",0.2090030641786628,1.8749745545457164e-05,0.0,0.0,0.0,0.0292892274059288,"(0.0, 0.0, 0.0, 0.0, 0.0, 0.0, 0.0, 0.0, 0.0, 0.0, 0.0, 0.0, 0.0, 0.0, 0.0, 0.0, 0.0, 0.0, 0.0, 0.0, 0.0, 0.0, 0.0, 0.0, 0.0, 0.0, 0.0, 0.0, 0.0, 0.0, 0.0, 0.0, 0.0, 0.0, 0.0, 0.0)",0.2084210515022277,1.5714967958047055e-05,0.0,0.0,0.0,0.0229150224477052,52,2,43000000,base_footprint,-0.0014151889970021,0.0035941421849711,0.3640053547561623,0.9313888452686652,0.0,0.0,0.0,0.0,0.0,0.0,0.0,0.0,0.0,0.0001365852624344,0.0001600061858997,0.0225630578754398,0.0,0.0,0.0,0.0,0.0,0.0,0.0,0.0,0.0,-0.0076395969952708,-0.0146674535850447,-0.0012319555127632,0.0,0.0,0.0,0.0,0.0,0.0,0.0,0.0,0.0
2.077,0.7458988925075858,0.005210837412352301,0.004811370795769487,0.0007637911458694413,0.7912010011402346,0.2068422719147627,0.1454083948120629,0.1471058264279151,0.02253294207522867,-0.015354040511791072,-0.18783869654569937,0.004840114099521247,0.004900585535718847,0.0007503469711051148,56.0,2.0,60000000.0,odom,base_footprint,0.0717829357767491,0.0677065954610664,-0.001002900246952,-0.0014164105333622,0.0035951456492375,0.36419418121835,0.931315020321082,"(1e-05, 0.0, 0.0, 0.0, 0.0, 0.0, 0.0, 1e-05, 0.0, 0.0, 0.0, 0.0, 0.0, 0.0, 1000000000000.0, 0.0, 0.0, 0.0, 0.0, 0.0, 0.0, 1000000000000.0, 0.0, 0.0, 0.0, 0.0, 0.0, 0.0, 1000000000000.0, 0.0, 0.0, 0.0, 0.0, 0.0, 0.0, 0.001)",0.2086185523586585,1.0636595735732944e-05,0.0,0.0,0.0,0.0224634794652466,"(0.0, 0.0, 0.0, 0.0, 0.0, 0.0, 0.0, 0.0, 0.0, 0.0, 0.0, 0.0, 0.0, 0.0, 0.0, 0.0, 0.0, 0.0, 0.0, 0.0, 0.0, 0.0, 0.0, 0.0, 0.0, 0.0, 0.0, 0.0, 0.0, 0.0, 0.0, 0.0, 0.0, 0.0, 0.0, 0.0)",0.2084210515022277,1.5714967958047055e-05,0.0,0.0,0.0,0.0229150224477052,53,2,77000000,base_footprint,-0.0014176573557547,0.0035963673249145,0.3643610173644528,0.9312497545851096,0.0,0.0,0.0,0.0,0.0,0.0,0.0,0.0,0.0,0.0001183026912593,0.0001562470949055,0.022332344590738,0.0,0.0,0.0,0.0,0.0,0.0,0.0,0.0,0.0,-0.0040647497192539,0.0062292231734412,-0.0001753009458563,0.0,0.0,0.0,0.0,0.0,0.0,0.0,0.0,0.0
2.111,0.7470191691748571,0.005209037428467095,0.004817217119171213,0.0011202766672713251,0.7919513481113398,0.21325563393967706,0.14980308984806234,0.15177944419119113,0.022809833034735046,0.19259345420163224,0.008315043829020286,0.0049863710528863315,0.005056299275015196,0.0007595674400566771,56.0,2.0,60000000.0,odom,base_footprint,0.0717829357767491,0.0677065954610664,-0.001002900246952,-0.0014164105333622,0.0035951456492375,0.36419418121835,0.931315020321082,"(1e-05, 0.0, 0.0, 0.0, 0.0, 0.0, 0.0, 1e-05, 0.0, 0.0, 0.0, 0.0, 0.0, 0.0, 1000000000000.0, 0.0, 0.0, 0.0, 0.0, 0.0, 0.0, 1000000000000.0, 0.0, 0.0, 0.0, 0.0, 0.0, 0.0, 1000000000000.0, 0.0, 0.0, 0.0, 0.0, 0.0, 0.0, 0.001)",0.2086185523586585,1.0636595735732944e-05,0.0,0.0,0.0,0.0224634794652466,"(0.0, 0.0, 0.0, 0.0, 0.0, 0.0, 0.0, 0.0, 0.0, 0.0, 0.0, 0.0, 0.0, 0.0, 0.0, 0.0, 0.0, 0.0, 0.0, 0.0, 0.0, 0.0, 0.0, 0.0, 0.0, 0.0, 0.0, 0.0, 0.0, 0.0, 0.0, 0.0, 0.0, 0.0, 0.0, 0.0)",0.2084210515022277,1.0636596016411204e-05,0.0,0.0,0.0,0.0470788702368736,54,2,111000000,base_footprint,-0.0014218708938707,0.0035997709187545,0.3648825841132044,0.9310454982133602,0.0,0.0,0.0,0.0,0.0,0.0,0.0,0.0,0.0,0.0004152019949461,0.0003908863578821,0.0464922492858062,0.0,0.0,0.0,0.0,0.0,0.0,0.0,0.0,0.0,-0.005486907429446,-0.0018174471855501,0.0001008886690142,0.0,0.0,0.0,0.0,0.0,0.0,0.0,0.0,0.0
2.145,0.7485876860084205,0.005202521930537399,0.004823725617243688,0.001568516833563405,0.7927109155513966,0.20710557819534378,0.14537093109601512,0.14751275508207856,0.04516768364021336,-0.184686358688687,0.6714069250894389,0.004837008398348786,0.0049159586699406834,0.0015040838652191052,58.0,2.0,127000000.0,odom,base_footprint,0.082046021884512,0.0771996906975386,-0.0010040279563538,-0.0014242813255615,0.0036011935451155,0.365248002791047,0.9309021964121192,"(1e-05, 0.0, 0.0, 0.0, 0.0, 0.0, 0.0, 1e-05, 0.0, 0.0, 0.0, 0.0, 0.0, 0.0, 1000000000000.0, 0.0, 0.0, 0.0, 0.0, 0.0, 0.0, 1000000000000.0, 0.0, 0.0, 0.0, 0.0, 0.0, 0.0, 1000000000000.0, 0.0, 0.0, 0.0, 0.0, 0.0, 0.0, 0.001)",0.208679165178159,-2.583913392115167e-05,0.0,0.0,0.0,0.0460671640352002,"(0.0, 0.0, 0.0, 0.0, 0.0, 0.0, 0.0, 0.0, 0.0, 0.0, 0.0, 0.0, 0.0, 0.0, 0.0, 0.0, 0.0, 0.0, 0.0, 0.0, 0.0, 0.0, 0.0, 0.0, 0.0, 0.0, 0.0, 0.0, 0.0, 0.0, 0.0, 0.0, 0.0, 0.0, 0.0, 0.0)",0.2084210515022277,1.0636596016411204e-05,0.0,0.0,0.0,0.0470788702368736,55,2,145000000,base_footprint,-0.0014262688866295,0.0036023672618093,0.3656126468171941,0.9307590349787102,0.0,0.0,0.0,0.0,0.0,0.0,0.0,0.0,0.0,0.0002011507108304,0.0002562835879406,0.046117448107633,0.0,0.0,0.0,0.0,0.0,0.0,0.0,0.0,0.0,-0.0089012787574793,0.0039621350432315,-0.0003913900519078,0.0,0.0,0.0,0.0,0.0,0.0,0.0,0.0,0.0
2.179,0.7501507588708406,0.005199038585200405,0.004833047249829012,0.0015630728624200785,0.7942149994166158,0.20706862155878183,0.14512299431935,0.14770487654116207,0.04555068703731923,-0.001109808905764165,0.011501603516692757,0.004828715705868514,0.004922380639907716,0.0015168378783427306,58.0,2.0,127000000.0,odom,base_footprint,0.082046021884512,0.0771996906975386,-0.0010040279563538,-0.0014242813255615,0.0036011935451155,0.365248002791047,0.9309021964121192,"(1e-05, 0.0, 0.0, 0.0, 0.0, 0.0, 0.0, 1e-05, 0.0, 0.0, 0.0, 0.0, 0.0, 0.0, 1000000000000.0, 0.0, 0.0, 0.0, 0.0, 0.0, 0.0, 1000000000000.0, 0.0, 0.0, 0.0, 0.0, 0.0, 0.0, 1000000000000.0, 0.0, 0.0, 0.0, 0.0, 0.0, 0.0, 0.001)",0.208679165178159,-2.583913392115167e-05,0.0,0.0,0.0,0.0460671640352002,"(0.0, 0.0, 0.0, 0.0, 0.0, 0.0, 0.0, 0.0, 0.0, 0.0, 0.0, 0.0, 0.0, 0.0, 0.0, 0.0, 0.0, 0.0, 0.0, 0.0, 0.0, 0.0, 0.0, 0.0, 0.0, 0.0, 0.0, 0.0, 0.0, 0.0, 0.0, 0.0, 0.0, 0.0, 0.0, 0.0)",0.2084210515022277,1.0636596016411204e-05,0.0,0.0,0.0,0.0470788702368736,56,2,179000000,base_footprint,-0.0014300658371703,0.0036035834424476,0.3663399538268572,0.930473001934076,0.0,0.0,0.0,0.0,0.0,0.0,0.0,0.0,0.0,0.0002633450854342,0.0002564956344697,0.0460242850749823,0.0,0.0,0.0,0.0,0.0,0.0,0.0,0.0,0.0,-0.0076418385049497,0.0020494238309638,0.0001372251622424,0.0,0.0,0.0,0.0,0.0,0.0,0.0,0.0,0.0
2.213,0.7517170901464054,0.005190371956188794,0.004837200564463892,0.001566331275564825,0.7957318372949583,0.21321413990217278,0.14919918421206993,0.15231504484021313,0.04700207266052043,0.1845501004021304,0.04358515384988584,0.004964209035777095,0.005076126136445082,0.0015651690195953305,60.0,2.0,194000000.0,odom,base_footprint,0.0922896877800788,0.0867219125560344,-0.0010046182347672,-0.0014314084839011,0.0036032289077863,0.3666829601458056,0.9303378819277972,"(1e-05, 0.0, 0.0, 0.0, 0.0, 0.0, 0.0, 1e-05, 0.0, 0.0, 0.0, 0.0, 0.0, 0.0, 1000000000000.0, 0.0, 0.0, 0.0, 0.0, 0.0, 0.0, 1000000000000.0, 0.0, 0.0, 0.0, 0.0, 0.0, 0.0, 1000000000000.0, 0.0, 0.0, 0.0, 0.0, 0.0, 0.0, 0.001)",0.2086983360429423,-0.0001492420641581,0.0,0.0,0.0,0.046108666132664,"(0.0, 0.0, 0.0, 0.0, 0.0, 0.0, 0.0, 0.0, 0.0, 0.0, 0.0, 0.0, 0.0, 0.0, 0.0, 0.0, 0.0, 0.0, 0.0, 0.0, 0.0, 0.0, 0.0, 0.0, 0.0, 0.0, 0.0, 0.0, 0.0, 0.0, 0.0, 0.0, 0.0, 0.0, 0.0, 0.0)",0.2199999988079071,0.0,0.0,0.0,0.0,0.0705120489001274,57,2,213000000,base_footprint,-0.0014321726646934,0.0036013066642252,0.3670685569101153,0.9301858169203046,0.0,0.0,0.0,0.0,0.0,0.0,0.0,0.0,0.0,0.0006133782919682,0.0002616661460086,0.0458982953795229,0.0,0.0,0.0,0.0,0.0,0.0,0.0,0.0,0.0,-0.0080251029112691,-0.0058349165952748,0.0007526410509749,0.0,0.0,0.0,0.0,0.0,0.0,0.0,0.0,0.0
2.247,0.7531041374864732,0.005174467288693099,0.0048324085917289955,0.0013870473400677819,0.7972970063145537,0.20674579684825148,0.14444153906810897,0.147920472910461,0.04581167343574781,-0.19424453615379275,-0.03574772446764621,0.004805996168389562,0.004929562982961358,0.0015255287254104023,60.0,2.0,194000000.0,odom,base_footprint,0.0922896877800788,0.0867219125560344,-0.0010046182347672,-0.0014314084839011,0.0036032289077863,0.3666829601458056,0.9303378819277972,"(1e-05, 0.0, 0.0, 0.0, 0.0, 0.0, 0.0, 1e-05, 0.0, 0.0, 0.0, 0.0, 0.0, 0.0, 1000000000000.0, 0.0, 0.0, 0.0, 0.0, 0.0, 0.0, 1000000000000.0, 0.0, 0.0, 0.0, 0.0, 0.0, 0.0, 1000000000000.0, 0.0, 0.0, 0.0, 0.0, 0.0, 0.0, 0.001)",0.2086983360429423,-0.0001492420641581,0.0,0.0,0.0,0.046108666132664,"(0.0, 0.0, 0.0, 0.0, 0.0, 0.0, 0.0, 0.0, 0.0, 0.0, 0.0, 0.0, 0.0, 0.0, 0.0, 0.0, 0.0, 0.0, 0.0, 0.0, 0.0, 0.0, 0.0, 0.0, 0.0, 0.0, 0.0, 0.0, 0.0, 0.0, 0.0, 0.0, 0.0, 0.0, 0.0, 0.0)",0.2199999988079071,0.0,0.0,0.0,0.0,0.0705120489001274,58,2,247000000,base_footprint,-0.0014282784444713,0.003588103436381,0.3677135886119361,0.929931073942874,0.0,0.0,0.0,0.0,0.0,0.0,0.0,0.0,0.0,0.0005484838390679,0.0012723524964476,0.0326203762004997,0.0,0.0,0.0,0.0,0.0,0.0,0.0,0.0,0.0,-0.0075112709050369,-0.0290621821331904,0.0005836136818946,0.0,0.0,0.0,0.0,0.0,0.0,0.0,0.0,0.0
2.281,0.7546105582394805,0.005136085679355112,0.004827430042741901,0.0015064207530073315,0.7988225350399641,0.21797377519669095,0.1520478004159426,0.15618589264773966,0.06971530743077725,0.33717652698016426,0.7178268466975808,0.00505699374647787,0.005207014561548091,0.0023215197374448827,61.0,2.0,227000000.0,odom,base_footprint,0.0973215782712385,0.0914167163051533,-0.0010040588904738,-0.0014323972668611,0.0035984051456458,0.3673846514022247,0.9300610289827996,"(1e-05, 0.0, 0.0, 0.0, 0.0, 0.0, 0.0, 1e-05, 0.0, 0.0, 0.0, 0.0, 0.0, 0.0, 1000000000000.0, 0.0, 0.0, 0.0, 0.0, 0.0, 0.0, 1000000000000.0, 0.0, 0.0, 0.0, 0.0, 0.0, 0.0, 1000000000000.0, 0.0, 0.0, 0.0, 0.0, 0.0, 0.0, 0.001)",0.2083042803947956,-0.0002125568243072,0.0,0.0,0.0,0.0444090810567549,"(0.0, 0.0, 0.0, 0.0, 0.0, 0.0, 0.0, 0.0, 0.0, 0.0, 0.0, 0.0, 0.0, 0.0, 0.0, 0.0, 0.0, 0.0, 0.0, 0.0, 0.0, 0.0, 0.0, 0.0, 0.0, 0.0, 0.0, 0.0, 0.0, 0.0, 0.0, 0.0, 0.0, 0.0, 0.0, 0.0)",0.2199999988079071,0.0,0.0,0.0,0.0,0.0705120489001274,59,2,281000000,base_footprint,-0.0014289492138172,0.003579438582537,0.3684139322467878,0.9296538712069334,0.0,0.0,0.0,0.0,0.0,0.0,0.0,0.0,0.0,0.0017252939001595,0.001488274032166,0.0531874493610457,0.0,0.0,0.0,0.0,0.0,0.0,0.0,0.0,0.0,-0.0222259189214734,0.0193489031408144,0.0020891950361664,0.0,0.0,0.0,0.0,0.0,0.0,0.0,0.0,0.0
2.315,0.7564200404976874,0.005120863775918499,0.0048272343905364085,0.0018094822582068735,0.8011440547774091,0.22451238003948218,0.15623492306758588,0.1612341700913873,0.07342541755379517,0.19635449978352038,0.11141471840894647,0.005195892433055869,0.005375608922527332,0.002445066404541379,63.0,2.0,294000000.0,odom,base_footprint,0.1074781128652344,0.1009504683407081,-0.0010017001821166,-0.0014297467878382,0.0035789143249802,0.3687808264229231,0.9295083911720232,"(1e-05, 0.0, 0.0, 0.0, 0.0, 0.0, 0.0, 1e-05, 0.0, 0.0, 0.0, 0.0, 0.0, 0.0, 1000000000000.0, 0.0, 0.0, 0.0, 0.0, 0.0, 0.0, 1000000000000.0, 0.0, 0.0, 0.0, 0.0, 0.0, 0.0, 1000000000000.0, 0.0, 0.0, 0.0, 0.0, 0.0, 0.0, 0.001)",0.210169014016216,4.546334512176009e-05,0.0,0.0,0.0,0.0592743907036045,"(0.0, 0.0, 0.0, 0.0, 0.0, 0.0, 0.0, 0.0, 0.0, 0.0, 0.0, 0.0, 0.0, 0.0, 0.0, 0.0, 0.0, 0.0, 0.0, 0.0, 0.0, 0.0, 0.0, 0.0, 0.0, 0.0, 0.0, 0.0, 0.0, 0.0, 0.0, 0.0, 0.0, 0.0, 0.0, 0.0)",0.2084210515022277,0.0,0.0,0.0,0.0,0.0526142083108425,60,2,315000000,base_footprint,-0.0014382564366081,0.0035968614545459,0.369254845031187,0.929320102777882,0.0,0.0,0.0,0.0,0.0,0.0,0.0,0.0,0.0,0.0003763690056387,9.061005708739512e-05,0.0436959706972048,0.0,0.0,0.0,0.0,0.0,0.0,0.0,0.0,0.0,-0.0184386670898286,-0.2107827953801194,-0.0015095006637418,0.0,0.0,0.0,0.0,0.0,0.0,0.0,0.0,0.0
2.349,0.757161375345765,0.0049202980067449,0.004647715896171592,0.0007413348480775905,0.8035891211819504,0.19560285468527056,0.13577333020254964,0.14080511200498547,0.012239793844916204,-0.8681539145408895,-1.8374061173837526,0.004520155393913272,0.004689867237252986,0.00040758513503570963,63.0,2.0,294000000.0,odom,base_footprint,0.1074781128652344,0.1009504683407081,-0.0010017001821166,-0.0014297467878382,0.0035789143249802,0.3687808264229231,0.9295083911720232,"(1e-05, 0.0, 0.0, 0.0, 0.0, 0.0, 0.0, 1e-05, 0.0, 0.0, 0.0, 0.0, 0.0, 0.0, 1000000000000.0, 0.0, 0.0, 0.0, 0.0, 0.0, 0.0, 1000000000000.0, 0.0, 0.0, 0.0, 0.0, 0.0, 0.0, 1000000000000.0, 0.0, 0.0, 0.0, 0.0, 0.0, 0.0, 0.001)",0.210169014016216,4.546334512176009e-05,0.0,0.0,0.0,0.0592743907036045,"(0.0, 0.0, 0.0, 0.0, 0.0, 0.0, 0.0, 0.0, 0.0, 0.0, 0.0, 0.0, 0.0, 0.0, 0.0, 0.0, 0.0, 0.0, 0.0, 0.0, 0.0, 0.0, 0.0, 0.0, 0.0, 0.0, 0.0, 0.0, 0.0, 0.0, 0.0, 0.0, 0.0, 0.0, 0.0, 0.0)",0.2084210515022277,0.0,0.0,0.0,0.0,0.0526142083108425,61,2,349000000,base_footprint,-0.0014332659756388,0.0035798399239967,0.3695993142119939,0.9291832313536366,0.0,0.0,0.0,0.0,0.0,0.0,0.0,0.0,0.0,-0.0018924298571774,-0.0007578731407538,0.0212201605004658,0.0,0.0,0.0,0.0,0.0,0.0,0.0,0.0,0.0,0.0004105375548784,0.0701079374158869,-0.0040163765023123,0.0,0.0,0.0,0.0,0.0,0.0,0.0,0.0,0.0
2.383,0.7587347887720136,0.005105495768467597,0.004832166018023706,0.0015734134262486157,0.803996706316986,0.20624910543535618,0.1431026605663938,0.14852717607126364,0.0548453608550266,0.31970722973230115,1.2794464567600718,0.004760650768320736,0.004950446745264122,0.001826350516472386,65.0,2.0,360000000.0,odom,base_footprint,0.1171806635862768,0.1101123437870847,-0.0010030579214061,-0.001441573233725,0.003584470860871,0.3697794471562181,0.9291115293096418,"(1e-05, 0.0, 0.0, 0.0, 0.0, 0.0, 0.0, 1e-05, 0.0, 0.0, 0.0, 0.0, 0.0, 0.0, 1000000000000.0, 0.0, 0.0, 0.0, 0.0, 0.0, 0.0, 1000000000000.0, 0.0, 0.0, 0.0, 0.0, 0.0, 0.0, 1000000000000.0, 0.0, 0.0, 0.0, 0.0, 0.0, 0.0, 0.001)",0.2069613480335275,7.035165802050936e-05,0.0,0.0,0.0,0.0476534799390278,"(0.0, 0.0, 0.0, 0.0, 0.0, 0.0, 0.0, 0.0, 0.0, 0.0, 0.0, 0.0, 0.0, 0.0, 0.0, 0.0, 0.0, 0.0, 0.0, 0.0, 0.0, 0.0, 0.0, 0.0, 0.0, 0.0, 0.0, 0.0, 0.0, 0.0, 0.0, 0.0, 0.0, 0.0, 0.0, 0.0)",0.2084210515022277,0.0,0.0,0.0,0.0,0.0526142083108425,62,2,383000000,base_footprint,-0.0014413305149012,0.0035899083810397,0.3703301795073362,0.9288921322038564,0.0,0.0,0.0,0.0,0.0,0.0,0.0,0.0,0.0,0.000310940216163,0.0001836271697472,0.0542051696521367,0.0,0.0,0.0,0.0,0.0,0.0,0.0,0.0,0.0,-0.0033928313299699,0.1195850930001858,0.0029820671952949,0.0,0.0,0.0,0.0,0.0,0.0,0.0,0.0,0.0
2.417,0.7604832613671187,0.005218193719262493,0.004956021743912603,0.0017484725951051328,0.8058230568334585,0.21223368822270794,0.14697558897059057,0.15310556705541972,0.05511341669190873,0.17971720082137402,0.008049724831295173,0.0048894526253609105,0.005103050535066314,0.001835276775840561,66.0,2.0,394000000.0,odom,base_footprint,0.1222993253826929,0.1149633486393189,-0.0010032998559841,-0.0014422910162358,0.003588143719787,0.3706319489736634,0.9287717714386322,"(1e-05, 0.0, 0.0, 0.0, 0.0, 0.0, 0.0, 1e-05, 0.0, 0.0, 0.0, 0.0, 0.0, 0.0, 1000000000000.0, 0.0, 0.0, 0.0, 0.0, 0.0, 0.0, 1000000000000.0, 0.0, 0.0, 0.0, 0.0, 0.0, 0.0, 1000000000000.0, 0.0, 0.0, 0.0, 0.0, 0.0, 0.0, 0.001)",0.2074651212430566,8.986664920260234e-06,0.0,0.0,0.0,0.0542441065803139,"(0.0, 0.0, 0.0, 0.0, 0.0, 0.0, 0.0, 0.0, 0.0, 0.0, 0.0, 0.0, 0.0, 0.0, 0.0, 0.0, 0.0, 0.0, 0.0, 0.0, 0.0, 0.0, 0.0, 0.0, 0.0, 0.0, 0.0, 0.0, 0.0, 0.0, 0.0, 0.0, 0.0, 0.0, 0.0, 0.0)",0.2199999988079071,7.035165617708117e-05,0.0,0.0,0.0,0.0230380967259407,63,2,417000000,base_footprint,-0.0014373603274658,0.0035813695856379,0.3711421085318589,0.9285680605436016,0.0,0.0,0.0,0.0,0.0,0.0,0.0,0.0,0.0,-0.0013326360137763,-0.0015166271087958,0.0301182701323306,0.0,0.0,0.0,0.0,0.0,0.0,0.0,0.0,0.0,0.0071366461513,0.3360636693526437,-0.0054726273816771,0.0,0.0,0.0,0.0,0.0,0.0,0.0,0.0,0.0
2.451,0.7613101436873508,0.005404825155590598,0.0051479749377450895,0.0008268823202320918,0.8076583336092991,0.21774768058838156,0.15050558112132795,0.1573598501935968,0.022909335798604023,0.1655853563265353,-0.9670895163154565,0.005009679169385063,0.005242144660110775,0.0007628808820935141,66.0,2.0,394000000.0,odom,base_footprint,0.1222993253826929,0.1149633486393189,-0.0010032998559841,-0.0014422910162358,0.003588143719787,0.3706319489736634,0.9287717714386322,"(1e-05, 0.0, 0.0, 0.0, 0.0, 0.0, 0.0, 1e-05, 0.0, 0.0, 0.0, 0.0, 0.0, 0.0, 1000000000000.0, 0.0, 0.0, 0.0, 0.0, 0.0, 0.0, 1000000000000.0, 0.0, 0.0, 0.0, 0.0, 0.0, 0.0, 1000000000000.0, 0.0, 0.0, 0.0, 0.0, 0.0, 0.0, 0.001)",0.2074651212430566,8.986664920260234e-06,0.0,0.0,0.0,0.0542441065803139,"(0.0, 0.0, 0.0, 0.0, 0.0, 0.0, 0.0, 0.0, 0.0, 0.0, 0.0, 0.0, 0.0, 0.0, 0.0, 0.0, 0.0, 0.0, 0.0, 0.0, 0.0, 0.0, 0.0, 0.0, 0.0, 0.0, 0.0, 0.0, 0.0, 0.0, 0.0, 0.0, 0.0, 0.0, 0.0, 0.0)",0.2199999988079071,7.035165617708117e-05,0.0,0.0,0.0,0.0230380967259407,64,2,451000000,base_footprint,-0.0014424919985422,0.0035824884788114,0.3715259907091554,0.928414521224606,0.0,0.0,0.0,0.0,0.0,0.0,0.0,0.0,0.0,0.0003696712853406,0.0001921193682569,0.0239872979236716,0.0,0.0,0.0,0.0,0.0,0.0,0.0,0.0,0.0,-0.0054840806744485,0.0234348235313662,0.0040134958784933,0.0,0.0,0.0,0.0,0.0,0.0,0.0,0.0,0.0
2.485,0.7621178940092408,0.00540580120438372,0.005156436232614914,0.0008077503218899551,0.8084212144913925,0.21780722528607696,0.15042661452905484,0.15751768481077624,0.023856837720332317,0.0017881290599218065,0.028453511163011837,0.005006964626146508,0.0052474784496126334,0.0007944326960870662,68.0,2.0,460000000.0,odom,base_footprint,0.1327062790175149,0.1248695987240045,-0.0010025400481838,-0.0014426253936308,0.0035820303706922,0.371636965193376,0.928370106149619,"(1e-05, 0.0, 0.0, 0.0, 0.0, 0.0, 0.0, 1e-05, 0.0, 0.0, 0.0, 0.0, 0.0, 0.0, 1000000000000.0, 0.0, 0.0, 0.0, 0.0, 0.0, 0.0, 1000000000000.0, 0.0, 0.0, 0.0, 0.0, 0.0, 0.0, 1000000000000.0, 0.0, 0.0, 0.0, 0.0, 0.0, 0.0, 0.001)",0.2196885396740269,1.882907984884774e-05,0.0,0.0,0.0,0.0238619051118537,"(0.0, 0.0, 0.0, 0.0, 0.0, 0.0, 0.0, 0.0, 0.0, 0.0, 0.0, 0.0, 0.0, 0.0, 0.0, 0.0, 0.0, 0.0, 0.0, 0.0, 0.0, 0.0, 0.0, 0.0, 0.0, 0.0, 0.0, 0.0, 0.0, 0.0, 0.0, 0.0, 0.0, 0.0, 0.0, 0.0)",0.2199999988079071,7.035165617708117e-05,0.0,0.0,0.0,0.0230380967259407,65,2,485000000,base_footprint,-0.0014432220205492,0.0035814124046043,0.3719009232712916,0.928264398684636,0.0,0.0,0.0,0.0,0.0,0.0,0.0,0.0,0.0,0.0003305537175193,0.0001810129537821,0.0235599627334596,0.0,0.0,0.0,0.0,0.0,0.0,0.0,0.0,0.0,-0.0048878470780889,0.0060697293682655,-0.0001152929589411,0.0,0.0,0.0,0.0,0.0,0.0,0.0,0.0,0.0
2.519,0.7629772566141221,0.005194906253457088,0.004963959853963196,0.0008593626048812865,0.8092156471874797,0.22461146942713697,0.1549968095719988,0.1625616843561829,0.02399022864750059,0.20433165588768804,0.004005733548596796,0.005159068311616517,0.005415520092684151,0.0007988746139617698,69.0,2.0,494000000.0,odom,base_footprint,0.138112277725874,0.1300286271713878,-0.0010024955064058,-0.0014435836709363,0.0035813498370812,0.3720099047189978,0.9282207284856828,"(1e-05, 0.0, 0.0, 0.0, 0.0, 0.0, 0.0, 1e-05, 0.0, 0.0, 0.0, 0.0, 0.0, 0.0, 1000000000000.0, 0.0, 0.0, 0.0, 0.0, 0.0, 0.0, 1000000000000.0, 0.0, 0.0, 0.0, 0.0, 0.0, 0.0, 1000000000000.0, 0.0, 0.0, 0.0, 0.0, 0.0, 0.0, 0.001)",0.2198855940995606,1.621818044757195e-05,0.0,0.0,0.0,0.0234359200146153,"(0.0, 0.0, 0.0, 0.0, 0.0, 0.0, 0.0, 0.0, 0.0, 0.0, 0.0, 0.0, 0.0, 0.0, 0.0, 0.0, 0.0, 0.0, 0.0, 0.0, 0.0, 0.0, 0.0, 0.0, 0.0, 0.0, 0.0, 0.0, 0.0, 0.0, 0.0, 0.0, 0.0, 0.0, 0.0, 0.0)",0.2084210515022277,1.8829079635906965e-05,0.0,0.0,0.0,0.0156567711383104,66,2,519000000,base_footprint,-0.0014471086446545,0.0035859287169036,0.372299739664354,0.928104493490718,0.0,0.0,0.0,0.0,0.0,0.0,0.0,0.0,0.0,0.0011258080431814,0.0001683185690112,0.0288611597867307,0.0,0.0,0.0,0.0,0.0,0.0,0.0,0.0,0.0,-0.0360660662961009,-0.6766698913189374,0.0046868187114051,0.0,0.0,0.0,0.0,0.0,0.0,0.0,0.0,0.0
2.553,0.7636445821809109,0.004829239123962409,0.004620770524776496,0.0006673255667888345,0.8100145218014414,0.18417637066838274,0.12698738179050745,0.1333984271967605,0.0032530820737180503,-1.2142672299926194,-0.622737134347824,0.004228305796067651,0.004442523634000919,0.00010832763305481108,70.0,2.0,527000000.0,odom,base_footprint,0.1429666655220822,0.1346694904116134,-0.0010028220541078,-0.0014477780896843,0.0035850582186215,0.3724210423677808,0.928055827252794,"(1e-05, 0.0, 0.0, 0.0, 0.0, 0.0, 0.0, 1e-05, 0.0, 0.0, 0.0, 0.0, 0.0, 0.0, 1000000000000.0, 0.0, 0.0, 0.0, 0.0, 0.0, 0.0, 1000000000000.0, 0.0, 0.0, 0.0, 0.0, 0.0, 0.0, 1000000000000.0, 0.0, 0.0, 0.0, 0.0, 0.0, 0.0, 0.001)",0.1887359554907219,-2.0117201335573265e-05,0.0,0.0,0.0,0.0245438085942329,"(0.0, 0.0, 0.0, 0.0, 0.0, 0.0, 0.0, 0.0, 0.0, 0.0, 0.0, 0.0, 0.0, 0.0, 0.0, 0.0, 0.0, 0.0, 0.0, 0.0, 0.0, 0.0, 0.0, 0.0, 0.0, 0.0, 0.0, 0.0, 0.0, 0.0, 0.0, 0.0, 0.0, 0.0, 0.0, 0.0)",0.2084210515022277,1.8829079635906965e-05,0.0,0.0,0.0,0.0156567711383104,67,2,553000000,base_footprint,-0.0014445804255586,0.0035783935682485,0.3726094012559036,0.9279802489183604,0.0,0.0,0.0,0.0,0.0,0.0,0.0,0.0,0.0,0.0001348853757796,0.0008539250304214,0.0119512785913968,0.0,0.0,0.0,0.0,0.0,0.0,0.0,0.0,0.0,0.0075376589838949,0.2897246729836925,-0.0013779815757377,0.0,0.0,0.0,0.0,0.0,0.0,0.0,0.0,0.0
2.587,0.7642015251327801,0.005120346794000502,0.004906217076227598,0.0005569429518691438,0.8101228494344962,0.20604662792750456,0.14205049232655415,0.14925438187898904,0.02200300803260878,0.6567644822559102,0.5630608396063282,0.004728310843241763,0.0049720454014775045,0.0007327001674858725,71.0,2.0,560000000.0,odom,base_footprint,0.1477475319723601,0.1392458063648365,-0.0010025976579509,-0.0014466154854763,0.0035806501810917,0.3726830618649411,0.9279506569030976,"(1e-05, 0.0, 0.0, 0.0, 0.0, 0.0, 0.0, 1e-05, 0.0, 0.0, 0.0, 0.0, 0.0, 0.0, 1000000000000.0, 0.0, 0.0, 0.0, 0.0, 0.0, 0.0, 1000000000000.0, 0.0, 0.0, 0.0, 0.0, 0.0, 0.0, 1000000000000.0, 0.0, 0.0, 0.0, 0.0, 0.0, 0.0, 0.001)",0.2082912536448093,5.5568824138554906e-05,0.0,0.0,0.0,0.0216177306399665,"(0.0, 0.0, 0.0, 0.0, 0.0, 0.0, 0.0, 0.0, 0.0, 0.0, 0.0, 0.0, 0.0, 0.0, 0.0, 0.0, 0.0, 0.0, 0.0, 0.0, 0.0, 0.0, 0.0, 0.0, 0.0, 0.0, 0.0, 0.0, 0.0, 0.0, 0.0, 0.0, 0.0, 0.0, 0.0, 0.0)",0.2084210515022277,1.8829079635906965e-05,0.0,0.0,0.0,0.0156567711383104,68,2,587000000,base_footprint,-0.0014492699306,0.0035859708449601,0.3728677918623266,0.927876419692558,0.0,0.0,0.0,0.0,0.0,0.0,0.0,0.0,0.0,1.7930998480932578e-05,0.0001183569061043,0.0149574382563328,0.0,0.0,0.0,0.0,0.0,0.0,0.0,0.0,0.0,0.0010386424175771,0.0644479245367028,-0.0019917416121168,0.0,0.0,0.0,0.0,0.0,0.0,0.0,0.0,0.0
2.621,0.7647022273508354,0.005126227212732981,0.004915736831324791,0.0005007022180553155,0.8108555496019821,0.21326316005453866,0.1469124094459952,0.15458951900830806,0.015621851015876582,0.21671267648751058,-0.19162633683880476,0.0048906894166063425,0.005149250093231807,0.0005202076388286902,71.0,2.0,560000000.0,odom,base_footprint,0.1477475319723601,0.1392458063648365,-0.0010025976579509,-0.0014466154854763,0.0035806501810917,0.3726830618649411,0.9279506569030976,"(1e-05, 0.0, 0.0, 0.0, 0.0, 0.0, 0.0, 1e-05, 0.0, 0.0, 0.0, 0.0, 0.0, 0.0, 1000000000000.0, 0.0, 0.0, 0.0, 0.0, 0.0, 0.0, 1000000000000.0, 0.0, 0.0, 0.0, 0.0, 0.0, 0.0, 1000000000000.0, 0.0, 0.0, 0.0, 0.0, 0.0, 0.0, 0.001)",0.2082912536448093,5.5568824138554906e-05,0.0,0.0,0.0,0.0216177306399665,"(0.0, 0.0, 0.0, 0.0, 0.0, 0.0, 0.0, 0.0, 0.0, 0.0, 0.0, 0.0, 0.0, 0.0, 0.0, 0.0, 0.0, 0.0, 0.0, 0.0, 0.0, 0.0, 0.0, 0.0, 0.0, 0.0, 0.0, 0.0, 0.0, 0.0, 0.0, 0.0, 0.0, 0.0, 0.0, 0.0)",0.2199999988079071,5.5568823881912977e-05,0.0,0.0,0.0,-0.002997659612447,69,2,621000000,base_footprint,-0.0014523899177559,0.0035899600065855,0.3731000696449867,0.927783024624607,0.0,0.0,0.0,0.0,0.0,0.0,0.0,0.0,0.0,3.234773894494297e-05,7.801736966246348e-05,0.014477376609937,0.0,0.0,0.0,0.0,0.0,0.0,0.0,0.0,0.0,-0.0020175619336513,0.0043109895848246,-0.0002425019400779,0.0,0.0,0.0,0.0,0.0,0.0,0.0,0.0,0.0
2.6550000000000002,0.7647668443116032,0.005252286412863599,0.005040365744389402,6.461696076787149e-05,0.8113757572408109,0.20710215057834588,0.14259010765823832,0.15019774289977816,0.014601670142613045,-0.18501529958536858,-0.03063606226016627,0.004746884192074744,0.005002881574197343,0.00048623561574901445,73.0,2.0,627000000.0,odom,base_footprint,0.1578486519700675,0.1489296671177934,-0.0010040654882386,-0.0014528016495956,0.0035904662714854,0.3731470288655325,0.9277641363882017,"(1e-05, 0.0, 0.0, 0.0, 0.0, 0.0, 0.0, 1e-05, 0.0, 0.0, 0.0, 0.0, 0.0, 0.0, 1000000000000.0, 0.0, 0.0, 0.0, 0.0, 0.0, 0.0, 1000000000000.0, 0.0, 0.0, 0.0, 0.0, 0.0, 0.0, 1000000000000.0, 0.0, 0.0, 0.0, 0.0, 0.0, 0.0, 0.001)",0.20900679629265,-4.246597980292477e-05,0.0,0.0,0.0,0.0144497292122587,"(0.0, 0.0, 0.0, 0.0, 0.0, 0.0, 0.0, 0.0, 0.0, 0.0, 0.0, 0.0, 0.0, 0.0, 0.0, 0.0, 0.0, 0.0, 0.0, 0.0, 0.0, 0.0, 0.0, 0.0, 0.0, 0.0, 0.0, 0.0, 0.0, 0.0, 0.0, 0.0, 0.0, 0.0, 0.0, 0.0)",0.2199999988079071,5.5568823881912977e-05,0.0,0.0,0.0,-0.002997659612447,70,2,655000000,base_footprint,-0.0014491391741995,0.0035828498120387,0.3731300541760318,0.9277709986055124,0.0,0.0,0.0,0.0,0.0,0.0,0.0,0.0,0.0,-0.0001504179691632,-0.0005417459887604,-0.0113450789398458,0.0,0.0,0.0,0.0,0.0,0.0,0.0,0.0,0.0,0.0115592050615157,0.3395575951723798,-0.0013481161490622,0.0,0.0,0.0,0.0,0.0,0.0,0.0,0.0,0.0
2.689,0.7645972774875268,0.005414794636058318,0.0051925245317386015,-0.0001695668240764281,0.8118619928565598,0.21809448640266263,0.15008142005153374,0.15824276398798237,-0.0037167817089987874,0.33010017490440674,-0.5501036592075624,0.004997879141347651,0.005269324832729472,-0.00012376883090965964,73.0,2.0,627000000.0,odom,base_footprint,0.1578486519700675,0.1489296671177934,-0.0010040654882386,-0.0014528016495956,0.0035904662714854,0.3731470288655325,0.9277641363882017,"(1e-05, 0.0, 0.0, 0.0, 0.0, 0.0, 0.0, 1e-05, 0.0, 0.0, 0.0, 0.0, 0.0, 0.0, 1000000000000.0, 0.0, 0.0, 0.0, 0.0, 0.0, 0.0, 1000000000000.0, 0.0, 0.0, 0.0, 0.0, 0.0, 0.0, 1000000000000.0, 0.0, 0.0, 0.0, 0.0, 0.0, 0.0, 0.001)",0.20900679629265,-4.246597980292477e-05,0.0,0.0,0.0,0.0144497292122587,"(0.0, 0.0, 0.0, 0.0, 0.0, 0.0, 0.0, 0.0, 0.0, 0.0, 0.0, 0.0, 0.0, 0.0, 0.0, 0.0, 0.0, 0.0, 0.0, 0.0, 0.0, 0.0, 0.0, 0.0, 0.0, 0.0, 0.0, 0.0, 0.0, 0.0, 0.0, 0.0, 0.0, 0.0, 0.0, 0.0)",0.2199999988079071,5.5568823881912977e-05,0.0,0.0,0.0,-0.002997659612447,71,2,689000000,base_footprint,-0.001453729431312,0.0035940318969122,0.3730513773674794,0.9278025864642172,0.0,0.0,0.0,0.0,0.0,0.0,0.0,0.0,0.0,0.0002142147165081,-0.0001609543571448,-0.0056578923478645,0.0,0.0,0.0,0.0,0.0,0.0,0.0,0.0,0.0,0.0032023027028214,-0.0059263125883883,1.1924586415759862e-05,0.0,0.0,0.0,0.0,0.0,0.0,0.0,0.0,0.0
2.723,0.7649134863345316,0.005390191972926478,0.005164976431187518,0.00031620884700478413,0.8117382240256502,0.22509330110603282,0.1549178575872708,0.16330171953589848,-0.004764381384084418,0.21017461571682242,-0.03145944970227118,0.005159032723312384,0.005437692933916978,-0.00015865390009001112,75.0,2.0,694000000.0,odom,base_footprint,0.1684141351684553,0.1590646640819947,-0.0010044929833575,-0.0014538481531644,0.0035935453109006,0.373035656217182,0.927808909177026,"(1e-05, 0.0, 0.0, 0.0, 0.0, 0.0, 0.0, 1e-05, 0.0, 0.0, 0.0, 0.0, 0.0, 0.0, 1000000000000.0, 0.0, 0.0, 0.0, 0.0, 0.0, 0.0, 1000000000000.0, 0.0, 0.0, 0.0, 0.0, 0.0, 0.0, 1000000000000.0, 0.0, 0.0, 0.0, 0.0, 0.0, 0.0, 0.001)",0.2202879423974004,-6.54506410358302e-05,0.0,0.0,0.0,-0.0056990893840383,"(0.0, 0.0, 0.0, 0.0, 0.0, 0.0, 0.0, 0.0, 0.0, 0.0, 0.0, 0.0, 0.0, 0.0, 0.0, 0.0, 0.0, 0.0, 0.0, 0.0, 0.0, 0.0, 0.0, 0.0, 0.0, 0.0, 0.0, 0.0, 0.0, 0.0, 0.0, 0.0, 0.0, 0.0, 0.0, 0.0)",0.2199999988079071,0.0,0.0,0.0,0.0,0.0226548593491315,72,2,723000000,base_footprint,-0.0014563292828591,0.0035848040571234,0.3731980921114275,0.9277436134672566,0.0,0.0,0.0,0.0,0.0,0.0,0.0,0.0,0.0,0.0011465729272197,0.0002303798883817,0.0157726891247643,0.0,0.0,0.0,0.0,0.0,0.0,0.0,0.0,0.0,-0.0008456397807045,-0.047102920522943,0.0020750867150499,0.0,0.0,0.0,0.0,0.0,0.0,0.0,0.0,0.0
2.757,0.7652350951376551,0.0053346214139850245,0.005124831168300592,0.00032160880312348544,0.81157957012556,0.21820671684016155,0.15020335963474415,0.15828178046951003,0.020121680394467066,-0.20680433230844655,0.7473291825390835,0.0049998473211356545,0.005272608763610884,0.0006700519571357533,76.0,2.0,727000000.0,odom,base_footprint,0.1736388175873671,0.1640712600085353,-0.0010033988857677,-0.0014549129915983,0.0035835957445126,0.3732286137685922,0.9277313420026844,"(1e-05, 0.0, 0.0, 0.0, 0.0, 0.0, 0.0, 1e-05, 0.0, 0.0, 0.0, 0.0, 0.0, 0.0, 1000000000000.0, 0.0, 0.0, 0.0, 0.0, 0.0, 0.0, 1000000000000.0, 0.0, 0.0, 0.0, 0.0, 0.0, 0.0, 1000000000000.0, 0.0, 0.0, 0.0, 0.0, 0.0, 0.0, 0.001)",0.2184083210484848,-6.099302613733759e-05,0.0,0.0,0.0,0.0112343212494463,"(0.0, 0.0, 0.0, 0.0, 0.0, 0.0, 0.0, 0.0, 0.0, 0.0, 0.0, 0.0, 0.0, 0.0, 0.0, 0.0, 0.0, 0.0, 0.0, 0.0, 0.0, 0.0, 0.0, 0.0, 0.0, 0.0, 0.0, 0.0, 0.0, 0.0, 0.0, 0.0, 0.0, 0.0, 0.0, 0.0)",0.2199999988079071,0.0,0.0,0.0,0.0,0.0226548593491315,73,2,757000000,base_footprint,-0.0014503992400999,0.0035851355456334,0.373347252879294,0.927683605499552,0.0,0.0,0.0,0.0,0.0,0.0,0.0,0.0,0.0,3.3897299798012225e-05,0.0002745694094686,0.022476227848323,0.0,0.0,0.0,0.0,0.0,0.0,0.0,0.0,0.0,-0.0127344311839606,-0.0581168777520037,-0.0025436331292817,0.0,0.0,0.0,0.0,0.0,0.0,0.0,0.0,0.0
2.791,0.766332433535979,0.005332296710440776,0.005129300801338305,0.0010973383983239329,0.8122496220826958,0.21787825474776987,0.14987133056923102,0.15814397922571188,0.0211707330959656,-0.009863726498248624,0.03150308412908512,0.0049887004036123905,0.005268103072854107,0.0007049854120956546,77.0,2.0,760000000.0,odom,base_footprint,0.178809479693898,0.1690404144723554,-0.0010033947967844,-0.0014510213532771,0.0035856221182389,0.3733943128572381,0.9276646619209598,"(1e-05, 0.0, 0.0, 0.0, 0.0, 0.0, 0.0, 1e-05, 0.0, 0.0, 0.0, 0.0, 0.0, 0.0, 1000000000000.0, 0.0, 0.0, 0.0, 0.0, 0.0, 0.0, 1000000000000.0, 0.0, 0.0, 0.0, 0.0, 0.0, 0.0, 1000000000000.0, 0.0, 0.0, 0.0, 0.0, 0.0, 0.0, 0.001)",0.2166613963079849,0.0001093477184862,0.0,0.0,0.0,0.0277455789075648,"(0.0, 0.0, 0.0, 0.0, 0.0, 0.0, 0.0, 0.0, 0.0, 0.0, 0.0, 0.0, 0.0, 0.0, 0.0, 0.0, 0.0, 0.0, 0.0, 0.0, 0.0, 0.0, 0.0, 0.0, 0.0, 0.0, 0.0, 0.0, 0.0, 0.0, 0.0, 0.0, 0.0, 0.0, 0.0, 0.0)",0.2199999988079071,0.0,0.0,0.0,0.0,0.0226548593491315,74,2,791000000,base_footprint,-0.0014558488781597,0.0035900994507206,0.3738561823723433,0.9274785962985642,0.0,0.0,0.0,0.0,0.0,0.0,0.0,0.0,0.0,-2.693173800696701e-05,-0.0008984940616613,0.0240352519013676,0.0,0.0,0.0,0.0,0.0,0.0,0.0,0.0,0.0,-0.0027671054551171,0.0632124882432123,-0.0003780678492052,0.0,0.0,0.0,0.0,0.0,0.0,0.0,0.0,0.0
2.825,0.766500569960135,0.0051919512041181115,0.005004232570723105,0.00016813642415602906,0.8129546074947915,0.2240058946336355,0.15397167076010362,0.16270023181900406,0.022776847628039956,0.18401320978575436,0.048231667629860524,0.005125038725776348,0.005420015537104976,0.0007584690260137306,78.0,2.0,794000000.0,odom,base_footprint,0.1841483329162661,0.1741770541526431,-0.0010043773314269,-0.0014578739578956,0.0035903274736015,0.3738960328092698,0.9274625279770846,"(1e-05, 0.0, 0.0, 0.0, 0.0, 0.0, 0.0, 1e-05, 0.0, 0.0, 0.0, 0.0, 0.0, 0.0, 1000000000000.0, 0.0, 0.0, 0.0, 0.0, 0.0, 0.0, 1000000000000.0, 0.0, 0.0, 0.0, 0.0, 0.0, 0.0, 1000000000000.0, 0.0, 0.0, 0.0, 0.0, 0.0, 0.0, 0.001)",0.2192309418629616,6.510452499383645e-05,0.0,0.0,0.0,0.0203645434327679,"(0.0, 0.0, 0.0, 0.0, 0.0, 0.0, 0.0, 0.0, 0.0, 0.0, 0.0, 0.0, 0.0, 0.0, 0.0, 0.0, 0.0, 0.0, 0.0, 0.0, 0.0, 0.0, 0.0, 0.0, 0.0, 0.0, 0.0, 0.0, 0.0, 0.0, 0.0, 0.0, 0.0, 0.0, 0.0, 0.0)",0.2084210515022277,0.0001093477185349,0.0,0.0,0.0,0.0195404607802629,75,2,825000000,base_footprint,-0.0014566210026994,0.003589150431209,0.3739341560449328,0.9274471646392588,0.0,0.0,0.0,0.0,0.0,0.0,0.0,0.0,0.0,-0.0001671241956178,-8.921926522929449e-05,-0.013155433652696,0.0,0.0,0.0,0.0,0.0,0.0,0.0,0.0,0.0,-0.0173065540509602,-0.4727881616351776,0.0037007148607439,0.0,0.0,0.0,0.0,0.0,0.0,0.0,0.0,0.0
2.859,0.7666409694498676,0.005028829976681692,0.004841671171910394,0.0001403994897325456,0.8137130765208054,0.19529079823205478,0.13412657020935317,0.14194562000283276,0.01795379973009644,-0.8623152072546758,-0.14483627321151696,0.004464859554372174,0.004728258092561201,0.0005978615310122115,79.0,2.0,827000000.0,odom,base_footprint,0.1891445696325865,0.1789926972402567,-0.0010037970579759,-0.0014565424498753,0.0035890973738255,0.3739129626955971,0.927455709558324,"(1e-05, 0.0, 0.0, 0.0, 0.0, 0.0, 0.0, 1e-05, 0.0, 0.0, 0.0, 0.0, 0.0, 0.0, 1000000000000.0, 0.0, 0.0, 0.0, 0.0, 0.0, 0.0, 1000000000000.0, 0.0, 0.0, 0.0, 0.0, 0.0, 0.0, 1000000000000.0, 0.0, 0.0, 0.0, 0.0, 0.0, 0.0, 0.001)",0.2009211569249334,3.174254269798504e-05,0.0,0.0,0.0,-0.0162676757037594,"(0.0, 0.0, 0.0, 0.0, 0.0, 0.0, 0.0, 0.0, 0.0, 0.0, 0.0, 0.0, 0.0, 0.0, 0.0, 0.0, 0.0, 0.0, 0.0, 0.0, 0.0, 0.0, 0.0, 0.0, 0.0, 0.0, 0.0, 0.0, 0.0, 0.0, 0.0, 0.0, 0.0, 0.0, 0.0, 0.0)",0.2084210515022277,0.0001093477185349,0.0,0.0,0.0,0.0195404607802629,76,2,859000000,base_footprint,-0.0014568737774798,0.003585574547685,0.3739992709773191,0.9274209219563646,0.0,0.0,0.0,0.0,0.0,0.0,0.0,0.0,0.0,0.0013651808975411,-0.0002533343864336,0.0207571813918927,0.0,0.0,0.0,0.0,0.0,0.0,0.0,0.0,0.0,0.0032183931173942,0.1446646586719367,0.0007771064067416,0.0,0.0,0.0,0.0,0.0,0.0,0.0,0.0,0.0
2.893,0.7673616112820799,0.005084659956267917,0.004902277528919807,0.0007206418322123209,0.8143109380518174,0.20599831607165106,0.14139099799597793,0.14981285629096466,0.0225581787363714,0.32154708227015855,0.13826963982807683,0.004706296175737575,0.004990677390156194,0.0007511873519211677,79.0,2.0,827000000.0,odom,base_footprint,0.1891445696325865,0.1789926972402567,-0.0010037970579759,-0.0014565424498753,0.0035890973738255,0.3739129626955971,0.927455709558324,"(1e-05, 0.0, 0.0, 0.0, 0.0, 0.0, 0.0, 1e-05, 0.0, 0.0, 0.0, 0.0, 0.0, 0.0, 1000000000000.0, 0.0, 0.0, 0.0, 0.0, 0.0, 0.0, 1000000000000.0, 0.0, 0.0, 0.0, 0.0, 0.0, 0.0, 1000000000000.0, 0.0, 0.0, 0.0, 0.0, 0.0, 0.0, 0.001)",0.2009211569249334,3.174254269798504e-05,0.0,0.0,0.0,-0.0162676757037594,"(0.0, 0.0, 0.0, 0.0, 0.0, 0.0, 0.0, 0.0, 0.0, 0.0, 0.0, 0.0, 0.0, 0.0, 0.0, 0.0, 0.0, 0.0, 0.0, 0.0, 0.0, 0.0, 0.0, 0.0, 0.0, 0.0, 0.0, 0.0, 0.0, 0.0, 0.0, 0.0, 0.0, 0.0, 0.0, 0.0)",0.2199999988079071,3.174254379700869e-05,0.0,0.0,0.0,-0.0408830568194389,77,2,893000000,base_footprint,-0.0014564583003229,0.0035812660320735,0.3743334212164421,0.927286117130641,0.0,0.0,0.0,0.0,0.0,0.0,0.0,0.0,0.0,0.0005220415293943,0.0002023278384749,0.0211640758774355,0.0,0.0,0.0,0.0,0.0,0.0,0.0,0.0,0.0,-0.0026854403677705,0.0030210176618789,-0.000809822292855,0.0,0.0,0.0,0.0,0.0,0.0,0.0,0.0,0.0
2.927,0.7671821990235773,0.005273180030233887,0.005089186696438874,-0.00017941225850259815,0.8157820310603523,0.21776675312445612,0.14923535551940278,0.15859119593900942,-0.040811350989529684,0.16444166201601038,-1.874778963256069,0.004972965865709893,0.005277857692031922,-0.0013590179879513387,81.0,2.0,894000000.0,odom,base_footprint,0.1991216917233731,0.1886057993466718,-0.0010031349556712,-0.001456382252544,0.0035810421480018,0.3743530226247719,0.9272782050385772,"(1e-05, 0.0, 0.0, 0.0, 0.0, 0.0, 0.0, 1e-05, 0.0, 0.0, 0.0, 0.0, 0.0, 0.0, 1000000000000.0, 0.0, 0.0, 0.0, 0.0, 0.0, 0.0, 1000000000000.0, 0.0, 0.0, 0.0, 0.0, 0.0, 0.0, 1000000000000.0, 0.0, 0.0, 0.0, 0.0, 0.0, 0.0, 0.001)",0.2078251628825634,1.6479760049301073e-05,0.0,0.0,0.0,0.0211470248721953,"(0.0, 0.0, 0.0, 0.0, 0.0, 0.0, 0.0, 0.0, 0.0, 0.0, 0.0, 0.0, 0.0, 0.0, 0.0, 0.0, 0.0, 0.0, 0.0, 0.0, 0.0, 0.0, 0.0, 0.0, 0.0, 0.0, 0.0, 0.0, 0.0, 0.0, 0.0, 0.0, 0.0, 0.0, 0.0, 0.0)",0.2199999988079071,3.174254379700869e-05,0.0,0.0,0.0,-0.0408830568194389,78,2,927000000,base_footprint,-0.0014549986960878,0.0035807195923844,0.3742502351046606,0.927319698351168,0.0,0.0,0.0,0.0,0.0,0.0,0.0,0.0,0.0,0.0004930279315504,-9.921814692438866e-06,-0.0399866077776965,0.0,0.0,0.0,0.0,0.0,0.0,0.0,0.0,0.0,0.0108346871036692,0.3663243436983751,-0.0016290060887985,0.0,0.0,0.0,0.0,0.0,0.0,0.0,0.0,0.0
2.9610000000000003,0.7658232185528685,0.005393144140877493,0.0051948324957891145,-0.0013589804707088151,0.8144230130724011,0.2178716045326266,0.14952270420823713,0.15846449756294714,-0.0395433644955601,0.0031486909360506467,0.03807767249157916,0.00498242051965191,0.005273737637382061,-0.0013167940377021513,83.0,2.0,960000000.0,odom,base_footprint,0.2094888842585436,0.198601232914279,-0.0010025523943056,-0.0014504538269516,0.0035789408073928,0.3736200455805847,0.9275737970138844,"(1e-05, 0.0, 0.0, 0.0, 0.0, 0.0, 0.0, 1e-05, 0.0, 0.0, 0.0, 0.0, 0.0, 0.0, 1000000000000.0, 0.0, 0.0, 0.0, 0.0, 0.0, 0.0, 1000000000000.0, 0.0, 0.0, 0.0, 0.0, 0.0, 0.0, 1000000000000.0, 0.0, 0.0, 0.0, 0.0, 0.0, 0.0, 0.001)",0.2203280153564832,4.24140931155198e-05,0.0,0.0,0.0,-0.0401404295838842,"(0.0, 0.0, 0.0, 0.0, 0.0, 0.0, 0.0, 0.0, 0.0, 0.0, 0.0, 0.0, 0.0, 0.0, 0.0, 0.0, 0.0, 0.0, 0.0, 0.0, 0.0, 0.0, 0.0, 0.0, 0.0, 0.0, 0.0, 0.0, 0.0, 0.0, 0.0, 0.0, 0.0, 0.0, 0.0, 0.0)",0.2199999988079071,3.174254379700869e-05,0.0,0.0,0.0,-0.0408830568194389,79,2,961000000,base_footprint,-0.0014504538269516,0.0035789408073928,0.3736200455805847,0.9275737970138844,0.0,0.0,0.0,0.0,0.0,0.0,0.0,0.0,0.0,7.908871363414555e-06,-0.0001504396376126,-0.0401408636057881,0.0,0.0,0.0,0.0,0.0,0.0,0.0,0.0,0.0,0.0116803614107352,0.0011297387408148,-0.0008090598742862,0.0,0.0,0.0,0.0,0.0,0.0,0.0,0.0,0.0
2.995,0.764449873614352,0.005404803614708409,0.00519164250026749,-0.0013733449385164855,0.8131062190346989,0.22466058125363617,0.1543969320707014,0.16319915482739755,-0.041183144488313395,0.20387317480509187,-0.049242642425023936,0.00514497958847895,0.005431159189157276,-0.0013713987114608362,83.0,2.0,960000000.0,odom,base_footprint,0.2094888842585436,0.198601232914279,-0.0010025523943056,-0.0014504538269516,0.0035789408073928,0.3736200455805847,0.9275737970138844,"(1e-05, 0.0, 0.0, 0.0, 0.0, 0.0, 0.0, 1e-05, 0.0, 0.0, 0.0, 0.0, 0.0, 0.0, 1000000000000.0, 0.0, 0.0, 0.0, 0.0, 0.0, 0.0, 1000000000000.0, 0.0, 0.0, 0.0, 0.0, 0.0, 0.0, 1000000000000.0, 0.0, 0.0, 0.0, 0.0, 0.0, 0.0, 0.001)",0.2203280153564832,4.24140931155198e-05,0.0,0.0,0.0,-0.0401404295838842,"(0.0, 0.0, 0.0, 0.0, 0.0, 0.0, 0.0, 0.0, 0.0, 0.0, 0.0, 0.0, 0.0, 0.0, 0.0, 0.0, 0.0, 0.0, 0.0, 0.0, 0.0, 0.0, 0.0, 0.0, 0.0, 0.0, 0.0, 0.0, 0.0, 0.0, 0.0, 0.0, 0.0, 0.0, 0.0, 0.0)",0.2199999988079071,4.241409260430373e-05,0.0,0.0,0.0,-0.0647558197379112,80,2,995000000,base_footprint,-0.0014477258484306,0.0035802858783162,0.372983016471235,0.9278301326573286,0.0,0.0,0.0,0.0,0.0,0.0,0.0,0.0,0.0,-7.662943203139218e-05,-0.0001647853674081,-0.0406071165085679,0.0,0.0,0.0,0.0,0.0,0.0,0.0,0.0,0.0,0.0092285510598562,0.0053939180085198,-0.0002463622334801,0.0,0.0,0.0,0.0,0.0,0.0,0.0,0.0,0.0
3.029,0.7622680247556191,0.005423429726785195,0.005191412812166396,-0.00218184885873296,0.811734820323238,0.21822579595028593,0.15019191557068123,0.15831893921873402,-0.06351618712244636,-0.19323679589640336,-0.6706619409649539,0.0050068042948731555,0.005266877907574673,-0.002115089031177464,84.0,2.0,994000000.0,odom,base_footprint,0.214893687873252,0.2037928754145465,-0.0010025737197056,-0.0014477258484306,0.0035802858783162,0.372983016471235,0.9278301326573286,"(1e-05, 0.0, 0.0, 0.0, 0.0, 0.0, 0.0, 1e-05, 0.0, 0.0, 0.0, 0.0, 0.0, 0.0, 1000000000000.0, 0.0, 0.0, 0.0, 0.0, 0.0, 0.0, 1000000000000.0, 0.0, 0.0, 0.0, 0.0, 0.0, 0.0, 1000000000000.0, 0.0, 0.0, 0.0, 0.0, 0.0, 0.0, 0.001)",0.2205241644211916,3.914815410796524e-05,0.0,0.0,0.0,-0.0406072144022792,"(0.0, 0.0, 0.0, 0.0, 0.0, 0.0, 0.0, 0.0, 0.0, 0.0, 0.0, 0.0, 0.0, 0.0, 0.0, 0.0, 0.0, 0.0, 0.0, 0.0, 0.0, 0.0, 0.0, 0.0, 0.0, 0.0, 0.0, 0.0, 0.0, 0.0, 0.0, 0.0, 0.0, 0.0, 0.0, 0.0)",0.2199999988079071,4.241409260430373e-05,0.0,0.0,0.0,-0.0647558197379112,81,3,29000000,base_footprint,-0.0014444320475173,0.0035836599473036,0.3719705991006407,0.928236470088389,0.0,0.0,0.0,0.0,0.0,0.0,0.0,0.0,0.0,-0.0002960212076783,-0.0003065912083624,-0.0649803366058261,0.0,0.0,0.0,0.0,0.0,0.0,0.0,0.0,0.0,0.0146098528249619,0.0113028654919973,-0.0003241815475139,0.0,0.0,0.0,0.0,0.0,0.0,0.0,0.0,0.0
3.063,0.7600495806393891,0.005439976005106095,0.0051838920511962094,-0.0022184441162299558,0.8096197312920606,0.21840764019144712,0.15065186941798522,0.1581325758180868,-0.06456111660088412,0.005460788022858518,-0.03137926361674959,0.005022205863874839,0.005260568864423608,-0.0021498851828094414,85.0,3.0,27000000.0,odom,base_footprint,0.2201573601630863,0.2088317026532105,-0.0010028124050366,-0.0014445205836682,0.0035835459780451,0.3720007630549214,0.9282243822724454,"(1e-05, 0.0, 0.0, 0.0, 0.0, 0.0, 0.0, 1e-05, 0.0, 0.0, 0.0, 0.0, 0.0, 0.0, 1000000000000.0, 0.0, 0.0, 0.0, 0.0, 0.0, 0.0, 1000000000000.0, 0.0, 0.0, 0.0, 0.0, 0.0, 0.0, 1000000000000.0, 0.0, 0.0, 0.0, 0.0, 0.0, 0.0, 0.001)",0.2209248618359754,4.142675141927121e-05,0.0,0.0,0.0,-0.0649674137021067,"(0.0, 0.0, 0.0, 0.0, 0.0, 0.0, 0.0, 0.0, 0.0, 0.0, 0.0, 0.0, 0.0, 0.0, 0.0, 0.0, 0.0, 0.0, 0.0, 0.0, 0.0, 0.0, 0.0, 0.0, 0.0, 0.0, 0.0, 0.0, 0.0, 0.0, 0.0, 0.0, 0.0, 0.0, 0.0, 0.0)",0.2199999988079071,4.241409260430373e-05,0.0,0.0,0.0,-0.0647558197379112,82,3,63000000,base_footprint,-0.0014419769768373,0.0035885224461496,0.3709407457106527,0.9286484837551164,0.0,0.0,0.0,0.0,0.0,0.0,0.0,0.0,0.0,-0.0004255106571834,-0.0003211252315874,-0.0654781473897935,0.0,0.0,0.0,0.0,0.0,0.0,0.0,0.0,0.0,0.0147635000940392,0.0046031673846319,-0.0003851869616099,0.0,0.0,0.0,0.0,0.0,0.0,0.0,0.0,0.0
3.097,0.7578180574814871,0.005454225614070024,0.005174060044999901,-0.0022315231579019823,0.807469846109251,0.22518355868696238,0.15567587536163854,0.16270420072423522,-0.06698521928046104,0.20348103590135913,-0.07279587626357116,0.005189882590761482,0.0054124195022969435,-0.002230607802039353,85.0,3.0,27000000.0,odom,base_footprint,0.2201573601630863,0.2088317026532105,-0.0010028124050366,-0.0014445205836682,0.0035835459780451,0.3720007630549214,0.9282243822724454,"(1e-05, 0.0, 0.0, 0.0, 0.0, 0.0, 0.0, 1e-05, 0.0, 0.0, 0.0, 0.0, 0.0, 0.0, 1000000000000.0, 0.0, 0.0, 0.0, 0.0, 0.0, 0.0, 1000000000000.0, 0.0, 0.0, 0.0, 0.0, 0.0, 0.0, 1000000000000.0, 0.0, 0.0, 0.0, 0.0, 0.0, 0.0, 0.001)",0.2209248618359754,4.142675141927121e-05,0.0,0.0,0.0,-0.0649674137021067,"(0.0, 0.0, 0.0, 0.0, 0.0, 0.0, 0.0, 0.0, 0.0, 0.0, 0.0, 0.0, 0.0, 0.0, 0.0, 0.0, 0.0, 0.0, 0.0, 0.0, 0.0, 0.0, 0.0, 0.0, 0.0, 0.0, 0.0, 0.0, 0.0, 0.0, 0.0, 0.0, 0.0, 0.0, 0.0, 0.0)",0.2084210515022277,3.887366619892418e-05,0.0,0.0,0.0,0.0412156283855438,83,3,97000000,base_footprint,-0.0014410490182672,0.0035954859457877,0.3699043591746386,0.929061763782226,0.0,0.0,0.0,0.0,0.0,0.0,0.0,0.0,0.0,9.25537898835791e-05,-0.0003312473433166,-0.0633311612929275,0.0,0.0,0.0,0.0,0.0,0.0,0.0,0.0,0.0,0.0120541562090472,-0.0330289635513613,0.0064519016583022,0.0,0.0,0.0,0.0,0.0,0.0,0.0,0.0,0.0
3.1310000000000002,0.7577648773580798,0.005253387467657189,0.00496541344685561,-5.3180123407270414e-05,0.8052392383072117,0.20706001377941843,0.14347991020549983,0.14928953303482018,0.042757707009145295,-0.5442505978241425,3.29558337206025,0.0047741908286649416,0.004974884587295941,0.0014238316434045384,87.0,3.0,94000000.0,odom,base_footprint,0.2308914336766611,0.2190393980604823,-0.0010039865887764,-0.0014406278428294,0.0035946780176476,0.3699641406107924,0.9290379634565458,"(1e-05, 0.0, 0.0, 0.0, 0.0, 0.0, 0.0, 1e-05, 0.0, 0.0, 0.0, 0.0, 0.0, 0.0, 1000000000000.0, 0.0, 0.0, 0.0, 0.0, 0.0, 0.0, 1000000000000.0, 0.0, 0.0, 0.0, 0.0, 0.0, 0.0, 1000000000000.0, 0.0, 0.0, 0.0, 0.0, 0.0, 0.0, 0.001)",0.2212410284243407,2.850954601935074e-05,0.0,0.0,0.0,-0.065882407043321,"(0.0, 0.0, 0.0, 0.0, 0.0, 0.0, 0.0, 0.0, 0.0, 0.0, 0.0, 0.0, 0.0, 0.0, 0.0, 0.0, 0.0, 0.0, 0.0, 0.0, 0.0, 0.0, 0.0, 0.0, 0.0, 0.0, 0.0, 0.0, 0.0, 0.0, 0.0, 0.0, 0.0, 0.0, 0.0, 0.0)",0.2084210515022277,3.887366619892418e-05,0.0,0.0,0.0,0.0412156283855438,84,3,131000000,base_footprint,-0.0014412302509398,0.0035987111318764,0.3698796475524779,0.9290715895236534,0.0,0.0,0.0,0.0,0.0,0.0,0.0,0.0,0.0,0.0011068436029256,8.949615821933677e-05,0.0411687655031355,0.0,0.0,0.0,0.0,0.0,0.0,0.0,0.0,0.0,-0.0148889042048642,-0.3329864069609674,-0.0037448701581582,0.0,0.0,0.0,0.0,0.0,0.0,0.0,0.0,0.0
3.165,0.7591077312942828,0.00515449346732999,0.004879891814503795,0.0013428539362029255,0.8066630699506163,0.20697545589002025,0.14320869510317197,0.14943262357239284,0.03939127329676783,-0.002539275957903276,-0.10109410547680073,0.0047654350016685205,0.004979375763107994,0.0013117294007823689,89.0,3.0,160000000.0,odom,base_footprint,0.241013127942036,0.2286133028020959,-0.0010045736172028,-0.0014439638150628,0.0035981886610934,0.3704298406868015,0.9288523570167708,"(1e-05, 0.0, 0.0, 0.0, 0.0, 0.0, 0.0, 1e-05, 0.0, 0.0, 0.0, 0.0, 0.0, 0.0, 1000000000000.0, 0.0, 0.0, 0.0, 0.0, 0.0, 0.0, 1000000000000.0, 0.0, 0.0, 0.0, 0.0, 0.0, 0.0, 1000000000000.0, 0.0, 0.0, 0.0, 0.0, 0.0, 0.0, 0.001)",0.20875464673918,-0.0001198063030323,0.0,0.0,0.0,0.0396171976936264,"(0.0, 0.0, 0.0, 0.0, 0.0, 0.0, 0.0, 0.0, 0.0, 0.0, 0.0, 0.0, 0.0, 0.0, 0.0, 0.0, 0.0, 0.0, 0.0, 0.0, 0.0, 0.0, 0.0, 0.0, 0.0, 0.0, 0.0, 0.0, 0.0, 0.0, 0.0, 0.0, 0.0, 0.0, 0.0, 0.0)",0.2084210515022277,3.887366619892418e-05,0.0,0.0,0.0,0.0412156283855438,85,3,165000000,base_footprint,-0.0014442871005392,0.0035980607878966,0.3705033688088085,0.92882303034252,0.0,0.0,0.0,0.0,0.0,0.0,0.0,0.0,0.0,0.0003378870922107,0.000200719659554,0.0395390452365144,0.0,0.0,0.0,0.0,0.0,0.0,0.0,0.0,0.0,-0.0058392511924586,0.0017530816362795,-0.0006569089152585,0.0,0.0,0.0,0.0,0.0,0.0,0.0,0.0,0.0
3.199,0.7604262110403908,0.005144566061458716,0.004879659392717284,0.0013184797461079925,0.8079747993513987,0.2130635940289451,0.1472192401251219,0.15402139603805973,0.04055337715974511,0.18282697113888396,0.034898013903221545,0.004898781974648757,0.005132368206857579,0.0013504274594195122,89.0,3.0,160000000.0,odom,base_footprint,0.241013127942036,0.2286133028020959,-0.0010045736172028,-0.0014439638150628,0.0035981886610934,0.3704298406868015,0.9288523570167708,"(1e-05, 0.0, 0.0, 0.0, 0.0, 0.0, 0.0, 1e-05, 0.0, 0.0, 0.0, 0.0, 0.0, 0.0, 1000000000000.0, 0.0, 0.0, 0.0, 0.0, 0.0, 0.0, 1000000000000.0, 0.0, 0.0, 0.0, 0.0, 0.0, 0.0, 1000000000000.0, 0.0, 0.0, 0.0, 0.0, 0.0, 0.0, 0.001)",0.20875464673918,-0.0001198063030323,0.0,0.0,0.0,0.0396171976936264,"(0.0, 0.0, 0.0, 0.0, 0.0, 0.0, 0.0, 0.0, 0.0, 0.0, 0.0, 0.0, 0.0, 0.0, 0.0, 0.0, 0.0, 0.0, 0.0, 0.0, 0.0, 0.0, 0.0, 0.0, 0.0, 0.0, 0.0, 0.0, 0.0, 0.0, 0.0, 0.0, 0.0, 0.0, 0.0, 0.0)",0.2199999988079071,0.0,0.0,0.0,0.0,-0.0178187023848295,86,3,199000000,base_footprint,-0.0014458210968026,0.0035938688562555,0.3711156117029097,0.9285785892741524,0.0,0.0,0.0,0.0,0.0,0.0,0.0,0.0,0.0,0.0006852982936163,0.0001224820307288,0.0365538489301281,0.0,0.0,0.0,0.0,0.0,0.0,0.0,0.0,0.0,-0.006697354256873,-0.0131137108199178,0.0008516346273089,0.0,0.0,0.0,0.0,0.0,0.0,0.0,0.0,0.0
3.233,0.7613639689025198,0.005103131949515671,0.004856692993967515,0.0009377578621290185,0.8093252268108182,0.20657039153441228,0.14253088588193571,0.14952014321953755,0.03985890953712252,-0.19499106590188608,-0.020854883562239926,0.004742823161586647,0.004982311605038249,0.00132730168758618,90.0,3.0,194000000.0,odom,base_footprint,0.2461594763318886,0.2334935118781715,-0.0010042310260645,-0.001445711566324,0.0035947086149299,0.3710468772165335,0.9286060536610234,"(1e-05, 0.0, 0.0, 0.0, 0.0, 0.0, 0.0, 1e-05, 0.0, 0.0, 0.0, 0.0, 0.0, 0.0, 1000000000000.0, 0.0, 0.0, 0.0, 0.0, 0.0, 0.0, 1000000000000.0, 0.0, 0.0, 0.0, 0.0, 0.0, 0.0, 1000000000000.0, 0.0, 0.0, 0.0, 0.0, 0.0, 0.0, 0.001)",0.2083843944924147,-0.0001875465812433,0.0,0.0,0.0,0.0376248930793858,"(0.0, 0.0, 0.0, 0.0, 0.0, 0.0, 0.0, 0.0, 0.0, 0.0, 0.0, 0.0, 0.0, 0.0, 0.0, 0.0, 0.0, 0.0, 0.0, 0.0, 0.0, 0.0, 0.0, 0.0, 0.0, 0.0, 0.0, 0.0, 0.0, 0.0, 0.0, 0.0, 0.0, 0.0, 0.0, 0.0)",0.2199999988079071,0.0,0.0,0.0,0.0,-0.0178187023848295,87,3,233000000,base_footprint,-0.0014439470709035,0.0035837376406005,0.371550977008133,0.9284045149209916,0.0,0.0,0.0,0.0,0.0,0.0,0.0,0.0,0.0,0.002787079910821,-0.0005982673777784,0.0268878105359827,0.0,0.0,0.0,0.0,0.0,0.0,0.0,0.0,0.0,-0.0214264110373011,-0.0584730278865331,0.0036237452599219,0.0,0.0,0.0,0.0,0.0,0.0,0.0,0.0,0.0
3.267,0.7626954531732836,0.0050917810417061005,0.004868619355230891,0.0013314842707637942,0.8106525284984043,0.21793809155567198,0.1501649391540663,0.15794778504234885,-0.01760295264143165,0.3413723730108017,-1.7255814468034283,0.005001875834277002,0.005258345556433345,-0.000586178322959674,91.0,3.0,227000000.0,odom,base_footprint,0.2511209480360347,0.2382117853822392,-0.0010034428681284,-0.0014449528552385,0.0035887016122277,0.3714935309697132,0.9284274822406104,"(1e-05, 0.0, 0.0, 0.0, 0.0, 0.0, 0.0, 1e-05, 0.0, 0.0, 0.0, 0.0, 0.0, 0.0, 1000000000000.0, 0.0, 0.0, 0.0, 0.0, 0.0, 0.0, 1000000000000.0, 0.0, 0.0, 0.0, 0.0, 0.0, 0.0, 1000000000000.0, 0.0, 0.0, 0.0, 0.0, 0.0, 0.0, 0.001)",0.2062703953059685,0.0001027324683334,0.0,0.0,0.0,0.0215316160095703,"(0.0, 0.0, 0.0, 0.0, 0.0, 0.0, 0.0, 0.0, 0.0, 0.0, 0.0, 0.0, 0.0, 0.0, 0.0, 0.0, 0.0, 0.0, 0.0, 0.0, 0.0, 0.0, 0.0, 0.0, 0.0, 0.0, 0.0, 0.0, 0.0, 0.0, 0.0, 0.0, 0.0, 0.0, 0.0, 0.0)",0.2199999988079071,0.0,0.0,0.0,0.0,-0.0178187023848295,88,3,267000000,base_footprint,-0.0014397851993336,0.0035652755857437,0.3721690008221668,0.928157018319426,0.0,0.0,0.0,0.0,0.0,0.0,0.0,0.0,0.0,-0.0006889843086971,0.0008478552366154,0.0495921666871301,0.0,0.0,0.0,0.0,0.0,0.0,0.0,0.0,0.0,-4.70581207927534e-05,0.0819827365616695,-0.0062775994696093,0.0,0.0,0.0,0.0,0.0,0.0,0.0,0.0,0.0
3.301,0.7643148684987708,0.005218373206904214,0.0049968129851350185,0.001619415325487261,0.8100663501754447,0.2244077315689057,0.15471799465009012,0.16254590772872976,-0.020904075214758615,0.19428348388089242,-0.09913281000981879,0.005153830247656152,0.005411139852997065,-0.0006961057046514619,91.0,3.0,227000000.0,odom,base_footprint,0.2511209480360347,0.2382117853822392,-0.0010034428681284,-0.0014449528552385,0.0035887016122277,0.3714935309697132,0.9284274822406104,"(1e-05, 0.0, 0.0, 0.0, 0.0, 0.0, 0.0, 1e-05, 0.0, 0.0, 0.0, 0.0, 0.0, 0.0, 1000000000000.0, 0.0, 0.0, 0.0, 0.0, 0.0, 0.0, 1000000000000.0, 0.0, 0.0, 0.0, 0.0, 0.0, 0.0, 1000000000000.0, 0.0, 0.0, 0.0, 0.0, 0.0, 0.0, 0.001)",0.2062703953059685,0.0001027324683334,0.0,0.0,0.0,0.0215316160095703,"(0.0, 0.0, 0.0, 0.0, 0.0, 0.0, 0.0, 0.0, 0.0, 0.0, 0.0, 0.0, 0.0, 0.0, 0.0, 0.0, 0.0, 0.0, 0.0, 0.0, 0.0, 0.0, 0.0, 0.0, 0.0, 0.0, 0.0, 0.0, 0.0, 0.0, 0.0, 0.0, 0.0, 0.0, 0.0, 0.0)",0.2199999988079071,0.0001027324688038,0.0,0.0,0.0,-0.0194940157234668,89,3,301000000,base_footprint,-0.0014377314509273,0.0035816970023775,0.3729203540295522,0.9278553302780188,0.0,0.0,0.0,0.0,0.0,0.0,0.0,0.0,0.0,0.000815062640898,0.0001790575539316,0.0232911343808201,0.0,0.0,0.0,0.0,0.0,0.0,0.0,0.0,0.0,-0.001772748923381,0.1953939024789874,0.002079989006325,0.0,0.0,0.0,0.0,0.0,0.0,0.0,0.0,0.0
3.335,0.764049436250641,0.0053642219190770946,0.00514433902128919,-0.0002654322481298043,0.8093702444707932,0.2174809212594323,0.15005192289940547,0.15742417713312742,-0.01970114205321263,-0.20801232160580768,0.036124118965344884,0.004998290875746318,0.0052407357736026765,-0.0006560480303719807,93.0,3.0,294000000.0,odom,base_footprint,0.2612452123532809,0.2478954539037593,-0.001002324426169,-0.0014375381127233,0.0035836830015958,0.3728376335092078,0.9278885653674002,"(1e-05, 0.0, 0.0, 0.0, 0.0, 0.0, 0.0, 1e-05, 0.0, 0.0, 0.0, 0.0, 0.0, 0.0, 1000000000000.0, 0.0, 0.0, 0.0, 0.0, 0.0, 0.0, 1000000000000.0, 0.0, 0.0, 0.0, 0.0, 0.0, 0.0, 1000000000000.0, 0.0, 0.0, 0.0, 0.0, 0.0, 0.0, 0.001)",0.2146289806840004,5.156926664962036e-05,0.0,0.0,0.0,0.0390338518999992,"(0.0, 0.0, 0.0, 0.0, 0.0, 0.0, 0.0, 0.0, 0.0, 0.0, 0.0, 0.0, 0.0, 0.0, 0.0, 0.0, 0.0, 0.0, 0.0, 0.0, 0.0, 0.0, 0.0, 0.0, 0.0, 0.0, 0.0, 0.0, 0.0, 0.0, 0.0, 0.0, 0.0, 0.0, 0.0, 0.0)",0.2199999988079071,0.0001027324688038,0.0,0.0,0.0,-0.0194940157234668,90,3,335000000,base_footprint,-0.0014500303414628,0.0035878040718364,0.3727972292280428,0.927904763946088,0.0,0.0,0.0,0.0,0.0,0.0,0.0,0.0,0.0,0.0003843403790552,-0.0001944520500976,-0.017199807623102,0.0,0.0,0.0,0.0,0.0,0.0,0.0,0.0,0.0,0.0075755429325268,0.1131052636300826,-0.0011127722512951,0.0,0.0,0.0,0.0,0.0,0.0,0.0,0.0,0.0
3.369,0.763450628167992,0.005393163849580496,0.005165613835594107,-0.0005988080826490051,0.8087141964404212,0.21750154911398814,0.15016941049440383,0.15734062418443573,-0.017977896429244997,0.0006194550917669082,0.051749117836865845,0.005002052108712421,0.005238095831677186,-0.0005986639510938584,93.0,3.0,294000000.0,odom,base_footprint,0.2612452123532809,0.2478954539037593,-0.001002324426169,-0.0014375381127233,0.0035836830015958,0.3728376335092078,0.9278885653674002,"(1e-05, 0.0, 0.0, 0.0, 0.0, 0.0, 0.0, 1e-05, 0.0, 0.0, 0.0, 0.0, 0.0, 0.0, 1000000000000.0, 0.0, 0.0, 0.0, 0.0, 0.0, 0.0, 1000000000000.0, 0.0, 0.0, 0.0, 0.0, 0.0, 0.0, 1000000000000.0, 0.0, 0.0, 0.0, 0.0, 0.0, 0.0, 0.001)",0.2146289806840004,5.156926664962036e-05,0.0,0.0,0.0,0.0390338518999992,"(0.0, 0.0, 0.0, 0.0, 0.0, 0.0, 0.0, 0.0, 0.0, 0.0, 0.0, 0.0, 0.0, 0.0, 0.0, 0.0, 0.0, 0.0, 0.0, 0.0, 0.0, 0.0, 0.0, 0.0, 0.0, 0.0, 0.0, 0.0, 0.0, 0.0, 0.0, 0.0, 0.0, 0.0, 0.0, 0.0)",0.2199999988079071,0.0001027324688038,0.0,0.0,0.0,-0.0194940157234668,91,3,369000000,base_footprint,-0.001448542923161,0.003584929091122,0.3725194017541395,0.928016349707024,0.0,0.0,0.0,0.0,0.0,0.0,0.0,0.0,0.0,0.0003897379358838,-1.795733491366202e-05,-0.0178564442572858,0.0,0.0,0.0,0.0,0.0,0.0,0.0,0.0,0.0,0.0050009163869308,0.0060246071057907,0.0002155262901343,0.0,0.0,0.0,0.0,0.0,0.0,0.0,0.0,0.0
