Time,Theta_calculated,linear_velocity_x,world_velocity_x,world_velocity_y,angular_velocity_yaw,linear_acceleration_x,angular_acceleration_yaw,kinematic_delta_x,kinematic_delta_y,kinematic_delta_yaw
0.36000000000000004,0.7853681339707695,-7.068077281465482e-06,-4.9980354570537735e-06,-4.997735289788943e-06,-0.0001241167188049176,0.0008466208476322205,0.009813080290361237,-1.66429926942179e-07,-1.6642923907254655e-07,-4.133086736203756e-06
0.394,0.7853640008840334,0.000184266110756609,0.00013030026761541385,0.0001302913651502602,0.0004543619085615544,0.005745771412554789,0.017371730551545703,4.3388357968814484e-06,4.338865579122241e-06,1.5130251555099763e-05
0.42700000000000005,0.7853791311355885,3.809306157269819e-05,2.6936374799715045e-05,2.6935349498951226e-05,-0.00043005857112798424,-0.0043895810565738975,-0.02655917356425041,8.969607683453564e-07,8.969676510857956e-07,-1.4320950418561877e-05
0.461,0.7853648101851699,-7.710824291945934e-06,-5.452557996599182e-06,-5.452194288081253e-06,1.764611189470713e-05,-0.001375492068007331,0.013444585075756495,-1.8156467577017449e-07,-1.8156357548551446e-07,5.876155260937475e-07
0.49400000000000005,0.7853653978006959,-7.314346091720736e-06,-5.172193183068371e-06,-5.171854254181133e-06,0.00015222259634009014,1.1906252259014959e-05,0.0040413358692307205,-1.7222842465408152e-07,-1.7222835519149519e-07,5.069012458125002e-06
0.528,0.785370466813154,-5.481099843603612e-06,-3.8758302105711995e-06,-3.87561552200101e-06,0.00019219827579234245,5.505243988339711e-05,0.0012004708544219912,-1.290608574070852e-07,-1.2906228558722764e-07,6.4002025838850045e-06
0.561,0.785376867015738,-3.992184604536045e-06,-2.822960922548912e-06,-2.822840687402747e-06,0.00021238335643609233,4.4712169341368376e-05,0.0006061585778903868,-9.400144348045586e-08,-9.400375015973806e-08,7.072365769321875e-06
0.5940000000000001,0.7853839393815072,-2.7581488252702534e-06,-1.9503334788529155e-06,-1.950277996493106e-06,0.0002306006151414414,3.7058131509483225e-05,0.0005470648259864582,-6.494390521557748e-08,-6.494645690192859e-08,7.679000484209998e-06
0.628,0.7853916183819915,-1.5152495272477483e-06,-1.0714502284960537e-06,-1.0714362032712352e-06,0.0002304277070252814,3.732430324391907e-05,-5.1924359207202926e-06,-3.567808428760008e-08,-3.568003386462941e-08,7.673242643941871e-06
0.661,0.7853992916246353,-4.6167647954503767e-07,-3.264542010855003e-07,-3.264549377153413e-07,0.00023349019222944806,3.163883026134266e-05,9.19665226476474e-05,-1.0870556179496506e-08,-1.0871318129223843e-08,7.775223401240621e-06
0.6940000000000001,0.7854070668480364,5.941391567387401e-07,4.2011608616565044e-07,4.201235671978865e-07,0.00024060984670596885,3.170617526377711e-05,0.00021380343773335693,1.3989389499500137e-08,1.3990590932621186e-08,8.012307895308764e-06
0.7270000000000001,0.7854150791559319,1.64255846908106e-06,1.1614445847680047e-06,1.1614838788648738e-06,0.00023059037653468437,3.1484063433703296e-05,-0.0003008849901286629,3.867479469489511e-08,3.8678723055329733e-08,7.678659538604991e-06
0.76,0.7854227578154704,2.7760133118964203e-06,1.962889559598687e-06,1.9629861142261314e-06,0.00022464153713721858,3.403768296742824e-05,-0.00017864382574972346,6.536201485744033e-08,6.536964489823109e-08,7.48056318666938e-06
0.795,0.7854302383786572,4.188570762130613e-06,2.9616717892446244e-06,2.9618617864728215e-06,0.00022181527726751124,4.2419142649675446e-05,-8.487266875998017e-05,9.862034446073686e-08,9.863332328448249e-08,7.386448733008125e-06
0.8280000000000001,0.7854376248273902,5.536731786963971e-06,3.914906095235824e-06,3.915215083014296e-06,0.00020243553233254506,4.048531606106179e-05,-0.0005819743223713566,1.3036201831738552e-07,1.3038101642286454e-07,6.741103226673751e-06
0.8610000000000001,0.7854443659306167,7.185165789256764e-06,5.080444707849367e-06,5.0809141883711395e-06,0.00018633113307528164,4.950252259137518e-05,-0.00048361559331121375,1.6917320295153351e-07,1.6920004758433687e-07,6.204826731406879e-06
0.895,0.7854505707573483,9.314641335058549e-06,6.586100865046908e-06,6.5867912215440455e-06,0.00017200089272381724,6.394821458864218e-05,-0.0004303375480920241,2.1930994387963276e-07,2.1934736160892248e-07,5.727629727703114e-06
0.927,0.7854562983870761,-0.00015254568850573425,-0.00010785981980683387,-0.00010787236139496455,0.0021899661840864303,-0.004860670565789573,0.060599558299177556,-3.5914931403101826e-06,-3.5923884484630324e-06,7.292587393007814e-05
0.9610000000000001,0.7855292242610061,9.914435727662156e-06,7.009645863792511e-06,7.011483485123557e-06,0.0001618774338320382,0.004878682409411303,-0.06090356607370546,2.3341356650350507e-07,2.3349003856898614e-07,5.3905185466068725e-06
0.9940000000000001,0.7855346147795527,8.49276420582432e-06,6.004471674774255e-06,6.006110535326873e-06,0.00019068390647922312,-4.269283849362872e-05,0.0008650592386542021,1.9994226568263644e-07,2.000101198808029e-07,6.3497740857581306e-06
1.028,0.7855409645536383,6.749430449369356e-06,4.7718864630027526e-06,4.773249519466305e-06,0.00020572386267162136,-5.2352365058707604e-05,0.0004516503361080552,1.5889850152531116e-07,1.5895452499491397e-07,6.850604626964992e-06
1.061,0.7855478151582653,5.499584384027044e-06,3.888211403327803e-06,3.889375332886474e-06,0.00022303164271914424,-3.7532914875144506e-05,0.0005197531545802664,1.294730694056537e-07,1.2952056745772718e-07,7.426953702547504e-06
1.094,0.7855552421119679,4.5944732228107895e-06,3.2482728170674482e-06,3.249293446432019e-06,0.0002447196150641891,-2.718051535183947e-05,0.0006512904608121581,1.0816379464124065e-07,1.0820516064772637e-07,8.149163181637498e-06
1.127,0.7855633912751496,3.6248699671126624e-06,2.5627465925176156e-06,2.563593606836838e-06,0.00024925369966762435,-2.9117214885829643e-05,0.00013615869679985747,8.533654365755622e-08,8.537058391849264e-08,8.300148198931891e-06
1.161,0.7855716914233486,2.972739089684647e-06,2.101679173827522e-06,2.102408700904458e-06,0.0002585320834076571,-1.9583509832673128e-05,0.0002786301423433255,6.998351271841846e-08,7.001261259488837e-08,8.609118377474983e-06
1.194,0.7855803005417259,2.5233241950360504e-06,1.7839346398912148e-06,1.7845845998020195e-06,0.00027415171936587864,-1.3495942782240142e-05,0.00046905813688353,5.9402967664162013e-08,5.9428722198226065e-08,9.12925225488376e-06
1.227,0.7855894297939807,2.034201888508992e-06,1.4381228061659176e-06,1.4386730405477876e-06,0.00027217252830501085,-1.468835755336512e-05,-5.943516699302701e-05,4.788783366942817e-08,4.790946733499889e-08,9.063345192556862e-06
1.26,0.7855984931391734,1.7087553969279566e-06,1.2080304513897088e-06,1.2085145572336294e-06,0.0002770294111898653,-9.773167915346403e-06,0.00014585233888451772,4.0226019891634925e-08,4.0244928288395215e-08,9.225079392622516e-06
1.295,0.7856077182185661,1.4875447210720728e-06,1.0516325156360118e-06,1.052073357350363e-06,0.000289575661625225,-6.642963238915428e-06,0.00037676427733813003,3.501814178285009e-08,3.5035263233233285e-08,9.642869532119995e-06
1.328,0.7856173610880981,1.2296579483288296e-06,8.693088606394067e-07,8.69690045189712e-07,0.00028438047864082265,-7.744347529827123e-06,-0.00015601150103310398,2.894697824242441e-08,2.8961684845509565e-08,9.469869938739396e-06
1.36,0.7856268309580369,1.057806693860337e-06,7.478112275742918e-07,7.481533061409056e-07,0.0002871021710066996,-5.160698332387166e-06,8.173250347978802e-05,2.4901246631862023e-08,2.4914371913679663e-08,9.560502294523098e-06
1.3940000000000001,0.7856363914603314,9.421945005000137e-07,6.6607338640903e-07,6.66390816781022e-07,0.0002981916138449892,-3.471837638448145e-06,0.0003330163014501389,2.2179467201144176e-08,2.2191590367693468e-08,9.929780741038142e-06
1.427,0.7856463212410725,7.958017841756831e-07,5.625771781486026e-07,5.628564633399496e-07,0.00029138423722201607,-4.396177667397316e-06,-0.00020442572441360825,1.873316624250054e-08,1.874377367175202e-08,9.703095099493135e-06
1.46,0.7856560243361718,0.033369929020300754,0.02359001780026165,0.023602186826716907,-0.00027240233675417553,1.0020760726281253,-0.01693052774703278,0.0007855275554672865,0.0007859728477596358,-9.070997813914046e-06
1.495,0.785646953338358,0.06840557267464581,0.04835800883188328,0.04838207679256596,4.490666627693624e-05,1.0521214310614129,0.009528798889823175,0.0016102721077436966,0.0016111727174162368,1.4953919870219769e-06
1.528,0.785648448730345,0.10008737715444917,0.07075474757109454,0.070790174189697,4.356814577372144e-05,0.9514055399340346,-4.01958109073512e-05,0.002356060594100808,0.0023573852620273595,1.4508192542649243e-06
1.56,0.7856498995495993,0.13345053125013373,0.09434001783642812,0.09438752738347025,4.3207295823255216e-05,1.0018965193899267,-1.0836334848835631e-05,0.0031414259454834743,0.0031432012584946627,1.4388029509143987e-06
1.594,0.7856513383525502,0.1715282200231292,0.12125805637810687,0.121319470934005,4.308278201294123e-05,1.1434741373271913,-3.739153462882435e-06,0.004037769060521075,0.004040062532478494,1.4346566410309431e-06
1.627,0.7856527730091912,0.20017665877774918,0.14151022922788253,0.1415823073102553,3.861872194555216e-05,0.8603134761147139,-0.00013405585787955158,0.00471214601965746,0.004714835368873145,1.286003440786887e-06
1.6600000000000001,0.7856540590126319,0.21801746537128583,0.1541221738494395,0.15420107241794065,0.006262723512252921,0.5357599577638633,0.18691005376298406,0.005131578697735824,0.0051355849389054745,0.00020854869295802229
1.695,0.7858626077055899,0.22462110431681231,0.1587573207289048,0.1589048571299315,0.00648243891081976,0.1983074758416362,0.006598060017022189,0.0052858886892156376,0.005292261034472606,0.00021586521573029803
1.727,0.7860784729213204,0.21801488683392206,0.15405489283031598,0.1542646455810524,1.2397346496231433e-05,-0.19838490939610368,-0.194295542472178,0.005129872606389636,0.0051371678056653675,4.128316383245068e-07
1.7610000000000001,0.7860788857529586,0.21801341484726913,0.15405378900200453,0.15426366761973911,1.8997603424070545e-06,-4.420380339125867e-05,-0.0003152428274421735,0.005129836754347503,0.005137134331308796,6.326201940215493e-08
1.794,0.7860789490149781,0.22461384533228537,0.15871780994750392,0.1589340628072656,0.00011267933515638154,0.19821112567616334,0.003326713958377612,0.005285134208381985,0.0052926729192696665,3.752221860707506e-06
1.828,0.7860827012368388,0.21801802901733608,0.1540564608870766,0.1542675203519932,9.81322673146459e-06,-0.19807256201048926,-0.003089072325072581,0.005129925042888467,0.005137263315364597,3.267804501577709e-07
1.8610000000000002,0.7860830280172889,0.20628056875012,0.14576245880083893,0.1459622507643902,0.013994304370889507,-0.35247628430078337,0.419954689013755,0.004852611175316299,0.004861819479258309,0.00046601033555062065
1.8940000000000001,0.7865490383528395,0.21243994435689745,0.1500447439873072,0.15039050754667044,0.00899395650901857,0.18496623443776145,-0.1501605964525807,0.004995589542422663,0.005008902064632908,0.0002994987517503184
1.927,0.7868485371045899,0.21837101007153523,0.15418750514910615,0.15463541410542705,0.03914021797518977,0.178110081520654,0.9052931371222581,0.005130931974876218,0.005152857950758811,0.0013033692585738194
1.96,0.7881519063631637,0.2177853539564016,0.1535728477386792,0.15442098573493046,0.031089353119637543,-0.017587270724733175,-0.24176771337994665,0.005111158610282712,0.005145018580488629,0.0010352754588839302
1.995,0.7891871818220476,0.22454939024701895,0.15817763636973553,0.15938087718666796,0.03168708393001355,0.20312421293145153,0.017949874185465675,0.00526435472843115,0.005310319295726909,0.0010551798948694514
2.028,0.7902423617169172,0.20735356146380535,0.14590913013929635,0.14732964804722093,0.02878797067020046,-0.5163912547511591,-0.08706045825264531,0.004856274311286278,0.004908551267870711,0.0009586394233176755
2.061,0.7912010011402346,0.2068422719147627,0.1454083948120629,0.1471058264279151,0.02253294207522867,-0.015354040511791072,-0.18783869654569937,0.004840114099521247,0.004900585535718847,0.0007503469711051148
2.095,0.7919513481113398,0.21325563393967706,0.14980308984806234,0.15177944419119113,0.022809833034735046,0.19259345420163224,0.008315043829020286,0.0049863710528863315,0.005056299275015196,0.0007595674400566771
2.128,0.7927109155513966,0.20710557819534378,0.14537093109601512,0.14751275508207856,0.04516768364021336,-0.184686358688687,0.6714069250894389,0.004837008398348786,0.0049159586699406834,0.0015040838652191052
2.161,0.7942149994166158,0.20706862155878183,0.14512299431935,0.14770487654116207,0.04555068703731923,-0.001109808905764165,0.011501603516692757,0.004828715705868514,0.004922380639907716,0.0015168378783427306
2.195,0.7957318372949583,0.21321413990217278,0.14919918421206993,0.15231504484021313,0.04700207266052043,0.1845501004021304,0.04358515384988584,0.004964209035777095,0.005076126136445082,0.0015651690195953305
2.227,0.7972970063145537,0.20674579684825148,0.14444153906810897,0.147920472910461,0.04581167343574781,-0.19424453615379275,-0.03574772446764621,0.004805996168389562,0.004929562982961358,0.0015255287254104023
2.261,0.7988225350399641,0.21797377519669095,0.1520478004159426,0.15618589264773966,0.06971530743077725,0.33717652698016426,0.7178268466975808,0.00505699374647787,0.005207014561548091,0.0023215197374448827
2.295,0.8011440547774091,0.22451238003948218,0.15623492306758588,0.1612341700913873,0.07342541755379517,0.19635449978352038,0.11141471840894647,0.005195892433055869,0.005375608922527332,0.002445066404541379
2.328,0.8035891211819504,0.19560285468527056,0.13577333020254964,0.14080511200498547,0.012239793844916204,-0.8681539145408895,-1.8374061173837526,0.004520155393913272,0.004689867237252986,0.00040758513503570963
2.361,0.803996706316986,0.20624910543535618,0.1431026605663938,0.14852717607126364,0.0548453608550266,0.31970722973230115,1.2794464567600718,0.004760650768320736,0.004950446745264122,0.001826350516472386
2.394,0.8058230568334585,0.21223368822270794,0.14697558897059057,0.15310556705541972,0.05511341669190873,0.17971720082137402,0.008049724831295173,0.0048894526253609105,0.005103050535066314,0.001835276775840561
2.427,0.8076583336092991,0.21774768058838156,0.15050558112132795,0.1573598501935968,0.022909335798604023,0.1655853563265353,-0.9670895163154565,0.005009679169385063,0.005242144660110775,0.0007628808820935141
2.46,0.8084212144913925,0.21780722528607696,0.15042661452905484,0.15751768481077624,0.023856837720332317,0.0017881290599218065,0.028453511163011837,0.005006964626146508,0.0052474784496126334,0.0007944326960870662
2.494,0.8092156471874797,0.22461146942713697,0.1549968095719988,0.1625616843561829,0.02399022864750059,0.20433165588768804,0.004005733548596796,0.005159068311616517,0.005415520092684151,0.0007988746139617698
2.527,0.8100145218014414,0.18417637066838274,0.12698738179050745,0.1333984271967605,0.0032530820737180503,-1.2142672299926194,-0.622737134347824,0.004228305796067651,0.004442523634000919,0.00010832763305481108
2.561,0.8101228494344962,0.20604662792750456,0.14205049232655415,0.14925438187898904,0.02200300803260878,0.6567644822559102,0.5630608396063282,0.004728310843241763,0.0049720454014775045,0.0007327001674858725
2.5940000000000003,0.8108555496019821,0.21326316005453866,0.1469124094459952,0.15458951900830806,0.015621851015876582,0.21671267648751058,-0.19162633683880476,0.0048906894166063425,0.005149250093231807,0.0005202076388286902
2.627,0.8113757572408109,0.20710215057834588,0.14259010765823832,0.15019774289977816,0.014601670142613045,-0.18501529958536858,-0.03063606226016627,0.004746884192074744,0.005002881574197343,0.00048623561574901445
2.661,0.8118619928565598,0.21809448640266263,0.15008142005153374,0.15824276398798237,-0.0037167817089987874,0.33010017490440674,-0.5501036592075624,0.004997879141347651,0.005269324832729472,-0.00012376883090965964
2.694,0.8117382240256502,0.22509330110603282,0.1549178575872708,0.16330171953589848,-0.004764381384084418,0.21017461571682242,-0.03145944970227118,0.005159032723312384,0.005437692933916978,-0.00015865390009001112
2.7270000000000003,0.81157957012556,0.21820671684016155,0.15020335963474415,0.15828178046951003,0.020121680394467066,-0.20680433230844655,0.7473291825390835,0.0049998473211356545,0.005272608763610884,0.0006700519571357533
2.761,0.8122496220826958,0.21787825474776987,0.14987133056923102,0.15814397922571188,0.0211707330959656,-0.009863726498248624,0.03150308412908512,0.0049887004036123905,0.005268103072854107,0.0007049854120956546
2.794,0.8129546074947915,0.2240058946336355,0.15397167076010362,0.16270023181900406,0.022776847628039956,0.18401320978575436,0.048231667629860524,0.005125038725776348,0.005420015537104976,0.0007584690260137306
2.827,0.8137130765208054,0.19529079823205478,0.13412657020935317,0.14194562000283276,0.01795379973009644,-0.8623152072546758,-0.14483627321151696,0.004464859554372174,0.004728258092561201,0.0005978615310122115
2.861,0.8143109380518174,0.20599831607165106,0.14139099799597793,0.14981285629096466,0.0225581787363714,0.32154708227015855,0.13826963982807683,0.004706296175737575,0.004990677390156194,0.0007511873519211677
2.895,0.8150621254037386,0.21229084577932297,0.14559398333776546,0.15449852820510226,0.021618788486897418,0.18896485608624358,-0.02820991740162106,0.004846272790777382,0.005146691229845018,0.0007199056566136841
2.927,0.8157820310603523,0.21776675312445612,0.14923535551940278,0.15859119593900942,-0.040811350989529684,0.16444166201601038,-1.874778963256069,0.004972965865709893,0.005277857692031922,-0.0013590179879513387
2.96,0.8144230130724011,0.2178716045326266,0.14952270420823713,0.15846449756294714,-0.0395433644955601,0.0031486909360506467,0.03807767249157916,0.00498242051965191,0.005273737637382061,-0.0013167940377021513
2.994,0.8131062190346989,0.22466058125363617,0.1543969320707014,0.16319915482739755,-0.041183144488313395,0.20387317480509187,-0.049242642425023936,0.00514497958847895,0.005431159189157276,-0.0013713987114608362
3.027,0.811734820323238,0.21822579595028593,0.15019191557068123,0.15831893921873402,-0.06351618712244636,-0.19323679589640336,-0.6706619409649539,0.0050068042948731555,0.005266877907574673,-0.002115089031177464
3.06,0.8096197312920606,0.21840764019144712,0.15065186941798522,0.1581325758180868,-0.06456111660088412,0.005460788022858518,-0.03137926361674959,0.005022205863874839,0.005260568864423608,-0.0021498851828094414
3.095,0.807469846109251,0.22518355868696238,0.15567587536163854,0.16270420072423522,-0.06698521928046104,0.20348103590135913,-0.07279587626357116,0.005189882590761482,0.0054124195022969435,-0.002230607802039353
3.128,0.8052392383072117,0.20706001377941843,0.14347991020549983,0.14928953303482018,0.042757707009145295,-0.5442505978241425,3.29558337206025,0.0047741908286649416,0.004974884587295941,0.0014238316434045384
3.16,0.8066630699506163,0.20697545589002025,0.14320869510317197,0.14943262357239284,0.03939127329676783,-0.002539275957903276,-0.10109410547680073,0.0047654350016685205,0.004979375763107994,0.0013117294007823689
3.195,0.8079747993513987,0.2130635940289451,0.1472192401251219,0.15402139603805973,0.04055337715974511,0.18282697113888396,0.034898013903221545,0.004898781974648757,0.005132368206857579,0.0013504274594195122
3.227,0.8093252268108182,0.20657039153441228,0.14253088588193571,0.14952014321953755,0.03985890953712252,-0.19499106590188608,-0.020854883562239926,0.004742823161586647,0.004982311605038249,0.00132730168758618
3.261,0.8106525284984043,0.21793809155567198,0.1501649391540663,0.15794778504234885,-0.01760295264143165,0.3413723730108017,-1.7255814468034283,0.005001875834277002,0.005258345556433345,-0.000586178322959674
3.295,0.8100663501754447,0.2244077315689057,0.15471799465009012,0.16254590772872976,-0.020904075214758615,0.19428348388089242,-0.09913281000981879,0.005153830247656152,0.005411139852997065,-0.0006961057046514619
3.328,0.8093702444707932,0.2174809212594323,0.15005192289940547,0.15742417713312742,-0.01970114205321263,-0.20801232160580768,0.036124118965344884,0.004998290875746318,0.0052407357736026765,-0.0006560480303719807
3.36,0.8087141964404212,0.21750154911398814,0.15016941049440383,0.15734062418443573,-0.017977896429244997,0.0006194550917669082,0.051749117836865845,0.005002052108712421,0.005238095831677186,-0.0005986639510938584
3.394,0.8081155324893273,0.22422033559384988,0.15490533269880566,0.16210828725050117,-0.018371956172860616,0.20176535975560772,-0.011833625934402977,0.005159836470872694,0.005396782675335447,-0.0006117861405562586
3.427,0.8075037463487711,0.21783676768670696,0.15059149144407682,0.15740095317640512,0.02320835332856139,-0.1916987359502379,1.248657942985646,0.0050125133107929865,0.005243539518661123,0.0007728381658410944
3.461,0.8082765845146122,0.21798595637556376,0.15057285245844693,0.1576251670244824,0.023657251618523563,0.004480140806510494,0.013480429127993151,0.005011850271453816,0.00525104303488457,0.0007877864788968347
3.494,0.809064370993509,0.22478534949994572,0.15514140732879989,0.16266406204768208,0.023856732756232846,0.20418597971117006,0.005990424555834319,0.00516389399842446,0.005418919861125284,0.0007944292007825538
3.527,0.8098588001942917,0.1950416745143543,0.1345008743549044,0.14124719322920917,0.011244830741791518,-0.893203453020763,-0.3787357962294693,0.004477857114380285,0.004704504458763763,0.00037445286370165756
3.56,0.8102332530579933,0.20629261057771478,0.14220357632667158,0.14944826549302329,0.015765484881280187,0.3378659478486628,0.1357553795642243,0.004733923048091471,0.004978012186387745,0.0005249906465466303
3.595,0.8107582437045399,0.21336373592269056,0.14699674287101427,0.15464812120488422,0.015219212106239227,0.21234610645572916,-0.016404587839067886,0.004893531689367134,0.005151169558195534,0.0005067997631377662
3.627,0.8112650434676777,0.2171212002525152,0.14950566926599618,0.15744735773082819,0.02331713841879362,0.11283676666140023,0.24318097034697872,0.004976345291353709,0.005245078744552849,0.0007764607093458276
3.66,0.8120415041770235,0.218352951441564,0.1502308399586973,0.1584572690934256,0.021729386084487066,0.036989525196660884,-0.04768025027947605,0.005000618969998407,0.00527858671189876,0.0007235885566134194
3.694,0.812765092733637,0.2247647029454121,0.1545241775526902,0.16322208870678018,0.022664959647531676,0.1925450902056485,0.028095302193531815,0.00514344021858959,0.005437391318821438,0.0007547431562628049
3.7270000000000003,0.8135198358898997,0.21782949521566788,0.1496368379461061,0.15829878620950782,0.03160368237782758,-0.20826449638871494,0.26843011202089806,0.004979973616433972,0.005274120167659307,0.0010524026231816586
3.76,0.8145722385130814,0.21739410931670833,0.1491714081214723,0.15813946302129045,0.0329261135394603,-0.013074651620407086,0.03971264749647808,0.004964361725575198,0.0052689153738393795,0.0010964395808640282
3.795,0.8156686780939455,0.22397343356924132,0.15350727607836573,0.16309388442181325,0.0349551741345283,0.1975773048808706,0.06093275060264246,0.005108467080058044,0.005434153613039925,0.0011640072986797924
3.827,0.8168326853926251,0.2174456911243673,0.14884887094365004,0.15851385493815476,-0.007792435378547487,-0.19602830164786875,-1.283711997389663,0.004957193708640672,0.005278017076174069,-0.00025948809810563136
3.8600000000000003,0.8165731972945196,0.21756475699593525,0.14897152549440623,0.1585620007396786,-0.008286320126032781,0.003575551698737484,-0.014831373798357179,0.004961321678301058,0.0052795791244722185,-0.00027593446019689164
3.894,0.8162972628343226,0.2243376015840621,0.1536541547592047,0.1634556827085671,-0.008831398434873117,0.20338872637017574,-0.016368717983193278,0.005117320212399306,0.005442475457024244,-0.00029408556788127486
3.927,0.8160031772664414,0.21791457941003267,0.14930156143638898,0.15873187352295573,-0.03135010751527752,-0.19288354876965255,-0.676237509922054,0.004974341502735772,0.005283324661081898,-0.0010439585802587414
3.9610000000000003,0.8149592186861827,0.21810545435551867,0.14959811030631834,0.15871482165319617,-0.032326600036508904,0.005731980344925002,-0.02932409973667828,0.0049843021742938315,0.0052826709236148805,-0.0010764757812157465
3.995,0.813882742904967,0.22490133196213336,0.15443547643676883,0.16349401437389058,-0.033756087233297566,0.20408040860704746,-0.04292754344710696,0.005145596812401108,0.005441613656221194,-0.001124077704868809
4.028,0.8127586652000982,0.1939061903133877,0.13331006878419802,0.14081205986208756,0.03475839923252101,-0.9307850344968661,2.0574920860606176,0.004436369734660553,0.004691742870965465,0.0011574546944429498
4.06,0.8139161198945412,0.1955745429523876,0.13429258155687163,0.14217912782763262,-0.023898880669501462,0.05010067984984662,-1.7614798769376117,0.0044736843297251,0.004732919342010128,-0.0007958327262943988
4.095,0.8131202871682466,0.2016073701612803,0.13855166040742936,0.146454665687686,-0.026006992001969896,0.18116598224903,-0.06330664662067369,0.00461573511615459,0.004875080529694563,-0.0008660328336655976
4.128,0.8122542543345811,0.19558715997649745,0.13453735739570535,0.14196491331541133,-0.02565094674163022,-0.18078709263612172,0.010692049860050335,0.0044819705803133105,0.004725652236222122,-0.0008541765264962865
4.161,0.8114000778080849,0.2162163375706176,0.14886142389648668,0.15681129139179287,0.030601702772250272,0.6194948226462504,1.6892687541705853,0.0049542670607737,0.005224489601517014,0.0010190367023159342
4.195,0.8124191145104006,0.2246125509997094,0.15447599796057745,0.16305816177266544,-0.029965300096401346,0.25213854141416825,-1.818828914974523,0.0051465959644722056,0.005427423956591984,-0.0009978444932101649
4.228,0.8114212700171904,0.2179539367043543,0.1500543826579048,0.15807466833772188,-0.01707146801595545,-0.1999583872479003,0.38720216457795475,0.004998148849029308,0.00526261597282564,-0.0005684798849313166
4.26,0.8108527901322593,0.21802177558195182,0.15019095355693757,0.15803851460186782,-0.0179181053164324,0.002037203531456732,-0.025424543557866355,0.005002770513901085,0.005261340369086808,-0.0005966729070371991
4.295,0.8102561172252221,0.2241516647654665,0.1545106358541961,0.16238975406429462,-0.015803257803649717,0.18408075626170195,0.0635089343177983,0.0051464644533556845,0.005406379280642568,-0.0005262484848615357
4.327,0.8097298687403605,0.217489805087767,0.15000142676646944,0.15748456205335934,0.0012272693192436242,-0.20005584617716213,0.511427240927728,0.004994782862318503,0.005244487976726895,4.086806833081269e-05
4.361,0.8097707368086914,0.217635704216972,0.15009561199657293,0.15759634199241926,0.0015205353077841855,0.004381355231381762,0.008806786442659496,0.004997893416018096,0.005248234810925969,5.063382574921338e-05
4.395,0.8098213706344406,0.2244175328404467,0.15476456965819993,0.16251509783618615,0.0011170866220292979,0.2036585172214618,-0.012115576148795422,0.005153396995546758,0.005412003368160032,3.719898451357562e-05
4.428,0.8098585696189541,0.21800295219554144,0.15033502381070957,0.15787548188938308,0.0006127701382724087,-0.19263004939655384,-0.01514463915185853,0.005005944778652456,0.005257454950499826,2.040524560447121e-05
4.46,0.8098789748645586,0.21817352233330184,0.1504494250849205,0.15800207700829966,-0.021976881151561253,0.005122226359171027,-0.6783679066016114,0.005011732712806,0.005259785974624798,-0.0007318301423469898
4.494,0.8091471447222115,0.22497850793613106,0.1552612441933204,0.1628166916649209,-0.02371491750847861,0.20435392200688335,-0.052193283991512164,0.005172176954098409,0.0054199091182586786,-0.0007897067530323377
4.527,0.8083574379691792,0.21853232971844108,0.15093748049528918,0.1580324527238113,-0.0013438809145705144,-0.19357892545615535,0.6718029007179607,0.005026177821909676,0.005262519144839358,-4.4751234455198134e-05
4.5600000000000005,0.808312686734724,0.21862392666605868,0.15100782029395088,0.15809193376309888,-0.0011165905105450715,0.002750659087615461,0.006825537658421707,0.005028500199246474,0.0052645189113364734,-3.718246400115088e-05
4.594,0.8082755042707228,0.22519506049507684,0.15555268571813607,0.16283788636940763,-0.001576346906254103,0.19733134621676174,-0.013806498369640584,0.005179883919099805,0.005422521212319226,-5.249235197826163e-05
4.628,0.8082230119187446,0.21830007725252337,0.15079828643116694,0.1578442287126185,0.036504435751712756,-0.20705655383043453,1.1435670467857915,0.005018229046771381,0.005259414330530628,0.0012155977105320348
4.66,0.8094386096292766,0.2180796742898687,0.15045424288876183,0.15786787239696584,0.03809007863817468,-0.0066187075872269924,0.04761690349735504,0.0050066329944044065,0.005260326510609544,0.001268399618651217
4.695,0.8107070092479279,0.22426938366890095,0.15451850660365193,0.1625447248242953,0.03892054091698322,0.1858771585294966,0.02493880717142771,0.005141794584741482,0.005416226629524087,0.0012960540125355414
4.728,0.8120030632604633,0.21738276488456437,0.14956939786057258,0.15774746176241172,0.04376476127575134,-0.20680536889899634,0.14547208284588933,0.004976673564577249,0.005256767389917184,0.0014573665504825197
4.761,0.813460429810946,0.21737158267195025,0.14933166118578578,0.15795714583646475,0.04471027710749897,-0.00033580218060418087,0.02839386882125015,0.004968668752500113,0.005263822061764713,0.0014888522276797157
4.7940000000000005,0.8149492820386257,0.2240512427826953,0.15367793519498488,0.16304003074912712,0.046495330558488236,0.20059039371606774,0.05360520873841647,0.005113107014419175,0.005433346079507622,0.0015482945075976583
4.828,0.8164975765462232,0.21761204189027247,0.1490158952915113,0.15858519390574602,0.04517655531949622,-0.19336939616885393,-0.03960286002979023,0.004958096517479038,0.005284766393133901,0.0015043792921392244
4.861,0.8180019558383624,0.2050014519134785,0.1401555374156919,0.14960621851498296,0.023425047308511304,-0.378696395699519,-0.6531984387683157,0.004665086192100812,0.004983846989488498,0.0007800540753734265
4.895,0.8187820099137361,0.21270373878567791,0.1453003125003255,0.15534059250792648,0.039241041992600256,0.23129990607205483,0.4749547953179865,0.004834963850020522,0.005176146750286584,0.0013067266983535887
4.927,0.8200887366120895,0.21801252741941157,0.14871862455152282,0.1594121476654238,0.08151635155274008,0.15942308209410383,1.2695288156198143,0.004944959662715755,0.005315288027221984,0.0027144945067062447
4.961,0.8228032311187957,0.2183173050787488,0.14849265407220216,0.16003867464910093,0.08105554730182703,0.009152482262379271,-0.013837965492884366,0.004937446869989966,0.005336103046905265,0.00269914972515084
4.994,0.8255023808439466,0.22510425525802583,0.15266297253698988,0.16542654729952122,0.08308541416910017,0.2038123176960067,0.06095696298117559,0.005075884280332765,0.00551588203804014,0.002766744291831036
5.028,0.8282691251357776,0.21853575801638628,0.14776339321013168,0.16100887291955235,0.04037257575679682,-0.19725216941860504,-1.2826678201892898,0.004916754322429997,0.0053650490932119835,0.0013444067727013342
5.061,0.8296135319084791,0.21849233874524193,0.14751748332614173,0.16117535234485159,0.038981770491658956,-0.0013038820163467255,-0.04176592387801396,0.004908686022820636,0.0053704734646854504,0.0012980929573722434
5.095,0.8309116248658512,0.2249782196595653,0.15168093734218704,0.1661568312414002,0.03952164708905033,0.1947711986283293,0.016212510432173394,0.005047166575612512,0.005536496169251984,0.001316070848065376
5.128,0.8322276957139167,0.21806311893119468,0.14680667723615679,0.1612430567710723,-0.0029647566769865283,-0.20766068253365227,-1.2758679809620677,0.004888766159702441,0.005369299271009735,-9.87263973436514e-05
5.16,0.8321289693165729,0.2177829347965328,0.1466339465927108,0.1610214035314464,-0.005013265364843371,-0.008413937977834282,-0.061516777413118395,0.004883196962586656,0.005361751773943798,-0.00016694173664928428
5.194,0.8319620275799237,0.2240328246182787,0.1508696679220097,0.16561717847960986,-0.002687067337355627,0.18768437903140844,0.06985579662125357,0.005024041067353543,0.005514978137259035,-8.947934233394239e-05
5.227,0.8318725482375898,0.2175281568350669,0.14650363993969248,0.16079546791026922,0.07371004783737531,-0.195335368865219,2.294207662904833,0.004871833924385114,0.005360617337885173,0.002454544592984598
5.26,0.8343270928305743,0.2174395735768924,0.14604902008320597,0.1610889564496465,0.07549376281987938,-0.0026601579031385204,0.053565014489611706,0.004856523255374658,0.005370515631495785,0.0025139423019019834
5.295,0.8368410351324763,0.22415927968314664,0.15014452905586362,0.16644519537271146,0.07816351129215221,0.2017929761637912,0.08017262679497991,0.004992427240179403,0.005549275534817099,0.0026028449260286687
5.327,0.839443880058505,0.21778453521621266,0.14545324576446458,0.1620908914033236,-0.04407684771645159,-0.19143376777579516,-3.670881651910024,0.004847390568771239,0.005394215699387437,-0.001467759028957838
5.36,0.8379761210295471,0.2179210093959232,0.1457822963030231,0.1619786665606173,-0.044762742577389464,0.004098323715031518,-0.020597443271407685,0.0048584068636468355,0.005390415402475191,-0.0014905993278270693
5.394,0.8364855217017202,0.22471378209912982,0.15057525168010952,0.16680340957776277,-0.046593361828566784,0.20398716826446264,-0.05497355108640602,0.0050182962914730065,0.005550812130957588,-0.0015515589488912741
5.428,0.8349339627528289,0.218315380030252,0.146539097770508,0.16182675298713395,-0.00040564075754623985,-0.19214420627260712,1.3870186507813975,0.0048796265266083955,0.00538894445166866,-1.3507837226289788e-05
5.46,0.8349204549156025,0.21845298039187222,0.14663364609194132,0.1619267688675193,1.331631705203973e-05,0.004132142991598243,0.012581293531479866,0.004882737293529657,0.0053923091135329145,4.4343335783292307e-07
5.495,0.8349208983489604,0.22520701375510171,0.151167126776862,0.16693321666618274,-0.0006898228556161411,0.20282382472160643,-0.02111529047051594,0.005033762237575553,0.005558969461295126,-2.29711010920175e-05
5.527,0.8348979272478684,0.21858567001605417,0.14672636224130317,0.16202181877698205,-0.025765463798658555,-0.19883915132274915,-0.7530222505418142,0.0048881398731931555,0.005393376629686171,-0.00085798994449533
5.561,0.8340399373033731,0.21844557635549403,0.14677119391096688,0.16179210879160127,-0.027152009893944777,-0.004207016833637903,-0.04163802087946613,0.0048897540327703945,0.005385613790755299,-0.0009041619294683611
5.594,0.8331357753739046,0.22481542494605872,0.1512015157137156,0.16637330597049513,-0.027690130575210935,0.19128674446140215,-0.01615978021820293,0.0050373977289695235,0.005538060231939963,-0.0009220813481545242
5.628,0.8322136940257502,0.1935634850375335,0.1303147878125726,0.14312539543085862,0.011949788124350652,-0.9384966939497058,1.1903879489357831,0.0043383908919016985,0.004767069224255836,0.0003979279445408768
5.66,0.832611621970291,0.20633492521494526,0.13885231684225696,0.15262416411235327,-0.03976426926819252,0.3835267320544068,-1.5529746964727678,0.0046269931881926865,0.0050794608374589495,-0.001324150166630811
5.694,0.8312874718036602,0.2122022786374799,0.1430084493139253,0.15677496765671847,-0.03734694064287206,0.17619679947551464,0.07259245121082457,0.004765269760886404,0.005217786927397824,-0.0012436531234076397
5.728,0.8300438186802525,0.21779190539358836,0.14697543520855902,0.16072191978763947,-0.07846339994915846,0.1678566593425966,-1.2347285076962882,0.0049011078794777485,0.0053457870564188655,-0.002612831218306977
5.761,0.8274309874619457,0.2175006966432838,0.14719779115018516,0.16012296312777954,-0.07480316044779385,-0.008745007516653325,0.10991710214308144,0.004908162412327684,0.0053261316366470576,-0.0024909452429115356
5.795,0.8249400422190339,0.2242757983896597,0.152193782466801,0.16473216541333802,-0.07738788563967254,0.20345650890017666,-0.07761937513149217,0.005074951024635462,0.00547919721230507,-0.0025770165918010957
5.828,0.8223630256272328,0.21786161339564922,0.14825299522885424,0.15963938109698575,-0.0756668861670669,-0.19261816798830253,0.05168166584401309,0.004943357433378941,0.005309914540574643,-0.0025197073093633283
5.861,0.8198433183178696,0.21807025396710814,0.14879713161738434,0.15941784494753986,-0.006298668747327961,0.00626548262639393,2.0831296522444127,0.004955341774678034,0.0053082433672233574,-0.00020974566928602111
5.894,0.8196335726485835,0.22483962885587178,0.15345058994141597,0.16433433953583038,-0.00612177468278246,0.2032845311941033,0.005312134070435472,0.005110298073496038,0.005471966090376375,-0.00020385509693665593
5.927,0.8194297175516468,0.2184253081976708,0.1491054277610021,0.15961574694702294,0.033722637431621294,-0.192622241988017,1.1965288923244368,0.004962065611610842,0.0053181401423338095,0.0011229638264729893
5.961,0.8205526813781199,0.21854931463588154,0.14901064077341755,0.15987379980506206,0.03421450795240924,0.0037239170633852113,0.014770886510148525,0.0049588604908341605,0.005326772036758477,0.0011393431148152278
5.995,0.8216920244929351,0.22516705966936817,0.15333496560905813,0.16488963909784565,0.03486547238861225,0.19873108208668583,0.0195484815676579,0.005102700750962905,0.005493941097906938,0.0011610202305407879
6.028,0.8228530447234759,0.21845526625777711,0.14857851365826102,0.1601472092634094,0.03296500751982102,-0.20155535770543723,-0.05707101708081774,0.004944576227742988,0.005335765093980686,0.00109773475041004
6.06,0.823950779473886,0.21826956804325848,0.1482764751509497,0.1601739406102018,-0.022621872185354917,-0.005576522958517627,-1.6692756668221,0.004939455033445048,0.005332080279217207,-0.0007533083437723188
6.095,0.8231974711301138,0.22460010884922543,0.15270110092293596,0.1647045314252381,-0.02540524086454439,0.19010633050951817,-0.0835846450207049,0.005087101411668304,0.005482662089057679,-0.0008459945207893283
6.127,0.8223514766093244,0.21756712367874909,0.14805443862984413,0.15942188214873712,-0.02406812848153893,-0.21120075587016054,0.04015352501517894,0.004932180314773699,0.005306920514679468,-0.0008014686784352465
6.161,0.8215500079308891,0.21738607484055958,0.14805885268051552,0.159170605569982,0.00011046703718931516,-0.005436902047732943,0.7260839495113587,0.004930190875390567,0.005300538287032987,3.678552338404195e-06
6.194,0.8215536864832275,0.2239787372556226,0.15254842677272448,0.16399832996646624,0.0013703126160807071,0.1979778503021925,0.037833200567309065,0.005079574009092234,0.005461412825799435,4.5631410115487554e-05
6.228,0.8215993178933431,0.21749846952988708,0.14812755031957128,0.15926020558873488,0.0017296452211151387,-0.1946026344064718,0.0107907689199529,0.004932335429977138,0.005303655014078634,5.7597185863134126e-05
6.261,0.821656915079206,0.18250604352309302,0.12428822622180298,0.1336446510156357,0.0042109304907304995,-1.0508236038076293,0.07451307115962044,0.004138352242985615,0.0044507813179591954,0.00014022398534132565
6.2940000000000005,0.8217971390645475,0.21265622902090456,0.14479893110853226,0.15574319019211705,-0.005516833808573941,0.9054109759102563,-0.29212505403316635,0.004822125034154711,0.0051859501040076505,-0.00018371056582551225
6.327,0.821613428498722,0.21789550362880739,0.14839569941498493,0.15955302221139236,0.05700025201121444,0.1573355738108957,1.8773899645582093,0.0049363716972980936,0.005317950510866868,0.001898108391973441
6.36,0.8235115368906955,0.2181632834260994,0.14827457976695704,0.1600308321236532,0.05623388320801986,0.008041435354114293,-0.02301407817401152,0.00493239091690835,0.005333794706321219,0.0018725883108270615
6.394,0.8253841252015224,0.22495783461487223,0.15258322066592733,0.16530090176954615,0.05752488144312568,0.20404057623942462,0.038768715768943696,0.005075580526209069,0.005509535627939594,0.0019155785520560853
6.427,0.8272997037535784,0.21850535224471346,0.1478988285665061,0.16084317041217994,0.055371845297582434,-0.1937682393441073,-0.06465574010640385,0.004919929234759922,0.0053607628725887615,0.0018438824484094953
6.461,0.8291435862019879,0.2185478404068538,0.14763070248660468,0.1611469336655565,0.0151691873647349,0.0012759207849950788,-1.2072870250104364,0.004914585677500182,0.0053675818925237795,0.0005051339392456722
6.495,0.8296487201412337,0.22516482734407833,0.1520166419411858,0.16610279963267904,0.013862803042762039,0.19870831643316933,-0.039230760419605416,0.005060711167046151,0.0055325434285537845,0.0004616313413239759
6.5280000000000005,0.8301103514825576,0.2183629618775666,0.14735008727770255,0.1611531411397155,0.012955285519534121,-0.20426022421957163,-0.02725277847531284,0.004905439008339228,0.005367605158102037,0.00043141100780048626
6.561,0.830541762490358,0.2181900979437318,0.14716395777530192,0.16108906968694192,0.10002467309909034,-0.005191109124168479,2.6146963237103966,0.0048914557013156725,0.005372564429448546,0.0033308216141997088
6.595,0.8338725841045579,0.2244193443399893,0.15081271805928137,0.16619135412398087,0.10496310829137881,0.18706445634406968,0.1483013571257798,0.005012215125024257,0.005543088069166784,0.0034952715061029147
6.628,0.8373678556106608,0.2175342431742006,0.14562188610452678,0.1616026399559502,0.04536413330657118,-0.20675979476843004,-1.7897590085527815,0.004844980636073249,0.00538517402712864,0.0015106256391088204
6.66,0.8388784812497696,0.21735742521202722,0.14525943194367047,0.16169090180404147,0.047438522590104566,-0.005309848713914851,0.062293972478480085,0.004832722465845809,0.005388270537289656,0.0015797028022504823
6.695,0.8404581840520201,0.22404446951659757,0.14946489874441354,0.16690167274265358,0.049547328799039676,0.2008121412783887,0.06332751378183513,0.004972426846548789,0.005562078491794251,0.0016499260490080213
6.727,0.8421081101010283,0.2175933264666738,0.14489355833933387,0.16233518557170082,0.007483327093789312,-0.19372801951723062,-1.2631832343919027,0.004824119546787188,0.005406507668457284,0.00024919479222318413
6.76,0.8423573048932513,0.2177648876384299,0.14496730999468058,0.16249930867878853,0.006665013158241056,0.005151987139823538,-0.024573992058506192,0.004826648371668385,0.0054119075882635035,0.00022194493816942717
6.7940000000000005,0.8425792498314207,0.22455295935144334,0.14944897368625004,0.1675978395374401,0.006451676525505197,0.20384599738779074,-0.006406505487563336,0.004975883658505022,0.0055816920330036615,0.00021484082829932306
6.828,0.8427940906597201,0.21812312109298068,0.14513468002412566,0.16283003595663112,-0.016342098588284202,-0.19308823598986968,-0.6844977511648467,0.004834297186328768,0.005421070067814934,-0.000544191882989864
6.861,0.8422498987767302,0.21830875673003325,0.14534686287804424,0.16288954145838783,-0.01737344611692889,0.005574643755332339,-0.030971397256597262,0.004841456470508482,0.005422966745479281,-0.0005785357556937321
6.894,0.8416713630210365,0.2250949602225637,0.14996216231163015,0.16786628902914913,-0.018469008938120448,0.20378989467058412,-0.032899784420166875,0.004995290830204267,0.005588561460571928,-0.000615017997639411
6.928,0.841056345023397,0.21858983896175244,0.1457285674637964,0.1629254501981646,-0.018740876552163256,-0.19534898681114904,-0.008164192613898143,0.004854291025982693,0.005424048679245943,-0.0006240711891870365
6.961,0.84043227383421,0.21857722012533742,0.14582179761702244,0.1628250733070935,-0.0024033371790306126,-0.0003789440364868649,0.4906167979919713,0.004855920004699675,0.00542202644806422,-8.003112806171941e-05
6.991,0.8403522427061483,0.22502607733843738,0.15013750891251731,0.16761701554397213,-0.0028253194688183597,0.19365937576876746,-0.012672140834466881,0.004999673999982224,0.005581561561195654,-9.408313831165138e-05
7.028,0.8402581595678367,0.21815314746805958,0.14556717437230499,0.16248382533496655,-0.00250643364078866,-0.20639429040173565,0.00957615099188287,0.004847450224759079,0.005410654654233822,-8.346424023826239e-05
7.061,0.8401746953275984,0.21777379362238164,0.14532758021682513,0.16218914765484752,-0.03033002528891944,-0.011392007377716014,-0.83554329273666,0.004841972909939398,0.005398599226320635,-0.0010099898421210174
7.095,0.8391647054854774,0.22407878994116867,0.14970358633352218,0.1667337408576323,-0.02903736983446688,0.18933922879240334,0.038818482115692464,0.004987646338248128,0.005549972312675001,-0.0009669444154877473
7.128,0.8381977610699897,0.21738660291549397,0.1453889786977215,0.1616136751651052,-0.01494091028349305,-0.20096657734758858,0.42331710363284775,0.004842630008052152,0.005380676195168214,-0.0004975323124403186
7.16,0.8377002287575493,0.2174593326036472,0.14551803751018036,0.16159536532837013,-0.014306107949503155,0.0021840747193159894,0.0190631331528497,0.00484687067249993,0.005380116771289001,-0.0004763933947184551
7.195,0.8372238353628308,0.22417105422351094,0.1500886861761081,0.16651140451515634,-0.014359534232988502,0.2015532017977101,-0.0016043928974578624,0.004999112277283338,0.005543784740173939,-0.0004781724899585172
7.227,0.8367456628728723,0.19546069406243105,0.13093571927839995,0.1451231213157136,-0.01404296965843052,-0.8621729778102069,0.009506443680419852,0.004361144137991022,0.004831711255917416,-0.0004676308896257364
7.26,0.8362780319832466,0.20669609792893112,0.1385338707600887,0.15340027233115766,-0.023022921707709323,0.3373995155105126,-0.26966822970807214,0.004614982244004232,0.005106598778795704,-0.0007666632928667206
7.295,0.8355113686903799,0.21287456608322242,0.14279594368144394,0.15787621528667997,-0.021941213290444163,0.18553958421295177,0.03248373625420902,0.004756867273524917,0.005255683209091315,-0.0007306424025717907
7.327,0.8347807262878081,0.2067733768438187,0.1388152829277176,0.15324994811448903,-0.02167183265198378,-0.18321889607818995,0.008089508662473915,0.0046242367480580655,0.0051016937126696985,-0.00072167202731106
7.36,0.8340590542604971,0.2181604016323733,0.14657649917127075,0.16158369574648582,-0.03302368568524071,0.34195269635299114,-0.34089648748519297,0.004883793504267209,0.005378198855135149,-0.0010996887333185156
7.394,0.8329593655271785,0.22518430287705485,0.15147900337653256,0.16661957207446434,-0.03263319119830856,0.21092796530575228,0.011726561169133499,0.005047097982717149,0.005545841465779305,-0.0010866852669036752
7.428,0.8318726802602747,0.21861198962145553,0.1472335721460079,0.1615966498395857,-0.002164586501936301,-0.19736676443241186,0.9149731140051729,0.004902910297191,0.0053811389675036386,-7.208073051447884e-05
7.461,0.8318005995297604,0.21849738846985509,0.14716803062679806,0.16150132980745574,-0.0022686298256945655,-0.003441476024037428,-0.0031244241368848166,0.004900737061774186,0.005377956333795215,-7.554537319562905e-05
7.495,0.8317250541565647,0.224875212571473,0.15147634458415557,0.16620402600565168,-0.0023880977416789293,0.1915262492978352,-0.003587625104635547,0.005044216137972016,0.005534544972458848,-7.952365479790835e-05
7.5280000000000005,0.8316455305017668,0.20648122518043424,0.13909825744089527,0.15259807052816765,-0.032580550527859305,-0.5523719937248875,-0.9066802638492605,0.004634575092569843,0.005079141239787964,-0.001084932332577715
7.561,0.830560598169189,0.20634893801474263,0.13917451146174845,0.15234939966798608,-0.0021753578616043696,-0.003972587558306547,0.9130688488364844,0.004634542635335492,0.005073206318815582,-7.243941679142551e-05
7.595,0.8304881587523977,0.21223460747058873,0.14315552219167496,0.1566844761749668,-8.81457576518841e-05,0.17674683050588866,0.0626790421607353,0.0047669298631333205,0.005217729210898331,-2.935253729807741e-06
7.628,0.8304852234986678,0.20592709593672856,0.13890145443813806,0.15202748039714553,0.0014547825059882666,-0.18941476077658154,0.04633418209129581,0.004625143776219966,0.005062766025431039,4.8444257449409284e-05
7.661,0.8305336677561171,0.2176649104451649,0.14681103230605838,0.1607001370015942,0.04782830666481117,0.3524869221752652,1.3925983230877748,0.004884383021057946,0.005355352135825877,0.0015926826119382121
7.695,0.8321263503680554,0.22423322858997582,0.15097738423191645,0.16579013919522664,0.04869954235056475,0.19724679113546337,0.026163233806413718,0.005022902245183887,0.005525036625044304,0.0016216947602738063
7.728,0.8337480451283292,0.2178127597178431,0.14639309413891702,0.16128068788400254,0.046910334487267814,-0.19280687303701835,-0.05372996586477281,0.0048705318774115635,0.0053745985505467215,0.0015621141384260183
7.761,0.8353101592667553,0.21798574589383746,0.1462570414665351,0.161637443788093,0.024372088372031645,0.005194780059890212,-0.6768242076647497,0.0048680130466104456,0.005384648842058156,0.0008115905427886538
7.795,0.8361217498095439,0.22478983204453143,0.15068689986263134,0.16680505627947242,0.024057925820502597,0.2043269114322514,-0.009434310856728164,0.005015481385755184,0.0055567683762904226,0.0008011289298227366
7.828,0.8369228787393668,0.21835616424603765,0.14624426359812315,0.1621481724500318,0.02285856496846388,-0.19320323719200524,-0.036016842403565084,0.004867716268609839,0.005401533271278256,0.0007611902134498472
7.861,0.8376840689528166,0.2184926895776655,0.14621215642305663,0.16236089650221117,-0.016708808437277494,0.004099859808643686,-1.1882094115838249,0.004870206368545391,0.00540540930025768,-0.0005564033209613406
7.895,0.8371276656318553,0.22522667343405703,0.1508115403366115,0.16728100229096543,-0.018782267670143776,0.20222173742917535,-0.062266043029017455,0.005023598752921339,0.00556903736013541,-0.0006254495134157878
7.928,0.8365022161184394,0.19439412997210753,0.13025637965611989,0.14429952642504895,-0.039408129434130613,-0.9259022060645493,-0.6193952481677728,0.004340544876819883,0.004802457142386118,-0.0013122907101565495
7.961,0.8351899254082829,0.2061121182583222,0.1383088326658364,0.15281646540718796,-0.018843545087886358,0.3518915401265668,0.6175550854728005,0.004607127635422931,0.005087481305370286,-0.0006274900514266158
7.994,0.8345624353568563,0.21288270529362388,0.142951158866099,0.15774667157176805,-0.028528018238610956,0.2033209319910412,-0.2908250195412792,0.004762610309673937,0.005250845304719465,-0.0009499830073457449
8.027,0.8336124523495104,0.2063223648546065,0.1386910532813959,0.15275375602221497,-0.02845730859419699,-0.19700722039091217,0.0021234127451641225,0.004620668846499983,0.005084649803555611,-0.0009476283761867599
8.061,0.8326648239733236,0.21791225677614623,0.14663466312923118,0.1611956178754559,0.024812093882609076,0.34804480244864033,1.599681756060242,0.004880554912945076,0.005369977271544246,0.0008262427262908823
8.094,0.8334910666996146,0.22409702841255127,0.1506594204332774,0.16589519938215444,0.0249553189160439,0.18572887797012147,0.004301052055099839,0.005014496782076697,0.005526544665172028,0.000831012119904262
8.127,0.8343220788195188,0.21744741321296338,0.14605509351047574,0.1610940320826797,-0.005510124342286078,-0.19968814413176872,-0.9148781759258251,0.004863965659095775,0.00536413109556462,-0.0001834871405981264
8.16,0.8341385916789207,0.21757377137866962,0.14616953917147765,0.16116082591726646,-0.005897503123798832,0.0037945395106981188,-0.01163299644182446,0.00486781144798541,0.005366323697386178,-0.00019638685402250113
8.194,0.8339422048248983,0.22433736308170718,0.15074605908707145,0.16614113922858148,-0.0063111296265653235,0.2031108619530798,-0.012421216299294024,0.005020258963219081,0.005532123166848006,-0.0002101606165646253
8.228,0.8337320442083336,0.21792298383114977,0.14646975826808922,0.16135996032088967,-0.006562357926654528,-0.1926240015182404,-0.007544393396072204,0.004877868671411076,0.00537290019263032,-0.0002185265189575958
8.261,0.833513517689376,0.21813197781094712,0.14664551843649465,0.1614826667670783,0.03486184090360765,0.00627609548940976,1.243969934842708,0.004880011806555199,0.00538035264889398,0.001160899302090135
8.295,0.8346744169914662,0.22490030052699483,0.15100233502127186,0.16666865330726166,0.036408927310162875,0.20325293441584727,0.046459051247904594,0.005024845267584661,0.005553263936799223,0.001212417279428424
8.327,0.8358868342708946,0.21845208432585989,0.1464764941298283,0.1620677321793175,0.027558822825728573,-0.19364012616020865,-0.26576890343646553,0.004875028065298467,0.00539923925969966,0.0009177088000967616
8.36,0.8368045430709913,0.21856137707691453,0.1464009100211512,0.1622832372573829,0.026598910501434307,0.0032820645962356146,-0.02882619592475271,0.004872594025798286,0.005406336484439086,0.0008857437196977625
8.395,0.837690286790689,0.225137892170483,0.15065798991024976,0.16729985226284905,0.02650466172446728,0.19749294575280668,-0.0028302936026134255,0.005014284513171109,0.005573448911490943,0.0008826052354247605
8.427,0.838572892026114,0.21844696675773032,0.14603722173626296,0.1624567854945016,-0.0019205121399096597,-0.20092869107365402,-0.8536088247560641,0.004863050016423176,0.005409801487213824,-6.395305425899167e-05
8.46,0.8385089389718549,0.21820194844745133,0.14588379856749137,0.16226523848866653,-0.0024061490786606698,-0.007357907215585065,-0.014583691854384686,0.004857984703152554,0.0054033837005553285,-8.012476431940031e-05
8.495,0.8384288142075355,0.22445104874504793,0.1500751478320954,0.16690033938229903,-0.0028466946641898267,0.18766066959749528,-0.013229597163037744,0.004997598947942979,0.005557694501699097,-9.479493231752124e-05
8.527,0.838334019275218,0.19481326008061606,0.13027210627281072,0.1448495240947766,-0.029740304551391435,-0.8900236836165726,-0.8076159125285768,0.004340304121928379,0.004821470599001892,-0.0009903521415613348
8.561,0.8373436671336567,0.20601435271134455,0.13791393692261272,0.1530413654068072,-0.014563578170534441,0.3363691480699247,0.45575754897468446,0.00459361667614933,0.00509530160017878,-0.0004849671530787969
8.595,0.8368586999805778,0.2121954496089667,0.14212823125664945,0.1575641923617416,-0.014164952670590255,0.1856185254541183,0.011970735734059651,0.004733949855559902,0.005245913340597695,-0.0004716929239306555
8.628,0.8363870070566473,0.21765394385476666,0.1458605410199552,0.16154857427071245,0.04513485510271709,0.16391874612011925,1.7807750082074276,0.004852949811043561,0.005383361360964258,0.0015029906749204794
8.66,0.8378899977315677,0.21767939271192244,0.14563459647611357,0.16178653318700828,0.044267036078863856,0.000764229944617846,-0.02606063134694407,0.004845497584382124,0.005391209515946277,0.0014740923014261666
8.694,0.8393640900329938,0.22445901763061424,0.14992430707101756,0.16704655861458395,0.04526461624986577,0.20359233990065467,0.029957362492549905,0.004988118053329964,0.005566560698986165,0.0015073117211205302
8.728,0.8408714017541143,0.19527591261605834,0.13021265170078666,0.1455243875956332,-0.023322914051436435,-0.8763695199566335,-2.0596855946336996,0.004337817208383246,0.004844408068837747,-0.0007766530379128333
8.76,0.8400947487162016,0.20655608018480232,0.13785393100255197,0.1538236261711904,0.036848087698157776,0.3387437708331524,1.8069369894773033,0.004587238190407452,0.005125279608819626,0.001227041320348654
8.795,0.8413217900365502,0.2131635957346608,0.14206884295045,0.15891872894423198,0.03750526371989901,0.1984238903861403,0.01973501566790499,0.004727427582107046,0.005295088527638037,0.0012489252818726373
8.827,0.8425707153184228,0.20703843706954791,0.137793677547684,0.15452448625407575,0.03582734083112287,-0.1839386986520382,-0.05038807473802226,0.004585304249360814,0.0051485390411874785,0.0011930504496763918
8.86,0.8437637657680992,0.21820618487824925,0.14503192838019013,0.16303275397736522,0.09778981043383493,0.33536780206310307,1.860734822904266,0.00482055193527526,0.005436989362883869,0.0032564006874467037
8.895,0.8470201664555459,0.2251200019190271,0.14907872071346503,0.16868476604145222,0.10031576407916727,0.20762213335669194,0.075854463823794,0.004954761068556672,0.005625632740458663,0.0033405149438362706
8.928,0.8503606813993823,0.21832305196105245,0.14403036565785898,0.1640737906737449,0.042300483624862495,-0.20411261135058978,-1.7422006142433866,0.00479219734645599,0.005467177317647498,0.0014086061047079211
8.96,0.85176928750409,0.21803803054915857,0.1436113773261654,0.16406204639781122,0.04041854357395914,-0.00855920155837467,-0.05651471624334403,0.004778416656744143,0.005466626301417049,0.0013459375010128395
8.995000000000001,0.8531152250051028,0.2243268013161564,0.1475261743653196,0.16899272666559242,0.04140150187218342,0.18885197498491965,0.02951826721394248,0.004908571753878091,0.005630989860894119,0.0013786700123437081
9.027,0.8544938950174465,0.21742336760584224,0.14276025226283728,0.16398911901378174,0.043165764307730885,-0.2073103216310557,0.05298085392034419,0.004749825914942413,0.00546439510621543,0.0014374199514474385
9.06,0.8559313149688941,0.21741605037446937,0.14251958707018295,0.16418863012333818,0.0019265247764644678,-0.00021973667786402373,-1.238415601539532,0.004745562675715471,0.005467776120931635,6.415327505626678e-05
9.095,0.8559954682439503,0.2240618150607893,0.14686513320175149,0.16921681245658526,0.0022738962435069204,0.19957251310270016,0.010431575586860439,0.004890226369610375,0.0056352518629248505,7.572074490878045e-05
9.128,0.8560711889888591,0.18413231580333597,0.12068213262444234,0.13907024336038235,-0.03075555790474235,-1.1990840617853848,-0.9918754999474255,0.004020946768890702,0.004629101139565234,-0.0010241600782279203
9.16,0.8550470289106312,0.20638326672168952,0.13542519572298936,0.15573717971668188,-0.003985508785760412,0.6681967242748814,0.8039053789484065,0.004509847416758896,0.00518588424460742,-0.00013271744256582174
9.195,0.8549143114680653,0.21270428734536515,0.13959424299393622,0.16048850793140784,-0.0036719122705702826,0.18982043914941804,0.009417312768472356,0.00464865453555512,0.0053441227034353445,-0.00012227467860999043
9.227,0.8547920367894555,0.21797350350853456,0.14307244959553747,0.1644467159858096,0.038153008753949745,0.15823471961469715,1.2560036343699705,0.004760668089988712,0.005479243649422112,0.0012704951915065267
9.26,0.8560625319809619,0.2182755249090731,0.14306135519322033,0.1648564630962664,0.03783296802981737,0.009069711727883857,-0.009610832556527709,0.004760318844187765,0.005492862618524583,0.0012598378353929187
9.295,0.8573223698163549,0.225061309437117,0.147294603359081,0.17016724957182783,0.038406871355596624,0.20377731315447156,0.017234334107485025,0.004901115068879965,0.005669851610341328,0.0012789488161413676
9.327,0.8586013186324962,0.21853333925587812,0.14281084006180886,0.16541428090453733,0.028804811669853343,-0.1960351405777441,-0.2883501407130114,0.004752792984273751,0.005510718222184528,0.0009592002286061164
9.36,0.8595605188611024,0.21848704007057773,0.1426218862318433,0.16551611476370934,0.02752371510103721,-0.0013903659249365102,-0.038471368432916875,0.004746616726657835,0.0055140048555334855,0.0009165397128645392
9.394,0.860477058573967,0.22501481055429476,0.14672672579957652,0.17059581737229393,0.027063221965209817,0.19602914365516597,-0.013828622697519331,0.004883268845380046,0.005683188238218737,0.000901205291441487
9.427,0.8613782638654083,0.2068069461469146,0.13471246094823913,0.15691292438764243,-0.0031866706084875264,-0.5467827149363407,-0.9084051823933136,0.004486045275534982,0.005225097073531012,-0.00010611613126263464
9.46,0.8612721477341457,0.2065915667137004,0.13458879732842777,0.15673522600522427,-0.0010423416872932215,-0.006467850847273341,0.06439426189772687,0.004481740798994422,0.005219339829679622,-3.470997818686428e-05
9.494,0.8612374377559588,0.2124081126109288,0.13838371244030465,0.16114327300317594,-0.0026331895102929773,0.17467104796481622,-0.04777320789789056,0.004608251744845546,0.005366007335204203,-8.768521069275615e-05
9.527,0.8611497525452662,0.218521197751185,0.14238091842356285,0.16576847690521634,0.003091646438437425,0.18357613033802442,0.17191699545736944,0.004740834648830928,0.0055204767001771245,0.00010295182639996625
9.56,0.8612527043716661,0.21749347545519046,0.14169430316559745,0.16500344334586872,0.010525486726250362,-0.030862531411247538,0.22323844708146956,0.004717292244062425,0.005495583111076297,0.0003504987079841371
9.594,0.8616032030796502,0.2241282863429189,0.14595719349439157,0.17008817244668778,0.012681680115463318,0.19924357020205516,0.0647505522286173,0.004859008341189072,0.0056651081578562345,0.0004222999478449285
9.627,0.8620255030274951,0.21771228743287027,0.14170917138889022,0.1652790090832071,-0.058871193641081024,-0.19267263994140016,-2.148734947643974,0.004724142089599856,0.005499303838097347,-0.0019604107482479984
9.66,0.8600650922792472,0.21785340165409797,0.14212497486213005,0.16510783183332234,-0.05973459805645168,0.004237664301132149,-0.025928060521641427,0.004738061871808003,0.005493522344484443,-0.0019891621152798413
9.694,0.8580759301639673,0.22464466453295828,0.14689388848833748,0.1699629689900163,-0.06214971212643623,0.20394182819400328,-0.07252594804758404,0.0048972498684970705,0.005654848135701137,-0.002069585413810327
9.728,0.8560063447501569,0.21824510528094399,0.14305067898200344,0.16482545077104482,-0.018778950763918622,-0.19217895651694586,1.3024252661416698,0.00476513866537378,0.005487340821157359,-0.0006253390604384902
9.761,0.8553810056897185,0.21839155867311438,0.1432497861129447,0.16484650945127097,-0.018414821592766924,0.0043979997648768195,0.01093480994449544,0.004771735860942411,0.0054880691345676426,-0.0006132135590391386
9.795,0.8547677921306792,0.22515887816346594,0.14779287123082438,0.16986402688379745,-0.019773159044225944,0.20322280751806482,-0.04079091445822884,0.004923194683400963,0.005654999257487041,-0.000658446196172724
9.827,0.8541093459345067,0.21857896333684618,0.1435824032102222,0.16480551174577726,-0.0204061747171625,-0.19759503983843135,-0.019009479667764395,0.004782993529596782,0.005486542245980282,-0.0006795256180815113
9.86,0.8534298203164251,0.2184033958741127,0.1435789411278188,0.1645756087455208,0.03415564295421207,-0.005272296178182523,1.6384930231644013,0.004777896414644116,0.005483229084786375,0.001137382910375262
9.895,0.8545672032268004,0.22489164128228714,0.14765148805166559,0.16963280459501276,0.03617712248778278,0.19484220444968292,0.060705091098219456,0.004913221109829721,0.005651880196796537,0.0012046981788431665
9.928,0.8557719014056435,0.21789935851764555,0.1428626333038138,0.1645308434546589,0.023570308524500025,-0.2099784614006483,-0.37858300190038296,0.00475501045352808,0.0054808863088150325,0.0007848912738658509
9.961,0.8565567926795095,0.217667346573285,0.1425814726870751,0.16446761812174282,0.023847072966414955,-0.006967325656473457,0.008311244501949864,0.004745623445712805,0.005478798815162071,0.000794107529781618
9.994,0.8573509002092911,0.22398025020623896,0.14658225695539817,0.16935405052230382,0.027785151162457312,0.18957668567429353,0.11826060648775846,0.004878410083306573,0.005641893725224783,0.0009252455337098286
10.027,0.8582761457430008,0.21743479900613755,0.14214645785264957,0.16453655016069946,-0.012285040293219477,-0.19656009609914157,-1.2033090527230268,0.004734433128977768,0.00547824092889909,-0.0004090918417642086
10.06,0.8578670539012366,0.2175277387316591,0.14227454396898032,0.1645486896214237,-0.012468133457621043,0.0027909827483947693,-0.005498293225272245,0.00473871516774685,0.005478629981474567,-0.0004151888441387808
10.095,0.8574518650570979,0.2242531899659946,0.14674376001939868,0.16957524024837353,-0.012581695820461805,0.20196550253259807,-0.0034102811663892485,0.004887580455228651,0.005645978445183702,-0.00041897047082137815
10.128,0.8570328945862764,0.2178360282889713,0.14261358626776469,0.16466298986888447,-0.012573420071262767,-0.19270755786856764,0.0002485209969681133,0.004750015562125913,0.005482425847355997,-0.00041869488837305014
10.16,0.8566141996979035,0.2180552251466744,0.1428260911775226,0.1647688954041899,0.061975510212981366,0.006582488219311713,2.238706615142466,0.004750278756303772,0.0054918507627616485,0.0020637844900922796
10.195,0.8586779841879958,0.22481117426203306,0.14690033889668203,0.17017742066770838,0.06441372709470966,0.2028813548155759,0.07321972617802686,0.004885529508755162,0.005672296852374222,0.002144977112253832
10.227,0.8608229613002496,0.21837290381640972,0.1423384225075817,0.16560947617592447,0.06203895972208358,-0.1933414548235237,-0.07131433551429676,0.004734003843978137,0.005519829835941209,0.0020658973587453834
10.26,0.862888858658995,0.21848810530842355,0.14207089607215956,0.1659907004940892,0.022667462169193044,0.0034595042646795126,-1.1823272538405563,0.004728708198886321,0.005529417331647319,0.0007548264902341285
10.294,0.8636436851492291,0.22514235173987585,0.14626863771329723,0.17115654871625036,0.021220945349034258,0.1998272201637325,-0.043438943548311904,0.004868560221813343,0.005701379774884529,0.0007066574801228409
10.327,0.864350342629352,0.2070587856296781,0.13440898676939675,0.15750417449090398,-0.005167510141796289,-0.5430500333392713,-0.7924461108357521,0.004476113011104334,0.005244638306926154,-0.00017207808772181645
10.36,0.8641782645416299,0.20694498831149025,0.1343622031447283,0.1573944934022077,0.010224482185130281,-0.0034173368825184307,0.4622219917995966,0.004473211606370423,0.005242132547009108,0.00034047525676483836
10.394,0.864518739798395,0.2127755195941259,0.13809265811031532,0.161876000428037,0.009632965793210328,0.1750910295085785,-0.01776325501261121,0.004597458967673358,0.005391346329233252,0.00032077776091390394
10.427,0.8648395175593088,0.21800041304496642,0.1414304384154055,0.16589638687265665,0.07411980950406899,0.1569037072324478,1.9365418531789387,0.004702645179965262,0.005530297425590851,0.0024681896564854974
10.461,0.8673077072157943,0.21771020549600417,0.14083281424978497,0.16602364894073957,0.07322256010130909,-0.008714941410277817,-0.026944426509306233,0.004682821668314084,0.0055344401676202986,0.002438311251373593
10.495,0.8697460184671678,0.22403082041894373,0.144504505826749,0.1711965428779217,0.07701224291383862,0.18980825594413092,0.11380428866455052,0.004804513462894386,0.005707153110578394,0.0025645076890308265
10.527,0.8723105261561988,0.20630833052191888,0.13266839273647713,0.15799438221487874,0.04900400635152255,-0.53220690381456,-0.8410881850545366,0.004413404705481303,0.005264947730066481,0.0016318334115057011
10.561,0.8739423595677045,0.2061265502468453,0.13229372761267974,0.1580712635206265,0.05028918447563662,-0.005458867119326352,0.03859393766108321,0.004400813454961688,0.00526759146173504,0.0016746298430386996
10.595,0.8756169894107432,0.21252016015913236,0.1361240866685462,0.16320248620262318,0.05170882442886517,0.19200029766627763,0.042631830427283836,0.0045280875626869015,0.005438678718945725,0.0017219038534812105
10.628,0.8773388932642244,0.21790270632926387,0.13928338901318696,0.1675760334016134,-0.022690655241704622,0.1616380231270723,-2.2342186087258193,0.004640077117787342,0.0055786684373704395,-0.000755598819548764
10.66,0.8765832944446756,0.21810099522912588,0.13953683092620664,0.16762313961683936,-0.021817579874762873,0.0059546216174777514,0.026218479487740202,0.004648436167943101,0.0055803017227145256,-0.0007265254098296037
10.694,0.875856769034846,0.22489279233392534,0.14400762923059432,0.17273844611763112,-0.0231264794277982,0.20395787101499888,-0.039306292883943786,0.004797495812284224,0.005750487238079893,-0.0007701117649456802
10.727,0.8750866572699004,0.1833867824013296,0.11753815326036175,0.14076751929211628,0.0205670744013013,-1.2464267247025744,1.3121187336065914,0.003912274175069534,0.004689015835560378,0.0006848835775633333
10.76,0.8757715408474638,0.19549595663220876,0.12519648572056125,0.1501482901093574,0.0002950240513069982,0.3636388657921666,-0.6087702807806096,0.004168868266239155,0.00500008373057371,9.824300908523042e-06
10.794,0.8757813651483722,0.20151725001080875,0.12905102841168334,0.154774139047212,-0.002027649777710157,0.18081962097897883,-0.06974996483535,0.004297418474460236,0.00515396279591699,-6.752073759774824e-05
10.827,0.8757138444107744,0.21752160598107848,0.1393114489694612,0.16705678452136197,0.02200719774168445,0.48061129039849015,0.7217671927746127,0.0046368653387285266,0.005564829519221574,0.0007328396847980923
10.86,0.8764466840955725,0.21822992613249484,0.13964222973328805,0.1677031554113093,0.01627738585773863,0.021270875417908824,-0.1720664229413159,0.004648404775977792,0.005585914652437863,0.0005420369490626964
10.894,0.8769887210446352,0.2247310841347012,0.14370859797492208,0.17277702117017868,0.018400510236598715,0.1952299700362268,0.06375748885465723,0.00478356051002773,0.005755084220379683,0.0006127369908787373
10.927,0.8776014580355139,0.19429803147952301,0.12415604559300536,0.14945568366417283,0.06491698597812091,-0.9139054851404858,1.3968911634090748,0.004128864168427086,0.004981463113629491,0.0021617356330714266
10.96,0.8797631936685855,0.19483755472159164,0.12417652838385052,0.15013947691538024,0.06231398416675112,0.01620189916122009,-0.0781682225636574,0.004129737892061989,0.005004055266643069,0.002075055672752813
10.994,0.8818382493413383,0.20069635255381937,0.1275893461263864,0.15491928441433023,0.06626351850495052,0.17593987484167356,0.11860463478076265,0.004242875068360857,0.005163622961962325,0.0022065751662148523
11.027,0.8840448245075531,0.18353342154724675,0.1163654084212168,0.14192818095009457,0.0689338637180903,-0.5154033335307093,0.08019054694113435,0.0038693981390414195,0.004730767961091495,0.002295497661812407
11.061,0.8863403221693655,0.18316425130791872,0.1158058978289304,0.1419089038264539,0.07074256206748517,-0.011086193373214162,0.05431526574759374,0.003850624716419,0.004730219997287772,0.002355727316847256
11.094,0.8886960494862127,0.18883474258998847,0.11904609620070017,0.14658303786045934,0.07298631737088994,0.17028502348557825,0.06738003914128449,0.00395815261622845,0.004886146642354964,0.0024304443684506354
11.127,0.8911264938546634,0.2169696923958193,0.1363733191767581,0.16875474877777671,0.06176389413786381,0.8448933875624876,-0.3370097066974813,0.0045352804826477985,0.005624335426120318,0.002056737674790865
11.16,0.8931832315294543,0.21797169254634868,0.13665413593821976,0.16981550542426485,0.04790731557151155,0.03009009461049158,-0.41611347046102876,0.004545900239773951,0.005658620247837792,0.0015953136085313348
11.195,0.8947785451379856,0.22483766839695873,0.14067903646523658,0.17538924091686303,0.04992377323185468,0.20618546097928078,0.060554284094388185,0.004679579481046265,0.005844493552891031,0.001662461648620761
11.227,0.8964410067866064,0.2055629513181728,0.12835224891285724,0.16056720447728243,0.05384612192913249,-0.5788203326962746,0.11778824916750182,0.004269173231069574,0.005350845165719695,0.001793075860240112
11.261,0.8982340826468466,0.20693937631032785,0.1289216357112499,0.16187376968874007,0.04080072957232747,0.04133408384850052,-0.3917535242283789,0.004289265319299326,0.0053934401127468164,0.0013586642947585048
11.294,0.899592746941605,0.2132712480347509,0.13263955887523995,0.16700710362042087,0.039744271100488116,0.19014629803072186,-0.03172547963481548,0.004413048757570385,0.005564390297380465,0.0013234842276462543
11.327,0.9009162311692512,0.20690574976278175,0.1284661245595699,0.1621926142755703,0.037333410112854334,-0.19115610426333748,-0.07239822785687029,0.004274401297971955,0.005403800185784273,0.0012432025567580495
11.36,0.9021594337260093,0.2181651815505491,0.1352442999877657,0.17118710746374358,0.07710967954717891,0.33812107470772784,1.1944825655953326,0.004496140110003616,0.005706441540056355,0.002567752328921058
11.395,0.9047271860549303,0.22479242037631134,0.138899260084802,0.17674452694930842,0.07960250660829678,0.19901618095382112,0.07485967150504094,0.004617362364623941,0.005891854858919778,0.002650763470056283
11.428,0.9073779495249866,0.21791653092951266,0.13419599740117993,0.17169463804631688,0.04809980549814831,-0.20648316657053084,-0.9460270603648188,0.004463974130853265,0.005721141886992628,0.001601723523088339
11.46,0.9089796730480749,0.217623786201869,0.1337409114773239,0.171678422983354,0.04788916997045378,-0.008791132962271807,-0.0063253912220578865,0.004448840291791849,0.005720573736951482,0.001594709360016111
11.494,0.910574382408091,0.224037331012791,0.13740034116949676,0.17695726018968755,0.05281550697156068,0.1925989432709306,0.14793804808128813,0.004570070035542446,0.00589683449918009,0.0017587563821529707
11.528,0.912333138790244,0.20636381559441408,0.12627444364198087,0.16322006393085853,0.035120865501706434,-0.5307361987500575,-0.5313706147103375,0.004201596405479024,0.005437811953810429,0.0011695248212068245
11.561,0.9135026636114509,0.2061524166929684,0.12595430762389992,0.163200279715861,0.037003562455422495,-0.006348315358728818,0.05653744605753935,0.00419076581766719,0.005437277921701313,0.001232218629765569
11.594,0.9147348822412164,0.21254175525566057,0.1296506144726844,0.16841827660326086,0.03809473902888066,0.1918720289096746,0.03276806526901387,0.004313638569335331,0.005611195052322477,0.001268554809661726
11.627,0.916003437050878,0.21783851512429225,0.13266256257662573,0.17278386256291234,0.09676845971841731,0.15906185791686722,1.7619735942803798,0.00440821236459515,0.005760942754764797,0.0032223897086232967
11.661,0.9192258267595016,0.2181137136358033,0.13227198808915405,0.1734292744692888,0.0967872354345343,0.008264219564896697,0.0005638353188283426,0.0043951691753784375,0.005782414960072261,0.003223014939969992
11.695,0.9224488416994714,0.22489799904920368,0.13580916360741052,0.17926232469928316,0.09905884989961936,0.2037322946967078,0.06821665060315492,0.004512411903046866,0.005977019091621162,0.003298659701657325
11.727,0.9257475014011287,0.21838857009024837,0.131303387898311,0.17450784473051348,0.04185142183960395,-0.19547834711577522,-1.717940782583045,0.004368177470125981,0.005814287329122951,0.0013936523472588115
11.761,0.9271411537483876,0.21844219684139443,0.13109223985640375,0.17473356291887837,0.03905870014191064,0.0016104129473292214,-0.08386551644724656,0.004361411526972458,0.00582159589811473,0.0013006547147256244
11.794,0.9284418084631131,0.22498430107808984,0.13478412007518706,0.18014210142871692,0.03853325573041408,0.19645958668754973,-0.01577911145635312,0.004484281081730933,0.006001744599031218,0.001283157415822789
11.827,0.9297249658789359,0.2182929144926229,0.13055104509766047,0.17495205383645027,0.03550380973661939,-0.20094254010411247,-0.09097435416800873,0.004343729846355171,0.005828602363124597,0.0011822768642294258
11.86,0.9309072427431654,0.21794400416955437,0.13013577552731143,0.17482639640902042,-0.009085264812621547,-0.010477787479535261,-1.339011247724953,0.00433422710324357,0.005821193538299929,-0.00030253931826029756
11.895,0.9306047034249051,0.22442532655096176,0.1340602737198724,0.17998491661152807,-0.008908339030640562,0.19463430574796964,0.00531308654597552,0.004464916064592346,0.005992969568474126,-0.00029664768972033074
11.928,0.9303080557351847,0.17540105893495128,0.10481739441313734,0.14063728276649495,0.10245340640973703,-1.4722002287090232,3.3441965597710985,0.0034822827861714003,0.004689271127135501,0.0034116984334442435
11.96,0.933719754168629,0.1833779445767704,0.10908200798868321,0.14740619420620674,0.09284248346293374,0.23954611536994336,-0.28861630470880767,0.0036246896234251214,0.004914342403432663,0.0030916546993156936
11.994,0.9368114088679447,0.18905588752819402,0.11198914459980791,0.15231730072738445,0.09713984109131905,0.1705087973400488,0.1290497786301897,0.0037208759102959656,0.0050783005911164735,0.0032347567083409246
12.027,0.9400461655762854,0.20815421331783243,0.12275910196642037,0.16810228852208914,0.11370567993937204,0.5735232969861384,0.4974726380796693,0.004077102243228134,0.005605654427387248,0.0037863991419810894
12.06,0.9438325647182667,0.21775737999632644,0.12775579034499243,0.1763426623826204,0.12138210118379628,0.28838338373855876,0.2305231604932202,0.004242211843456772,0.005880919975748377,0.004042023969420416
12.094,0.947874588687687,0.2244205717864543,0.13092934421716565,0.18226930587408852,0.12694116768973748,0.20009584955338933,0.16693893411234853,0.00434692319403735,0.006078895389803498,0.004227140884068259
12.127,0.9521017295717553,0.21799454931148238,0.12643078414596381,0.17758626171456232,0.12294990862784196,-0.19297364789705482,-0.11985762948635216,0.004197849652677494,0.0059223506986744315,0.0040942319573071375
12.16,0.9561959615290626,0.18552925094283906,0.10698211512290128,0.151578131665624,0.15064998874576813,-0.9749338849442436,0.8318342377755606,0.003549676786248013,0.005056573100426345,0.005016644625234079
12.195,0.9612126061542965,0.20115645152242376,0.11516734038935217,0.16492544284232288,0.17181243117476447,0.469285302690231,0.6355087816515418,0.003819175415342439,0.005503072847813073,0.005721353958119658
12.227,0.9669339601124162,0.18390788437905697,0.10442767883765038,0.15138351901498767,0.11276469710675363,-0.5179749892902937,-1.7732052272675924,0.0034678171928873036,0.0050476924762279,0.003755064413654896
12.26,0.9706890245260711,0.18394301231452145,0.10387832690286021,0.15180357367072325,0.11337677493959984,0.0010548929568912782,0.018380715701087423,0.003449445528939626,0.005061680488334997,0.0037754466054886753
12.295,0.9744644711315598,0.18948269040036675,0.10641560706857418,0.1567782144737848,0.11433658429460536,0.16635669927463348,0.028823103753919426,0.0035335354910653867,0.005227554074237154,0.0038074082570103587
12.327,0.9782718793885701,0.2178362890394578,0.12165218171882146,0.18070250553197384,0.13422166640633396,0.8514594185913223,0.5971496129648227,0.004037375598552337,0.006026547803641815,0.0044695814913309215
12.36,0.982741460879901,0.21809949396136566,0.12098931597042359,0.18146342520522635,0.06999845759533205,0.007904051708945118,-1.9286248892192763,0.004021716325112899,0.006047542988777092,0.0023309486379245576
12.395,0.9850724095178256,0.22481355862603236,0.12427755932886564,0.18733986332161334,0.07080817933259209,0.20162356350350455,0.024315968085887207,0.004130896589130605,0.006243414759598791,0.002357912371775317
12.428,0.9874303218896009,0.2062426928725454,0.11360597510705737,0.1721328869893657,0.13734355185509814,-0.5576836562608696,1.9980592349100914,0.0037697855910841325,0.005740769377744121,0.004573540276774768
12.46,0.9920038621663757,0.20642274806466493,0.11291602561569938,0.17280139489518842,0.07299430425129623,0.005407062826412222,-1.9324098379520092,0.0037529335153397786,0.005758963343805951,0.002430710331568165
12.495,0.9944345724979439,0.21241388011911805,0.11576069185175807,0.17809862068320845,0.0787980874806634,0.17991387550910265,0.1742877846656808,0.003846867383844666,0.0059358502747091195,0.0026239763131060915
12.527,0.9970585488110498,0.21759943684829652,0.11810755843339878,0.1827569959197105,0.22778496625113778,0.1557224242996539,4.474080443557789,0.003909679735665356,0.006100783246084318,0.007585239376162889
12.56,1.0046437881872126,0.21769788220257782,0.11677072346484296,0.18373068893623792,0.22825082533041854,0.002956316945384423,0.013989762140563407,0.003864992009011794,0.006133066657369474,0.007600752483502938
12.595,1.0122445406707157,0.22440753707372346,0.1189267119655797,0.19030286355320722,0.23571529561506865,0.20149113727164072,0.2241582668063096,0.003935157300880571,0.006352681047665693,0.007849319343981786
12.628,1.0200938600146976,0.21795208158836793,0.11405126644382457,0.1857294227936498,0.2287741172781463,-0.1938575220827487,-0.20844379390157186,0.0037741259752721865,0.006199309789437727,0.0076181781053622725
12.66,1.0277120381200597,0.20667571428877318,0.10680566134612682,0.1769389769982608,0.18840023129351333,-0.3386296486364789,-1.2124290085475369,0.0035379453664196223,0.005903292150470992,0.006273727702073994
12.695,1.0339857658221339,0.21297876171347865,0.10891686416424065,0.18302204687314327,0.1951071117012055,0.18928070344460873,0.2014078200508163,0.0036069241345570136,0.006106481766881347,0.006497066819650144
12.728,1.0404828326417839,0.20671598560896715,0.10455773131684548,0.17832324449762868,0.18693413174327442,-0.18807135448983506,-0.24543483357150425,0.0034630891227166,0.005949066508142824,0.0062249065870510385
12.76,1.046707739228835,0.19528076438336658,0.09772320654636751,0.1690702571135678,0.1316380706309135,-0.3434000368048216,-1.6605423757465736,0.0032416633203815985,0.005637251300448827,0.004383547752009421
12.795,1.0510912869808444,0.20121800687749578,0.09992972044831219,0.17465032855071905,0.13447377563420232,0.17829557039427,0.08515630640506928,0.0033144520862611626,0.005823386616500503,0.004477976728618938
12.828,1.0555692637094634,0.2289177164935763,0.11279518676707269,0.19919981618167865,0.15347234504614116,0.83182311159401,0.5705276099681332,0.003738913615209006,0.00664303522798867,0.005110629090036501
12.861,1.0606798927994996,0.21836393542993934,0.10662249361048196,0.19056351212321168,0.13941976940744716,-0.31693036227138044,-0.4219992684292492,0.003535594827959228,0.006354090299177425,0.00464267832126799
12.894,1.0653225711207677,0.22472597213404905,0.10881726077706841,0.1966229038249839,0.14140405052376248,0.19105215327656763,0.05958802151097065,0.0036079891588179057,0.006556158191580949,0.004708754882441291
12.928,1.070031326003209,0.2065349683481453,0.09915676698416004,0.18117568465944422,0.1407519811445055,-0.5462763899670793,-0.01958166304075051,0.0032875880602885894,0.0060409650403581375,0.004687040972112033
12.96,1.074718366975321,0.20657237715045187,0.09832430892244305,0.18167134412590366,0.13476203234257905,0.0011233874566537855,-0.1798783424001933,0.0032604324872321016,0.006057079962723913,0.004487575677007883
12.994,1.079205942652329,0.21273674037177073,0.10041781308636899,0.1875451506143447,0.1420183328269447,0.18511601265221794,0.21790692145242196,0.0033289453998113757,0.00625323722487887,0.004729210483137259
13.028,1.0839351531354662,0.19504925427144934,0.09125459033745688,0.1723856471235103,0.07114624107834837,-0.5311557387483901,-2.1282910435013913,0.0030318024861224115,0.005744127413667751,0.002369169827909001
13.06,1.0863043229633753,0.19480134652123038,0.09073045850324536,0.17238198428570004,0.07473352138001824,-0.00744467718375261,0.1077261351852813,0.0030140059049598503,0.005744164134477743,0.0024886262619546076
13.094,1.0887929492253297,0.2007856850340721,0.09307525509042829,0.17790977546063425,0.07754044441873162,0.17970986525050206,0.08429198314454601,0.0030915758457721147,0.0059284832614780346,0.002582096799143763
13.127,1.0913750460244738,0.2067139983251923,0.09535009310038171,0.18340947862456872,-0.1256888855914827,0.1780274261597658,-6.102982883189618,0.0031877469657248646,0.006100968828319578,-0.004185439890196374
13.16,1.0871896061342774,0.20651146297905681,0.09602273110642232,0.18282948190216494,-0.12245186403469553,-0.006082142526591143,0.0972078545581731,0.0032097782463913083,0.006081782020886513,-0.0040776470723553615
13.194,1.0831119590619218,0.21286006185063858,0.09974228063859542,0.18804489725613227,-0.12815551027858432,0.19064861476221506,-0.17128066798464836,0.003334581578411647,0.0062548890147272355,-0.004267578492276858
13.227,1.078844380569645,0.21796201198193885,0.10295375844760804,0.19211445101482194,-0.06252267526684772,0.15321171565466277,1.9709560063584561,0.0034348253935765176,0.0063939408153044245,-0.0020820050863860295
13.26,1.0767623754832591,0.21810634918761995,0.10342196029293135,0.19202676293975102,-0.0647614140218746,0.004334450621054216,-0.0672293920428492,0.0034506517290745753,0.006390876339476663,-0.0021565550869284246
13.294,1.0746058203963305,0.22479328983733007,0.10701934727182494,0.1976837941395359,-0.06733577570806204,0.20080902851982343,-0.07730815874436749,0.003570924037100333,0.006578976607419809,-0.0022422813310784663
13.327,1.0723635390652522,0.1945901714245256,0.09302375210273382,0.17091493896016044,0.15558902447424597,-0.9070005529370716,6.694438443913152,0.003082761893518206,0.005699559307781666,0.005181114514992391
13.36,1.0775446535802446,0.20635269127798583,0.09770644201501373,0.18175501199811378,-0.05491141042655544,0.35322882442823555,-6.321334381405447,0.0032589746372439082,0.0060495616879115074,-0.0018285499672042963
13.394,1.07571610361304,0.2128836644975655,0.10114150663542038,0.187322850302437,-0.05952433736934816,0.19612532190929893,-0.13852633461840005,0.0033740049538633276,0.00623461018346509,-0.001982160434399294
13.427,1.0737339431786408,0.20657983803613714,0.098506660534893,0.18158102134667048,-0.055560097543774396,-0.18930409794079134,0.11904624100822112,0.003285682041844959,0.006043708732431544,-0.0018501512482076877
13.461,1.0718837919304334,0.18328435369010937,0.0876962323920296,0.16094261440601815,0.1763739785096096,-0.6995640944753082,6.964987268870389,0.0029043680721461923,0.005368021227604957,0.00587325348437
13.494,1.077757045414803,0.2010065570603846,0.09513748250660065,0.17706635875731985,-0.036163589212493574,0.5321982994076642,-6.382509541204299,0.0031714507026018536,0.005894495986064129,-0.001204247520776036
13.527,1.0765527978940272,0.1604296692819846,0.07610235555489012,0.1412306987341068,0.23857110307717813,-1.2185251585105101,8.250291059749902,0.002515359123414051,0.0047130746867168425,0.007944417732470033
13.56,1.084497215626497,0.1722951928638952,0.08052340870095112,0.15232076068345518,0.027456253614834114,0.3563220294868045,-6.339785269139459,0.0026789580043450317,0.005073586880298234,0.0009142932453739761
13.594,1.085411508871871,0.17729173651654578,0.08271524048558547,0.15681373928474523,0.03130533439057628,0.1500463559354532,0.11558801128354843,0.0027515383250346468,0.005223414897271817,0.0010424676352061902
13.627,1.0864539765070775,0.1719863341435814,0.08008138663658335,0.15220469981741588,0.03204882399677745,-0.15932139258151337,0.02232701520123641,0.0026638528509638254,0.0050699185289167495,0.0010672258390926892
13.66,1.0875212023461702,0.17207258318119723,0.0799589826242576,0.1523664496545867,-0.03654855034088559,0.002590061189664792,-2.059981211341232,0.002665568726038979,0.005072261267192648,-0.0012170667263514902
13.694,1.0863041356198186,0.17737019060191597,0.08261177211357026,0.15695693556646526,-0.03854155206307598,0.1590873099314939,-0.05984990156727903,0.0027541683932881555,0.005224981883092451,-0.0012834336837004303
13.727,1.0850207019361182,0.13754713303654978,0.06421998546697553,0.12163472889432429,0.29860206089334157,-1.1958876145755613,10.12443282151404,0.002118230838033803,0.004061065409394214,0.009943448627748276
13.761,1.094964150563866,0.14867824434895532,0.06810628291967556,0.1321618499021286,0.0228010423788414,0.3342676069791455,-8.282312868303308,0.002266136037282082,0.004401918226039148,0.0007592747112154187
13.794,1.0957234252750816,0.15369092993743236,0.07029873496083892,0.13667110085141795,0.021274842092746937,0.15053109875306406,-0.04583184042325713,0.0023391988487618466,0.0045520467493475655,0.0007084522416884731
13.827,1.0964318775167703,0.14918914211196438,0.0681455965098493,0.13271615500918008,-0.04043052905132648,-0.135188823587627,-1.853014148470673,0.0022720900414896074,0.004417987272374884,-0.0013463366174091718
13.861,1.095085540899361,0.1491608671741465,0.06831126622859247,0.13259915234415992,-0.04351645224020594,-0.0008490972317679793,-0.09267036603241635,0.0022778311040652557,0.004413970453277159,-0.0014490978595988581
13.894,1.0936364430397623,0.1536239449756372,0.0705530484310247,0.13646458817937746,-0.047036344395393385,0.13402636040512578,-0.10570246712274603,0.002352838012776124,0.0045424996274720875,-0.0015663102683665998
13.927,1.0920701327713958,0.13717665795808073,0.06319028232477317,0.12175559004934323,0.02592209868916599,-0.49391252304974353,2.1909442367735545,0.002102364441489858,0.004055431974324776,0.0008632058863492275
13.96,1.0929333386577447,0.13772215515701378,0.06333602332574484,0.12229448135698223,-0.04106928469964492,0.01638129726525653,-2.0117532549192467,0.0021117513952283256,0.0040710261734365795,-0.0013676071804981762
13.994,1.091565731477247,0.1419697222246889,0.06546175350617027,0.12597682666448112,-0.0440537968193846,0.12755456659685052,-0.08962498858077111,0.002182826717423253,0.004193493444481031,-0.0014669914340855073
14.028,1.0900987400431612,0.12557945707425322,0.0580676670675026,0.11134786069072848,0.0343405860660081,-0.49220015466773803,2.354185672234015,0.0019314214529640489,0.0037090465603277925,0.0011435415159980699
14.06,1.0912422815591594,0.12626191674169165,0.05825517390442889,0.11201966940073792,-0.03928296347878858,0.020494284307460486,-2.210917403747648,0.001942224572840112,0.003729043441112466,-0.00130812268384366
14.094,1.0899341588753158,0.13013128477170696,0.06019141145980778,0.11537393667033821,-0.04086756579064905,0.11619723813859782,-0.04758565501082478,0.0020068722879630074,0.0038406473061842867,-0.0013608899408286135
14.127,1.088573268934487,0.11481218902417437,0.053244138182129794,0.10171971538381835,-0.01690092175377178,-0.46003290533130914,0.7197190401464644,0.0017738811823322506,0.0033868206824376502,-0.0005628006944006003
14.16,1.0880104682400864,0.11483241738203928,0.05331076865639759,0.10170764979620231,-0.017427876362520876,0.0006074581941416032,-0.015824462725198073,0.0017761295862138485,0.0033864027545521093,-0.0005803482828719452
14.195,1.0874301199572143,0.11818416320120124,0.0549275508390548,0.10464444844515745,-0.015580781281614001,0.10065302760246136,0.0554683207479542,0.0018298867225001955,0.0034842404270332733,-0.0005188400166777463
14.227,1.0869112799405367,0.11459797769573189,0.05331346585796582,0.10144146514203635,-0.012948004282423377,-0.10769325842250307,0.07906237234806679,0.0017759651731582636,0.0033776712822704514,-0.0004311685426046985
14.26,1.086480111397932,0.11453889876316525,0.053329691922295,0.10136618415108521,-0.031007480177466667,-0.001774142119118291,-0.5423266034547534,0.0017775197694918626,0.0033746298709435097,-0.00103254908990964
14.295,1.0854475623080222,0.11800427449089945,0.05505098528871692,0.1043762320495668,-0.03135074220675007,0.10406533716919515,-0.010308169047549625,0.0018349074257829213,0.0034748260880958877,-0.0010439797154847773
14.327,1.0844035825925378,0.11454314343681198,0.053542050724670644,0.10125897744191809,-0.015963563757808424,-0.1039378694921164,0.4620774308991485,0.001783745196543521,0.003371503460077459,-0.0005315866731350206
14.36,1.0838719959194028,0.11458444637768836,0.053615197135044486,0.10126700345053988,-0.015293350430465733,0.001240328554846359,0.02012652634662734,0.0017861434107841203,0.00337179008702639,-0.000509268569334509
14.395,1.0833627273500679,0.11810153596570415,0.05531402608459072,0.10434716726280463,-0.015446217772889853,0.1056183059464201,-0.004590610883607193,0.0018427462930076116,0.0034743421411808305,-0.0005143590518372321
14.427,1.0828483682982308,0.11468866639830949,0.05376768856699447,0.10130412561384365,0.006033380859420461,-0.10248857559743717,0.6450329919612706,0.0017900238286233739,0.003373660977636861,0.00020091158261870137
14.46,1.0830492798808493,0.11473446792833775,0.053768798594091255,0.10135538677616898,0.006154878027006413,0.0013754213221698344,0.003648563591169729,0.001790053741533499,0.003375371600074858,0.00020495743829931356
14.494,1.083254237319149,0.11826249653907182,0.05540074929635125,0.10448337219412862,0.005708163356266616,0.10594680512714945,-0.01341485497717108,0.0018444097775703271,0.003479526997011839,0.0001900818397636783
14.527,1.0834443191589125,0.11479232114787727,0.05375584699949121,0.10142773736944288,0.0824882137517117,-0.10420947120704369,2.305707219082435,0.0017853271411256543,0.0033800515525575277,0.002746857517932
14.561,1.0861911766768446,0.11482152965637066,0.053490644053875075,0.10160085959936777,0.08289448933438534,0.000877132387188861,0.012200467948157448,0.0017764648948326446,0.0033858161274733178,0.002760386494835032
14.595,1.0889515631716795,0.11827834761839341,0.054811923183623025,0.10481135717206469,0.0837978251244193,0.1038083472078905,0.02712720090192072,0.0018202601196480141,0.0034928149579620104,0.002790467576643163
14.628,1.0917420307483225,0.12554031491775983,0.05786656965138818,0.11140839639107704,-0.12841761919706576,0.2180770960770695,-6.372836165810361,0.0019347719356574546,0.0037058262717529294,-0.00427630671926229
14.66,1.0874657240290606,0.1148639861513582,0.05338083637779122,0.10170654660437,-0.08864613289188121,-0.32061047346551413,1.19433892808362,0.0017824764560595446,0.0033842529770546055,-0.0029519162252996446
14.694,1.0845138078037606,0.11832204830687507,0.055296932289563144,0.10460571874853661,-0.09237932841875894,0.10384571037588171,-0.11210797378011202,0.0018466382447136567,0.003480588129874781,-0.003076231636344673
14.727,1.081437576167416,0.11474505917572773,0.053937062063718795,0.10127794400152386,-0.16857059621951273,-0.10741709102544539,-2.288026060082696,0.0018054593375115952,0.003367550928922486,-0.005613400854109774
14.76,1.0758241753133064,0.1147254039029358,0.05449538659695599,0.10095628331282834,-0.17155211132180337,-0.0005902484321902474,-0.08953498805677591,0.0018241882574189497,0.003356697349125063,-0.005712685307016053
14.794,1.0701114900062902,0.11822673909417314,0.056751959137919326,0.10371488307301716,-0.1778854551240528,0.10514520093805824,-0.19019050457205477,0.0018999547728711249,0.0034481451658051497,-0.005923585655630959
14.827,1.0641879043506592,0.12572858626309855,0.0610053286150063,0.10993646930974499,0.13001225087117985,0.22528069576352572,9.246177357214192,0.002023436311039601,0.0036653312962765514,0.0043294079540102896
14.861,1.0685173123046696,0.11484180578026229,0.05528763770438091,0.10065742631291842,0.08290544325381452,-0.32693034482991756,-1.4146188473683279,0.0018363483969289556,0.003354484562397918,0.002760751260352024
14.894,1.0712780635650219,0.11831538726472214,0.056673392223175044,0.10385883437396808,0.08560260600864711,0.1043117562900856,0.08099587852350114,0.0018821881288531186,0.00346124085058396,0.002850566780087949
14.928,1.0741286303451099,0.12565961454638808,0.05987661918679661,0.11047682654161534,0.2669462526670506,0.22054736581579384,5.445755154907011,0.0019774031817046066,0.0036877513565674236,0.008889310213812784
14.961,1.0830179405589226,0.11499482361676831,0.05389399445197594,0.10158369367502856,0.21590623785915172,-0.32026399188047333,-1.5327331774143798,0.0017823924364160795,0.0033892129038207287,0.007189677720709753
14.995000000000001,1.0902076182796323,0.11829148218274048,0.05468630326588271,0.1048917679901598,0.22344421148064036,0.09899875573489987,0.2263655742188781,0.0018079372807410336,0.0034996928565539523,0.007440692242305325
15.027,1.0976483105219375,0.09169037655561903,0.04178245262518028,0.08161710485882094,0.2707724163517451,-0.7988320008144579,1.4212674135466885,0.0013790020526256658,0.002724126867162103,0.009016721464513112
15.061,1.1066650319864506,0.05834500808731811,0.026117919111819758,0.0521727349290571,0.2709781992894301,-1.001362416465493,0.006179667798349202,0.0008618241050272149,0.0017412783718567327,0.009023574036338024
15.094,1.1156886060227889,0.02608102507163682,0.0114641511936624,0.023426333605500393,0.2791947125715739,-0.9688883788492878,0.24674214060491856,0.00037810093000030076,0.0007818716415128567,0.009297183928633412
15.127,1.124985789951422,8.056883640730686e-07,3.47404232356272e-07,7.269415652882196e-07,2.1923620076515427e-07,-0.7831897712694518,-8.384219019080275,1.1567833583197321e-08,2.4207501560861328e-08,7.3005654854796376e-09
15.16,1.1249857972519877,7.531436715361131e-05,3.247475162037484e-05,6.795325162892448e-05,0.00093163806810467,0.002237497861547695,0.02797053549260975,1.0813061751990068e-06,2.262892525484609e-06,3.1023547667885513e-05
15.194,1.1250168207996554,3.1138012202303353e-06,1.3425507062196458e-06,2.809504518653966e-06,3.1769901152276735e-05,-0.002168185163164594,-0.027023068076648442,4.4704079568524686e-08,9.35578665931532e-08,1.0579377083708154e-06
15.227,1.125017878737364,1.1309865664139858e-05,4.876366037717827e-06,1.0204612467266056e-05,0.00013170672386142546,0.00024612806137866433,0.003001105787061523,1.6237203937338536e-07,3.398188273381285e-07,4.385833904585468e-06
15.26,1.1250222645712684,1.4616323477591386e-05,6.3019218224157555e-06,1.3187975331556744e-05,0.00017394175110073493,9.929302743097683e-05,0.0012683191363155996,2.0983953699451847e-07,4.391664878573019e-07,5.792260311654474e-06
15.294,1.1250280568315802,1.6500797608367616e-05,7.114338720480363e-06,1.4888334570481153e-05,0.00019887808596360254,5.6590814738024915e-05,0.0007488388847707991,2.3689094952537433e-07,4.957894395993915e-07,6.622640262587965e-06
15.327,1.1250346794718427,1.7148845143521595e-05,7.393642721486604e-06,1.547310366615219e-05,0.00021031374807855605,1.9460886941560937e-05,0.0003434132767253306,2.461910254120381e-07,5.152626074378395e-07,7.003447811015917e-06
15.36,1.1250416829196537,1.817588348466096e-05,7.836330544361145e-06,1.6399837317713964e-05,0.00022816272884642886,3.0841992226407345e-05,0.0005360054284646488,2.609313328221971e-07,5.461234098579127e-07,7.597818870586082e-06
15.394,1.1250492807385242,1.9768858285777873e-05,8.522988435711075e-06,1.7837220244418795e-05,0.0002587743579778672,4.7837081114622e-05,0.0009192681420852356,2.837951186663831e-07,5.939891794492904e-07,8.617186120662979e-06
15.427,1.1250578979246448,2.0077711625077907e-05,8.655988901246072e-06,1.8115969757131228e-05,0.0002879462673744838,9.274875054055083e-06,0.0008760333152137113,2.882234224170823e-07,6.032718302987587e-07,9.588610703570312e-06
15.46,1.1250674865353485,2.718213479183432e-05,1.1718643026977797e-05,2.4526350267573737e-05,0.00024596025782252563,0.00021334604104373606,-0.0012608411276864315,3.902029420154343e-07,8.167407799190869e-07,8.190476585490105e-06
15.495,1.125075677011934,8.729838943200807e-05,3.763505455569629e-05,7.876935613557027e-05,-0.00045293324763246123,0.0018052929321373497,-0.02098779295660621,1.2531883296825648e-06,2.623047741755055e-06,-1.508267714616096e-05
15.528,1.125060594334788,0.00011925325616787504,5.1412683666616613e-05,0.00010760146404597495,-0.0009758589676954263,0.0009596056076836926,-0.015703475076965914,1.7119929854203083e-06,3.583152346525845e-06,-3.24961036242577e-05
15.561,1.1250280982311636,0.00015640426374842787,6.743388044868651e-05,0.0001411203935876032,-0.001613863485620752,0.0011156458732898746,-0.019159294832592363,2.24553337542604e-06,4.699316198656862e-06,-5.374165407117105e-05
15.594,1.1249743565770922,0.00018737698833578493,8.079689251666412e-05,0.000169062112601965,-0.0024565564785964658,0.000930111849470182,-0.025306095885156567,2.6905977280792305e-06,5.629739095589841e-06,-8.180333073726231e-05
15.627,1.124892553246355,0.00013179823318998861,5.684108005414324e-05,0.00011891116806373189,-0.0016935775174565881,-0.0016690316860599494,0.02291228111531164,1.8928007138347082e-06,3.959745362406114e-06,-5.639613133130439e-05
15.66,1.1248361571150238,7.156184987788005e-05,3.0866367749070385e-05,6.456288175045619e-05,-0.0010792455187874088,-0.0018089003997630196,0.018448408368443824,1.0278241176153583e-06,2.1499563578753337e-06,-3.593887577562072e-05
15.694,1.124800218239248,5.642242383642083e-05,2.433819420832991e-05,5.090326329671139e-05,-0.0007783039140501596,-0.0004546374186624391,0.00903728542754502,8.104329308704677e-07,1.695092502611586e-06,-2.5917520337870318e-05
15.727,1.1247743007189102,5.638777876034358e-05,2.43245682885076e-05,5.0871376736856495e-05,-0.0009967554686094468,-1.0403926749925281e-06,-0.0065601067435221375,8.099853674069385e-07,1.694027726304535e-06,-3.319195710469458e-05
15.761,1.1247411087618056,5.6344343175364964e-05,2.430751824597164e-05,5.083138365798291e-05,-0.000901666566043701,-1.3043719212797314e-06,0.002855522599571945,8.094149389640782e-07,1.6926972306577823e-06,-3.0025496649255248e-05
15.794,1.1247110832651566,5.61614031849214e-05,2.4230117359149664e-05,5.0665615761195813e-05,-0.000873300346208198,-5.493693406713558e-06,0.0008518384334985896,8.06836775471572e-07,1.6871775020626328e-06,-2.9080901528732996e-05
15.828,1.1246820023636275,5.500105833360718e-05,2.373094439977313e-05,4.961812870022141e-05,-0.0008813900076334193,-3.484519073015679e-05,-0.0002429327755321715,7.90215078757013e-07,1.652295819037909e-06,-2.9350287254192867e-05
15.86,1.1246526520763733,5.462347121247783e-05,2.3569475669932524e-05,4.9276804116590724e-05,-0.000833488442124468,-1.1338952586466945e-05,0.0014384854507192594,7.848370358346035e-07,1.6409302538070242e-06,-2.7755165122744787e-05
15.894,1.124624896911251,5.59085900765756e-05,2.4125391323138377e-05,5.0435463097467506e-05,-0.0008467371672524578,3.8592158081014085e-05,-0.0003978596134531493,8.033487743840977e-07,1.679513719661601e-06,-2.8196347669506847e-05
15.927,1.1245967005635813,5.4306953110419376e-05,2.3435642407249793e-05,4.898995632879053e-05,-0.0008126141758850095,-4.809720619087764e-05,0.0010247144554789292,7.803799754744506e-07,1.6313784217167702e-06,-2.706005205697082e-05
15.96,1.1245696405115244,5.4210781098003576e-05,2.339546361641539e-05,4.8902567104689354e-05,-0.0007911382625850509,-2.8880484208948865e-06,0.000644922321320079,7.790414874641865e-07,1.62846861704686e-06,-2.6344904144082195e-05
15.994,1.12454329560738,5.5857387811405104e-05,2.4107408531420313e-05,5.0387306209132774e-05,-0.0008052757267973686,4.9447649051096935e-05,-0.0004245484748443779,8.027488146381165e-07,1.6779106398982594e-06,-2.6815681702352377e-05
16.028,1.1245164799256777,5.422629641828337e-05,2.3404759882228838e-05,4.891531905342889e-05,-0.0007702328255879256,-4.898172351716918e-05,0.001052339375658949,7.793504789793808e-07,1.6288935334391139e-06,-2.5648753092077925e-05
16.061,1.1244908311725856,5.4209689397099725e-05,2.339884630547715e-05,4.8899738405258203e-05,-0.0007590668143531754,-4.987093448542084e-07,0.0003353156526952036,7.791532630684626e-07,1.628374839331562e-06,-2.5276924917960743e-05
16.095,1.1244655542476676,5.5853728838940754e-05,2.4109746209082873e-05,5.038213138551738e-05,-0.0007739564627062921,4.937055380903989e-05,-0.0004471365871806838,8.02825787301826e-07,1.6777387382272788e-06,-2.577275020811953e-05
16.127,1.1244397814974594,5.4186083301442925e-05,2.339115226614087e-05,4.887725052837081e-05,-0.0007431742273190045,-5.007944557050536e-05,0.0009243914530716996,7.788966338868733e-07,1.6276261946700404e-06,-2.4747701769722854e-05
16.16,1.1244150337956897,5.416200040344479e-05,2.3381965169442864e-05,4.885494849570219e-05,-0.0007362444173919112,-7.232101500941873e-07,0.00020810240021301206,7.785905289607851e-07,1.6268836214202306e-06,-2.4516939099150647e-05
16.194,1.1243905168565909,5.5775200618537943e-05,2.407962398265228e-05,5.0309489292699363e-05,-0.0007523622803121157,4.844445090369834e-05,-0.0004840199075136465,8.018221562763844e-07,1.6753200276248928e-06,-2.5053663934393455e-05
16.227,1.1243654631926563,5.409839698213627e-05,2.335692619948166e-05,4.8796419484925086e-05,-0.0007244969705087844,-5.0354463555605894e-05,0.0008367960901901285,7.777564480835923e-07,1.6249347426795186e-06,-2.4125749117942523e-05
16.26,1.1243413374435383,5.405769620509332e-05,2.3340530039330637e-05,4.875914454218064e-05,-0.0007195515811695038,-1.2222455568452855e-06,0.00014851019036878546,7.772103445458829e-07,1.6236935412644782e-06,-2.3961067652944478e-05
16.294,1.1243173763758856,5.565021389870523e-05,2.4029335272063496e-05,5.019499330963607e-05,-0.0007367175267754129,4.782335416251985e-05,-0.0005154938620393119,8.001471735547328e-07,1.671507490515118e-06,-2.453269364162125e-05
16.327,1.1242928436822437,5.396459356638167e-05,2.3302691461178186e-05,4.8674037529774476e-05,-0.0007109377716359829,-5.0619229198905776e-05,0.0007741668210039043,7.759501385807112e-07,1.620859566297253e-06,-2.367422779547823e-05
16.36,1.1242691694544482,5.3912808060848264e-05,2.3281480939362906e-05,4.86267777903898e-05,-0.0007072911054517471,-1.5551202862884107e-06,0.00010950949502209483,7.752437585136e-07,1.6192858511961806e-06,-2.355279381154318e-05
16.395,1.124245616660637,5.5489301720148516e-05,2.3963446129928356e-05,5.004813537952936e-05,-0.000725204807733054,4.734215193093852e-05,-0.0005379490174566615,7.979528325047819e-07,1.6666172354151486e-06,-2.4149320097510698e-05
16.427,1.124221467340539,5.3799135542163096e-05,2.323470775849769e-05,4.8523142318498325e-05,-0.0007007433211309983,-5.075574108064325e-05,0.0007345791772389088,7.736860984268664e-07,1.615834845912854e-06,-2.3334752593662246e-05
16.461,1.1241981325879455,5.373957423076464e-05,2.3210115504621136e-05,4.8468880498377596e-05,-0.0006979164773309161,-1.7886279699236647e-06,8.489020420667118e-05,7.728671335908285e-07,1.6140279486325243e-06,-2.324061869511951e-05
16.494,1.1241748919692505,5.530385740134866e-05,2.38868884433107e-05,4.987918607962179e-05,-0.0007163076771172223,4.6975470588108733e-05,-0.0005522882818710566,7.95403316505344e-07,1.6609912957969218e-06,-2.3853045648003505e-05
16.527,1.1241510389236025,5.3613024415493054e-05,2.3157735831295013e-05,4.835365196284773e-05,-0.0006927521088024997,-5.077576534100914e-05,0.0007073744238655441,7.711228226469535e-07,1.610190872602445e-06,-2.306864522312324e-05
16.561,1.1241279702783795,5.3547549125678496e-05,2.31305683654871e-05,4.829406614126086e-05,-0.0006904661117371827,-1.9662249193561153e-06,6.864856052003036e-05,7.702181215334209e-07,1.6082066773327436e-06,-2.2992521520848187e-05
16.595,1.1241049777568586,5.510055493579563e-05,2.3802552258298574e-05,4.969416122869564e-05,-0.0007091249493513046,4.6636811114628654e-05,-0.0005603254538775345,7.925948351782557e-07,1.654830012207509e-06,-2.3613860813398446e-05
16.627,1.124081363896045,5.341091787786128e-05,2.307379374385662e-05,4.816976428032012e-05,-0.0006861859947116166,-5.073985158962009e-05,0.0006888574966873259,7.683274890339872e-07,1.6040674450740086e-06,-2.2849993623896836e-05
16.66,1.1240585139024213,5.334132878949567e-05,2.3044830135208165e-05,4.810647732965366e-05,-0.0006842117165772476,-2.089762413381614e-06,5.928763166273322e-05,7.673629874140829e-07,1.6019599969021073e-06,-2.2784250162022347e-05
16.694,1.1240357296522592,5.488382043693917e-05,2.3712354079397173e-05,4.9497050515838586e-05,-0.0007029695255850127,4.63210704937986e-05,-0.0005632975678007529,7.895911865006365e-07,1.6482662516640565e-06,-2.3408885201980926e-05
16.727,1.1240123207670574,5.319880374395632e-05,2.29854718656107e-05,4.797687779444593e-05,-0.0006804760099463245,-5.0601101891376784e-05,0.0006754809501107556,7.653863380944105e-07,1.597644343145997e-06,-2.265985113121261e-05
16.76,1.123989660915926,5.313205968982893e-05,2.2957719710913927e-05,4.791616504436324e-05,-0.0006787396352426444,-2.004325949771421e-06,5.214338449489779e-05,7.644621830117352e-07,1.595622613379255e-06,-2.2602029853580062e-05
16.794,1.1239670588860724,5.46731095794882e-05,2.3624703118540776e-05,4.930539842300773e-05,-0.0006975075368858457,4.62777744642423e-05,-0.0005636006499459827,7.866723771438631e-07,1.6418842550304742e-06,-2.3227000978298663e-05
16.827,1.1239438318850943,5.299680152488035e-05,2.2901466632566944e-05,4.7793135468861865e-05,-0.0006753026762889684,-5.033958121945504e-05,0.0006668126305368541,7.625889411617596e-07,1.591525737076312e-06,-2.248757912042265e-05
16.86,1.1239213443059737,5.292323154466234e-05,2.2870748148389174e-05,4.772627490453131e-05,-0.0006736476129353341,-2.2093087152555474e-06,4.9701602211241246e-05,7.615660136577135e-07,1.5892992820543847e-06,-2.2432465510746627e-05
16.894,1.1238989118404632,5.4432575036254e-05,2.3524111331978305e-05,4.908687615970394e-05,-0.000692405244411436,4.5325630378128065e-05,-0.0005632922365195758,7.833226658039925e-07,1.6346074685238547e-06,-2.305709463890082e-05
