Theta_calculated,yaw_world,linear_velocity_x,world_velocity_x,world_velocity_y,angular_velocity_yaw,linear_acceleration_x,angular_acceleration_yaw,delta_position_x_world,delta_position_y_world,delta_yaw,kinematic_delta_x,kinematic_delta_y,kinematic_delta_yaw,twist.twist.linear.x,Time,odom_world_velocity_x,odom_world_velocity_y,odom_yaw_world
8.838844770764354e-07,-4.130224617557784e-06,9.32986444410175e-06,9.329864444098104e-06,8.246522355367828e-12,-8.276266869531232e-05,0.0004024544794709,-0.0027446494027378,6.793284099693153e-07,2.84495182523159e-07,-3.040884890050785e-06,3.106844859883478e-07,-2.971950290087537e-13,-2.7559968675539004e-06,3.793445283149331e-05,0.6020000000000001,3.79344528313943e-05,-8.666922687892485e-11,-2.284710083047439e-06
-1.8721123904774647e-06,-3.986798797306226e-06,1.1023749617329064e-05,1.1023749617309745e-05,-2.0637698248110897e-11,-1.117869786127435e-05,5.086742261943886e-05,0.0021496687938149,-2.2514825559483143e-09,8.870161938290266e-09,1.43425820251558e-07,3.6709086225588933e-07,-9.252443758331578e-13,-3.722506387804359e-07,-3.119871954321517e-07,0.636,-3.1198719542944546e-07,1.2994660747697325e-12,-4.165126305820094e-06
-2.2443630292579005e-06,-3.7064430672542232e-06,3.2702411561507665e-07,3.27024115614253e-07,-7.339608347616231e-13,2.9723677838364038e-06,-0.0003212229880394,0.0004249569262796,-3.131363390806996e-09,1.770616520069268e-08,2.803557300520032e-07,1.0889903049943621e-08,-2.8924719909135455e-14,9.897984720175225e-08,1.195235573108455e-07,0.67,1.195235573099279e-07,-4.68335078513777e-13,-3.918349562647086e-06
-2.145383182056149e-06,-3.4031347405163533e-06,-6.872089163989114e-08,-6.8720891639733e-08,1.4743264518001233e-13,7.344636609607091e-06,-1.1884234452101134e-05,0.0001312993641372,-3.264964965055128e-09,1.9224290603858666e-08,3.0330832673787e-07,-2.2884056916012992e-09,5.6884263818848615e-15,2.4457639909991616e-07,7.876867014861074e-08,0.7040000000000001,7.876867014809266e-08,-2.856904162259051e-13,-3.626954926210218e-06
-1.9008067829562328e-06,-3.096447090942018e-06,-6.027458292239034e-08,-6.027458292228147e-08,1.1457033605866848e-13,7.790783822874485e-06,2.536429044294536e-07,1.3397814212234072e-05,-3.3019476042284172e-09,1.944775029905088e-08,3.066876495743353e-07,-2.007143611310589e-09,4.48281262910447e-15,2.594331013017204e-07,7.813996792880795e-08,0.7380000000000001,7.813996792837443e-08,-2.60290692124255e-13,-3.331082658773075e-06
-1.6413736816545123e-06,-2.7892677635525155e-06,-4.9631992769892745e-08,-4.963199276982588e-08,8.146464670053242e-14,7.969990979496223e-06,3.195973018768046e-07,5.381596294947071e-06,-3.306824813975595e-09,1.9480264068505452e-08,3.071793273895025e-07,-1.6527453592342114e-09,3.257762310622561e-15,2.6540069961722426e-07,7.791648550710893e-08,0.772,7.791648550675049e-08,-2.3633778358419344e-13,-3.0332192481011336e-06
-1.3759729820372882e-06,-2.482015812401537e-06,-4.177630293752229e-08,-4.1776302937482745e-08,5.748306413141754e-14,8.302142940086765e-06,2.359066015726863e-07,9.974533351067334e-06,-3.3075635563761803e-09,1.9485065116953137e-08,3.07251951150978e-07,-1.391150887817476e-09,2.3653797841562804e-15,2.764613599048893e-07,7.788540744167848e-08,0.806,7.78854074413891e-08,-2.123165753369145e-13,-2.7260122571248354e-06
-1.099511622132399e-06,-2.17475247824589e-06,-3.272334775522645e-08,-3.272334775520667e-08,3.597970117194438e-14,8.114188228732418e-06,2.7186051598486005e-07,-5.644285626256673e-06,-3.3076854588642846e-09,1.9485816515896204e-08,3.072633341556477e-07,-1.0896874802479287e-09,1.5549902231044485e-15,2.702024680167896e-07,7.788190991725024e-08,0.8400000000000001,7.788190991702072e-08,-1.8908117312043505e-13,-2.4277932233752364e-06
-8.293091541156092e-07,-1.8674867274714955e-06,-2.5852308202087696e-08,-2.5852308202078805e-08,2.1439555847006914e-14,8.150465321173537e-06,2.063375241182809e-07,1.089402175408978e-06,-3.307716989198184e-09,1.948597372347649e-08,3.072657507743945e-07,-8.60881863128942e-10,9.948225083586382e-16,2.714104951950788e-07,7.788224104152826e-08,0.874,7.788224104135168e-08,-1.6585540615628253e-13,-2.1295664318130074e-06
-5.578986589205305e-07,-1.5602198768345428e-06,-1.9988483581025385e-08,-1.9988483581022275e-08,1.1151548183708527e-14,8.419199106648336e-06,1.7609082946133064e-07,8.070083647891858e-06,-3.307734308677368e-09,1.9486044777750067e-08,3.072668506369527e-07,-6.656165032478853e-10,5.862111574436391e-16,2.803593302513896e-07,7.788303226165208e-08,0.908,7.788303226152278e-08,-1.4192628750267045e-13,-1.8223004855016469e-06
-2.775393286691409e-07,-1.2529521198937995e-06,-1.31970353364038e-08,-1.3197035336403293e-08,3.662696327688394e-15,8.178460015824036e-06,2.0394739473338094e-07,-7.229402126855845e-06,-3.3077502958889227e-09,1.9486103397525767e-08,3.0726775694074336e-07,-4.39461276702165e-10,2.651409389933997e-16,2.7234271852694044e-07,7.788373151064612e-08,0.942,7.788373151055566e-08,-1.187003190077812e-13,-1.5240707745442538e-06
-5.1966101422005164e-09,-9.456835019012116e-07,-7.0798923080506966e-09,-7.0798923080506966e-09,3.6791440173703666e-17,8.171644614227641e-06,1.8369798883943249e-07,-2.046667146064563e-07,-3.307766505145082e-09,1.9486157576409372e-08,3.072686179925881e-07,-2.357604138580746e-10,7.820201729728523e-17,2.721157656537805e-07,7.788428908406533e-08,0.976,7.788428908400682e-08,-9.547369384249481e-14,-1.2258402171388898e-06
2.6691915551158e-07,-6.384140250981952e-07,-6.244440800276254e-10,-6.244440800276033e-10,-1.6667608650517727e-16,8.397432796172603e-06,1.9385730414483695e-07,6.780425884233081e-06,-3.307782048267427e-09,1.9486211533248365e-08,3.072694768030164e-07,-2.0793987864919828e-11,1.1640626594004653e-18,2.796345121125477e-07,7.788471543068058e-08,1.01,7.788471543064772e-08,-7.154268171179339e-14,-9.185715235164248e-07
5.465536676241277e-07,-3.3114370874381064e-07,6.410988296790987e-09,6.41098829679003e-09,3.5039491667062997e-15,8.113584284410427e-06,2.112742455501085e-07,-8.523979332197463e-06,-3.3077971473005623e-09,1.948626526804276e-08,3.0727031635438456e-07,2.1348591028313416e-10,4.67573264891479e-17,2.701823566708673e-07,7.788514789139548e-08,1.044,7.788514789139144e-08,-2.5087299434683403e-14,-3.221063336705227e-07
8.16736024294995e-07,-2.387255699337601e-08,1.4181084894959426e-08,1.4181084894954697e-08,1.158220289729768e-14,8.059408471925653e-06,2.3333623417923243e-07,-1.6269012758190414e-06,-3.3078124683783013e-09,1.9486318114658733e-08,3.072711517504347e-07,4.722301270020911e-10,2.3090535014971474e-16,2.683783021151243e-07,7.788517912922275e-08,1.078,7.788517912922275e-08,-1.1554388770951756e-15,-1.48351572149322e-08
1.3589849961359592e-06,2.833994220684241e-07,3.4321900236803845e-08,3.432190023677214e-08,4.664294746067728e-14,7.877996290852597e-06,3.082633998664726e-07,-1.0400845205970192e-05,-3.307827789456041e-09,1.948637051718549e-08,3.0727197906180016e-07,1.1429192778849603e-09,1.174395733553291e-15,2.623372764853915e-07,7.788510269498501e-08,1.112,7.788510269498189e-08,2.2072593091498315e-14,2.833994220684241e-07
1.621322272621351e-06,5.906722285066807e-07,4.758821825090064e-08,4.758821825083809e-08,7.715583816451727e-14,7.740314842028147e-06,3.983879283512553e-07,-4.1345780427762565e-06,-3.307843110533781e-09,1.9486422475623044e-08,3.072728064382566e-07,1.5846876677536744e-09,2.0409024009634225e-15,2.577524842395373e-07,7.78849124393294e-08,1.146,7.788491243931623e-08,4.530057397735604e-14,5.816347808395719e-07
1.879074756860888e-06,8.979458522778632e-07,6.642344444244044e-08,6.642344444232318e-08,1.2481461771546806e-13,7.78331918635797e-06,5.656224081543484e-07,1.291421751646302e-06,-3.307858209566916e-09,1.9486473989971387e-08,3.0727362377118256e-07,2.211900699930616e-09,3.4203770476511378e-15,2.591845289057204e-07,7.788462760839565e-08,1.18,7.788462760836489e-08,6.923229826432294e-14,8.88908381412985e-07
2.1382592857666084e-06,1.2052202830308425e-06,8.59504834472225e-08,8.5950483447026e-08,1.8378441934701266e-13,7.308052704032493e-06,5.863975677111728e-07,-1.427226673650079e-05,-3.307873308600051e-09,1.9486524394096705e-08,3.072744307529791e-07,2.862151098787877e-09,5.144617666120234e-15,2.4335815504428204e-07,7.788424548684599e-08,1.214,7.78842454867911e-08,9.245991546408749e-14,1.187145293456363e-06
2.381617440810891e-06,1.5124955201219933e-06,1.1307414192161489e-07,1.130741419212942e-07,2.6929934850498934e-13,6.988372062214434e-06,8.145242785102817e-07,-9.600019273815572e-06,-3.307888407633186e-09,1.948657546435584e-08,3.07275237091151e-07,3.7653689259819724e-09,7.663344736844668e-15,2.327127896717407e-07,7.788378253403557e-08,1.248,7.788378253394965e-08,1.1568724397406493e-13,1.4853829669039458e-06
2.614330230482631e-06,1.8197715538160228e-06,1.5274966524880705e-07,1.5274966524828504e-07,3.9933806755560364e-13,6.765072360162074e-06,1.191457156972738e-06,-6.705696758329135e-06,-3.307903728710926e-09,1.948662453621353e-08,3.072760336940296e-07,5.086563852772224e-09,1.1518702627363552e-14,2.252769095933971e-07,7.788321568174268e-08,1.282,7.788321568161753e-08,1.396180420548123e-13,1.792658929562101e-06
2.8396071400760284e-06,2.127048383456905e-06,1.92362751473464e-07,1.9236275147268847e-07,5.462346425679848e-13,6.030444512119017e-06,1.189582168908617e-06,-2.2060896337629345e-05,-3.307918161610246e-09,1.9486674718294242e-08,3.072768296408825e-07,6.405679624046681e-09,1.5869265581743347e-14,2.008138022535633e-07,7.78825809871627e-08,1.316,7.788258098699247e-08,1.6284454263860324e-13,2.090898126059322e-06
3.040420942329592e-06,2.434325996953874e-06,2.447468599758612e-07,2.447468599747299e-07,7.4413347863887e-13,5.389499581355552e-06,1.5730963514233378e-06,-1.9247595518422366e-05,-3.307933260643381e-09,1.948672401219653e-08,3.072776134969687e-07,8.150070437167158e-09,2.1739906309441023e-14,1.794703360591399e-07,7.788188007216584e-08,1.35,7.788188007194356e-08,1.8607056394325925e-13,2.38913806101011e-06
3.219891278388732e-06,4.174259991801143e-06,3.142872613611021e-07,3.1428726135947285e-07,1.011970811763544e-12,4.789330216698868e-06,2.088300341899126e-06,-1.8023104043744272e-05,1.2118303188257684e-05,1.1399483579310755e-07,1.7399339948472686e-06,1.0465765803282578e-08,2.9695893826158864e-14,1.5948469621607235e-07,7.78811030507248e-08,1.384,7.788110305044168e-08,2.099998789194173e-13,2.6964163409819277e-06
3.379375974604804e-06,5.116734454750251e-06,0.0336914331350609,0.0336914331348685,1.1385601968641233e-07,2.488947898041624e-05,1.011745310744731,0.0006036080709825,0.0005970921170117,6.116852757642732e-08,9.424744629491086e-07,0.0011219247233912,3.7375730929809925e-09,8.288196500478608e-07,0.02587838253633,1.418,0.0258783825359746,1.3561603504309493e-07,5.2405143502816594e-06
4.208195624652664e-06,4.5553706165390295e-06,0.0670570406792507,0.0670570406786569,2.8218914518774584e-07,1.7176567313048397e-06,1.001970196522217,-0.0006958505179913,0.0015057419097432,-3.8156429349456296e-08,-5.613638382112218e-07,0.0022329994546031,8.430199325203129e-09,5.719796915245117e-08,0.0518254769957906,1.452,0.0518254769951596,2.5573237849028604e-07,4.934491553490094e-06
4.265393593805116e-06,2.9734640441784614e-06,0.0976044924761967,0.0976044924753088,4.163215769333068e-07,-0.0689802846573054,0.9173408948031836,-2.0715316010221256,0.0024150678709553,-1.0561266305941787e-07,-1.581906572360568e-06,0.003250226755374,-3.720597376237092e-06,-0.0022970434790882,0.0785392416138278,1.486,0.0785392416133329,2.788158889274364e-07,3.5500201325974226e-06
-0.0022927780854944,-0.0018708407506305,0.1147486671009414,0.1147483654938783,-0.0002630929987626,-0.3170730555554542,0.5148400788211633,-7.450233360304765,0.0032117628387833,-1.524887551118681e-06,-0.0018738142146746,0.0038210033086691,-2.893512714593468e-05,-0.0105585327499966,0.0987787070966382,1.52,0.0987786661992396,-8.988649859993583e-05,-0.0009099786142903
-0.012851310835491,-0.0096551319225768,0.1147569313715276,0.1147474550931592,-0.0014747364011595,-0.3169695327305148,0.0002481762938773,0.0031087935417225,0.0037598774795417,-1.821789043310318e-05,-0.0077842911719462,0.0038207601008181,-6.927535715041175e-05,-0.0105550854399261,0.114029951756755,1.554,0.1140271400400294,-0.0008007695919416,-0.0070225073446301
-0.0234063962754172,-0.0210913792882092,0.1182930873127873,0.1182606848030356,-0.0027685620650075,-0.3268833010403345,0.1061908691068993,-0.2977107600546461,0.0040395257081566,-5.825097531975132e-05,-0.0114362473656324,0.0039375012167653,-0.0001136263315272,-0.0108852139246431,0.1187818615964634,1.588,0.1187633332190807,-0.0020979339872806,-0.0176629920517965
-0.0342916102000603,-0.0352630097218288,0.1148320538875897,0.1147645441631063,-0.0039370043277513,-0.4127566263746404,-0.1039349376936225,-2.5787785385677435,0.0040668177874385,-0.0001108609029325,-0.0141716304336195,0.0038206379454619,-0.0001573634328975,-0.0137447956582755,0.119665660960085,1.622,0.1196078094515588,-0.0037205283514057,-0.0310960386780566
-0.0480364058583358,-0.049428702750856,0.1148713682584545,0.1147388611134586,-0.0055158857816244,-0.4129407827960192,0.0011806117376819,-0.0055302228642302,0.0040646967451358,-0.000168561086163,-0.0141656930290272,0.003819420709306,-0.0002099443614585,-0.0137509280671074,0.1196710460278219,1.656,0.1195507250067074,-0.0053650170329357,-0.0448464017539319
-0.0617873339254433,-0.063720406684283,0.1183505906011199,0.1181247504397191,-0.0073079155159301,-0.42530692565799,0.1044811514313933,-0.3713556415006245,0.0040264888358692,-0.0002237618844667,-0.014291703933427,0.0039316993194535,-0.0002712017185976,-0.014162720624411,0.1196560529091961,1.69,0.1194478040277204,-0.0070564233690748,-0.0590067924329661
-0.0759500545498544,-0.0796590327846565,0.0946322572634259,0.0943594495734026,-0.0071804171867455,-0.3842043370667786,-0.7122622623932133,1.2343119697060498,0.0036160937213502,-0.0002545440922341,-0.0159386261003734,0.0031405542769499,-0.0002592030138424,-0.0127940044243237,0.1044888215818386,1.7240000000000002,0.1042049255407888,-0.0076972286311346,-0.0737323593165554
-0.1130400642144239,-0.1162804049342025,0.1182800222335247,0.1175251322021112,-0.0133419249150708,-0.7515116382694703,0.1049620879919317,-0.6577138527063863,0.0035647725350904,-0.0003782685218209,-0.0183087988919155,0.0039076192802785,-0.0004932083956857,-0.0250253375543733,0.1051423023744847,1.792,0.1045134335367473,-0.011482419560679,-0.1094266226948551
-0.1380654017687972,-0.1342307745747287,0.126270260354304,0.1250686855476562,-0.0173782204303315,-0.8541736068265184,0.2399470907140926,-3.0829419987101536,0.0035573209643953,-0.0004428014771822,-0.0179503696405262,0.0041559957263776,-0.0006378462036542,-0.028443981107323,0.1054017582978348,1.826,0.1045558374215257,-0.0133269468881159,-0.1267788560759344
-0.1665093828761203,-0.1532953435951052,0.1262679862589697,0.1245216131540213,-0.020927785630965,-0.8542043673262419,-6.829115117912354e-05,-0.0009237387304355,0.0036461452504477,-0.0005220332737136,-0.0190645690203765,0.0041360992870614,-0.0007557738224468,-0.0284450054319638,0.1084156266635959,1.86,0.1072831471915282,-0.0156292812867732,-0.144664841050212
-0.1949543883080842,-0.1747143820257439,0.1300872937336278,0.1276229859366708,-0.025200743075304,-0.8801740067744994,0.1146939181578995,-0.7798690525002244,0.003842695887726,-0.0006289657175606,-0.0214190384306386,0.0042369392736167,-0.0009013431463038,-0.0293097944255908,0.1147423193793486,1.894,0.1131857561132278,-0.0188357232308544,-0.1649030772128634
-0.224264182733675,-0.1996324513381829,0.12625516792246,0.1230934871029472,-0.0280777645115336,-0.853094564465495,-0.1150788531882227,0.8131964657358673,0.004134401919146,-0.0007754804224637,-0.024918069312439,0.0040851816329721,-0.0009930842611774,-0.0284080489967009,0.1237815033692906,1.928,0.121614308473202,-0.0230612348096659,-0.1874009523644778
-0.252672231730376,-0.2283532174046246,0.126243521000722,0.1222350168225971,-0.0315598995093319,-0.853091980081537,-0.0003497574095494,7.760912786966097e-05,0.0044433428753332,-0.0009572982383836,-0.0287207660664416,0.0040549514943672,-0.0011086175487017,-0.0284079629367151,0.1350142635443967,1.962,0.1319422941724837,-0.0286370803144727,-0.2137275586933667
-0.2810801946670911,-0.255888928019858,0.1300430510837153,0.1249396883740669,-0.036073111927762,-0.8783927318266057,0.1141000024922921,-0.7597823346867488,0.0043980160743473,-0.0010807106008063,-0.0275357106152334,0.0041423306942127,-0.0012619091020894,-0.0292504779698259,0.1350976313743261,1.996,0.1311290961183561,-0.0325043097778773,-0.2429825873227569
-0.3231310398726185,-0.2995028639480955,0.1519929457173148,0.1441266794553987,-0.0482634003877406,-0.5054035521918446,0.7111082146459873,-3.633878069319001,0.0045785041931376,-0.001345725755103,-0.0240593613279164,0.0047856671200336,-0.0016474835809133,-0.0168299382879884,0.1392555266049638,2.064,0.1336283472916941,-0.0391863048795896,-0.2852512543535599
-0.3757742753503791,-0.3682347740116291,0.2065423316028427,0.1921305816650386,-0.0757995668390825,-0.8396595589537211,0.167073521716713,7.081526460346124,0.0054869302954156,-0.0019886681488883,-0.0375437313561015,0.006361827728452,-0.0026132392507127,-0.0279606633131589,0.1700889084387674,2.132,0.1600378159400303,-0.0576032485458622,-0.3454982430440358
-0.4037349386635381,-0.4094782632824633,0.2065423070870611,0.1899363302740838,-0.0811413276873137,-0.8396585148136141,-7.362096551341076e-07,3.1355558770050426e-05,0.005858456636403,-0.002388987117718,-0.0412434892708342,0.0062862819765341,-0.0027900751097475,-0.0279606285432933,0.1848238565705274,2.166,0.1713778811530288,-0.0692060677188148,-0.383796399620628
-0.4316955672068314,-0.4501109950917447,0.212850471946643,0.1933230611370915,-0.0890590671436269,-0.8657201583118004,0.1894343801676249,-0.7826319368824712,0.0059967720734703,-0.0027353266599536,-0.0406327318092814,0.006394019979384,-0.0030580466491662,-0.0288284812717829,0.1922598572156514,2.2,0.1751575278304025,-0.0792697492169894,-0.4249829558021376
-0.4605240484786144,-0.4901193497590927,0.2180170271535828,0.1953039531282398,-0.096890608530282,-0.9189864777432972,0.155151808016209,-1.5995891721170254,0.0061110665314572,-0.003090140610432,-0.040008354667348,0.0064532404715392,-0.0033254616379937,-0.0306022497088518,0.2005393974768201,2.234,0.1792928650947567,-0.0898338380927775,-0.4644834579021989
-0.4911262981874661,-0.5267483949997669,0.2180161363594925,0.1922471160891534,-0.1028206305588735,-0.9189764887578896,-2.675057328302296e-05,0.0002999695317599,0.0061721270598464,-0.0034216534725992,-0.0366290452406741,0.0063484429126939,-0.0035213420291438,-0.0306019170756377,0.2058967566665753,2.268,0.180460166202391,-0.0991342666287511,-0.5023375391972794
-0.5217282152631038,-0.562153572852641,0.2246237022355511,0.1947395780700064,-0.1119477750521258,-0.9468332630737096,0.1984254016834404,-0.8365397692438408,0.0061020530576334,-0.003682177021212,-0.0354051778528741,0.0064249877751088,-0.0038294696363192,-0.0315295476603545,0.2155173261609862,2.302,0.1850732400971803,-0.110433752428831,-0.5379916884146133
-0.5698829980104985,-0.6190060323280413,0.173696592586702,0.1462462965396509,-0.0937151376495133,-0.5014998394693572,0.9965051549255322,-0.0673732897669063,0.0054701549833588,-0.003791315373397,-0.0240819667556753,0.0048437165809865,-0.0031612347049957,-0.0166999446543295,0.1913790544603221,2.37,0.1578001336553704,-0.1082823175983695,-0.6014034738472005
-0.6179121145994356,-0.673312891189743,0.2180097798333726,0.177697551473286,-0.1263006108591501,-0.7839890824758089,0.1573556141939199,4.70951626235551,0.0060936581066064,-0.0047192063435119,-0.0270600682914313,0.0058617572472427,-0.0042825722881784,-0.0261068364464444,0.2268075814596148,2.438,0.1801813893376585,-0.1377546585198153,-0.652737673935445
-0.6440189510458801,-0.7002224509243904,0.2180072233697221,0.1743380193034474,-0.1308946311608184,-0.7841696300278016,-7.677068019500836e-05,-0.0054218484081893,0.0059758863887739,-0.0048907639180633,-0.0269095597346473,0.0057478872490724,-0.0044340927206489,-0.0261128486799257,0.2271189762230824,2.472,0.1767652610876903,-0.1426081057767115,-0.6788526251855505
-0.6701317997258058,-0.7261549386139388,0.2246556184442157,0.1760715524540902,-0.1395311983570684,-0.8081289649308923,0.199651503738545,-0.719499546639359,0.0058381519413195,-0.0050428429654416,-0.0259324876895483,0.0057999578618892,-0.004724717198455,-0.0269106945321987,0.2271630052139134,2.506,0.1728975462304881,-0.1473413365125098,-0.7057633503334454
-0.6970424942580047,-0.7517964680719362,0.218085625916701,0.1672158706831186,-0.1400006886524699,-0.7473198225855152,-0.1972970728983375,1.8261003707320431,0.0057056485630617,-0.0051901040691257,-0.0256415294579974,0.0055097056078246,-0.0047308262385576,-0.0248857500920976,0.2268666456530574,2.54,0.1689523387101877,-0.1514053570856326,-0.7306797475267723
-0.7219282443501022,-0.7774252689027407,0.2181236319713552,0.1637089571556612,-0.1441433181641838,-0.7474515315553321,0.0011413229625879,-0.0039552243188242,0.0055703277300276,-0.0053342225251524,-0.0256288008308044,0.0053912102541152,-0.0048673202799481,-0.0248901360007925,0.2268792807674433,2.574,0.1651415650569498,-0.1555714354632417,-0.7555668482751158
-0.7468183803508948,-0.8015821490876828,0.2247313605372694,0.1649199802487689,-0.1526616668442928,-0.7698456819784514,0.1984302872646902,-0.6724970097032827,0.0054233021487515,-0.005459898802185,-0.0241568801849421,0.0054260733491427,-0.0051534693177205,-0.0256358612098824,0.2268186503152169,2.608,0.1610582150419846,-0.1597089587290158,-0.7811918465864481
-0.7724542415607774,-0.8250122208275299,0.2180841232392037,0.1561918545588372,-0.1521998337005768,-0.6949254171139666,-0.1996167356776489,2.2498578037382813,0.0052672779390581,-0.0055603551712581,-0.0234300717398471,0.0051420825229125,-0.0051279822167242,-0.023141016389895,0.225695631581499,2.642,0.1565365820008392,-0.1625878735037342,-0.8043580590739264
-0.7955952579506722,-0.8487598525919238,0.2180475442360979,0.1526026908600626,-0.1557470715283638,-0.694373217284589,-0.0010984685617333,0.0165825774587867,0.0051528697648501,-0.0057033570555737,-0.0237476317643938,0.0050212557006336,-0.0052446658226176,-0.0231226281355768,0.2254483399613852,2.676,0.1526341163479593,-0.1659210068617651,-0.8270838637841011
-0.8187178860862491,-0.8735668895918369,0.2245864597740948,0.1534280498356736,-0.1640088760935919,-0.7147840880690438,0.1963638299698761,-0.6129390625962403,0.0050219302363947,-0.0058359443998288,-0.0248070369999131,0.0050436740505878,-0.0055217841834536,-0.0238023101326991,0.2262219069801888,2.71,0.1491562817420087,-0.1700845519577005,-0.8508608623177942
-0.8425201962189482,-0.8985545014484536,0.2179681135317671,0.1450761022591991,-0.1626745925763323,-0.7267817748066749,-0.1987491364062383,-0.3602908930219558,0.0048756690278068,-0.005960222423621,-0.0249876118566166,0.0047650118353419,-0.0054749944186909,-0.0242018331010622,0.2263992223557629,2.744,0.1408577237638631,-0.1772447729535553,-0.8992909526230324
-0.8667220293200106,-0.9238108736433268,0.2179735505197916,0.1411004972175927,-0.1661418623079453,-0.727188637283903,0.0001632729136492,-0.0122180924092521,0.004713958034568,-0.0060666413586276,-0.0252563721948731,0.0046312019667234,-0.0055888724544871,-0.0242153816215539,0.2251909839543153,2.778,0.1356059508421019,-0.1797832176553811,-0.9245649539674308
-0.9159033201876028,-0.9472163139416891,0.2065477207988137,0.1258029268354757,-0.1638157030531952,-0.6869120157203344,-0.5419267176611291,1.8863359959517076,0.004402682571045,-0.0059629154342939,-0.0234054402983624,0.0041264823093348,-0.0055024997020435,-0.0228741701234871,0.2144954246458414,2.8120000000000003,0.1252535578220623,-0.1741259126233517,-0.9472163139416894
-0.9387774903110898,-0.9708657726464912,0.2065224914097259,0.1220082900964635,-0.1666298790908087,-0.6875030231685348,-0.0007576393119452,-0.0177479714174293,0.0041930963985321,-0.0059668086890281,-0.0236494587048018,0.003999004931937,-0.0055947975317473,-0.0228938506715122,0.2146157210570549,2.846,0.1212918186437656,-0.1770542359135399,-0.9701714143204296
-0.961671340982602,-0.9944657852434776,0.212792529958345,0.1217492539399631,-0.1745215745148304,-0.7088166567281918,0.1882894459044758,-0.640049055845555,0.0040543912135717,-0.0060689274512635,-0.0236000125969865,0.0039852872313369,-0.0058588758739015,-0.0236035946690487,0.214667882308705,2.88,0.1171088931013708,-0.1799105523627664,-0.99376870932714
-0.9852749356516508,-1.0169266527035614,0.2180709571316717,0.1205134247457872,-0.1817455826158228,-0.5680149627303269,0.1585113265263286,4.228279099034982,0.0039898987017752,-0.0062857517403411,-0.0224608674600837,0.0039556189501431,-0.0060897213848389,-0.0189148982589198,0.2220007581369338,2.914,0.1170001038802805,-0.1886671998662643,-1.015699377297807
-1.0041898339105708,-1.0366255918402227,0.2180575964458757,0.1170472012780914,-0.183981162189824,-0.568465088482184,-0.0004012217956771,-0.0135172898455585,0.0039587842464341,-0.0065360548507291,-0.0196989391366613,0.0038394502398227,-0.0061630987257857,-0.0189298874464567,0.2251639286880299,2.948,0.1149702678561425,-0.1935991536430752,-1.03490577102192
-1.0231197213570276,-1.0561336757207176,0.2246367109659685,0.1169694741058148,-0.1917805882799851,-0.5854562843895631,0.1975710066093942,-0.510246123344717,0.0038352641820913,-0.006619411198552,-0.0195080838804948,0.0038325831376613,-0.0064238582930898,-0.0194956942701724,0.2250417125447316,2.982,0.111118333886852,-0.1956948856237067,-1.0543791386169672
-1.0426154156271998,-1.0767391630016112,0.2065303216357936,0.1040836369587386,-0.1783854542064061,-0.5236923244506655,-0.543735415320568,1.8547735717386664,0.0036242219263364,-0.0065545641312523,-0.0206054872808936,0.003414012238296,-0.005970156932913,-0.0174389544042071,0.2192608184238987,3.016,0.1044328244728389,-0.1927928724526481,-1.0743601314364064
-1.060054370031407,-1.0957419058748556,0.2065332453713394,0.1009585416180767,-0.1801758982715751,-0.52365707539633,8.779986624210892e-05,0.001058530160225,0.0034218309085858,-0.0064931012382671,-0.0190027428732444,0.0033094354972385,-0.0060288663426664,-0.0174377806106977,0.2134489611418711,3.05,0.0981264587718244,-0.189556474701988,-1.0931180168516867
-1.077492150642105,-1.1136057731013569,0.2127114303893705,0.1007270935859322,-0.1873504876855752,-0.5385859230966235,0.1855310816225557,-0.4483137447535572,0.0032628170636062,-0.0064757718565464,-0.0178638672265012,0.0032980850957538,-0.0062685162519292,-0.0179349112391175,0.2130588180275806,3.084,0.0945436926258431,-0.190933365664516,-1.1110234675511863
-1.0954270618812223,-1.130164408492388,0.2179877072602704,0.0997657365499802,-0.1938180546988058,-0.4856678344756747,0.1584467528798761,1.5891317904188818,0.0032851444088077,-0.0068107617879946,-0.0165586353910309,0.0032698617746741,-0.0064807253257229,-0.0161727388880399,0.2243408992363724,3.118,0.0962794438497989,-0.2026304709616932,-1.1272273197523377
-1.111599800769263,-1.1468158923155074,0.2179702808191485,0.0966105335628516,-0.1953905016245149,-0.4851899382858414,-0.0005233165502073,0.0143512369319307,0.0031998265330461,-0.006924707776803,-0.0166514838231195,0.0031644267029528,-0.0065322108357021,-0.0161568249449185,0.2243725928956508,3.152,0.0930056491122289,-0.2041886619671386,-1.1433872958380658
-1.1277566257141811,-1.1632170678439595,0.2246149993768223,0.0962896802013316,-0.2029290403854883,-0.5000612752717424,0.1995410978280425,-0.4465866962733028,0.003083607370466,-0.0069756841665391,-0.0164011755284521,0.003150032939114,-0.0067839225262053,-0.016652040466549,0.2244157758302208,3.186,0.0896093568483897,-0.2057488848249191,-1.1600424475871804
-1.14440866618073,-1.178452897236839,0.2180478365134515,0.0901812265742616,-0.1985250749445988,-0.4440663276768188,-0.1972120979991224,1.6815299578055125,0.0029699083721963,-0.0070153484070636,-0.0152358293928798,0.002954044295728,-0.0066328485807884,-0.014787408711638,0.2240848719003701,3.22,0.0864217943499214,-0.2067493730968613,-1.1748673595665189
-1.159196074892368,-1.193695991734189,0.2180888901873415,0.0872522270773835,-0.1998744928528475,-0.4441672177067393,0.0012328430597576,-0.0030297306282424,0.0028631995492325,-0.007061020071049,-0.0152430944973496,0.0028561686839495,-0.0066770661475756,-0.0147907683496344,0.2241263995864654,3.254,0.0833694939883859,-0.2080436744140817,-1.1896601668596805
-1.1739868432420026,-1.2087380441878663,0.2247277830303651,0.0868522778407527,-0.207266153289956,-0.4579069218982378,0.1993661514421519,-0.4126037294744294,0.0027549644250519,-0.0071027337407598,-0.0150420524536773,0.0028394449915454,-0.0069237467516362,-0.0152483004992113,0.2241445344654984,3.2880000000000003,0.0801934693780048,-0.2093078589061433,-1.2049114839074324
-1.189235143741214,-1.2231623436209365,0.2181245658952239,0.0812230080218044,-0.2024380132654679,-0.4201279463155788,-0.1982948088631007,1.13450377125102,0.0026484689387253,-0.0071369591235364,-0.0144242994330701,0.0026574801059352,-0.0067598867705216,-0.0139902606123087,0.2239157745957737,3.322,0.0771752649511898,-0.2101957482741717,-1.218917597926981
-1.2032254043535229,-1.2376184285134082,0.2181167309605795,0.0783801757107346,-0.2035471846537903,-0.4203603183493669,-0.0002352833226538,-0.0069781391527947,0.0025441402632733,-0.0071711653285724,-0.0144560848924717,0.0025625321800878,-0.0067961685897175,-0.0139979986010339,0.2237917027893218,3.356,0.0741808535979188,-0.211139591732172,-1.232932165691965
-1.2172234029545566,-1.2521551285270616,0.2246754173072737,0.0777942943493164,-0.2107773491362141,-0.4330253919743271,0.1969575479487742,-0.3803325412900983,0.0024312015119694,-0.0071804899845162,-0.0145367000136533,0.0025398525767844,-0.0070373208773085,-0.014419745552745,0.2229668841022481,3.39,0.0708289804573609,-0.2114178018371114,-1.2475294407796569
-1.2316431485073016,-1.2649839901892714,0.2180373196503769,0.0725385366276451,-0.2056172012849131,-0.3802422993444057,-0.1993422719788811,1.585077856754397,0.0023158690553539,-0.0071650074570623,-0.0128288616622098,0.00237211720348,-0.0068621635585743,-0.0126620685681687,0.2215097604355533,3.424,0.0676007764419625,-0.2109424305175704,-1.2606668583042615
-1.2443052170754705,-1.277508832608339,0.2179682079055492,0.0699070865736071,-0.2064537209748154,-0.3803837967237252,-0.0020754277726039,-0.0042491705501337,0.0022311054191836,-0.0072110146825679,-0.0125248424190675,0.0022842996474794,-0.0068894694627633,-0.0126667804309,0.2221187057282947,3.458,0.0652540726490504,-0.2123172754090567,-1.272617193989018
-1.2569719975063705,-1.2902297152901712,0.2244977137377163,0.0693020926484338,-0.213533237291082,-0.3911566236941685,0.1960812562212343,-0.3235083174307295,0.0021504248742019,-0.0072793321695614,-0.0127208826818321,0.0022613818023686,-0.0071254864462148,-0.0130255155690158,0.2232686055395386,3.492,0.062824614743021,-0.2142473757177928,-1.285558373461936
-1.2699975130753862,-1.3024173878348408,0.2178930537462391,0.064558061721588,-0.2081096815086052,-0.3551441123202176,-0.1983381378821995,1.0814567980165417,0.0020590100287256,-0.0073009993984598,-0.0121876725446696,0.0021087521749016,-0.006942603672284,-0.0118262989402632,0.223097576658448,3.526,0.0602372815835803,-0.2148115420974686,-1.2973989385539533
-1.2818238120156495,-1.3146081947102242,0.2179152060853979,0.0620987499461115,-0.2088798274088998,-0.355219783906785,0.0006652354101736,-0.0022724200170391,0.0019701396948677,-0.0073264973742639,-0.0121908068753833,0.0020266985601497,-0.0069677671789981,-0.0118288188040959,0.2231342365898884,3.56,0.057701314530746,-0.2155445333103491,-1.309229267183637
-1.2936526308197454,-1.3264383686182133,0.2245559536027976,0.061440632859436,-0.2159870943651352,-0.3661525729901063,0.1994218473693614,-0.3283119844841212,0.0018806000755948,-0.0073477082929409,-0.0118301739079891,0.0020020717351717,-0.0072046659572982,-0.0121928806805705,0.2231718141782457,3.5940000000000003,0.0550780594908962,-0.2162685044252323,-1.321423055856006
-1.3058455115003158,-1.3377890414681974,0.2179894144260958,0.0570831004518036,-0.2103827570040887,-0.3307726044723342,-0.1971933686697246,1.0624615170502127,0.001795263061546,-0.0073659483289028,-0.0113506728499841,0.0018622427623991,-0.0070160736709621,-0.0110147277289287,0.2229890498220957,3.628,0.0526475319709789,-0.2166849180675153,-1.332446754085031
-1.3168602392292446,-1.3491459506989254,0.2180246208706104,0.0547712201889791,-0.2110328143791477,-0.3309147068573423,0.0010572505860249,-0.0042673388891342,0.0017118235962485,-0.0073871579444617,-0.0113569092307279,0.001785122822282,-0.0070373003177404,-0.0110194597383495,0.2230335475203425,3.662,0.0502665498072879,-0.2172952767318708,-1.3434667296983602
-1.327879698967594,-1.359398685468565,0.2246714626482713,0.0540412700028283,-0.218075233038956,-0.3411245050422496,0.199604858188014,-0.3066005460933124,0.0016275677102415,-0.0073977099336426,-0.0102527347696395,0.0017582870593841,-0.0072719708722141,-0.0113594460179069,0.2230788766222099,3.696,0.0478046255120597,-0.2178965419061966,-1.3548266077204605
-1.3392391449855012,-1.3682575971702151,0.2180956329543691,0.0500515131560263,-0.2122747067941893,-0.2581250916301508,-0.1974723631802442,2.492474877240205,0.0015563830747482,-0.0074012753568331,-0.0088589117016504,0.0016363118366724,-0.0070758245856497,-0.008595565551284,0.222461057674043,3.73,0.045771180574373,-0.217701449720212,-1.3635671200070578
-1.3478347105367852,-1.3771124956981382,0.2181361724776281,0.0482340295364442,-0.2127366168243421,-0.25820905801082,0.0012174031008708,-0.0025215129330092,0.0014908414531751,-0.0074152502831434,-0.0088548985279228,0.0015757143474409,-0.0070909480512539,-0.0085983616317603,0.2224819857755094,3.764,0.0439016684914671,-0.2181074906973148,-1.3721659267311506
-1.3564330721685454,-1.3861154604671762,0.224748906811591,0.0478097786021997,-0.2196048637508147,-0.2657751152399563,0.1985806106295146,-0.2272089257998882,0.0014249690290886,-0.0074286074186875,-0.0090029647690379,0.0015596812055581,-0.0073197923101192,-0.0088503113374905,0.2224485365062801,3.798,0.0419639896052392,-0.2184545146482379,-1.3810132880996038
-1.3652833835060358,-1.3951358357863286,0.2181063405849812,0.0445088160708586,-0.2135166061348445,-0.2661278105621132,-0.1994764632615548,-0.0105914511158236,0.0013557553890124,-0.0074319103078839,-0.0090203753191524,0.0014506160241468,-0.0071165779657503,-0.0088620560917183,0.2223182679305079,3.832,0.0400071978634609,-0.2186889031815171,-1.3898560160084903
-1.374145439597754,-1.4037690750502625,0.2180614919649403,0.0426061341500689,-0.2138586720494683,-0.2658044835421048,-0.0013468054066351,0.009709520120373,0.0012843450843853,-0.0074072397385758,-0.0086332392639336,0.001387245449935,-0.0071276804259049,-0.008851289301952,0.2209005707213445,3.866,0.037883513172162,-0.2176278970507925,-1.3984485957380497
-1.3829967288997065,-1.41211712223258,0.22461521869686,0.0419351301895818,-0.2206659043128799,-0.2737763055959143,0.1968086105681591,-0.2393940556699541,0.0012139680615708,-0.0073850041662384,-0.0083480471823178,0.0013629215828629,-0.0073544389066213,-0.0091167509763439,0.2222947124434912,3.9,0.0362039086567309,-0.2193267338431627,-1.4072031409638135
-1.4090469629019478,-1.4265223521987531,0.1916112795669992,0.0308580350149134,-0.1891101904507557,-0.4578799026795966,0.880259158127407,1.5205135465797903,0.0010735614160886,-0.0071545101462866,-0.0083825145822329,0.0009795215080469,-0.0063049595459858,-0.0152474007592305,0.21363767678645,3.968,0.0319579746579398,-0.2112338628119889,-1.4206431371609516
-1.4242943636611782,-1.4381047107437568,0.2127257453578209,0.0310533783185827,-0.2104469777237094,-0.2798585032096153,0.6340680417664186,5.34598797207151,0.0009992934648255,-0.0071207167616886,-0.0115823585450034,0.0010014052762527,-0.0070126017818747,-0.0093192881568801,0.2108222113202325,4.002,0.0296741715472847,-0.2087233775333637,-1.4295728826277043
-1.4336136518180584,-1.452549724637214,0.2032143145909759,0.0277901273802932,-0.2013051575962901,-0.4460291817327884,-0.2856285515569058,-4.990110466161354,0.0008991169548109,-0.0071102343740818,-0.0144450138934573,0.0008755925353722,-0.0067100880209148,-0.0148527717517018,0.2088199032968709,4.036,0.026703067038635,-0.2071055243677595,-1.4425691633419493
-1.4484664235697604,-1.463175933999349,0.2179906818778177,0.0266003191281275,-0.2163616426445262,-0.2596618200914328,0.4437347533586104,5.596617466707374,0.0008379597154692,-0.0073907881459631,-0.0106262093621349,0.0008546272536432,-0.0072085828921413,-0.0086467386090447,0.21642695106376,4.07,0.0248352086575214,-0.2149972966288007,-1.4557919883980963
-1.4571131621788052,-1.471375226454784,0.2246025774941337,0.0254785686794186,-0.2231527735768849,-0.2680311147065309,0.1985554239133951,-0.2513301686215649,0.000781816393842,-0.0075127206382914,-0.0081992924554348,0.0008152594524593,-0.0074346753816067,-0.0089254361197274,0.2223359112390763,4.104,0.0233585193095935,-0.2211054884035531,-1.465542505995568
-1.4660385982985324,-1.4792865600404772,0.2180215247311924,0.0227976885831754,-0.2168263144578593,-0.2305037483301091,-0.1976292121003409,1.1269479392318855,0.0007218906469526,-0.0075175684261579,-0.0079113335856932,0.000731441609759,-0.0072231592773413,-0.0076757748193926,0.2221164720988407,4.138,0.0216353232534527,-0.2210602631984176,-1.4732363310785843
-1.4737143731179252,-1.4872025886590177,0.2180553670378527,0.0211360036917304,-0.2170285982122075,-0.2306295154600877,0.0010162854852938,-0.0037767906900483,0.0006624881618702,-0.0075243138938296,-0.0079160286185404,0.0006760670502094,-0.0072296842659269,-0.0076799628648209,0.2221571420832381,4.172,0.019940682778068,-0.2212604007700801,-1.48091600021641
-1.481394335982746,-1.492650189993485,0.2246986790374789,0.0200617596397416,-0.2238013006247845,-0.2377354370979961,0.1994988588476344,-0.2133910401774288,0.0006073987268353,-0.0075133465019201,-0.0054476013344673,0.0006385468006634,-0.0074551501124444,-0.0079165900553632,0.2221883133165364,4.206,0.0181910227754639,-0.2214423926551325,-1.488832489115529
-1.4893109260381092,-1.496944751736211,0.2180806403101327,0.0177507293877289,-0.217357027225441,-0.125546923086495,-0.1987399017221065,3.3690244447898223,0.0005719984287295,-0.0074986475174938,-0.0042945617427261,0.0005759642650674,-0.0072392037946086,-0.0041807125387802,0.2212190725657407,4.24,0.0171022457238742,-0.2205570022874963,-1.4934100177077458
-1.4934916385768895,-1.501141210711213,0.2180818841946962,0.0168419657215251,-0.217430578356734,-0.1252721075571959,3.7353890794658814e-05,0.0082527185975685,0.0005396608301639,-0.0074930401264765,-0.0041964589750018,0.0005457305391499,-0.0072415872942851,-0.0041715611816546,0.2211449390715323,4.274,0.0161785252825099,-0.2205523506939677,-1.4975728936874773
-1.497663199758544,-1.5047344922183787,0.2246661614180815,0.0164158965090098,-0.2240656208081483,-0.1284860351119511,0.1977260427443027,-0.0965143409836377,0.0005079979532687,-0.0074599121770184,-0.0035932815071657,0.0005306821737612,-0.0074625320943863,-0.0042785849692279,0.2201824037820281,4.308,0.015197017953284,-0.2196573276277384,-1.5017212803707194
-1.501941784727772,-1.508642899705786,0.2180417040021281,0.015001301722608,-0.2175250459850058,-0.1166923385609368,-0.1989326551337352,0.3541650615920192,0.0004822049079047,-0.0074932789176758,-0.0039084074874073,0.0004854649992994,-0.0072445366015595,-0.0038858548740791,0.2203287323352553,4.342,0.0144496607659149,-0.2198544009025304,-1.505166942937742
-1.5058276396018513,-1.5126197183048813,0.2179924552736277,0.0141527224561688,-0.2175325515947055,-0.1159048677184781,-0.0014789407958078,0.0236477730468085,0.0004527485757568,-0.0075007760406573,-0.0039768185990951,0.000457301887472,-0.0072447256881638,-0.0038596320950253,0.2209974962584395,4.376,0.0136497383694564,-0.2205755607381388,-1.5089927675696055
-1.5096872716968766,-1.5155897924520432,0.2245812200058584,0.0137154061486739,-0.2241620217911515,-0.1193580170446783,0.1978608027696895,-0.1036981779639693,0.0004255384806099,-0.0074919470007002,-0.0029700741471618,0.0004418839168509,-0.0074654835257058,-0.0039746219675877,0.2210148162638197,4.41,0.0127730901145235,-0.2206454105053088,-1.5129711934545402
-1.513661893664464,-1.5185250699184702,0.217977263502936,0.0124472327984825,-0.2176215839476609,-0.0826800776076686,-0.198317012099769,1.1014396227330223,0.0004039179509263,-0.0074873225202312,-0.002935277466427,0.000404512871127,-0.0072473603771289,-0.0027532465843353,0.2202972581687064,4.444,0.0114901989818748,-0.2199974029028674,-1.5186149461846623
-1.5164151402487995,-1.5214552079289498,0.217973508396247,0.011847816388997,-0.2176512798248184,-0.0830749685073201,-0.000112765966637,-0.0118585855751197,0.0003813503345582,-0.0074899785607542,-0.0029301380104795,0.0003845033097556,-0.0072483242675132,-0.0027663964512937,0.220666559055701,4.478,0.0108647423960263,-0.2203989284414767,-1.5215403954492055
-1.5220513044827209,-1.5246588529906482,0.2179648864168278,0.0106204962323078,-0.2177059869881401,-0.0935811645616038,-0.1982634230968074,-0.2222808369394213,0.0003591170190486,-0.0074982693296354,-0.0032036450616983,0.0003423628005619,-0.0072501488419828,-0.0031162527799014,0.2208011116405022,4.5120000000000005,0.0101835916950847,-0.2205661473614419,-1.5246588529906482
-1.5251675572626224,-1.5278798290859863,0.2179847675619304,0.0099429257126885,-0.2177578864640745,-0.0938964049480942,0.0005970313844598,-0.0094666782729871,0.0003350308379548,-0.007500537606919,-0.0032209760953383,0.0003197589811601,-0.0072518435838012,-0.0031267502847715,0.2208412032427351,4.546,0.0094957407645739,-0.2206369596351233,-1.5277850179117871
-1.528294307547394,-1.5310921877191428,0.2246267859787001,0.0095442178951817,-0.2244239311746634,-0.0968765303318004,0.1994600125156091,-0.0894932547659521,0.0003109062933275,-0.0075026896907319,-0.0032123586331562,0.0003057640415684,-0.007473816732406,-0.0032259884600489,0.2208819027397256,4.58,0.0087855743098325,-0.2207071105378529,-1.5310108469207089
-1.531520296007443,-1.5324501690321717,0.2180569716615069,0.0085622105824012,-0.2178888052198412,-0.0381151429536396,-0.1972917212370328,1.7646062275723975,0.0002925007956677,-0.0074879630552506,-0.0013579813130288,0.0002805135910269,-0.0072558763384872,-0.0012692342603562,0.2204161474754783,4.614,0.00846704369281,-0.2202534613554026,-1.5323729737824392
-1.5327895302677992,-1.533761344942317,0.2180852959900277,0.0082867280812857,-0.2179278010368682,-0.0382056633209055,0.000850580436058,-0.0027183293473252,0.0002827077092644,-0.0074889649727565,-0.0013111759101454,0.0002713282636851,-0.0072571694795281,-0.0012722485885861,0.2204316527490091,4.648,0.0081872203900995,-0.2202795563731316,-1.5336460180692684
-1.5340617788563855,-1.5351238728017975,0.224692546357176,0.0082521228837678,-0.2245409603087662,-0.0390742669027929,0.1984159269413918,-0.0260841916482699,0.000272730241869,-0.0074869624159669,-0.0013625278594806,0.0002699275822409,-0.0074773907715879,-0.001301173087863,0.2204066474208825,4.682,0.0079000214673589,-0.2202650219352326,-1.5349457111898368
-1.5499875435921755,-1.5494672541558157,0.1994332788900981,0.0041496643774816,-0.1993901025989252,-0.1180388273174097,0.2312779502404409,9.643786758161182,0.0001761658789096,-0.0071173193675592,-0.0068700636935996,0.0001251311217532,-0.0066399449555827,-0.0039306929496697,0.2086599820449389,4.75,0.0046200306492246,-0.2086088287292617,-1.5486530860218328
-1.5539182365418456,-1.5513794177493812,0.2128221337900988,0.003591860640773,-0.2127918211964642,-0.0309138211304942,0.4020677147147354,2.6163665521596258,0.0001438016961283,-0.0071287390582752,-0.0019121635935654,0.0001159584066969,-0.0070860280124752,-0.0010294302436454,0.2080423354745393,4.784,0.0040834516272172,-0.2080022566524434,-1.551167082293916
-1.5549476667854911,-1.5534963608707115,0.2065340661604874,0.0032731511658906,-0.2065081280875642,-0.0651908782110866,-0.1888308597480908,-1.0293410534712455,0.0001310543467505,-0.0070943243898567,-0.0021169431213303,0.0001015284847586,-0.0068768336182529,-0.0021708562444291,0.2089519998373136,4.818,0.0036960630925612,-0.2089193082355686,-1.5531068293818484
-1.55711852302992,-1.5557164298127628,0.2065108135697103,0.0028245263116093,-0.2064914966102446,-0.0646128095651005,-0.0006982759993121,0.0173594187983817,0.0001154992945531,-0.0071046426460071,-0.0022200689420512,8.665607350150908e-05,-0.0068762627582617,-0.0021516065585178,0.2089946491851005,4.852,0.0032471638836528,-0.2089694219610035,-1.5552586345382728
-1.559270129588438,-1.5580887962848786,0.2127840087330727,0.0024525361416417,-0.2127698743689771,-0.0668788040129572,0.1883842391400124,-0.0680478813170177,9.977505917269092e-05,-0.0071147795369237,-0.0023723664721158,7.377647391860151e-05,-0.0070853219352182,-0.0022270641736314,0.2090044787255692,4.886,0.0027816896316687,-0.2089859668258612,-1.5574866992790375
-1.5614971937620694,-1.5623944842489623,0.2109032984307684,0.0019611895636076,-0.2108941796837299,-0.1246438132332168,-0.0564777868559841,-1.734684961569357,7.83791977840842e-05,-0.0072779945939066,-0.0043056879640839,5.072969364676109e-05,-0.0070228915764121,-0.0041506389806661,0.2139026232802858,4.92,0.0020383008509069,-0.213892911466998,-1.5612670762017566
-1.5656478327427357,-1.5671067208231435,0.2179913356395654,0.0011223221367171,-0.2179884464987608,-0.0719255712136266,0.2128539702341441,1.583130390978685,4.597341452394765e-05,-0.0073421989514157,-0.0047122365741809,2.8676826571111284e-05,-0.0072590530981294,-0.0023951215214137,0.215946060858877,4.954,0.0010618891237327,-0.2159434499862283,-1.5658789256666603
-1.5680429542641494,-1.570947040123789,0.224613819776496,0.0006184447399869,-0.2246129683715787,-0.0742977365930152,0.1988733975054247,-0.0712361975792376,1.3176728036690122e-05,-0.0073994025403778,-0.0038403193006455,1.1338025838891731e-05,-0.0074796296974713,-0.0024741146285474,0.2183959431367756,4.988,0.0001460038260275,-0.2183958943329395,-1.5701277986399953
-1.5705170688926968,-1.5732328721574511,0.2179998289768852,6.087817412873583e-05,-0.2179998204765295,-0.0644911129019414,-0.1986183423306565,0.2944932039361521,-9.335001542654098e-06,-0.0074945117996151,-0.0022858320336622,-5.77108322865966e-06,-0.0072593906159679,-0.0021475540596346,0.2205191676450179,5.022,-0.0003927647698918,-0.2205188178697841,-1.5725774190316713
-1.5726646229523316,-1.5754641253336172,0.2180009948820194,-0.0004072901841118,-0.2180006144125657,-0.0649935222853207,3.501216619264249e-05,-0.0150873688702516,-2.605354208884414e-05,-0.0074999530362181,-0.0022312531761659,-2.1421831629175013e-05,-0.0072594001058611,-0.0021642842921011,0.2205971483328211,5.056,-0.0008703704439434,-0.2205954312941747,-1.5747418569557885
-1.5748289072444326,-1.5775118834209747,0.2246424487437808,-0.0009058862917261,-0.2246406222116309,-0.0670756371238186,0.1994430589117546,-0.0625259711260632,-4.264565645351048e-05,-0.0074994447176706,-0.0020477580873574,-3.852377347160162e-05,-0.0074804927920322,-0.0022336187162231,0.2206377924364052,5.09,-0.001363372615112,-0.2206335800967807,-1.5769756004200886
-1.577062525960656,-1.579157705197358,0.2180710975381149,-0.0013664679869769,-0.2180668162438261,-0.0480500074138134,-0.1973378740440211,0.5713402315316876,-5.6131782236956695e-05,-0.0074965397186228,-0.0016458217763832,-5.131625852275569e-05,-0.0072615854544578,-0.0016000652468799,0.2205016675723901,5.124,-0.0017159094438439,-0.2204949910020301,-1.57857824872601
-1.5786625912075358,-1.5807873086852466,0.2180699214970265,-0.0017153779720852,-0.2180631746538883,-0.0477543435063764,-3.531654920126366e-05,0.0088787960191302,-6.844059032684591e-05,-0.0074957656163259,-0.0016296034878886,-6.289911235494503e-05,-0.0072614552080836,-0.0015902196387623,0.2204816573379653,5.158,-0.0020660043498904,-0.2204719774677094,-1.5801668776614066
-1.580252810846298,-1.582300669468734,0.2246592009118332,-0.0021244544868371,-0.2246491559019904,-0.0487018246130178,0.1978762587029019,-0.0284528860853274,-8.0219372901702e-05,-0.0074932207581299,-0.0015133607834874,-7.681384680794236e-05,-0.0074807562112126,-0.0016217707596134,0.2203722557700696,5.192,-0.0024196138483524,-0.2203589720932956,-1.58177621379496
-1.5818745816059117,-1.5835168053008362,0.218030157242112,-0.002415344232754,-0.2180167782058468,-0.039975586800692,-0.1990703804721079,0.2620491835533284,-8.971666232571174e-05,-0.0074785551616516,-0.0012161358321021,-8.52664775096292e-05,-0.0072599029963229,-0.001331187040463,0.2199526404653277,5.226,-0.0026931930332267,-0.2199361515507523,-1.5830410551538072
-1.5832057686463747,-1.584825479347484,0.2180006975803723,-0.0027051975481479,-0.2179839123691344,-0.0394305974745917,-0.000884674526716,0.016366045828836,-9.992470931563524e-05,-0.0074872890937545,-0.0013086740466479,-9.485199439558312e-05,-0.0072588030109422,-0.0013130388959039,0.2203861402278089,5.26,-0.0029654923377157,-0.2203661876507065,-1.584252625957536
-1.5845188075422787,-1.586116791631167,0.2245980090991209,-0.0030819451285993,-0.224576862800942,-0.0402456196790401,0.1981174630254833,-0.024475141274725,-0.0001097511754684,-0.0074889077486689,-0.0012913122836828,-0.0001076434040931,-0.0074783384723927,-0.001340179135312,0.2203026158429065,5.2940000000000005,-0.0032530634389518,-0.2202785966123114,-1.585563203969914
-1.5858589866775907,-1.5873747418035722,0.2179798770570812,-0.0032832325940903,-0.2179551494816155,-0.0365968356378275,-0.1987427039651562,0.109573094330708,-0.0001192230145263,-0.0074894774749314,-0.0012579501724052,-0.0001137574876029,-0.007257838008751,-0.0012186746267396,0.2203098270922194,5.328,-0.0035215489752618,-0.2202816801420818,-1.5867815372656602
-1.5870776613043305,-1.588647101417679,0.2179962356935831,-0.003549112829374,-0.2179673429087408,-0.0367888371108704,0.0004912503454015,-0.0057658100012874,-0.0001286690493993,-0.0074897091274066,-0.0012723596141068,-0.0001226347480821,-0.007258238253991,-0.0012250682757919,0.2203237278992884,5.362,-0.0037920864373476,-0.2202910918668555,-1.5880086067531072
-1.5883027295801224,-1.5896043656021053,0.2246093632674216,-0.0039319011378423,-0.2245749456658931,-0.0383546742323403,0.1985924196347914,-0.0470221357798772,-0.0001373418384811,-0.0074786039666997,-0.0009572641844262,-0.0001357114415667,-0.0074782599806575,-0.0012772106519369,0.2203003031872529,5.396,-0.0040744990008964,-0.2202626206197666,-1.5892925851904989
-1.5895799402320594,-1.5904858597447322,0.2180025666872127,-0.0040946351500336,-0.2179641095345762,-0.0118324879417724,-0.198402299705974,0.7964620507678033,-0.0001421594336499,-0.0074487600981821,-0.0008814941426269,-0.0001377846493445,-0.0072581777332649,-0.000394021848461,0.2192932058418315,5.43,-0.0041914594126221,-0.2192531454651911,-1.589910984936908
-1.5899739620805204,-1.5916515001839036,0.2180172569959203,-0.0041807991594097,-0.2179771668464701,-0.0120687874041641,0.0004411504116404,-0.0070960799517004,-0.0001503401414402,-0.0074295100858632,-0.0011656404391713,-0.0001406825547953,-0.0072586114198002,-0.0004018906205586,0.2183672343218947,5.464,-0.0044239139414494,-0.2183224175636389,-1.5910567684698356
-1.590375852701079,-1.5919501448042828,0.2246248796898853,-0.0043977676520461,-0.2245818252116009,-0.0128062475788046,0.1984271079268744,-0.0221459511904066,-0.0001553916179375,-0.0073675766663128,-0.0002986446203792,-0.0001480437288108,-0.0074785432586761,-0.0004264480443741,0.2201686746851162,5.498,-0.0046442958257421,-0.220119685237108,-1.591892154021328
-1.590802300745453,-1.593857260462563,0.1994902355301196,-0.0039907302353327,-0.1994503149760647,-0.1425933078193952,-0.7547941189118823,-3.897509316534253,-0.0001562621759081,-0.0070623453370125,-0.0019071156582801,-0.0001486624304456,-0.006641354954585,-0.0047483571503858,0.2062097514397111,5.532,-0.0045482385312275,-0.2061595865224086,-1.592854485315619
-1.595550657895839,-1.5949183220707142,0.2065780600768303,-0.0051131794536141,-0.2065147701763283,-0.0306471915775413,0.2128475839853087,3.3617452324881048,-0.0001671646895342,-0.0070955451811278,-0.0010610616081512,-0.0001737811629303,-0.0068768536886814,-0.0010205514795321,0.2087427647793439,5.566,-0.0048978811813213,-0.2086852956191647,-1.5942621974134197
-1.5965712093753712,-1.5954434872883865,0.2128535755355973,-0.0054856684735045,-0.2127828753910592,-0.0318777674221168,0.1884539176806891,-0.0369542295668298,-0.0001736375035206,-0.0070914603185752,-0.000525165217672,-0.0001864368267169,-0.0070855713772901,-0.0010615296551564,0.2087782986335038,5.6,-0.0051204874759604,-0.2087154967612828,-1.5953247428064858
-1.5976327390305276,-1.5955952104295243,0.2066075281827188,-0.0055439392903141,-0.2065331339977154,-0.0046293842814817,-0.1875689895759311,0.818269763983035,-0.0001752753469212,-0.007087573542546,-0.000151723141138,-0.0001851464749923,-0.0068775390194156,-0.0001541584965733,0.2085358922338862,5.634,-0.0051507624773219,-0.2084722715271391,-1.5954984837666475
-1.5977868975271008,-1.595729813695025,0.2065919145608387,-0.0055753566923414,-0.2065166689632245,-0.0042347382743049,-0.0004688775339352,0.0118512314467519,-0.0001759204219284,-0.0070866626948139,-0.0001346032655007,-0.0001861474442748,-0.0068769918770513,-0.0001410167845343,0.2085096245568435,5.668,-0.0051797920395226,-0.2084452764810542,-1.5956408631603856
-1.5979279143116352,-1.5946139905081362,0.2128257764101261,-0.0057735927718726,-0.212747448236348,-0.0038041992159421,0.1872030585371565,0.0129291008517334,-0.0001762997194489,-0.0071549835218809,0.0011158231868888,-0.0001927126462154,-0.0070844777404206,-0.0001266798338908,0.208432613570985,5.702,-0.0052041171592538,-0.2083676355978162,-1.59576678571011
-1.5980545941455262,-1.5933248705552097,0.2180214647685802,-0.0059421514616108,-0.2179404733771232,-0.0229493710388566,0.1560266774310549,-0.5749300847722055,-0.0001680851560261,-0.0073009318826497,0.0012891199529265,-0.0002006500909741,-0.0072573413553395,-0.0007642140555939,0.2137183181981281,5.736,-0.004972261011411,-0.2136604693289583,-1.594063914380789
-1.59881880820112,-1.5938721858326086,0.2180283079506481,-0.0061088946211057,-0.21794270915617,-0.0228776089981644,0.0002055009630015,0.0021550162370028,-0.0001695840685336,-0.0074649937950742,-0.0005473152773989,-0.0002061939947215,-0.0072574139300151,-0.0007618243796388,0.2191809675382308,5.77,-0.0049409711589507,-0.2191252685908255,-1.5933411206942292
-1.5995806325807589,-1.5946262083522924,0.2245911921952915,-0.0064638088833345,-0.2244981576459417,-0.0226719340890024,0.1970836109502516,0.0061764236985573,-0.0001755182601286,-0.0074832758200387,-0.0007540225196838,-0.0002180702908722,-0.0074757065862993,-0.0007549754051637,0.2201299364517511,5.804,-0.0051218933765737,-0.2200703413240662,-1.594066017964073
-1.6003356079859228,-1.5953996825941423,0.2179923789627109,-0.0064384017592467,-0.2178972791675213,-0.0223221540958107,-0.1981625595369567,0.0105039036994519,-0.0001811427775475,-0.0074841512375194,-0.0007734742418499,-0.0002170988997647,-0.0072558989434011,-0.0007433277313904,0.2201878345263881,5.838,-0.0052863051251277,-0.220124368145701,-1.5948067953967353
-1.6010789357173132,-1.5961955615819712,0.2180019608877262,-0.0066006591771473,-0.2179020106591971,-0.022574942883903,0.0002877454959564,-0.0075912548976662,-0.000186618986431,-0.0074839231814788,-0.0007958789878288,-0.0002225326700461,-0.0072560535510313,-0.0007517455980339,0.220195923584903,5.872,-0.0054525667487355,-0.2201284040719394,-1.5955612000136046
-1.6018306813153471,-1.597322967779054,0.2246142251639191,-0.0069696385889981,-0.2245060673655091,-0.0237402737645863,0.1985664947805661,-0.0349949213418433,-0.0001927593006627,-0.0074764090813671,-0.0011274061970829,-0.0002350474988007,-0.007475959416759,-0.0007905511163607,0.2201278562911213,5.906,-0.0056279922078337,-0.2200558993052291,-1.596366037155341
-1.602621232431708,-1.5990993126627722,0.2180135568806189,-0.0069370897276768,-0.2179031614498721,-0.0302583392635094,-0.1982182667657698,-0.1957377026703604,-0.0002030463376816,-0.0074351962341553,-0.001776344883718,-0.000234664075197,-0.0072560575592676,-0.0010076026974748,0.2188608460793071,5.94,-0.005868705316649,-0.2187821479107847,-1.5976143207287692
-1.6036288351291828,-1.6003650311857032,0.2180292034585316,-0.0071571596064138,-0.2179116991515832,-0.030512575957839,0.0004698672045838,-0.0076347355654544,-0.0002164805889042,-0.0074722857352824,-0.001265718522931,-0.000242023260484,-0.007256337139668,-0.001016068779396,0.2192135753985141,5.974,-0.0062559104307347,-0.2191242917243149,-1.599338171809244
-1.6046449039085788,-1.6013234290659777,0.2246231625018813,-0.0076017226613088,-0.2244944964691275,-0.0320474075502598,0.1980167880885794,-0.0460910388114349,-0.0002248038783467,-0.0074851904927756,-0.0009583978802742,-0.0002571297095124,-0.0074755301231507,-0.0010671786714236,0.2202735834885337,6.008,-0.006547518097005,-0.2201762511935595,-1.6005251873681277
-1.6057120825800024,-1.6022614358456926,0.2180196477128317,-0.0076107741607742,-0.2178867662468304,-0.0272406370889051,-0.1983037474189071,0.1443474613019434,-0.000231865112152,-0.0074862200420751,-0.0009380067797151,-0.0002567329387102,-0.0072555132534063,-0.0009071132150605,0.2202755799430464,6.042,-0.0067476000087196,-0.2201722076315895,-1.601433657212474
-1.6066191957950628,-1.60319549257518,0.2180530728450711,-0.0078096160954922,-0.2179131764570902,-0.027320447625219,0.0010037577249082,-0.0023967128022198,-0.0002389359443564,-0.0074867022871668,-0.0009340567294875,-0.0002633644160844,-0.0072563893556057,-0.0009097709059197,0.2203168304541196,6.076,-0.0069493872543524,-0.2202072019670073,-1.6023442576947708
-1.6075289667009829,-1.6039121280090811,0.2246819038980352,-0.0082513036146063,-0.2245303407735924,-0.0279986552994858,0.1990639955845068,-0.0203665968248309,-0.0002451803338725,-0.0074842627661884,-0.0007166354339012,-0.0002782573730267,-0.0074767310449459,-0.0009323552214728,0.2203127580570007,6.11,-0.0071547208362534,-0.2201965515907046,-1.6032773283995454
-1.6084613219224555,-1.604587022851879,0.2180649607341828,-0.0082114738250538,-0.2179102998887872,-0.0202455715980824,-0.1987070019174891,0.2328253363784803,-0.0002494986668031,-0.007482691524232,-0.0006748948427977,-0.0002758914687698,-0.007256320134761,-0.0006741775342161,0.2201548761357148,6.144,-0.0074419947722247,-0.2200290576268101,-1.6046062197530446
-1.6097905367852818,-1.605195807843011,0.2246097327002098,-0.0087562596362971,-0.2244389893508734,-0.0196119534923295,0.1973175341309981,0.0017668815801885,-0.0002549624715764,-0.0074771426864104,-0.000608784991132,-0.0002940273748732,-0.0074737224647548,-0.0006530780512945,0.2200940872301978,6.178,-0.0075736821378317,-0.2199637392221023,-1.6052142329157877
-1.6149469350067502,-1.6108541339175717,0.2064859773837363,-0.0091135200206211,-0.2062847609712133,-0.011117640404074,0.5550902857376511,3.7272432294620415,-0.0002743491483871,-0.0069624965773151,-0.0020851724514037,-0.0003047549506609,-0.0068692260656486,-0.0003702174254556,0.2085028437040076,6.246,-0.0083476603398359,-0.2083356724123561,-1.6108432243559505
-1.615317152432206,-1.6112099242660702,0.2127906644259017,-0.0094704867630489,-0.2125798126523016,-0.0111974791294366,0.1893299412061677,-0.0023975593201985,-0.0002851880848404,-0.0070827596028648,-0.0003557903484985,-0.0003166902533039,-0.0070788486543802,-0.0003728760550102,0.2085132767480839,6.28,-0.0084234971968054,-0.2083430615000136,-1.6112052167678586
-1.615690028487216,-1.611256550150535,0.206543022824476,-0.0092693664721568,-0.2063349197849867,-0.0014808270069805,-0.187616864907679,0.2917913550287113,-0.000286546635515,-0.0070809615228978,-4.662588446469052e-05,-0.0003088424896804,-0.0068709450727379,-4.9311539332452806e-05,0.2084415264318142,6.314,-0.0084306226000004,-0.2082709642360189,-1.6112533461608507
-1.6157393400265485,-1.6113217226842058,0.2065458738824841,-0.0092796692454015,-0.2063373106264957,-0.0017677982460587,8.561735760132854e-05,-0.0086177549272715,-0.0002868978232044,-0.0070810215595212,-6.517253367088749e-05,-0.0003092184042763,-0.0068710232014543,-5.8867681593755005e-05,0.208435440324976,6.348,-0.0084432095367258,-0.2082643632410153,-1.6113149653408354
-1.6157982077081423,-1.611498794601781,0.21280040720781,-0.0095731865992754,-0.2125849651460451,-0.0023091921294266,0.187823823583359,-0.0162580745756129,-0.000287640128219,-0.0070812004005097,-0.0001770719175751,-0.0003190625641474,-0.0070790669280787,-7.689609790990649e-05,0.208216211543055,6.382,-0.0084577541819925,-0.2080443634024705,-1.6114275615809237
-1.615875103806052,-1.613661331542612,0.199485182992243,-0.0089895027702022,-0.1992825307782728,-0.1423088285981244,-0.399856583050059,-4.204193287348282,-0.000294518611722,-0.0070867853015278,-0.0021625369408311,-0.0003150762347599,-0.0066353739991758,-0.0047388839923175,0.207249218357911,6.416,-0.0087995115747333,-0.2070623266217474,-1.6132676936484642
-1.6206139877983696,-1.618090035474409,0.2180371976315618,-0.0108576108284785,-0.2177666912962634,-0.0097157953414695,0.557117556736301,3.9817727704701142,-0.0003224130819912,-0.0071811400360597,-0.0044287039317969,-0.0003627348697283,-0.0072515720373166,-0.0003235359848709,0.2120931814442995,6.45,-0.0098997946041769,-0.2118620109457088,-1.617489920896925
-1.6209375237832406,-1.6211038074137758,0.2246671320340629,-0.0112603591872326,-0.2243847689291445,-0.0102941832542548,0.1990971292042369,-0.0173690063899491,-0.0003560859174291,-0.00728287698827,-0.0030137719393668,-0.000376254098377,-0.0074719482158378,-0.0003427963023666,0.2160655414825737,6.484,-0.0108052575892998,-0.2157951913842999,-1.620826361352513
-1.6212803200856072,-1.6215940996782272,0.2180622063027456,-0.0110039753862194,-0.2177843849850596,-0.0011465685524957,-0.1983461180575781,0.27470314419697,-0.0003774301283041,-0.0074406111207512,-0.0004902922644514,-0.0003665741817826,-0.0072522128533681,-3.8180732798109855e-05,0.2200455848712666,6.518,-0.011170515213577,-0.2197618688744729,-1.6215827063649468
-1.6213185008184052,-1.6216487839941025,0.2180607089976858,-0.011012214930678,-0.2177824692919381,-0.0015527487205702,-4.496411591074182e-05,-0.0121976026448797,-0.0003801344612115,-0.0074724883542681,-5.468431587529744e-05,-0.000366897602907,-0.0072521465739495,-5.170653239499057e-05,0.2200708468562595,6.552,-0.0111840342396664,-0.2197864759582745,-1.6216383812894155
-1.6213702073508,-1.621561384507033,0.2246733005519785,-0.0113577575653935,-0.2243860363837407,-0.0012806535499272,0.1985763229517334,0.0081710261454353,-0.0003800081877067,-0.0074728771224034,8.739948706959488e-05,-0.0003783761082229,-0.0074720467697225,-4.264576321257874e-05,0.2200662404780575,6.586,-0.011193824581046,-0.2197813652004987,-1.6216839921926796
-1.6214128531140126,-1.62083008142193,0.2180453458655906,-0.0110319858611799,-0.2177660858389197,0.0220800205891844,-0.1990376782699063,0.7015217459192702,-0.0003761016064012,-0.0074672646591331,0.0007313030851028,-0.0003647025233584,-0.007251744891679,0.0007352646856198,0.2201006874315571,6.62,-0.0110424483206906,-0.2198235131712003,-1.6209873828155554
-1.6206775884283928,-1.6200850991176958,0.2180198975095987,-0.010870598311177,-0.2177487217010768,0.022653898095923,-0.0007642148946504,0.0172335587609204,-0.0003713134299534,-0.0074669675020434,0.0007449823042342,-0.0003592592449739,-0.0072511681171701,0.0007543748065942,0.2198108487363359,6.654,-0.0108767116593226,-0.2195415823156704,-1.6202986839002815
-1.6199232136217985,-1.6192337443059777,0.2245897998202392,-0.0110289601196437,-0.2243188360837637,0.0239804036282674,0.1972943636828979,0.0398350009713035,-0.0003651775286157,-0.0074616346285126,0.0008513548117181,-0.0003642852860886,-0.0074699629182295,0.0007985474408213,0.2197750269431922,6.688,-0.0106968087259386,-0.21951455703657,-1.6194871935905173
-1.6191246661809773,-1.618252572864662,0.217967140250906,-0.0105298898269183,-0.2177126446704258,0.0283569869551048,-0.1988786657457432,0.1314289287338562,-0.0003582773455448,-0.0074605561863847,0.0009811714413157,-0.0003472256693212,-0.0072499953845389,0.0009442876656049,0.2196810628538034,6.722,-0.0104847001588238,-0.2194307189961248,-1.6185413829800948
-1.6181803785153723,-1.6172715620983598,0.2179729432786217,-0.0103245766659013,-0.2177282873634365,0.0285930190893369,0.000174265096568,0.0070880520790395,-0.0003510390149867,-0.0074619068762743,0.0009810107663021,-0.0003403600021147,-0.0072505143944329,0.0009521475356749,0.2197158301416733,6.756,-0.0102772906607761,-0.2194753364538225,-1.6175887769530883
-1.6172282309796977,-1.6164288158354163,0.2246079538634601,-0.0104252280545655,-0.2243658787755851,0.0293695893629526,0.1992495671122633,0.0233204286371093,-0.0003439549766266,-0.0074643762646677,0.0008427462629432,-0.0003435099605718,-0.007471552175845,0.0009780073257863,0.2197433796216667,6.79,-0.0100638675523695,-0.219512804768743,-1.6166106262952449
-1.6162502236539114,-1.6158805184022518,0.21800640525107,-0.009905828835782,-0.2177812372211389,0.0160093418395241,-0.1982447030747759,-0.4012086343371914,-0.0003391945586976,-0.0074676331555475,0.0005482974331647,-0.0003279343471473,-0.0072522026313849,0.0005331110832561,0.2198680952483533,6.824,-0.0099513252690416,-0.2196427791518052,-1.6160722271169123
-1.615717112570655,-1.6153932620836802,0.2180101020380409,-0.0097898918490709,-0.2177901802382754,0.0155399249025572,0.0001110146237499,-0.0140966047137198,-0.0003344108846532,-0.0074648622840429,0.0004872563185716,-0.0003241302506665,-0.0072524968783853,0.0005174794992551,0.2197992470041047,6.8580000000000005,-0.0098351867255006,-0.2195790930067022,-1.6155574980117338
-1.6151996330714002,-1.6148644933456624,0.2246254957498798,-0.0099708374251896,-0.2244040902967673,0.0155897227556036,0.1986604718269928,0.0014954310224131,-0.0003285779606272,-0.0073699906111224,0.0005287687380177,-0.0003300926583421,-0.0074727419029356,0.0005191377677616,0.218319432869889,6.892,-0.009729375506559,-0.2181025309822936,-1.61537595366193
-1.6191082167162427,-1.6121581968894625,0.2065416562074215,-0.0099745365429566,-0.2063006649762863,0.0234623060487505,0.5557639401424094,4.697504895911832,-0.0002957240855863,-0.0070728902508709,0.0007853989301058,-0.0003294715362039,-0.0068699410467574,0.0007812947914233,0.2081801500999819,6.96,-0.0086803187692804,-0.2079991032714196,-1.6125046066749535
-1.6183269219248193,-1.611459296759034,0.2128129685309143,-0.0101113188650193,-0.212572624779744,0.0236017854640373,0.1883276974021883,0.004188571029635,-0.0002903549654018,-0.0070752969368413,0.0006989001304285,-0.0003339284550801,-0.0070787998376004,0.0007859394559524,0.2082531865599415,6.994,-0.0085201568484225,-0.2080788231407705,-1.611720240932905
-1.617540982468867,-1.610878495033639,0.2065616964835653,-0.009652139392759,-0.2063360624304712,0.0175783505061727,-0.1877258873077799,-0.1808839326686085,-0.000286247014313,-0.0070782796917104,0.0005808017253949,-0.0003194084027885,-0.0068710844107853,0.0005853590718555,0.2083682602391561,7.028,-0.008406345980711,-0.2081986196456289,-1.6111509759329894
-1.6169556233970117,-1.61029483410697,0.2065769690996396,-0.0095320617829286,-0.2063569333959,0.0176827892687938,0.0004586371193487,0.0031362991778108,-0.0002821911972767,-0.0070789099654111,0.0005836609266689,-0.0003153976660915,-0.0068717787927259,0.0005888368826508,0.2083778384514481,7.062,-0.0082894393191539,-0.2082128928608214,-1.610587637121572
-1.6163667865143605,-1.611298430805186,0.2128375129068069,-0.0096957466896214,-0.212616554850477,0.0184721746680148,0.1880043185335537,0.0237052672438763,-0.0002775163584631,-0.0070272046966742,-0.0010035966982158,-0.000320694041659,-0.0070802299836569,0.0006151234164448,0.2083689413414051,7.096,-0.0081666197314258,-0.2082088423624228,-1.609999443691073
-1.6157516630979156,-1.6145704885135934,0.1994701310285722,-0.0089642266868667,-0.1992686021742066,-0.1261991940640566,-0.4014228792262678,-4.344485547509655,-0.000292999103225,-0.0069324673079481,-0.0032720577084075,-0.000312453844216,-0.0066349975459015,-0.004202433162333,0.2023351786258121,7.13,-0.0086121079663236,-0.2021518145006759,-1.613372761166325
-1.6199540962602488,-1.6127518989955896,0.2180161798894976,-0.0107128733087701,-0.2177528163746224,0.0247850004217688,0.556938404231993,4.534059894469234,-0.0003130750014679,-0.007257383805315,0.0018185895180038,-0.0003537496527436,-0.0072513150138745,0.0008253405140449,0.2138316325319382,7.164,-0.0092564297438365,-0.2136311905590363,-1.61409826014322
-1.619128755746204,-1.6115437744254284,0.2246183273313279,-0.010852123059028,-0.2243560215332659,0.0257009360459618,0.1982626859408497,0.027505574300089,-0.0003075819744589,-0.0074415953471284,0.0012081245701611,-0.0003581820907726,-0.0074712090794511,0.0008558411703305,0.2194504421808884,7.198,-0.009063651197963,-0.219263190710044,-1.612109663489964
-1.6182729145758734,-1.6105029181596626,0.217958839765834,-0.0103440550044937,-0.2177132434146635,0.0302590769703919,-0.1999846115763932,0.1368811088417459,-0.0003007103685332,-0.0074630126513224,0.0010408562657657,-0.0003408077528875,-0.0072500231634154,0.001007627263114,0.2196704141733419,7.232,-0.008854568372119,-0.2194918847748842,-1.6111156749046438
-1.617265287312759,-1.609465133193235,0.2179785368925156,-0.0101255909664102,-0.2177432317051043,0.0303358507410881,0.0005915053057535,0.0023055186395245,-0.0002930117748893,-0.0074643511105567,0.0010377849664275,-0.0003335231300699,-0.0072510185362981,0.0010101838296782,0.2197078891417984,7.266,-0.0086342618975078,-0.219538165412372,-1.610105274383694
-1.616255103483081,-1.6085813065415513,0.2246106360737458,-0.0102070084348686,-0.2243785970547619,0.0310623165107626,0.1991621375744821,0.0218157888791147,-0.000285542004041,-0.0074663734810146,0.0008838266516837,-0.000336032450397,-0.0074719815827444,0.0010343751398083,0.219726957162859,7.3,-0.0084080157907057,-0.2195660287351213,-1.6090714168563094
-1.6152207283432725,-1.6078174591945371,0.2180125475905626,-0.0096818916435359,-0.2177974560942578,0.0230858099669181,-0.1981407952907864,-0.2395347310463824,-0.0002790184791388,-0.0074665854452815,0.0007638473470139,-0.0003196225478948,-0.0072527783521351,0.0007687574718983,0.2197814385920142,7.334,-0.0082419894180963,-0.219626843441341,-1.60830596590578
-1.6144519708713745,-1.6074434617115267,0.2180131916336243,-0.0095144834845387,-0.2178054781916695,0.0225848792805174,1.9340632481431914e-05,-0.0150429635555763,-0.0002732713353927,-0.0074405587979294,0.0003739974830105,-0.0003141082484888,-0.0072530407358384,0.0007520764800412,0.2194185593735902,7.368,-0.0080747926560651,-0.2192699293590967,-1.6076055028780325
-1.613699894391333,-1.6072086270274832,0.2246322197613095,-0.0096345672394698,-0.2244255093990017,0.022911057412429,0.1987696134440023,0.0097951390964434,-0.0002712710060039,-0.0074161061038175,0.0002348346840435,-0.0003179836548501,-0.0074734909780602,0.0007629382118338,0.2181890060992858,7.402,-0.0079970441855616,-0.2180424033689052,-1.6074564495947985
-1.612936956179499,-1.6062264528292762,0.2180343148653812,-0.009185384075035,-0.2178407472862006,0.0304592896518647,-0.1981352821600095,0.2266736408238964,-0.0002685804554318,-0.0074629279354582,0.000982174198207,-0.0003021976977781,-0.007254250623804,0.001014294345407,0.2197078861233108,7.436,-0.0079415706291737,-0.219564311036005,-1.6069502451273237
-1.611922661834092,-1.6052130524550423,0.2180074827433553,-0.0089633215540278,-0.2178231424775923,0.0296620696001373,-0.0008057694302078,-0.0239405420939164,-0.0002611262551694,-0.0074670814584914,0.0010134003742336,-0.0002948995977767,-0.0072536567392969,0.0009877469176845,0.2197416447028402,7.47,-0.0077248157871215,-0.2196058233238916,-1.6059576534055062
-1.6109349149164076,-1.604443369704785,0.2246483175923525,-0.00901464524508,-0.2244673757323765,0.0304296264588857,0.1994244699398572,0.0230497555179705,-0.0002543827111434,-0.007470892673755,0.0007696827502574,-0.000296403979098,-0.0074749142867026,0.0010133065610808,0.2197887429128177,7.504,-0.0075041714200239,-0.2196605993857241,-1.6049456196455478
-1.6099216083553267,-1.6037660542921173,0.2180475540409076,-0.0085289955432148,-0.2178806830773356,0.0203573555750282,-0.198221127671018,-0.3024705971128377,-0.0002494248062732,-0.0074731787387106,0.0006773154126678,-0.0002815596587738,-0.0072555223276171,0.0006778999406484,0.2199218289335176,7.538,-0.0073632285294671,-0.2197985298110208,-1.6042837024591257
-1.6092437084146782,-1.6030848112223817,0.2180480070233302,-0.0083813097043558,-0.2178868674667795,0.0206387656166959,1.360307575374212e-05,0.0084507520020318,-0.0002435393459268,-0.0074738209800508,0.0006812430697356,-0.0002766076543159,-0.0072557278953606,0.0006872708950359,0.2199476378738715,7.572,-0.0072196485912147,-0.2198291156342014,-1.6036266210759351
-1.6085564375196424,-1.6054987227151762,0.2246514663674547,-0.0084808485402072,-0.2244913284496435,0.0216041822874062,0.1983020824061406,0.0289914916129238,-0.0002380981268716,-0.0072926647098673,-0.0024139114927945,-0.0002797266580728,-0.0074756620495655,0.0007194192701706,0.2199310281276907,7.606,-0.0070688627259137,-0.2198173976578407,-1.602943134123485
-1.6118204109783452,-1.608648857312192,0.2065462213067768,-0.0084709930251135,-0.2063724395680695,0.0277169138480557,0.5579581314450014,4.424574087613312,-0.0002716608203594,-0.0070727452763146,0.000966509052664,-0.0002789157768653,-0.0068723313109222,0.0009229732311402,0.2086103299382608,7.674,-0.0080758716145837,-0.2084539518805407,-1.609518714903917
-1.610897437747205,-1.6074518723307722,0.2127620645690691,-0.0085297086259608,-0.2125910162505672,0.029550712630806,0.1866619598285975,0.0550690325150236,-0.0002639714852219,-0.0070692133256473,0.0011969849814197,-0.0002805593824998,-0.0070794193217,0.0009840387306058,0.2080871350737052,7.708,-0.0078439444189699,-0.207939241893238,-1.6085007396415676
-1.609913399016599,-1.6062219464948029,0.2065035443236355,-0.0080757541766922,-0.2063455742503371,0.0358541711477019,-0.1879435509139204,0.1892930485554328,-0.0002553191916347,-0.0070702389275251,0.0012299258359693,-0.0002648237506784,-0.0068714664067899,0.0011939438992184,0.2080723845777202,7.742,-0.0075951642515682,-0.2079337170923715,-1.6073069476250954
-1.6087194551173805,-1.6050027654044303,0.2065274654202653,-0.0078302903851075,-0.2063789730699418,0.035818954281922,0.0007183512501424,-0.0010575635369344,-0.0002466467294952,-0.0070710104538141,0.0012191810903723,-0.0002566531747707,-0.0068725735616955,0.001192771177588,0.2080971724033509,7.776,-0.0073479412701161,-0.2079674035068017,-1.6061138131042931
-1.6075266839397924,-1.6061226440238388,0.2127987528754907,-0.0078144168199589,-0.2126552235782797,0.0366005532764089,0.1883269506073701,0.0234714412758827,-0.0002418777556723,-0.0070409330015195,-0.0011198786194082,-0.0002559078801657,-0.0070815756514918,0.0012187984241044,0.2081000861543704,7.81,-0.0070947744850132,-0.2079791096059005,-1.6048960225580295
-1.6099915779643346,-1.6100420312922428,0.2180120222667353,-0.0085428482282766,-0.2178445812890009,0.044132934916457,0.5581456127669241,4.647277170291424,-0.0002614396444553,-0.0070461403690068,-0.003919387268404,-0.0002791495984113,-0.0072544308538933,0.001469626732718,0.2077975058101971,7.844,-0.0081784190612244,-0.2076365018068786,-1.610164133111706
-1.6099915779643346,-1.6142266681278918,0.2180120222667353,-0.0085428482282766,-0.2178445812890009,0.044132934916457,0.5581456127669241,4.647277170291424,-0.00029046239604,-0.0070573295046321,-0.004184636835649,-0.0002791495984113,-0.0072544308538933,0.001469626732718,0.2081791824095026,7.878,-0.0090628297577541,-0.2079818191705009,-1.6143438839020845
-1.6070188631065156,-1.6175646102262615,0.2180493939080578,-0.0078965750115177,-0.2179063612810761,0.0428677105831828,-0.1980772942315765,-0.0681702988402346,-0.0003210294182476,-0.0071191655339689,-0.0033379420983699,-0.0002577800632637,-0.0072564669311261,0.0014274947624199,0.21147332743605,7.912,-0.0098866394669507,-0.2112420947087141,-1.6175646102262615
-1.6055913683440957,-1.61861141530123,0.21806425835359,-0.0075860239867897,-0.2179322670266455,0.042682846862015,0.0004463797457116,-0.0055514630981333,-0.0003460322897312,-0.0072820671987748,-0.0010468050749683,-0.0002474604404054,-0.0072573214594929,0.0014213388005051,0.2174434667354233,7.946,-0.0103962576337355,-0.2171947951796547,-1.618625873978803
-1.6041700295435906,-1.6172961372492956,0.2246648101721021,-0.0074965048057066,-0.2245397054985258,0.0433492679245892,0.1982147693246868,0.0200126445217484,-0.0003523804085638,-0.0074522510114891,0.0013152780519345,-0.0002442402188726,-0.0074773496601966,0.0014435306218888,0.2196840504606187,7.98,-0.0102179840651575,-0.2194462914437787,-1.6173252936012064
-1.6027264989217018,-1.6166874298075575,0.2180484791866117,-0.0069611424759383,-0.2179373345047239,0.0183995267265445,-0.1986886181828953,-0.7492414774187603,-0.0003453137336495,-0.0074693183430579,0.000608707441738,-0.0002295860931037,-0.0072573836930266,0.0006127042399939,0.2199462485288247,8.014,-0.0100978886248143,-0.2197143256304066,-1.6167231813716023
-1.6021137946817077,-1.6160766966044702,0.2180519863051104,-0.006827719864878,-0.2179450641172009,0.0186553976419709,0.0001053188738355,0.0076838112740665,-0.0003404185899114,-0.0074704516126469,0.0006107332030873,-0.0002251121222332,-0.0072576406859671,0.0006212247414776,0.2199559304317732,8.048,-0.0099682016495017,-0.2197299394438134,-1.616130939665848
-1.60149256994023,-1.615441009980269,0.2246477996868772,-0.0068947605867805,-0.2245419697531094,0.0196397201896093,0.1980724739269298,0.0295592356648174,-0.0003355455679665,-0.0074706027518698,0.0006356866242012,-0.0002271538993699,-0.0074773220327418,0.0006540026823139,0.2199003849108151,8.082,-0.0098288758775093,-0.2196806147180701,-1.6155081700381528
-1.6008385672579162,-1.614555058667132,0.2180115912779526,-0.0065485714913477,-0.2179132169992628,0.025962008831104,-0.1992855378055424,0.1898585177626016,-0.0003306383187373,-0.007465130148464,0.0008859513131369,-0.0002149340066107,-0.0072566033861746,0.0008645348940757,0.2195303419078983,8.116,-0.0096284620225497,-0.2193190911372721,-1.6146697684789575
-1.5999740323638405,-1.6136423180478734,0.2179781577283675,-0.0063592001117151,-0.2178853777117507,0.0265740498894588,-0.0010040104980501,0.0183796113620074,-0.0003236530175736,-0.0074635420625208,0.0009127406192586,-0.0002085544016133,-0.0072556757298924,0.0008849158613189,0.2196869641407907,8.15,-0.0094396028623267,-0.2194840680122332,-1.6137779848810818
-1.5990891165025214,-1.612739749839633,0.2245759674917722,-0.0063530329611008,-0.224486088983395,0.0277578489003965,0.1981324253274687,0.0355495198479788,-0.000316837035122,-0.0074636519082375,0.0009025682082404,-0.0002081045390503,-0.0074754833768567,0.0009243363683832,0.2197161984904342,8.184,-0.0092377572740361,-0.2195219162626681,-1.612852766440103
-1.598164780134138,-1.6119895824642867,0.2179893782623028,-0.0059652873635823,-0.2179077428221752,0.0219553068598427,-0.1977954723564398,-0.1742505117283418,-0.0003108005914531,-0.0074662115547554,0.0007501673753462,-0.0001959948144014,-0.0072563997143886,0.0007311117184327,0.2197897519072696,8.218,-0.0090802617716758,-0.219602103563734,-1.6121214873448595
-1.597433668415705,-1.6112513383995968,0.21800384170925,-0.0058063561013831,-0.2179265041907837,0.0216387299390886,0.0004343377461611,-0.0095068144370604,-0.0003052407264296,-0.007466736753259,0.0007382440646899,-0.0001907404276765,-0.0072570215350179,0.0007205697069716,0.2197991704555058,8.252,-0.0089226122419056,-0.2196179918032881,-1.6114018697732695
-1.5967130987087337,-1.610341074287686,0.2246101979198591,-0.0058205196310817,-0.2245347691579692,0.0218050564847741,0.1983890753936689,0.0049947911617276,-0.0002982827426383,-0.007449465525266,0.0009102641119107,-0.0001911121857723,-0.0074770774359131,0.0007261083809429,0.2197530797290567,8.286,-0.0087629576355827,-0.2195782926973478,-1.6106832839071774
-1.599369315012897,-1.604992964590085,0.206549827486588,-0.0059009427737085,-0.2064655179663682,0.0300321850787187,0.5576091549145737,3.952056965278589,-0.000246227482449,-0.0070871895404568,0.0012218020425887,-0.0001930666440511,-0.0068753987706833,0.0010000717631213,0.2075469481896011,8.354,-0.0071391903233822,-0.2074241250779269,-1.6052010675391912
-1.5983692432497756,-1.6041470550865666,0.212782129239741,-0.0058662804846879,-0.2127012488846101,0.0302685181239046,0.1871562088033936,0.0070970884440188,-0.0002388140037514,-0.0070738369288047,0.0008459095035182,-0.0001917807821563,-0.0070830487490986,0.001007941653526,0.2081191637594023,8.388,-0.0069632291690037,-0.2080026436453461,-1.6042604674353482
-1.5973613015962498,-1.6037414008320023,0.2065309732346424,-0.0054858448217018,-0.2064581032845182,0.0119827647937258,-0.187722402555515,-0.5491217216269904,-0.0002348337804569,-0.0070788781197093,0.0004056542545642,-0.0001813101442691,-0.0068750910198461,0.000399026067631,0.2083250910764281,8.422,-0.0068869224135067,-0.2082112241731276,-1.6038608866613937
-1.5969622755286186,-1.603341537352374,0.2065527664226761,-0.0054040323964441,-0.2064820615712628,0.0119488609755384,0.0006544500911018,-0.0010181326782986,-0.0002321171290926,-0.0070805473931421,0.0003998634796282,-0.0001785895132082,-0.0068758881879364,0.0003978970704854,0.2083768860102587,8.456,-0.0068071110739258,-0.2082656713483036,-1.6034694437158945
-1.5965643784581331,-1.603545006942011,0.2128365981733112,-0.0054837775460281,-0.2127659411320647,0.0123723912687253,0.1887036561752282,0.0127186274230296,-0.0002289226010601,-0.0070559283662853,-0.0002034695896369,-0.0001811535298336,-0.0070851431731492,0.0004120006292485,0.2084157196310249,8.49,-0.0067263169581552,-0.2083071502601301,-1.603075490702553
-1.5961523778288846,-1.6065804629765128,0.1994815908856299,-0.0050575234198321,-0.1994174680390855,-0.0949340388101487,-0.4010512699003375,-3.222415317683907,-0.0002366468152557,-0.0069063690505823,-0.0030354560345018,-0.000178914790278,-0.006640324336032,-0.0031613034923779,0.2021529891655328,8.524000000000001,-0.0070416133294942,-0.2020303113650967,-1.605636465048887
-1.5993136813212625,-1.6065593178236206,0.2180172168793008,-0.0062164316120178,-0.217928572779728,0.0198007561431623,0.5566254052153413,3.44548933793727,-0.0002632795528836,-0.0073008331114403,2.1145152892199093e-05,-0.0002046180003827,-0.0072570890997448,0.0006593651795673,0.2169521555020914,8.558,-0.0078523610925968,-0.2168100048481968,-1.6069982097544808
-1.5986543161416953,-1.6054910171015755,0.2246223042724626,-0.006256716413746,-0.2245351488662494,0.0203863073040144,0.1983509727676229,0.0175841189445071,-0.000262177675907,-0.0074425903626709,0.0010683007220448,-0.000205814158535,-0.0074770905079577,0.0006788640332236,0.2189813159354023,8.592,-0.0076989771683271,-0.2188459332027032,-1.6059617203805383
-1.5979754521084717,-1.6045083108449152,0.2179883549997301,-0.0059240034062319,-0.2179078454281335,0.0275305818955415,-0.1992176958778546,0.2145427805263411,-0.000255394653609,-0.0074631669015239,0.0009827062566605,-0.000193946454454,-0.0072564205717422,0.0009167683771215,0.2200446636801899,8.626,-0.0075013635976105,-0.2199167650687513,-1.6048931195669336
-1.59705868373135,-1.6035391393540932,0.2179762183218386,-0.0057239112218151,-0.2179010523017606,0.027952933015809,-0.0003644648015462,0.0126832168248474,-0.0002484244118001,-0.0074652997177238,0.0009691714908219,-0.0001872324624274,-0.0072561926184696,0.0009308326694264,0.2196908588804742,8.66,-0.0072861177045912,-0.2195700024239087,-1.6039677300878257
-1.5961278510619237,-1.602730999116771,0.224577745805711,-0.0056882882228973,-0.2245056954472822,0.0291255220330326,0.1982440685847578,0.0352128834001087,-0.0002414965551147,-0.0074677859781432,0.0008081402373221,-0.0001857979957227,-0.0074761302577052,0.0009698798836999,0.21971469087335,8.694,-0.0070736216319281,-0.2196007952230139,-1.602996468403158
-1.5951579711782236,-1.6021415999652229,0.2179928557009929,-0.0053101391401598,-0.2179281706411222,0.0174043317969884,-0.1977444475891314,-0.3519876947761023,-0.0002366528268824,-0.0074703779052062,0.0005893991515484,-0.0001747280285437,-0.0072570588367634,0.0005795642488397,0.2198314667052433,8.728,-0.0069500735106311,-0.2197215743434753,-1.6024170585569046
-1.5945784069293838,-1.6015683039414577,0.2179999130941227,-0.0051840027025562,-0.2179382670047299,0.0169537231628586,0.0002119337276211,-0.0135317908147077,-0.0002320287739212,-0.0074707816672395,0.0005732960237649,-0.000170582037818,-0.007257392555992,0.0005645589813231,0.219839967449978,8.762,-0.0068263744506851,-0.2197339570941788,-1.6018528812693211
-1.5940138479480608,-1.601089371437021,0.2246080076316326,-0.0052143726681048,-0.2245474725084423,0.0169833498766896,0.1984412774026982,0.000889691106035,-0.0002269661686027,-0.0074535827406911,0.0004789325044369,-0.0001715276449537,-0.0074774794568746,0.0005655455508937,0.2196272510927546,8.796,-0.0067004009426792,-0.2195250191886274,-1.6013091194253055
-1.5934483023971668,-1.6010524997113098,0.2180156556094789,-0.0049380629899357,-0.2179597247767081,0.0250293135423619,-0.1979685291938037,0.2416205305006712,-0.0002241506313775,-0.0074110045920842,3.6871725710874166e-05,-0.000161416125995,-0.0072581264474348,0.0008334761409606,0.2179268412340631,8.83,-0.0065974943695808,-0.2178269524147549,-1.6010748483618065
-1.5926148262562063,-1.600409431986815,0.2180285618072237,-0.0047566786370115,-0.2179766679534087,0.0248712807875637,0.0003875735058498,-0.0047457283723191,-0.0002238357193491,-0.0074552816285347,0.0006430677244948,-0.0001553948923222,-0.0072586877345944,0.0008282136502258,0.2194272614219824,8.864,-0.0065972986504877,-0.2193280618290037,-1.6008668520598746
-1.5917866126059803,-1.5996610597198602,0.2245999982344849,-0.0047140719745056,-0.2245505215588462,0.0246859722047028,0.1973404332510882,-0.0055648223081339,-0.0002185275534003,-0.0074699896797967,0.0007483722669547,-0.0001539086113721,-0.0074775959761326,0.0008220428744166,0.219782037671765,8.898,-0.0064281630927826,-0.2196880124230854,-1.6000483985207996
-1.5909645697315635,-1.5989714990216528,0.2180250226178246,-0.0043968835303405,-0.2179806824072343,0.0201823105507229,-0.1974467152150262,-0.135245094714111,-0.0002133590904611,-0.0074720221393726,0.0006895606982073,-0.0001439803679401,-0.007258805312177,0.000672070941339,0.2198546325859313,8.932,-0.0062827323084614,-0.2197648441954151,-1.5993769742040027
-1.5902924987902247,-1.598287116684524,0.2180506010985702,-0.004250882716828,-0.2180091618156805,0.0202481964078574,0.0007681225449131,0.0019785542683013,-0.0002084125389889,-0.0074736650169434,0.0006843823371287,-0.0001391102590093,-0.0072597521966249,0.0006742649403816,0.2199021229651063,8.966,-0.0061372530972165,-0.2198164639170175,-1.5987089727729322
-1.5896182338498432,-1.5989264278290307,0.224662308148024,-0.0042283234151347,-0.224622514418067,0.0211795933370014,0.1985497612448595,0.0279698777520726,-0.0002007666947574,-0.0073278967437696,-0.0006393111445066,-0.0001381688933578,-0.0074799786989714,0.0007052804581221,0.2199430322214725,9.0,-0.0059885360080219,-0.219861490168825,-1.5980273607765596
-1.5923354530903104,-1.6014618765143505,0.2065619819876093,-0.004448820606081,-0.2065140682807453,0.0115101925167796,0.5604957151013247,3.4320709082039143,-0.0002186316757464,-0.0070490529770883,0.0006895717204757,-0.0001468309779963,-0.0068769466288032,0.0003832894108087,0.2076226759036522,9.068,-0.0064670577788484,-0.2075219330891991,-1.6019494941313992
-1.5919521636795018,-1.6005858588717443,0.2127970865735995,-0.0045015646417454,-0.2127494676138772,0.0124225584572308,0.1872403779576634,0.0273983765901253,-0.0002139888445076,-0.0070677645454539,0.0008760176426061,-0.000148440036146,-0.0070845880059278,0.0004136711966257,0.2077131341404793,9.102,-0.0063186058887696,-0.2076170063219368,-1.601220887221512
-1.591538492482876,-1.5995890854614752,0.2065071556842696,-0.0042830984986527,-0.2064627337222337,0.0286037494598969,-0.1888868134933899,0.4859216517317156,-0.0002074956958302,-0.0070724434266353,0.0009967734102691,-0.0001393560033557,-0.0068752758554303,0.0009525048570145,0.2081299341017791,9.136,-0.0061375247033947,-0.2080394199658471,-1.600289511452499
-1.5905859876258612,-1.598589323839574,0.2064961796887209,-0.0040862226317211,-0.2064557458891385,0.0289981073260552,-0.0003296094759367,0.0118425785633118,-0.00020048578077,-0.0070732298319432,0.0009997616219012,-0.0001327550066342,-0.0068750409059713,0.0009656369739576,0.2081108741458701,9.17,-0.0059362213723179,-0.2080261935756577,-1.5993245172591195
-1.5896203506519038,-1.5996493214084888,0.2127653326803778,-0.0040048631720861,-0.2127276377473428,0.02999681497508,0.1882628526023091,0.0299912206914344,-0.0001953778745682,-0.0070215769367289,-0.0010599975689149,-0.0001298272003042,-0.0070838957061305,0.0009988939386701,0.2081371460034533,9.204,-0.0057290975811945,-0.2080582826694674,-1.5983253930258845
-1.5886214567132335,-1.6037690003588652,0.1993626641456298,-0.0035534772047872,-0.1993309927106125,-0.1103244261647161,-0.4024825385810202,-4.2138510852791615,-0.0002158534007732,-0.0070104444918734,-0.0041196789503763,-0.0001305264236238,-0.0066374897037533,-0.003673803391285,0.2020675843086077,9.238,-0.0060055838462765,-0.2019783196062925,-1.600521373287077
-1.5922952601045186,-1.607249518105205,0.2179880497522287,-0.0046861495315034,-0.2179376742037699,0.0211126959868355,0.5593208890870541,3.947060725271821,-0.0002471701633599,-0.0071705159543826,-0.0034805177463399,-0.0001535009819449,-0.0072573787373946,0.0007030527763616,0.2109469075942263,9.272,-0.007110693543681,-0.2108270282978321,-1.6045111648689026
-1.591592207328157,-1.611158879194873,0.2246094470838746,-0.0046706145621514,-0.2245608805623448,0.0215561847511584,0.1988407607100872,0.0133179809105985,-0.0002726338206819,-0.0071397837080094,-0.0039093610896678,-0.0001528510215512,-0.0074779324317229,0.0007178209522135,0.2104820400788234,9.306,-0.0078305754187672,-0.2103363289694731,-1.608007971468254
-1.5908743863759436,-1.6147350311032462,0.2180245260447651,-0.0043772153135337,-0.2179805815735508,0.0210442576335807,-0.1977453765498361,-0.0153731867140461,-0.000301508221993,-0.0071630722047773,-0.0035761519083732,-0.0001432212431423,-0.0072588037788892,0.0007007737791982,0.210142148211601,9.34,-0.008626179227376,-0.209965024437223,-1.611857121680886
-1.5901736125967452,-1.616513746043008,0.2180389930167781,-0.0042247394884139,-0.2179980597437181,0.0208653912127669,0.0004344436039961,-0.0053713639884025,-0.000327935779683,-0.0072908121660525,-0.0017787149397618,-0.0001381652143245,-0.0072593836162594,0.0006948175273851,0.212808232655916,9.374,-0.0094342555940723,-0.2125990091875317,-1.615143053756821
-1.58947879506936,-1.6155149525007997,0.224662277669705,-0.0041970017152735,-0.2246230713536382,0.021297981987396,0.1988974370248305,0.0129907139528251,-0.0003381306472347,-0.007445083100005,0.0009987935422086,-0.0001371111299212,-0.0074799971461446,0.0007092228001802,0.2184166058193496,9.408,-0.0099878759222664,-0.2181881207403523,-1.6165408346677457
-1.58876957226918,-1.6141804112936908,0.2180428197400815,-0.0039187261325249,-0.2180076026786772,0.0391487001328899,-0.1987825204091136,0.5360576019667856,-0.0003292983558234,-0.0074627055164562,0.0013345412071086,-0.0001257648717443,-0.0072597361138083,0.0013036517144252,0.2196946796246595,9.442,-0.0097866656196866,-0.2194765897115914,-1.6153577395506715
-1.5874659205547546,-1.6128374653008684,0.2180688592118377,-0.0036349509453979,-0.2180385619324638,0.0389597826935121,0.0007819661188046,-0.0056731963777113,-0.0003192415589616,-0.00746336976773,0.0013429459928224,-0.0001163373277904,-0.0072607605405214,0.0012973607636939,0.2197207591484101,9.476,-0.0095034931504703,-0.2195151375616101,-1.614062419872645
-1.5861685597910606,-1.6114968146503788,0.22467971989469,-0.003453692978849,-0.2246531738853565,0.0404729663546395,0.1985243448303993,0.0454409507846061,-0.0003087678668991,-0.0074662411785406,0.0013406506504896,-0.0001099701771344,-0.0074810258757301,0.0013477497796094,0.2197325203750406,9.51,-0.0092090274454578,-0.2195394596055034,-1.6127187761797537
-1.5848208100114511,-1.6101601449464338,0.2180476115380213,-0.0030579048248804,-0.2180261684191094,0.0404304125048263,-0.1991624131131731,-0.0012778933877856,-0.0002989372928434,-0.0074678043780701,0.0013366697039449,-9.69441878598288e-05,-0.0072603377175102,0.0013463327364107,0.2196848895845711,9.544,-0.0086364149594109,-0.2195150633747809,-1.610119200155322
-1.5834744772750404,-1.6087095185771505,0.2180333007632874,-0.0027641849449294,-0.2180157781522346,0.04084659008434,-0.0004297529950138,0.0124978252106228,-0.0002886907104531,-0.0074585941085471,0.0014506263692835,-8.711324439687968e-05,-0.0072599857345644,0.0013601914498085,0.2196841667499831,9.578,-0.0083179083955225,-0.2195266396603339,-1.6086684103412665
-1.5806916010785348,-1.607621932380097,0.2179781932026124,-0.0021569188095496,-0.21796752146392,0.0313853721138601,-0.1990065752235292,-0.3404772838655393,-0.0002793363898003,-0.0074637857129658,0.0010875861970531,-6.80357867792893e-05,-0.0072583546454433,0.0010451328913915,0.2196802912525124,9.612,-0.0080880314073348,-0.219531351093056,-1.607621932380097
-1.5796464681871432,-1.606537311717792,0.217979903930615,-0.0019291277870676,-0.2179713673480563,0.0315959919523149,5.137321329101368e-05,0.0063249200737185,-0.0002712986337936,-0.0074642024911281,0.0010846206623049,-6.04248260283025e-05,-0.0072584789604679,0.001052146532012,0.2196899278868812,9.646,-0.0078572559940537,-0.2195493747273878,-1.606569164158205
-1.578594321655131,-1.6054571652264988,0.2246002454715359,-0.001751413809462,-0.2245934166789895,0.0323615983526259,0.1988090552829096,0.0229911831925229,-0.0002632028114193,-0.0074642667321456,0.0010801464912932,-5.429570960389315e-05,-0.0074789907278709,0.0010776412251424,0.2197004853701532,9.68,-0.0076212123881553,-0.2195682590758863,-1.6054923889387154
-1.5775166804299885,-1.6047665563509603,0.2065174686224448,-0.001387859974223,-0.206512805149982,-0.0411724728015839,-0.5430263318045357,-2.2082303649912878,-0.000247105620075,-0.0072522613074238,0.0006906088755382,-5.0933150133495054e-05,-0.0068768425515764,-0.0013710433442927,0.2106888584957201,9.714,-0.0071482947065191,-0.2105675591752403,-1.6047310440660678
-1.578887723774281,-1.6062969943332328,0.2065372582634796,-0.0016711567122028,-0.2065304972304055,-0.0411022981645036,0.0005942835145569,0.0021073464588659,-0.0002448021440506,-0.0070861861040868,-0.0015304379822722,-6.0359297074591885e-05,-0.006877425298609,-0.0013687065288779,0.2075830054448001,9.748,-0.0073301904367091,-0.2074535428901071,-1.6061157628241296
-1.5802564303031592,-1.6087363062326847,0.2127967255752939,-0.002013049024028,-0.2127872036782142,-0.0427327671448174,0.187971991345776,-0.0489630324418545,-0.0002568407292447,-0.007028798309481,-0.0024393118994519,-7.207934667801769e-05,-0.0070857637626679,-0.0014230011459224,0.2066718593237538,9.782,-0.0077849585356604,-0.2065251845585315,-1.6084734481147396
-1.5816794314490816,-1.6121738041152032,0.2180296374169534,-0.0023727925213732,-0.2180167256148451,0.0311673516459627,0.1571444997495319,2.219222786509913,-0.0002827550463133,-0.0071434877883432,-0.0034374978825184,-7.524987874217889e-05,-0.0072599966280267,0.0010378728098105,0.2113251400432778,9.816,-0.0086710962119538,-0.211147168829691,-1.6118398637964046
-1.5806415586392712,-1.613711082026214,0.2180477153572,-0.0021466956310722,-0.218037147913749,0.0309420439218214,0.0005428810884883,-0.0067659977219611,-0.0003080449876933,-0.0072806889716105,-0.0015372779110107,-6.774773858884419e-05,-0.0072606725374529,0.0010303700625966,0.2162384300607567,9.85,-0.0092655688025812,-0.2160398293600173,-1.6136583030245086
-1.5796111885766746,-1.6130768173841092,0.224649502406077,-0.0019802286682708,-0.2246407746285597,0.031346471460967,0.1982518633296383,0.0121449711455143,-0.0003177378423666,-0.0074506625194497,0.0006342646421046,-6.204082970455975e-05,-0.0074805708241397,0.0010438374996502,0.2197581829592333,9.884,-0.0092778624084027,-0.2195622468610544,-1.6130273856966129
-1.5785673510770246,-1.6141471757853183,0.2180527253281011,-0.0016944759686217,-0.2180461413880192,-0.0307119498788233,-0.1981014137530292,-1.8636162564501608,-0.0003203074343205,-0.0074847340914772,-0.001070358401209,-6.014230628709051e-05,-0.0072609063609851,-0.0010227079309648,0.2203535470710946,9.918,-0.0095083201501213,-0.220148308089651,-1.6139600217639216
-1.5795900590079892,-1.6152008516189018,0.2180776634910419,-0.0019176918584097,-0.2180692316023705,-0.0307586568984646,0.0007488937820068,-0.0014026132024422,-0.0003282250148302,-0.0074844790899338,-0.0010536758335835,-6.758143484498333e-05,-0.0072616714070943,-0.0010242632747188,0.2203550544649487,9.952,-0.0097339822276577,-0.2201399546157902,-1.614984787858195
-1.580614322282708,-1.6160178345950236,0.2246787639760999,-0.0022058596522746,-0.2246679353290596,-0.0312896170683097,0.1982312457975373,-0.0159447498451988,-0.0003357442481808,-0.0074904305591118,-0.0008169829761217,-7.735619562498153e-05,-0.0074814025889109,-0.0010419442483747,0.2203306063040341,9.986,-0.0099624941763026,-0.2201052584198987,-1.616027864008909
-1.5816562665310827,-1.6149454360709286,0.2180372839874252,-0.002367825220828,-0.2180244266414586,0.0423071248315461,-0.199443843503744,2.2101123693650435,-0.0003351452626429,-0.0074943658766112,0.001072398524095,-7.373771906536522e-05,-0.0072602665133924,0.0014088272568904,0.2203111060825316,10.02,-0.0097858525532797,-0.2200936631371153,-1.6152292810996278
-1.5802474392741923,-1.6135501330637108,0.2180200118347597,-0.0020605009790655,-0.218010274749022,0.0427408515967401,-0.0005186832632291,0.0130248277836021,-0.0003255962127726,-0.0074663732953371,0.0013953030072177,-6.345172990307398e-05,-0.0072597884974034,0.0014232703581714,0.2193359792949908,10.054,-0.0094681583072038,-0.2191315262383812,-1.6139771188178684
-1.578824168916021,-1.6120559620313062,0.2245891238260288,-0.0018029466625264,-0.2245818869015829,0.0446888369984054,0.1972706303684417,0.0584980601100696,-0.0003139961040914,-0.0074592193837612,0.0014941710324045,-5.447698322683723e-05,-0.0074786187208485,0.0014881382720469,0.2195216207659458,10.088,-0.0091432878972316,-0.2193311247181669,-1.612459346433971
-1.577336030643974,-1.6105274100117404,0.2179782901209901,-0.0014255033019463,-0.2179736289196624,0.0444854856718611,-0.1985235346858461,-0.0061066464427735,-0.0003026902845832,-0.0074590125398942,0.0015285520195658,-4.209633432722752e-05,-0.0072585543285002,0.0014813666728729,0.2195674129051731,10.122,-0.008819936512718,-0.2193901946983556,-1.610976743783367
-1.575854663971101,-1.6090075091950866,0.2179905185442032,-0.0011026648417253,-0.2179877297129758,0.0444232346519946,0.000367219916307,-0.0018693999959888,-0.0002913151968388,-0.0074599271437494,0.0015199008166537,-3.135299378355981e-05,-0.007259015896351,0.0014792937139114,0.2195810846084846,10.156,-0.0084959567215035,-0.2194166617128809,-1.6094976474040663
-1.5743753702571897,-1.6075787315360248,0.2246026061106333,-0.0008038607728289,-0.2246011675827759,0.0453740377102547,0.1985611881810836,0.0285526443921949,-0.0002801100462612,-0.0074611163288917,0.0014287776590617,-2.112163032620987e-05,-0.0074792362479635,0.0015109554557514,0.2195686288538632,10.19,-0.0081647349923681,-0.2194167721011088,-1.6079902457884223
-1.572864414801438,-1.606541932443302,0.217995422069316,-0.0004508333964941,-0.2179949558875797,0.0368052310371109,-0.1984139351746919,-0.2573215217160297,-0.000269513023386,-0.0074477250822146,0.0010367990927229,-1.056759723866928e-05,-0.0072592394087049,0.0012256141935357,0.2191702026508588,10.224,-0.0078970407807768,-0.2190278851583178,-1.606835671722563
-1.5716388006079025,-1.6060410489798642,0.2180063755412809,-0.0001836646407354,-0.2180062981749512,0.0364348904383027,0.0003289330920379,-0.0111213393035495,-0.0002630217797774,-0.0074109974527938,0.0005008834634376,-1.715412625368554e-06,-0.0072596116575806,0.0012132818515954,0.2180092730337132,10.258,-0.0077274841254921,-0.2178722770748458,-1.60624942042997
-1.5704255187563068,-1.6049655474645177,0.2246121930058909,8.328800482321731e-05,-0.2246121775639599,0.0371668603757615,0.198372896835136,0.021981079202965,-0.0002594023257957,-0.0074539502460636,0.0010755015153465,7.398608742998293e-06,-0.0074795818904578,0.0012376564505128,0.2197358024279721,10.292,-0.0076068950238694,-0.2196040938069248,-1.6054216138448774
-1.569187862305794,-1.6037816432450729,0.2179887388240164,0.0003506269942347,-0.2179884568384211,0.0345684275514422,-0.198902527984218,-0.0780310157453219,-0.0002510202009833,-0.0074647782416029,0.001183904219445,1.5850549107484057e-05,-0.0072590072966821,0.001151128637463,0.2196787995627505,10.326,-0.0073517639712354,-0.2195557481457553,-1.6042685461069983
-1.568036733668331,-1.6026020795980416,0.2180207986965924,0.0006016479339037,-0.2180199685443141,0.034446004095549,0.0009627589362149,-0.0036763800568551,-0.0002422577913914,-0.0074664042667982,0.001179563647031,2.419534951104528e-05,-0.0072600518811511,0.0011470519363817,0.2197190470811606,10.36,-0.007101316462177,-0.2196042598738861,-1.603121941962583
-1.566889681731949,-1.6013240994196436,0.2246675014821362,0.0008776939529233,-0.2246657870605818,0.0354015051788731,0.1996006842505654,0.0286937262259508,-0.0002333626290385,-0.0074672213635917,0.0012779801783979,3.363352358772013e-05,-0.0074813517642797,0.0011788701224564,0.219766789281097,10.394,-0.0068443135696341,-0.2196601853834295,-1.6019448933307754
-1.5657108116094929,-1.5999072296237171,0.2180878493391318,0.0011090842889429,-0.2180850292005572,0.0411854350978132,-0.1975871514415745,0.1736915891573602,-0.0002231652561253,-0.0074665908418399,0.0014168697959262,4.190912026186843e-05,-0.0072622038891197,0.0013714749887571,0.2197141515949023,10.428,-0.0065419682079187,-0.2196167367552716,-1.6005756340045334
-1.5643393366207354,-1.5985013152162204,0.2180716986495702,0.0014080770309679,-0.218067152663999,0.0417021493550566,-0.0004850056925395,0.0155169446619638,-0.000212422903641,-0.0074686619132278,0.0014059144074969,5.192764109584768e-05,-0.0072616013168775,0.0013886815735233,0.2197537845170722,10.462,-0.0062405512089631,-0.2196651572967004,-1.599198068776524
-1.562950655047212,-1.5983687328296416,0.2246570834580881,0.0017625676501269,-0.2246501691590129,0.0435148394997582,0.1977593035590966,0.054435139480528,-0.0002010571894763,-0.0074034712087663,0.0001325823865787,6.411006299072929e-05,-0.0074808055199543,0.0014490441553419,0.2198623561411501,10.496,-0.0059396503392555,-0.2197821107410367,-1.5978149268282362
-1.5615016108918702,-1.600936822916906,0.2065597921065842,0.0019198869406101,-0.206550869640509,-0.0481660132993597,-0.5434622027478673,-2.753178762736276,-0.0002076509226878,-0.0071808891892485,-0.0025680900872644,5.841300319831238e-05,-0.0068781923082896,-0.0016039282428686,0.2116588123267712,10.53,-0.0061247691644299,-0.2115701775729788,-1.5997373577935592
-1.5631055391347388,-1.6025074679554088,0.2065556265691417,0.0015885598037666,-0.2065495179009639,-0.0477745194848479,-0.0001250912144872,0.01175657100636,-0.0002189566750465,-0.0070922610180071,-0.0015706450385026,4.742468474234272e-05,-0.0068781381450069,-0.0015908914988454,0.2086370060963293,10.564,-0.0064266045468162,-0.2085380038909901,-1.6016040026487417
-1.5646964306335842,-1.6039222331293508,0.2127700743182557,0.0012978673108747,-0.2127661158780679,-0.0484778222778086,0.1866200525259444,-0.0211202039928127,-0.0002301068815142,-0.0070941570499417,-0.001414765173942,3.7496898643529946e-05,-0.0070851434832215,-0.001614311481851,0.2088096758991969,10.598,-0.0067685368048762,-0.2086999464749541,-1.6032168678755467
-1.5663107421154352,-1.6051906619363812,0.2065104439731458,0.0009263169773052,-0.2065083664330416,-0.0367776881145536,-0.1879768872405358,0.3513553802779262,-0.0002392814371674,-0.0070927989828646,-0.0012684288070303,2.663221331816803e-05,-0.0068767457842077,-0.0012246970142146,0.2087328622493656,10.632,-0.0070217880363595,-0.2086147220969438,-1.604442744557388
-1.56753543912965,-1.6064799914464218,0.2065188626889786,0.0006734336185015,-0.2065177646923157,-0.0370693339606016,0.000252814289273,-0.0087581335149527,-0.0002483057992423,-0.007092304453692,-0.0012893295100406,1.8177613465098702e-05,-0.0068770536671788,-0.001234408820888,0.2087347830187679,10.666,-0.0072800099644529,-0.2086077925121916,-1.6056802429353056
-1.568769847950538,-1.6091202256683368,0.2127777423542755,0.0004311892983096,-0.2127773054561305,-0.0386718083383753,0.18795434430321,-0.0481223536868991,-0.0002612668758161,-0.0071551301830575,-0.0026402342219149,9.79308205192389e-06,-0.0070854915631422,-0.0012877712176678,0.208633512616225,10.7,-0.0075489796576795,-0.2084968956428667,-1.6069871943623883
-1.570057619168206,-1.6134943966440365,0.2108849328207111,0.0001557822940606,-0.2108848752819241,-0.1016895087006325,-0.0568411271340663,-1.8924234343020183,-0.0002913837108171,-0.0072260942635651,-0.0043741709756996,-6.705646591278667e-06,-0.0070224617061616,-0.003386260639731,0.2120803925036716,10.734,-0.0084426694622515,-0.211912279532977,-1.6106156654095294
-1.5734438798079369,-1.6173546139942836,0.2180149239482483,-0.0005772053944626,-0.2180141598568613,-0.0285217642837594,0.2141138476737891,2.197229562068261,-0.0003244305344609,-0.0072780167177639,-0.0038602173502471,-2.2671915351047777e-05,-0.0072598612934809,-0.0009497747506491,0.2137190075318092,10.768,-0.0094156270269766,-0.213511498866151,-1.6148666959255793
-1.5743936545585862,-1.6191949410723103,0.224643444905551,-0.0008081143583503,-0.2246419913778748,-0.0296610124036168,0.1990546834024845,-0.0342116552509712,-0.000353042011252,-0.0074045465636615,-0.0018403270780267,-3.060799046735759e-05,-0.0074805637926549,-0.0009877117130404,0.2171955191884404,10.802,-0.0103052593627648,-0.2169509050107934,-1.6182610713490149
-1.5753813662716265,-1.6199035029582167,0.2180357136467018,-0.0009996988516891,-0.2180334218133369,-0.0201228601510647,-0.1984303681336103,0.286430998575136,-0.0003647141485054,-0.0074778967935587,-0.0007085618859064,-3.5725930079565056e-05,-0.0072605012328477,-0.0006700912430304,0.2201851084450937,10.836,-0.0106982879737427,-0.2199250522687412,-1.61940316439603
-1.576051457514657,-1.6206136108459914,0.2180348621234049,-0.0011457964281112,-0.2180318514614722,-0.0206489301117033,-2.557127017890328e-05,-0.015797896715873,-0.0003700546783356,-0.0074790575582658,-0.0007101078877747,-4.065455614970241e-05,-0.007260446944859,-0.0006876093727197,0.2202379709347868,10.87,-0.0108522446651118,-0.2199704358026336,-1.620091373545578
-1.5767390668873766,-1.6211546911715042,0.2246794400659028,-0.0013352036573589,-0.2246754726700736,-0.0212721255121728,0.1995368751500895,-0.0187145765906749,-0.0003749349448483,-0.007477779849087,-0.0005410803255128,-4.711561084701217e-05,-0.0074816768447449,-0.0007083617795553,0.2202640661028289,10.904,-0.0110096226275688,-0.2199887429523381,-1.6208009069540386
-1.5774474286669322,-1.621622513471091,0.2180794152207434,-0.0014504577127512,-0.2180745916319573,-0.0139536131506798,-0.1981989442990809,0.2197751459907799,-0.0003780196838174,-0.0074766136265309,-0.0004678222995868,-4.999073501153439e-05,-0.0072618723954324,-0.0004646553179176,0.2201985848013618,10.938,-0.0111086467023851,-0.2199182000584856,-1.6212660611672316
-1.57791208398485,-1.6220624237857229,0.2180647463499743,-0.0015516826919874,-0.2180592256280436,-0.0134869843933481,-0.0004405066297032,0.0140128755955481,-0.0003810792612042,-0.0074745924839951,-0.0004399103146317,-5.3304991434164925e-05,-0.0072613603414926,-0.0004491165802984,0.2201696346316847,10.972,-0.0112062623745097,-0.2198842597764632,-1.6217166392358573
-1.5783612005651484,-1.6222685248787343,0.2246419792835435,-0.001699372008255,-0.2246355514855241,-0.0132856908115771,0.1975145025095842,0.0060448523054348,-0.0003842822599517,-0.0074696496008663,-0.0002061010930114,-5.8247252498708695e-05,-0.0074803510756209,-0.0004424135040255,0.2199624637863791,11.006,-0.0112890828784459,-0.219672579269097,-1.6221416541985936
-1.578803614069174,-1.622429101895558,0.2179987387239884,-0.0017455598730118,-0.2179917500869689,-0.0051405275409419,-0.1994967135001528,0.2445994976166724,-0.0003855212698513,-0.007470313676698,-0.0001605770168235,-5.875180763064341e-05,-0.0072591202401821,-0.0001711795671133,0.2200555817894256,11.04,-0.0113285337449491,-0.2197637900107116,-1.62229942200843
-1.5789747936362877,-1.6225768572886206,0.2179832601551464,-0.0017827489911183,-0.2179759700377565,-0.0046769834572958,-0.0004648218871475,0.0139202427521351,-0.0003866585576279,-0.0074698775531013,-0.0001477553930626,-5.993413815918808e-05,-0.0072585951222955,-0.0001557435491279,0.2199891411343066,11.074,-0.0113584277239378,-0.2196957176110858,-1.6224510600816415
-1.5791305371854152,-1.6229193330413114,0.2245931036676261,-0.0018717845093169,-0.2245853036995246,-0.0046228191278618,0.1984937991735646,0.0016265564394602,-0.0003884069379653,-0.0074719787171745,-0.0003424757526908,-6.290951699846893e-05,-0.0074786857569983,-0.0001539398769577,0.220010547413679,11.108,-0.011392038873391,-0.2197154123487331,-1.622599005009842
-1.579284477062373,-1.6233187055006753,0.2180085890303697,-0.0018504674424761,-0.218000735460358,-0.0111903323338548,-0.1977331722899803,-0.197222618798591,-0.0003912497748048,-0.0074722850027109,-0.0003993724593638,-6.297649066992615e-05,-0.0072594128126133,-0.0003726380667173,0.220086192569754,11.142,-0.0114763892893544,-0.2197867708683351,-1.622964963250422
-1.5796571151290904,-1.6238544760100253,0.2179987318816628,-0.0019316153437584,-0.2179901740083183,-0.0114792736015957,-0.0002960104716781,-0.0086769149471731,-0.0003934258357558,-0.0074638710026627,-0.00053577050935,-6.571357242250268e-05,-0.0072590602932913,-0.0003822598109331,0.2200461920516061,11.176,-0.0115602195539048,-0.2197423217322458,-1.6233559448717405
-1.5800393749400234,-1.623205807663564,0.2246073645242587,-0.002076027123224,-0.2245977700466256,-0.0123152897760659,0.1984574367145914,-0.0251055908249317,-0.0003839053834608,-0.0072458531660234,0.0006486683464612,-7.066874761809312e-05,-0.0074790913248043,-0.0004100991495429,0.2190398835582662,11.21,-0.0116336518686735,-0.2187307219697711,-1.6239333544950685
-1.5838473079196356,-1.6236469421696842,0.2065340783118845,-0.0026953958391974,-0.2065164892821144,-0.0128649195845709,0.2130906356872132,2.677841812896605,-0.0003727520483354,-0.007080385038136,-0.0004411345061201,-9.123291860486153e-05,-0.0068769796145868,-0.0004284018221662,0.2084779584695474,11.244,-0.0110159769051405,-0.208186712881624,-1.6236609541189386
-1.5838473079196356,-1.6241175388783955,0.2065340783118845,-0.0026953958391974,-0.2065164892821144,-0.0128649195845709,0.2130906356872132,2.677841812896605,-0.0003761015802825,-0.0070792957590058,-0.0004705967087113,-9.123291860486153e-05,-0.0068769796145868,-0.0004284018221662,0.2085461178145862,11.278,-0.0111175039648578,-0.208249572295183,-1.6241311797853384
-1.5847285148901924,-1.6244022227411268,0.2065695157649718,-0.002877872244303,-0.206549467911976,-0.007979045341201,-0.1871460991613545,0.1687299358173734,-0.0003788194109879,-0.007079508360646,-0.0002846838627312,-9.675008839236743e-05,-0.0068780844242558,-0.0002657022098619,0.2085437595392074,11.312,-0.0111738217784856,-0.208244196436802,-1.6244022227411268
-1.5849942171000544,-1.624682806217634,0.2065956871264633,-0.0029331243577777,-0.2065748646877382,-0.0081292435580919,0.0007859267715163,-0.004510456963691,-0.0003808531382636,-0.0070807277253425,-0.0002805834765071,-9.860729931158604e-05,-0.0068789296442533,-0.0002707038104844,0.2085797669425504,11.346,-0.0112324692249895,-0.2082771010286976,-1.6246745414244013
-1.585264920910539,-1.6249715174491144,0.2128731677731309,-0.0030798680032906,-0.2128508867044012,-0.0082548428998218,0.188512932332359,-0.0037717520038999,-0.0003829148694078,-0.0070807754787023,-0.0002887112314804,-0.000103537069163,-0.0070879202939943,-0.000274886268564,0.2085755299059025,11.38,-0.0112897865046117,-0.2082697587174103,-1.6249508418499004
-1.5855398071791031,-1.627595883847385,0.2108242543831637,-0.0031081706522042,-0.2108013413415904,-0.0998760259406042,-0.0615289306296443,-2.751386878101574,-0.0003970501777543,-0.0071846739724933,-0.0026243663982705,-0.0001151784126749,-0.0070194995549689,-0.0033258716638221,0.2141573185684651,11.414,-0.0121160948184582,-0.2138143057486687,-1.6274022264855494
-1.5888656788429252,-1.6282982235985053,0.2180371295093321,-0.0039395752649513,-0.2180015357546847,-0.0058133279714169,0.216602856641695,2.824705644720339,-0.0004260729687364,-0.0074238238511339,-0.0007023397511203,-0.0001318938689831,-0.0072594383363694,-0.0001935838214481,0.2199125623609754,11.448,-0.0126359252152225,-0.2195492393020873,-1.6282868511698934
-1.5890592626643734,-1.6283268162572015,0.22461348550715,-0.004101873652744,-0.224576028338306,-0.0053301994097035,0.1974881681026376,0.0145083652166185,-0.0004292168526569,-0.0074570065677365,-2.8592658696258155e-05,-0.0001372595405796,-0.0074783695186405,-0.0001774956403431,0.2199315749921155,11.482,-0.0126444095127076,-0.2195677949668108,-1.628320516608872
-1.589236758304717,-1.6283127166382756,0.2179804476420929,-0.0040194257055597,-0.2179433866196557,0.0009397480013661,-0.1991903262779898,0.1882867090411322,-0.0004302263638293,-0.0074679783675298,1.409961892595568e-05,-0.0001337366755018,-0.0072575168056665,3.1293608445492896e-05,0.2199933474157775,11.516,-0.0126470241320225,-0.2196295191630738,-1.6283162511074591
-1.5892054646962712,-1.6282648492232137,0.2179713522920467,-0.0040124380404925,-0.2179344184863758,0.001288872000606,-0.000273133635021,0.0104842041813781,-0.0004298035401599,-0.007465814019099,4.786741506213055e-05,-0.0001334618051893,-0.0072572189389611,4.2919437620181365e-05,0.2199535785931895,11.55,-0.0126349867522386,-0.2195903773978294,-1.6282718450006544
-1.5891625452586509,-1.6283791682014093,0.2245930173561112,-0.0041246925242445,-0.2245551387893471,0.0013100711552459,0.1988488007226585,0.0006366112504481,-0.0004296491595141,-0.0074690309334007,-0.0001143189781958,-0.0001371926108797,-0.0074776890519018,4.362536946969086e-05,0.2199758901055878,11.584,-0.0126264351253746,-0.2196132176435889,-1.62822706946552
-1.5891189198891813,-1.630991432450437,0.2180045073765483,-0.0039941843864155,-0.2179679144451743,-0.0762252986935442,-0.1978531525394271,-2.3283894849486537,-0.0004408211530382,-0.0074893512117235,-0.002612264249028,-0.0001422214694038,-0.0072581548859715,-0.002538302446495,0.2206728061277104,11.618,-0.0131733182504006,-0.220279256968403,-1.630527995578187
-1.5916572223356762,-1.6336591969471193,0.2180032329874761,-0.0045474128326071,-0.2179557997152671,-0.0765509371362415,-3.826994210854184e-05,-0.0097789322131329,-0.0004599232635311,-0.0074864860457314,-0.0026677644966819,-0.0001606827948408,-0.007257727188665,-0.0025491462066368,0.2205654673835046,11.652,-0.0137327302798856,-0.220137542280193,-1.6330980933535142
-1.5942063685423131,-1.6367967520989162,0.2246170432225036,-0.0052578140882896,-0.2245554975880863,-0.079340267542823,0.1986129199707956,-0.0837636758733186,-0.0004789136132969,-0.007448495064846,-0.0031375551517969,-0.0001849666125816,-0.0074774579945477,-0.002642030909176,0.2190461408078075,11.686,-0.0142984707813608,-0.2185789686500245,-1.6361188404087297
-1.5968483994514893,-1.639867968986117,0.218031638250177,-0.0056795335704189,-0.2179576522549244,-0.0683125446975171,-0.1977599090788759,0.3311628482073851,-0.0005022133930421,-0.0074331087211962,-0.0030712168872009,-0.0001973869234871,-0.0072577683537317,-0.0022748077384273,0.2194744328239274,11.72,-0.0150055493393041,-0.2189608644310903,-1.639220080761009
-1.5991232071899166,-1.642257673620649,0.2180051375403482,-0.0061745796196745,-0.2179176784028925,-0.0690280238433847,-0.0007958171119765,-0.0214858602362647,-0.0005260267624729,-0.0074813996880771,-0.0023897046345318,-0.0002139568708051,-0.0072564158866104,-0.0022986331939847,0.2206080244556238,11.754,-0.0156131480354184,-0.2200548342178313,-1.6416287978072968
-1.6014218403839011,-1.6443346471643316,0.2246251715275249,-0.0068781859249729,-0.2245198393063551,-0.071515305322639,0.1987998194347365,-0.0746931375151436,-0.0005435346689504,-0.0074790783093455,-0.0020769735436827,-0.0002379493324754,-0.0074762307429642,-0.0023814596672438,0.2206596138940796,11.788,-0.0161405964708437,-0.2200685037651905,-1.6440087479452834
-1.6038033000511454,-1.6453379265232346,0.2180506445971406,-0.0071958850234758,-0.2179318766219331,-0.0291631849490777,-0.1974332411526831,1.2718354466534898,-0.0005538871760635,-0.0074704462633158,-0.0010032793589029,-0.0002431501133345,-0.0072570138853528,-0.0009711340588042,0.2203338128980633,11.822,-0.0163439989276806,-0.2197267912778292,-1.6450428737046543
-1.6047744341099497,-1.646333246375088,0.2180729680654111,-0.0074082810281295,-0.2179470962712421,-0.0291076788719938,0.0006703744225365,0.0016668491616803,-0.0005613828051089,-0.0074698782117712,-0.0009953198518533,-0.0002502164383159,-0.0072575174943435,-0.0009692857064373,0.22032919152833,11.856,-0.0165567517260386,-0.2197062279768369,-1.6460127499442962
-1.605743719816387,-1.6478010016305866,0.2246707931396358,-0.0078500603742689,-0.2245336096046945,-0.0295683286027624,0.1981328851118531,-0.0138333252483066,-0.0005659062062413,-0.0074326511052409,-0.0014677552554986,-0.0002650914324857,-0.0074768391751266,-0.0009846253424719,0.2203085796833458,11.89,-0.0167716160357101,-0.2196692586085814,-1.6469978904934048
-1.606728345158859,-1.6513030019594104,0.2065468932313964,-0.007420049836715,-0.2064135702030333,-0.0539019976997974,-0.544261258505686,-0.7307408137247758,-0.0005691300237986,-0.007227847488085,-0.0035020003288237,-0.0002532595166188,-0.006873346326487,-0.0017949365234032,0.2129974800779593,11.924,-0.0168762279657269,-0.2123278583917086,-1.650111515858814
-1.6085232816822623,-1.6539533803098212,0.2065506127734323,-0.0077906772346171,-0.2064036360757882,-0.0537820527408314,0.000111697959036,0.0036019507197013,-0.0005872355772091,-0.0071511281233432,-0.0026503783504108,-0.0002655873794888,-0.006873004972581,-0.0017909423562696,0.2107735927617432,11.958,-0.0173371093939704,-0.2100593536207199,-1.653144019949322
-1.6103142240385315,-1.6553711880551356,0.2127856774613949,-0.0084066540763299,-0.2126195491951427,-0.0549145616139705,0.1872391798186954,-0.034009275469643,-0.0005945740264012,-0.0070684307623751,-0.0014178077453144,-0.0002864183468047,-0.007079970951513,-0.0018286549017452,0.2088963914775572,11.992,-0.0175755823003775,-0.2081557140199314,-1.655031310849093
-1.612142878940277,-1.656218468460496,0.2065158224750464,-0.0085362845547199,-0.2063393243629186,-0.0251836308733677,-0.1882839335239779,0.8928207429610449,-0.0006019902142415,-0.0070665315178469,-0.0008472804053603,-0.0002871425231056,-0.0068709793715037,-0.0008386149080831,0.2085911611312599,12.026,-0.0177238403093092,-0.207836806140725,-1.6558681813943548
-1.61298149384836,-1.6570718696206237,0.2065141445949573,-0.0087092500056346,-0.2063304167642917,-0.0248350698845069,-5.0386789463008334e-05,0.0104672969627878,-0.0006080749381001,-0.0070673460737313,-0.0008534011601277,-0.000292862273389,-0.0068706820360232,-0.000827007827154,0.2086366180245171,12.06,-0.0178994705219018,-0.2078673792006427,-1.6566944855634953
-1.6138085016755144,-1.65845589588471,0.2127927655897533,-0.0091498577597134,-0.2125959576057661,-0.0257623079611373,0.1885471770208994,-0.0278449872861981,-0.0006200235044497,-0.0071295162596988,-0.0013840262640862,-0.000307730174361,-0.0070793136830092,-0.0008578848551058,0.2086526930020912,12.094,-0.0180794261082952,-0.2078679404059693,-1.6575535397465646
-1.61466638653062,-1.661877038490449,0.2223044761586632,-0.0097493826983099,-0.2220905888532416,-0.0906863034455429,0.2856369540213207,-1.949669534066235,-0.0006680445629314,-0.0074402455691657,-0.0034211426057391,-0.0003358242028494,-0.0073951150086422,-0.0030198539047365,0.2220409087763539,12.128,-0.0199555752863243,-0.2211423527622444,-1.660791174198151
-1.6176862404353567,-1.663545896102354,0.2180140313402412,-0.0102189134816501,-0.2177744054485702,-0.0162982670989832,-0.1288421867394002,2.233874965362153,-0.0006785586776323,-0.0073754452127995,-0.001668857611905,-0.0003422610728106,-0.0072517948439964,-0.0005427322943961,0.2180034715898516,12.162,-0.0199933004413292,-0.2170847336011677,-1.6626363045290622
