Time,yaw_world,delta_position_x_world,delta_position_y_world,delta_yaw,Theta_calculated,linear_velocity_x,world_velocity_x,world_velocity_y,angular_velocity_yaw,linear_acceleration_x,angular_acceleration_yaw,kinematic_delta_x,kinematic_delta_y,kinematic_delta_yaw,twist.twist.linear.x,odom_world_velocity_x,odom_world_velocity_y,odom_angular_velocity,odom_yaw_world
0.6020000000000001,-4.1302246175577844e-06,6.793284099693153e-07,2.84495182523159e-07,-3.040884890050785e-06,8.838844770764354e-07,9.32986444410175e-06,9.329864444098105e-06,8.246522355367828e-12,-8.276266869531232e-05,0.0004024544794709404,-0.00274464940273785,3.106844859883478e-07,-2.9719502900875367e-13,-2.7559968675539004e-06,3.793445283149331e-05,3.79344528313943e-05,-8.666922687892485e-11,-5.7299559652600224e-05,-2.284710083047439e-06
0.636,-3.986798797306226e-06,-2.2514825559483143e-09,8.870161938290266e-09,1.43425820251558e-07,-1.8721123904774652e-06,1.1023749617329064e-05,1.1023749617309745e-05,-2.06376982481109e-11,-1.117869786127435e-05,5.086742261943886e-05,0.002149668793814954,3.6709086225588933e-07,-9.252443758331578e-13,-3.722506387804359e-07,-3.119871954321517e-07,-3.1198719542944546e-07,1.2994660747697323e-12,-5.646895563881846e-05,-4.165126305820094e-06
0.67,-3.7064430672542232e-06,-3.131363390806996e-09,1.770616520069268e-08,2.803557300520032e-07,-2.2443630292579005e-06,3.2702411561507665e-07,3.27024115614253e-07,-7.339608347616231e-13,2.9723677838364034e-06,-0.00032122298803945903,0.00042495692627960216,1.088990304994362e-08,-2.892471990913545e-14,9.897984720175224e-08,1.195235573108455e-07,1.195235573099279e-07,-4.68335078513777e-13,7.410713008198441e-06,-3.918349562647086e-06
0.7040000000000001,-3.4031347405163533e-06,-3.2649649650551282e-09,1.9224290603858663e-08,3.0330832673786993e-07,-2.1453831820561486e-06,-6.872089163989114e-08,-6.872089163973299e-08,1.4743264518001233e-13,7.344636609607091e-06,-1.1884234452101134e-05,0.00013129936413725784,-2.288405691601299e-09,5.688426381884862e-15,2.4457639909991616e-07,7.876867014861074e-08,7.876867014809265e-08,-2.856904162259051e-13,8.750589682788833e-06,-3.626954926210218e-06
0.7380000000000001,-3.096447090942018e-06,-3.301947604228417e-09,1.944775029905088e-08,3.066876495743353e-07,-1.9008067829562326e-06,-6.027458292239034e-08,-6.027458292228146e-08,1.1457033605866846e-13,7.790783822874485e-06,2.536429044294536e-07,1.3397814212234072e-05,-2.007143611310589e-09,4.48281262910447e-15,2.594331013017204e-07,7.813996792880795e-08,7.813996792837443e-08,-2.60290692124255e-13,8.885053076190479e-06,-3.331082658773075e-06
0.772,-2.7892677635525155e-06,-3.306824813975595e-09,1.948026406850545e-08,3.0717932738950246e-07,-1.6413736816545125e-06,-4.9631992769892745e-08,-4.963199276982588e-08,8.146464670053242e-14,7.969990979496223e-06,3.195973018768046e-07,5.381596294947071e-06,-1.6527453592342116e-09,3.257762310622561e-15,2.6540069961722426e-07,7.791648550710893e-08,7.791648550675049e-08,-2.3633778358419344e-13,8.944847167325563e-06,-3.0332192481011336e-06
0.806,-2.4820158124015375e-06,-3.3075635563761807e-09,1.9485065116953137e-08,3.07251951150978e-07,-1.3759729820372882e-06,-4.177630293752229e-08,-4.1776302937482745e-08,5.748306413141753e-14,8.302142940086765e-06,2.3590660157268629e-07,9.974533351067334e-06,-1.391150887817476e-09,2.3653797841562804e-15,2.764613599048893e-07,7.788540744167848e-08,7.788540744138909e-08,-2.1231657533691446e-13,9.225435164453397e-06,-2.7260122571248354e-06
0.8400000000000001,-2.17475247824589e-06,-3.3076854588642846e-09,1.9485816515896204e-08,3.0726333415564763e-07,-1.099511622132399e-06,-3.272334775522645e-08,-3.272334775520667e-08,3.597970117194438e-14,8.114188228732418e-06,2.7186051598486005e-07,-5.644285626256673e-06,-1.0896874802479287e-09,1.5549902231044485e-15,2.7020246801678955e-07,7.788190991725024e-08,7.788190991702072e-08,-1.8908117312043503e-13,8.955526539026997e-06,-2.4277932233752364e-06
0.874,-1.8674867274714955e-06,-3.307716989198184e-09,1.948597372347649e-08,3.072657507743945e-07,-8.293091541156092e-07,-2.5852308202087696e-08,-2.5852308202078805e-08,2.1439555847006914e-14,8.150465321173537e-06,2.063375241182809e-07,1.089402175408978e-06,-8.60881863128942e-10,9.948225083586382e-16,2.714104951950788e-07,7.788224104152826e-08,7.788224104135167e-08,-1.6585540615628253e-13,8.955759506373241e-06,-2.1295664318130074e-06
0.908,-1.5602198768345428e-06,-3.307734308677368e-09,1.9486044777750067e-08,3.072668506369527e-07,-5.578986589205305e-07,-1.9988483581025385e-08,-1.9988483581022275e-08,1.1151548183708527e-14,8.419199106648336e-06,1.7609082946133062e-07,8.070083647891858e-06,-6.656165032478854e-10,5.862111574436391e-16,2.803593302513896e-07,7.788303226165208e-08,7.788303226152277e-08,-1.4192628750267045e-13,9.227205594935758e-06,-1.8223004855016467e-06
0.9420000000000001,-1.2529521198937995e-06,-3.3077502958889227e-09,1.9486103397525767e-08,3.0726775694074336e-07,-2.775393286691409e-07,-1.3197035336403799e-08,-1.3197035336403291e-08,3.662696327688394e-15,8.178460015824036e-06,2.0394739473338094e-07,-7.229402126855845e-06,-4.3946127670216507e-10,2.651409389933997e-16,2.7234271852694044e-07,7.788373151064612e-08,7.788373151055566e-08,-1.1870031900778119e-13,8.955847175897681e-06,-1.5240707745442538e-06
0.9760000000000001,-9.456835019012115e-07,-3.307766505145082e-09,1.948615757640937e-08,3.072686179925881e-07,-5.1966101422005164e-09,-7.0798923080506966e-09,-7.0798923080506966e-09,3.679144017370367e-17,8.171644614227641e-06,1.8369798883943249e-07,-2.046667146064563e-07,-2.357604138580746e-10,7.820201729728524e-17,2.721157656537805e-07,7.788428908406533e-08,7.788428908400681e-08,-9.54736938424948e-14,8.955872594755677e-06,-1.2258402171388898e-06
1.01,-6.384140250981952e-07,-3.307782048267427e-09,1.9486211533248365e-08,3.0726947680301633e-07,2.6691915551157996e-07,-6.244440800276255e-10,-6.244440800276033e-10,-1.6667608650517727e-16,8.397432796172603e-06,1.9385730414483695e-07,6.780425884233081e-06,-2.079398786491983e-11,1.1640626594004653e-18,2.796345121125477e-07,7.788471543068057e-08,7.788471543064771e-08,-7.154268171179339e-14,9.227288096770715e-06,-9.185715235164249e-07
1.044,-3.3114370874381064e-07,-3.307797147300562e-09,1.9486265268042757e-08,3.0727031635438456e-07,5.465536676241277e-07,6.4109882967909874e-09,6.41098829679003e-09,3.5039491667062993e-15,8.113584284410427e-06,2.1127424555010846e-07,-8.523979332197463e-06,2.1348591028313416e-10,4.67573264891479e-17,2.7018235667086727e-07,7.788514789139548e-08,7.788514789139144e-08,-2.5087299434683403e-14,8.955945657151503e-06,-3.2210633367052267e-07
1.078,-2.3872556993376006e-08,-3.3078124683783017e-09,1.948631811465873e-08,3.0727115175043463e-07,8.16736024294995e-07,1.4181084894959426e-08,1.4181084894954695e-08,1.158220289729768e-14,8.059408471925653e-06,2.3333623417923238e-07,-1.6269012758190414e-06,4.722301270020911e-10,2.3090535014971474e-16,2.683783021151243e-07,7.788517912922275e-08,7.788517912922275e-08,-1.1554388770951756e-15,9.227362656324038e-06,-1.4835157214932199e-08
1.112,2.833994220684241e-07,-3.3078277894560415e-09,1.9486370517185492e-08,3.0727197906180016e-07,1.3589849961359592e-06,3.432190023680384e-08,3.432190023677214e-08,4.6642947460677284e-14,7.877996290852597e-06,3.082633998664726e-07,-1.0400845205970192e-05,1.1429192778849605e-09,1.174395733553291e-15,2.623372764853915e-07,7.788510269498501e-08,7.788510269498188e-08,2.2072593091498315e-14,8.95599337187256e-06,2.833994220684241e-07
1.146,5.906722285066807e-07,-3.3078431105337813e-09,1.9486422475623044e-08,3.072728064382566e-07,1.621322272621351e-06,4.758821825090064e-08,4.758821825083809e-08,7.715583816451727e-14,7.740314842028147e-06,3.9838792835125526e-07,-4.1345780427762565e-06,1.5846876677536746e-09,2.0409024009634225e-15,2.577524842395373e-07,7.78849124393294e-08,7.788491243931622e-08,4.530057397735604e-14,8.956016779914347e-06,5.816347808395719e-07
1.18,8.979458522778632e-07,-3.3078582095669162e-09,1.9486473989971387e-08,3.0727362377118256e-07,1.8790747568608881e-06,6.642344444244044e-08,6.642344444232317e-08,1.2481461771546803e-13,7.78331918635797e-06,5.656224081543484e-07,1.2914217516463019e-06,2.2119006999306165e-09,3.4203770476511378e-15,2.591845289057204e-07,7.788462760839565e-08,7.788462760836488e-08,6.923229826432294e-14,9.227435452655047e-06,8.88908381412985e-07
1.214,1.2052202830308423e-06,-3.307873308600051e-09,1.9486524394096705e-08,3.072744307529791e-07,2.1382592857666084e-06,8.59504834472225e-08,8.5950483447026e-08,1.8378441934701264e-13,7.308052704032493e-06,5.863975677111728e-07,-1.427226673650079e-05,2.8621510987878773e-09,5.144617666120234e-15,2.4335815504428204e-07,7.788424548684599e-08,7.78842454867911e-08,9.245991546408748e-14,8.956063424726066e-06,1.187145293456363e-06
1.248,1.5124955201219933e-06,-3.307888407633186e-09,1.9486575464355838e-08,3.07275237091151e-07,2.381617440810891e-06,1.1307414192161488e-07,1.130741419212942e-07,2.6929934850498934e-13,6.988372062214434e-06,8.145242785102817e-07,-9.600019273815572e-06,3.765368925981972e-09,7.663344736844668e-15,2.327127896717407e-07,7.788378253403557e-08,7.788378253394965e-08,1.1568724397406493e-13,8.956086289717198e-06,1.4853829669039458e-06
1.282,1.8197715538160228e-06,-3.307903728710926e-09,1.9486624536213526e-08,3.0727603369402957e-07,2.614330230482631e-06,1.5274966524880705e-07,1.5274966524828504e-07,3.993380675556036e-13,6.765072360162074e-06,1.1914571569727379e-06,-6.705696758329135e-06,5.086563852772224e-09,1.1518702627363552e-14,2.2527690959339708e-07,7.788321568174267e-08,7.788321568161752e-08,1.3961804205481228e-13,9.227506386130786e-06,1.792658929562101e-06
1.316,2.1270483834569052e-06,-3.307918161610246e-09,1.948667471829424e-08,3.0727682964088246e-07,2.8396071400760284e-06,1.92362751473464e-07,1.9236275147268844e-07,5.462346425679848e-13,6.030444512119017e-06,1.189582168908617e-06,-2.2060896337629342e-05,6.405679624046681e-09,1.5869265581743347e-14,2.008138022535633e-07,7.78825809871627e-08,7.788258098699246e-08,1.6284454263860322e-13,8.956132026943569e-06,2.090898126059322e-06
1.35,2.434325996953874e-06,-3.307933260643381e-09,1.9486724012196532e-08,3.072776134969687e-07,3.040420942329592e-06,2.4474685997586116e-07,2.447468599747299e-07,7.4413347863887e-13,5.389499581355552e-06,1.5730963514233378e-06,-1.9247595518422366e-05,8.150070437167158e-09,2.173990630944102e-14,1.794703360591399e-07,7.788188007216584e-08,7.788188007194356e-08,1.8607056394325923e-13,8.956154202726375e-06,2.38913806101011e-06
1.384,4.174259991801143e-06,1.2118303188257684e-05,1.1399483579310754e-07,1.7399339948472686e-06,3.219891278388732e-06,3.1428726136110206e-07,3.1428726135947285e-07,1.011970811763544e-12,4.789330216698868e-06,2.088300341899126e-06,-1.8023104043744272e-05,1.0465765803282578e-08,2.969589382615886e-14,1.5948469621607232e-07,7.78811030507248e-08,7.788110305044167e-08,2.099998789194173e-13,9.227575975129641e-06,2.6964163409819273e-06
1.4180000000000001,5.116734454750251e-06,0.0005970921170117549,6.116852757642732e-08,9.424744629491086e-07,3.379375974604804e-06,0.03369143313506091,0.033691433134868526,1.1385601968641233e-07,2.4889478980416238e-05,1.011745310744731,0.0006036080709825036,0.0011219247233912706,3.7375730929809925e-09,8.288196500478608e-07,0.02587838253633,0.02587838253597465,1.3561603504309493e-07,7.639933961861056e-05,5.2405143502816594e-06
1.452,4.5553706165390295e-06,0.0015057419097432856,-3.815642934945629e-08,-5.613638382112218e-07,4.208195624652664e-06,0.06705704067925074,0.06705704067865698,2.8218914518774584e-07,1.7176567313048395e-06,1.001970196522217,-0.0006958505179913332,0.0022329994546031505,8.430199325203129e-09,5.719796915245116e-08,0.0518254769957906,0.051825476995159644,2.5573237849028604e-07,-9.189873777524481e-06,4.934491553490094e-06
1.486,2.9734640441784614e-06,0.0024150678709553564,-1.0561266305941786e-07,-1.5819065723605681e-06,4.265393593805116e-06,0.09760449247619675,0.09760449247530886,4.163215769333068e-07,-0.06898028465730548,0.9173408948031835,-2.0715316010221256,0.0032502267553740772,-3.720597376237092e-06,-0.0022970434790882724,0.0785392416138278,0.0785392416133329,2.7881588892743635e-07,-4.1575718345125273e-05,3.5500201325974226e-06
1.52,-0.0018708407506305108,0.0032117628387833275,-1.524887551118681e-06,-0.001873814214674689,-0.0022927780854944675,0.11474866710094149,0.11474836549387836,-0.0002630929987626766,-0.3170730555554542,0.5148400788211633,-7.450233360304765,0.0038210033086691513,-2.8935127145934677e-05,-0.010558532749996625,0.0987787070966382,0.09877866619923967,-8.988649859993583e-05,-0.027433292325012723,-0.0009099786142903263
1.554,-0.009655131922576806,0.003759877479541762,-1.821789043310318e-05,-0.0077842911719462945,-0.012851310835491092,0.1147569313715276,0.11474745509315921,-0.0014747364011595144,-0.3169695327305148,0.0002481762938773842,0.0031087935417225703,0.0038207601008181306,-6.927535715041175e-05,-0.010555085439926145,0.114029951756755,0.11402714004002948,-0.0008007695919416931,-0.1835594213315256,-0.00702250734463013
1.588,-0.02109137928820929,0.004039525708156688,-5.825097531975132e-05,-0.011436247365632484,-0.023406396275417234,0.11829308731278736,0.1182606848030356,-0.0027685620650075653,-0.32688330104033453,0.10619086910689939,-0.2977107600546461,0.003937501216765371,-0.00011362633152723646,-0.010885213924643141,0.1187818615964634,0.11876333321908071,-0.0020979339872806446,-0.31953407529028205,-0.017662992051796524
1.6219999999999999,-0.03526300972182882,0.004066817787438559,-0.00011086090293255246,-0.014171630433619525,-0.034291610200060364,0.11483205388758973,0.11476454416310633,-0.003937004327751357,-0.4127566263746404,-0.1039349376936225,-2.5787785385677435,0.0038206379454619344,-0.00015736343289751722,-0.013744795658275527,0.119665660960085,0.11960780945155883,-0.003720528351405761,-0.40339479358138614,-0.031096038678056683
1.6560000000000001,-0.04942870275085602,0.004064696745135876,-0.00016856108616303267,-0.0141656930290272,-0.04803640585833589,0.11487136825845454,0.11473886111345866,-0.005515885781624438,-0.41294078279601926,0.0011806117376819733,-0.005530222864230243,0.003819420709306037,-0.0002099443614585658,-0.013750928067107442,0.1196710460278219,0.11955072500670744,-0.0053650170329357216,-0.41292381609234874,-0.0448464017539319
1.69,-0.06372040668428307,0.004026488835869202,-0.00022376188446671108,-0.014291703933427045,-0.06178733392544335,0.11835059060111994,0.11812475043971914,-0.007307915515930187,-0.42530692565799005,0.10448115143139339,-0.3713556415006245,0.003931699319453575,-0.0002712017185976876,-0.01416272062441107,0.1196560529091961,0.11944780402772047,-0.007056423369074833,-0.4252369573283553,-0.05900679243296613
1.7240000000000002,-0.07965903278465655,0.0036160937213502997,-0.00025454409223413244,-0.01593862610037348,-0.07595005454985441,0.09463225726342593,0.09435944957340266,-0.007180417186745554,-0.3842043370667786,-0.7122622623932133,1.2343119697060498,0.0031405542769499368,-0.00025920301384242634,-0.012794004424323728,0.1044888215818386,0.1042049255407888,-0.007697228631134685,-0.44220921572340155,-0.0737323593165554
1.758,-0.09797160604228698,0.0035523143220856923,-0.0003113374810657099,-0.018312573257630426,-0.08874405897417814,0.11478478470339341,0.11433308702059997,-0.010173102365763046,-0.7296097669743477,0.6051810042032276,-10.372535432659731,0.003802801952081033,-0.00038498145558219085,-0.02429600524024578,0.105247634766673,0.10481331093522563,-0.009551673925270971,-0.5149240549515363,-0.09087933034644156
1.792,-0.1162804049342025,0.0035647725350904658,-0.00037826852182099024,-0.01830879889191551,-0.11304006421442392,0.11828002223352474,0.11752513220211121,-0.013341924915070824,-0.7515116382694703,0.1049620879919317,-0.6577138527063863,0.0039076192802785644,-0.0004932083956857719,-0.025025337554373365,0.1051423023744847,0.10451343353674733,-0.01148241956067907,-0.5569757461986065,-0.10942662269485516
1.826,-0.1342307745747287,0.0035573209643953163,-0.00044280147718223084,-0.017950369640526206,-0.13806540176879728,0.12627026035430403,0.12506868554765627,-0.017378220430331555,-0.8541736068265184,0.23994709071409265,-3.0829419987101536,0.00415599572637764,-0.000637846203654233,-0.028443981107323067,0.1054017582978348,0.10455583742152573,-0.013326946888115952,-0.5210880895218988,-0.1267788560759344
1.86,-0.15329534359510527,0.0036461452504477077,-0.0005220332737136957,-0.01906456902037656,-0.16650938287612035,0.12626798625896976,0.12452161315402137,-0.020927785630965076,-0.8542043673262419,-6.829115117912354e-05,-0.0009237387304355364,0.004136099287061435,-0.0007557738224468985,-0.02844500543196386,0.1084156266635959,0.10728314719152829,-0.015629281286773298,-0.5371166658942246,-0.14466484105021207
1.8940000000000001,-0.17471438202574394,0.003842695887726011,-0.0006289657175606589,-0.02141903843063866,-0.1949543883080842,0.13008729373362782,0.12762298593667082,-0.025200743075304097,-0.8801740067744994,0.11469391815789959,-0.7798690525002244,0.004236939273616717,-0.0009013431463038675,-0.029309794425590834,0.1147423193793486,0.11318575611322781,-0.018835723230854414,-0.6077548397192599,-0.16490307721286343
1.928,-0.19963245133818297,0.004134401919146047,-0.0007754804224637812,-0.02491806931243903,-0.224264182733675,0.12625516792246,0.12309348710294724,-0.028077764511533678,-0.853094564465495,-0.11507885318822278,0.8131964657358673,0.0040851816329721,-0.0009930842611774362,-0.028408048996700987,0.1237815033692906,0.12161430847320209,-0.023061234809665914,-0.6756118664148473,-0.18740095236447785
1.9620000000000002,-0.2283532174046246,0.004443342875333212,-0.0009572982383836415,-0.02872076606644163,-0.252672231730376,0.126243521000722,0.12223501682259719,-0.031559899509331905,-0.853091980081537,-0.0003497574095494153,7.760912786966097e-05,0.0040549514943672045,-0.001108617548701734,-0.028407962936715183,0.1350142635443967,0.13194229417248377,-0.028637080314472797,-0.7905887786453111,-0.2137275586933667
1.996,-0.255888928019858,0.004398016074347311,-0.0010807106008063894,-0.027535710615233407,-0.28108019466709117,0.13004305108371533,0.12493968837406691,-0.036073111927762046,-0.8783927318266057,0.11410000249229217,-0.7597823346867488,0.00414233069421277,-0.0012619091020894572,-0.029250477969825973,0.1350976313743261,0.13112909611835616,-0.03250430977787738,-0.8785293882699766,-0.24298258732275693
2.03,-0.27544350262017914,0.004137985854771431,-0.0011215688221886122,-0.01955457460032111,-0.31033067263691716,0.12831304216960343,0.12218386731215897,-0.03918340668526872,-0.3843954124835219,-0.051952219643000064,14.83475433462714,0.004060260164106784,-0.001330813906041594,-0.01280036723570128,0.1229152485008955,0.1186185168567974,-0.03221499298045196,-0.6668417027787716,-0.26518841602529003
2.064,-0.29950286394809555,0.004578504193137656,-0.0013457257551030555,-0.024059361327916414,-0.32313103987261854,0.1519929457173148,0.1441266794553987,-0.04826340038774063,-0.5054035521918446,0.7111082146459873,-3.633878069319001,0.004785667120033678,-0.001647483580913301,-0.016829938287988427,0.1392555266049638,0.13362834729169418,-0.03918630487958966,-0.6024876374855836,-0.28525125435355997
2.098,-0.3306910426555275,0.005051094442273696,-0.0016369126023045855,-0.03118817870743195,-0.33996097816060694,0.20097878332967614,0.1894763009051371,-0.06701643637185474,-1.075474390083247,1.4710461745453853,-17.119244381123195,0.006268254003321411,-0.002344144224752739,-0.03581329718977213,0.1551266585720366,0.14762013870218627,-0.04767153080479494,-0.8141349692876387,-0.31236194883083834
2.132,-0.3682347740116291,0.005486930295415693,-0.0019886681488883173,-0.037543731356101555,-0.3757742753503791,0.2065423316028427,0.19213058166503863,-0.07579956683908255,-0.8396595589537211,0.16707352171671308,7.081526460346124,0.006361827728452061,-0.00261323925071279,-0.027960663313158916,0.1700889084387674,0.1600378159400303,-0.05760324854586229,-0.9950839103062302,-0.3454982430440358
2.166,-0.4094782632824633,0.005858456636403053,-0.0023889871177180666,-0.041243489270834204,-0.4037349386635381,0.20654230708706117,0.1899363302740838,-0.08114132768731373,-0.8396585148136141,-7.362096551341076e-07,3.1355558770050426e-05,0.006286281976534194,-0.0027900751097475326,-0.027960628543293353,0.1848238565705274,0.17137788115302888,-0.06920606771881489,-1.1500947920898554,-0.383796399620628
2.2,-0.45011099509174474,0.00599677207347038,-0.002735326659953685,-0.04063273180928145,-0.4316955672068314,0.21285047194664308,0.1933230611370915,-0.08905906714362699,-0.8657201583118004,0.18943438016762493,-0.7826319368824712,0.0063940199793840555,-0.0030580466491662976,-0.028828481271782957,0.1922598572156514,0.17515752783040256,-0.07926974921698943,-1.2368335189642512,-0.4249829558021376
2.234,-0.49011934975909277,0.00611106653145721,-0.0030901406104320017,-0.040008354667348034,-0.4605240484786144,0.21801702715358284,0.19530395312823987,-0.096890608530282,-0.9189864777432973,0.155151808016209,-1.5995891721170254,0.006453240471539281,-0.00332546163799374,-0.030602249708851805,0.2005393974768201,0.17929286509475678,-0.08983383809277753,-1.186201264266108,-0.46448345790219897
2.268,-0.5267483949997669,0.006172127059846488,-0.003421653472599262,-0.03662904524067411,-0.49112629818746617,0.21801613635949252,0.19224711608915349,-0.10282063055887355,-0.9189764887578897,-2.675057328302296e-05,0.0002999695317599152,0.006348442912693947,-0.003521342029143845,-0.03060191707563773,0.2058967566665753,0.180460166202391,-0.09913426662875116,-1.1367591980504637,-0.5023375391972794
2.302,-0.562153572852641,0.00610205305763345,-0.0036821770212120963,-0.035405177852874115,-0.5217282152631038,0.2246237022355511,0.19473957807000644,-0.11194777505212586,-0.9468332630737096,0.19842540168344047,-0.8365397692438408,0.006424987775108895,-0.0038294696363192515,-0.03152954766035453,0.2155173261609862,0.18507324009718035,-0.11043375242883105,-1.0706951716917086,-0.5379916884146133
2.336,-0.594924065572366,0.00555176561212134,-0.0036231789659366687,-0.03277049271972498,-0.5532577629234583,0.1405129709276818,0.11955085390346376,-0.07383419485493299,-0.4992563089201192,-2.525847787023101,13.440749373981694,0.003960421307962117,-0.0024916593886231404,-0.01662523508703997,0.195452372325135,0.16424376504405655,-0.10595100514707703,-1.048642430086252,-0.5729114813364855
2.37,-0.6190060323280413,0.005470154983358899,-0.003791315373397053,-0.024081966755675307,-0.5698829980104985,0.17369659258670203,0.14624629653965093,-0.09371513764951332,-0.5014998394693572,0.9965051549255322,-0.06737328976690636,0.004843716580986534,-0.003161234704995764,-0.016699944654329595,0.1913790544603221,0.15780013365537043,-0.10828231759836951,-0.8556153907121619,-0.6014034738472005
2.404,-0.6462528228983117,0.005811955737335728,-0.004253206429880363,-0.027246790570270348,-0.5865829426648278,0.2127698378807151,0.1772025810817306,-0.11777202201609041,-0.9408159740122474,1.173370729549942,-13.192676712999704,0.005838450365297863,-0.004013596259602433,-0.03132917193460784,0.2058600749652818,0.1668207860329982,-0.12062004730576126,-0.7395334265110249,-0.6260299369500176
2.438,-0.673312891189743,0.006093658106606448,-0.0047192063435119724,-0.027060068291431365,-0.6179121145994356,0.21800977983337264,0.17769755147328606,-0.1263006108591501,-0.7839890824758089,0.15735561419391994,4.70951626235551,0.00586175724724277,-0.004282572288178458,-0.02610683644644444,0.2268075814596148,0.1801813893376585,-0.13775465851981533,-0.8020341437065281,-0.652737673935445
2.472,-0.7002224509243904,0.005975886388773999,-0.004890763918063312,-0.026909559734647367,-0.6440189510458801,0.21800722336972214,0.17433801930344747,-0.13089463116081845,-0.7841696300278016,-7.677068019500836e-05,-0.005421848408189329,0.005747887249072476,-0.00443409272064895,-0.026112848679925797,0.2271189762230824,0.1767652610876903,-0.14260810577671157,-0.7842327702734364,-0.6788526251855505
2.5060000000000002,-0.7261549386139388,0.005838151941319536,-0.005042842965441663,-0.025932487689548363,-0.6701317997258058,0.2246556184442157,0.17607155245409029,-0.1395311983570684,-0.8081289649308923,0.19965150373854507,-0.719499546639359,0.005799957861889211,-0.004724717198455087,-0.026910694532198715,0.2271630052139134,0.17289754623048811,-0.14734133651250986,-0.8081298843211694,-0.7057633503334454
2.54,-0.7517964680719362,0.0057056485630617715,-0.005190104069125789,-0.025641529457997466,-0.6970424942580047,0.21808562591670105,0.1672158706831186,-0.14000068865246995,-0.7473198225855152,-0.1972970728983375,1.8261003707320431,0.005509705607824621,-0.00473082623855764,-0.024885750092097658,0.2268666456530574,0.1689523387101877,-0.15140535708563263,-0.748240155955764,-0.7306797475267723
2.574,-0.7774252689027407,0.0055703277300276355,-0.005334222525152477,-0.025628800830804425,-0.7219282443501022,0.21812363197135523,0.16370895715566122,-0.1441433181641838,-0.7474515315553321,0.0011413229625879028,-0.003955224318824207,0.005391210254115239,-0.0048673202799481554,-0.02489013600079256,0.2268792807674433,0.1651415650569498,-0.15557143546324173,-0.7473603828331362,-0.7555668482751158
2.608,-0.8015821490876828,0.00542330214875153,-0.005459898802185004,-0.024156880184942105,-0.7468183803508948,0.22473136053726941,0.16491998024876894,-0.1526616668442928,-0.7698456819784514,0.1984302872646902,-0.6724970097032827,0.005426073349142715,-0.005153469317720528,-0.025635861209882434,0.2268186503152169,0.16105821504198467,-0.15970895872901583,-0.7695194688087794,-0.7811918465864481
2.642,-0.8250122208275299,0.005267277939058124,-0.005560355171258191,-0.02343007173984712,-0.7724542415607774,0.2180841232392037,0.15619185455883725,-0.1521998337005768,-0.6949254171139666,-0.19961673567764898,2.2498578037382813,0.0051420825229125606,-0.005127982216724271,-0.02314101638989509,0.225695631581499,0.1565365820008392,-0.16258787350373424,-0.6956820566810299,-0.8043580590739264
2.676,-0.8487598525919238,0.0051528697648501876,-0.005703357055573788,-0.02374763176439387,-0.7955952579506722,0.21804754423609798,0.15260269086006262,-0.1557470715283638,-0.694373217284589,-0.0010984685617333012,0.016582577458786715,0.005021255700633642,-0.005244665822617659,-0.023122628135576816,0.2254483399613852,0.15263411634795937,-0.16592100686176514,-0.6824565979031445,-0.8270838637841011
2.71,-0.8735668895918369,0.005021930236394745,-0.0058359443998288185,-0.024807036999913153,-0.8187178860862491,0.22458645977409486,0.1534280498356736,-0.16400887609359194,-0.7147840880690438,0.1963638299698761,-0.6129390625962403,0.0050436740505878505,-0.005521784183453666,-0.02380231013269916,0.2262219069801888,0.1491562817420087,-0.17008455195770053,-0.7140239799907833,-0.8508608623177942
2.7439999999999998,-0.8985545014484536,0.004875669027806895,-0.005960222423621042,-0.024987611856616684,-0.8425201962189482,0.21796811353176712,0.1450761022591991,-0.16267459257633238,-0.7267817748066749,-0.19874913640623837,-0.3602908930219558,0.004765011835341913,-0.005474994418690901,-0.02420183310106228,0.2263992223557629,0.14085772376386319,-0.17724477295355537,-0.7283867514390556,-0.8992909526230324
2.778,-0.9238108736433268,0.004713958034568089,-0.006066641358627667,-0.025256372194873197,-0.8667220293200106,0.21797355051979164,0.14110049721759277,-0.1661418623079453,-0.727188637283903,0.0001632729136492751,-0.012218092409252198,0.00463120196672349,-0.005588872454487126,-0.024215381621553973,0.2251909839543153,0.1356059508421019,-0.17978321765538113,-0.7589790193512995,-0.9245649539674307
2.8120000000000003,-0.9472163139416893,0.004402682571045036,-0.005962915434293947,-0.023405440298362442,-0.9159033201876027,0.20654772079881373,0.12580292683547575,-0.16381570305319526,-0.6869120157203344,-0.5419267176611291,1.8863359959517074,0.004126482309334885,-0.0055024997020435545,-0.02287417012348714,0.2144954246458414,0.12525355782206238,-0.1741259126233517,-0.6802210202480092,-0.9472163139416894
2.846,-0.9708657726464911,0.004193096398532159,-0.0059668086890281025,-0.023649458704801837,-0.9387774903110898,0.20652249140972595,0.12200829009646356,-0.1666298790908087,-0.6875030231685348,-0.0007576393119452701,-0.017747971417429367,0.003999004931937017,-0.005594797531747396,-0.022893850671512214,0.2146157210570549,0.12129181864376568,-0.17705423591353994,-0.6893423537159206,-0.9701714143204295
2.88,-0.9944657852434776,0.004054391213571762,-0.006068927451263528,-0.023600012596986516,-0.961671340982602,0.212792529958345,0.12174925393996315,-0.17452157451483047,-0.7088166567281918,0.1882894459044758,-0.640049055845555,0.003985287231336963,-0.0058588758739015435,-0.02360359466904879,0.214667882308705,0.1171088931013708,-0.17991055236276646,-0.7086274776789901,-0.9937687093271399
2.914,-1.0169266527035614,0.003989898701775241,-0.006285751740341183,-0.022460867460083793,-0.9852749356516507,0.21807095713167174,0.12051342474578722,-0.18174558261582285,-0.5680149627303269,0.15851132652632863,4.228279099034982,0.00395561895014312,-0.006089721384838942,-0.01891489825891989,0.2220007581369338,0.11700010388028052,-0.18866719986626435,-0.6585786177377412,-1.0156993772978067
2.948,-1.0366255918402227,0.003958784246434144,-0.006536054850729167,-0.019698939136661316,-1.0041898339105708,0.2180575964458757,0.1170472012780914,-0.18398116218982405,-0.568465088482184,-0.0004012217956771434,-0.013517289845558557,0.0038394502398227627,-0.00616309872578575,-0.01892988744645673,0.2251639286880299,0.11497026785614255,-0.1935991536430752,-0.5767685803037047,-1.03490577102192
2.982,-1.0561336757207176,0.003835264182091347,-0.006619411198552028,-0.01950808388049485,-1.0231197213570276,0.22463671096596852,0.11696947410581485,-0.19178058827998518,-0.5854562843895631,0.1975710066093942,-0.510246123344717,0.0038325831376613117,-0.006423858293089861,-0.01949569427017245,0.2250417125447316,0.11111833388685206,-0.19569488562370674,-0.5847858136650793,-1.0543791386169672
3.016,-1.0767391630016112,0.0036242219263364905,-0.006554564131252327,-0.020605487280893616,-1.0426154156271998,0.2065303216357936,0.10408363695873867,-0.17838545420640617,-0.5236923244506655,-0.543735415320568,1.8547735717386666,0.003414012238296037,-0.005970156932913048,-0.017438954404207164,0.2192608184238987,0.10443282447283894,-0.19279287245264817,-0.600029814397574,-1.0743601314364064
3.05,-1.0957419058748556,0.0034218309085858323,-0.006493101238267185,-0.019002742873244435,-1.060054370031407,0.20653324537133946,0.10095854161807671,-0.1801758982715751,-0.52365707539633,8.779986624210892e-05,0.0010585301602250906,0.0033094354972385033,-0.006028866342666499,-0.01743778061069779,0.2134489611418711,0.0981264587718244,-0.18955647470198805,-0.5632998623207309,-1.0931180168516867
3.084,-1.1136057731013569,0.003262817063606205,-0.006475771856546464,-0.01786386722650124,-1.077492150642105,0.21271143038937057,0.10072709358593222,-0.18735048768557525,-0.5385859230966235,0.18553108162255574,-0.44831374475355723,0.003298085095753827,-0.006268516251929212,-0.017934911239117564,0.2130588180275806,0.09454369262584318,-0.190933365664516,-0.5377012222072006,-1.1110234675511865
3.118,-1.1301644084923879,0.003285144408807783,-0.006810761787994668,-0.01655863539103097,-1.0954270618812223,0.21798770726027045,0.09976573654998024,-0.19381805469880584,-0.4856678344756747,0.15844675287987614,1.5891317904188818,0.0032698617746741805,-0.006480725325722904,-0.016172738888039967,0.2243408992363724,0.09627944384979896,-0.20263047096169323,-0.4866021682027311,-1.1272273197523375
3.152,-1.1468158923155074,0.0031998265330461795,-0.006924707776803096,-0.016651483823119533,-1.1115998007692627,0.21797028081914854,0.09661053356285162,-0.19539050162451496,-0.4851899382858414,-0.0005233165502073223,0.014351236931930732,0.003164426702952844,-0.006532210835702178,-0.01615682494491852,0.2243725928956508,0.09300564911222893,-0.2041886619671386,-0.48528456713898727,-1.1433872958380658
3.186,-1.1632170678439595,0.0030836073704660905,-0.006975684166539153,-0.0164011755284521,-1.1277566257141811,0.22461499937682236,0.09628968020133169,-0.20292904038548837,-0.5000612752717424,0.19954109782804255,-0.4465866962733028,0.0031500329391140874,-0.006783922526205376,-0.01665204046654902,0.2244157758302208,0.08960935684838976,-0.20574888482491915,-0.5001547071806214,-1.1600424475871804
3.22,-1.1784528972368393,0.0029699083721963504,-0.007015348407063637,-0.015235829392879817,-1.14440866618073,0.21804783651345158,0.09018122657426168,-0.1985250749445988,-0.4440663276768188,-0.19721209799912248,1.6815299578055125,0.0029540442957280513,-0.0066328485807884445,-0.014787408711638068,0.2240848719003701,0.0864217943499214,-0.2067493730968613,-0.4451925519320786,-1.1748673595665187
3.254,-1.193695991734189,0.0028631995492325313,-0.007061020071049029,-0.015243094497349615,-1.159196074892368,0.2180888901873415,0.0872522270773835,-0.19987449285284753,-0.4441672177067393,0.0012328430597576335,-0.0030297306282424962,0.0028561686839495316,-0.006677066147575639,-0.01479076834963442,0.2241263995864654,0.08336949398838596,-0.20804367441408173,-0.4442284472420958,-1.1896601668596805
3.2880000000000003,-1.2087380441878663,0.0027549644250519645,-0.00710273374075987,-0.015042052453677398,-1.1739868432420026,0.22472778303036517,0.08685227784075275,-0.20726615328995607,-0.4579069218982378,0.1993661514421519,-0.41260372947442947,0.0028394449915454373,-0.00692374675163627,-0.01524830049921132,0.2241445344654984,0.08019346937800481,-0.2093078589061433,-0.4579975089415001,-1.2049114839074324
3.322,-1.2231623436209365,0.00264846893872539,-0.007136959123536402,-0.014424299433070109,-1.1892351437412139,0.21812456589522392,0.08122300802180447,-0.2024380132654679,-0.4201279463155788,-0.1982948088631007,1.13450377125102,0.0026574801059352465,-0.0067598867705216436,-0.013990260612308776,0.2239157745957737,0.07717526495118984,-0.21019574827417178,-0.42060402461107066,-1.218917597926981
3.356,-1.2376184285134082,0.00254414026327332,-0.007171165328572426,-0.014456084892471742,-1.2032254043535229,0.21811673096057954,0.07838017571073466,-0.2035471846537903,-0.4203603183493669,-0.00023528332265387427,-0.006978139152794718,0.0025625321800878367,-0.006796168589717538,-0.013997998601033918,0.2237917027893218,0.07418085359791887,-0.211139591732172,-0.42085789084035696,-1.232932165691965
3.39,-1.2521551285270616,0.0024312015119694053,-0.007180489984516258,-0.014536700013653368,-1.2172234029545566,0.22467541730727372,0.07779429434931645,-0.2107773491362141,-0.43302539197432716,0.1969575479487742,-0.38033254129009836,0.0025398525767844106,-0.007037320877308588,-0.014419745552745096,0.2229668841022481,0.07082898045736093,-0.21141780183711145,-0.4383566092399912,-1.2475294407796567
3.424,-1.2649839901892714,0.0023158690553539696,-0.007165007457062389,-0.012828861662209865,-1.2316431485073016,0.21803731965037698,0.07253853662764514,-0.2056172012849131,-0.38024229934440573,-0.1993422719788811,1.585077856754397,0.0023721172034800054,-0.0068621635585743536,-0.012662068568168712,0.2215097604355533,0.06760077644196254,-0.21094243051757042,-0.39451704278093286,-1.2606668583042617
3.458,-1.277508832608339,0.0022311054191836988,-0.007211014682567907,-0.012524842419067593,-1.2443052170754705,0.21796820790554927,0.06990708657360718,-0.20645372097481546,-0.3803837967237252,-0.0020754277726039065,-0.004249170550133788,0.0022842996474794898,-0.006889469462763333,-0.01266678043090005,0.2221187057282947,0.06525407264905041,-0.21231727540905673,-0.35886893948217236,-1.272617193989018
3.492,-1.2902297152901712,0.002150424874201917,-0.007279332169561448,-0.012720882681832133,-1.2569719975063705,0.22449771373771638,0.06930209264843384,-0.21353323729108206,-0.3911566236941685,0.19608125622123435,-0.32350831743072955,0.00226138180236868,-0.0071254864462148145,-0.013025515569015812,0.2232686055395386,0.06282461474302106,-0.2142473757177928,-0.3886240081957342,-1.285558373461936
3.526,-1.3024173878348408,0.0020590100287256607,-0.007300999398459851,-0.012187672544669678,-1.2699975130753862,0.21789305374623913,0.06455806172158807,-0.2081096815086052,-0.35514411232021764,-0.19833813788219956,1.0814567980165417,0.0021087521749016025,-0.006942603672284072,-0.011826298940263248,0.223097576658448,0.06023728158358035,-0.21481154209746867,-0.35557252528580335,-1.2973989385539533
3.56,-1.3146081947102242,0.001970139694867701,-0.0073264973742639405,-0.012190806875383318,-1.2818238120156495,0.2179152060853979,0.06209874994611155,-0.2088798274088998,-0.35521978390678505,0.0006652354101736304,-0.0022724200170391932,0.0020266985601497477,-0.006967767178998144,-0.011828818804095944,0.2231342365898884,0.05770131453074606,-0.21554453331034917,-0.35526512401452537,-1.309229267183637
3.5940000000000003,-1.3264383686182133,0.0018806000755948737,-0.007347708292940958,-0.011830173907989126,-1.2936526308197454,0.22455595360279765,0.061440632859436003,-0.2159870943651352,-0.3661525729901063,0.19942184736936144,-0.3283119844841212,0.0020020717351717935,-0.0072046659572982345,-0.01219288068057054,0.2231718141782457,0.055078059490896225,-0.21626850442523232,-0.36617984001108367,-1.321423055856006
3.628,-1.3377890414681974,0.001795263061546093,-0.007365948328902805,-0.011350672849984143,-1.3058455115003158,0.21798941442609582,0.05708310045180367,-0.21038275700408876,-0.3307726044723342,-0.19719336866972462,1.0624615170502127,0.001862242762399146,-0.007016073670962126,-0.01101472772892873,0.2229890498220957,0.05264753197097893,-0.21668491806751536,-0.331041988859611,-1.332446754085031
3.662,-1.3491459506989254,0.0017118235962485517,-0.007387157944461764,-0.011356909230727961,-1.3168602392292446,0.21802462087061045,0.05477122018897912,-0.2110328143791477,-0.33091470685734237,0.0010572505860249068,-0.004267338889134212,0.0017851228222820262,-0.007037300317740458,-0.011019459738349502,0.2230335475203425,0.05026654980728793,-0.21729527673187082,-0.33093019859847217,-1.3434667296983602
3.696,-1.359398685468565,0.0016275677102415287,-0.007397709933642638,-0.010252734769639503,-1.327879698967594,0.22467146264827131,0.05404127000282839,-0.21807523303895604,-0.34112450504224967,0.199604858188014,-0.3066005460933124,0.0017582870593841646,-0.007271970872214115,-0.011359446017906914,0.2230788766222099,0.04780462551205977,-0.2178965419061966,-0.34113747814114215,-1.3548266077204603
3.73,-1.3682575971702153,0.0015563830747482577,-0.0074012753568331036,-0.008858911701650428,-1.3392391449855012,0.21809563295436918,0.050051513156026316,-0.21227470679418936,-0.25812509163015085,-0.19747236318024428,2.4924748772402046,0.0016363118366724422,-0.007075824585649793,-0.008595565551284025,0.222461057674043,0.045771180574373065,-0.21770144972021208,-0.26247784644437105,-1.3635671200070578
3.7640000000000002,-1.3771124956981382,0.001490841453175129,-0.007415250283143493,-0.00885489852792287,-1.3478347105367852,0.21813617247762818,0.04823402953644427,-0.21273661682434217,-0.25820905801082006,0.0012174031008708043,-0.0025215129330092866,0.0015757143474409107,-0.007090948051253927,-0.00859836163176031,0.2224819857755094,0.04390166849146718,-0.21810749069731486,-0.25822242414692925,-1.3721659267311506
3.798,-1.3861154604671762,0.0014249690290886186,-0.007428607418687561,-0.009002964769037947,-1.3564330721685454,0.22474890681159101,0.04780977860219972,-0.2196048637508147,-0.26577511523995634,0.19858061062951465,-0.22720892579988827,0.0015596812055581092,-0.007319792310119234,-0.008850311337490547,0.2224485365062801,0.04196398960523922,-0.21845451464823795,-0.26568652758117745,-1.3810132880996038
3.832,-1.3951358357863286,0.0013557553890124474,-0.007431910307883927,-0.00902037531915245,-1.3652833835060358,0.21810634058498124,0.04450881607085868,-0.2135166061348445,-0.26612781056211327,-0.1994764632615548,-0.01059145111582361,0.0014506160241468291,-0.007116577965750305,-0.008862056091718373,0.2223182679305079,0.0400071978634609,-0.21868890318151718,-0.2655473846512467,-1.3898560160084903
3.866,-1.4037690750502623,0.0012843450843853521,-0.0074072397385758215,-0.008633239263933666,-1.3741454395977541,0.2180614919649403,0.042606134150068906,-0.21385867204946835,-0.26580448354210484,-0.0013468054066351125,0.009709520120373084,0.0013872454499350491,-0.007127680425904927,-0.008851289301952092,0.2209005707213445,0.03788351317216204,-0.2176278970507925,-0.2580354273140961,-1.3984485957380497
3.9,-1.4121171222325801,0.0012139680615708137,-0.00738500416623844,-0.008348047182317853,-1.3829967288997063,0.22461521869686,0.04193513018958189,-0.2206659043128799,-0.2737763055959143,0.19680861056815918,-0.23939405566995417,0.0013629215828629923,-0.00735443890662134,-0.009116750976343948,0.2222947124434912,0.0362039086567309,-0.2193267338431627,-0.26289925602894954,-1.4072031409638137
3.934,-1.4181398376165204,0.0011277541869252339,-0.007173282957559035,-0.00602271538394028,-1.3921134798760502,0.16229864960135654,0.0288459144642009,-0.15971463577627418,-0.5085130037807036,-1.8713684413064098,-7.049150095639318,0.0009154913164544006,-0.0053263763195600606,-0.016933483025897433,0.2116041264496811,0.03302009891371574,-0.20901191209656222,-0.20739541743782813,-1.4141094083644934
3.968,-1.4265223521987533,0.0010735614160886087,-0.007154510146286652,-0.008382514582232934,-1.4090469629019478,0.1916112795669992,0.030858035014913427,-0.18911019045075572,-0.4578799026795966,0.880259158127407,1.5205135465797903,0.0009795215080469785,-0.006304959545985891,-0.015247400759230569,0.21363767678645,0.03195797465793981,-0.2112338628119889,-0.1962080719657115,-1.4206431371609516
4.002,-1.4381047107437568,0.0009992934648255236,-0.0071207167616886835,-0.011582358545003444,-1.4242943636611782,0.21272574535782093,0.03105337831858272,-0.2104469777237094,-0.2798585032096153,0.6340680417664186,5.34598797207151,0.0010014052762527875,-0.007012601781874701,-0.009319288156880191,0.2108222113202325,0.029674171547284783,-0.2087233775333637,-0.26816052452711586,-1.4295728826277045
4.036,-1.452549724637214,0.0008991169548109301,-0.00711023437408187,-0.014445013893457313,-1.4336136518180584,0.20321431459097597,0.027790127380293288,-0.20130515759629017,-0.4460291817327884,-0.2856285515569058,-4.990110466161354,0.0008755925353722017,-0.006710088020914889,-0.014852771751701854,0.2088199032968709,0.026703067038635096,-0.20710552436775959,-0.3902787001274698,-1.4425691633419493
4.07,-1.463175933999349,0.0008379597154692942,-0.0073907881459631675,-0.010626209362134985,-1.4484664235697604,0.2179906818778177,0.02660031912812758,-0.21636164264452623,-0.2596618200914328,0.44373475335861046,5.596617466707374,0.0008546272536432972,-0.007208582892141371,-0.008646738609044713,0.21642695106376,0.02483520865752148,-0.2149972966288007,-0.39708183351792864,-1.4557919883980963
4.104,-1.471375226454784,0.0007818163938420053,-0.007512720638291448,-0.008199292455434822,-1.4571131621788052,0.22460257749413376,0.025478568679418633,-0.22315277357688496,-0.2680311147065309,0.19855542391339517,-0.2513301686215649,0.0008152594524593223,-0.007434675381606795,-0.00892543611972748,0.2223359112390763,0.023358519309593512,-0.22110548840355312,-0.2928083362604113,-1.465542505995568
4.138,-1.4792865600404772,0.0007218906469526054,-0.007517568426157917,-0.00791133358569329,-1.4660385982985324,0.2180215247311924,0.022797688583175477,-0.2168263144578593,-0.23050374833010912,-0.1976292121003409,1.1269479392318855,0.0007314416097590787,-0.007223159277341334,-0.007675774819392634,0.2221164720988407,0.02163532325345276,-0.22106026319841762,-0.23104579828877786,-1.4732363310785843
4.172,-1.4872025886590177,0.0006624881618702005,-0.007524313893829682,-0.00791602861854046,-1.4737143731179252,0.2180553670378527,0.021136003691730458,-0.21702859821220752,-0.23062951546008773,0.0010162854852938932,-0.00377679069004835,0.0006760670502094063,-0.007229684265926931,-0.007679962864820922,0.2221571420832381,0.01994068277806801,-0.22126040077008016,-0.2306206948295971,-1.48091600021641
4.206,-1.492650189993485,0.0006073987268353509,-0.007513346501920148,-0.005447601334467311,-1.481394335982746,0.22469867903747892,0.020061759639741675,-0.22380130062478457,-0.2377354370979961,0.19949885884763446,-0.2133910401774288,0.0006385468006634108,-0.007455150112444456,-0.00791659005536327,0.2221883133165364,0.01819102277546399,-0.22144239265513255,-0.23773239937294294,-1.488832489115529
4.24,-1.496944751736211,0.0005719984287295699,-0.0074986475174938505,-0.004294561742726132,-1.4893109260381092,0.21808064031013277,0.017750729387728984,-0.21735702722544106,-0.125546923086495,-0.19873990172210654,3.3690244447898223,0.0005759642650674616,-0.007239203794608623,-0.004180712538780284,0.2212190725657407,0.017102245723874254,-0.22055700228749636,-0.13746332108759576,-1.4934100177077458
4.274,-1.501141210711213,0.0005396608301639905,-0.007493040126476558,-0.004196458975001871,-1.4934916385768897,0.21808188419469623,0.016841965721525184,-0.21743057835673404,-0.12527210755719598,3.7353890794658814e-05,0.008252718597568553,0.0005457305391499385,-0.0072415872942851334,-0.004171561181654626,0.2211449390715323,0.01617852528250999,-0.2205523506939677,-0.12501129068262515,-1.4975728936874773
4.308,-1.5047344922183787,0.000507997953268724,-0.007459912177018468,-0.003593281507165757,-1.4976631997585441,0.22466616141808152,0.016415896509009896,-0.22406562080814837,-0.1284860351119511,0.19772604274430275,-0.0965143409836377,0.0005306821737612314,-0.0074625320943863495,-0.004278584969227972,0.2201824037820281,0.015197017953284018,-0.21965732762773846,-0.12457617667393793,-1.5017212803707194
4.342,-1.5086428997057861,0.00048220490790473747,-0.007493278917675816,-0.003908407487407394,-1.501941784727772,0.21804170400212813,0.01500130172260802,-0.21752504598500588,-0.11669233856093687,-0.1989326551337352,0.3541650615920192,0.000485464999299444,-0.0072445366015595454,-0.003885854874079198,0.2203287323352553,0.014449660765914973,-0.2198544009025304,-0.10347335036103604,-1.505166942937742
4.376,-1.5126197183048813,0.0004527485757568339,-0.007500776040657353,-0.0039768185990951554,-1.5058276396018513,0.21799245527362773,0.014152722456168866,-0.21753255159470558,-0.11590486771847815,-0.0014789407958078265,0.023647773046808592,0.0004573018874720002,-0.007244725688163869,-0.0038596320950253227,0.2209974962584395,0.013649738369456458,-0.22057556073813883,-0.11488962858449399,-1.5089927675696055
4.41,-1.5155897924520432,0.0004255384806099993,-0.0074919470007002165,-0.002970074147161883,-1.5096872716968766,0.2245812200058584,0.013715406148673984,-0.22416202179115155,-0.11935801704467833,0.19786080276968954,-0.10369817796396938,0.00044188391685093275,-0.007465483525705865,-0.003974621967587789,0.2210148162638197,0.012773090114523546,-0.2206454105053088,-0.11947224879683749,-1.5129711934545402
4.444,-1.5185250699184702,0.00040391795092631355,-0.00748732252023121,-0.002935277466427077,-1.5136618936644641,0.21797726350293609,0.01244723279848256,-0.21762158394766093,-0.08268007760766868,-0.198317012099769,1.1014396227330223,0.00040451287112702283,-0.0072473603771289665,-0.0027532465843353674,0.2202972581687064,0.011490198981874825,-0.21999740290286748,-0.08567992666627273,-1.5186149461846625
4.478,-1.5214552079289498,0.000381350334558217,-0.007489978560754285,-0.002930138010479588,-1.5164151402487995,0.21797350839624707,0.011847816388997056,-0.2176512798248184,-0.08307496850732017,-0.00011276596663702433,-0.011858585575119733,0.00038450330975569935,-0.007248324267513261,-0.002766396451293762,0.220666559055701,0.0108647423960263,-0.22039892844147674,-0.08785132926556125,-1.5215403954492057
4.5120000000000005,-1.5246588529906482,0.00035911701904867144,-0.007498269329635487,-0.003203645061698346,-1.5220513044827209,0.21796488641682787,0.01062049623230782,-0.2177059869881401,-0.09358116456160381,-0.19826342309680747,-0.22228083693942136,0.00034236280056194624,-0.007250148841982889,-0.0031162527799014073,0.2208011116405022,0.010183591695084798,-0.22056614736144195,-0.09364737361689084,-1.5246588529906482
4.546,-1.5278798290859865,0.0003350308379548306,-0.007500537606919044,-0.0032209760953383344,-1.5251675572626224,0.2179847675619304,0.009942925712688549,-0.21775788646407457,-0.09389640494809429,0.0005970313844598411,-0.009466678272987174,0.00031975898116019905,-0.007251843583801254,-0.00312675028477154,0.2208412032427351,0.00949574076457398,-0.22063695963512336,-0.0938788264606285,-1.5277850179117871
4.58,-1.5310921877191428,0.0003109062933275286,-0.0075026896907319784,-0.0032123586331562755,-1.528294307547394,0.22462678597870017,0.009544217895181704,-0.22442393117466344,-0.09687653033180049,0.19946001251560913,-0.08949325476595212,0.00030576404156842663,-0.007473816732406054,-0.0032259884600489568,0.2208819027397256,0.00878557430983257,-0.2207071105378529,-0.09687174200966261,-1.5310108469207089
4.614,-1.5324501690321717,0.00029250079566778275,-0.007487963055250679,-0.001357981313028889,-1.531520296007443,0.21805697166150698,0.008562210582401272,-0.2178888052198412,-0.038115142953639644,-0.19729172123703287,1.7646062275723977,0.00028051359102690177,-0.0072558763384872665,-0.0012692342603562003,0.2204161474754783,0.008467043692810032,-0.22025346135540266,-0.04090471056247199,-1.5323729737824392
4.648,-1.533761344942317,0.00028270770926441813,-0.007488964972756529,-0.0013111759101454012,-1.5327895302677992,0.2180852959900277,0.008286728081285798,-0.21792780103686826,-0.038205663320905574,0.0008505804360580969,-0.002718329347325215,0.0002713282636851302,-0.0072571694795281584,-0.0012722485885861556,0.2204316527490091,0.008187220390099583,-0.22027955637313168,-0.03822955816303821,-1.5336460180692684
4.682,-1.5351238728017977,0.0002727302418690236,-0.0074869624159669135,-0.0013625278594806554,-1.5340617788563855,0.22469254635717606,0.008252122883767862,-0.22454096030876622,-0.03907426690279296,0.19841592694139182,-0.026084191648269906,0.00026992758224097857,-0.007477390771587934,-0.0013011730878630058,0.2204066474208825,0.007900021467358902,-0.2202650219352326,-0.039029823440493536,-1.5349457111898368
4.716,-1.542597190462216,0.00023917446269727805,-0.007247800769313528,-0.007473317660418255,-1.5353629519442484,0.19173172314709144,0.0067922804968899315,-0.19161137384457247,-0.4391769263641771,-0.9898145108133517,-12.015094878720243,0.00017951549368829016,-0.0063820852737602966,-0.014624591647927098,0.2071501467758653,0.006081635585098787,-0.20706085341723243,-0.19482911648309156,-1.5414335207687238
4.75,-1.5494672541558157,0.00017616587890967317,-0.007117319367559216,-0.006870063693599659,-1.5499875435921757,0.19943327889009813,0.004149664377481677,-0.1993901025989252,-0.11803882731740975,0.2312779502404409,9.643786758161182,0.0001251311217532552,-0.006639944955582787,-0.003930692949669745,0.2086599820449389,0.004620030649224693,-0.20860882872926176,-0.21680376135462678,-1.5486530860218328
4.784,-1.5513794177493812,0.00014380169612837612,-0.0071287390582752685,-0.0019121635935654968,-1.5539182365418456,0.21282213379009882,0.0035918606407730662,-0.21279182119646423,-0.030913821130494207,0.4020677147147354,2.6163665521596258,0.0001159584066969631,-0.007086028012475205,-0.0010294302436454571,0.2080423354745393,0.0040834516272172505,-0.20800225665244343,-0.07549538354603726,-1.5511670822939159
4.818,-1.5534963608707115,0.0001310543467505365,-0.007094324389856799,-0.0021169431213303724,-1.5549476667854911,0.2065340661604874,0.00327315116589064,-0.20650812808756422,-0.06519087821108668,-0.18883085974809088,-1.0293410534712455,0.00010152848475863969,-0.006876833618252911,-0.0021708562444291866,0.2089519998373136,0.003696063092561221,-0.2089193082355686,-0.058250663301277525,-1.5531068293818484
4.852,-1.5557164298127628,0.00011549929455312302,-0.0071046426460071865,-0.0022200689420512894,-1.55711852302992,0.2065108135697103,0.002824526311609301,-0.20649149661024466,-0.06461280956510057,-0.0006982759993121709,0.017359418798381765,8.665607350150908e-05,-0.0068762627582617045,-0.002151606558517849,0.2089946491851005,0.0032471638836528483,-0.20896942196100352,-0.06461877346619926,-1.5552586345382728
4.886,-1.5580887962848786,9.977505917269092e-05,-0.007114779536923743,-0.0023723664721158055,-1.559270129588438,0.2127840087330727,0.0024525361416417543,-0.21276987436897715,-0.06687880401295726,0.18838423914001248,-0.0680478813170177,7.377647391860151e-05,-0.007085321935218239,-0.0022270641736314768,0.2090044787255692,0.0027816896316687585,-0.20898596682586126,-0.06690885107401338,-1.5574866992790375
4.92,-1.5623944842489625,7.83791977840842e-05,-0.007277994593906656,-0.004305687964083925,-1.5614971937620694,0.21090329843076844,0.0019611895636076973,-0.21089417968372995,-0.12464381323321685,-0.056477786855984154,-1.734684961569357,5.072969364676109e-05,-0.007022891576412144,-0.004150638980666122,0.2139026232802858,0.0020383008509069736,-0.21389291146699804,-0.11352483251408867,-1.5612670762017566
4.954,-1.5671067208231435,4.597341452394765e-05,-0.007342198951415746,-0.0047122365741809604,-1.5656478327427357,0.21799133563956544,0.0011223221367171272,-0.2179884464987608,-0.07192557121362665,0.2128539702341441,1.5831303909786847,2.8676826571111284e-05,-0.007259053098129466,-0.0023951215214137677,0.215946060858877,0.0010618891237327607,-0.21594344998622833,-0.13849397792504187,-1.5658789256666605
4.988,-1.570947040123789,1.3176728036690122e-05,-0.007399402540377853,-0.003840319300645545,-1.5680429542641494,0.22461381977649608,0.0006184447399869731,-0.22461296837157874,-0.07429773659301527,0.19887339750542476,-0.07123619757923763,1.1338025838891733e-05,-0.0074796296974713695,-0.0024741146285474085,0.2183959431367756,0.00014600382602758283,-0.21839589433293954,-0.12759378298302584,-1.5701277986399953
5.022,-1.5732328721574513,-9.335001542654098e-06,-0.007494511799615133,-0.0022858320336622824,-1.5705170688926968,0.21799982897688522,6.087817412873583e-05,-0.21799982047652955,-0.0644911129019414,-0.19861834233065656,0.2944932039361521,-5.77108322865966e-06,-0.007259390615967923,-0.0021475540596346487,0.2205191676450179,-0.0003927647698918723,-0.22051881786978414,-0.07356217392420285,-1.5725774190316713
5.056,-1.5754641253336172,-2.605354208884414e-05,-0.007499953036218199,-0.002231253176165904,-1.5726646229523316,0.21800099488201943,-0.00040729018411183725,-0.21800061441256577,-0.06499352228532078,3.501216619264249e-05,-0.015087368870251625,-2.1421831629175013e-05,-0.007259400105861132,-0.002164284292101182,0.2205971483328211,-0.0008703704439434581,-0.22059543129417478,-0.06499813585937676,-1.5747418569557885
5.09,-1.5775118834209747,-4.264565645351048e-05,-0.007499444717670611,-0.0020477580873574652,-1.5748289072444326,0.22464244874378086,-0.0009058862917261123,-0.2246406222116309,-0.06707563712381868,0.19944305891175468,-0.06252597112606324,-3.852377347160162e-05,-0.007480492792032259,-0.0022336187162231625,0.2206377924364052,-0.0013633726151120937,-0.22063358009678077,-0.0670793833123139,-1.5769756004200886
5.124,-1.579157705197358,-5.6131782236956695e-05,-0.007496539718622852,-0.0016458217763832828,-1.5770625259606559,0.21807109753811496,-0.0013664679869769376,-0.2180668162438261,-0.04805000741381349,-0.19733787404402112,0.5713402315316876,-5.131625852275569e-05,-0.0072615854544578,-0.0016000652468799894,0.2205016675723901,-0.0017159094438439352,-0.22049499100203016,-0.048127576754399236,-1.57857824872601
5.158,-1.5807873086852466,-6.844059032684591e-05,-0.007495765616325922,-0.0016296034878886536,-1.5786625912075358,0.21806992149702656,-0.001715377972085238,-0.21806317465388836,-0.04775434350637645,-3.531654920126366e-05,0.008878796019130233,-6.289911235494503e-05,-0.007261455208083608,-0.001590219638762336,0.2204816573379653,-0.002066004349890465,-0.22047197746770944,-0.04770657463653376,-1.5801668776614066
5.192,-1.582300669468734,-8.0219372901702e-05,-0.00749322075812997,-0.0015133607834874054,-1.580252810846298,0.2246592009118332,-0.0021244544868371748,-0.22464915590199044,-0.048701824613017856,0.19787625870290199,-0.028452886085327447,-7.681384680794236e-05,-0.007480756211212693,-0.0016217707596134947,0.2203722557700696,-0.002419613848352419,-0.22035897209329564,-0.048328412419021236,-1.58177621379496
5.226,-1.5835168053008362,-8.971666232571174e-05,-0.007478555161651634,-0.0012161358321021165,-1.5818745816059117,0.218030157242112,-0.0024153442327540533,-0.2180167782058468,-0.03997558680069202,-0.19907038047210798,0.2620491835533284,-8.52664775096292e-05,-0.007259902996322999,-0.0013311870404630443,0.2199526404653277,-0.00269319303322674,-0.21993615155075236,-0.037983223989405124,-1.5830410551538072
5.26,-1.584825479347484,-9.992470931563524e-05,-0.007487289093754512,-0.0013086740466479174,-1.5832057686463747,0.21800069758037235,-0.0027051975481479536,-0.2179839123691344,-0.03943059747459178,-0.0008846745267160588,0.016366045828836027,-9.485199439558313e-05,-0.007258803010942238,-0.0013130388959039065,0.2203861402278089,-0.0029654923377157656,-0.22036618765070654,-0.03638350761948351,-1.584252625957536
5.2940000000000005,-1.586116791631167,-0.00010975117546840885,-0.007488907748668949,-0.001291312283682844,-1.5845188075422787,0.22459800909912095,-0.00308194512859934,-0.22457686280094202,-0.040245619679040126,0.1981174630254833,-0.024475141274725096,-0.00010764340409316171,-0.007478338472392791,-0.0013401791353120363,0.2203026158429065,-0.0032530634389518237,-0.2202785966123114,-0.039356697068404896,-1.585563203969914
5.328,-1.5873747418035722,-0.00011922301452638173,-0.00748947747493145,-0.0012579501724052644,-1.5858589866775907,0.21797987705708124,-0.003283232594090344,-0.21795514948161554,-0.03659683563782755,-0.19874270396515625,0.10957309433070801,-0.00011375748760292913,-0.007257838008751095,-0.0012186746267396575,0.2203098270922194,-0.00352154897526184,-0.22028168014208185,-0.03658658545784614,-1.5867815372656602
5.362,-1.588647101417679,-0.00012866904939934365,-0.007489709127406652,-0.0012723596141068771,-1.5870776613043305,0.21799623569358312,-0.0035491128293740903,-0.21796734290874087,-0.03678883711087042,0.000491250345401594,-0.005765810001287474,-0.00012263474808219766,-0.0072582382539910974,-0.0012250682757919851,0.2203237278992884,-0.0037920864373476764,-0.2202910918668555,-0.03684893355696686,-1.5880086067531072
5.396,-1.5896043656021053,-0.0001373418384811309,-0.007478603966699748,-0.0009572641844262095,-1.5883027295801224,0.22460936326742167,-0.00393190113784237,-0.22457494566589312,-0.03835467423234033,0.19859241963479146,-0.047022135779877204,-0.00013571144156675267,-0.007478259980657546,-0.0012772106519369332,0.2203003031872529,-0.004074499000896425,-0.22026262061976667,-0.0385579110327837,-1.5892925851904989
5.43,-1.5904858597447322,-0.00014215943364992434,-0.007448760098182183,-0.0008814941426269486,-1.5895799402320594,0.21800256668721274,-0.004094635150033666,-0.21796410953457626,-0.01183248794177248,-0.198402299705974,0.7964620507678033,-0.00013778464934457538,-0.007258177733264941,-0.00039402184846102365,0.2192932058418315,-0.004191459412622134,-0.2192531454651911,-0.018570562955228014,-1.589910984936908
5.464,-1.5916515001839036,-0.00015034014144021945,-0.0074295100858632335,-0.0011656404391713338,-1.5899739620805204,0.21801725699592037,-0.004180799159409791,-0.21797716684647014,-0.012068787404164106,0.00044115041164044034,-0.007096079951700467,-0.0001406825547953096,-0.0072586114198002075,-0.00040189062055866475,0.2183672343218947,-0.004423913941449471,-0.21832241756363893,-0.03440791390172979,-1.5910567684698356
5.498,-1.5919501448042828,-0.0001553916179375392,-0.007367576666312825,-0.000298644620379207,-1.590375852701079,0.2246248796898853,-0.004397767652046107,-0.22458182521160094,-0.012806247578804646,0.19842710792687449,-0.022145951190406618,-0.00014804372881088902,-0.0074785432586761975,-0.00042644804437419476,0.2201686746851162,-0.004644295825742134,-0.22011968523710806,-0.02508665319797084,-1.591892154021328
5.532,-1.593857260462563,-0.0001562621759081395,-0.007062345337012554,-0.0019071156582801672,-1.590802300745453,0.1994902355301196,-0.003990730235332706,-0.1994503149760647,-0.14259330781939528,-0.7547941189118823,-3.897509316534253,-0.00014866243044568865,-0.006641354954585035,-0.004748357150385863,0.2062097514397111,-0.004548238531227534,-0.20615958652240868,-0.028898837666396962,-1.592854485315619
5.566,-1.5949183220707142,-0.00016716468953426045,-0.007095545181127871,-0.0010610616081512256,-1.595550657895839,0.20657806007683038,-0.00511317945361411,-0.2065147701763283,-0.03064719157754138,0.2128475839853087,3.3617452324881048,-0.00017378116293037093,-0.006876853688681476,-0.001020551479532128,0.2087427647793439,-0.0048978811813213076,-0.2086852956191647,-0.04227363657058377,-1.5942621974134195
5.6,-1.5954434872883863,-0.00017363750352061835,-0.007091460318575216,-0.0005251652176720967,-1.5965712093753712,0.21285357553559733,-0.005485668473504507,-0.21278287539105928,-0.031877767422116815,0.18845391768068917,-0.03695422956682988,-0.00018643682671696342,-0.007085571377290191,-0.0010615296551564901,0.2087782986335038,-0.005120487475960459,-0.2087154967612828,-0.031908270062053545,-1.5953247428064858
5.634,-1.5955952104295243,-0.00017527534692129976,-0.007087573542546077,-0.0001517231411380937,-1.5976327390305276,0.20660752818271882,-0.00554393929031415,-0.20653313399771545,-0.004629384281481749,-0.18756898957593118,0.818269763983035,-0.00018514647499230657,-0.006877539019415657,-0.00015415849657334226,0.2085358922338862,-0.005150762477321978,-0.20847227152713915,-0.005217446251107274,-1.5954984837666477
5.668,-1.595729813695025,-0.00017592042192848822,-0.00708666269481395,-0.00013460326550074342,-1.5977868975271008,0.20659191456083878,-0.005575356692341497,-0.20651666896322457,-0.00423473827430491,-0.0004688775339352887,0.011851231446751901,-0.0001861474442748914,-0.0068769918770513324,-0.00014101678453435352,0.2085096245568435,-0.005179792039522614,-0.2084452764810542,-0.004275657469604982,-1.5956408631603856
5.702,-1.5946139905081362,-0.00017629971944899125,-0.007154983521880931,0.0011158231868888535,-1.5979279143116352,0.2128257764101261,-0.005773592771872693,-0.212747448236348,-0.0038041992159421854,0.18720305853715657,0.012929100851733481,-0.00019271264621546094,-0.007084477740420678,-0.0001266798338908748,0.208432613570985,-0.005204117159253841,-0.20836763559781624,-0.0037814579496860115,-1.59576678571011
5.736,-1.5933248705552097,-0.00016808515602617646,-0.007300931882649797,0.0012891199529265762,-1.5980545941455262,0.21802146476858023,-0.005942151461610876,-0.21794047337712324,-0.022949371038856633,0.15602667743105497,-0.5749300847722055,-0.00020065009097411347,-0.007257341355339571,-0.000764214055593926,0.2137183181981281,-0.004972261011411086,-0.21366046932895835,0.0511372771567804,-1.5940639143807893
5.77,-1.5938721858326086,-0.00016958406853362362,-0.0074649937950742595,-0.0005473152773989298,-1.59881880820112,0.21802830795064818,-0.00610889462110577,-0.21794270915617003,-0.022877608998164437,0.0002055009630015143,0.0021550162370028727,-0.0002061939947215586,-0.00725741393001516,-0.0007618243796388758,0.2191809675382308,-0.004940971158950778,-0.2191252685908255,0.02170551611291716,-1.5933411206942292
5.804,-1.5946262083522924,-0.00017551826012862648,-0.007483275820038715,-0.0007540225196838168,-1.5995806325807589,0.22459119219529156,-0.00646380888333457,-0.22449815764594178,-0.022671934089002477,0.19708361095025162,0.006176423698557369,-0.00021807029087220678,-0.007475706586299392,-0.0007549754051637826,0.2201299364517511,-0.0051218933765737155,-0.22007034132406622,-0.02176868678209991,-1.594066017964073
5.838,-1.5953996825941423,-0.00018114277754754937,-0.007484151237519443,-0.0007734742418499253,-1.6003356079859228,0.2179923789627109,-0.006438401759246705,-0.2178972791675213,-0.022322154095810728,-0.1981625595369567,0.010503903699451922,-0.00021709889976477174,-0.007255898943401151,-0.0007433277313904973,0.2201878345263881,-0.005286305125127708,-0.22012436814570105,-0.022245568548414703,-1.5948067953967353
5.872,-1.5961955615819712,-0.0001866189864310197,-0.007483923181478835,-0.0007958789878288463,-1.6010789357173132,0.21800196088772625,-0.0066006591771473905,-0.21790201065919718,-0.022574942883903014,0.00028774549595647446,-0.007591254897666252,-0.00022253267004617276,-0.0072560535510313925,-0.0007517455980339704,0.220195923584903,-0.005452566748735571,-0.22012840407193945,-0.0226547932993773,-1.5955612000136046
5.906,-1.5973229677790541,-0.00019275930066275926,-0.007476409081367152,-0.0011274061970829585,-1.6018306813153471,0.2246142251639191,-0.006969638588998195,-0.22450606736550915,-0.023740273764586397,0.19856649478056612,-0.03499492134184333,-0.00023504749880073696,-0.0074759594167590595,-0.0007905511163607271,0.2201278562911213,-0.005627992207833756,-0.22005589930522912,-0.02416928353562772,-1.596366037155341
5.94,-1.5990993126627722,-0.00020304633768164493,-0.007435196234155339,-0.0017763448837180287,-1.602621232431708,0.21801355688061896,-0.006937089727676882,-0.21790316144987218,-0.0302583392635094,-0.19821826676576987,-0.19573770267036045,-0.0002346640751970295,-0.007256057559267679,-0.001007602697474863,0.2188608460793071,-0.00586870531664906,-0.21878214791078476,-0.03748599319604235,-1.5976143207287692
5.974,-1.6003650311857032,-0.00021648058890422206,-0.007472285735282469,-0.001265718522931003,-1.6036288351291828,0.2180292034585316,-0.007157159606413824,-0.2179116991515832,-0.030512575957839034,0.0004698672045838575,-0.007634735565454456,-0.0002420232604840246,-0.007256337139668037,-0.0010160687793960399,0.2192135753985141,-0.006255910430734744,-0.2191242917243149,-0.051767299713961046,-1.599338171809244
6.008,-1.6013234290659775,-0.00022480387834677984,-0.0074851904927756285,-0.0009583978802742976,-1.6046449039085788,0.2246231625018813,-0.007601722661308825,-0.22449449646912759,-0.03204740755025982,0.19801678808857942,-0.04609103881143492,-0.0002571297095124188,-0.007475530123150759,-0.001067178671423652,0.2202735834885337,-0.006547518097005063,-0.22017625119355957,-0.0356461128793863,-1.6005251873681277
6.042,-1.6022614358456926,-0.00023186511215200767,-0.007486220042075109,-0.000938006779715117,-1.6057120825800024,0.2180196477128317,-0.007610774160774294,-0.21788676624683048,-0.0272406370889051,-0.19830374741890713,0.14434746130194342,-0.00025673293871021266,-0.007255513253406319,-0.0009071132150605399,0.2202755799430464,-0.0067476000087196815,-0.22017220763158954,-0.027281376707100565,-1.601433657212474
6.076,-1.6031954925751801,-0.00023893594435642207,-0.007486702287166858,-0.0009340567294875423,-1.6066191957950628,0.21805307284507114,-0.007809616095492283,-0.21791317645709024,-0.02732044762521902,0.0010037577249082644,-0.0023967128022198184,-0.00026336441608442113,-0.007256389355605702,-0.0009097709059197935,0.2203168304541196,-0.006949387254352488,-0.2202072019670073,-0.02734535982873098,-1.6023442576947708
6.11,-1.6039121280090813,-0.0002451803338725522,-0.00748426276618841,-0.0007166354339012138,-1.6075289667009827,0.22468190389803522,-0.008251303614606346,-0.2245303407735924,-0.02799865529948589,0.19906399558450685,-0.02036659682483098,-0.0002782573730267236,-0.00747673104494591,-0.0009323552214728802,0.2203127580570007,-0.0071547208362534205,-0.2201965515907046,-0.02802014128452109,-1.6032773283995454
6.144,-1.604587022851879,-0.0002494986668031274,-0.007482691524232088,-0.000674894842797702,-1.6084613219224555,0.21806496073418283,-0.008211473825053882,-0.2179102998887872,-0.020245571598082497,-0.19870700191748916,0.2328253363784803,-0.00027589146876986484,-0.007256320134761093,-0.0006741775342161472,0.2201548761357148,-0.0074419947722247646,-0.2200290576268101,-0.01963371422957843,-1.6046062197530446
6.178,-1.605195807843011,-0.0002549624715764143,-0.007477142686410421,-0.0006087849911320387,-1.6097905367852818,0.22460973270020987,-0.008756259636297179,-0.22443898935087347,-0.019611953492329595,0.19731753413099817,0.0017668815801885384,-0.00029402737487320386,-0.0074737224647548,-0.0006530780512945755,0.2200940872301978,-0.0075736821378317365,-0.2199637392221023,-0.018258653535827615,-1.6052142329157877
6.212,-1.608768961466168,-0.0002551712860556776,-0.007150949194118406,-0.0035731536231569105,-1.6104436148365764,0.18800147086867258,-0.007451795854139122,-0.18785372976689227,-0.13523483994516006,-1.0993472021482669,-3.4721587523372506,-0.00026223215760882437,-0.006254949199604586,-0.004503320170173831,0.2004447603618285,-0.007609586612203329,-0.20030026497262116,-0.10674860511652563,-1.608768961466168
6.246,-1.6108541339175717,-0.0002743491483871985,-0.00696249657731518,-0.002085172451403716,-1.6149469350067502,0.20648597738373636,-0.009113520020621109,-0.20628476097121337,-0.011117640404074041,0.5550902857376511,3.7272432294620423,-0.00030475495066097124,-0.006869226065648685,-0.0003702174254556656,0.2085028437040076,-0.008347660339835987,-0.20833567241235612,-0.062290176870339234,-1.6108432243559503
6.28,-1.6112099242660702,-0.00028518808484045977,-0.007082759602864863,-0.0003557903484985303,-1.6153171524322059,0.21279066442590175,-0.009470486763048925,-0.2125798126523016,-0.011197479129436652,0.18932994120616772,-0.00239755932019852,-0.0003166902533039567,-0.007078848654380293,-0.00037287605501024057,0.2085132767480839,-0.008423497196805482,-0.2083430615000136,-0.010870643000248134,-1.6112052167678586
6.314,-1.611256550150535,-0.00028654663551508364,-0.007080961522897833,-4.6625884464690515e-05,-1.615690028487216,0.20654302282447604,-0.009269366472156827,-0.2063349197849867,-0.0014808270069805647,-0.18761686490767907,0.29179135502871134,-0.0003088424896804069,-0.0068709450727379474,-4.9311539332452806e-05,0.2084415264318142,-0.008430622600000437,-0.20827096423601896,-0.001445327116881282,-1.6112533461608507
6.348,-1.6113217226842058,-0.0002868978232044572,-0.007081021559521283,-6.517253367088749e-05,-1.6157393400265485,0.20654587388248416,-0.00927966924540152,-0.20633731062649577,-0.0017677982460587087,8.561735760132854e-05,-0.008617754927271591,-0.0003092184042763825,-0.00687102320145431,-5.8867681593755005e-05,0.208435440324976,-0.00844320953672583,-0.20826436324101533,-0.0018504258253665632,-1.6113149653408354
6.382,-1.611498794601781,-0.0002876401282190244,-0.007081200400509746,-0.0001770719175751001,-1.6157982077081423,0.21280040720781002,-0.009573186599275418,-0.21258496514604516,-0.002309192129426621,0.18782382358335903,-0.016258074575612985,-0.0003190625641474897,-0.007079066928078702,-7.689609790990649e-05,0.208216211543055,-0.00845775418199254,-0.20804436340247054,-0.0033812684711202077,-1.6114275615809237
6.416,-1.613661331542612,-0.00029451861172202776,-0.007086785301527843,-0.002162536940831128,-1.615875103806052,0.19948518299224305,-0.008989502770202223,-0.1992825307782728,-0.14230882859812444,-0.39985658305005906,-4.204193287348282,-0.0003150762347599898,-0.006635373999175874,-0.004738883992317544,0.207249218357911,-0.008799511574733302,-0.20706232662174742,-0.05525922124746315,-1.6132676936484642
6.45,-1.618090035474409,-0.000322413081991213,-0.007181140036059741,-0.00442870393179695,-1.6206139877983696,0.21803719763156187,-0.0108576108284785,-0.21776669129626341,-0.00971579534146959,0.557117556736301,3.9817727704701147,-0.0003627348697283138,-0.007251572037316671,-0.00032353598487093737,0.2120931814442995,-0.009899794604176977,-0.21186201094570886,-0.12679361106487813,-1.6174899208969247
6.484,-1.6211038074137758,-0.00035608591742919415,-0.007282876988270015,-0.003013771939366805,-1.6209375237832406,0.22466713203406297,-0.011260359187232638,-0.22438476892914455,-0.010294183254254895,0.19909712920423697,-0.017369006389949107,-0.00037625409837708395,-0.00747194821583784,-0.00034279630236668803,0.2160655414825737,-0.01080525758929987,-0.21579519138429998,-0.1001934070747216,-1.620826361352513
6.518,-1.6215940996782272,-0.000377430128304157,-0.007440611120751228,-0.0004902922644514085,-1.6212803200856072,0.21806220630274561,-0.011003975386219444,-0.21778438498505967,-0.0011465685524957912,-0.1983461180575781,0.27470314419697006,-0.00036657418178260876,-0.0072522128533681965,-3.8180732798109855e-05,0.2200455848712666,-0.01117051521357707,-0.21976186887447294,-0.022713063436454482,-1.6215827063649468
6.552,-1.6216487839941025,-0.00038013446121154537,-0.00747248835426817,-5.4684315875297436e-05,-1.6213185008184052,0.2180607089976858,-0.01101221493067801,-0.2177824692919381,-0.0015527487205702873,-4.496411591074182e-05,-0.01219760264487976,-0.00036689760290701894,-0.007252146573949514,-5.170653239499057e-05,0.2200708468562595,-0.0111840342396664,-0.21978647595827455,-0.0016719196537205968,-1.6216383812894157
6.586,-1.621561384507033,-0.0003800081877067818,-0.00747287712240341,8.739948706959488e-05,-1.6213702073508,0.2246733005519785,-0.011357757565393584,-0.22438603638374074,-0.0012806535499272893,0.19857632295173344,0.008171026145435373,-0.0003783761082229852,-0.007472046769722571,-4.264576321257874e-05,0.2200662404780575,-0.011193824581046083,-0.21978136520049876,-0.0013696967947094993,-1.6216839921926796
6.62,-1.62083008142193,-0.0003761016064012246,-0.007467264659133166,0.0007313030851028303,-1.6214128531140126,0.21804534586559063,-0.011031985861179924,-0.21776608583891977,0.02208002058918441,-0.19903767826990637,0.7015217459192702,-0.00036470252335840415,-0.007251744891679014,0.0007352646856198409,0.2201006874315571,-0.011042448320690625,-0.21982351317120036,0.020919200514237967,-1.6209873828155554
6.654,-1.6200850991176958,-0.00037131342995344596,-0.007466967502043453,0.000744982304234254,-1.6206775884283928,0.21801989750959877,-0.010870598311177052,-0.21774872170107681,0.02265389809592306,-0.0007642148946504009,0.01723355876092046,-0.0003592592449739021,-0.007251168117170196,0.0007543748065942379,0.2198108487363359,-0.010876711659322625,-0.21954158231567047,0.020681649107324316,-1.6202986839002815
6.688,-1.6192337443059777,-0.0003651775286157566,-0.007461634628512681,0.0008513548117181635,-1.6199232136217985,0.22458979982023927,-0.0110289601196437,-0.22431883608376374,0.023980403628267467,0.19729436368289793,0.039835000971303505,-0.00036428528608867727,-0.007469962918229582,0.0007985474408213067,0.2197750269431922,-0.01069680872593864,-0.21951455703657002,0.024369078371298498,-1.6194871935905173
6.722,-1.618252572864662,-0.0003582773455448329,-0.007460556186384748,0.000981171441315709,-1.6191246661809773,0.21796714025090602,-0.010529889826918387,-0.21771264467042586,0.02835698695510488,-0.19887866574574323,0.13142892873385628,-0.00034722566932125364,-0.007249995384538955,0.0009442876656049926,0.2196810628538034,-0.010484700158823876,-0.21943071899612482,0.028402721033709825,-1.6185413829800948
6.756,-1.6172715620983598,-0.000351039014986787,-0.007461906876274349,0.0009810107663021927,-1.6181803785153723,0.21797294327862174,-0.010324576665901392,-0.2177282873634365,0.0285930190893369,0.00017426509656808645,0.007088052079039593,-0.0003403600021147842,-0.007250514394432977,0.0009521475356749189,0.2197158301416733,-0.010277290660776161,-0.2194753364538225,0.028606787597790374,-1.6175887769530883
6.79,-1.6164288158354165,-0.0003439549766266481,-0.0074643762646677825,0.000842746262943228,-1.6172282309796975,0.2246079538634601,-0.010425228054565527,-0.2243658787755851,0.02936958936295264,0.1992495671122633,0.023320428637109366,-0.00034350996057180036,-0.007471552175845091,0.000978007325786323,0.2197433796216667,-0.010063867552369526,-0.21951280476874308,0.02937389362893932,-1.6166106262952447
6.824,-1.6158805184022518,-0.00033919455869768633,-0.007467633155547548,0.0005482974331647573,-1.6162502236539114,0.21800640525107007,-0.009905828835782067,-0.21778123722113896,0.016009341839524165,-0.19824470307477596,-0.40120863433719145,-0.0003279343471473915,-0.007252202631384911,0.0005331110832561547,0.2198680952483533,-0.009951325269041689,-0.21964277915180527,0.016168143493462944,-1.6160722271169123
6.8580000000000005,-1.6153932620836802,-0.00033441088465324675,-0.007464862284042972,0.000487256318571605,-1.6157171125706553,0.21801010203804094,-0.009789891849070961,-0.21779018023827548,0.015539924902557295,0.00011101462374999495,-0.014096604713719839,-0.0003241302506665667,-0.00725249687838534,0.000517479499255158,0.2197992470041047,-0.009835186725500673,-0.2195790930067022,0.01545733048584323,-1.6155574980117338
6.892,-1.6148644933456624,-0.000328577960627241,-0.007369990611122423,0.0005287687380177708,-1.6151996330714002,0.2246254957498798,-0.009970837425189694,-0.22440409029676736,0.015589722755603651,0.19866047182699287,0.001495431022413108,-0.00033009265834210336,-0.007472741902935663,0.0005191377677616016,0.218319432869889,-0.009729375506559047,-0.21810253098229362,0.005451782276392972,-1.6153759536619299
6.926,-1.6129435958195684,-0.0003015772349410639,-0.0070249101281428805,0.0019208975260940342,-1.6146804953036384,0.18803471700067925,-0.008249098897733832,-0.18785368552386975,-0.1329646069851135,-1.0988221846606772,-4.461090983204719,-0.0002885458329089106,-0.006254899019419213,-0.0044277214126042805,0.2047880021347638,-0.008684093844656623,-0.20460379354363212,0.06491355647183901,-1.6132143322314176
6.96,-1.6121581968894625,-0.000295724085586313,-0.007072890250870989,0.0007853989301058739,-1.6191082167162427,0.2065416562074215,-0.009974536542956635,-0.2063006649762863,0.023462306048750527,0.5557639401424094,4.697504895911832,-0.0003294715362039516,-0.00686994104675745,0.0007812947914233926,0.2081801500999819,-0.008680318769280465,-0.20799910327141963,0.021313079773696435,-1.6125046066749535
6.994,-1.611459296759034,-0.00029035496540186223,-0.007075296936841391,0.0006989001304285036,-1.6183269219248193,0.21281296853091436,-0.010111318865019375,-0.21257262477974406,0.023601785464037375,0.18832769740218835,0.004188571029635073,-0.00033392845508017053,-0.007078799837600405,0.0007859394559524447,0.2082531865599415,-0.008520156848422514,-0.20807882314077059,0.023554526788244528,-1.611720240932905
7.028,-1.610878495033639,-0.00028624701431301247,-0.007078279691710487,0.0005808017253949861,-1.617540982468867,0.2065616964835653,-0.009652139392759093,-0.20633606243047123,0.01757835050617271,-0.1877258873077799,-0.1808839326686085,-0.0003194084027885659,-0.0068710844107853185,0.0005853590718555514,0.2083682602391561,-0.008406345980711093,-0.20819861964562897,0.017095045042510765,-1.6111509759329894
7.062,-1.61029483410697,-0.0002821911972767932,-0.007078909965411162,0.0005836609266689495,-1.6169556233970115,0.2065769690996396,-0.00953206178292867,-0.2063569333959,0.01768278926879381,0.00045863711934874754,0.003136299177810812,-0.00031539766609155407,-0.00687177879272598,0.000588836882650834,0.2083778384514481,-0.00828943931915397,-0.2082128928608214,0.016917081423947673,-1.610587637121572
7.096,-1.6112984308051859,-0.00027751635846318123,-0.007027204696674227,-0.0010035966982158142,-1.6163667865143605,0.21283751290680694,-0.009695746689621499,-0.21261655485047706,0.018472174668014894,0.18800431853355373,0.023705267243876376,-0.000320694041659029,-0.0070802299836569636,0.000615123416444896,0.2083689413414051,-0.008166619731425854,-0.2082088423624228,0.01766346638135088,-1.609999443691073
7.13,-1.6145704885135934,-0.0002929991032250001,-0.006932467307948165,-0.0032720577084075497,-1.6157516630979156,0.19947013102857222,-0.008964226686866791,-0.19926860217420667,-0.12619919406405664,-0.4014228792262678,-4.344485547509655,-0.00031245384421607164,-0.006634997545901579,-0.004202433162333086,0.2023351786258121,-0.008612107966323659,-0.20215181450067593,-0.10130082508265403,-1.6133727611663253
7.164,-1.6127518989955896,-0.0003130750014679329,-0.007257383805315043,0.0018185895180038438,-1.6199540962602488,0.2180161798894976,-0.010712873308770184,-0.21775281637462243,0.024785000421768868,0.556938404231993,4.534059894469234,-0.0003537496527436016,-0.007251315013874546,0.0008253405140449034,0.2138316325319382,-0.009256429743836503,-0.21363119055903632,-0.021786756062906254,-1.61409826014322
7.198,-1.6115437744254284,-0.0003075819744589037,-0.00744159534712846,0.0012081245701611734,-1.619128755746204,0.2246183273313279,-0.010852123059028003,-0.22435602153326595,0.025700936045961832,0.19826268594084975,0.027505574300089018,-0.00035818209077266507,-0.007471209079451165,0.0008558411703305291,0.2194504421808884,-0.009063651197963074,-0.21926319071004402,0.05971761721489531,-1.612109663489964
7.232,-1.6105029181596626,-0.0003007103685332968,-0.0074630126513224315,0.0010408562657657772,-1.6182729145758734,0.217958839765834,-0.010344055004493723,-0.21771324341466353,0.03025907697039197,-0.1999846115763932,0.1368811088417459,-0.0003408077528875969,-0.0072500231634154986,0.0010076272631140528,0.2196704141733419,-0.008854568372119077,-0.2194918847748842,0.029849507066675475,-1.6111156749046438
7.266,-1.609465133193235,-0.00029301177488938457,-0.007464351110556711,0.0010377849664275909,-1.617265287312759,0.2179785368925156,-0.010125590966410282,-0.21774323170510432,0.03033585074108814,0.0005915053057535989,0.0023055186395245886,-0.0003335231300699715,-0.007251018536298109,0.0010101838296782352,0.2197078891417984,-0.008634261897507862,-0.21953816541237203,0.03034235798648398,-1.6101052743836939
7.3,-1.6085813065415513,-0.00028554200404107277,-0.007466373481014699,0.000883826651683739,-1.616255103483081,0.22461063607374585,-0.010207008434868608,-0.22437859705476196,0.03106231651076266,0.19916213757448212,0.021815788879114745,-0.0003360324503970304,-0.007471981582744411,0.0010343751398083968,0.219726957162859,-0.008408015790705744,-0.21956602873512135,0.031046772594129017,-1.6090714168563094
7.334,-1.6078174591945373,-0.00027901847913880395,-0.007466585445281504,0.0007638473470139573,-1.6152207283432725,0.21801254759056266,-0.00968189164353597,-0.21779745609425788,0.023085809966918124,-0.19814079529078646,-0.23953473104638245,-0.00031962254789486477,-0.007252778352135142,0.0007687574718983736,0.2197814385920142,-0.008241989418096339,-0.21962684344134104,0.022986515030915592,-1.60830596590578
7.368,-1.6074434617115267,-0.00027327133539278847,-0.007440558797929486,0.00037399748301059077,-1.6144519708713743,0.2180131916336243,-0.009514483484538788,-0.21780547819166957,0.02258487928051743,1.9340632481431914e-05,-0.015042963555576376,-0.0003141082484888481,-0.007253040735838457,0.0007520764800412305,0.2194185593735902,-0.008074792656065182,-0.21926992935909678,0.021034925758186846,-1.6076055028780323
7.402,-1.6072086270274832,-0.00027127100600399245,-0.007416106103817599,0.00023483468404350558,-1.613699894391333,0.22463221976130957,-0.00963456723946984,-0.22442550939900174,0.022911057412429,0.19876961344400232,0.009795139096443493,-0.0003179836548501063,-0.007473490978060248,0.0007629382118338857,0.2181890060992858,-0.007997044185561622,-0.2180424033689052,0.004476074571584981,-1.6074564495947985
7.436,-1.6062264528292762,-0.00026858045543187714,-0.007462927935458219,0.0009821741982070087,-1.612936956179499,0.21803431486538125,-0.00918538407503502,-0.2178407472862006,0.03045928965186475,-0.19813528216000956,0.2266736408238964,-0.00030219769777810123,-0.0072542506238040694,0.0010142943454070964,0.2197078861233108,-0.007941570629173746,-0.21956431103600502,0.015201335359605005,-1.6069502451273237
7.47,-1.6052130524550425,-0.00026112625516949706,-0.0074670814584914535,0.0010134003742336974,-1.611922661834092,0.21800748274335532,-0.008963321554027888,-0.2178231424775923,0.02966206960013733,-0.0008057694302078545,-0.023940542093916477,-0.00029489959777679475,-0.0072536567392969716,0.0009877469176845731,0.2197416447028402,-0.0077248157871215774,-0.21960582332389164,0.029807559213736522,-1.6059576534055062
7.504,-1.604443369704785,-0.00025438271114341937,-0.007470892673755003,0.000769682750257461,-1.6109349149164076,0.22464831759235257,-0.00901464524508003,-0.2244673757323765,0.03042962645888575,0.1994244699398572,0.02304975551797053,-0.0002964039790980171,-0.007474914286702669,0.0010133065610808956,0.2197887429128177,-0.00750417142002394,-0.2196605993857241,0.030391404202954872,-1.6049456196455478
7.538,-1.6037660542921173,-0.00024942480627321295,-0.0074731787387106174,0.0006773154126678006,-1.6099216083553267,0.21804755404090767,-0.00852899554321488,-0.21788068307733566,0.020357355575028255,-0.198221127671018,-0.3024705971128377,-0.0002815596587738712,-0.0072555223276171005,0.0006778999406484409,0.2199218289335176,-0.007363228529467163,-0.21979852981102088,0.01987739298565067,-1.6042837024591257
7.572,-1.6030848112223817,-0.00024353934592680204,-0.007473820980050894,0.0006812430697356042,-1.6092437084146782,0.21804800702333027,-0.00838130970435586,-0.21788686746677957,0.020638765616695916,1.360307575374212e-05,0.00845075200203188,-0.0002766076543159259,-0.007255727895360637,0.0006872708950359741,0.2199476378738715,-0.007219648591214747,-0.21982911563420143,0.019732173669385542,-1.6036266210759351
7.606,-1.6054987227151762,-0.00023809812687169973,-0.007292664709867391,-0.0024139114927945737,-1.6085564375196424,0.22465146636745476,-0.00848084854020722,-0.22449132844964353,0.021604182287406282,0.19830208240614067,0.028991491612923897,-0.0002797266580728575,-0.0074756620495655,0.0007194192701706293,0.2199310281276907,-0.007068862725913754,-0.21981739765784072,0.0205251337072111,-1.602943134123485
7.64,-1.609615366364856,-0.00026362814487668196,-0.007034084646372618,-0.004116643649679785,-1.6078370182494717,0.18796621552965828,-0.006960806619173949,-0.18783728424291177,-0.11962140326946755,-1.1016591843182124,-4.241008575281496,-0.00024425514756593145,-0.006254503246235477,-0.0039833927288732696,0.2041152017762427,-0.007350273507492237,-0.20398281563779178,-0.11625816361752564,-1.6068145309719486
7.674,-1.608648857312192,-0.00027166082035945394,-0.007072745276314685,0.0009665090526640441,-1.6118204109783452,0.20654622130677683,-0.008470993025113517,-0.20637243956806955,0.027716913848055736,0.5579581314450014,4.424574087613312,-0.000278915776865322,-0.006872331310922259,0.0009229732311402561,0.2086103299382608,-0.008075871614583728,-0.20845395188054078,-0.0812067246837346,-1.609518714903917
7.708,-1.6074518723307722,-0.0002639714852219477,-0.0070692133256473055,0.0011969849814197355,-1.610897437747205,0.21276206456906913,-0.008529708625960822,-0.21259101625056726,0.029550712630806025,0.1866619598285975,0.055069032515023694,-0.0002805593824998119,-0.007079419321700087,0.0009840387306058408,0.2080871350737052,-0.007843944418969991,-0.207939241893238,0.030569827698179237,-1.6085007396415676
7.742,-1.6062219464948029,-0.0002553191916347952,-0.007070238927525119,0.0012299258359693699,-1.609913399016599,0.20650354432363557,-0.008075754176692205,-0.2063455742503371,0.03585417114770194,-0.18794355091392045,0.1892930485554328,-0.00026482375067842277,-0.006871466406789902,0.0011939438992184747,0.2080723845777202,-0.007595164251568203,-0.20793371709237157,0.03584961010426978,-1.6073069476250954
7.776,-1.6050027654044305,-0.000246646729495259,-0.007071010453814197,0.0012191810903723344,-1.6087194551173805,0.20652746542026532,-0.007830290385107557,-0.20637897306994188,0.03581895428192202,0.0007183512501424043,-0.001057563536934463,-0.00025665317477078,-0.006872573561695531,0.0011927711775880034,0.2080971724033509,-0.007347941270116127,-0.20796740350680173,0.0358298654895578,-1.6061138131042931
7.8100000000000005,-1.6061226440238388,-0.00024187775567230396,-0.007040933001519589,-0.0011198786194082098,-1.6075266839397924,0.21279875287549074,-0.007814416819958968,-0.2126552235782797,0.03660055327640892,0.18832695060737017,0.02347144127588279,-0.0002559078801657989,-0.00708157565149188,0.001218798424104417,0.2081000861543704,-0.007094774485013223,-0.20797910960590058,0.03657028667458217,-1.6048960225580295
7.844,-1.6100420312922428,-0.0002614396444553524,-0.007046140369006804,-0.003919387268404018,-1.6099915779643346,0.2180120222667353,-0.008542848228276657,-0.21784458128900094,0.044132934916457096,0.5581456127669241,4.6472771702914235,-0.0002791495984113826,-0.007254430853893396,0.0014696267327180214,0.2077975058101971,-0.008178419061224408,-0.20763650180687862,-0.11664855701814862,-1.610164133111706
7.878,-1.6142266681278918,-0.00029046239604002544,-0.007057329504632115,-0.004184636835649069,-1.6099915779643346,0.2180120222667353,-0.008542848228276657,-0.21784458128900094,0.044132934916457096,0.5581456127669241,4.6472771702914235,-0.0002791495984113826,-0.007254430853893396,0.0014696267327180214,0.2081791824095026,-0.009062829757754179,-0.2079818191705009,-0.1255180417531071,-1.6143438839020845
7.912,-1.6175646102262617,-0.0003210294182476314,-0.0071191655339689075,-0.0033379420983699064,-1.6070188631065156,0.21804939390805786,-0.007896575011517724,-0.21790636128107613,0.04286771058318287,-0.19807729423157655,-0.06817029884023465,-0.0002577800632637354,-0.007256466931126187,0.0014274947624199898,0.21147332743605,-0.009886639466950703,-0.21124209470871416,-0.09671850823355098,-1.6175646102262617
7.946,-1.61861141530123,-0.00034603228973129063,-0.007282067198774889,-0.0010468050749683486,-1.6055913683440957,0.21806425835359006,-0.007586023986789707,-0.21793226702664556,0.04268284686201503,0.00044637974571164527,-0.005551463098133366,-0.00024746044040545366,-0.00725732145949297,0.0014213388005051006,0.2174434667354233,-0.010396257633735596,-0.2171947951796547,-0.031869782358598844,-1.618625873978803
7.98,-1.6172961372492956,-0.0003523804085638904,-0.007452251011489108,0.0013152780519345433,-1.6041700295435906,0.22466481017210213,-0.007496504805706612,-0.22453970549852587,0.043349267924589256,0.19821476932468687,0.020012644521748463,-0.00024424021887267807,-0.0074773496601966945,0.0014435306218888223,0.2196840504606187,-0.010217984065157585,-0.2194462914437787,0.03905646779569751,-1.6173252936012064
8.014,-1.6166874298075575,-0.00034531373364954376,-0.0074693183430579735,0.0006087074417380212,-1.6027264989217018,0.21804847918661172,-0.006961142475938385,-0.21793733450472397,0.018399526726544536,-0.19868861818289532,-0.7492414774187603,-0.00022958609310371828,-0.0072573836930266205,0.0006127042399939331,0.2199462485288247,-0.010097888624814384,-0.21971432563040666,0.018081448336457834,-1.6167231813716023
8.048,-1.6160766966044702,-0.0003404185899114065,-0.007470451612646922,0.0006107332030873548,-1.6021137946817077,0.21805198630511044,-0.00682771986487801,-0.21794506411720097,0.018655397641970953,0.00010531887383557169,0.007683811274066576,-0.00022511212223328583,-0.007257640685967194,0.0006212247414776327,0.2199559304317732,-0.009968201649501747,-0.21972993944381347,0.017785036208842288,-1.6161309396658479
8.082,-1.615441009980269,-0.0003355455679665553,-0.0074706027518698925,0.0006356866242012149,-1.60149256994023,0.2246477996868772,-0.00689476058678055,-0.22454196975310942,0.019639720189609373,0.1980724739269298,0.029559235664817416,-0.00022715389936996838,-0.007477322032741835,0.0006540026823139922,0.2199003849108151,-0.009828875877509323,-0.21968061471807013,0.018701790621472373,-1.6155081700381528
8.116,-1.614555058667132,-0.00033063831873736405,-0.007465130148464005,0.0008859513131369566,-1.6008385672579162,0.21801159127795264,-0.006548571491347788,-0.2179132169992628,0.025962008831104007,-0.19928553780554248,0.1898585177626016,-0.00021493400661071142,-0.0072566033861746196,0.0008645348940757635,0.2195303419078983,-0.009628462022549767,-0.2193190911372721,0.025177223999860218,-1.6146697684789575
8.15,-1.6136423180478734,-0.00032365301757364406,-0.007463542062520867,0.0009127406192586118,-1.5999740323638405,0.21797815772836757,-0.006359200111715105,-0.2178853777117507,0.026574049889458856,-0.0010040104980501884,0.018379611362007487,-0.00020855440161334692,-0.007255675729892489,0.00088491586131898,0.2196869641407907,-0.009439602862326703,-0.21948406801223325,0.026780288224494676,-1.6137779848810818
8.184,-1.612739749839633,-0.00031683703512208616,-0.0074636519082375286,0.0009025682082404174,-1.5990891165025214,0.22457596749177228,-0.0063530329611008966,-0.224486088983395,0.02775784890039655,0.19813242532746878,0.03554951984797881,-0.0002081045390503807,-0.007475483376856758,0.0009243363683832052,0.2197161984904342,-0.009237757274036102,-0.21952191626266815,0.027784337566941365,-1.6128527664401027
8.218,-1.6119895824642867,-0.0003108005914531642,-0.007466211554755492,0.0007501673753462778,-1.598164780134138,0.21798937826230283,-0.005965287363582337,-0.2179077428221752,0.021955306859842767,-0.19779547235643985,-0.17425051172834183,-0.00019599481440141253,-0.007256399714388674,0.0007311117184327642,0.2197897519072696,-0.009080261771675813,-0.21960210356373405,0.021960333190485758,-1.6121214873448595
8.252,-1.6112513383995968,-0.0003052407264296786,-0.007466736753259096,0.0007382440646899191,-1.5974336684157053,0.21800384170925,-0.005806356101383139,-0.21792650419078374,0.021638729939088653,0.0004343377461611429,-0.009506814437060487,-0.00019074042767656038,-0.007257021535017988,0.0007205697069716522,0.2197991704555058,-0.008922612241905601,-0.2196179918032881,0.021610137284978414,-1.6114018697732697
8.286,-1.610341074287686,-0.0002982827426383228,-0.007449465525266014,0.0009102641119107523,-1.5967130987087335,0.22461019791985917,-0.005820519631081782,-0.22453476915796922,0.021805056484774182,0.19838907539366896,0.004994791161727608,-0.00019111218577231592,-0.0074770774359131315,0.0007261083809429803,0.2197530797290567,-0.00876295763558279,-0.2195782926973478,0.021579155137906987,-1.6106832839071774
8.32,-1.6062147666326736,-0.0002682758332965829,-0.007121191969554991,0.004126307655012429,-1.5959869903277906,0.18798144262793273,-0.0047348764665373095,-0.18792180213409354,-0.10157131186505829,-1.0999626213791722,-3.704996046541515,-0.0001682569185466242,-0.006257517353944039,-0.003382324685106441,0.2074756695467668,-0.00750241377516419,-0.20733997984331295,0.11167030240243524,-1.6069646628371763
8.354,-1.604992964590085,-0.00024622748244906845,-0.007087189540456895,0.0012218020425887044,-1.599369315012897,0.20654982748658804,-0.005900942773708503,-0.2064655179663682,0.03003218507871877,0.5576091549145737,3.9520569652785893,-0.0001930666440511772,-0.006875398770683319,0.0010000717631213352,0.2075469481896011,-0.007139190323382241,-0.20742412507792696,0.05296081975931194,-1.6052010675391912
8.388,-1.6041470550865666,-0.0002388140037514752,-0.0070738369288047,0.0008459095035182608,-1.5983692432497756,0.21278212923974105,-0.005866280484687902,-0.21270124888461012,0.0302685181239046,0.18715620880339362,0.00709708844401889,-0.00019178078215634683,-0.0070830487490986934,0.0010079416535260233,0.2081191637594023,-0.006963229169003748,-0.20800264364534615,0.028246249364654755,-1.6042604674353482
8.422,-1.6037414008320023,-0.00023483378045696668,-0.007078878119709392,0.00040565425456429155,-1.5973613015962498,0.2065309732346424,-0.005485844821701876,-0.20645810328451822,0.011982764793725818,-0.18772240255551503,-0.5491217216269904,-0.0001813101442691092,-0.0068750910198461905,0.00039902606763106977,0.2083250910764281,-0.006886922413506758,-0.20821122417312765,0.011999422641283605,-1.6038608866613935
8.456,-1.603341537352374,-0.00023211712909265714,-0.0070805473931421226,0.00039986347962828184,-1.5969622755286186,0.2065527664226761,-0.005404032396444121,-0.20648206157126286,0.011948860975538473,0.0006544500911018588,-0.0010181326782986281,-0.00017858951320821778,-0.006875888187936416,0.0003978970704854312,0.2083768860102587,-0.006807111073925805,-0.2082656713483036,0.011755043408377672,-1.6034694437158945
8.49,-1.603545006942011,-0.00022892260106011086,-0.00705592836628538,-0.00020346958963690653,-1.5965643784581331,0.2128365981733112,-0.005483777546028148,-0.21276594113206473,0.012372391268725361,0.1887036561752282,0.01271862742302967,-0.00018115352983364392,-0.007085143173149277,0.00041200062924855456,0.2084157196310249,-0.006726316958155203,-0.2083071502601301,0.011830420821064308,-1.603075490702553
8.524000000000001,-1.6065804629765128,-0.0002366468152557033,-0.006906369050582312,-0.0030354560345018378,-1.5961523778288846,0.19948159088562994,-0.005057523419832186,-0.19941746803908555,-0.09493403881014875,-0.40105126990033757,-3.222415317683907,-0.00017891479027809198,-0.006640324336032095,-0.003161303492377954,0.2021529891655328,-0.007041613329494265,-0.2020303113650967,-0.0769061365265452,-1.605636465048887
8.558,-1.6065593178236206,-0.0002632795528836329,-0.007300833111440308,2.1145152892199093e-05,-1.5993136813212625,0.2180172168793008,-0.0062164316120178476,-0.21792857277972802,0.019800756143162346,0.5566254052153413,3.44548933793727,-0.0002046180003827045,-0.0072570890997448925,0.0006593651795673062,0.2169521555020914,-0.0078523610925968,-0.21681000484819685,-0.04089323440221632,-1.6069982097544808
8.592,-1.6054910171015757,-0.00026217767590708263,-0.0074425903626709755,0.0010683007220448906,-1.5986543161416953,0.22462230427246266,-0.006256716413746094,-0.22453514886624942,0.020386307304014434,0.19835097276762298,0.017584118944507166,-0.0002058141585350679,-0.007477090507957796,0.0006788640332236807,0.2189813159354023,-0.00769897716832717,-0.21884593320270326,0.03112580702529415,-1.6059617203805385
8.626,-1.6045083108449152,-0.00025539465360902014,-0.007463166901523904,0.000982706256660526,-1.5979754521084717,0.2179883549997301,-0.005924003406231946,-0.2179078454281335,0.027530581895541594,-0.1992176958778546,0.2145427805263411,-0.00019394645445401293,-0.007256420571742233,0.0009167683771215352,0.2200446636801899,-0.0075013635976105145,-0.2199167650687513,0.03209011452267076,-1.6048931195669336
8.66,-1.6035391393540932,-0.0002484244118001744,-0.007465299717723806,0.000969171490821985,-1.59705868373135,0.2179762183218386,-0.005723911221815178,-0.21790105230176066,0.027952933015809013,-0.0003644648015462122,0.012683216824847413,-0.0001872324624274151,-0.00725619261846962,0.0009308326694264402,0.2196908588804742,-0.007286117704591294,-0.21957000242390876,0.027789473847084644,-1.6039677300878257
8.694,-1.602730999116771,-0.00024149655511473966,-0.007467785978143293,0.0008081402373221191,-1.5961278510619237,0.22457774580571105,-0.005688288222897303,-0.22450569544728222,0.029125522033032633,0.19824406858475788,0.035212883400108703,-0.00018579799572277547,-0.007476130257705277,0.0009698798836999868,0.21971469087335,-0.007073621631928148,-0.2196007952230139,0.029167017557583958,-1.6029964684031581
8.728,-1.6021415999652227,-0.00023665282688245526,-0.007470377905206216,0.0005893991515484309,-1.5951579711782236,0.21799285570099297,-0.0053101391401598735,-0.21792817064112227,0.017404331796988425,-0.19774444758913143,-0.3519876947761023,-0.00017472802854374226,-0.007257058836763449,0.0005795642488397146,0.2198314667052433,-0.006950073510631113,-0.2197215743434753,0.017399695082687294,-1.6024170585569046
8.762,-1.6015683039414577,-0.00023202877392125565,-0.007470781667239593,0.0005732960237649909,-1.5945784069293838,0.21799991309412275,-0.005184002702556266,-0.21793826700472999,0.016953723162858658,0.00021193372762112566,-0.013531790814707737,-0.00017058203781808237,-0.00725739255599207,0.0005645589813231933,0.219839967449978,-0.006826374450685152,-0.21973395709417887,0.01694226088839374,-1.6018528812693211
8.796,-1.6010893714370207,-0.000226966168602738,-0.007453582740691106,0.00047893250443697966,-1.5940138479480608,0.2246080076316326,-0.005214372668104862,-0.22454747250844231,0.016983349876689625,0.1984412774026982,0.0008896911060350721,-0.00017152764495372992,-0.007477479456874693,0.0005655455508937646,0.2196272510927546,-0.006700400942679292,-0.21952501918862743,0.016329184504973306,-1.6013091194253055
8.83,-1.6010524997113098,-0.0002241506313775954,-0.0074110045920842,3.6871725710874166e-05,-1.5934483023971668,0.21801565560947894,-0.004938062989935795,-0.21795972477670816,0.02502931354236198,-0.1979685291938037,0.24162053050067125,-0.00016141612599502762,-0.007258126447434861,0.0008334761409606539,0.2179268412340631,-0.006597494369580816,-0.21782695241475494,0.007035167072043467,-1.6010748483618065
8.864,-1.600409431986815,-0.00022383571934914137,-0.007455281628534788,0.0006430677244948503,-1.5926148262562063,0.21802856180722374,-0.004756678637011521,-0.2179766679534087,0.024871280787563753,0.0003875735058498417,-0.004745728372319108,-0.00015539489232220083,-0.00725868773459442,0.0008282136502258731,0.2194272614219824,-0.006597298650487772,-0.21932806182900377,0.006246135193150509,-1.6008668520598746
8.898,-1.5996610597198602,-0.00021852755340034946,-0.007469989679796701,0.0007483722669547888,-1.5917866126059803,0.22459999823448498,-0.004714071974505684,-0.22455052155884622,0.024685972204702894,0.19734043325108827,-0.0055648223081339,-0.0001539086113721923,-0.007477595976132691,0.0008220428744166064,0.219782037671765,-0.006428163092782631,-0.21968801242308542,0.024578184356605047,-1.6000483985207996
8.932,-1.5989714990216528,-0.00021335909046116264,-0.0074720221393726055,0.0006895606982073588,-1.5909645697315637,0.2180250226178246,-0.004396883530340567,-0.21798068240723437,0.020182310550722997,-0.1974467152150262,-0.135245094714111,-0.00014398036794018197,-0.0072588053121770075,0.0006720709413390759,0.2198546325859313,-0.00628273230846149,-0.21976484419541512,0.020162892396303242,-1.5993769742040027
8.966,-1.598287116684524,-0.00020841253898895573,-0.007473665016943493,0.0006843823371287527,-1.5902924987902247,0.21805060109857022,-0.004250882716828094,-0.21800916181568053,0.02024819640785743,0.0007681225449131624,0.0019785542683013364,-0.00013911025900937966,-0.007259752196624932,0.0006742649403816525,0.2199021229651063,-0.006137253097216593,-0.2198164639170175,0.020060103035149737,-1.5987089727729322
9.0,-1.5989264278290307,-0.00020076669475743714,-0.007327896743769602,-0.0006393111445066602,-1.5896182338498432,0.22466230814802404,-0.004228323415134734,-0.22462251441806708,0.02117959333700145,0.19854976124485957,0.02796987775207266,-0.00013816889335785013,-0.007479978698971428,0.0007052804581221484,0.2199430322214725,-0.00598853600802194,-0.219861490168825,0.020468828719898555,-1.5980273607765596
9.034,-1.6021514482348262,-0.00020652234489104693,-0.006887344002955306,-0.003225020405795531,-1.588912953391721,0.1878974746747352,-0.003403882180784966,-0.18786664040015752,-0.1027777687264107,-1.1040490532519174,-3.722443305207572,-0.00012405744714698186,-0.006255752886015293,-0.0034224996985894765,0.1996669805403408,-0.005947642834974531,-0.19957837724263722,-0.07691251505406785,-1.60058854752786
9.068,-1.6014618765143505,-0.00021863167574642794,-0.007049052977088396,0.0006895717204757901,-1.5923354530903104,0.2065619819876093,-0.004448820606081005,-0.20651406828074534,0.011510192516779654,0.5604957151013247,3.4320709082039143,-0.00014683097799632748,-0.006876946628803223,0.00038328941080876253,0.2076226759036522,-0.006467057778848482,-0.20752193308919914,-0.04086926737354766,-1.6019494941313992
9.102,-1.6005858588717443,-0.00021398884450762878,-0.0070677645454539015,0.0008760176426061416,-1.5919521636795018,0.2127970865735995,-0.004501564641745469,-0.21274946761387725,0.01242255845723083,0.1872403779576634,0.02739837659012538,-0.00014844003614609622,-0.0070845880059278105,0.0004136711966257867,0.2077131341404793,-0.0063186058887696175,-0.20761700632193686,0.021880087383996247,-1.6012208872215121
9.136,-1.5995890854614752,-0.00020749569583022875,-0.007072443426635301,0.0009967734102691583,-1.591538492482876,0.2065071556842696,-0.004283098498652768,-0.20646273372223378,0.028603749459896962,-0.18888681349338998,0.48592165173171564,-0.00013935600335570022,-0.006875275855430378,0.000952504857014569,0.2081299341017791,-0.006137524703394788,-0.20803941996584718,0.02796924231269699,-1.6002895114524993
9.17,-1.5985893238395739,-0.0002004857807700322,-0.007073229831943299,0.000999761621901296,-1.5905859876258612,0.20649617968872092,-0.004086222631721141,-0.2064557458891385,0.028998107326055247,-0.0003296094759367999,0.011842578563311874,-0.00013275500663429053,-0.0068750409059713646,0.0009656369739576399,0.2081108741458701,-0.005936221372317901,-0.20802619357565777,0.0289788046059936,-1.5993245172591197
9.204,-1.5996493214084888,-0.00019537787456824773,-0.007021576936728901,-0.00105999756891495,-1.5896203506519038,0.2127653326803778,-0.004004863172086192,-0.21272763774734285,0.029996814975080013,0.18826285260230916,0.02999122069143441,-0.00012982720030428336,-0.00708389570613057,0.0009988939386701646,0.2081371460034533,-0.005729097581194521,-0.2080582826694674,0.030003730727791254,-1.5983253930258843
9.238,-1.6037690003588652,-0.000215853400773236,-0.007010444491873498,-0.004119678950376349,-1.5886214567132337,0.19936266414562984,-0.0035534772047872702,-0.19933099271061253,-0.1103244261647161,-0.40248253858102023,-4.2138510852791615,-0.00013052642362385323,-0.006637489703753362,-0.0036738033912850467,0.2020675843086077,-0.006005583846276503,-0.2019783196062925,-0.0659453531889739,-1.600521373287077
9.272,-1.607249518105205,-0.00024717016335995545,-0.007170515954382601,-0.00348051774633995,-1.5922952601045186,0.21798804975222874,-0.00468614953150342,-0.21793767420376992,0.021112695986835538,0.5593208890870541,3.947060725271821,-0.00015350098194493714,-0.007257378737394656,0.0007030527763616234,0.2109469075942263,-0.007110693543681065,-0.21082702829783215,-0.11981356101577902,-1.6045111648689026
9.306,-1.611158879194873,-0.00027263382068198894,-0.0071397837080094005,-0.0039093610896678834,-1.591592207328157,0.22460944708387465,-0.00467061456215145,-0.22456088056234488,0.021556184751158468,0.19884076071008724,0.013317980910598503,-0.00015285102155120675,-0.007477932431722958,0.0007178209522135771,0.2104820400788234,-0.007830575418767206,-0.21033632896947316,-0.10500920718773202,-1.608007971468254
9.34,-1.6147350311032462,-0.00030150822199304095,-0.0071630722047773,-0.0035761519083732374,-1.5908743863759436,0.2180245260447651,-0.004377215313533738,-0.21798058157355082,0.02104425763358073,-0.1977453765498361,-0.015373186714046186,-0.00014322124314235918,-0.007258803778889215,0.0007007737791982384,0.210142148211601,-0.00862617922737609,-0.20996502443722306,-0.11559009647543182,-1.611857121680886
9.374,-1.6165137460430081,-0.00032793577968304177,-0.0072908121660525994,-0.0017787149397618938,-1.5901736125967452,0.21803899301677818,-0.004224739488413907,-0.2179980597437181,0.020865391212766926,0.0004344436039961531,-0.005371363988402512,-0.00013816521432453334,-0.00725938361625949,0.0006948175273851387,0.212808232655916,-0.009434255594072377,-0.21259900918753175,-0.09867663891696946,-1.615143053756821
9.408,-1.6155149525007995,-0.00033813064723475783,-0.007445083100005001,0.0009987935422086647,-1.58947879506936,0.22466227766970503,-0.004197001715273595,-0.22462307135363824,0.021297981987396002,0.19889743702483056,0.01299071395282511,-0.00013711112992123619,-0.007479997146144608,0.000709222800180287,0.2184166058193496,-0.009987875922266473,-0.21818812074035232,-0.04197540273046432,-1.6165408346677455
9.442,-1.6141804112936908,-0.00032929835582340417,-0.007462705516456201,0.0013345412071086304,-1.58876957226918,0.21804281974008155,-0.003918726132524958,-0.2180076026786772,0.039148700132889964,-0.19878252040911362,0.5360576019667856,-0.0001257648717443635,-0.007259736113808394,0.0013036517144252358,0.2196946796246595,-0.009786665619686656,-0.2194765897115914,0.03552838189411198,-1.6153577395506715
9.476,-1.6128374653008684,-0.0003192415589616804,-0.007463369767730099,0.0013429459928224752,-1.5874659205547546,0.21806885921183775,-0.003634950945397919,-0.21803856193246385,0.03895978269351218,0.0007819661188046589,-0.005673196377711347,-0.00011633732779048935,-0.007260760540521408,0.0012973607636939555,0.2197207591484101,-0.0095034931504703,-0.21951513756161015,0.03889848882962585,-1.614062419872645
9.51,-1.6114968146503788,-0.00030876786689915114,-0.007466241178540698,0.0013406506504896052,-1.5861685597910606,0.22467971989469004,-0.0034536929788490643,-0.22465317388535655,0.04047296635463956,0.19852434483039935,0.0454409507846061,-0.0001099701771344038,-0.007481025875730189,0.0013477497796094975,0.2197325203750406,-0.009209027445457802,-0.2195394596055034,0.040349660447193014,-1.6127187761797535
9.544,-1.6101601449464338,-0.0002989372928434708,-0.0074678043780701045,0.0013366697039449706,-1.5848208100114511,0.21804761153802138,-0.0030579048248804666,-0.2180261684191094,0.0404304125048263,-0.1991624131131731,-0.0012778933877856502,-9.694418785982879e-05,-0.007260337717510246,0.0013463327364107158,0.2196848895845711,-0.008636414959410954,-0.2195150633747809,0.03904235657907788,-1.610119200155322
9.578,-1.6087095185771503,-0.0002886907104531211,-0.007458594108547101,0.0014506263692835029,-1.5834744772750404,0.21803330076328742,-0.002764184944929409,-0.21801577815223463,0.04084659008434004,-0.0004297529950138447,0.012497825210622801,-8.711324439687968e-05,-0.007259985734564457,0.0013601914498085233,0.2196841667499831,-0.008317908395522596,-0.2195266396603339,0.043567261683346604,-1.6086684103412665
9.612,-1.607621932380097,-0.00027933638980037756,-0.007463785712965895,0.0010875861970531808,-1.5806916010785348,0.21797819320261244,-0.002156918809549687,-0.21796752146392007,0.03138537211386013,-0.1990065752235292,-0.3404772838655393,-6.80357867792893e-05,-0.007258354645443351,0.0010451328913915424,0.2196802912525124,-0.00808803140733488,-0.21953135109305608,0.031425764599682035,-1.607621932380097
9.646,-1.6065373117177921,-0.0002712986337936041,-0.007464202491128107,0.0010846206623049692,-1.5796464681871432,0.21797990393061503,-0.0019291277870676273,-0.21797136734805636,0.03159599195231496,5.137321329101368e-05,0.006324920073718575,-6.0424826028302504e-05,-0.0072584789604679375,0.0010521465320120884,0.2196899278868812,-0.00785725599405378,-0.21954937472738786,0.031614661318082674,-1.606569164158205
9.68,-1.6054571652264988,-0.00026320281141933854,-0.0074642667321456885,0.001080146491293288,-1.578594321655131,0.22460024547153593,-0.0017514138094620515,-0.22459341667898955,0.032361598352625975,0.19880905528290968,0.022991183192522986,-5.429570960389315e-05,-0.0074789907278709124,0.0010776412251424451,0.2197004853701532,-0.0076212123881553824,-0.2195682590758863,0.03233559217686388,-1.6054923889387154
9.714,-1.6047665563509605,-0.0002471056200750166,-0.007252261307423805,0.0006906088755382899,-1.5775166804299885,0.20651746862244488,-0.0013878599742230533,-0.20651280514998205,-0.0411724728015839,-0.5430263318045357,-2.2082303649912873,-5.0933150133495054e-05,-0.006876842551576494,-0.001371043344292744,0.2106888584957201,-0.007148294706519124,-0.21056755917524034,0.022863209388815687,-1.6047310440660678
9.748,-1.6062969943332328,-0.0002448021440506487,-0.007086186104086803,-0.0015304379822722594,-1.5788877237742813,0.20653725826347963,-0.001671156712202858,-0.20653049723040554,-0.04110229816450366,0.0005942835145569172,0.0021073464588659166,-6.0359297074591885e-05,-0.006877425298609035,-0.0013687065288779721,0.2075830054448001,-0.007330190436709183,-0.2074535428901071,-0.04158314588774135,-1.6061157628241296
9.782,-1.6087363062326847,-0.0002568407292447006,-0.007028798309481096,-0.0024393118994519014,-1.5802564303031592,0.21279672557529397,-0.002013049024028069,-0.21278720367821427,-0.04273276714481742,0.18797199134577605,-0.04896303244185455,-7.207934667801769e-05,-0.007085763762667954,-0.0014230011459224203,0.2066718593237538,-0.007784958535660441,-0.20652518455853158,-0.07080136007837773,-1.6084734481147396
9.816,-1.6121738041152032,-0.00028275504631336545,-0.007143487788343297,-0.0034374978825184588,-1.5816794314490816,0.2180296374169534,-0.0023727925213732474,-0.21801672561484517,0.03116735164596271,0.15714449974953199,2.2192227865099134,-7.524987874217889e-05,-0.007259996628026725,0.0010378728098105583,0.2113251400432778,-0.00867109621195389,-0.211147168829691,-0.10109356401396603,-1.6118398637964046
9.85,-1.613711082026214,-0.00030804498769332334,-0.007280688971610508,-0.0015372779110107706,-1.5806415586392712,0.21804771535720005,-0.0021466956310722,-0.21803714791374904,0.030942043921821403,0.0005428810884883945,-0.006765997721961168,-6.774773858884419e-05,-0.007260672537452931,0.0010303700625966528,0.2162384300607567,-0.009265568802581265,-0.21603982936001734,-0.0546077846277473,-1.6136583030245086
9.884,-1.6130768173841092,-0.00031773784236666103,-0.007450662519449702,0.0006342646421046983,-1.5796111885766746,0.224649502406077,-0.001980228668270854,-0.22464077462855972,0.03134647146096703,0.1982518633296383,0.012144971145514303,-6.204082970455975e-05,-0.007480570824139725,0.0010438374996502022,0.2197581829592333,-0.009277862408402709,-0.21956224686105447,0.018946466303176417,-1.6130273856966129
9.918,-1.6141471757853183,-0.00032030743432054365,-0.007484734091477208,-0.0010703584012090595,-1.5785673510770246,0.21805272532810113,-0.0016944759686217804,-0.21804614138801928,-0.030711949878823325,-0.19810141375302923,-1.8636162564501606,-6.014230628709051e-05,-0.00726090636098518,-0.0010227079309648168,0.2203535470710946,-0.00950832015012133,-0.22014830808965105,-0.02800708910837106,-1.6139600217639216
9.952,-1.6152008516189018,-0.00032822501483020794,-0.007484479089933882,-0.0010536758335835115,-1.5795900590079892,0.21807766349104196,-0.001917691858409757,-0.21806923160237057,-0.030758656898464652,0.0007488937820068955,-0.0014026132024422449,-6.758143484498333e-05,-0.00726167140709435,-0.001024263274718873,0.2203550544649487,-0.009733982227657713,-0.22013995461579022,-0.03077375658478943,-1.614984787858195
9.986,-1.6160178345950236,-0.0003357442481808359,-0.007490430559111805,-0.0008169829761217606,-1.580614322282708,0.22467876397609995,-0.0022058596522746016,-0.2246679353290596,-0.03128961706830977,0.1982312457975373,-0.01594474984519883,-7.735619562498153e-05,-0.007481402588910947,-0.0010419442483747155,0.2203306063040341,-0.00996249417630264,-0.22010525841989875,-0.0313236081295454,-1.616027864008909
10.02,-1.6149454360709286,-0.0003351452626429996,-0.007494365876611203,0.0010723985240950198,-1.5816562665310827,0.21803728398742528,-0.002367825220828034,-0.2180244266414586,0.04230712483154619,-0.199443843503744,2.2101123693650435,-7.373771906536522e-05,-0.007260266513392417,0.0014088272568904881,0.2203111060825316,-0.009785852553279786,-0.2200936631371153,0.023981468747181454,-1.6152292810996278
10.054,-1.6135501330637108,-0.0003255962127726164,-0.0074663732953371975,0.0013953030072177963,-1.5802474392741923,0.21802001183475975,-0.0020605009790655147,-0.218010274749022,0.04274085159674014,-0.0005186832632291809,0.013024827783602167,-6.345172990307398e-05,-0.007259788497403488,0.0014232703581714468,0.2193359792949908,-0.009468158307203819,-0.21913152623838125,0.03760247092370554,-1.6139771188178684
10.088,-1.6120559620313062,-0.00031399610409144074,-0.00745921938376129,0.0014941710324045678,-1.578824168916021,0.22458912382602886,-0.0018029466625264373,-0.22458188690158298,0.04468883699840546,0.19727063036844175,0.05849806011006962,-5.447698322683723e-05,-0.007478618720848597,0.001488138272046902,0.2195216207659458,-0.00914328789723163,-0.2193311247181669,0.04557875026719212,-1.612459346433971
10.122,-1.6105274100117404,-0.0003026902845832957,-0.0074590125398942,0.0015285520195658096,-1.577336030643974,0.21797829012099018,-0.0014255033019463263,-0.21797362891966246,0.0444854856718611,-0.19852353468584613,-0.0061066464427735265,-4.2096334327227515e-05,-0.00725855432850029,0.0014813666728729748,0.2195674129051731,-0.008819936512718094,-0.21939019469835566,0.04452260212023568,-1.610976743783367
10.156,-1.6090075091950866,-0.00029131519683889273,-0.007459927143749406,0.001519900816653763,-1.575854663971101,0.2179905185442032,-0.001102664841725328,-0.21798772971297586,0.04442323465199467,0.00036721991630700294,-0.0018693999959888054,-3.135299378355981e-05,-0.007259015896351063,0.0014792937139114228,0.2195810846084846,-0.008495956721503526,-0.21941666171288093,0.04441730868770415,-1.6094976474040665
10.19,-1.6075787315360248,-0.00028011004626127267,-0.0074611163288917925,0.0014287776590617975,-1.5743753702571897,0.2246026061106333,-0.0008038607728289327,-0.22460116758277593,0.045374037710254764,0.19856118818108365,0.02855264439219493,-2.112163032620987e-05,-0.007479236247963523,0.0015109554557514839,0.2195686288538632,-0.008164734992368137,-0.21941677210110885,0.04526731578510509,-1.6079902457884225
10.224,-1.606541932443302,-0.00026951302338606986,-0.007447725082214612,0.0010367990927229176,-1.5728644148014381,0.21799542206931605,-0.00045083339649417466,-0.21799495588757975,0.036805231037110975,-0.19841393517469197,-0.2573215217160297,-1.056759723866928e-05,-0.007259239408704957,0.0012256141935357955,0.2191702026508588,-0.007897040780776864,-0.21902788515831784,0.0346718938696581,-1.606835671722563
10.258,-1.6060410489798642,-0.00026302177977743924,-0.007410997452793888,0.0005008834634376846,-1.5716388006079023,0.2180063755412809,-0.00018366464073543896,-0.2180062981749512,0.036434890438302774,0.00032893309203796005,-0.011121339303549584,-1.7154126253685539e-06,-0.007259611657580692,0.0012132818515954826,0.2180092730337132,-0.007727484125492102,-0.21787227707484583,0.017605143921709667,-1.60624942042997
10.292,-1.6049655474645177,-0.0002594023257957989,-0.007453950246063601,0.001075501515346522,-1.5704255187563068,0.22461219300589094,8.328800482321731e-05,-0.2246121775639599,0.03716686037576151,0.19837289683513604,0.021981079202965003,7.398608742998293e-06,-0.007479581890457886,0.0012376564505128583,0.2197358024279721,-0.007606895023869436,-0.21960409380692483,0.02485905660938821,-1.6054216138448774
10.326,-1.6037816432450727,-0.0002510202009833318,-0.00746477824160291,0.001183904219445031,-1.569187862305794,0.21798873882401648,0.00035062699423474617,-0.2179884568384211,0.034568427551442286,-0.19890252798421804,-0.07803101574532197,1.5850549107484057e-05,-0.00725900729668216,0.0011511286374630283,0.2196787995627505,-0.007351763971235451,-0.21955574814575535,0.03462665879515979,-1.6042685461069985
10.36,-1.6026020795980416,-0.00024225779139142034,-0.0074664042667982045,0.0011795636470310902,-1.568036733668331,0.21802079869659244,0.0006016479339037704,-0.2180199685443141,0.03444600409554901,0.0009627589362149213,-0.0036763800568551937,2.4195349511045276e-05,-0.0072600518811511295,0.001147051936381782,0.2197190470811606,-0.007101316462177037,-0.2196042598738861,0.0344325568893536,-1.603121941962583
10.394,-1.6013240994196436,-0.0002333626290385027,-0.007467221363591708,0.0012779801783979747,-1.566889681731949,0.22466750148213627,0.000877693952923308,-0.22466578706058185,0.03540150517887317,0.1996006842505654,0.028693726225950882,3.363352358772013e-05,-0.0074813517642797955,0.0011788701224564769,0.219766789281097,-0.006844313569634118,-0.21966018538342952,0.03534680575999025,-1.6019448933307754
10.428,-1.5999072296237173,-0.0002231652561253128,-0.007466590841839982,0.0014168697959262564,-1.5657108116094927,0.21808784933913183,0.0011090842889429427,-0.2180850292005572,0.04118543509781327,-0.19758715144157454,0.17369158915736027,4.190912026186843e-05,-0.007262203889119783,0.001371474988757182,0.2197141515949023,-0.006541968207918795,-0.21961673675527169,0.04111889868594563,-1.6005756340045334
10.462,-1.5985013152162204,-0.00021242290364109628,-0.007468661913227814,0.001405914407496933,-1.5643393366207354,0.21807169864957027,0.001408077030967928,-0.218067152663999,0.041702149355056665,-0.0004850056925395515,0.015516944661963803,5.192764109584768e-05,-0.007261601316877595,0.001388681573523387,0.2197537845170722,-0.006240551208963115,-0.21966515729670041,0.041368325165449533,-1.599198068776524
10.496,-1.5983687328296416,-0.0002010571894763835,-0.007403471208766388,0.0001325823865787612,-1.562950655047212,0.22465708345808819,0.0017625676501269228,-0.22465016915901295,0.04351483949975825,0.19775930355909666,0.05443513948052801,6.411006299072929e-05,-0.007480805519954373,0.0014490441553419498,0.2198623561411501,-0.005939650339255587,-0.2197821107410367,0.04153579424287395,-1.5978149268282362
10.53,-1.600936822916906,-0.0002076509226878187,-0.007180889189248585,-0.0025680900872644408,-1.5615016108918702,0.2065597921065842,0.0019198869406101783,-0.20655086964050906,-0.048166013299359746,-0.5434622027478673,-2.753178762736276,5.841300319831238e-05,-0.00687819230828964,-0.0016039282428686797,0.2116588123267712,-0.006124769164429977,-0.21157017757297888,-0.0577306596193082,-1.5997373577935592
