Time,header.seq,header.stamp.secs,header.stamp.nsecs,header.frame_id,orientation.x,orientation.y,orientation.z,orientation.w,orientation_covariance_0,orientation_covariance_1,orientation_covariance_2,orientation_covariance_3,orientation_covariance_4,orientation_covariance_5,orientation_covariance_6,orientation_covariance_7,orientation_covariance_8,angular_velocity.x,angular_velocity.y,angular_velocity.z,angular_velocity_covariance_0,angular_velocity_covariance_1,angular_velocity_covariance_2,angular_velocity_covariance_3,angular_velocity_covariance_4,angular_velocity_covariance_5,angular_velocity_covariance_6,angular_velocity_covariance_7,angular_velocity_covariance_8,linear_acceleration.x,linear_acceleration.y,linear_acceleration.z,linear_acceleration_covariance_0,linear_acceleration_covariance_1,linear_acceleration_covariance_2,linear_acceleration_covariance_3,linear_acceleration_covariance_4,linear_acceleration_covariance_5,linear_acceleration_covariance_6,linear_acceleration_covariance_7,linear_acceleration_covariance_8
0.098,0,0,98000000,base_footprint,-6.206285766314645e-06,-0.001314338754600046,1.1185638729246418e-07,0.999999136237181,0.0,0.0,0.0,0.0,0.0,0.0,0.0,0.0,0.0,1.2055537115350237e-05,-0.15691335515101423,9.821791947248471e-06,0.0,0.0,0.0,0.0,0.0,0.0,0.0,0.0,0.0,0.0009505546446662698,-5.4166775076155846e-06,-0.13918054709994787,0.0,0.0,0.0,0.0,0.0,0.0,0.0,0.0,0.0
0.132,1,0,132000000,base_footprint,-1.768788311137919e-05,-0.000955442617152828,-3.3599042992474695e-07,0.9999995434081114,0.0,0.0,0.0,0.0,0.0,0.0,0.0,0.0,0.0,-0.00029219372500247705,0.04758793819190927,-1.8101866940565433e-06,0.0,0.0,0.0,0.0,0.0,0.0,0.0,0.0,0.0,-0.00036050193017993015,2.6159287511114793e-06,0.005130408316695665,0.0,0.0,0.0,0.0,0.0,0.0,0.0,0.0,0.0
0.166,2,0,166000000,base_footprint,-2.2774579567852815e-05,-0.0001442691568942754,-2.9856125621183886e-07,0.99999998933382,0.0,0.0,0.0,0.0,0.0,0.0,0.0,0.0,0.0,-0.00029259486883750045,0.04756035685781403,-1.247481395185844e-06,0.0,0.0,0.0,0.0,0.0,0.0,0.0,0.0,0.0,-0.00021502288346672438,2.75390930100452e-07,7.833993682432484e-05,0.0,0.0,0.0,0.0,0.0,0.0,0.0,0.0,0.0
0.2,3,0,200000000,base_footprint,-3.0758695769494095e-05,0.0009389485469242248,-2.5460122363520563e-07,0.9999995587146348,0.0,0.0,0.0,0.0,0.0,0.0,0.0,0.0,0.0,-0.00043286224531857714,0.06777042852713759,1.3315587712355956e-07,0.0,0.0,0.0,0.0,0.0,0.0,0.0,0.0,0.0,-0.0003567599306929637,3.0608869167550356e-07,0.002815356544058692,0.0,0.0,0.0,0.0,0.0,0.0,0.0,0.0,0.0
0.234,4,0,234000000,base_footprint,-3.827186554302629e-05,0.002092466719336742,-1.5361462603705704e-07,0.9999978100567367,0.0,0.0,0.0,0.0,0.0,0.0,0.0,0.0,0.0,-0.0004332762532964822,0.06769326486471497,1.3088942579343041e-06,0.0,0.0,0.0,0.0,0.0,0.0,0.0,0.0,0.0,-0.00029457739394882215,3.7145786725512586e-07,0.0001534104479964576,0.0,0.0,0.0,0.0,0.0,0.0,0.0,0.0,0.0
0.271,5,0,268000000,base_footprint,-4.579212181337732e-05,0.003244680506566033,-3.3662415172665784e-08,0.9999947349618852,0.0,0.0,0.0,0.0,0.0,0.0,0.0,0.0,0.0,-0.00043370987659733856,0.06761689449457935,2.3062636106390984e-06,0.0,0.0,0.0,0.0,0.0,0.0,0.0,0.0,0.0,-0.0002927440709186456,1.990336562556495e-08,0.00015360299483480362,0.0,0.0,0.0,0.0,0.0,0.0,0.0,0.0,0.0
0.309,6,0,302000000,base_footprint,-7.010156250743849e-06,0.003936843005037413,-1.3683273014173887e-06,0.9999922505780429,0.0,0.0,0.0,0.0,0.0,0.0,0.0,0.0,0.0,-4.31066164950152e-05,-0.024601808875566063,-0.00012610744014985746,0.0,0.0,0.0,0.0,0.0,0.0,0.0,0.0,0.0,0.003017916825419329,0.00015657525172470453,0.13217621538086075,0.0,0.0,0.0,0.0,0.0,0.0,0.0,0.0,0.0
0.335,7,0,336000000,base_footprint,-7.057291156999567e-06,0.003852784961228133,-2.0307829138607683e-06,0.9999925779695134,0.0,0.0,0.0,0.0,0.0,0.0,0.0,0.0,0.0,8.29856349025921e-05,-0.0009473791606858951,8.245726688234476e-06,0.0,0.0,0.0,0.0,0.0,0.0,0.0,0.0,0.0,-0.001015634299578882,-0.00013528989510875266,0.0005787438525587532,0.0,0.0,0.0,0.0,0.0,0.0,0.0,0.0,0.0
0.37,8,0,370000000,base_footprint,-7.0537338457153555e-06,0.0038531028882236693,-1.9073111330768348e-06,0.9999925767448176,0.0,0.0,0.0,0.0,0.0,0.0,0.0,0.0,0.0,3.866839576023495e-05,-0.00016283271983679197,8.496683491365376e-06,0.0,0.0,0.0,0.0,0.0,0.0,0.0,0.0,0.0,-2.9773520059378626e-05,-1.4380218815779913e-06,-0.00087300682805946,0.0,0.0,0.0,0.0,0.0,0.0,0.0,0.0,0.0
0.403,9,0,404000000,base_footprint,-7.054421027038306e-06,0.003853101484704746,-1.7595485421686893e-06,0.9999925767504917,0.0,0.0,0.0,0.0,0.0,0.0,0.0,0.0,0.0,3.889463714517588e-05,-0.00018077756774283378,9.168645058976316e-06,0.0,0.0,0.0,0.0,0.0,0.0,0.0,0.0,0.0,4.813945007660852e-07,1.3166552401088203e-06,1.950955051832132e-05,0.0,0.0,0.0,0.0,0.0,0.0,0.0,0.0,0.0
0.438,10,0,438000000,base_footprint,-7.055063515525271e-06,0.003853101313766784,-1.6067609650091297e-06,0.999992576751403,0.0,0.0,0.0,0.0,0.0,0.0,0.0,0.0,0.0,3.88919492707797e-05,-0.00018039744550914555,9.265816161241662e-06,0.0,0.0,0.0,0.0,0.0,0.0,0.0,0.0,0.0,-4.2922451795514346e-08,1.8885090881824763e-07,-4.2412422008418583e-07,0.0,0.0,0.0,0.0,0.0,0.0,0.0,0.0,0.0
0.47200000000000003,11,0,472000000,base_footprint,-7.0556975114671734e-06,0.0038531013044990283,-1.4532535743636184e-06,0.999992576751669,0.0,0.0,0.0,0.0,0.0,0.0,0.0,0.0,0.0,3.889251028348942e-05,-0.0001804030336857261,9.279786483819982e-06,0.0,0.0,0.0,0.0,0.0,0.0,0.0,0.0,0.0,-3.897124186626432e-09,2.718721902847386e-08,5.024709158884904e-09,0.0,0.0,0.0,0.0,0.0,0.0,0.0,0.0,0.0
0.506,12,0,506000000,base_footprint,-7.056327757320231e-06,0.003853101301934271,-1.2996406788841262e-06,0.9999925767518859,0.0,0.0,0.0,0.0,0.0,0.0,0.0,0.0,0.0,3.8892793712360505e-05,-0.0001804026776974852,9.281705356456262e-06,0.0,0.0,0.0,0.0,0.0,0.0,0.0,0.0,0.0,-5.833861162992491e-10,3.738427569533012e-09,-5.118054401895579e-10,0.0,0.0,0.0,0.0,0.0,0.0,0.0,0.0,0.0
0.541,13,0,540000000,base_footprint,-7.056955408725804e-06,0.0038531013010255945,-1.1460119938085975e-06,0.9999925767520728,0.0,0.0,0.0,0.0,0.0,0.0,0.0,0.0,0.0,3.8893039966365465e-05,-0.00018040262555185353,9.281878260755406e-06,0.0,0.0,0.0,0.0,0.0,0.0,0.0,0.0,0.0,-5.914965560362193e-11,3.413659316405264e-10,-3.4256754436296156e-11,0.0,0.0,0.0,0.0,0.0,0.0,0.0,0.0,0.0
0.5780000000000001,14,0,574000000,base_footprint,-7.057580765668066e-06,0.0038531013003285366,-9.923806317595092e-07,0.9999925767522353,0.0,0.0,0.0,0.0,0.0,0.0,0.0,0.0,0.0,3.889327468637314e-05,-0.0001804025972811539,9.281813100277322e-06,0.0,0.0,0.0,0.0,0.0,0.0,0.0,0.0,0.0,1.1669121563097806e-11,-1.2214352137825425e-10,1.1242627870300697e-11,0.0,0.0,0.0,0.0,0.0,0.0,0.0,0.0,0.0
0.607,15,0,608000000,base_footprint,-7.05820399370592e-06,0.003853101299653661,-8.387485077077567e-07,0.9999925767523742,0.0,0.0,0.0,0.0,0.0,0.0,0.0,0.0,0.0,3.8893502164679205e-05,-0.00018040257234479135,9.281728698256307e-06,0.0,0.0,0.0,0.0,0.0,0.0,0.0,0.0,0.0,1.7452689332628818e-11,-1.5991405752989723e-10,1.6349131139201872e-11,0.0,0.0,0.0,0.0,0.0,0.0,0.0,0.0,0.0
0.642,16,0,642000000,base_footprint,-7.058825230519691e-06,0.0038531012989737492,-6.851159027001232e-07,0.9999925767524894,0.0,0.0,0.0,0.0,0.0,0.0,0.0,0.0,0.0,3.8893723507707455e-05,-0.0001804025473887298,9.281655485314203e-06,0.0,0.0,0.0,0.0,0.0,0.0,0.0,0.0,0.0,1.4169381732056725e-11,-1.3845563711526536e-10,1.504526833603705e-11,0.0,0.0,0.0,0.0,0.0,0.0,0.0,0.0,0.0
0.677,17,0,676000000,base_footprint,-7.05944460315071e-06,0.003853101298285104,-5.314828688130389e-07,0.9999925767525812,0.0,0.0,0.0,0.0,0.0,0.0,0.0,0.0,0.0,3.88939391329624e-05,-0.00018040252213006816,9.281597365132659e-06,0.0,0.0,0.0,0.0,0.0,0.0,0.0,0.0,0.0,9.730959940804002e-12,-1.0938478867002253e-10,1.336404925200584e-11,0.0,0.0,0.0,0.0,0.0,0.0,0.0,0.0,0.0
0.7120000000000001,18,0,710000000,base_footprint,-7.060062229678081e-06,0.0038531012975876054,-3.7784941418075895e-07,0.9999925767526495,0.0,0.0,0.0,0.0,0.0,0.0,0.0,0.0,0.0,3.889414940141074e-05,-0.00018040249643440685,9.281554171100776e-06,0.0,0.0,0.0,0.0,0.0,0.0,0.0,0.0,0.0,5.334989243724284e-12,-8.062099113861466e-11,1.1412352287462225e-11,0.0,0.0,0.0,0.0,0.0,0.0,0.0,0.0,0.0
0.745,19,0,744000000,base_footprint,-7.060678220978809e-06,0.003853101296881775,-2.2421554094309265e-07,0.999992576752694,0.0,0.0,0.0,0.0,0.0,0.0,0.0,0.0,0.0,3.889435460862395e-05,-0.0001804024703504118,9.281525304545271e-06,0.0,0.0,0.0,0.0,0.0,0.0,0.0,0.0,0.0,1.1174209473716559e-12,-5.300695879439622e-11,9.692297949945213e-12,0.0,0.0,0.0,0.0,0.0,0.0,0.0,0.0,0.0
0.778,20,0,778000000,base_footprint,-7.061292680816366e-06,0.0038531012961681836,-7.058125357234965e-08,0.999992576752715,0.0,0.0,0.0,0.0,0.0,0.0,0.0,0.0,0.0,3.889455518452858e-05,-0.00018040244390999042,9.2815089947649e-06,0.0,0.0,0.0,0.0,0.0,0.0,0.0,0.0,0.0,-2.5810975670002242e-12,-2.8814231954115547e-11,7.969829862129195e-12,0.0,0.0,0.0,0.0,0.0,0.0,0.0,0.0,0.0
0.812,21,0,812000000,base_footprint,-7.0619057060532185e-06,0.003853101295447326,8.305344560613276e-08,0.9999925767527126,0.0,0.0,0.0,0.0,0.0,0.0,0.0,0.0,0.0,3.88947513550149e-05,-0.00018040241703284543,9.28150546919764e-06,0.0,0.0,0.0,0.0,0.0,0.0,0.0,0.0,0.0,-6.348126915069321e-12,-4.170621693943417e-12,6.3809287811841505e-12,0.0,0.0,0.0,0.0,0.0,0.0,0.0,0.0,0.0
0.8520000000000001,22,0,846000000,base_footprint,-7.062517387949936e-06,0.0038531012947196595,2.3668855299446747e-07,0.9999925767526866,0.0,0.0,0.0,0.0,0.0,0.0,0.0,0.0,0.0,3.889494333178698e-05,-0.00018040238983748025,9.281513050040909e-06,0.0,0.0,0.0,0.0,0.0,0.0,0.0,0.0,0.0,-9.618215135143024e-12,1.7224035191771523e-11,4.948131961456302e-12,0.0,0.0,0.0,0.0,0.0,0.0,0.0,0.0,0.0
0.891,23,0,880000000,base_footprint,-7.0631278117253486e-06,0.0038531012939856057,3.903240653806365e-07,0.9999925767526369,0.0,0.0,0.0,0.0,0.0,0.0,0.0,0.0,0.0,3.8895131535673114e-05,-0.00018040236238512638,9.28153153225187e-06,0.0,0.0,0.0,0.0,0.0,0.0,0.0,0.0,0.0,-1.2826377506900325e-11,3.823780733999062e-11,3.6853680197592895e-12,0.0,0.0,0.0,0.0,0.0,0.0,0.0,0.0,0.0
0.914,24,0,914000000,base_footprint,-7.063737057177669e-06,0.0038531012932455683,5.439599781950918e-07,0.9999925767525636,0.0,0.0,0.0,0.0,0.0,0.0,0.0,0.0,0.0,3.8895316035426384e-05,-0.00018040233460233165,9.281560017021706e-06,0.0,0.0,0.0,0.0,0.0,0.0,0.0,0.0,0.0,-1.57745217908622e-11,5.7508651436479674e-11,2.1956914232645936e-12,0.0,0.0,0.0,0.0,0.0,0.0,0.0,0.0,0.0
0.9480000000000001,25,0,948000000,base_footprint,-7.0643451989885486e-06,0.003853101292499787,6.975962913951323e-07,0.9999925767524668,0.0,0.0,0.0,0.0,0.0,0.0,0.0,0.0,0.0,3.889549726991064e-05,-0.0001804023065288225,9.28159840912561e-06,0.0,0.0,0.0,0.0,0.0,0.0,0.0,0.0,0.0,-1.8691917911248937e-11,7.661355529815463e-11,1.1052240220242698e-12,0.0,0.0,0.0,0.0,0.0,0.0,0.0,0.0,0.0
0.9730000000000001,26,0,982000000,base_footprint,-7.064952310162448e-06,0.0038531012917487574,8.512330009117526e-07,0.9999925767523464,0.0,0.0,0.0,0.0,0.0,0.0,0.0,0.0,0.0,3.8895675243611e-05,-0.00018040227823622055,9.281645349713137e-06,0.0,0.0,0.0,0.0,0.0,0.0,0.0,0.0,0.0,-2.1208388289265203e-11,9.307870785810794e-11,-1.8108980694466652e-15,0.0,0.0,0.0,0.0,0.0,0.0,0.0,0.0,0.0
1.016,27,1,16000000,base_footprint,-7.065558461328157e-06,0.003853101290992768,1.0048701008411826e-06,0.9999925767522025,0.0,0.0,0.0,0.0,0.0,0.0,0.0,0.0,0.0,3.889585176758072e-05,-0.0001804022497170675,9.281701351518569e-06,0.0,0.0,0.0,0.0,0.0,0.0,0.0,0.0,0.0,-2.3876653804293348e-11,1.1062120240240703e-10,-7.751767894218513e-13,0.0,0.0,0.0,0.0,0.0,0.0,0.0,0.0,0.0
1.05,28,1,50000000,base_footprint,-7.06616370628042e-06,0.003853101290232003,1.158507591406739e-06,0.999992576752035,0.0,0.0,0.0,0.0,0.0,0.0,0.0,0.0,0.0,3.889602559925359e-05,-0.00018040222088303379,9.281765185330015e-06,0.0,0.0,0.0,0.0,0.0,0.0,0.0,0.0,0.0,-2.618668256131836e-11,1.257187063197336e-10,-1.7949904305685095e-12,0.0,0.0,0.0,0.0,0.0,0.0,0.0,0.0,0.0
1.084,29,1,84000000,base_footprint,-7.066768102164145e-06,0.0038531012894668934,1.31214547165014e-06,0.9999925767518439,0.0,0.0,0.0,0.0,0.0,0.0,0.0,0.0,0.0,3.889619678750914e-05,-0.0001804021919047072,9.281836038054298e-06,0.0,0.0,0.0,0.0,0.0,0.0,0.0,0.0,0.0,-2.8251373897884616e-11,1.3923983210727e-10,-2.6498138232111563e-12,0.0,0.0,0.0,0.0,0.0,0.0,0.0,0.0,0.0
1.118,30,1,118000000,base_footprint,-7.067371703028204e-06,0.003853101288697524,1.4657837436590628e-06,0.9999925767516291,0.0,0.0,0.0,0.0,0.0,0.0,0.0,0.0,0.0,3.889636556884461e-05,-0.0001804021627417994,9.281914806470694e-06,0.0,0.0,0.0,0.0,0.0,0.0,0.0,0.0,0.0,-3.058161551387017e-11,1.5451313653350822e-10,-3.5619728849460828e-12,0.0,0.0,0.0,0.0,0.0,0.0,0.0,0.0,0.0
1.155,31,1,152000000,base_footprint,-7.067974559223347e-06,0.003853101287924544,1.619422405380036e-06,0.999992576751391,0.0,0.0,0.0,0.0,0.0,0.0,0.0,0.0,0.0,3.8896532026601304e-05,-0.00018040213330010698,9.281998806747362e-06,0.0,0.0,0.0,0.0,0.0,0.0,0.0,0.0,0.0,-3.212673565715379e-11,1.645754392421605e-10,-4.402753391536209e-12,0.0,0.0,0.0,0.0,0.0,0.0,0.0,0.0,0.0
1.174,32,1,186000000,base_footprint,-7.068576717959815e-06,0.003853101287148204,1.7730614400316419e-06,0.9999925767511291,0.0,0.0,0.0,0.0,0.0,0.0,0.0,0.0,0.0,3.889669637122425e-05,-0.00018040210381260985,9.28208868225309e-06,0.0,0.0,0.0,0.0,0.0,0.0,0.0,0.0,0.0,-3.385234158556767e-11,1.758973035330278e-10,-5.002161416723864e-12,0.0,0.0,0.0,0.0,0.0,0.0,0.0,0.0,0.0
1.225,33,1,220000000,base_footprint,-7.069178223695521e-06,0.003853101286368096,1.9267008587395708e-06,0.9999925767508435,0.0,0.0,0.0,0.0,0.0,0.0,0.0,0.0,0.0,3.8896858664977644e-05,-0.00018040207403850682,9.282184479841656e-06,0.0,0.0,0.0,0.0,0.0,0.0,0.0,0.0,0.0,-3.560096335550294e-11,1.8731303976791726e-10,-5.831645770817398e-12,0.0,0.0,0.0,0.0,0.0,0.0,0.0,0.0,0.0
1.258,34,1,254000000,base_footprint,-7.069779117949271e-06,0.0038531012855849162,2.0803406597579886e-06,0.9999925767505345,0.0,0.0,0.0,0.0,0.0,0.0,0.0,0.0,0.0,3.889701904776813e-05,-0.00018040204413136753,9.282285596631405e-06,0.0,0.0,0.0,0.0,0.0,0.0,0.0,0.0,0.0,-3.71678645580502e-11,1.9756379215860276e-10,-6.677809970653265e-12,0.0,0.0,0.0,0.0,0.0,0.0,0.0,0.0,0.0
1.2890000000000001,35,1,288000000,base_footprint,-7.07037943956812e-06,0.0038531012847988467,2.2339808409607108e-06,0.9999925767502018,0.0,0.0,0.0,0.0,0.0,0.0,0.0,0.0,0.0,3.8897177781664767e-05,-0.00018040201421211694,9.282391744587099e-06,0.0,0.0,0.0,0.0,0.0,0.0,0.0,0.0,0.0,-3.8644091161939034e-11,2.0726558366553922e-10,-7.0047012958906925e-12,0.0,0.0,0.0,0.0,0.0,0.0,0.0,0.0,0.0
1.322,36,1,322000000,base_footprint,-7.0709792248643215e-06,0.003853101284009879,2.387621400486897e-06,0.9999925767498455,0.0,0.0,0.0,0.0,0.0,0.0,0.0,0.0,0.0,3.889733480106645e-05,-0.00018040198403669356,9.282502377575777e-06,0.0,0.0,0.0,0.0,0.0,0.0,0.0,0.0,0.0,-3.996966776277128e-11,2.1590432549252617e-10,-7.707837629688018e-12,0.0,0.0,0.0,0.0,0.0,0.0,0.0,0.0,0.0
1.355,37,1,356000000,base_footprint,-7.071578507878842e-06,0.0038531012832183262,2.5412623392487054e-06,0.9999925767494656,0.0,0.0,0.0,0.0,0.0,0.0,0.0,0.0,0.0,3.88974902881609e-05,-0.00018040195376967897,9.282617404786783e-06,0.0,0.0,0.0,0.0,0.0,0.0,0.0,0.0,0.0,-4.126352252418529e-11,2.2437426025398684e-10,-8.334473606776206e-12,0.0,0.0,0.0,0.0,0.0,0.0,0.0,0.0,0.0
1.3900000000000001,38,1,390000000,base_footprint,-7.072177320618598e-06,0.0038531012824243203,2.694903654810042e-06,0.9999925767490623,0.0,0.0,0.0,0.0,0.0,0.0,0.0,0.0,0.0,3.8897644340321255e-05,-0.0001804019233525302,9.282736290495286e-06,0.0,0.0,0.0,0.0,0.0,0.0,0.0,0.0,0.0,-4.2400596801742875e-11,2.31807780681535e-10,-8.750759061523438e-12,0.0,0.0,0.0,0.0,0.0,0.0,0.0,0.0,0.0
1.424,39,1,424000000,base_footprint,-7.072775692884938e-06,0.003853101281628033,2.848545347274848e-06,0.9999925767486353,0.0,0.0,0.0,0.0,0.0,0.0,0.0,0.0,0.0,3.889779699755758e-05,-0.00018040189287132322,9.282859150536547e-06,0.0,0.0,0.0,0.0,0.0,0.0,0.0,0.0,0.0,-4.3570283296322125e-11,2.394675876013037e-10,-9.291097129175288e-12,0.0,0.0,0.0,0.0,0.0,0.0,0.0,0.0,0.0
1.458,40,1,458000000,base_footprint,-7.073373652927014e-06,0.0038531012808295157,3.002187414218214e-06,0.9999925767481846,0.0,0.0,0.0,0.0,0.0,0.0,0.0,0.0,0.0,3.889794840270276e-05,-0.00018040186230638107,9.28298562989959e-06,0.0,0.0,0.0,0.0,0.0,0.0,0.0,0.0,0.0,-4.463455731098261e-11,2.4644483835321837e-10,-9.61036588859569e-12,0.0,0.0,0.0,0.0,0.0,0.0,0.0,0.0,0.0
1.492,41,1,492000000,base_footprint,-7.073971226668878e-06,0.003853101280029007,3.1558298563933026e-06,0.9999925767477104,0.0,0.0,0.0,0.0,0.0,0.0,0.0,0.0,0.0,3.889809863878627e-05,-0.00018040183159415992,9.283115008444722e-06,0.0,0.0,0.0,0.0,0.0,0.0,0.0,0.0,0.0,-4.549192378919366e-11,2.5202598728487257e-10,-1.017062927701293e-11,0.0,0.0,0.0,0.0,0.0,0.0,0.0,0.0,0.0
1.526,42,1,526000000,base_footprint,-7.074568438746991e-06,0.003853101279226677,3.309472671624199e-06,0.9999925767472126,0.0,0.0,0.0,0.0,0.0,0.0,0.0,0.0,0.0,3.8898247805720685e-05,-0.00018040180077069168,9.283247838426916e-06,0.0,0.0,0.0,0.0,0.0,0.0,0.0,0.0,0.0,-4.6508206977014565e-11,2.586844437066626e-10,-1.0466973503273958e-11,0.0,0.0,0.0,0.0,0.0,0.0,0.0,0.0,0.0
1.56,43,1,560000000,base_footprint,-7.075165312199723e-06,0.003853101278422445,3.4631158592782194e-06,0.9999925767466912,0.0,0.0,0.0,0.0,0.0,0.0,0.0,0.0,0.0,3.889839583220078e-05,-0.00018040177000221532,9.283383421043956e-06,0.0,0.0,0.0,0.0,0.0,0.0,0.0,0.0,0.0,-4.731503930917269e-11,2.639822518563086e-10,-1.0831004434971475e-11,0.0,0.0,0.0,0.0,0.0,0.0,0.0,0.0,0.0
1.594,44,1,594000000,base_footprint,-7.075761868479881e-06,0.003853101277616596,3.6167594183660836e-06,0.9999925767461462,0.0,0.0,0.0,0.0,0.0,0.0,0.0,0.0,0.0,3.889854297024225e-05,-0.00018040173897709627,9.283521754413112e-06,0.0,0.0,0.0,0.0,0.0,0.0,0.0,0.0,0.0,-4.8132603842713206e-11,2.69287533800316e-10,-1.1403602533918571e-11,0.0,0.0,0.0,0.0,0.0,0.0,0.0,0.0,0.0
1.6280000000000001,45,1,628000000,base_footprint,-7.076358127955552e-06,0.003853101276808996,3.7704033492568654e-06,0.9999925767455776,0.0,0.0,0.0,0.0,0.0,0.0,0.0,0.0,0.0,3.889868918125196e-05,-0.00018040170794829283,9.283662832995761e-06,0.0,0.0,0.0,0.0,0.0,0.0,0.0,0.0,0.0,-4.8937661929568875e-11,2.7458054802713827e-10,-1.157795194735592e-11,0.0,0.0,0.0,0.0,0.0,0.0,0.0,0.0,0.0
1.662,46,1,662000000,base_footprint,-7.07695410955609e-06,0.003853101276000082,3.924047650284073e-06,0.9999925767449854,0.0,0.0,0.0,0.0,0.0,0.0,0.0,0.0,0.0,3.8898834459156036e-05,-0.0001804016768800637,9.283805846947271e-06,0.0,0.0,0.0,0.0,0.0,0.0,0.0,0.0,0.0,-4.9506939467596724e-11,2.7829947545972387e-10,-1.179424582799907e-11,0.0,0.0,0.0,0.0,0.0,0.0,0.0,0.0,0.0
1.697,47,1,696000000,base_footprint,-7.077549830842126e-06,0.0038531012751897523,4.0776923196476445e-06,0.9999925767443696,0.0,0.0,0.0,0.0,0.0,0.0,0.0,0.0,0.0,3.889897900348121e-05,-0.00018040164569040778,9.283951425891892e-06,0.0,0.0,0.0,0.0,0.0,0.0,0.0,0.0,0.0,-5.026492750147059e-11,2.8325022385444977e-10,-1.2187488580369821e-11,0.0,0.0,0.0,0.0,0.0,0.0,0.0,0.0,0.0
1.73,48,1,730000000,base_footprint,-7.078145308384531e-06,0.0038531012743780683,4.2313373594966876e-06,0.9999925767437302,0.0,0.0,0.0,0.0,0.0,0.0,0.0,0.0,0.0,3.889912277535707e-05,-0.00018040161450892534,9.284099251028775e-06,0.0,0.0,0.0,0.0,0.0,0.0,0.0,0.0,0.0,-5.0923298953067325e-11,2.8758062204671985e-10,-1.2287722515504757e-11,0.0,0.0,0.0,0.0,0.0,0.0,0.0,0.0,0.0
1.764,49,1,764000000,base_footprint,-7.0787405578005666e-06,0.0038531012735650966,4.3849827687753576e-06,0.9999925767430671,0.0,0.0,0.0,0.0,0.0,0.0,0.0,0.0,0.0,3.889926581836002e-05,-0.00018040158322403898,9.284248788147936e-06,0.0,0.0,0.0,0.0,0.0,0.0,0.0,0.0,0.0,-5.143072277761537e-11,2.9087451148978887e-10,-1.2709376890203309e-11,0.0,0.0,0.0,0.0,0.0,0.0,0.0,0.0,0.0
1.799,50,1,798000000,base_footprint,-7.079335593637274e-06,0.003853101272751052,4.538628545180786e-06,0.9999925767423805,0.0,0.0,0.0,0.0,0.0,0.0,0.0,0.0,0.0,3.889940826122926e-05,-0.00018040155190140054,9.28440004513007e-06,0.0,0.0,0.0,0.0,0.0,0.0,0.0,0.0,0.0,-5.1936919940139365e-11,2.9418979478610755e-10,-1.2896343560485847e-11,0.0,0.0,0.0,0.0,0.0,0.0,0.0,0.0,0.0
1.835,51,1,832000000,base_footprint,-7.07993042944093e-06,0.003853101271935816,4.692274689699472e-06,0.9999925767416703,0.0,0.0,0.0,0.0,0.0,0.0,0.0,0.0,0.0,3.8899550059700406e-05,-0.0001804015205394867,9.284553457422952e-06,0.0,0.0,0.0,0.0,0.0,0.0,0.0,0.0,0.0,-5.257057850575614e-11,2.983488746104421e-10,-1.3068696743951376e-11,0.0,0.0,0.0,0.0,0.0,0.0,0.0,0.0,0.0
1.866,52,1,866000000,base_footprint,-7.080525078036593e-06,0.003853101271119538,4.845921203295884e-06,0.9999925767409366,0.0,0.0,0.0,0.0,0.0,0.0,0.0,0.0,0.0,3.889969126457501e-05,-0.00018040148905955277,9.284708168539099e-06,0.0,0.0,0.0,0.0,0.0,0.0,0.0,0.0,0.0,-5.295673286775626e-11,3.008461358857221e-10,-1.336766092368092e-11,0.0,0.0,0.0,0.0,0.0,0.0,0.0,0.0,0.0
1.899,53,1,900000000,base_footprint,-7.081119551411583e-06,0.0038531012703023155,4.9995680830633385e-06,0.999992576740179,0.0,0.0,0.0,0.0,0.0,0.0,0.0,0.0,0.0,3.889983192840378e-05,-0.00018040145766317074,9.284864332342345e-06,0.0,0.0,0.0,0.0,0.0,0.0,0.0,0.0,0.0,-5.3381186013650245e-11,3.0364415514831483e-10,-1.3517647044134027e-11,0.0,0.0,0.0,0.0,0.0,0.0,0.0,0.0,0.0
1.9340000000000002,54,1,934000000,base_footprint,-7.081713860752823e-06,0.0038531012694842173,5.153215328658205e-06,0.9999925767393981,0.0,0.0,0.0,0.0,0.0,0.0,0.0,0.0,0.0,3.889997205457096e-05,-0.00018040142608394312,9.285022003469918e-06,0.0,0.0,0.0,0.0,0.0,0.0,0.0,0.0,0.0,-5.382926597777568e-11,3.0654947125173965e-10,-1.3731419861280176e-11,0.0,0.0,0.0,0.0,0.0,0.0,0.0,0.0,0.0
1.967,55,1,968000000,base_footprint,-7.082308016320014e-06,0.0038531012686651746,5.3068629402922465e-06,0.9999925767385935,0.0,0.0,0.0,0.0,0.0,0.0,0.0,0.0,0.0,3.8900111812578575e-05,-0.0001804013945587579,9.285181144412374e-06,0.0,0.0,0.0,0.0,0.0,0.0,0.0,0.0,0.0,-5.4259652366813444e-11,3.093884097052122e-10,-1.3835005860533415e-11,0.0,0.0,0.0,0.0,0.0,0.0,0.0,0.0,0.0
2.002,56,2,2000000,base_footprint,-7.08290202819945e-06,0.003853101267845372,5.460510917977101e-06,0.9999925767377651,0.0,0.0,0.0,0.0,0.0,0.0,0.0,0.0,0.0,3.89002510724856e-05,-0.00018040136299514722,9.2853413066121e-06,0.0,0.0,0.0,0.0,0.0,0.0,0.0,0.0,0.0,-5.456090650246426e-11,3.1135124519929074e-10,-1.4023966267585765e-11,0.0,0.0,0.0,0.0,0.0,0.0,0.0,0.0,0.0
2.036,57,2,36000000,base_footprint,-7.083495905542736e-06,0.003853101267024731,5.614159260778486e-06,0.9999925767369133,0.0,0.0,0.0,0.0,0.0,0.0,0.0,0.0,0.0,3.890038988850195e-05,-0.0001804013312959413,9.285502712007115e-06,0.0,0.0,0.0,0.0,0.0,0.0,0.0,0.0,0.0,-5.4931279910711844e-11,3.137464282797627e-10,-1.4275782237763785e-11,0.0,0.0,0.0,0.0,0.0,0.0,0.0,0.0,0.0
2.07,58,2,70000000,base_footprint,-7.0840896569182754e-06,0.003853101266203459,5.767807967245484e-06,0.9999925767360378,0.0,0.0,0.0,0.0,0.0,0.0,0.0,0.0,0.0,3.89005283129301e-05,-0.00018040129971070602,9.285665145790273e-06,0.0,0.0,0.0,0.0,0.0,0.0,0.0,0.0,0.0,-5.5228779100972114e-11,3.1572743764113585e-10,-1.4244970846287813e-11,0.0,0.0,0.0,0.0,0.0,0.0,0.0,0.0,0.0
2.106,59,2,104000000,base_footprint,-7.084683290476933e-06,0.0038531012653814463,5.921457040323352e-06,0.9999925767351389,0.0,0.0,0.0,0.0,0.0,0.0,0.0,0.0,0.0,3.890066641862898e-05,-0.0001804012680181654,9.28582888639172e-06,0.0,0.0,0.0,0.0,0.0,0.0,0.0,0.0,0.0,-5.561597486150382e-11,3.182523705408768e-10,-1.4356842437511987e-11,0.0,0.0,0.0,0.0,0.0,0.0,0.0,0.0,0.0
2.138,60,2,138000000,base_footprint,-7.085276813729259e-06,0.0038531012645588504,6.075106477598939e-06,0.9999925767342162,0.0,0.0,0.0,0.0,0.0,0.0,0.0,0.0,0.0,3.890080410639153e-05,-0.00018040123628794663,9.285993036105638e-06,0.0,0.0,0.0,0.0,0.0,0.0,0.0,0.0,0.0,-5.573842727730138e-11,3.1902903792746387e-10,-1.4616114461529264e-11,0.0,0.0,0.0,0.0,0.0,0.0,0.0,0.0,0.0
2.173,61,2,172000000,base_footprint,-7.085870233875196e-06,0.003853101263735564,6.228756276767542e-06,0.9999925767332699,0.0,0.0,0.0,0.0,0.0,0.0,0.0,0.0,0.0,3.8900941517801274e-05,-0.00018040120457335165,9.286158393530295e-06,0.0,0.0,0.0,0.0,0.0,0.0,0.0,0.0,0.0,-5.609301331489922e-11,3.2136270203620883e-10,-1.471973916083473e-11,0.0,0.0,0.0,0.0,0.0,0.0,0.0,0.0,0.0
2.216,62,2,206000000,base_footprint,-7.086463557378291e-06,0.0038531012629116936,6.382406441033525e-06,0.9999925767322999,0.0,0.0,0.0,0.0,0.0,0.0,0.0,0.0,0.0,3.890107862802914e-05,-0.00018040117281709363,9.286324720704556e-06,0.0,0.0,0.0,0.0,0.0,0.0,0.0,0.0,0.0,-5.637919045893882e-11,3.2323388615646396e-10,-1.479764999256758e-11,0.0,0.0,0.0,0.0,0.0,0.0,0.0,0.0,0.0
2.24,63,2,240000000,base_footprint,-7.087056790357441e-06,0.0038531012620872398,6.536056969943432e-06,0.9999925767313064,0.0,0.0,0.0,0.0,0.0,0.0,0.0,0.0,0.0,3.890121549103617e-05,-0.0001804011410565237,9.286491692259591e-06,0.0,0.0,0.0,0.0,0.0,0.0,0.0,0.0,0.0,-5.6568911168303553e-11,3.244746462423989e-10,-1.488625121675892e-11,0.0,0.0,0.0,0.0,0.0,0.0,0.0,0.0,0.0
2.274,64,2,274000000,base_footprint,-7.0876499388510794e-06,0.0038531012612623397,6.689707862771253e-06,0.9999925767302894,0.0,0.0,0.0,0.0,0.0,0.0,0.0,0.0,0.0,3.890135207019849e-05,-0.00018040110926689716,9.286659359907076e-06,0.0,0.0,0.0,0.0,0.0,0.0,0.0,0.0,0.0,-5.6773991493406164e-11,3.258147012428458e-10,-1.4919272519903105e-11,0.0,0.0,0.0,0.0,0.0,0.0,0.0,0.0,0.0
2.309,65,2,308000000,base_footprint,-7.088243008234104e-06,0.003853101260436903,6.84335911803508e-06,0.9999925767292486,0.0,0.0,0.0,0.0,0.0,0.0,0.0,0.0,0.0,3.8901488369674296e-05,-0.00018040107739386642,9.286827737591221e-06,0.0,0.0,0.0,0.0,0.0,0.0,0.0,0.0,0.0,-5.698515482080237e-11,3.271819297102277e-10,-1.5038275156568223e-11,0.0,0.0,0.0,0.0,0.0,0.0,0.0,0.0,0.0
2.341,66,2,342000000,base_footprint,-7.0888360035512355e-06,0.003853101259610926,6.997010737744878e-06,0.9999925767281843,0.0,0.0,0.0,0.0,0.0,0.0,0.0,0.0,0.0,3.890162448363435e-05,-0.00018040104554374993,9.286997000820137e-06,0.0,0.0,0.0,0.0,0.0,0.0,0.0,0.0,0.0,-5.724584741733437e-11,3.2889390267615266e-10,-1.5196983206281358e-11,0.0,0.0,0.0,0.0,0.0,0.0,0.0,0.0,0.0
2.376,67,2,376000000,base_footprint,-7.089428929636792e-06,0.003853101258784732,7.150662719939852e-06,0.9999925767270963,0.0,0.0,0.0,0.0,0.0,0.0,0.0,0.0,0.0,3.890176034571027e-05,-0.0001804010137140512,9.287166378133138e-06,0.0,0.0,0.0,0.0,0.0,0.0,0.0,0.0,0.0,-5.727854514858218e-11,3.2910491720162765e-10,-1.5217673886256793e-11,0.0,0.0,0.0,0.0,0.0,0.0,0.0,0.0,0.0
2.41,68,2,410000000,base_footprint,-7.090021790832471e-06,0.0038531012579578645,7.304315066656411e-06,0.9999925767259847,0.0,0.0,0.0,0.0,0.0,0.0,0.0,0.0,0.0,3.890189601800672e-05,-0.00018040098184255284,9.287336781712125e-06,0.0,0.0,0.0,0.0,0.0,0.0,0.0,0.0,0.0,-5.758111397943586e-11,3.3108989726390926e-10,-1.5237972720449614e-11,0.0,0.0,0.0,0.0,0.0,0.0,0.0,0.0,0.0
2.444,69,2,444000000,base_footprint,-7.0906145915406565e-06,0.0038531012571307336,7.457967775885345e-06,0.9999925767248496,0.0,0.0,0.0,0.0,0.0,0.0,0.0,0.0,0.0,3.890203147469114e-05,-0.00018040094990950362,9.287507558866958e-06,0.0,0.0,0.0,0.0,0.0,0.0,0.0,0.0,0.0,-5.769468500359402e-11,3.3180565761599963e-10,-1.5514667092724077e-11,0.0,0.0,0.0,0.0,0.0,0.0,0.0,0.0,0.0
2.478,70,2,478000000,base_footprint,-7.091207335588587e-06,0.0038531012563032797,7.6116208452480276e-06,0.9999925767236909,0.0,0.0,0.0,0.0,0.0,0.0,0.0,0.0,0.0,3.890216683579234e-05,-0.00018040091801618615,9.287678588037207e-06,0.0,0.0,0.0,0.0,0.0,0.0,0.0,0.0,0.0,-5.7764695126994686e-11,3.3229243300615055e-10,-1.519849453318235e-11,0.0,0.0,0.0,0.0,0.0,0.0,0.0,0.0,0.0
2.512,71,2,512000000,base_footprint,-7.091800026673814e-06,0.0038531012554752445,7.765274279527707e-06,0.9999925767225085,0.0,0.0,0.0,0.0,0.0,0.0,0.0,0.0,0.0,3.8902301956012374e-05,-0.00018040088606908575,9.287850589580967e-06,0.0,0.0,0.0,0.0,0.0,0.0,0.0,0.0,0.0,-5.805547973734489e-11,3.341697034932035e-10,-1.5649495515181328e-11,0.0,0.0,0.0,0.0,0.0,0.0,0.0,0.0,0.0
2.5460000000000003,72,2,546000000,base_footprint,-7.092392668262262e-06,0.0038531012546469817,7.918928077366256e-06,0.9999925767213026,0.0,0.0,0.0,0.0,0.0,0.0,0.0,0.0,0.0,3.890243690183656e-05,-0.0001804008541976468,9.288022686281696e-06,0.0,0.0,0.0,0.0,0.0,0.0,0.0,0.0,0.0,-5.807918679811865e-11,3.3434728480940165e-10,-1.5439730648900145e-11,0.0,0.0,0.0,0.0,0.0,0.0,0.0,0.0,0.0
2.582,73,2,580000000,base_footprint,-7.09298526354687e-06,0.0038531012538183997,8.07258223722299e-06,0.9999925767200729,0.0,0.0,0.0,0.0,0.0,0.0,0.0,0.0,0.0,3.890257176860486e-05,-0.00018040082220025167,9.288195282890957e-06,0.0,0.0,0.0,0.0,0.0,0.0,0.0,0.0,0.0,-5.823177810987319e-11,3.353154914394535e-10,-1.570315338921696e-11,0.0,0.0,0.0,0.0,0.0,0.0,0.0,0.0,0.0
2.614,74,2,614000000,base_footprint,-7.093577815620725e-06,0.0038531012529895653,8.226236759510196e-06,0.9999925767188198,0.0,0.0,0.0,0.0,0.0,0.0,0.0,0.0,0.0,3.890270645052464e-05,-0.00018040079022582506,9.288368158355855e-06,0.0,0.0,0.0,0.0,0.0,0.0,0.0,0.0,0.0,-5.831252873133758e-11,3.3584812588959445e-10,-1.5628824697293002e-11,0.0,0.0,0.0,0.0,0.0,0.0,0.0,0.0,0.0
2.648,75,2,648000000,base_footprint,-7.094170327196237e-06,0.0038531012521603233,8.379891643810688e-06,0.9999925767175429,0.0,0.0,0.0,0.0,0.0,0.0,0.0,0.0,0.0,3.89028410446944e-05,-0.0001804007583012238,9.288541486738328e-06,0.0,0.0,0.0,0.0,0.0,0.0,0.0,0.0,0.0,-5.844406573992533e-11,3.3672485846797345e-10,-1.5639619948910166e-11,0.0,0.0,0.0,0.0,0.0,0.0,0.0,0.0,0.0
2.682,76,2,682000000,base_footprint,-7.094762800918363e-06,0.0038531012513309047,8.533546890444575e-06,0.9999925767162424,0.0,0.0,0.0,0.0,0.0,0.0,0.0,0.0,0.0,3.890297550770363e-05,-0.00018040072631080205,9.288715048142558e-06,0.0,0.0,0.0,0.0,0.0,0.0,0.0,0.0,0.0,-5.851491307953871e-11,3.371718448900123e-10,-1.572298553610852e-11,0.0,0.0,0.0,0.0,0.0,0.0,0.0,0.0,0.0
2.716,77,2,716000000,base_footprint,-7.0953552394086974e-06,0.003853101250501045,8.687202498454887e-06,0.9999925767149185,0.0,0.0,0.0,0.0,0.0,0.0,0.0,0.0,0.0,3.890310981987889e-05,-0.00018040069431122708,9.288889136457448e-06,0.0,0.0,0.0,0.0,0.0,0.0,0.0,0.0,0.0,-5.867121653168947e-11,3.381882515754851e-10,-1.5853632815268726e-11,0.0,0.0,0.0,0.0,0.0,0.0,0.0,0.0,0.0
2.75,78,2,750000000,base_footprint,-7.095947644858571e-06,0.003853101249671041,8.84085846899152e-06,0.9999925767135708,0.0,0.0,0.0,0.0,0.0,0.0,0.0,0.0,0.0,3.8903244046406385e-05,-0.00018040066239637727,9.289063250040717e-06,0.0,0.0,0.0,0.0,0.0,0.0,0.0,0.0,0.0,-5.867424078313511e-11,3.3823400072297495e-10,-1.563204806885747e-11,0.0,0.0,0.0,0.0,0.0,0.0,0.0,0.0,0.0
2.784,79,2,784000000,base_footprint,-7.096540019565811e-06,0.0038531012488407447,8.994514801488424e-06,0.9999925767121994,0.0,0.0,0.0,0.0,0.0,0.0,0.0,0.0,0.0,3.8903378187172086e-05,-0.00018040063030408426,9.289237847812562e-06,0.0,0.0,0.0,0.0,0.0,0.0,0.0,0.0,0.0,-5.882496167581064e-11,3.391705017745526e-10,-1.601989490758263e-11,0.0,0.0,0.0,0.0,0.0,0.0,0.0,0.0,0.0
2.817,80,2,818000000,base_footprint,-7.097132365503671e-06,0.0038531012480102532,9.148171495534395e-06,0.9999925767108047,0.0,0.0,0.0,0.0,0.0,0.0,0.0,0.0,0.0,3.890351224295268e-05,-0.00018040059831491594,9.289412607004946e-06,0.0,0.0,0.0,0.0,0.0,0.0,0.0,0.0,0.0,-5.886802793971337e-11,3.39480612273946e-10,-1.5853328016026157e-11,0.0,0.0,0.0,0.0,0.0,0.0,0.0,0.0,0.0
2.8520000000000003,81,2,852000000,base_footprint,-7.0977246846112164e-06,0.003853101247179487,9.301828551508135e-06,0.999992576709386,0.0,0.0,0.0,0.0,0.0,0.0,0.0,0.0,0.0,3.890364619054321e-05,-0.00018040056635772138,9.289587679709325e-06,0.0,0.0,0.0,0.0,0.0,0.0,0.0,0.0,0.0,-5.895899590564357e-11,3.4008437309813184e-10,-1.5810635274684092e-11,0.0,0.0,0.0,0.0,0.0,0.0,0.0,0.0,0.0
2.886,82,2,886000000,base_footprint,-7.098316978626712e-06,0.0038531012463485204,9.455485968350143e-06,0.9999925767079441,0.0,0.0,0.0,0.0,0.0,0.0,0.0,0.0,0.0,3.890378006539599e-05,-0.0001804005343114293,9.289762848275007e-06,0.0,0.0,0.0,0.0,0.0,0.0,0.0,0.0,0.0,-5.899049274930587e-11,3.402680930352681e-10,-1.5915810064047952e-11,0.0,0.0,0.0,0.0,0.0,0.0,0.0,0.0,0.0
2.92,83,2,920000000,base_footprint,-7.098909249261562e-06,0.0038531012455173498,9.609143746525914e-06,0.9999925767064782,0.0,0.0,0.0,0.0,0.0,0.0,0.0,0.0,0.0,3.890391390175189e-05,-0.00018040050223003156,9.289938268092995e-06,0.0,0.0,0.0,0.0,0.0,0.0,0.0,0.0,0.0,-5.906699736818604e-11,3.4075407495083155e-10,-1.6083694137412847e-11,0.0,0.0,0.0,0.0,0.0,0.0,0.0,0.0,0.0
2.956,84,2,954000000,base_footprint,-7.099501498088196e-06,0.0038531012446859094,9.762801886200644e-06,0.9999925767049889,0.0,0.0,0.0,0.0,0.0,0.0,0.0,0.0,0.0,3.890404756411756e-05,-0.00018040047018071814,9.290113984455811e-06,0.0,0.0,0.0,0.0,0.0,0.0,0.0,0.0,0.0,-5.915248142107332e-11,3.4132236461536547e-10,-1.600734519383416e-11,0.0,0.0,0.0,0.0,0.0,0.0,0.0,0.0,0.0
2.989,85,2,988000000,base_footprint,-7.100093726663537e-06,0.0038531012438543623,9.916460387999431e-06,0.999992576703476,0.0,0.0,0.0,0.0,0.0,0.0,0.0,0.0,0.0,3.89041812375161e-05,-0.00018040043818015898,9.290289792490117e-06,0.0,0.0,0.0,0.0,0.0,0.0,0.0,0.0,0.0,-5.917755212044952e-11,3.415013867423563e-10,-1.592328285021084e-11,0.0,0.0,0.0,0.0,0.0,0.0,0.0,0.0,0.0
3.022,86,3,22000000,base_footprint,-7.1006859361177124e-06,0.003853101243022503,1.0070119250222058e-05,0.9999925767019393,0.0,0.0,0.0,0.0,0.0,0.0,0.0,0.0,0.0,3.890431486428542e-05,-0.00018040040614850087,9.290465899332029e-06,0.0,0.0,0.0,0.0,0.0,0.0,0.0,0.0,0.0,-5.926745186771029e-11,3.4207939807388956e-10,-1.6064097077985813e-11,0.0,0.0,0.0,0.0,0.0,0.0,0.0,0.0,0.0
3.056,87,3,56000000,base_footprint,-7.101278127931132e-06,0.0038531012421905517,1.0223778475751874e-05,0.9999925767003792,0.0,0.0,0.0,0.0,0.0,0.0,0.0,0.0,0.0,3.890444841958443e-05,-0.00018040037405995252,9.290642044613044e-06,0.0,0.0,0.0,0.0,0.0,0.0,0.0,0.0,0.0,-5.928088836536686e-11,3.4215101896142345e-10,-1.6069816547208202e-11,0.0,0.0,0.0,0.0,0.0,0.0,0.0,0.0,0.0
3.091,88,3,90000000,base_footprint,-7.101870303196384e-06,0.003853101241358381,1.0377438062952927e-05,0.9999925766987954,0.0,0.0,0.0,0.0,0.0,0.0,0.0,0.0,0.0,3.890458192044071e-05,-0.00018040034199386302,9.290818413014614e-06,0.0,0.0,0.0,0.0,0.0,0.0,0.0,0.0,0.0,-5.93456312891683e-11,3.425819594418351e-10,-1.608479604657123e-11,0.0,0.0,0.0,0.0,0.0,0.0,0.0,0.0,0.0
3.125,89,3,124000000,base_footprint,-7.102462463202503e-06,0.0038531012405260082,1.053109801128118e-05,0.9999925766971879,0.0,0.0,0.0,0.0,0.0,0.0,0.0,0.0,0.0,3.8904715343587105e-05,-0.000180400309935687,9.290994884768595e-06,0.0,0.0,0.0,0.0,0.0,0.0,0.0,0.0,0.0,-5.937554921676695e-11,3.427795927701053e-10,-1.600251311009854e-11,0.0,0.0,0.0,0.0,0.0,0.0,0.0,0.0,0.0
3.157,90,3,158000000,base_footprint,-7.103054608936568e-06,0.0038531012396935604,1.0684758319306342e-05,0.999992576695557,0.0,0.0,0.0,0.0,0.0,0.0,0.0,0.0,0.0,3.890484871145555e-05,-0.00018040027789630056,9.291171560420636e-06,0.0,0.0,0.0,0.0,0.0,0.0,0.0,0.0,0.0,-5.94359184234845e-11,3.431726438011157e-10,-1.612351267602493e-11,0.0,0.0,0.0,0.0,0.0,0.0,0.0,0.0,0.0
3.192,91,3,192000000,base_footprint,-7.103646741433966e-06,0.0038531012388608988,1.0838418988957018e-05,0.9999925766939024,0.0,0.0,0.0,0.0,0.0,0.0,0.0,0.0,0.0,3.890498210906132e-05,-0.0001804002457783556,9.291348088527122e-06,0.0,0.0,0.0,0.0,0.0,0.0,0.0,0.0,0.0,-5.939602368693535e-11,3.428880019782979e-10,-1.6227965747475466e-11,0.0,0.0,0.0,0.0,0.0,0.0,0.0,0.0,0.0
3.226,92,3,226000000,base_footprint,-7.104238861535172e-06,0.0038531012380279865,1.0992080020384422e-05,0.9999925766922241,0.0,0.0,0.0,0.0,0.0,0.0,0.0,0.0,0.0,3.890511540029166e-05,-0.00018040021375744506,9.291525187520901e-06,0.0,0.0,0.0,0.0,0.0,0.0,0.0,0.0,0.0,-5.955954671639769e-11,3.4399190567063485e-10,-1.6054597770784614e-11,0.0,0.0,0.0,0.0,0.0,0.0,0.0,0.0,0.0
3.26,93,3,260000000,base_footprint,-7.1048309701638175e-06,0.0038531012371950924,1.1145741413166613e-05,0.9999925766905221,0.0,0.0,0.0,0.0,0.0,0.0,0.0,0.0,0.0,3.8905248637269466e-05,-0.00018040018165125555,9.291702006934257e-06,0.0,0.0,0.0,0.0,0.0,0.0,0.0,0.0,0.0,-5.948149350325008e-11,3.434466207373189e-10,-1.6223236865309936e-11,0.0,0.0,0.0,0.0,0.0,0.0,0.0,0.0,0.0
3.294,94,3,294000000,base_footprint,-7.1054230680039675e-06,0.003853101236361855,1.129940316832465e-05,0.9999925766887967,0.0,0.0,0.0,0.0,0.0,0.0,0.0,0.0,0.0,3.8905381867172894e-05,-0.00018040014955510882,9.291879347812378e-06,0.0,0.0,0.0,0.0,0.0,0.0,0.0,0.0,0.0,-5.963436193411905e-11,3.444587346095502e-10,-1.6173857349746453e-11,0.0,0.0,0.0,0.0,0.0,0.0,0.0,0.0,0.0
3.327,95,3,328000000,base_footprint,-7.106015156078964e-06,0.0038531012355286286,1.1453065284488316e-05,0.9999925766870476,0.0,0.0,0.0,0.0,0.0,0.0,0.0,0.0,0.0,3.890551502268555e-05,-0.00018040011744468242,9.292056341150866e-06,0.0,0.0,0.0,0.0,0.0,0.0,0.0,0.0,0.0,-5.953298834351396e-11,3.437807573472126e-10,-1.6198921326295067e-11,0.0,0.0,0.0,0.0,0.0,0.0,0.0,0.0,0.0
3.362,96,3,362000000,base_footprint,-7.106607234996912e-06,0.00385310123469516,1.160672776251284e-05,0.9999925766852747,0.0,0.0,0.0,0.0,0.0,0.0,0.0,0.0,0.0,3.890564822541693e-05,-0.0001804000853509597,9.292233626729452e-06,0.0,0.0,0.0,0.0,0.0,0.0,0.0,0.0,0.0,-5.961942091681452e-11,3.4435001246136437e-10,-1.6271975196802862e-11,0.0,0.0,0.0,0.0,0.0,0.0,0.0,0.0,0.0
3.396,97,3,396000000,base_footprint,-7.107199305351877e-06,0.00385310123386155,1.1760390601301416e-05,0.9999925766834785,0.0,0.0,0.0,0.0,0.0,0.0,0.0,0.0,0.0,3.890578136467668e-05,-0.00018040005328316398,9.292410910974246e-06,0.0,0.0,0.0,0.0,0.0,0.0,0.0,0.0,0.0,-5.961784361678862e-11,3.443450074133774e-10,-1.620595005170304e-11,0.0,0.0,0.0,0.0,0.0,0.0,0.0,0.0,0.0
3.43,98,3,430000000,base_footprint,-7.107791367823627e-06,0.003853101233027886,1.1914053800328153e-05,0.9999925766816586,0.0,0.0,0.0,0.0,0.0,0.0,0.0,0.0,0.0,3.890591446472391e-05,-0.00018040002120570155,9.292588397668527e-06,0.0,0.0,0.0,0.0,0.0,0.0,0.0,0.0,0.0,-5.967686906774502e-11,3.447365884886828e-10,-1.6105633647350445e-11,0.0,0.0,0.0,0.0,0.0,0.0,0.0,0.0,0.0
3.464,99,3,464000000,base_footprint,-7.108383422968508e-06,0.003853101232193999,1.2067717361135336e-05,0.9999925766798149,0.0,0.0,0.0,0.0,0.0,0.0,0.0,0.0,0.0,3.8906047545807084e-05,-0.00018039998914401797,9.292766041704754e-06,0.0,0.0,0.0,0.0,0.0,0.0,0.0,0.0,0.0,-5.972387418187328e-11,3.4504077717338094e-10,-1.6195522745788392e-11,0.0,0.0,0.0,0.0,0.0,0.0,0.0,0.0,0.0
3.495,100,3,498000000,base_footprint,-7.108975471335639e-06,0.0038531012313600794,1.2221381282846789e-05,0.9999925766779478,0.0,0.0,0.0,0.0,0.0,0.0,0.0,0.0,0.0,3.8906180611651885e-05,-0.0001803999570365521,9.29294355491257e-06,0.0,0.0,0.0,0.0,0.0,0.0,0.0,0.0,0.0,-5.968817669312467e-11,3.4478625941534837e-10,-1.6355218527894797e-11,0.0,0.0,0.0,0.0,0.0,0.0,0.0,0.0,0.0
3.533,101,3,532000000,base_footprint,-7.109567513558826e-06,0.003853101230525927,1.2375045564759769e-05,0.9999925766760571,0.0,0.0,0.0,0.0,0.0,0.0,0.0,0.0,0.0,3.890631363523437e-05,-0.0001803999249052604,9.293121277788167e-06,0.0,0.0,0.0,0.0,0.0,0.0,0.0,0.0,0.0,-5.974892153950444e-11,3.451918294940121e-10,-1.6113403468246892e-11,0.0,0.0,0.0,0.0,0.0,0.0,0.0,0.0,0.0
3.566,102,3,566000000,base_footprint,-7.110159550024002e-06,0.003853101229691711,1.2528710209249733e-05,0.9999925766741425,0.0,0.0,0.0,0.0,0.0,0.0,0.0,0.0,0.0,3.8906446632743014e-05,-0.00018039989283494582,9.293298838143386e-06,0.0,0.0,0.0,0.0,0.0,0.0,0.0,0.0,0.0,-5.970151561846504e-11,3.448746388911772e-10,-1.6362310852915802e-11,0.0,0.0,0.0,0.0,0.0,0.0,0.0,0.0,0.0
3.605,103,3,600000000,base_footprint,-7.110751581247539e-06,0.0038531012288574194,1.2682375212228766e-05,0.9999925766722046,0.0,0.0,0.0,0.0,0.0,0.0,0.0,0.0,0.0,3.890657961884674e-05,-0.0001803998607011084,9.293476515356257e-06,0.0,0.0,0.0,0.0,0.0,0.0,0.0,0.0,0.0,-5.9737478013557e-11,3.45101250256472e-10,-1.628890018796878e-11,0.0,0.0,0.0,0.0,0.0,0.0,0.0,0.0,0.0
3.634,104,3,634000000,base_footprint,-7.111343607516929e-06,0.00385310122802291,1.2836040577310018e-05,0.9999925766702429,0.0,0.0,0.0,0.0,0.0,0.0,0.0,0.0,0.0,3.890671261059422e-05,-0.00018039982859341768,9.293654377925686e-06,0.0,0.0,0.0,0.0,0.0,0.0,0.0,0.0,0.0,-5.979045313493799e-11,3.454617661312938e-10,-1.6173369572742267e-11,0.0,0.0,0.0,0.0,0.0,0.0,0.0,0.0,0.0
3.668,105,3,668000000,base_footprint,-7.111935629293833e-06,0.003853101227188254,1.2989706303888889e-05,0.9999925766682577,0.0,0.0,0.0,0.0,0.0,0.0,0.0,0.0,0.0,3.890684555783777e-05,-0.0001803997965162497,9.293832442746127e-06,0.0,0.0,0.0,0.0,0.0,0.0,0.0,0.0,0.0,-5.985027081327184e-11,3.458520035916169e-10,-1.6277319797331013e-11,0.0,0.0,0.0,0.0,0.0,0.0,0.0,0.0,0.0
3.705,106,3,702000000,base_footprint,-7.112527647024267e-06,0.0038531012263535785,1.3143372391310164e-05,0.9999925766662487,0.0,0.0,0.0,0.0,0.0,0.0,0.0,0.0,0.0,3.890697841579787e-05,-0.00018039976438267316,9.294010160083747e-06,0.0,0.0,0.0,0.0,0.0,0.0,0.0,0.0,0.0,-5.975065614743054e-11,3.4517331286079414e-10,-1.640677797766325e-11,0.0,0.0,0.0,0.0,0.0,0.0,0.0,0.0,0.0
3.739,107,3,736000000,base_footprint,-7.113119660925286e-06,0.003853101225518707,1.3297038840655874e-05,0.9999925766642161,0.0,0.0,0.0,0.0,0.0,0.0,0.0,0.0,0.0,3.8907111396128445e-05,-0.0001803997322926856,9.294188113961919e-06,0.0,0.0,0.0,0.0,0.0,0.0,0.0,0.0,0.0,-5.981770534957148e-11,3.456388608876314e-10,-1.618347514021675e-11,0.0,0.0,0.0,0.0,0.0,0.0,0.0,0.0,0.0
3.7720000000000002,108,3,770000000,base_footprint,-7.113711671412417e-06,0.003853101224683784,1.3450705651213131e-05,0.9999925766621601,0.0,0.0,0.0,0.0,0.0,0.0,0.0,0.0,0.0,3.890724426558351e-05,-0.000180399700135023,9.294365985716027e-06,0.0,0.0,0.0,0.0,0.0,0.0,0.0,0.0,0.0,-5.979733840405284e-11,3.454734451018911e-10,-1.6352611260005383e-11,0.0,0.0,0.0,0.0,0.0,0.0,0.0,0.0,0.0
3.807,109,3,804000000,base_footprint,-7.114303678798945e-06,0.0038531012238486734,1.3604372822760032e-05,0.9999925766600802,0.0,0.0,0.0,0.0,0.0,0.0,0.0,0.0,0.0,3.8907377186635345e-05,-0.00018039966802827504,9.294544110009985e-06,0.0,0.0,0.0,0.0,0.0,0.0,0.0,0.0,0.0,-5.986894132351684e-11,3.4596696372558234e-10,-1.6209229441123012e-11,0.0,0.0,0.0,0.0,0.0,0.0,0.0,0.0,0.0
3.845,110,3,838000000,base_footprint,-7.114895683303108e-06,0.0038531012230135268,1.3758040355336746e-05,0.999992576657977,0.0,0.0,0.0,0.0,0.0,0.0,0.0,0.0,0.0,3.8907510051993695e-05,-0.00018039963595520666,9.294722288770446e-06,0.0,0.0,0.0,0.0,0.0,0.0,0.0,0.0,0.0,-5.988527908111936e-11,3.4606943803746753e-10,-1.6301459473238872e-11,0.0,0.0,0.0,0.0,0.0,0.0,0.0,0.0,0.0
3.877,111,3,872000000,base_footprint,-7.115487685272711e-06,0.00385310122217824,1.3911708247736493e-05,0.99999257665585,0.0,0.0,0.0,0.0,0.0,0.0,0.0,0.0,0.0,3.890764290475488e-05,-0.000180399603880495,9.294900221152372e-06,0.0,0.0,0.0,0.0,0.0,0.0,0.0,0.0,0.0,-5.981286704758552e-11,3.455906543673424e-10,-1.628865225980526e-11,0.0,0.0,0.0,0.0,0.0,0.0,0.0,0.0,0.0
3.91,112,3,906000000,base_footprint,-7.116079684858798e-06,0.003853101221342828,1.4065376500660396e-05,0.9999925766536994,0.0,0.0,0.0,0.0,0.0,0.0,0.0,0.0,0.0,3.890777578708763e-05,-0.0001803995717209164,9.295078427167287e-06,0.0,0.0,0.0,0.0,0.0,0.0,0.0,0.0,0.0,-5.989624853301943e-11,3.4612328076563953e-10,-1.6281987692171864e-11,0.0,0.0,0.0,0.0,0.0,0.0,0.0,0.0,0.0
3.942,113,3,940000000,base_footprint,-7.1166716823806265e-06,0.0038531012205072425,1.421904511588535e-05,0.9999925766515251,0.0,0.0,0.0,0.0,0.0,0.0,0.0,0.0,0.0,3.8907908627840596e-05,-0.00018039953959420068,9.29525670036157e-06,0.0,0.0,0.0,0.0,0.0,0.0,0.0,0.0,0.0,-5.991620258505202e-11,3.4625218336492613e-10,-1.6425236149357116e-11,0.0,0.0,0.0,0.0,0.0,0.0,0.0,0.0,0.0
3.974,114,3,974000000,base_footprint,-7.117263678083898e-06,0.0038531012196717294,1.4372714091679914e-05,0.9999925766493273,0.0,0.0,0.0,0.0,0.0,0.0,0.0,0.0,0.0,3.8908041465639544e-05,-0.00018039950749889543,9.295434720919894e-06,0.0,0.0,0.0,0.0,0.0,0.0,0.0,0.0,0.0,-5.98407645647601e-11,3.4576080727779373e-10,-1.6326196444447705e-11,0.0,0.0,0.0,0.0,0.0,0.0,0.0,0.0,0.0
4.008,115,4,8000000,base_footprint,-7.117855672157865e-06,0.003853101218835927,1.4526383426864938e-05,0.9999925766471058,0.0,0.0,0.0,0.0,0.0,0.0,0.0,0.0,0.0,3.890817421537593e-05,-0.00018039947536447617,9.29561295712384e-06,0.0,0.0,0.0,0.0,0.0,0.0,0.0,0.0,0.0,-5.99053247190733e-11,3.461761455095919e-10,-1.6331987082354422e-11,0.0,0.0,0.0,0.0,0.0,0.0,0.0,0.0,0.0
4.042,116,4,42000000,base_footprint,-7.118447664706369e-06,0.00385310121800014,1.4680053124941024e-05,0.9999925766448607,0.0,0.0,0.0,0.0,0.0,0.0,0.0,0.0,0.0,3.890830709023738e-05,-0.00018039944326212642,9.295791251697387e-06,0.0,0.0,0.0,0.0,0.0,0.0,0.0,0.0,0.0,-5.992140610671724e-11,3.4629513203720306e-10,-1.6231339217256128e-11,0.0,0.0,0.0,0.0,0.0,0.0,0.0,0.0,0.0
4.08,117,4,76000000,base_footprint,-7.119039655945818e-06,0.0038531012171642005,1.4833723183088326e-05,0.9999925766425921,0.0,0.0,0.0,0.0,0.0,0.0,0.0,0.0,0.0,3.890843987457482e-05,-0.00018039941113511606,9.295969525120878e-06,0.0,0.0,0.0,0.0,0.0,0.0,0.0,0.0,0.0,-5.991764470984946e-11,3.462494633945055e-10,-1.6431897514955802e-11,0.0,0.0,0.0,0.0,0.0,0.0,0.0,0.0,0.0
4.112,118,4,110000000,base_footprint,-7.119631646186987e-06,0.003853101216328208,1.4987393601613276e-05,0.9999925766402997,0.0,0.0,0.0,0.0,0.0,0.0,0.0,0.0,0.0,3.890857270558818e-05,-0.0001803993789858053,9.296147923307921e-06,0.0,0.0,0.0,0.0,0.0,0.0,0.0,0.0,0.0,-5.995378199483849e-11,3.4649378254958354e-10,-1.6223537055504827e-11,0.0,0.0,0.0,0.0,0.0,0.0,0.0,0.0,0.0
4.143,119,4,144000000,base_footprint,-7.120223635418821e-06,0.003853101215492016,1.5141064381076153e-05,0.9999925766379839,0.0,0.0,0.0,0.0,0.0,0.0,0.0,0.0,0.0,3.890870548879893e-05,-0.00018039934687382627,9.296326209257315e-06,0.0,0.0,0.0,0.0,0.0,0.0,0.0,0.0,0.0,-5.992111794759666e-11,3.4627429441726836e-10,-1.6406377094336156e-11,0.0,0.0,0.0,0.0,0.0,0.0,0.0,0.0,0.0
4.179,120,4,178000000,base_footprint,-7.120815623832092e-06,0.003853101214655743,1.5294735521762074e-05,0.9999925766356441,0.0,0.0,0.0,0.0,0.0,0.0,0.0,0.0,0.0,3.890883825212491e-05,-0.00018039931479833497,9.296504468567502e-06,0.0,0.0,0.0,0.0,0.0,0.0,0.0,0.0,0.0,-5.991239834890277e-11,3.462213188602694e-10,-1.637387347169582e-11,0.0,0.0,0.0,0.0,0.0,0.0,0.0,0.0,0.0
4.212,121,4,212000000,base_footprint,-7.12140761157982e-06,0.0038531012138193453,1.544840702428377e-05,0.9999925766332811,0.0,0.0,0.0,0.0,0.0,0.0,0.0,0.0,0.0,3.890897106147384e-05,-0.00018039928265331604,9.296683021817087e-06,0.0,0.0,0.0,0.0,0.0,0.0,0.0,0.0,0.0,-6.00008561795988e-11,3.4679396591434635e-10,-1.630940080983354e-11,0.0,0.0,0.0,0.0,0.0,0.0,0.0,0.0,0.0
4.244,122,4,246000000,base_footprint,-7.1219995988041724e-06,0.00385310121298297,1.5602078888952575e-05,0.9999925766308942,0.0,0.0,0.0,0.0,0.0,0.0,0.0,0.0,0.0,3.8909103820494725e-05,-0.00018039925051674234,9.296861322711917e-06,0.0,0.0,0.0,0.0,0.0,0.0,0.0,0.0,0.0,-5.992646684076673e-11,3.463017793624097e-10,-1.6295435505328293e-11,0.0,0.0,0.0,0.0,0.0,0.0,0.0,0.0,0.0
4.28,123,4,280000000,base_footprint,-7.1225915856217904e-06,0.00385310121214638,1.5755751112750638e-05,0.9999925766284837,0.0,0.0,0.0,0.0,0.0,0.0,0.0,0.0,0.0,3.8909236658552106e-05,-0.00018039921837881458,9.297039701305251e-06,0.0,0.0,0.0,0.0,0.0,0.0,0.0,0.0,0.0,-5.995047353147919e-11,3.4645584718128573e-10,-1.635880880207011e-11,0.0,0.0,0.0,0.0,0.0,0.0,0.0,0.0,0.0
4.316,124,4,314000000,base_footprint,-7.12318357211841e-06,0.00385310121130977,1.5909423696509856e-05,0.9999925766260498,0.0,0.0,0.0,0.0,0.0,0.0,0.0,0.0,0.0,3.8909369378378765e-05,-0.00018039918624608234,9.29721796423991e-06,0.0,0.0,0.0,0.0,0.0,0.0,0.0,0.0,0.0,-5.991608396121446e-11,3.4622648852757046e-10,-1.6354014508770458e-11,0.0,0.0,0.0,0.0,0.0,0.0,0.0,0.0,0.0
4.348,125,4,348000000,base_footprint,-7.123775558460422e-06,0.003853101210473077,1.6063096642047983e-05,0.9999925766235922,0.0,0.0,0.0,0.0,0.0,0.0,0.0,0.0,0.0,3.890950210638588e-05,-0.00018039915411913461,9.297396510787838e-06,0.0,0.0,0.0,0.0,0.0,0.0,0.0,0.0,0.0,-5.999944706671334e-11,3.467769615295113e-10,-1.6306606065392012e-11,0.0,0.0,0.0,0.0,0.0,0.0,0.0,0.0,0.0
4.382,126,4,382000000,base_footprint,-7.124367544639844e-06,0.0038531012096361763,1.6216769948882485e-05,0.9999925766211109,0.0,0.0,0.0,0.0,0.0,0.0,0.0,0.0,0.0,3.8909634882480846e-05,-0.00018039912203699103,9.297574779019318e-06,0.0,0.0,0.0,0.0,0.0,0.0,0.0,0.0,0.0,-5.991751355120494e-11,3.4623869671811014e-10,-1.638420840986793e-11,0.0,0.0,0.0,0.0,0.0,0.0,0.0,0.0,0.0
4.431,127,4,416000000,base_footprint,-7.124959530861258e-06,0.0038531012087992065,1.6370443617899736e-05,0.9999925766186059,0.0,0.0,0.0,0.0,0.0,0.0,0.0,0.0,0.0,3.890976762252269e-05,-0.000180399089880997,9.29775350507852e-06,0.0,0.0,0.0,0.0,0.0,0.0,0.0,0.0,0.0,-6.005409879757603e-11,3.471265584581822e-10,-1.639075287939967e-11,0.0,0.0,0.0,0.0,0.0,0.0,0.0,0.0,0.0
4.45,128,4,450000000,base_footprint,-7.125551517162196e-06,0.0038531012079621946,1.6524117647567815e-05,0.9999925766160774,0.0,0.0,0.0,0.0,0.0,0.0,0.0,0.0,0.0,3.890990042126526e-05,-0.00018039905778435703,9.297931775588807e-06,0.0,0.0,0.0,0.0,0.0,0.0,0.0,0.0,0.0,-5.991774034843907e-11,3.4624418080607515e-10,-1.6202782089539603e-11,0.0,0.0,0.0,0.0,0.0,0.0,0.0,0.0,0.0
4.484,129,4,484000000,base_footprint,-7.126143503611528e-06,0.003853101207124986,1.6677792037559185e-05,0.9999925766135251,0.0,0.0,0.0,0.0,0.0,0.0,0.0,0.0,0.0,3.891003317571243e-05,-0.0001803990256208505,9.298110194985547e-06,0.0,0.0,0.0,0.0,0.0,0.0,0.0,0.0,0.0,-5.996533404628942e-11,3.465312782196061e-10,-1.641601204224849e-11,0.0,0.0,0.0,0.0,0.0,0.0,0.0,0.0,0.0
4.52,130,4,518000000,base_footprint,-7.126735490355852e-06,0.003853101206287751,1.6831466788550598e-05,0.9999925766109494,0.0,0.0,0.0,0.0,0.0,0.0,0.0,0.0,0.0,3.8910165888538636e-05,-0.00018039899347045457,9.298288553486696e-06,0.0,0.0,0.0,0.0,0.0,0.0,0.0,0.0,0.0,-5.994754896412632e-11,3.4641142165298595e-10,-1.6468560366010074e-11,0.0,0.0,0.0,0.0,0.0,0.0,0.0,0.0,0.0
4.552,131,4,552000000,base_footprint,-7.127327477358362e-06,0.0038531012054503887,1.69851419002028e-05,0.9999925766083501,0.0,0.0,0.0,0.0,0.0,0.0,0.0,0.0,0.0,3.8910298574029526e-05,-0.00018039896135622763,9.298467095971292e-06,0.0,0.0,0.0,0.0,0.0,0.0,0.0,0.0,0.0,-6.00001475305222e-11,3.4676661525280795e-10,-1.6327895106803893e-11,0.0,0.0,0.0,0.0,0.0,0.0,0.0,0.0,0.0
4.587,132,4,586000000,base_footprint,-7.127919464712291e-06,0.0038531012046130538,1.7138817372298464e-05,0.9999925766057269,0.0,0.0,0.0,0.0,0.0,0.0,0.0,0.0,0.0,3.891043138970951e-05,-0.00018039892928426097,9.29864560572405e-06,0.0,0.0,0.0,0.0,0.0,0.0,0.0,0.0,0.0,-5.998892406509857e-11,3.4670946879888857e-10,-1.6259748975670994e-11,0.0,0.0,0.0,0.0,0.0,0.0,0.0,0.0,0.0
4.625,133,4,620000000,base_footprint,-7.128511452577375e-06,0.0038531012037755427,1.7292493203243633e-05,0.9999925766030804,0.0,0.0,0.0,0.0,0.0,0.0,0.0,0.0,0.0,3.891056408577017e-05,-0.00018039889715867107,9.298824072090634e-06,0.0,0.0,0.0,0.0,0.0,0.0,0.0,0.0,0.0,-5.997916820015474e-11,3.466192766801509e-10,-1.6368478315125273e-11,0.0,0.0,0.0,0.0,0.0,0.0,0.0,0.0,0.0
4.6530000000000005,134,4,654000000,base_footprint,-7.129103440949143e-06,0.003853101202937927,1.744616939639246e-05,0.9999925766004101,0.0,0.0,0.0,0.0,0.0,0.0,0.0,0.0,0.0,3.8910696832448235e-05,-0.00018039886492468346,9.299002495284605e-06,0.0,0.0,0.0,0.0,0.0,0.0,0.0,0.0,0.0,-5.997033644589441e-11,3.465378521324276e-10,-1.6442166136526115e-11,0.0,0.0,0.0,0.0,0.0,0.0,0.0,0.0,0.0
4.689,135,4,688000000,base_footprint,-7.1296954299818e-06,0.003853101202100178,1.7599845949720574e-05,0.9999925765977161,0.0,0.0,0.0,0.0,0.0,0.0,0.0,0.0,0.0,3.891082956501198e-05,-0.00018039883279663484,9.299180912337444e-06,0.0,0.0,0.0,0.0,0.0,0.0,0.0,0.0,0.0,-5.996536790303533e-11,3.4652570613443456e-10,-1.641185806965848e-11,0.0,0.0,0.0,0.0,0.0,0.0,0.0,0.0,0.0
4.715,136,4,722000000,base_footprint,-7.130287419537792e-06,0.0038531012012624475,1.7753522864033805e-05,0.9999925765949987,0.0,0.0,0.0,0.0,0.0,0.0,0.0,0.0,0.0,3.891096226475143e-05,-0.00018039880069720016,9.299359518166126e-06,0.0,0.0,0.0,0.0,0.0,0.0,0.0,0.0,0.0,-6.002001644912487e-11,3.4689012294716795e-10,-1.635194423919889e-11,0.0,0.0,0.0,0.0,0.0,0.0,0.0,0.0,0.0
4.759,137,4,756000000,base_footprint,-7.130879409799657e-06,0.0038531012004244616,1.7907200139323977e-05,0.9999925765922575,0.0,0.0,0.0,0.0,0.0,0.0,0.0,0.0,0.0,3.891109500216688e-05,-0.00018039876856705146,9.299538111535042e-06,0.0,0.0,0.0,0.0,0.0,0.0,0.0,0.0,0.0,-6.001683406654895e-11,3.4686833462847533e-10,-1.62661616885169e-11,0.0,0.0,0.0,0.0,0.0,0.0,0.0,0.0,0.0
4.789,138,4,790000000,base_footprint,-7.131471400769871e-06,0.003853101199586485,1.8060877775919648e-05,0.9999925765894928,0.0,0.0,0.0,0.0,0.0,0.0,0.0,0.0,0.0,3.891122774677355e-05,-0.00018039873644466243,9.29971655709095e-06,0.0,0.0,0.0,0.0,0.0,0.0,0.0,0.0,0.0,-5.997528492031408e-11,3.4658064738924553e-10,-1.6466236185737204e-11,0.0,0.0,0.0,0.0,0.0,0.0,0.0,0.0,0.0
4.824,139,4,824000000,base_footprint,-7.1320633925638775e-06,0.0038531011987483444,1.8214555774132298e-05,0.9999925765867046,0.0,0.0,0.0,0.0,0.0,0.0,0.0,0.0,0.0,3.8911360432375454e-05,-0.0001803987043040576,9.299895170135355e-06,0.0,0.0,0.0,0.0,0.0,0.0,0.0,0.0,0.0,-6.002398599503782e-11,3.469039078356403e-10,-1.631697247507002e-11,0.0,0.0,0.0,0.0,0.0,0.0,0.0,0.0,0.0
4.86,140,4,858000000,base_footprint,-7.132655385094282e-06,0.0038531011979101495,1.8368234133436747e-05,0.9999925765838924,0.0,0.0,0.0,0.0,0.0,0.0,0.0,0.0,0.0,3.891149315148228e-05,-0.0001803986721760228,9.30007365209574e-06,0.0,0.0,0.0,0.0,0.0,0.0,0.0,0.0,0.0,-5.998588063696242e-11,3.466503609389631e-10,-1.637076847033793e-11,0.0,0.0,0.0,0.0,0.0,0.0,0.0,0.0,0.0
4.891,141,4,892000000,base_footprint,-7.133247378424248e-06,0.0038531011970718504,1.8521912853135134e-05,0.9999925765810568,0.0,0.0,0.0,0.0,0.0,0.0,0.0,0.0,0.0,3.891162587177892e-05,-0.0001803986400806363,9.300252199046415e-06,0.0,0.0,0.0,0.0,0.0,0.0,0.0,0.0,0.0,-6.000436726359437e-11,3.467769190269396e-10,-1.6365197313815862e-11,0.0,0.0,0.0,0.0,0.0,0.0,0.0,0.0,0.0
4.9350000000000005,142,4,926000000,base_footprint,-7.133839372688437e-06,0.0038531011962334737,1.8675591933880594e-05,0.9999925765781975,0.0,0.0,0.0,0.0,0.0,0.0,0.0,0.0,0.0,3.8911758568721076e-05,-0.00018039860791752547,9.300430705198404e-06,0.0,0.0,0.0,0.0,0.0,0.0,0.0,0.0,0.0,-5.999467478543467e-11,3.4669640839840596e-10,-1.640056987535987e-11,0.0,0.0,0.0,0.0,0.0,0.0,0.0,0.0,0.0
4.953,143,4,960000000,base_footprint,-7.13443136777065e-06,0.0038531011953950034,1.8829271375162416e-05,0.9999925765753147,0.0,0.0,0.0,0.0,0.0,0.0,0.0,0.0,0.0,3.891189134906441e-05,-0.00018039857579483454,9.300609396423359e-06,0.0,0.0,0.0,0.0,0.0,0.0,0.0,0.0,0.0,-6.00480186962609e-11,3.4705937750581674e-10,-1.6302204265500207e-11,0.0,0.0,0.0,0.0,0.0,0.0,0.0,0.0,0.0
4.995,144,4,994000000,base_footprint,-7.135023363894585e-06,0.0038531011945563943,1.898295117762129e-05,0.9999925765724083,0.0,0.0,0.0,0.0,0.0,0.0,0.0,0.0,0.0,3.891202403595901e-05,-0.00018039854365170462,9.300787913257407e-06,0.0,0.0,0.0,0.0,0.0,0.0,0.0,0.0,0.0,-5.999864956554751e-11,3.4671642960945897e-10,-1.647803961717321e-11,0.0,0.0,0.0,0.0,0.0,0.0,0.0,0.0,0.0
5.04,145,5,28000000,base_footprint,-7.13561536095775e-06,0.003853101193717804,1.91366313397615e-05,0.999992576569478,0.0,0.0,0.0,0.0,0.0,0.0,0.0,0.0,0.0,3.8912156755311866e-05,-0.0001803985115263754,9.30096644148247e-06,0.0,0.0,0.0,0.0,0.0,0.0,0.0,0.0,0.0,-6.000098010881431e-11,3.4673993629159657e-10,-1.6331484955282514e-11,0.0,0.0,0.0,0.0,0.0,0.0,0.0,0.0,0.0
5.064,146,5,62000000,base_footprint,-7.136207358951375e-06,0.003853101192878992,1.929031186288423e-05,0.9999925765665243,0.0,0.0,0.0,0.0,0.0,0.0,0.0,0.0,0.0,3.8912289480800024e-05,-0.00018039847943110857,9.301144921325672e-06,0.0,0.0,0.0,0.0,0.0,0.0,0.0,0.0,0.0,-5.99859485656521e-11,3.46646468972103e-10,-1.6344127758491864e-11,0.0,0.0,0.0,0.0,0.0,0.0,0.0,0.0,0.0
5.096,147,5,96000000,base_footprint,-7.136799357991582e-06,0.0038531011920401705,1.944399274900592e-05,0.9999925765635469,0.0,0.0,0.0,0.0,0.0,0.0,0.0,0.0,0.0,3.891242218146468e-05,-0.0001803984472242353,9.30132360655714e-06,0.0,0.0,0.0,0.0,0.0,0.0,0.0,0.0,0.0,-6.00498875191829e-11,3.470441791154391e-10,-1.6318052053201464e-11,0.0,0.0,0.0,0.0,0.0,0.0,0.0,0.0,0.0
5.139,148,5,130000000,base_footprint,-7.137391357997434e-06,0.003853101191201178,1.959767399526072e-05,0.9999925765605459,0.0,0.0,0.0,0.0,0.0,0.0,0.0,0.0,0.0,3.8912554900678266e-05,-0.00018039841514497261,9.301502217771914e-06,0.0,0.0,0.0,0.0,0.0,0.0,0.0,0.0,0.0,-6.002529140966849e-11,3.469008257573913e-10,-1.6405067994735937e-11,0.0,0.0,0.0,0.0,0.0,0.0,0.0,0.0,0.0
5.165,149,5,164000000,base_footprint,-7.137983359216398e-06,0.003853101190362177,1.9751355601641403e-05,0.9999925765575214,0.0,0.0,0.0,0.0,0.0,0.0,0.0,0.0,0.0,3.891268760867369e-05,-0.00018039838300373934,9.3016808204009e-06,0.0,0.0,0.0,0.0,0.0,0.0,0.0,0.0,0.0,-6.002493050066831e-11,3.4688367546568845e-10,-1.6372173208308882e-11,0.0,0.0,0.0,0.0,0.0,0.0,0.0,0.0,0.0
5.204,150,5,198000000,base_footprint,-7.1385753613858155e-06,0.0038531011895231084,1.990503756840559e-05,0.999992576554473,0.0,0.0,0.0,0.0,0.0,0.0,0.0,0.0,0.0,3.891282030761261e-05,-0.0001803983508346877,9.301859322065975e-06,0.0,0.0,0.0,0.0,0.0,0.0,0.0,0.0,0.0,-5.999665044336008e-11,3.4668709448410317e-10,-1.6433157476576183e-11,0.0,0.0,0.0,0.0,0.0,0.0,0.0,0.0,0.0
5.232,151,5,232000000,base_footprint,-7.139167364762045e-06,0.0038531011886838743,2.005871989533563e-05,0.9999925765514012,0.0,0.0,0.0,0.0,0.0,0.0,0.0,0.0,0.0,3.89129530200538e-05,-0.0001803983187233162,9.302037793134197e-06,0.0,0.0,0.0,0.0,0.0,0.0,0.0,0.0,0.0,-5.998547604604294e-11,3.466288712670457e-10,-1.6323089346146162e-11,0.0,0.0,0.0,0.0,0.0,0.0,0.0,0.0,0.0
5.264,152,5,266000000,base_footprint,-7.139759369182719e-06,0.0038531011878445553,2.0212402584459373e-05,0.9999925765483058,0.0,0.0,0.0,0.0,0.0,0.0,0.0,0.0,0.0,3.89130857187696e-05,-0.0001803982865579024,9.30221647042129e-06,0.0,0.0,0.0,0.0,0.0,0.0,0.0,0.0,0.0,-6.004869168206827e-11,3.470279594042063e-10,-1.6425610232681587e-11,0.0,0.0,0.0,0.0,0.0,0.0,0.0,0.0,0.0
5.3,153,5,300000000,base_footprint,-7.140351374758114e-06,0.0038531011870051412,2.0366085634052415e-05,0.9999925765451866,0.0,0.0,0.0,0.0,0.0,0.0,0.0,0.0,0.0,3.89132184474207e-05,-0.00018039825444193986,9.30239501697471e-06,0.0,0.0,0.0,0.0,0.0,0.0,0.0,0.0,0.0,-6.000833596935425e-11,3.4677557014539134e-10,-1.629731425961237e-11,0.0,0.0,0.0,0.0,0.0,0.0,0.0,0.0,0.0
5.334,154,5,334000000,base_footprint,-7.140943381539454e-06,0.0038531011861655863,2.0519769046054592e-05,0.9999925765420438,0.0,0.0,0.0,0.0,0.0,0.0,0.0,0.0,0.0,3.891335116491243e-05,-0.0001803982223212505,9.302573809870003e-06,0.0,0.0,0.0,0.0,0.0,0.0,0.0,0.0,0.0,-6.008209309829047e-11,3.4725330177995266e-10,-1.6424502098837528e-11,0.0,0.0,0.0,0.0,0.0,0.0,0.0,0.0,0.0
5.374,155,5,368000000,base_footprint,-7.1415353894893755e-06,0.0038531011853259996,2.067345281798732e-05,0.9999925765388773,0.0,0.0,0.0,0.0,0.0,0.0,0.0,0.0,0.0,3.891348384813784e-05,-0.00018039819018242934,9.30275227760275e-06,0.0,0.0,0.0,0.0,0.0,0.0,0.0,0.0,0.0,-5.998728353509345e-11,3.466201545372776e-10,-1.6384157443974884e-11,0.0,0.0,0.0,0.0,0.0,0.0,0.0,0.0,0.0
5.402,156,5,402000000,base_footprint,-7.142127398617433e-06,0.0038531011844862807,2.082713695131068e-05,0.9999925765356874,0.0,0.0,0.0,0.0,0.0,0.0,0.0,0.0,0.0,3.891361657525386e-05,-0.00018039815802807618,9.302930974329642e-06,0.0,0.0,0.0,0.0,0.0,0.0,0.0,0.0,0.0,-6.005498987437671e-11,3.4706740206454496e-10,-1.63929775355683e-11,0.0,0.0,0.0,0.0,0.0,0.0,0.0,0.0,0.0
5.437,157,5,436000000,base_footprint,-7.142719408854646e-06,0.0038531011836465162,2.098082144604045e-05,0.9999925765324739,0.0,0.0,0.0,0.0,0.0,0.0,0.0,0.0,0.0,3.891374925439522e-05,-0.0001803981258828381,9.303109683758565e-06,0.0,0.0,0.0,0.0,0.0,0.0,0.0,0.0,0.0,-6.005855633681155e-11,3.470891452678872e-10,-1.6315413282843457e-11,0.0,0.0,0.0,0.0,0.0,0.0,0.0,0.0,0.0
5.472,158,5,470000000,base_footprint,-7.1433114203370516e-06,0.0038531011828066277,2.113450630080071e-05,0.9999925765292365,0.0,0.0,0.0,0.0,0.0,0.0,0.0,0.0,0.0,3.891388193254746e-05,-0.00018039809373845153,9.303288216406718e-06,0.0,0.0,0.0,0.0,0.0,0.0,0.0,0.0,0.0,-6.000775271196287e-11,3.4674595231549295e-10,-1.6439484693134062e-11,0.0,0.0,0.0,0.0,0.0,0.0,0.0,0.0,0.0
5.504,159,5,504000000,base_footprint,-7.1439034330702796e-06,0.003853101181966721,2.1288191516100064e-05,0.9999925765259756,0.0,0.0,0.0,0.0,0.0,0.0,0.0,0.0,0.0,3.891401470903485e-05,-0.0001803980616218647,9.303466722711354e-06,0.0,0.0,0.0,0.0,0.0,0.0,0.0,0.0,0.0,-5.999918567404145e-11,3.46698808202481e-10,-1.6347477233186226e-11,0.0,0.0,0.0,0.0,0.0,0.0,0.0,0.0,0.0
5.535,160,5,538000000,base_footprint,-7.144495447048819e-06,0.003853101181126662,2.144187709175665e-05,0.9999925765226911,0.0,0.0,0.0,0.0,0.0,0.0,0.0,0.0,0.0,3.891414739876446e-05,-0.0001803980294852817,9.303645381758219e-06,0.0,0.0,0.0,0.0,0.0,0.0,0.0,0.0,0.0,-6.004489591761546e-11,3.469919815065953e-10,-1.6405188191346944e-11,0.0,0.0,0.0,0.0,0.0,0.0,0.0,0.0,0.0
5.572,161,5,572000000,base_footprint,-7.14508746216503e-06,0.003853101180286485,2.1595563027991406e-05,0.999992576519383,0.0,0.0,0.0,0.0,0.0,0.0,0.0,0.0,0.0,3.891428013372101e-05,-0.00018039799737654951,9.303823956446204e-06,0.0,0.0,0.0,0.0,0.0,0.0,0.0,0.0,0.0,-6.00192172992413e-11,3.468300860436343e-10,-1.6309383381775278e-11,0.0,0.0,0.0,0.0,0.0,0.0,0.0,0.0,0.0
5.606,162,5,606000000,base_footprint,-7.145679478629109e-06,0.003853101179446205,2.1749249326290883e-05,0.9999925765160511,0.0,0.0,0.0,0.0,0.0,0.0,0.0,0.0,0.0,3.891441277013118e-05,-0.0001803979651846716,9.304002670851648e-06,0.0,0.0,0.0,0.0,0.0,0.0,0.0,0.0,0.0,-6.006403558854183e-11,3.470970275194636e-10,-1.649681134102579e-11,0.0,0.0,0.0,0.0,0.0,0.0,0.0,0.0,0.0
5.64,163,5,640000000,base_footprint,-7.146271496315895e-06,0.003853101178605921,2.190293598554396e-05,0.9999925765126958,0.0,0.0,0.0,0.0,0.0,0.0,0.0,0.0,0.0,3.8914545536855795e-05,-0.00018039793311259758,9.30418135924097e-06,0.0,0.0,0.0,0.0,0.0,0.0,0.0,0.0,0.0,-6.005188081485472e-11,3.4705177829962e-10,-1.6243959678327324e-11,0.0,0.0,0.0,0.0,0.0,0.0,0.0,0.0,0.0
5.67,164,5,674000000,base_footprint,-7.146863515310503e-06,0.003853101177765504,2.205662300617533e-05,0.9999925765093168,0.0,0.0,0.0,0.0,0.0,0.0,0.0,0.0,0.0,3.89146782175382e-05,-0.0001803979009074242,9.304359918233507e-06,0.0,0.0,0.0,0.0,0.0,0.0,0.0,0.0,0.0,-6.001940200995091e-11,3.4679692137426113e-10,-1.6475297113841727e-11,0.0,0.0,0.0,0.0,0.0,0.0,0.0,0.0,0.0
5.711,165,5,708000000,base_footprint,-7.147455535600582e-06,0.0038531011769250413,2.2210310386777684e-05,0.9999925765059141,0.0,0.0,0.0,0.0,0.0,0.0,0.0,0.0,0.0,3.891481089957159e-05,-0.00018039786878504572,9.304538557134211e-06,0.0,0.0,0.0,0.0,0.0,0.0,0.0,0.0,0.0,-6.004012310893132e-11,3.4695178427965066e-10,-1.6351521629510037e-11,0.0,0.0,0.0,0.0,0.0,0.0,0.0,0.0,0.0
5.747,166,5,742000000,base_footprint,-7.148047557079552e-06,0.0038531011760843687,2.2363998128367483e-05,0.9999925765024877,0.0,0.0,0.0,0.0,0.0,0.0,0.0,0.0,0.0,3.891494358268361e-05,-0.0001803978365834572,9.304717044776991e-06,0.0,0.0,0.0,0.0,0.0,0.0,0.0,0.0,0.0,-5.999913937663577e-11,3.4665848786452387e-10,-1.6487654528298342e-11,0.0,0.0,0.0,0.0,0.0,0.0,0.0,0.0,0.0
5.776,167,5,776000000,base_footprint,-7.148639579853179e-06,0.003853101175243691,2.2517686231257638e-05,0.9999925764990379,0.0,0.0,0.0,0.0,0.0,0.0,0.0,0.0,0.0,3.8915076337572835e-05,-0.00018039780448526386,9.30489590233591e-06,0.0,0.0,0.0,0.0,0.0,0.0,0.0,0.0,0.0,-6.010380903825218e-11,3.473792830273175e-10,-1.624546653284631e-11,0.0,0.0,0.0,0.0,0.0,0.0,0.0,0.0,0.0
5.804,168,5,810000000,base_footprint,-7.149231603975158e-06,0.0038531011744029203,2.2671374695376343e-05,0.9999925764955644,0.0,0.0,0.0,0.0,0.0,0.0,0.0,0.0,0.0,3.891520902890589e-05,-0.00018039777240788204,9.30507447737574e-06,0.0,0.0,0.0,0.0,0.0,0.0,0.0,0.0,0.0,-6.002117189592368e-11,3.468283315409117e-10,-1.6406001849161173e-11,0.0,0.0,0.0,0.0,0.0,0.0,0.0,0.0,0.0
5.844,169,5,844000000,base_footprint,-7.149823629387016e-06,0.003853101173562043,2.2825063519875028e-05,0.9999925764920672,0.0,0.0,0.0,0.0,0.0,0.0,0.0,0.0,0.0,3.891534174783709e-05,-0.00018039774019053945,9.305252969908204e-06,0.0,0.0,0.0,0.0,0.0,0.0,0.0,0.0,0.0,-6.000140286188728e-11,3.4666917482481685e-10,-1.6378313801274325e-11,0.0,0.0,0.0,0.0,0.0,0.0,0.0,0.0,0.0
5.878,170,5,878000000,base_footprint,-7.150415656136754e-06,0.003853101172721039,2.2978752705301814e-05,0.9999925764885464,0.0,0.0,0.0,0.0,0.0,0.0,0.0,0.0,0.0,3.8915474461363904e-05,-0.0001803977080449911,9.305431631862025e-06,0.0,0.0,0.0,0.0,0.0,0.0,0.0,0.0,0.0,-6.004963686041011e-11,3.469980905421916e-10,-1.6426038651649822e-11,0.0,0.0,0.0,0.0,0.0,0.0,0.0,0.0,0.0
5.912,171,5,912000000,base_footprint,-7.151007684177735e-06,0.0038531011718800005,2.313244225209335e-05,0.9999925764850021,0.0,0.0,0.0,0.0,0.0,0.0,0.0,0.0,0.0,3.891560709638222e-05,-0.00018039767592703684,9.30561019773538e-06,0.0,0.0,0.0,0.0,0.0,0.0,0.0,0.0,0.0,-6.002014849368319e-11,3.4680770038958905e-10,-1.6329895859362156e-11,0.0,0.0,0.0,0.0,0.0,0.0,0.0,0.0,0.0
5.949,172,5,946000000,base_footprint,-7.151599713584507e-06,0.003853101171038843,2.3286132158754613e-05,0.9999925764814339,0.0,0.0,0.0,0.0,0.0,0.0,0.0,0.0,0.0,3.891573981444932e-05,-0.00018039764381677748,9.305788898279805e-06,0.0,0.0,0.0,0.0,0.0,0.0,0.0,0.0,0.0,-6.006113577772054e-11,3.470726181641786e-10,-1.6488178445441595e-11,0.0,0.0,0.0,0.0,0.0,0.0,0.0,0.0,0.0
5.981,173,5,980000000,base_footprint,-7.15219174420561e-06,0.00385310117019753,2.3439822425673476e-05,0.9999925764778423,0.0,0.0,0.0,0.0,0.0,0.0,0.0,0.0,0.0,3.891587254473495e-05,-0.00018039761170632936,9.305967414774387e-06,0.0,0.0,0.0,0.0,0.0,0.0,0.0,0.0,0.0,-6.000606306656152e-11,3.4671613514626075e-10,-1.6287097344656202e-11,0.0,0.0,0.0,0.0,0.0,0.0,0.0,0.0,0.0
6.015,174,6,14000000,base_footprint,-7.152783776220208e-06,0.003853101169356275,2.3593513053840375e-05,0.9999925764742269,0.0,0.0,0.0,0.0,0.0,0.0,0.0,0.0,0.0,3.8916005249171355e-05,-0.00018039757952075528,9.306146165421289e-06,0.0,0.0,0.0,0.0,0.0,0.0,0.0,0.0,0.0,-6.007812070258496e-11,3.4716916183028205e-10,-1.6409618796485304e-11,0.0,0.0,0.0,0.0,0.0,0.0,0.0,0.0,0.0
6.049,175,6,48000000,base_footprint,-7.153375809570668e-06,0.003853101168514784,2.3747204043508772e-05,0.9999925764705879,0.0,0.0,0.0,0.0,0.0,0.0,0.0,0.0,0.0,3.8916137945449414e-05,-0.00018039754738133386,9.306324712320798e-06,0.0,0.0,0.0,0.0,0.0,0.0,0.0,0.0,0.0,-6.001686507889513e-11,3.467732826878883e-10,-1.6324370836872827e-11,0.0,0.0,0.0,0.0,0.0,0.0,0.0,0.0,0.0
6.083,176,6,82000000,base_footprint,-7.153967844250287e-06,0.003853101167673309,2.3900895393518985e-05,0.9999925764669255,0.0,0.0,0.0,0.0,0.0,0.0,0.0,0.0,0.0,3.891627063700993e-05,-0.00018039751523078764,9.30650338918629e-06,0.0,0.0,0.0,0.0,0.0,0.0,0.0,0.0,0.0,-6.00559389967514e-11,3.470254647021014e-10,-1.6414441342570866e-11,0.0,0.0,0.0,0.0,0.0,0.0,0.0,0.0,0.0
6.119,177,6,116000000,base_footprint,-7.1545598802989e-06,0.003853101166831628,2.405458710490897e-05,0.9999925764632392,0.0,0.0,0.0,0.0,0.0,0.0,0.0,0.0,0.0,3.891640338316211e-05,-0.00018039748313923739,9.306681917177367e-06,0.0,0.0,0.0,0.0,0.0,0.0,0.0,0.0,0.0,-6.001086186789503e-11,3.46738785885217e-10,-1.6371308389715395e-11,0.0,0.0,0.0,0.0,0.0,0.0,0.0,0.0,0.0
6.15,178,6,150000000,base_footprint,-7.155151917634644e-06,0.0038531011659900063,2.4208279176965243e-05,0.9999925764595294,0.0,0.0,0.0,0.0,0.0,0.0,0.0,0.0,0.0,3.891653610980119e-05,-0.00018039745096321027,9.306860589355824e-06,0.0,0.0,0.0,0.0,0.0,0.0,0.0,0.0,0.0,-6.005571783382996e-11,3.47017621588235e-10,-1.6345797195474505e-11,0.0,0.0,0.0,0.0,0.0,0.0,0.0,0.0,0.0
6.184,179,6,184000000,base_footprint,-7.155743956353066e-06,0.0038531011651482105,2.4361971609900143e-05,0.9999925764557959,0.0,0.0,0.0,0.0,0.0,0.0,0.0,0.0,0.0,3.8916668789759804e-05,-0.00018039741873210856,9.30703921794762e-06,0.0,0.0,0.0,0.0,0.0,0.0,0.0,0.0,0.0,-6.0046397502229e-11,3.4693085526295606e-10,-1.655832351240548e-11,0.0,0.0,0.0,0.0,0.0,0.0,0.0,0.0,0.0
6.218,180,6,218000000,base_footprint,-7.156335996444027e-06,0.003853101164306275,2.4515664402714687e-05,0.9999925764520389,0.0,0.0,0.0,0.0,0.0,0.0,0.0,0.0,0.0,3.8916801490827095e-05,-0.00018039738668087306,9.30721784727044e-06,0.0,0.0,0.0,0.0,0.0,0.0,0.0,0.0,0.0,-6.004004995039634e-11,3.469332185873534e-10,-1.633689310378471e-11,0.0,0.0,0.0,0.0,0.0,0.0,0.0,0.0,0.0
6.255,181,6,252000000,base_footprint,-7.156928037791524e-06,0.003853101163464324,2.4669357557385566e-05,0.9999925764482582,0.0,0.0,0.0,0.0,0.0,0.0,0.0,0.0,0.0,3.891693416885898e-05,-0.0001803973545141839,9.307396480606205e-06,0.0,0.0,0.0,0.0,0.0,0.0,0.0,0.0,0.0,-6.004503728773678e-11,3.469401220204966e-10,-1.6350406727400916e-11,0.0,0.0,0.0,0.0,0.0,0.0,0.0,0.0,0.0
6.288,182,6,286000000,base_footprint,-7.157520080474031e-06,0.003853101162622235,2.4823051073426842e-05,0.9999925764444538,0.0,0.0,0.0,0.0,0.0,0.0,0.0,0.0,0.0,3.891706688286258e-05,-0.00018039732234376876,9.307575163812966e-06,0.0,0.0,0.0,0.0,0.0,0.0,0.0,0.0,0.0,-6.006092135646628e-11,3.470383393928137e-10,-1.6474364233859955e-11,0.0,0.0,0.0,0.0,0.0,0.0,0.0,0.0,0.0
6.321,183,6,320000000,base_footprint,-7.158112124597839e-06,0.0038531011617800276,2.4976744950079673e-05,0.9999925764406258,0.0,0.0,0.0,0.0,0.0,0.0,0.0,0.0,0.0,3.891719957999848e-05,-0.00018039729021484524,9.307753601176656e-06,0.0,0.0,0.0,0.0,0.0,0.0,0.0,0.0,0.0,-5.998636342501709e-11,3.465601449443821e-10,-1.625692923281218e-11,0.0,0.0,0.0,0.0,0.0,0.0,0.0,0.0,0.0
6.352,184,6,354000000,base_footprint,-7.158704170040263e-06,0.0038531011609378584,2.5130439187774078e-05,0.9999925764367743,0.0,0.0,0.0,0.0,0.0,0.0,0.0,0.0,0.0,3.8917332266380405e-05,-0.0001803972580560295,9.307932491055088e-06,0.0,0.0,0.0,0.0,0.0,0.0,0.0,0.0,0.0,-6.012181209414278e-11,3.474379891192227e-10,-1.6421104602111926e-11,0.0,0.0,0.0,0.0,0.0,0.0,0.0,0.0,0.0
6.388,185,6,388000000,base_footprint,-7.159296216849366e-06,0.0038531011600955087,2.5284133785819632e-05,0.999992576432899,0.0,0.0,0.0,0.0,0.0,0.0,0.0,0.0,0.0,3.891746504972553e-05,-0.00018039722588371066,9.308110982929884e-06,0.0,0.0,0.0,0.0,0.0,0.0,0.0,0.0,0.0,-6.000544734465355e-11,3.466700264040342e-10,-1.6397002217639027e-11,0.0,0.0,0.0,0.0,0.0,0.0,0.0,0.0,0.0
6.422,186,6,422000000,base_footprint,-7.159888265019643e-06,0.003853101159252972,2.543782874677549e-05,0.9999925764290002,0.0,0.0,0.0,0.0,0.0,0.0,0.0,0.0,0.0,3.8917597740851547e-05,-0.00018039719383016936,9.30828958838169e-06,0.0,0.0,0.0,0.0,0.0,0.0,0.0,0.0,0.0,-6.003579411301602e-11,3.4688576163651947e-10,-1.6439747251641144e-11,0.0,0.0,0.0,0.0,0.0,0.0,0.0,0.0,0.0
6.454,187,6,456000000,base_footprint,-7.160480314547717e-06,0.0038531011584105614,2.559152406702248e-05,0.9999925764250776,0.0,0.0,0.0,0.0,0.0,0.0,0.0,0.0,0.0,3.8917730428397285e-05,-0.00018039716164681835,9.308468273678436e-06,0.0,0.0,0.0,0.0,0.0,0.0,0.0,0.0,0.0,-6.006286089258617e-11,3.470408611448406e-10,-1.6357591159573487e-11,0.0,0.0,0.0,0.0,0.0,0.0,0.0,0.0,0.0
6.49,188,6,490000000,base_footprint,-7.16107236547683e-06,0.003853101157567896,2.5745219748521034e-05,0.9999925764211314,0.0,0.0,0.0,0.0,0.0,0.0,0.0,0.0,0.0,3.8917863107771716e-05,-0.00018039712945396065,9.308646894909482e-06,0.0,0.0,0.0,0.0,0.0,0.0,0.0,0.0,0.0,-6.00449278737853e-11,3.469158741385278e-10,-1.6401305618108942e-11,0.0,0.0,0.0,0.0,0.0,0.0,0.0,0.0,0.0
6.524,189,6,524000000,base_footprint,-7.161664417759955e-06,0.0038531011567251817,2.5898915790162713e-05,0.9999925764171617,0.0,0.0,0.0,0.0,0.0,0.0,0.0,0.0,0.0,3.89179958125847e-05,-0.00018039709738216497,9.308825517266708e-06,0.0,0.0,0.0,0.0,0.0,0.0,0.0,0.0,0.0,-6.004227466892324e-11,3.469191450393307e-10,-1.6397820512221854e-11,0.0,0.0,0.0,0.0,0.0,0.0,0.0,0.0,0.0
6.558,190,6,558000000,base_footprint,-7.162256471386602e-06,0.003853101155882315,2.6052612192954917e-05,0.9999925764131683,0.0,0.0,0.0,0.0,0.0,0.0,0.0,0.0,0.0,3.891812852896576e-05,-0.00018039706520195882,9.309004256047307e-06,0.0,0.0,0.0,0.0,0.0,0.0,0.0,0.0,0.0,-6.007992736865268e-11,3.4714602551420753e-10,-1.643251955791758e-11,0.0,0.0,0.0,0.0,0.0,0.0,0.0,0.0,0.0
6.5920000000000005,191,6,592000000,base_footprint,-7.162848526445168e-06,0.0038531011550394464,2.620630895637401e-05,0.9999925764091512,0.0,0.0,0.0,0.0,0.0,0.0,0.0,0.0,0.0,3.8918261266450785e-05,-0.00018039703307254988,9.309182821356287e-06,0.0,0.0,0.0,0.0,0.0,0.0,0.0,0.0,0.0,-6.00271099495285e-11,3.468097564029824e-10,-1.631072253628195e-11,0.0,0.0,0.0,0.0,0.0,0.0,0.0,0.0,0.0
6.626,192,6,626000000,base_footprint,-7.163440582868674e-06,0.003853101154196478,2.6360006081313802e-05,0.9999925764051105,0.0,0.0,0.0,0.0,0.0,0.0,0.0,0.0,0.0,3.891839394962533e-05,-0.00018039700092285785,9.309361474067592e-06,0.0,0.0,0.0,0.0,0.0,0.0,0.0,0.0,0.0,-6.00541554813025e-11,3.469770842843706e-10,-1.638410678434338e-11,0.0,0.0,0.0,0.0,0.0,0.0,0.0,0.0,0.0
6.66,193,6,660000000,base_footprint,-7.164032640635218e-06,0.003853101153353366,2.6513703567734487e-05,0.9999925764010461,0.0,0.0,0.0,0.0,0.0,0.0,0.0,0.0,0.0,3.8918526611958795e-05,-0.00018039696874832018,9.309539990714678e-06,0.0,0.0,0.0,0.0,0.0,0.0,0.0,0.0,0.0,-6.00163633210527e-11,3.4671206318417274e-10,-1.655246547312444e-11,0.0,0.0,0.0,0.0,0.0,0.0,0.0,0.0,0.0
6.694,194,6,694000000,base_footprint,-7.164624699795513e-06,0.0038531011525102395,2.6667401413543204e-05,0.9999925763969583,0.0,0.0,0.0,0.0,0.0,0.0,0.0,0.0,0.0,3.8918659393765605e-05,-0.0001803969366003535,9.309718701823188e-06,0.0,0.0,0.0,0.0,0.0,0.0,0.0,0.0,0.0,-6.007133723898986e-11,3.470945883246424e-10,-1.6282991460863477e-11,0.0,0.0,0.0,0.0,0.0,0.0,0.0,0.0,0.0
6.728,195,6,728000000,base_footprint,-7.16521676025389e-06,0.003853101151666872,2.6821099621621326e-05,0.9999925763928468,0.0,0.0,0.0,0.0,0.0,0.0,0.0,0.0,0.0,3.891879208032659e-05,-0.00018039690445506958,9.309897327317909e-06,0.0,0.0,0.0,0.0,0.0,0.0,0.0,0.0,0.0,-6.004722649602778e-11,3.46924125610364e-10,-1.6406355597497738e-11,0.0,0.0,0.0,0.0,0.0,0.0,0.0,0.0,0.0
6.763,196,6,762000000,base_footprint,-7.16580882217117e-06,0.0038531011508235666,2.6974798189868987e-05,0.9999925763887115,0.0,0.0,0.0,0.0,0.0,0.0,0.0,0.0,0.0,3.891892473736322e-05,-0.00018039687230254043,9.310075952692888e-06,0.0,0.0,0.0,0.0,0.0,0.0,0.0,0.0,0.0,-6.004697104902334e-11,3.4692262898151506e-10,-1.6338379462494685e-11,0.0,0.0,0.0,0.0,0.0,0.0,0.0,0.0,0.0
6.796,197,6,796000000,base_footprint,-7.166400885412533e-06,0.003853101149980082,2.7128497119998956e-05,0.9999925763845529,0.0,0.0,0.0,0.0,0.0,0.0,0.0,0.0,0.0,3.891905749831935e-05,-0.00018039684019065922,9.310254682121747e-06,0.0,0.0,0.0,0.0,0.0,0.0,0.0,0.0,0.0,-6.007746343322203e-11,3.471293604164043e-10,-1.6383364665017992e-11,0.0,0.0,0.0,0.0,0.0,0.0,0.0,0.0,0.0
6.836,198,6,830000000,base_footprint,-7.166992950106755e-06,0.0038531011491365914,2.7282196410822902e-05,0.9999925763803703,0.0,0.0,0.0,0.0,0.0,0.0,0.0,0.0,0.0,3.891919015863875e-05,-0.00018039680805237595,9.310433149864233e-06,0.0,0.0,0.0,0.0,0.0,0.0,0.0,0.0,0.0,-6.00009692981107e-11,3.4661621477012804e-10,-1.632764784966641e-11,0.0,0.0,0.0,0.0,0.0,0.0,0.0,0.0,0.0
6.864,199,6,864000000,base_footprint,-7.167585016107245e-06,0.0038531011482928978,2.7435896061896538e-05,0.9999925763761641,0.0,0.0,0.0,0.0,0.0,0.0,0.0,0.0,0.0,3.891932286654596e-05,-0.00018039677588226486,9.310611801862464e-06,0.0,0.0,0.0,0.0,0.0,0.0,0.0,0.0,0.0,-6.005796271541155e-11,3.4697646800714015e-10,-1.651125331794529e-11,0.0,0.0,0.0,0.0,0.0,0.0,0.0,0.0,0.0
6.91,200,6,898000000,base_footprint,-7.168177083485846e-06,0.0038531011474491374,2.758959607536699e-05,0.9999925763719344,0.0,0.0,0.0,0.0,0.0,0.0,0.0,0.0,0.0,3.891945559972837e-05,-0.00018039674374922344,9.310790639969352e-06,0.0,0.0,0.0,0.0,0.0,0.0,0.0,0.0,0.0,-6.011104329365505e-11,3.47338382076523e-10,-1.638399951007137e-11,0.0,0.0,0.0,0.0,0.0,0.0,0.0,0.0,0.0
6.932,201,6,932000000,base_footprint,-7.168769152278445e-06,0.0038531011466053566,2.7743296448001003e-05,0.9999925763676811,0.0,0.0,0.0,0.0,0.0,0.0,0.0,0.0,0.0,3.891958833297401e-05,-0.00018039671163771302,9.31096911753315e-06,0.0,0.0,0.0,0.0,0.0,0.0,0.0,0.0,0.0,-6.000434464369092e-11,3.4663859847224815e-10,-1.6359783337654835e-11,0.0,0.0,0.0,0.0,0.0,0.0,0.0,0.0,0.0
6.97,202,6,966000000,base_footprint,-7.1693612224507135e-06,0.0038531011457614787,2.789699718223298e-05,0.999992576363404,0.0,0.0,0.0,0.0,0.0,0.0,0.0,0.0,0.0,3.891972107030257e-05,-0.00018039667943156842,9.311147946919418e-06,0.0,0.0,0.0,0.0,0.0,0.0,0.0,0.0,0.0,-6.011153558261537e-11,3.473219596705999e-10,-1.6427992324332428e-11,0.0,0.0,0.0,0.0,0.0,0.0,0.0,0.0,0.0
6.998,203,7,0,base_footprint,-7.169953294001991e-06,0.003853101144917454,2.8050698278175808e-05,0.9999925763591033,0.0,0.0,0.0,0.0,0.0,0.0,0.0,0.0,0.0,3.8919853796110056e-05,-0.00018039664731285963,9.311326548634295e-06,0.0,0.0,0.0,0.0,0.0,0.0,0.0,0.0,0.0,-6.004162030118942e-11,3.468794666791792e-10,-1.6347619891133816e-11,0.0,0.0,0.0,0.0,0.0,0.0,0.0,0.0,0.0
7.029,204,7,34000000,base_footprint,-7.17054536692089e-06,0.003853101144073422,2.820439973341327e-05,0.9999925763547792,0.0,0.0,0.0,0.0,0.0,0.0,0.0,0.0,0.0,3.891998651129046e-05,-0.00018039661514630636,9.311505224473407e-06,0.0,0.0,0.0,0.0,0.0,0.0,0.0,0.0,0.0,-6.006550998738336e-11,3.470220204582483e-10,-1.6371671124358203e-11,0.0,0.0,0.0,0.0,0.0,0.0,0.0,0.0,0.0
7.069,205,7,68000000,base_footprint,-7.171137441307231e-06,0.003853101143229261,2.8358101549064054e-05,0.9999925763504313,0.0,0.0,0.0,0.0,0.0,0.0,0.0,0.0,0.0,3.892011919188977e-05,-0.00018039658300542092,9.311683709526313e-06,0.0,0.0,0.0,0.0,0.0,0.0,0.0,0.0,0.0,-6.00097405605866e-11,3.4665079540925584e-10,-1.6492646042238684e-11,0.0,0.0,0.0,0.0,0.0,0.0,0.0,0.0,0.0
7.095,206,7,102000000,base_footprint,-7.171729516924074e-06,0.003853101142384958,2.8511803727020537e-05,0.9999925763460596,0.0,0.0,0.0,0.0,0.0,0.0,0.0,0.0,0.0,3.892025187831328e-05,-0.0001803965508563076,9.311862584092923e-06,0.0,0.0,0.0,0.0,0.0,0.0,0.0,0.0,0.0,-6.012366270200141e-11,3.4740690531475226e-10,-1.6348298869984004e-11,0.0,0.0,0.0,0.0,0.0,0.0,0.0,0.0,0.0
7.138,207,7,136000000,base_footprint,-7.172321594000015e-06,0.003853101141540576,2.866550626626482e-05,0.9999925763416646,0.0,0.0,0.0,0.0,0.0,0.0,0.0,0.0,0.0,3.892038461808211e-05,-0.00018039651869441385,9.312041042181194e-06,0.0,0.0,0.0,0.0,0.0,0.0,0.0,0.0,0.0,-6.000200753480703e-11,3.466006418893056e-10,-1.6314313720664938e-11,0.0,0.0,0.0,0.0,0.0,0.0,0.0,0.0,0.0
7.172,208,7,170000000,base_footprint,-7.172913672437911e-06,0.0038531011406961954,2.881920916446779e-05,0.9999925763372457,0.0,0.0,0.0,0.0,0.0,0.0,0.0,0.0,0.0,3.892051730707002e-05,-0.00018039648653779758,9.312219723306913e-06,0.0,0.0,0.0,0.0,0.0,0.0,0.0,0.0,0.0,-6.00685788666531e-11,3.47031281168554e-10,-1.6452751828146915e-11,0.0,0.0,0.0,0.0,0.0,0.0,0.0,0.0,0.0
7.207,209,7,204000000,base_footprint,-7.173505752308617e-06,0.0038531011398515985,2.897291242431601e-05,0.9999925763328034,0.0,0.0,0.0,0.0,0.0,0.0,0.0,0.0,0.0,3.8920650025999485e-05,-0.00018039645441133884,9.312398415651177e-06,0.0,0.0,0.0,0.0,0.0,0.0,0.0,0.0,0.0,-6.007041149361281e-11,3.4705488608104664e-10,-1.633433529659741e-11,0.0,0.0,0.0,0.0,0.0,0.0,0.0,0.0,0.0
7.246,210,7,238000000,base_footprint,-7.174097833436168e-06,0.003853101139006946,2.9126616045376856e-05,0.9999925763283372,0.0,0.0,0.0,0.0,0.0,0.0,0.0,0.0,0.0,3.892078269857624e-05,-0.00018039642227083685,9.31257700451236e-06,0.0,0.0,0.0,0.0,0.0,0.0,0.0,0.0,0.0,-6.004154479804009e-11,3.468512170814489e-10,-1.644219357303586e-11,0.0,0.0,0.0,0.0,0.0,0.0,0.0,0.0,0.0
7.272,211,7,272000000,base_footprint,-7.174689916098319e-06,0.003853101138162221,2.928032002767962e-05,0.9999925763238475,0.0,0.0,0.0,0.0,0.0,0.0,0.0,0.0,0.0,3.892091542407957e-05,-0.00018039639012806623,9.312755679615757e-06,0.0,0.0,0.0,0.0,0.0,0.0,0.0,0.0,0.0,-6.006697880045811e-11,3.470211344292445e-10,-1.6381146419952383e-11,0.0,0.0,0.0,0.0,0.0,0.0,0.0,0.0,0.0
7.306,212,7,306000000,base_footprint,-7.175281999957964e-06,0.0038531011373173765,2.9434024370467158e-05,0.9999925763193341,0.0,0.0,0.0,0.0,0.0,0.0,0.0,0.0,0.0,3.892104815295505e-05,-0.00018039635798711075,9.31293444657519e-06,0.0,0.0,0.0,0.0,0.0,0.0,0.0,0.0,0.0,-6.009420554760053e-11,3.4719919916007885e-10,-1.6360650087046345e-11,0.0,0.0,0.0,0.0,0.0,0.0,0.0,0.0,0.0
7.343,213,7,340000000,base_footprint,-7.175874085369559e-06,0.003853101136472479,2.958772907502605e-05,0.9999925763147972,0.0,0.0,0.0,0.0,0.0,0.0,0.0,0.0,0.0,3.892118086399666e-05,-0.00018039632588668055,9.313112990939786e-06,0.0,0.0,0.0,0.0,0.0,0.0,0.0,0.0,0.0,-6.002752816331027e-11,3.467667039885018e-10,-1.6344213495883834e-11,0.0,0.0,0.0,0.0,0.0,0.0,0.0,0.0,0.0
7.374,214,7,374000000,base_footprint,-7.176466172204987e-06,0.0038531011356274787,2.9741434139474453e-05,0.9999925763102365,0.0,0.0,0.0,0.0,0.0,0.0,0.0,0.0,0.0,3.892131359087046e-05,-0.00018039629365256693,9.313291671153276e-06,0.0,0.0,0.0,0.0,0.0,0.0,0.0,0.0,0.0,-6.007348617096217e-11,3.470307820347091e-10,-1.655598109903842e-11,0.0,0.0,0.0,0.0,0.0,0.0,0.0,0.0,0.0
7.389,215,7,408000000,base_footprint,-7.17705826033335e-06,0.003853101134782391,2.9895139565798718e-05,0.9999925763056522,0.0,0.0,0.0,0.0,0.0,0.0,0.0,0.0,0.0,3.8921446304705055e-05,-0.00018039626149437093,9.313470367295896e-06,0.0,0.0,0.0,0.0,0.0,0.0,0.0,0.0,0.0,-6.007464466266165e-11,3.4706119026669835e-10,-1.6343889222620994e-11,0.0,0.0,0.0,0.0,0.0,0.0,0.0,0.0,0.0
7.442,216,7,442000000,base_footprint,-7.177650349922298e-06,0.003853101133937233,3.0048845352702618e-05,0.9999925763010443,0.0,0.0,0.0,0.0,0.0,0.0,0.0,0.0,0.0,3.892157904385245e-05,-0.00018039622934353083,9.313649022983364e-06,0.0,0.0,0.0,0.0,0.0,0.0,0.0,0.0,0.0,-6.006346029265188e-11,3.469835731389406e-10,-1.6418237982696613e-11,0.0,0.0,0.0,0.0,0.0,0.0,0.0,0.0,0.0
7.48,217,7,476000000,base_footprint,-7.178242440841009e-06,0.003853101133091878,3.0202551500908187e-05,0.9999925762964128,0.0,0.0,0.0,0.0,0.0,0.0,0.0,0.0,0.0,3.892171172141663e-05,-0.00018039619721153927,9.313827588634672e-06,0.0,0.0,0.0,0.0,0.0,0.0,0.0,0.0,0.0,-6.003585571866033e-11,3.468064023145996e-10,-1.6321853235875135e-11,0.0,0.0,0.0,0.0,0.0,0.0,0.0,0.0,0.0
7.5120000000000005,218,7,510000000,base_footprint,-7.178834533092972e-06,0.003853101132246597,3.035625800996561e-05,0.9999925762917578,0.0,0.0,0.0,0.0,0.0,0.0,0.0,0.0,0.0,3.8921844454428444e-05,-0.000180396165017527,9.314006294253355e-06,0.0,0.0,0.0,0.0,0.0,0.0,0.0,0.0,0.0,-6.00802237092506e-11,3.4707998379914235e-10,-1.6444364471190653e-11,0.0,0.0,0.0,0.0,0.0,0.0,0.0,0.0,0.0
7.5440000000000005,219,7,544000000,base_footprint,-7.179426626786111e-06,0.003853101131401108,3.0509964879810435e-05,0.9999925762870788,0.0,0.0,0.0,0.0,0.0,0.0,0.0,0.0,0.0,3.892197717035608e-05,-0.00018039613295076166,9.314184851109543e-06,0.0,0.0,0.0,0.0,0.0,0.0,0.0,0.0,0.0,-6.003237260511844e-11,3.4679074947259453e-10,-1.6362050582582575e-11,0.0,0.0,0.0,0.0,0.0,0.0,0.0,0.0,0.0
7.581,220,7,578000000,base_footprint,-7.18001872194071e-06,0.0038531011305555723,3.066367211094805e-05,0.9999925762823764,0.0,0.0,0.0,0.0,0.0,0.0,0.0,0.0,0.0,3.892210983957427e-05,-0.00018039610074357802,9.314363551633294e-06,0.0,0.0,0.0,0.0,0.0,0.0,0.0,0.0,0.0,-6.008008896647519e-11,3.47066837387503e-10,-1.645509530205276e-11,0.0,0.0,0.0,0.0,0.0,0.0,0.0,0.0,0.0
7.612,221,7,612000000,base_footprint,-7.180610818399799e-06,0.003853101129709933,3.081737970184605e-05,0.9999925762776503,0.0,0.0,0.0,0.0,0.0,0.0,0.0,0.0,0.0,3.89222425878624e-05,-0.00018039606854143982,9.314542193028362e-06,0.0,0.0,0.0,0.0,0.0,0.0,0.0,0.0,0.0,-6.006240008449342e-11,3.469561312541167e-10,-1.6427523455268512e-11,0.0,0.0,0.0,0.0,0.0,0.0,0.0,0.0,0.0
7.645,222,7,646000000,base_footprint,-7.181202916276145e-06,0.003853101128864216,3.0971087653223335e-05,0.9999925762729006,0.0,0.0,0.0,0.0,0.0,0.0,0.0,0.0,0.0,3.892237526835292e-05,-0.0001803960364626864,9.314720878884566e-06,0.0,0.0,0.0,0.0,0.0,0.0,0.0,0.0,0.0,-6.007156519161707e-11,3.470394236356525e-10,-1.636935604569615e-11,0.0,0.0,0.0,0.0,0.0,0.0,0.0,0.0,0.0
7.68,223,7,680000000,base_footprint,-7.18179501552278e-06,0.0038531011280183514,3.11247959675637e-05,0.9999925762681273,0.0,0.0,0.0,0.0,0.0,0.0,0.0,0.0,0.0,3.892250801509683e-05,-0.00018039600430585674,9.31489958509465e-06,0.0,0.0,0.0,0.0,0.0,0.0,0.0,0.0,0.0,-6.008066075491405e-11,3.4708155484221535e-10,-1.6365420419755652e-11,0.0,0.0,0.0,0.0,0.0,0.0,0.0,0.0,0.0
7.714,224,7,714000000,base_footprint,-7.182387116204315e-06,0.0038531011271723927,3.1278504643381134e-05,0.9999925762633302,0.0,0.0,0.0,0.0,0.0,0.0,0.0,0.0,0.0,3.8922640729193366e-05,-0.00018039597213155616,9.315078378276994e-06,0.0,0.0,0.0,0.0,0.0,0.0,0.0,0.0,0.0,-6.010747856045796e-11,3.4724904392815394e-10,-1.6478850362726582e-11,0.0,0.0,0.0,0.0,0.0,0.0,0.0,0.0,0.0
7.765,225,7,748000000,base_footprint,-7.182979218240842e-06,0.0038531011263264682,3.143221367863632e-05,0.9999925762585097,0.0,0.0,0.0,0.0,0.0,0.0,0.0,0.0,0.0,3.89227734547605e-05,-0.00018039594003212202,9.315256724660171e-06,0.0,0.0,0.0,0.0,0.0,0.0,0.0,0.0,0.0,-5.997334596811554e-11,3.463816997794801e-10,-1.63209001136176e-11,0.0,0.0,0.0,0.0,0.0,0.0,0.0,0.0,0.0
7.78,226,7,782000000,base_footprint,-7.18357132162481e-06,0.003853101125480326,3.1585923075381583e-05,0.9999925762536653,0.0,0.0,0.0,0.0,0.0,0.0,0.0,0.0,0.0,3.892290614938346e-05,-0.00018039590787885082,9.31543549138471e-06,0.0,0.0,0.0,0.0,0.0,0.0,0.0,0.0,0.0,-6.00985349295959e-11,3.471969968805184e-10,-1.6317939868409557e-11,0.0,0.0,0.0,0.0,0.0,0.0,0.0,0.0,0.0
7.815,227,7,816000000,base_footprint,-7.184163426463925e-06,0.0038531011246340885,3.173963283313991e-05,0.9999925762487974,0.0,0.0,0.0,0.0,0.0,0.0,0.0,0.0,0.0,3.892303886466463e-05,-0.00018039587571422262,9.31561410525892e-06,0.0,0.0,0.0,0.0,0.0,0.0,0.0,0.0,0.0,-6.005484249145709e-11,3.46900923812999e-10,-1.6381565455193793e-11,0.0,0.0,0.0,0.0,0.0,0.0,0.0,0.0,0.0
7.853,228,7,850000000,base_footprint,-7.1847555327266495e-06,0.003853101123787872,3.1893342950282343e-05,0.9999925762439059,0.0,0.0,0.0,0.0,0.0,0.0,0.0,0.0,0.0,3.89231715546035e-05,-0.00018039584352574022,9.315792641553969e-06,0.0,0.0,0.0,0.0,0.0,0.0,0.0,0.0,0.0,-6.003479345367749e-11,3.4674834871465114e-10,-1.6579249910212817e-11,0.0,0.0,0.0,0.0,0.0,0.0,0.0,0.0,0.0
7.884,229,7,884000000,base_footprint,-7.185347640321984e-06,0.0038531011229414533,3.204705342907308e-05,0.9999925762389906,0.0,0.0,0.0,0.0,0.0,0.0,0.0,0.0,0.0,3.8923304304928966e-05,-0.00018039581136131494,9.315971350595135e-06,0.0,0.0,0.0,0.0,0.0,0.0,0.0,0.0,0.0,-6.0083554545821e-11,3.470872250478479e-10,-1.6384154013107313e-11,0.0,0.0,0.0,0.0,0.0,0.0,0.0,0.0,0.0
7.9190000000000005,230,7,918000000,base_footprint,-7.18593974932173e-06,0.0038531011220949546,3.220076426852406e-05,0.999992576234052,0.0,0.0,0.0,0.0,0.0,0.0,0.0,0.0,0.0,3.892343700992511e-05,-0.00018039577918187722,9.316150131170242e-06,0.0,0.0,0.0,0.0,0.0,0.0,0.0,0.0,0.0,-6.01052081436299e-11,3.4722333808963765e-10,-1.6345200075222792e-11,0.0,0.0,0.0,0.0,0.0,0.0,0.0,0.0,0.0
7.952,231,7,952000000,base_footprint,-7.186531859660856e-06,0.00385310112124843,3.235447546841764e-05,0.9999925762290894,0.0,0.0,0.0,0.0,0.0,0.0,0.0,0.0,0.0,3.892356974392644e-05,-0.00018039574709522596,9.316328797876231e-06,0.0,0.0,0.0,0.0,0.0,0.0,0.0,0.0,0.0,-6.006999597428947e-11,3.4700382147324755e-10,-1.643400116696151e-11,0.0,0.0,0.0,0.0,0.0,0.0,0.0,0.0,0.0
7.991,232,7,986000000,base_footprint,-7.1871239713939694e-06,0.0038531011204017153,3.250818703145634e-05,0.9999925762241033,0.0,0.0,0.0,0.0,0.0,0.0,0.0,0.0,0.0,3.892370249965668e-05,-0.0001803957148942097,9.316507508282775e-06,0.0,0.0,0.0,0.0,0.0,0.0,0.0,0.0,0.0,-6.00859175029651e-11,3.4709006232520635e-10,-1.639070749673472e-11,0.0,0.0,0.0,0.0,0.0,0.0,0.0,0.0,0.0
8.016,233,8,20000000,base_footprint,-7.187716084547698e-06,0.003853101119554996,3.266189895488769e-05,0.9999925762190935,0.0,0.0,0.0,0.0,0.0,0.0,0.0,0.0,0.0,3.892383517685108e-05,-0.00018039568273623102,9.316686055317979e-06,0.0,0.0,0.0,0.0,0.0,0.0,0.0,0.0,0.0,-6.003715698380287e-11,3.4676887718972264e-10,-1.6387716068891645e-11,0.0,0.0,0.0,0.0,0.0,0.0,0.0,0.0,0.0
8.056,234,8,54000000,base_footprint,-7.1883081991107335e-06,0.003853101118708131,3.281561123909418e-05,0.9999925762140601,0.0,0.0,0.0,0.0,0.0,0.0,0.0,0.0,0.0,3.892396789825413e-05,-0.00018039565060330384,9.316864884973552e-06,0.0,0.0,0.0,0.0,0.0,0.0,0.0,0.0,0.0,-6.01201593126717e-11,3.4731927402668493e-10,-1.643706291951828e-11,0.0,0.0,0.0,0.0,0.0,0.0,0.0,0.0,0.0
8.088,235,8,88000000,base_footprint,-7.188900315097077e-06,0.0038531011178612675,3.296932388402516e-05,0.9999925762090032,0.0,0.0,0.0,0.0,0.0,0.0,0.0,0.0,0.0,3.8924100595065185e-05,-0.00018039561844813986,9.317043404667341e-06,0.0,0.0,0.0,0.0,0.0,0.0,0.0,0.0,0.0,-6.002973676627634e-11,3.4671648683906417e-10,-1.6384511659443916e-11,0.0,0.0,0.0,0.0,0.0,0.0,0.0,0.0,0.0
8.122,236,8,122000000,base_footprint,-7.189492432375274e-06,0.003853101117014311,3.3123036889018195e-05,0.9999925762039226,0.0,0.0,0.0,0.0,0.0,0.0,0.0,0.0,0.0,3.892423332066807e-05,-0.00018039558625926533,9.317221936890378e-06,0.0,0.0,0.0,0.0,0.0,0.0,0.0,0.0,0.0,-6.003473529341429e-11,3.46741764027123e-10,-1.638577202340953e-11,0.0,0.0,0.0,0.0,0.0,0.0,0.0,0.0,0.0
8.155,237,8,156000000,base_footprint,-7.190084551077347e-06,0.003853101116167143,3.3276750255188905e-05,0.9999925761988182,0.0,0.0,0.0,0.0,0.0,0.0,0.0,0.0,0.0,3.8924366043675536e-05,-0.00018039555413571423,9.317400698356398e-06,0.0,0.0,0.0,0.0,0.0,0.0,0.0,0.0,0.0,-6.010087935993268e-11,3.471872510449824e-10,-1.6447440709556435e-11,0.0,0.0,0.0,0.0,0.0,0.0,0.0,0.0,0.0
8.188,238,8,190000000,base_footprint,-7.190676671244389e-06,0.0038531011153197996,3.343046398303391e-05,0.9999925761936902,0.0,0.0,0.0,0.0,0.0,0.0,0.0,0.0,0.0,3.892449871898337e-05,-0.00018039552198838074,9.317579526453743e-06,0.0,0.0,0.0,0.0,0.0,0.0,0.0,0.0,0.0,-6.012083826077656e-11,3.4731437711334137e-10,-1.638351966061313e-11,0.0,0.0,0.0,0.0,0.0,0.0,0.0,0.0,0.0
8.225,239,8,224000000,base_footprint,-7.1912687926762274e-06,0.0038531011144726066,3.3584178072197554e-05,0.9999925761885387,0.0,0.0,0.0,0.0,0.0,0.0,0.0,0.0,0.0,3.8924631491720456e-05,-0.00018039548978657872,9.317758129319426e-06,0.0,0.0,0.0,0.0,0.0,0.0,0.0,0.0,0.0,-6.005665162983544e-11,3.468809933106435e-10,-1.6336793367223575e-11,0.0,0.0,0.0,0.0,0.0,0.0,0.0,0.0,0.0
8.257,240,8,258000000,base_footprint,-7.19186091555945e-06,0.0038531011136252328,3.3737892522202235e-05,0.9999925761833636,0.0,0.0,0.0,0.0,0.0,0.0,0.0,0.0,0.0,3.89247641969755e-05,-0.0001803954576485648,9.317936930940705e-06,0.0,0.0,0.0,0.0,0.0,0.0,0.0,0.0,0.0,-6.011446542408491e-11,3.4726358845020047e-10,-1.6468736881691617e-11,0.0,0.0,0.0,0.0,0.0,0.0,0.0,0.0,0.0
8.292,241,8,292000000,base_footprint,-7.192453039878437e-06,0.003853101112777865,3.3891607332803045e-05,0.9999925761781646,0.0,0.0,0.0,0.0,0.0,0.0,0.0,0.0,0.0,3.8924896950006444e-05,-0.00018039542551150035,9.318115489835998e-06,0.0,0.0,0.0,0.0,0.0,0.0,0.0,0.0,0.0,-6.004259054530228e-11,3.46794582002529e-10,-1.6355269115374488e-11,0.0,0.0,0.0,0.0,0.0,0.0,0.0,0.0,0.0
8.326,242,8,326000000,base_footprint,-7.19304516560382e-06,0.0038531011119302193,3.4045322504804936e-05,0.9999925761729421,0.0,0.0,0.0,0.0,0.0,0.0,0.0,0.0,0.0,3.892502960465236e-05,-0.0001803953933722671,9.3182942704446e-06,0.0,0.0,0.0,0.0,0.0,0.0,0.0,0.0,0.0,-6.010776025261258e-11,3.47220889921735e-10,-1.6356898979556337e-11,0.0,0.0,0.0,0.0,0.0,0.0,0.0,0.0,0.0
8.354,243,8,360000000,base_footprint,-7.193637292649043e-06,0.003853101111082476,3.4199038038106494e-05,0.9999925761676961,0.0,0.0,0.0,0.0,0.0,0.0,0.0,0.0,0.0,3.892516234056393e-05,-0.00018039536116695395,9.318472837317528e-06,0.0,0.0,0.0,0.0,0.0,0.0,0.0,0.0,0.0,-6.004815890316233e-11,3.4680949162801223e-10,-1.6450615178336907e-11,0.0,0.0,0.0,0.0,0.0,0.0,0.0,0.0,0.0
8.394,244,8,394000000,base_footprint,-7.194229421060877e-06,0.003853101110234859,3.435275393167792e-05,0.9999925761624262,0.0,0.0,0.0,0.0,0.0,0.0,0.0,0.0,0.0,3.892529505328956e-05,-0.00018039532905567919,9.318651435389857e-06,0.0,0.0,0.0,0.0,0.0,0.0,0.0,0.0,0.0,-6.005493094545974e-11,3.46868264801397e-10,-1.6429258471633272e-11,0.0,0.0,0.0,0.0,0.0,0.0,0.0,0.0,0.0
8.428,245,8,428000000,base_footprint,-7.1948215509119705e-06,0.003853101109386919,3.450647018559926e-05,0.9999925761571327,0.0,0.0,0.0,0.0,0.0,0.0,0.0,0.0,0.0,3.892542779280497e-05,-0.0001803952969116274,9.318830080945799e-06,0.0,0.0,0.0,0.0,0.0,0.0,0.0,0.0,0.0,-6.00694258443582e-11,3.4696231778061326e-10,-1.6354912398494172e-11,0.0,0.0,0.0,0.0,0.0,0.0,0.0,0.0,0.0
8.463,246,8,462000000,base_footprint,-7.19541368217486e-06,0.0038531011085391116,3.4660186800735074e-05,0.9999925761518157,0.0,0.0,0.0,0.0,0.0,0.0,0.0,0.0,0.0,3.8925560511025246e-05,-0.00018039526474046826,9.319008889004274e-06,0.0,0.0,0.0,0.0,0.0,0.0,0.0,0.0,0.0,-6.011819107548973e-11,3.472765026090777e-10,-1.633209737505044e-11,0.0,0.0,0.0,0.0,0.0,0.0,0.0,0.0,0.0
8.493,247,8,496000000,base_footprint,-7.196005814811447e-06,0.0038531011076910586,3.481390377784292e-05,0.9999925761464751,0.0,0.0,0.0,0.0,0.0,0.0,0.0,0.0,0.0,3.892569325292606e-05,-0.00018039523263530097,9.319187364567539e-06,0.0,0.0,0.0,0.0,0.0,0.0,0.0,0.0,0.0,-6.001997337284598e-11,3.4663182714186817e-10,-1.6462225701526894e-11,0.0,0.0,0.0,0.0,0.0,0.0,0.0,0.0,0.0
8.529,248,8,530000000,base_footprint,-7.196597948837888e-06,0.0038531011068429215,3.496762111458652e-05,0.9999925761411106,0.0,0.0,0.0,0.0,0.0,0.0,0.0,0.0,0.0,3.892582598044571e-05,-0.00018039520038270947,9.319366113423817e-06,0.0,0.0,0.0,0.0,0.0,0.0,0.0,0.0,0.0,-6.010486828744224e-11,3.471620685295372e-10,-1.6477809898407416e-11,0.0,0.0,0.0,0.0,0.0,0.0,0.0,0.0,0.0
8.564,249,8,564000000,base_footprint,-7.197190084226465e-06,0.003853101105994668,3.51213388125421e-05,0.9999925761357226,0.0,0.0,0.0,0.0,0.0,0.0,0.0,0.0,0.0,3.892595869946774e-05,-0.0001803951683050028,9.319544752567687e-06,0.0,0.0,0.0,0.0,0.0,0.0,0.0,0.0,0.0,-6.006726740121749e-11,3.4694827729842364e-10,-1.6392744589219176e-11,0.0,0.0,0.0,0.0,0.0,0.0,0.0,0.0,0.0
8.598,250,8,598000000,base_footprint,-7.1977822210392385e-06,0.0038531011051464396,3.5275056871513104e-05,0.999992576130311,0.0,0.0,0.0,0.0,0.0,0.0,0.0,0.0,0.0,3.892609143514474e-05,-0.00018039513610922567,9.319723548005678e-06,0.0,0.0,0.0,0.0,0.0,0.0,0.0,0.0,0.0,-6.011685846514666e-11,3.4725248261509883e-10,-1.6366011044912284e-11,0.0,0.0,0.0,0.0,0.0,0.0,0.0,0.0,0.0
8.632,251,8,632000000,base_footprint,-7.198374359259483e-06,0.003853101104298047,3.5428775292417004e-05,0.9999925761248758,0.0,0.0,0.0,0.0,0.0,0.0,0.0,0.0,0.0,3.892622411165426e-05,-0.00018039510396407392,9.319902066755479e-06,0.0,0.0,0.0,0.0,0.0,0.0,0.0,0.0,0.0,-6.003535411528063e-11,3.4671267974681974e-10,-1.649897461534709e-11,0.0,0.0,0.0,0.0,0.0,0.0,0.0,0.0,0.0
8.666,252,8,666000000,base_footprint,-7.198966498833678e-06,0.0038531011034495036,3.558249407311067e-05,0.9999925761194168,0.0,0.0,0.0,0.0,0.0,0.0,0.0,0.0,0.0,3.8926356886750715e-05,-0.00018039507175318482,9.320080829196118e-06,0.0,0.0,0.0,0.0,0.0,0.0,0.0,0.0,0.0,-6.010814012728976e-11,3.471900340174212e-10,-1.63380730279809e-11,0.0,0.0,0.0,0.0,0.0,0.0,0.0,0.0,0.0
8.699,253,8,700000000,base_footprint,-7.1995586398056495e-06,0.00385310110260099,3.5736213215584285e-05,0.9999925761139343,0.0,0.0,0.0,0.0,0.0,0.0,0.0,0.0,0.0,3.8926489557853396e-05,-0.00018039503959104314,9.32025942846288e-06,0.0,0.0,0.0,0.0,0.0,0.0,0.0,0.0,0.0,-6.005959684005038e-11,3.468690952902424e-10,-1.6465638474323902e-11,0.0,0.0,0.0,0.0,0.0,0.0,0.0,0.0,0.0
8.734,254,8,734000000,base_footprint,-7.2001507822558595e-06,0.0038531011017523616,3.5889932719635585e-05,0.9999925761084282,0.0,0.0,0.0,0.0,0.0,0.0,0.0,0.0,0.0,3.892662227701743e-05,-0.00018039500745698368,9.320438178999267e-06,0.0,0.0,0.0,0.0,0.0,0.0,0.0,0.0,0.0,-6.010304706553081e-11,3.4716398091828123e-10,-1.6334791677150454e-11,0.0,0.0,0.0,0.0,0.0,0.0,0.0,0.0,0.0
8.768,255,8,768000000,base_footprint,-7.200742926001221e-06,0.003853101100903564,3.6043652584197645e-05,0.9999925761028982,0.0,0.0,0.0,0.0,0.0,0.0,0.0,0.0,0.0,3.892675502560173e-05,-0.00018039497524603498,9.320616876964333e-06,0.0,0.0,0.0,0.0,0.0,0.0,0.0,0.0,0.0,-6.009081752614507e-11,3.470636831851388e-10,-1.6443797412219614e-11,0.0,0.0,0.0,0.0,0.0,0.0,0.0,0.0,0.0
8.803,256,8,802000000,base_footprint,-7.201335071175486e-06,0.0038531011000546415,3.619737280959154e-05,0.9999925760973448,0.0,0.0,0.0,0.0,0.0,0.0,0.0,0.0,0.0,3.892688771979781e-05,-0.00018039494312915814,9.320795385218477e-06,0.0,0.0,0.0,0.0,0.0,0.0,0.0,0.0,0.0,-6.003280814237954e-11,3.4669260499986764e-10,-1.645918033885586e-11,0.0,0.0,0.0,0.0,0.0,0.0,0.0,0.0,0.0
8.837,257,8,836000000,base_footprint,-7.201927217759786e-06,0.0038531010992058305,3.635109339584531e-05,0.9999925760917676,0.0,0.0,0.0,0.0,0.0,0.0,0.0,0.0,0.0,3.89270204459363e-05,-0.00018039491098801452,9.320974206723005e-06,0.0,0.0,0.0,0.0,0.0,0.0,0.0,0.0,0.0,-6.012521837466038e-11,3.4730250111465565e-10,-1.6383141817089254e-11,0.0,0.0,0.0,0.0,0.0,0.0,0.0,0.0,0.0
8.870000000000001,258,8,870000000,base_footprint,-7.202519365706429e-06,0.0038531010983567076,3.6504814342516144e-05,0.9999925760861669,0.0,0.0,0.0,0.0,0.0,0.0,0.0,0.0,0.0,3.892715323037968e-05,-0.00018039487882453512,9.321152795776836e-06,0.0,0.0,0.0,0.0,0.0,0.0,0.0,0.0,0.0,-6.005763310971461e-11,3.4685340482504227e-10,-1.6307717824098858e-11,0.0,0.0,0.0,0.0,0.0,0.0,0.0,0.0,0.0
8.904,259,8,904000000,base_footprint,-7.203111514966384e-06,0.00385310109750754,3.6658535651749864e-05,0.9999925760805424,0.0,0.0,0.0,0.0,0.0,0.0,0.0,0.0,0.0,3.892728589948052e-05,-0.0001803948466288481,9.321331502591268e-06,0.0,0.0,0.0,0.0,0.0,0.0,0.0,0.0,0.0,-6.009502277438017e-11,3.470769351111802e-10,-1.6535953523282257e-11,0.0,0.0,0.0,0.0,0.0,0.0,0.0,0.0,0.0
8.938,260,8,938000000,base_footprint,-7.203703665619665e-06,0.003853101096658409,3.681225732069341e-05,0.9999925760748944,0.0,0.0,0.0,0.0,0.0,0.0,0.0,0.0,0.0,3.892741862085301e-05,-0.00018039481450060307,9.321510141679684e-06,0.0,0.0,0.0,0.0,0.0,0.0,0.0,0.0,0.0,-6.007171812446782e-11,3.4694748978910577e-10,-1.6298221919380592e-11,0.0,0.0,0.0,0.0,0.0,0.0,0.0,0.0,0.0
8.976,261,8,972000000,base_footprint,-7.2042958177757045e-06,0.0038531010958090858,3.696597935126502e-05,0.9999925760692226,0.0,0.0,0.0,0.0,0.0,0.0,0.0,0.0,0.0,3.892755136806357e-05,-0.00018039478231397254,9.321688889380645e-06,0.0,0.0,0.0,0.0,0.0,0.0,0.0,0.0,0.0,-6.010720671028165e-11,3.471596556524455e-10,-1.6481542945877495e-11,0.0,0.0,0.0,0.0,0.0,0.0,0.0,0.0,0.0
9.006,262,9,6000000,base_footprint,-7.204887971218272e-06,0.003853101094959658,3.711970174247194e-05,0.9999925760635273,0.0,0.0,0.0,0.0,0.0,0.0,0.0,0.0,0.0,3.892768411382055e-05,-0.0001803947501722265,9.321867557852127e-06,0.0,0.0,0.0,0.0,0.0,0.0,0.0,0.0,0.0,-6.008149886255314e-11,3.470058139077388e-10,-1.6320630168058906e-11,0.0,0.0,0.0,0.0,0.0,0.0,0.0,0.0,0.0
9.039,263,9,40000000,base_footprint,-7.205480126127485e-06,0.003853101094110191,3.7273424493778026e-05,0.9999925760578084,0.0,0.0,0.0,0.0,0.0,0.0,0.0,0.0,0.0,3.8927816790487265e-05,-0.00018039471806048223,9.32204615539577e-06,0.0,0.0,0.0,0.0,0.0,0.0,0.0,0.0,0.0,-6.006045372225777e-11,3.468648948673727e-10,-1.6385205384750097e-11,0.0,0.0,0.0,0.0,0.0,0.0,0.0,0.0,0.0
9.074,264,9,74000000,base_footprint,-7.2060722823094884e-06,0.0038531010932605944,3.7427147607488176e-05,0.9999925760520657,0.0,0.0,0.0,0.0,0.0,0.0,0.0,0.0,0.0,3.892794954308883e-05,-0.00018039468586106259,9.322225026931208e-06,0.0,0.0,0.0,0.0,0.0,0.0,0.0,0.0,0.0,-6.014431615431854e-11,3.474001061258383e-10,-1.6400183764086366e-11,0.0,0.0,0.0,0.0,0.0,0.0,0.0,0.0,0.0
9.11,265,9,108000000,base_footprint,-7.206664439976504e-06,0.003853101092410917,3.7580871081409785e-05,0.9999925760462993,0.0,0.0,0.0,0.0,0.0,0.0,0.0,0.0,0.0,3.8928082301552045e-05,-0.00018039465375216295,9.322403597687895e-06,0.0,0.0,0.0,0.0,0.0,0.0,0.0,0.0,0.0,-6.005347441754699e-11,3.4681635442764953e-10,-1.6371321509947733e-11,0.0,0.0,0.0,0.0,0.0,0.0,0.0,0.0,0.0
9.142,266,9,142000000,base_footprint,-7.207256599032045e-06,0.0038531010915611756,3.7734594916478576e-05,0.9999925760405095,0.0,0.0,0.0,0.0,0.0,0.0,0.0,0.0,0.0,3.8928215000009655e-05,-0.00018039462151265518,9.322582324701675e-06,0.0,0.0,0.0,0.0,0.0,0.0,0.0,0.0,0.0,-6.010458250302562e-11,3.4711697142466845e-10,-1.6553771680716836e-11,0.0,0.0,0.0,0.0,0.0,0.0,0.0,0.0,0.0
9.176,267,9,176000000,base_footprint,-7.207848759530763e-06,0.003853101090711329,3.7888319112573924e-05,0.9999925760346958,0.0,0.0,0.0,0.0,0.0,0.0,0.0,0.0,0.0,3.892834771424949e-05,-0.0001803945893748351,9.322760949318444e-06,0.0,0.0,0.0,0.0,0.0,0.0,0.0,0.0,0.0,-6.007102060902044e-11,3.469188756769619e-10,-1.6410130398953677e-11,0.0,0.0,0.0,0.0,0.0,0.0,0.0,0.0,0.0
9.21,268,9,210000000,base_footprint,-7.208440921421551e-06,0.0038531010898614107,3.804204366888763e-05,0.9999925760288586,0.0,0.0,0.0,0.0,0.0,0.0,0.0,0.0,0.0,3.892848046240029e-05,-0.00018039455718009767,9.322939625463816e-06,0.0,0.0,0.0,0.0,0.0,0.0,0.0,0.0,0.0,-6.008787462652288e-11,3.4702000137190676e-10,-1.637784790194264e-11,0.0,0.0,0.0,0.0,0.0,0.0,0.0,0.0,0.0
9.245,269,9,244000000,base_footprint,-7.209033084634716e-06,0.003853101089011317,3.819576858688784e-05,0.9999925760229978,0.0,0.0,0.0,0.0,0.0,0.0,0.0,0.0,0.0,3.8928613176302875e-05,-0.00018039452503308144,9.323118351185379e-06,0.0,0.0,0.0,0.0,0.0,0.0,0.0,0.0,0.0,-6.010179589579285e-11,3.4711536699264994e-10,-1.6444563969715068e-11,0.0,0.0,0.0,0.0,0.0,0.0,0.0,0.0,0.0
9.279,270,9,278000000,base_footprint,-7.2096252491978194e-06,0.0038531010881612433,3.8349493866412224e-05,0.9999925760171134,0.0,0.0,0.0,0.0,0.0,0.0,0.0,0.0,0.0,3.892874592803283e-05,-0.00018039449287687187,9.323297010732085e-06,0.0,0.0,0.0,0.0,0.0,0.0,0.0,0.0,0.0,-6.008262181100214e-11,3.4698773193811605e-10,-1.6386246128865533e-11,0.0,0.0,0.0,0.0,0.0,0.0,0.0,0.0,0.0
9.322,271,9,312000000,base_footprint,-7.2102174152863905e-06,0.0038531010873109803,3.8503219505734614e-05,0.9999925760112052,0.0,0.0,0.0,0.0,0.0,0.0,0.0,0.0,0.0,3.892887860646125e-05,-0.00018039446075746935,9.323475664959063e-06,0.0,0.0,0.0,0.0,0.0,0.0,0.0,0.0,0.0,-6.007917343970416e-11,3.469746989350807e-10,-1.6271141396268794e-11,0.0,0.0,0.0,0.0,0.0,0.0,0.0,0.0,0.0
9.345,272,9,346000000,base_footprint,-7.210809582642629e-06,0.003853101086460611,3.865694550731639e-05,0.9999925760052734,0.0,0.0,0.0,0.0,0.0,0.0,0.0,0.0,0.0,3.892901131368859e-05,-0.00018039442854499187,9.32365453840139e-06,0.0,0.0,0.0,0.0,0.0,0.0,0.0,0.0,0.0,-6.014927867016875e-11,3.4740121203562394e-10,-1.658513984598459e-11,0.0,0.0,0.0,0.0,0.0,0.0,0.0,0.0,0.0
9.384,273,9,380000000,base_footprint,-7.211401751375811e-06,0.003853101085610271,3.8810671870299e-05,0.999992575999318,0.0,0.0,0.0,0.0,0.0,0.0,0.0,0.0,0.0,3.892914409330568e-05,-0.00018039439641747524,9.323833052536933e-06,0.0,0.0,0.0,0.0,0.0,0.0,0.0,0.0,0.0,-6.003949471549708e-11,3.467069356996175e-10,-1.6315293388318286e-11,0.0,0.0,0.0,0.0,0.0,0.0,0.0,0.0,0.0
9.41,274,9,414000000,base_footprint,-7.211993921562637e-06,0.0038531010847597936,3.896439859317693e-05,0.9999925759933388,0.0,0.0,0.0,0.0,0.0,0.0,0.0,0.0,0.0,3.892927680236763e-05,-0.00018039436422289033,9.324011703634053e-06,0.0,0.0,0.0,0.0,0.0,0.0,0.0,0.0,0.0,-6.008283123187872e-11,3.4696930900755027e-10,-1.642327094749197e-11,0.0,0.0,0.0,0.0,0.0,0.0,0.0,0.0,0.0
9.448,275,9,448000000,base_footprint,-7.212586093154313e-06,0.0038531010839091702,3.9118125676838274e-05,0.9999925759873362,0.0,0.0,0.0,0.0,0.0,0.0,0.0,0.0,0.0,3.892940955363073e-05,-0.00018039433208569177,9.324190412696765e-06,0.0,0.0,0.0,0.0,0.0,0.0,0.0,0.0,0.0,-6.00992145982233e-11,3.470838647379346e-10,-1.6497630115268122e-11,0.0,0.0,0.0,0.0,0.0,0.0,0.0,0.0,0.0
9.482,276,9,482000000,base_footprint,-7.213178266105414e-06,0.003853101083058543,3.927185312099111e-05,0.9999925759813098,0.0,0.0,0.0,0.0,0.0,0.0,0.0,0.0,0.0,3.8929542313830846e-05,-0.00018039429994809122,9.324369160023294e-06,0.0,0.0,0.0,0.0,0.0,0.0,0.0,0.0,0.0,-6.010973095579248e-11,3.4715822335920513e-10,-1.6365062931770072e-11,0.0,0.0,0.0,0.0,0.0,0.0,0.0,0.0,0.0
9.516,277,9,516000000,base_footprint,-7.213770440508353e-06,0.0038531010822078176,3.942558092646428e-05,0.9999925759752597,0.0,0.0,0.0,0.0,0.0,0.0,0.0,0.0,0.0,3.892967503833677e-05,-0.00018039426778039978,9.324547832874502e-06,0.0,0.0,0.0,0.0,0.0,0.0,0.0,0.0,0.0,-6.008871948899476e-11,3.4701215887246843e-10,-1.6319360211867632e-11,0.0,0.0,0.0,0.0,0.0,0.0,0.0,0.0,0.0
9.55,278,9,550000000,base_footprint,-7.214362616302904e-06,0.0038531010813569774,3.957930909264471e-05,0.999992575969186,0.0,0.0,0.0,0.0,0.0,0.0,0.0,0.0,0.0,3.8929807724035686e-05,-0.00018039423555429442,9.324726448043578e-06,0.0,0.0,0.0,0.0,0.0,0.0,0.0,0.0,0.0,-6.00750778033336e-11,3.4689852624863436e-10,-1.6518628176290562e-11,0.0,0.0,0.0,0.0,0.0,0.0,0.0,0.0,0.0
9.582,279,9,584000000,base_footprint,-7.214954793462139e-06,0.0038531010805059607,3.9733037620047215e-05,0.9999925759630887,0.0,0.0,0.0,0.0,0.0,0.0,0.0,0.0,0.0,3.8929940461434145e-05,-0.00018039420343239797,9.324904983799427e-06,0.0,0.0,0.0,0.0,0.0,0.0,0.0,0.0,0.0,-6.004855869306582e-11,3.467463281416936e-10,-1.642088469750371e-11,0.0,0.0,0.0,0.0,0.0,0.0,0.0,0.0,0.0
9.62,280,9,618000000,base_footprint,-7.215546971974928e-06,0.00385310107965497,3.988676650921171e-05,0.9999925759569678,0.0,0.0,0.0,0.0,0.0,0.0,0.0,0.0,0.0,3.8930073186195184e-05,-0.00018039417122392448,9.32508392864053e-06,0.0,0.0,0.0,0.0,0.0,0.0,0.0,0.0,0.0,-6.017153904271916e-11,3.47539878172564e-10,-1.639523292531905e-11,0.0,0.0,0.0,0.0,0.0,0.0,0.0,0.0,0.0
9.659,281,9,652000000,base_footprint,-7.216139151936005e-06,0.0038531010788038214,4.004049575776682e-05,0.999992575950823,0.0,0.0,0.0,0.0,0.0,0.0,0.0,0.0,0.0,3.8930205914310344e-05,-0.00018039413908530985,9.32526248018498e-06,0.0,0.0,0.0,0.0,0.0,0.0,0.0,0.0,0.0,-6.005359005720757e-11,3.4677683937662646e-10,-1.636460395729193e-11,0.0,0.0,0.0,0.0,0.0,0.0,0.0,0.0,0.0
9.687,282,9,686000000,base_footprint,-7.216731333189203e-06,0.0038531010779525735,4.019422536743238e-05,0.9999925759446548,0.0,0.0,0.0,0.0,0.0,0.0,0.0,0.0,0.0,3.893033865818463e-05,-0.00018039410691074478,9.325441290578035e-06,0.0,0.0,0.0,0.0,0.0,0.0,0.0,0.0,0.0,-6.013212342720544e-11,3.4727976226709695e-10,-1.6464193231569394e-11,0.0,0.0,0.0,0.0,0.0,0.0,0.0,0.0,0.0
9.729,283,9,720000000,base_footprint,-7.217323515879134e-06,0.003853101077101243,4.0347955338993e-05,0.9999925759384628,0.0,0.0,0.0,0.0,0.0,0.0,0.0,0.0,0.0,3.8930471350219016e-05,-0.00018039407478067702,9.325619802044859e-06,0.0,0.0,0.0,0.0,0.0,0.0,0.0,0.0,0.0,-6.004226509311711e-11,3.4669726933304586e-10,-1.6350994672825207e-11,0.0,0.0,0.0,0.0,0.0,0.0,0.0,0.0,0.0
9.753,284,9,754000000,base_footprint,-7.2179157000804645e-06,0.0038531010762498153,4.0501685672115735e-05,0.9999925759322473,0.0,0.0,0.0,0.0,0.0,0.0,0.0,0.0,0.0,3.893060412467174e-05,-0.00018039404259524058,9.325798345281416e-06,0.0,0.0,0.0,0.0,0.0,0.0,0.0,0.0,0.0,-6.005457468541024e-11,3.4676234638358707e-10,-1.6470036227686098e-11,0.0,0.0,0.0,0.0,0.0,0.0,0.0,0.0,0.0
9.788,285,9,788000000,base_footprint,-7.2185078855434785e-06,0.0038531010753983176,4.0655416365951756e-05,0.9999925759260081,0.0,0.0,0.0,0.0,0.0,0.0,0.0,0.0,0.0,3.893073679719608e-05,-0.00018039401042267228,9.325977204670293e-06,0.0,0.0,0.0,0.0,0.0,0.0,0.0,0.0,0.0,-6.014777034818367e-11,3.4737134287209706e-10,-1.6497785994485474e-11,0.0,0.0,0.0,0.0,0.0,0.0,0.0,0.0,0.0
9.822,286,9,822000000,base_footprint,-7.219100072386273e-06,0.003853101074546667,4.080914742127676e-05,0.9999925759197452,0.0,0.0,0.0,0.0,0.0,0.0,0.0,0.0,0.0,3.893086955031634e-05,-0.00018039397824873434,9.326155926783567e-06,0.0,0.0,0.0,0.0,0.0,0.0,0.0,0.0,0.0,-6.01066891177159e-11,3.4710854512268555e-10,-1.6378865836161077e-11,0.0,0.0,0.0,0.0,0.0,0.0,0.0,0.0,0.0
9.856,287,9,856000000,base_footprint,-7.219692260665973e-06,0.0038531010736950816,4.0962878838131065e-05,0.9999925759134588,0.0,0.0,0.0,0.0,0.0,0.0,0.0,0.0,0.0,3.893100228005358e-05,-0.00018039394609253094,9.326334498094821e-06,0.0,0.0,0.0,0.0,0.0,0.0,0.0,0.0,0.0,-6.006246663220672e-11,3.468146190112549e-10,-1.6386292096130394e-11,0.0,0.0,0.0,0.0,0.0,0.0,0.0,0.0,0.0
9.89,288,9,890000000,base_footprint,-7.220284450298252e-06,0.003853101072843207,4.111661061630807e-05,0.9999925759071486,0.0,0.0,0.0,0.0,0.0,0.0,0.0,0.0,0.0,3.89311350704516e-05,-0.00018039391395386985,9.32651341436878e-06,0.0,0.0,0.0,0.0,0.0,0.0,0.0,0.0,0.0,-6.01637536850631e-11,3.474868965630951e-10,-1.6397408003435587e-11,0.0,0.0,0.0,0.0,0.0,0.0,0.0,0.0,0.0
9.925,289,9,924000000,base_footprint,-7.220876641415038e-06,0.0038531010719914543,4.127034275370487e-05,0.9999925759008149,0.0,0.0,0.0,0.0,0.0,0.0,0.0,0.0,0.0,3.893126779669783e-05,-0.000180393881774071,9.32669177151073e-06,0.0,0.0,0.0,0.0,0.0,0.0,0.0,0.0,0.0,-6.000019718772616e-11,3.4639850575497185e-10,-1.6321996823289623e-11,0.0,0.0,0.0,0.0,0.0,0.0,0.0,0.0,0.0
9.958,290,9,958000000,base_footprint,-7.221468833874466e-06,0.0038531010711394514,4.1424075253212274e-05,0.9999925758944574,0.0,0.0,0.0,0.0,0.0,0.0,0.0,0.0,0.0,3.893140052750028e-05,-0.00018039384958629484,9.3268706467488e-06,0.0,0.0,0.0,0.0,0.0,0.0,0.0,0.0,0.0,-6.015414573269959e-11,3.4740479034019007e-10,-1.6469913920544877e-11,0.0,0.0,0.0,0.0,0.0,0.0,0.0,0.0,0.0
9.992,291,9,992000000,base_footprint,-7.222061027724798e-06,0.003853101070287333,4.157780811302074e-05,0.9999925758880763,0.0,0.0,0.0,0.0,0.0,0.0,0.0,0.0,0.0,3.893153324326928e-05,-0.0001803938174002164,9.327049324611784e-06,0.0,0.0,0.0,0.0,0.0,0.0,0.0,0.0,0.0,-6.009678556991205e-11,3.4702049128778995e-10,-1.650594448984985e-11,0.0,0.0,0.0,0.0,0.0,0.0,0.0,0.0,0.0
10.026,292,10,26000000,base_footprint,-7.22265322298393e-06,0.00385310106943525,4.17315413334346e-05,0.9999925758816715,0.0,0.0,0.0,0.0,0.0,0.0,0.0,0.0,0.0,3.893166598035048e-05,-0.0001803937852845828,9.327228083420895e-06,0.0,0.0,0.0,0.0,0.0,0.0,0.0,0.0,0.0,-6.011762819425322e-11,3.4717852671344946e-10,-1.6340360365084212e-11,0.0,0.0,0.0,0.0,0.0,0.0,0.0,0.0,0.0
10.06,293,10,60000000,base_footprint,-7.223245419631934e-06,0.0038531010685830328,4.188527491530295e-05,0.9999925758752432,0.0,0.0,0.0,0.0,0.0,0.0,0.0,0.0,0.0,3.893179867061744e-05,-0.00018039375307795846,9.327406645022968e-06,0.0,0.0,0.0,0.0,0.0,0.0,0.0,0.0,0.0,-6.006383579113643e-11,3.4679390398818587e-10,-1.6511550716418498e-11,0.0,0.0,0.0,0.0,0.0,0.0,0.0,0.0,0.0
10.094,294,10,94000000,base_footprint,-7.223837617670854e-06,0.0038531010677306794,4.2039008857818994e-05,0.9999925758687911,0.0,0.0,0.0,0.0,0.0,0.0,0.0,0.0,0.0,3.8931931450733333e-05,-0.00018039372085792044,9.32758539838694e-06,0.0,0.0,0.0,0.0,0.0,0.0,0.0,0.0,0.0,-6.012097582511746e-11,3.471700263220327e-10,-1.6503387396591064e-11,0.0,0.0,0.0,0.0,0.0,0.0,0.0,0.0,0.0
10.128,295,10,128000000,base_footprint,-7.224429817055587e-06,0.003853101066878271,4.219274316144771e-05,0.9999925758623154,0.0,0.0,0.0,0.0,0.0,0.0,0.0,0.0,0.0,3.893206416780688e-05,-0.00018039368879948988,9.327763952704681e-06,0.0,0.0,0.0,0.0,0.0,0.0,0.0,0.0,0.0,-6.00558615630691e-11,3.467803598548689e-10,-1.6211180640360185e-11,0.0,0.0,0.0,0.0,0.0,0.0,0.0,0.0,0.0
10.162,296,10,162000000,base_footprint,-7.225022017835482e-06,0.0038531010660257893,4.234647782625154e-05,0.999992575855816,0.0,0.0,0.0,0.0,0.0,0.0,0.0,0.0,0.0,3.893219689853681e-05,-0.0001803936565744094,9.327942817015615e-06,0.0,0.0,0.0,0.0,0.0,0.0,0.0,0.0,0.0,-6.015453854321641e-11,3.473830308421017e-10,-1.653974179933055e-11,0.0,0.0,0.0,0.0,0.0,0.0,0.0,0.0,0.0
10.196,297,10,196000000,base_footprint,-7.225614220084778e-06,0.003853101065173162,4.2500212851835403e-05,0.9999925758492931,0.0,0.0,0.0,0.0,0.0,0.0,0.0,0.0,0.0,3.893232962237829e-05,-0.00018039362443057224,9.328121390138177e-06,0.0,0.0,0.0,0.0,0.0,0.0,0.0,0.0,0.0,-6.00655747896836e-11,3.4681710472501e-10,-1.634186623930659e-11,0.0,0.0,0.0,0.0,0.0,0.0,0.0,0.0,0.0
10.23,298,10,230000000,base_footprint,-7.226206423635021e-06,0.0038531010643204472,4.2653948238721084e-05,0.9999925758427464,0.0,0.0,0.0,0.0,0.0,0.0,0.0,0.0,0.0,3.893246233500024e-05,-0.00018039359227283691,9.328300228941183e-06,0.0,0.0,0.0,0.0,0.0,0.0,0.0,0.0,0.0,-6.01453534545464e-11,3.4733241402360245e-10,-1.6472734651563603e-11,0.0,0.0,0.0,0.0,0.0,0.0,0.0,0.0,0.0
10.264,299,10,264000000,base_footprint,-7.226798628550744e-06,0.0038531010634677604,4.280768398596058e-05,0.9999925758361762,0.0,0.0,0.0,0.0,0.0,0.0,0.0,0.0,0.0,3.893259505190406e-05,-0.00018039356011197933,9.328478765214734e-06,0.0,0.0,0.0,0.0,0.0,0.0,0.0,0.0,0.0,-6.005550080271563e-11,3.467453417404016e-10,-1.6307319312032053e-11,0.0,0.0,0.0,0.0,0.0,0.0,0.0,0.0,0.0
10.298,300,10,298000000,base_footprint,-7.227390834968732e-06,0.0038531010626148238,4.296142009393991e-05,0.9999925758295821,0.0,0.0,0.0,0.0,0.0,0.0,0.0,0.0,0.0,3.893272782119794e-05,-0.0001803935279127357,9.328657673327156e-06,0.0,0.0,0.0,0.0,0.0,0.0,0.0,0.0,0.0,-6.016811885533768e-11,3.474692490946745e-10,-1.65253025134435e-11,0.0,0.0,0.0,0.0,0.0,0.0,0.0,0.0,0.0
10.335,301,10,332000000,base_footprint,-7.227983042660218e-06,0.0038531010617618945,4.311515656385826e-05,0.9999925758229646,0.0,0.0,0.0,0.0,0.0,0.0,0.0,0.0,0.0,3.893286053560627e-05,-0.00018039349573777976,9.328836210463552e-06,0.0,0.0,0.0,0.0,0.0,0.0,0.0,0.0,0.0,-6.005754818240766e-11,3.4674650466015337e-10,-1.6381831758088642e-11,0.0,0.0,0.0,0.0,0.0,0.0,0.0,0.0,0.0
10.364,302,10,366000000,base_footprint,-7.228575251869042e-06,0.0038531010609087674,4.3268893394595736e-05,0.9999925758163234,0.0,0.0,0.0,0.0,0.0,0.0,0.0,0.0,0.0,3.893299327082302e-05,-0.00018039346360069697,9.329014951758681e-06,0.0,0.0,0.0,0.0,0.0,0.0,0.0,0.0,0.0,-6.011652117759963e-11,3.4714432806547757e-10,-1.6385682068563718e-11,0.0,0.0,0.0,0.0,0.0,0.0,0.0,0.0,0.0
10.402,303,10,400000000,base_footprint,-7.2291674623451686e-06,0.003853101060055647,4.342263058695863e-05,0.9999925758096584,0.0,0.0,0.0,0.0,0.0,0.0,0.0,0.0,0.0,3.893312608266481e-05,-0.00018039343142643678,9.329193773253873e-06,0.0,0.0,0.0,0.0,0.0,0.0,0.0,0.0,0.0,-6.014236057950691e-11,3.4730270424168753e-10,-1.6410117758380115e-11,0.0,0.0,0.0,0.0,0.0,0.0,0.0,0.0,0.0
10.434,304,10,434000000,base_footprint,-7.229759674246084e-06,0.0038531010592024652,4.357636813974833e-05,0.99999257580297,0.0,0.0,0.0,0.0,0.0,0.0,0.0,0.0,0.0,3.893325878082555e-05,-0.00018039339926801694,9.329372371527371e-06,0.0,0.0,0.0,0.0,0.0,0.0,0.0,0.0,0.0,-6.00763996097524e-11,3.468644694238246e-10,-1.6457651474670675e-11,0.0,0.0,0.0,0.0,0.0,0.0,0.0,0.0,0.0
10.47,305,10,468000000,base_footprint,-7.230351887600186e-06,0.0038531010583490667,4.373010605346121e-05,0.9999925757962577,0.0,0.0,0.0,0.0,0.0,0.0,0.0,0.0,0.0,3.8933391531897576e-05,-0.00018039336706581193,9.329550974965672e-06,0.0,0.0,0.0,0.0,0.0,0.0,0.0,0.0,0.0,-6.0079771122692e-11,3.4687675369991373e-10,-1.644186483787029e-11,0.0,0.0,0.0,0.0,0.0,0.0,0.0,0.0,0.0
10.503,306,10,502000000,base_footprint,-7.2309441023417335e-06,0.003853101057495704,4.388384432871677e-05,0.9999925757895218,0.0,0.0,0.0,0.0,0.0,0.0,0.0,0.0,0.0,3.8933524263441316e-05,-0.00018039333485655765,9.329729753309074e-06,0.0,0.0,0.0,0.0,0.0,0.0,0.0,0.0,0.0,-6.013146266662004e-11,3.472149852803654e-10,-1.643545381430884e-11,0.0,0.0,0.0,0.0,0.0,0.0,0.0,0.0,0.0
10.537,307,10,536000000,base_footprint,-7.231536318486396e-06,0.0038531010566421227,4.403758296516991e-05,0.9999925757827622,0.0,0.0,0.0,0.0,0.0,0.0,0.0,0.0,0.0,3.8933656993530246e-05,-0.0001803933027482077,9.329908414982053e-06,0.0,0.0,0.0,0.0,0.0,0.0,0.0,0.0,0.0,-6.009445399229172e-11,3.4698910350978403e-10,-1.6422885727918204e-11,0.0,0.0,0.0,0.0,0.0,0.0,0.0,0.0,0.0
10.57,308,10,570000000,base_footprint,-7.232128535952546e-06,0.003853101055788622,4.4191321962760256e-05,0.9999925757759791,0.0,0.0,0.0,0.0,0.0,0.0,0.0,0.0,0.0,3.893378975698827e-05,-0.0001803932705402234,9.330087082784584e-06,0.0,0.0,0.0,0.0,0.0,0.0,0.0,0.0,0.0,-6.009892016366514e-11,3.470017086188621e-10,-1.6332560310331933e-11,0.0,0.0,0.0,0.0,0.0,0.0,0.0,0.0,0.0
10.604,309,10,604000000,base_footprint,-7.21271761642019e-06,0.003844859911798905,4.51515739575362e-05,0.9999926074534606,0.0,0.0,0.0,0.0,0.0,0.0,0.0,0.0,0.0,6.901619350378044e-05,0.0015148548568395123,0.0001910695676531902,0.0,0.0,0.0,0.0,0.0,0.0,0.0,0.0,0.0,0.132709685475119,0.00036582026941524005,-0.0029274124193508916,0.0,0.0,0.0,0.0,0.0,0.0,0.0,0.0,0.0
10.638,310,10,638000000,base_footprint,-7.234421034461966e-06,0.003848204148699888,4.593328699044749e-05,0.9999925945538929,0.0,0.0,0.0,0.0,0.0,0.0,0.0,0.0,0.0,1.234710708934672e-05,0.0015477699740538721,3.5615432136030265e-05,0.0,0.0,0.0,0.0,0.0,0.0,0.0,0.0,0.0,0.7847382562203222,-0.00023214233892312648,-0.0063845971147236565,0.0,0.0,0.0,0.0,0.0,0.0,0.0,0.0,0.0
10.672,311,10,672000000,base_footprint,-7.323870991727978e-06,0.0038491381124094357,4.6654881049975765e-05,0.9999925909252901,0.0,0.0,0.0,0.0,0.0,0.0,0.0,0.0,0.0,-2.072975955101358e-05,0.0008560492034930896,4.760661410344264e-05,0.0,0.0,0.0,0.0,0.0,0.0,0.0,0.0,0.0,0.78823484761324,9.528902512808801e-05,-0.005409073971242504,0.0,0.0,0.0,0.0,0.0,0.0,0.0,0.0,0.0
10.706,312,10,706000000,base_footprint,-7.505091100815183e-06,0.003849748937246228,4.751821040739766e-05,0.999992588531942,0.0,0.0,0.0,0.0,0.0,0.0,0.0,0.0,0.0,-3.777877262495599e-05,0.0006487432832906915,6.065561038519937e-05,0.0,0.0,0.0,0.0,0.0,0.0,0.0,0.0,0.0,0.7854002632694329,9.913776389133214e-05,-0.005756490483829916,0.0,0.0,0.0,0.0,0.0,0.0,0.0,0.0,0.0
10.74,313,10,740000000,base_footprint,-4.380720682094949e-06,0.0038514473597282134,-0.0009601657712318676,0.9999921221768382,0.0,0.0,0.0,0.0,0.0,0.0,0.0,0.0,0.0,-0.0010996534060581642,-0.00014804253643430253,-0.14381860021238635,0.0,0.0,0.0,0.0,0.0,0.0,0.0,0.0,0.0,0.538693878076771,-0.005765567507030962,-0.002933834375572447,0.0,0.0,0.0,0.0,0.0,0.0,0.0,0.0,0.0
10.774000000000001,314,10,774000000,base_footprint,1.0410355741913683e-05,0.0038523987200432728,-0.004938362516357363,0.9999803855533285,0.0,0.0,0.0,0.0,0.0,0.0,0.0,0.0,0.0,-0.0024172634349352564,-0.00011980004862053697,-0.31735633747961073,0.0,0.0,0.0,0.0,0.0,0.0,0.0,0.0,0.0,0.4539440732653583,-0.03134803384358448,-0.003530333579916125,0.0,0.0,0.0,0.0,0.0,0.0,0.0,0.0,0.0
10.809,315,10,808000000,base_footprint,3.076847106577947e-05,0.003853837349352926,-0.010392663455864785,0.999938567881687,0.0,0.0,0.0,0.0,0.0,0.0,0.0,0.0,0.0,-0.002478985633577732,0.00026006972675173803,-0.3367871622117254,0.0,0.0,0.0,0.0,0.0,0.0,0.0,0.0,0.0,0.16405004650376934,-0.04478117609880295,-0.0019347170850293365,0.0,0.0,0.0,0.0,0.0,0.0,0.0,0.0,0.0
10.842,316,10,842000000,base_footprint,5.761628049500289e-05,0.003855120443256594,-0.017130948764090485,0.9998458207749705,0.0,0.0,0.0,0.0,0.0,0.0,0.0,0.0,0.0,-0.003255063945305529,-3.544113067013692e-05,-0.4166954359260301,0.0,0.0,0.0,0.0,0.0,0.0,0.0,0.0,0.0,0.20721180630111105,-0.06251761797684689,-0.0012877006873928845,0.0,0.0,0.0,0.0,0.0,0.0,0.0,0.0,0.0
10.877,317,10,876000000,base_footprint,8.46305849797145e-05,0.0038552647083616,-0.024210599090725243,0.9996994431644747,0.0,0.0,0.0,0.0,0.0,0.0,0.0,0.0,0.0,-0.003249387143468486,4.256249113030538e-05,-0.4164346322056361,0.0,0.0,0.0,0.0,0.0,0.0,0.0,0.0,0.0,-0.00519804909806061,-0.05446960249507572,-9.099091380611627e-06,0.0,0.0,0.0,0.0,0.0,0.0,0.0,0.0,0.0
10.909,318,10,910000000,base_footprint,0.00010966143951144177,0.0038542426037406524,-0.03160873603184776,0.9994928817129161,0.0,0.0,0.0,0.0,0.0,0.0,0.0,0.0,0.0,-0.004021201583735516,-4.16160754988993e-06,-0.515249690551685,0.0,0.0,0.0,0.0,0.0,0.0,0.0,0.0,0.0,-0.04262284167802083,-0.05096751983340109,0.0009121899100083267,0.0,0.0,0.0,0.0,0.0,0.0,0.0,0.0,0.0
10.944,319,10,944000000,base_footprint,0.00015126919058145645,0.003854892109277865,-0.041712960218324865,0.9991221876598889,0.0,0.0,0.0,0.0,0.0,0.0,0.0,0.0,0.0,-0.0049507992304205556,0.0007911976578489914,-0.637733354976061,0.0,0.0,0.0,0.0,0.0,0.0,0.0,0.0,0.0,-0.2602745000429848,-0.033426794250945385,0.000574767752383754,0.0,0.0,0.0,0.0,0.0,0.0,0.0,0.0,0.0
10.978,320,10,978000000,base_footprint,0.0001925632804294564,0.003854130042744051,-0.052538305588859635,0.9986114534927226,0.0,0.0,0.0,0.0,0.0,0.0,0.0,0.0,0.0,-0.004946813815356287,0.0005040525505917666,-0.6348395158917643,0.0,0.0,0.0,0.0,0.0,0.0,0.0,0.0,0.0,-0.022758516604849635,-0.07396727188916927,0.0006963290133763285,0.0,0.0,0.0,0.0,0.0,0.0,0.0,0.0,0.0
11.012,321,11,12000000,base_footprint,0.0002386032235401611,0.0038422871578141318,-0.06337991146339969,0.997982047293833,0.0,0.0,0.0,0.0,0.0,0.0,0.0,0.0,0.0,-0.004132010127257749,7.212225126728127e-05,-0.6765883579065071,0.0,0.0,0.0,0.0,0.0,0.0,0.0,0.0,0.0,-0.12979963158510432,-0.0461652687788346,0.0006170181842943363,0.0,0.0,0.0,0.0,0.0,0.0,0.0,0.0,0.0
