Time,yaw_world,delta_position_x_world,delta_position_y_world,delta_yaw,Theta_calculated,linear_velocity_x,world_velocity_x,world_velocity_y,angular_velocity_yaw,linear_acceleration_x,angular_acceleration_yaw,kinematic_delta_x,kinematic_delta_y,kinematic_delta_yaw,header.seq_x,header.stamp.secs_x,header.stamp.nsecs_x,header.frame_id_x,child_frame_id,pose.pose.position.x,pose.pose.position.y,pose.pose.position.z,pose.pose.orientation.x,pose.pose.orientation.y,pose.pose.orientation.z,pose.pose.orientation.w,pose.covariance,twist.twist.linear.x,twist.twist.linear.y,twist.twist.linear.z,twist.twist.angular.x,twist.twist.angular.y,twist.twist.angular.z,twist.covariance,linear.x,linear.y,linear.z,angular.x,angular.y,angular.z,header.seq_y,header.stamp.secs_y,header.stamp.nsecs_y,header.frame_id_y,orientation.x,orientation.y,orientation.z,orientation.w,orientation_covariance_0,orientation_covariance_1,orientation_covariance_2,orientation_covariance_3,orientation_covariance_4,orientation_covariance_5,orientation_covariance_6,orientation_covariance_7,orientation_covariance_8,angular_velocity.x,angular_velocity.y,angular_velocity.z,angular_velocity_covariance_0,angular_velocity_covariance_1,angular_velocity_covariance_2,angular_velocity_covariance_3,angular_velocity_covariance_4,angular_velocity_covariance_5,angular_velocity_covariance_6,angular_velocity_covariance_7,angular_velocity_covariance_8,linear_acceleration.x,linear_acceleration.y,linear_acceleration.z,linear_acceleration_covariance_0,linear_acceleration_covariance_1,linear_acceleration_covariance_2,linear_acceleration_covariance_3,linear_acceleration_covariance_4,linear_acceleration_covariance_5,linear_acceleration_covariance_6,linear_acceleration_covariance_7,linear_acceleration_covariance_8
0.35800000000000004,2.3559736001926117,8.963973081987253e-07,-9.20873882296995e-07,-8.064868430857077e-06,2.356154337313611,-6.6722576985867805e-06,4.717809219463362e-06,-4.718188101919746e-06,-0.00012880367919382136,0.000826361290128809,0.009557850146619988,1.5710562873800954e-07,-1.5711308222399386e-07,-4.289162517154252e-06,5.0,0.0,355000000.0,odom,base_footprint,9.075564692569496e-06,-7.518753148641737e-06,-0.000904776766739,-0.0028990954777582,0.001135915338537,0.923832948245118,0.3827832136843099,"(1e-05, 0.0, 0.0, 0.0, 0.0, 0.0, 0.0, 1e-05, 0.0, 0.0, 0.0, 0.0, 0.0, 0.0, 1000000000000.0, 0.0, 0.0, 0.0, 0.0, 0.0, 0.0, 1000000000000.0, 0.0, 0.0, 0.0, 0.0, 0.0, 0.0, 1000000000000.0, 0.0, 0.0, 0.0, 0.0, 0.0, 0.0, 0.001)",-3.837056066661818e-05,2.0777119483039986e-06,0.0,0.0,0.0,-0.0002612384643409,"(0.0, 0.0, 0.0, 0.0, 0.0, 0.0, 0.0, 0.0, 0.0, 0.0, 0.0, 0.0, 0.0, 0.0, 0.0, 0.0, 0.0, 0.0, 0.0, 0.0, 0.0, 0.0, 0.0, 0.0, 0.0, 0.0, 0.0, 0.0, 0.0, 0.0, 0.0, 0.0, 0.0, 0.0, 0.0, 0.0)",,,,,,,4,0,358000000,base_footprint,-0.0029619622263165,0.0011612756881255,0.9238326601865884,0.3827833515072432,0.0,0.0,0.0,0.0,0.0,0.0,0.0,0.0,0.0,0.0676451143824328,0.0005908817550685,4.5479045178095575e-05,0.0,0.0,0.0,0.0,0.0,0.0,0.0,0.0,0.0,2.462960466001143e-06,0.0002688189086389,0.0001501377274538,0.0,0.0,0.0,0.0,0.0,0.0,0.0,0.0,0.0
0.392,2.3559605259274297,-9.228414135465953e-06,-4.86063884164948e-06,-1.30742651820448e-05,2.3561500481510937,0.0001832161399587341,-0.0001295476172432708,0.0001295591324761379,0.0004617349301135684,0.005702354284003629,0.017733892171393085,-4.314048966756934e-06,4.314205805967916e-06,1.5375773172781828e-05,6.0,0.0,389000000.0,odom,base_footprint,7.656091225152414e-07,-1.2194608236199347e-05,-0.001002859232827,-0.0036368002625922,0.0014984634054048,0.923827867263935,0.3827879307891537,"(1e-05, 0.0, 0.0, 0.0, 0.0, 0.0, 0.0, 1e-05, 0.0, 0.0, 0.0, 0.0, 0.0, 0.0, 1000000000000.0, 0.0, 0.0, 0.0, 0.0, 0.0, 0.0, 1000000000000.0, 0.0, 0.0, 0.0, 0.0, 0.0, 0.0, 1000000000000.0, 0.0, 0.0, 0.0, 0.0, 0.0, 0.0, 0.001)",0.0002234878327228,0.0005332758871159,0.0,0.0,0.0,-0.0006731666895277,"(0.0, 0.0, 0.0, 0.0, 0.0, 0.0, 0.0, 0.0, 0.0, 0.0, 0.0, 0.0, 0.0, 0.0, 0.0, 0.0, 0.0, 0.0, 0.0, 0.0, 0.0, 0.0, 0.0, 0.0, 0.0, 0.0, 0.0, 0.0, 0.0, 0.0, 0.0, 0.0, 0.0, 0.0, 0.0, 0.0)",,,,,,,5,0,392000000,base_footprint,-0.0036203047904104,0.0014916115379131,0.923827688866968,0.3827885444615095,0.0,0.0,0.0,0.0,0.0,0.0,0.0,0.0,0.0,-0.020304241577651,5.82267418339881e-05,-0.0007408650511139,0.0,0.0,0.0,0.0,0.0,0.0,0.0,0.0,0.0,0.00946667469424,-0.0067856616082094,0.1305386662900218,0.0,0.0,0.0,0.0,0.0,0.0,0.0,0.0,0.0
0.42600000000000005,2.3559508021604425,-6.798382779647956e-07,6.417378132085437e-07,-9.72376698715749e-06,2.3561654239242666,3.775119240244595e-05,-2.6693348235802946e-05,2.669490003293979e-05,-0.0004245794079461149,-0.004368316743432076,-0.026616046187978477,-8.888987256775804e-07,8.889299421389714e-07,-1.4138494284605627e-05,7.0,0.0,422000000.0,odom,base_footprint,-7.708940161412631e-07,-1.1796102623491416e-05,-0.0010024789702984,-0.003570018958594,0.0014714788975724,0.9238260108449492,0.3827931444015126,"(1e-05, 0.0, 0.0, 0.0, 0.0, 0.0, 0.0, 1e-05, 0.0, 0.0, 0.0, 0.0, 0.0, 0.0, 1000000000000.0, 0.0, 0.0, 0.0, 0.0, 0.0, 0.0, 1000000000000.0, 0.0, 0.0, 0.0, 0.0, 0.0, 0.0, 1000000000000.0, 0.0, 0.0, 0.0, 0.0, 0.0, 0.0, 0.001)",8.021378912097824e-07,2.078260861881636e-06,0.0,0.0,0.0,3.167435914721859e-05,"(0.0, 0.0, 0.0, 0.0, 0.0, 0.0, 0.0, 0.0, 0.0, 0.0, 0.0, 0.0, 0.0, 0.0, 0.0, 0.0, 0.0, 0.0, 0.0, 0.0, 0.0, 0.0, 0.0, 0.0, 0.0, 0.0, 0.0, 0.0, 0.0, 0.0, 0.0, 0.0, 0.0, 0.0, 0.0, 0.0)",,,,,,,6,0,426000000,base_footprint,-0.0035691784157754,0.0014711756023396,0.9238260243810203,0.3827931207377448,0.0,0.0,0.0,0.0,0.0,0.0,0.0,0.0,0.0,-0.0004678028675631,-6.170512162124349e-05,3.609100956618938e-05,0.0,0.0,0.0,0.0,0.0,0.0,0.0,0.0,0.0,-0.0101880158163416,0.0063741694903797,0.0018146812946156,0.0,0.0,0.0,0.0,0.0,0.0,0.0,0.0,0.0
0.46,2.3559565979533055,-2.2622874053029526e-07,-3.112337202608277e-07,5.795792862972603e-06,2.356151285429982,-7.840459100585564e-06,5.543802263457113e-06,-5.544281321473757e-06,2.002574005765755e-05,-0.0013691186637547,0.01335150594605923,1.8461210656050079e-07,-1.8462107691720717e-07,6.668571439199965e-07,8.0,0.0,455000000.0,odom,base_footprint,-9.61379219573122e-07,-1.205647422101606e-05,-0.0010024035458896,-0.0035694247456647,0.0014712177679681,0.9238269443852994,0.3827908979495012,"(1e-05, 0.0, 0.0, 0.0, 0.0, 0.0, 0.0, 1e-05, 0.0, 0.0, 0.0, 0.0, 0.0, 0.0, 1000000000000.0, 0.0, 0.0, 0.0, 0.0, 0.0, 0.0, 1000000000000.0, 0.0, 0.0, 0.0, 0.0, 0.0, 0.0, 1000000000000.0, 0.0, 0.0, 0.0, 0.0, 0.0, 0.0, 0.001)",-2.285448022158091e-06,1.683743950900556e-05,0.0,0.0,0.0,0.0002559903932433,"(0.0, 0.0, 0.0, 0.0, 0.0, 0.0, 0.0, 0.0, 0.0, 0.0, 0.0, 0.0, 0.0, 0.0, 0.0, 0.0, 0.0, 0.0, 0.0, 0.0, 0.0, 0.0, 0.0, 0.0, 0.0, 0.0, 0.0, 0.0, 0.0, 0.0, 0.0, 0.0, 0.0, 0.0, 0.0, 0.0)",,,,,,,6,0,426000000,base_footprint,-0.0035691784157754,0.0014711756023396,0.9238260243810203,0.3827931207377448,0.0,0.0,0.0,0.0,0.0,0.0,0.0,0.0,0.0,-0.0004678028675631,-6.170512162124349e-05,3.609100956618938e-05,0.0,0.0,0.0,0.0,0.0,0.0,0.0,0.0,0.0,-0.0101880158163416,0.0063741694903797,0.0018146812946156,0.0,0.0,0.0,0.0,0.0,0.0,0.0,0.0,0.0
0.49400000000000005,2.3559662345713885,-3.803783456992997e-07,-5.152889775731865e-07,9.636618083064262e-06,2.3561519522871257,-7.464793750382887e-06,5.278181743933108e-06,-5.278630808625157e-06,0.0001534793380869932,1.1281241747828128e-05,0.004007615556436505,1.75767166609466e-07,-1.757746916165586e-07,5.110861958296874e-06,9.0,0.0,489000000.0,odom,base_footprint,-1.3328772434581526e-06,-1.2560031866674232e-05,-0.001002390066802,-0.0035693546575523,0.0014711352725593,0.9238287468644985,0.3827865487907183,"(1e-05, 0.0, 0.0, 0.0, 0.0, 0.0, 0.0, 1e-05, 0.0, 0.0, 0.0, 0.0, 0.0, 0.0, 1000000000000.0, 0.0, 0.0, 0.0, 0.0, 0.0, 0.0, 1000000000000.0, 0.0, 0.0, 0.0, 0.0, 0.0, 0.0, 1000000000000.0, 0.0, 0.0, 0.0, 0.0, 0.0, 0.0, 0.001)",-2.811015294146252e-06,2.0908389061103352e-05,0.0,0.0,0.0,0.0003178082220439,"(0.0, 0.0, 0.0, 0.0, 0.0, 0.0, 0.0, 0.0, 0.0, 0.0, 0.0, 0.0, 0.0, 0.0, 0.0, 0.0, 0.0, 0.0, 0.0, 0.0, 0.0, 0.0, 0.0, 0.0, 0.0, 0.0, 0.0, 0.0, 0.0, 0.0, 0.0, 0.0, 0.0, 0.0, 0.0, 0.0)",,,,,,,8,0,494000000,base_footprint,-0.0035693507167916,0.0014711287696436,0.9238289776771632,0.3827859918016478,0.0,0.0,0.0,0.0,0.0,0.0,0.0,0.0,0.0,-0.0001808084066952,-3.068440848613029e-05,0.0003199951919455,0.0,0.0,0.0,0.0,0.0,0.0,0.0,0.0,0.0,0.0001000358281681,1.301631423550544e-05,-4.1692692464904216e-06,0.0,0.0,0.0,0.0,0.0,0.0,0.0,0.0,0.0
0.528,2.355976790323708,-4.1717215471057785e-07,-5.641903933523325e-07,1.0555752319341138e-05,2.3561570631490842,-5.648331423216217e-06,3.993823966330779e-06,-3.99412293156503e-06,0.00019293388962511273,5.454841823323334e-05,0.0011848213675110968,1.329972360867553e-07,-1.3300139575693786e-07,6.4246985245162545e-06,9.0,0.0,489000000.0,odom,base_footprint,-1.3328772434581526e-06,-1.2560031866674232e-05,-0.001002390066802,-0.0035693546575523,0.0014711352725593,0.9238287468644985,0.3827865487907183,"(1e-05, 0.0, 0.0, 0.0, 0.0, 0.0, 0.0, 1e-05, 0.0, 0.0, 0.0, 0.0, 0.0, 0.0, 1000000000000.0, 0.0, 0.0, 0.0, 0.0, 0.0, 0.0, 1000000000000.0, 0.0, 0.0, 0.0, 0.0, 0.0, 0.0, 1000000000000.0, 0.0, 0.0, 0.0, 0.0, 0.0, 0.0, 0.001)",-2.811015294146252e-06,2.0908389061103352e-05,0.0,0.0,0.0,0.0003178082220439,"(0.0, 0.0, 0.0, 0.0, 0.0, 0.0, 0.0, 0.0, 0.0, 0.0, 0.0, 0.0, 0.0, 0.0, 0.0, 0.0, 0.0, 0.0, 0.0, 0.0, 0.0, 0.0, 0.0, 0.0, 0.0, 0.0, 0.0, 0.0, 0.0, 0.0, 0.0, 0.0, 0.0, 0.0, 0.0, 0.0)",,,,,,,9,0,528000000,base_footprint,-0.0035693419314069,0.0014710885950599,0.923830998064629,0.3827811159284558,0.0,0.0,0.0,0.0,0.0,0.0,0.0,0.0,0.0,-0.000178568301814,-3.0895473899589155e-05,0.0003326644624826,0.0,0.0,0.0,0.0,0.0,0.0,0.0,0.0,0.0,2.453771460714141e-05,3.171948472673569e-06,-3.528256218369572e-06,0.0,0.0,0.0,0.0,0.0,0.0,0.0,0.0,0.0
0.562,2.3559875724549966,-4.262349849225649e-07,-5.762336687609518e-07,1.0782131288689102e-05,2.3561634878476085,-4.170353700828818e-06,2.948793958024138e-06,-2.948976802746498e-06,0.0002128588386164413,4.438371538700899e-05,0.0005983468165564136,9.819701106360633e-08,-9.819875535141093e-08,7.088199325927496e-06,10.0,0.0,522000000.0,odom,base_footprint,-1.7354682856872417e-06,-1.3104557829015512e-05,-0.0010023866042347,-0.0035693417689449,0.0014710935210671,0.9238306968033748,0.3827818429954325,"(1e-05, 0.0, 0.0, 0.0, 0.0, 0.0, 0.0, 1e-05, 0.0, 0.0, 0.0, 0.0, 0.0, 0.0, 1000000000000.0, 0.0, 0.0, 0.0, 0.0, 0.0, 0.0, 1000000000000.0, 0.0, 0.0, 0.0, 0.0, 0.0, 0.0, 1000000000000.0, 0.0, 0.0, 0.0, 0.0, 0.0, 0.0, 0.001)",-2.9379423421911405e-06,2.187714661698159e-05,0.0,0.0,0.0,0.0003325143534065,"(0.0, 0.0, 0.0, 0.0, 0.0, 0.0, 0.0, 0.0, 0.0, 0.0, 0.0, 0.0, 0.0, 0.0, 0.0, 0.0, 0.0, 0.0, 0.0, 0.0, 0.0, 0.0, 0.0, 0.0, 0.0, 0.0, 0.0, 0.0, 0.0, 0.0, 0.0, 0.0, 0.0, 0.0, 0.0, 0.0)",,,,,,,10,0,562000000,base_footprint,-0.0035693481261895,0.001471058918155,0.9238330616824798,0.3827761354656123,0.0,0.0,0.0,0.0,0.0,0.0,0.0,0.0,0.0,-0.0001780715133326,-3.098392893353122e-05,0.0003357954732371,0.0,0.0,0.0,0.0,0.0,0.0,0.0,0.0,0.0,6.062919848673099e-06,7.665723534120154e-07,-7.51894758756299e-07,0.0,0.0,0.0,0.0,0.0,0.0,0.0,0.0,0.0
0.5960000000000001,2.3559984105695797,-4.2846812237659973e-07,-5.792205473582716e-07,1.0838114583133773e-05,2.3561705760469347,-2.9457940693153175e-06,2.0829411488476006e-06,-2.0830407747451168e-06,0.0002309551139995495,3.677356250791291e-05,0.000543431693186432,6.936349555730785e-08,-6.936370253591007e-08,7.690805296184999e-06,12.0,0.0,589000000.0,odom,base_footprint,-2.576715330452218e-06,-1.4241835909294814e-05,-0.0010023857935713,-0.0035693560076702,0.0014710369196301,0.923834769621477,0.3827720133271294,"(1e-05, 0.0, 0.0, 0.0, 0.0, 0.0, 0.0, 1e-05, 0.0, 0.0, 0.0, 0.0, 0.0, 0.0, 1000000000000.0, 0.0, 0.0, 0.0, 0.0, 0.0, 0.0, 1000000000000.0, 0.0, 0.0, 0.0, 0.0, 0.0, 0.0, 1000000000000.0, 0.0, 0.0, 0.0, 0.0, 0.0, 0.0, 0.001)",-2.9780303116068077e-06,2.21922481639631e-05,0.0,0.0,0.0,0.0003372975909959,"(0.0, 0.0, 0.0, 0.0, 0.0, 0.0, 0.0, 0.0, 0.0, 0.0, 0.0, 0.0, 0.0, 0.0, 0.0, 0.0, 0.0, 0.0, 0.0, 0.0, 0.0, 0.0, 0.0, 0.0, 0.0, 0.0, 0.0, 0.0, 0.0, 0.0, 0.0, 0.0, 0.0, 0.0, 0.0, 0.0)",,,,,,,11,0,596000000,base_footprint,-0.0035693577999771,0.0014710323433189,0.9238351359697724,0.3827711291313038,0.0,0.0,0.0,0.0,0.0,0.0,0.0,0.0,0.0,-0.0001779492264171,-3.104164092997973e-05,0.000336576249215,0.0,0.0,0.0,0.0,0.0,0.0,0.0,0.0,0.0,1.5129194206945089e-06,2.085776150133901e-07,-1.883150133921005e-07,0.0,0.0,0.0,0.0,0.0,0.0,0.0,0.0,0.0
0.63,2.356009262761198,-4.2902139942187223e-07,-5.799802931241385e-07,1.0852191618226927e-05,2.356178266852231,-1.6964687795991133e-06,1.1995651166993305e-06,-1.1996040392365418e-06,0.00023070105655703847,3.751727596745358e-05,-7.629352627958617e-06,3.99464139020424e-08,-3.99459190020638e-08,7.682345183349381e-06,12.0,0.0,589000000.0,odom,base_footprint,-2.576715330452218e-06,-1.4241835909294814e-05,-0.0010023857935713,-0.0035693560076702,0.0014710369196301,0.923834769621477,0.3827720133271294,"(1e-05, 0.0, 0.0, 0.0, 0.0, 0.0, 0.0, 1e-05, 0.0, 0.0, 0.0, 0.0, 0.0, 0.0, 1000000000000.0, 0.0, 0.0, 0.0, 0.0, 0.0, 0.0, 1000000000000.0, 0.0, 0.0, 0.0, 0.0, 0.0, 0.0, 1000000000000.0, 0.0, 0.0, 0.0, 0.0, 0.0, 0.0, 0.001)",-2.9780303116068077e-06,2.21922481639631e-05,0.0,0.0,0.0,0.0003372975909959,"(0.0, 0.0, 0.0, 0.0, 0.0, 0.0, 0.0, 0.0, 0.0, 0.0, 0.0, 0.0, 0.0, 0.0, 0.0, 0.0, 0.0, 0.0, 0.0, 0.0, 0.0, 0.0, 0.0, 0.0, 0.0, 0.0, 0.0, 0.0, 0.0, 0.0, 0.0, 0.0, 0.0, 0.0, 0.0, 0.0)",,,,,,,12,0,630000000,base_footprint,-0.0035693681490239,0.0014710069774273,0.9238372129188648,0.3827661162848576,0.0,0.0,0.0,0.0,0.0,0.0,0.0,0.0,0.0,-0.0001779201342812,-3.10890197035685e-05,0.0003367789248066,0.0,0.0,0.0,0.0,0.0,0.0,0.0,0.0,0.0,3.936870606182806e-07,7.123790540203612e-08,-4.93034780589236e-08,0.0,0.0,0.0,0.0,0.0,0.0,0.0,0.0,0.0
0.664,2.3560201187209673,-4.291614196633674e-07,-5.801921160210316e-07,1.0855959769351387e-05,2.356185949197414,-6.385054538153288e-07,4.51487680014023e-07,-4.514953923878673e-07,0.00023370990867100202,3.177067044395749e-05,9.035591933824462e-05,1.5034877542678107e-08,-1.5034458766223147e-08,7.782539958744367e-06,14.0,0.0,655000000.0,odom,base_footprint,-3.409587866817082e-06,-1.5367782844323292e-05,-0.0010023860264015,-0.0035693760760613,0.0014709880644133,0.9238388016762114,0.3827622816657933,"(1e-05, 0.0, 0.0, 0.0, 0.0, 0.0, 0.0, 1e-05, 0.0, 0.0, 0.0, 0.0, 0.0, 0.0, 1000000000000.0, 0.0, 0.0, 0.0, 0.0, 0.0, 0.0, 1000000000000.0, 0.0, 0.0, 0.0, 0.0, 0.0, 0.0, 1000000000000.0, 0.0, 0.0, 0.0, 0.0, 0.0, 0.0, 0.001)",-2.9817494903118758e-06,2.221388058342913e-05,0.0,0.0,0.0,0.000337623511543,"(0.0, 0.0, 0.0, 0.0, 0.0, 0.0, 0.0, 0.0, 0.0, 0.0, 0.0, 0.0, 0.0, 0.0, 0.0, 0.0, 0.0, 0.0, 0.0, 0.0, 0.0, 0.0, 0.0, 0.0, 0.0, 0.0, 0.0, 0.0, 0.0, 0.0, 0.0, 0.0, 0.0, 0.0, 0.0, 0.0)",,,,,,,13,0,664000000,base_footprint,-0.0035693785006761,0.0014709823133903,0.9238392905599782,0.382761101688493,0.0,0.0,0.0,0.0,0.0,0.0,0.0,0.0,0.0,-0.0001779139577937,-3.113133456611176e-05,0.0003368393948024,0.0,0.0,0.0,0.0,0.0,0.0,0.0,0.0,0.0,1.1832117506030437e-07,3.7396407508622096e-08,-1.5778039082257623e-08,0.0,0.0,0.0,0.0,0.0,0.0,0.0,0.0,0.0
0.6980000000000001,2.3560309759127644,-4.291997588350485e-07,-5.802690969530788e-07,1.085719179716449e-05,2.3561937317373727,4.1979207986487136e-07,-2.9683760122264455e-07,2.968380514988953e-07,0.0002407684978181307,3.1780706717123127e-05,0.00021196964405791825,-9.884915369673115e-09,9.884483861167455e-09,8.017590977343752e-06,15.0,0.0,689000000.0,odom,base_footprint,-3.838782180702084e-06,-1.5948038572060914e-05,-0.0010023861644799,-0.0035693863190471,0.0014709638212215,0.9238408794930274,0.3827572665858767,"(1e-05, 0.0, 0.0, 0.0, 0.0, 0.0, 0.0, 1e-05, 0.0, 0.0, 0.0, 0.0, 0.0, 0.0, 1000000000000.0, 0.0, 0.0, 0.0, 0.0, 0.0, 0.0, 1000000000000.0, 0.0, 0.0, 0.0, 0.0, 0.0, 0.0, 1000000000000.0, 0.0, 0.0, 0.0, 0.0, 0.0, 0.0, 0.001)",-2.9825354799872536e-06,2.2215923213863617e-05,0.0,0.0,0.0,0.0003376532535328,"(0.0, 0.0, 0.0, 0.0, 0.0, 0.0, 0.0, 0.0, 0.0, 0.0, 0.0, 0.0, 0.0, 0.0, 0.0, 0.0, 0.0, 0.0, 0.0, 0.0, 0.0, 0.0, 0.0, 0.0, 0.0, 0.0, 0.0, 0.0, 0.0, 0.0, 0.0, 0.0, 0.0, 0.0, 0.0, 0.0)",,,,,,,14,0,698000000,base_footprint,-0.0035693887046756,0.0014709581888703,0.923841368408585,0.3827560865136369,0.0,0.0,0.0,0.0,0.0,0.0,0.0,0.0,0.0,-0.0001779134292436,-3.117011602369289e-05,0.0003368648845091,0.0,0.0,0.0,0.0,0.0,0.0,0.0,0.0,0.0,5.0541132997640314e-08,2.9023236330137527e-08,-8.1172750356905e-09,0.0,0.0,0.0,0.0,0.0,0.0,0.0,0.0,0.0
0.7320000000000001,2.3560418337124864,-4.2921306166047045e-07,-5.803128546983359e-07,1.0857799721986083e-05,2.35620174932835,1.484419100108122e-06,-1.0496504312815577e-06,1.0496351922817025e-06,0.00023064667018918926,3.1970781388686205e-05,-0.0003039587876558989,-3.495414289096554e-08,3.4952068343120675e-08,7.680534117300003e-06,15.0,0.0,689000000.0,odom,base_footprint,-3.838782180702084e-06,-1.5948038572060914e-05,-0.0010023861644799,-0.0035693863190471,0.0014709638212215,0.9238408794930274,0.3827572665858767,"(1e-05, 0.0, 0.0, 0.0, 0.0, 0.0, 0.0, 1e-05, 0.0, 0.0, 0.0, 0.0, 0.0, 0.0, 1000000000000.0, 0.0, 0.0, 0.0, 0.0, 0.0, 0.0, 1000000000000.0, 0.0, 0.0, 0.0, 0.0, 0.0, 0.0, 1000000000000.0, 0.0, 0.0, 0.0, 0.0, 0.0, 0.0, 0.001)",-2.9825354799872536e-06,2.2215923213863617e-05,0.0,0.0,0.0,0.0003376532535328,"(0.0, 0.0, 0.0, 0.0, 0.0, 0.0, 0.0, 0.0, 0.0, 0.0, 0.0, 0.0, 0.0, 0.0, 0.0, 0.0, 0.0, 0.0, 0.0, 0.0, 0.0, 0.0, 0.0, 0.0, 0.0, 0.0, 0.0, 0.0, 0.0, 0.0, 0.0, 0.0, 0.0, 0.0, 0.0, 0.0)",,,,,,,14,0,698000000,base_footprint,-0.0035693887046756,0.0014709581888703,0.923841368408585,0.3827560865136369,0.0,0.0,0.0,0.0,0.0,0.0,0.0,0.0,0.0,-0.0001779134292436,-3.117011602369289e-05,0.0003368648845091,0.0,0.0,0.0,0.0,0.0,0.0,0.0,0.0,0.0,5.0541132997640314e-08,2.9023236330137527e-08,-8.1172750356905e-09,0.0,0.0,0.0,0.0,0.0,0.0,0.0,0.0,0.0
0.766,2.356052691966382,-4.2922018345060554e-07,-5.803483911718393e-07,1.085825389557371e-05,2.3562094298624676,2.6330392331981896e-06,-1.8618677119907719e-06,1.8618120814430114e-06,0.0002245512608501125,3.449309708979182e-05,-0.00018304532549780046,-6.200157832111512e-08,6.199695873060392e-08,7.4775569863087476e-06,16.0,0.0,722000000.0,odom,base_footprint,-4.255369015309079e-06,-1.6511273998863832e-05,-0.0010023862922486,-0.0035693960984433,0.0014709407501989,0.9238428962970708,0.3827523986943019,"(1e-05, 0.0, 0.0, 0.0, 0.0, 0.0, 0.0, 1e-05, 0.0, 0.0, 0.0, 0.0, 0.0, 0.0, 1000000000000.0, 0.0, 0.0, 0.0, 0.0, 0.0, 0.0, 1000000000000.0, 0.0, 0.0, 0.0, 0.0, 0.0, 0.0, 1000000000000.0, 0.0, 0.0, 0.0, 0.0, 0.0, 0.0, 0.001)",-2.983197199752057e-06,2.221714448394847e-05,0.0,0.0,0.0,0.0003376705917555,"(0.0, 0.0, 0.0, 0.0, 0.0, 0.0, 0.0, 0.0, 0.0, 0.0, 0.0, 0.0, 0.0, 0.0, 0.0, 0.0, 0.0, 0.0, 0.0, 0.0, 0.0, 0.0, 0.0, 0.0, 0.0, 0.0, 0.0, 0.0, 0.0, 0.0, 0.0, 0.0, 0.0, 0.0, 0.0, 0.0)",,,,,,,16,0,766000000,base_footprint,-0.0035694086069883,0.0014709112870894,0.9238455243414248,0.3827460553637362,0.0,0.0,0.0,0.0,0.0,0.0,0.0,0.0,0.0,-0.0001779155237074,-3.1239183022164146e-05,0.0003368965384519,0.0,0.0,0.0,0.0,0.0,0.0,0.0,0.0,0.0,2.9680321414044384e-08,2.6364971121156716e-08,-6.914682313175571e-09,0.0,0.0,0.0,0.0,0.0,0.0,0.0,0.0,0.0
0.8,2.35606355063642,-4.292257642832774e-07,-5.803818611880944e-07,1.0858670037805496e-05,2.3562169074194537,4.062741104013507e-06,-2.8728561841573084e-06,2.8727273841055647e-06,0.000221497296319651,4.293399011457409e-05,-9.171064656040564e-05,-9.566824078563607e-08,9.56596918881943e-08,7.375859967444379e-06,18.0,0.0,789000000.0,odom,base_footprint,-5.101187579494449e-06,-1.7654916118290797e-05,-0.0010023865290129,-0.0035694154817143,0.0014708951090846,0.9238469911934032,0.3827425147584118,"(1e-05, 0.0, 0.0, 0.0, 0.0, 0.0, 0.0, 1e-05, 0.0, 0.0, 0.0, 0.0, 0.0, 0.0, 1000000000000.0, 0.0, 0.0, 0.0, 0.0, 0.0, 0.0, 1000000000000.0, 0.0, 0.0, 0.0, 0.0, 0.0, 0.0, 1000000000000.0, 0.0, 0.0, 0.0, 0.0, 0.0, 0.0, 0.001)",-2.9844931816328163e-06,2.221918493867813e-05,0.0,0.0,0.0,0.0003376992659869,"(0.0, 0.0, 0.0, 0.0, 0.0, 0.0, 0.0, 0.0, 0.0, 0.0, 0.0, 0.0, 0.0, 0.0, 0.0, 0.0, 0.0, 0.0, 0.0, 0.0, 0.0, 0.0, 0.0, 0.0, 0.0, 0.0, 0.0, 0.0, 0.0, 0.0, 0.0, 0.0, 0.0, 0.0, 0.0, 0.0)",,,,,,,17,0,800000000,base_footprint,-0.0035694183251204,0.0014708884205044,0.9238476023891372,0.3827410394769777,0.0,0.0,0.0,0.0,0.0,0.0,0.0,0.0,0.0,-0.0001779168426056,-3.1270064028943914e-05,0.0003369107867083,0.0,0.0,0.0,0.0,0.0,0.0,0.0,0.0,0.0,2.8626904558444952e-08,2.6193651345947156e-08,-7.389466050602763e-09,0.0,0.0,0.0,0.0,0.0,0.0,0.0,0.0,0.0
0.8340000000000001,2.3560744097130546,-4.2923094734602374e-07,-5.804147829276476e-07,1.0859076634783806e-05,2.3562242832794213,5.441820760725227e-06,-3.848063002463367e-06,3.847833717942177e-06,0.0002018255318099663,4.141380350485646e-05,-0.0005907436789695103,-1.2814330881895785e-07,1.2813005173669258e-07,6.7207902092718786e-06,18.0,0.0,789000000.0,odom,base_footprint,-5.101187579494449e-06,-1.7654916118290797e-05,-0.0010023865290129,-0.0035694154817143,0.0014708951090846,0.9238469911934032,0.3827425147584118,"(1e-05, 0.0, 0.0, 0.0, 0.0, 0.0, 0.0, 1e-05, 0.0, 0.0, 0.0, 0.0, 0.0, 0.0, 1000000000000.0, 0.0, 0.0, 0.0, 0.0, 0.0, 0.0, 1000000000000.0, 0.0, 0.0, 0.0, 0.0, 0.0, 0.0, 1000000000000.0, 0.0, 0.0, 0.0, 0.0, 0.0, 0.0, 0.001)",-2.9844931816328163e-06,2.221918493867813e-05,0.0,0.0,0.0,0.0003376992659869,"(0.0, 0.0, 0.0, 0.0, 0.0, 0.0, 0.0, 0.0, 0.0, 0.0, 0.0, 0.0, 0.0, 0.0, 0.0, 0.0, 0.0, 0.0, 0.0, 0.0, 0.0, 0.0, 0.0, 0.0, 0.0, 0.0, 0.0, 0.0, 0.0, 0.0, 0.0, 0.0, 0.0, 0.0, 0.0, 0.0)",,,,,,,18,0,834000000,base_footprint,-0.0035694279057329,0.0014708658947215,0.923849680486872,0.3827360233924292,0.0,0.0,0.0,0.0,0.0,0.0,0.0,0.0,0.0,-0.0001779181924506,-3.129881794136014e-05,0.0003369249070545,0.0,0.0,0.0,0.0,0.0,0.0,0.0,0.0,0.0,2.8337723008114572e-08,2.6120302165275896e-08,-7.903718153374504e-09,0.0,0.0,0.0,0.0,0.0,0.0,0.0,0.0,0.0
0.8680000000000001,2.3560852691937666,-4.292360155149985e-07,-5.804475336789773e-07,1.0859480711999936e-05,2.35623100406963,7.123237992626137e-06,-5.037073801613093e-06,5.036705968854593e-06,0.00018534309819183547,5.04930099669943e-05,-0.0004949679765204454,-1.677381908726289e-07,1.677186751328815e-07,6.171925169788122e-06,20.0,0.0,855000000.0,odom,base_footprint,-5.934402321632146e-06,-1.8781614843098576e-05,-0.0010023867353666,-0.0035694340376659,0.0014708514857392,0.9238510251647816,0.3827327775857983,"(1e-05, 0.0, 0.0, 0.0, 0.0, 0.0, 0.0, 1e-05, 0.0, 0.0, 0.0, 0.0, 0.0, 0.0, 1000000000000.0, 0.0, 0.0, 0.0, 0.0, 0.0, 0.0, 1000000000000.0, 0.0, 0.0, 0.0, 0.0, 0.0, 0.0, 1000000000000.0, 0.0, 0.0, 0.0, 0.0, 0.0, 0.0, 0.001)",-2.9857498514340728e-06,2.222111441236613e-05,0.0,0.0,0.0,0.0003377264122472,"(0.0, 0.0, 0.0, 0.0, 0.0, 0.0, 0.0, 0.0, 0.0, 0.0, 0.0, 0.0, 0.0, 0.0, 0.0, 0.0, 0.0, 0.0, 0.0, 0.0, 0.0, 0.0, 0.0, 0.0, 0.0, 0.0, 0.0, 0.0, 0.0, 0.0, 0.0, 0.0, 0.0, 0.0, 0.0, 0.0)",,,,,,,19,0,868000000,base_footprint,-0.0035694373614786,0.0014708436779439,0.9238517586341958,0.3827310071111318,0.0,0.0,0.0,0.0,0.0,0.0,0.0,0.0,0.0,-0.000177919556687,-3.13256433691324e-05,0.0003369389961036,0.0,0.0,0.0,0.0,0.0,0.0,0.0,0.0,0.0,2.8239409334206392e-08,2.607414907530001e-08,-8.390561852687997e-09,0.0,0.0,0.0,0.0,0.0,0.0,0.0,0.0,0.0
0.902,2.35609612907778,-4.292410399103948e-07,-5.804802097257415e-07,1.0859884013392216e-05,2.3562371759948,9.289632320337848e-06,-6.5690423953335995e-06,6.568481609578835e-06,0.00017052952581413303,6.505688671806938e-05,-0.0004448520233544276,-2.187537960545831e-07,2.1872575279636375e-07,5.67863320961063e-06,20.0,0.0,855000000.0,odom,base_footprint,-5.934402321632146e-06,-1.8781614843098576e-05,-0.0010023867353666,-0.0035694340376659,0.0014708514857392,0.9238510251647816,0.3827327775857983,"(1e-05, 0.0, 0.0, 0.0, 0.0, 0.0, 0.0, 1e-05, 0.0, 0.0, 0.0, 0.0, 0.0, 0.0, 1000000000000.0, 0.0, 0.0, 0.0, 0.0, 0.0, 0.0, 1000000000000.0, 0.0, 0.0, 0.0, 0.0, 0.0, 0.0, 1000000000000.0, 0.0, 0.0, 0.0, 0.0, 0.0, 0.0, 0.001)",-2.9857498514340728e-06,2.222111441236613e-05,0.0,0.0,0.0,0.0003377264122472,"(0.0, 0.0, 0.0, 0.0, 0.0, 0.0, 0.0, 0.0, 0.0, 0.0, 0.0, 0.0, 0.0, 0.0, 0.0, 0.0, 0.0, 0.0, 0.0, 0.0, 0.0, 0.0, 0.0, 0.0, 0.0, 0.0, 0.0, 0.0, 0.0, 0.0, 0.0, 0.0, 0.0, 0.0, 0.0, 0.0)",,,,,,,20,0,902000000,base_footprint,-0.0035694467039373,0.0014708217413925,0.923853836831004,0.3827259906333322,0.0,0.0,0.0,0.0,0.0,0.0,0.0,0.0,0.0,-0.000177920930741,-3.135071961812005e-05,0.00033695307761,0.0,0.0,0.0,0.0,0.0,0.0,0.0,0.0,0.0,2.8190561901861383e-08,2.603746939278219e-08,-8.837706508858117e-09,0.0,0.0,0.0,0.0,0.0,0.0,0.0,0.0,0.0
0.936,2.356106989364765,-4.292460394454689e-07,-5.805128379370722e-07,1.0860286984826217e-05,2.35624285462801,-0.0001525649085368784,0.00010788489881126893,-0.00010787446373145194,0.002188501627996453,-0.004860496722438926,0.06059976282829788,3.592764751242551e-06,-3.5920219898415536e-06,7.287710421228188e-05,21.0,0.0,889000000.0,odom,base_footprint,-6.363641591595071e-06,-1.9362083526351832e-05,-0.0010023868327221,-0.0035694434188532,0.0014708294533961,0.9238531033441292,0.3827277611773416,"(1e-05, 0.0, 0.0, 0.0, 0.0, 0.0, 0.0, 1e-05, 0.0, 0.0, 0.0, 0.0, 0.0, 0.0, 1000000000000.0, 0.0, 0.0, 0.0, 0.0, 0.0, 0.0, 1000000000000.0, 0.0, 0.0, 0.0, 0.0, 0.0, 0.0, 1000000000000.0, 0.0, 0.0, 0.0, 0.0, 0.0, 0.0, 0.001)",-2.986397587702525e-06,2.2222103779313063e-05,0.0,0.0,0.0,0.000337740375746,"(0.0, 0.0, 0.0, 0.0, 0.0, 0.0, 0.0, 0.0, 0.0, 0.0, 0.0, 0.0, 0.0, 0.0, 0.0, 0.0, 0.0, 0.0, 0.0, 0.0, 0.0, 0.0, 0.0, 0.0, 0.0, 0.0, 0.0, 0.0, 0.0, 0.0, 0.0, 0.0, 0.0, 0.0, 0.0, 0.0)",,,,,,,21,0,936000000,base_footprint,-0.0035694559436387,0.0014708000589763,0.9238559150772726,0.3827209739590821,0.0,0.0,0.0,0.0,0.0,0.0,0.0,0.0,0.0,-0.0001779223128054,-3.1374209200061586e-05,0.00033696715748,0.0,0.0,0.0,0.0,0.0,0.0,0.0,0.0,0.0,2.8156302430043413e-08,2.6005664335038506e-08,-9.244774382331464e-09,0.0,0.0,0.0,0.0,0.0,0.0,0.0,0.0,0.0
0.9700000000000001,2.356117850054515,-4.292510200208828e-07,-5.805454277698144e-07,1.0860689750202822e-05,2.3563157317322223,9.734709735369375e-06,-6.884313779794468e-06,6.882644652546526e-06,0.00016244200508299555,0.0048738624105780105,-0.06084263131872243,-2.2925252635068233e-07,2.291871881703243e-07,5.409318769263752e-06,23.0,0.0,955000000.0,odom,base_footprint,-7.196885038546902e-06,-2.048896882614164e-05,-0.0010023870068719,-0.0035694613346462,0.0014707874136965,0.92385713759818,0.3827180228824635,"(1e-05, 0.0, 0.0, 0.0, 0.0, 0.0, 0.0, 1e-05, 0.0, 0.0, 0.0, 0.0, 0.0, 0.0, 1000000000000.0, 0.0, 0.0, 0.0, 0.0, 0.0, 0.0, 1000000000000.0, 0.0, 0.0, 0.0, 0.0, 0.0, 0.0, 1000000000000.0, 0.0, 0.0, 0.0, 0.0, 0.0, 0.0, 0.001)",-2.987646421909672e-06,2.222402245204705e-05,0.0,0.0,0.0,0.0003377675000607,"(0.0, 0.0, 0.0, 0.0, 0.0, 0.0, 0.0, 0.0, 0.0, 0.0, 0.0, 0.0, 0.0, 0.0, 0.0, 0.0, 0.0, 0.0, 0.0, 0.0, 0.0, 0.0, 0.0, 0.0, 0.0, 0.0, 0.0, 0.0, 0.0, 0.0, 0.0, 0.0, 0.0, 0.0, 0.0, 0.0)",,,,,,,22,0,970000000,base_footprint,-0.0035694650901411,0.0014707786070305,0.9238579933729972,0.3827159570883848,0.0,0.0,0.0,0.0,0.0,0.0,0.0,0.0,0.0,-0.0001779237020983,-3.139625932071039e-05,0.0003369812371057,0.0,0.0,0.0,0.0,0.0,0.0,0.0,0.0,0.0,2.8127593286181392e-08,2.597731290147028e-08,-9.614107255581308e-09,0.0,0.0,0.0,0.0,0.0,0.0,0.0,0.0,0.0
1.004,2.3561287111468667,-4.29255984279054e-07,-5.805779841687973e-07,1.086109235171051e-05,2.3563211410509917,8.285033414117123e-06,-5.8591452343011294e-06,5.8576612906862075e-06,0.00019156817470529258,-4.3533823461028564e-05,0.0008746597484173283,-1.9511378200920236e-07,1.9505587411083835e-07,6.379220217686244e-06,23.0,0.0,955000000.0,odom,base_footprint,-7.196885038546902e-06,-2.048896882614164e-05,-0.0010023870068719,-0.0035694613346462,0.0014707874136965,0.92385713759818,0.3827180228824635,"(1e-05, 0.0, 0.0, 0.0, 0.0, 0.0, 0.0, 1e-05, 0.0, 0.0, 0.0, 0.0, 0.0, 0.0, 1000000000000.0, 0.0, 0.0, 0.0, 0.0, 0.0, 0.0, 1000000000000.0, 0.0, 0.0, 0.0, 0.0, 0.0, 0.0, 1000000000000.0, 0.0, 0.0, 0.0, 0.0, 0.0, 0.0, 0.001)",-2.987646421909672e-06,2.222402245204705e-05,0.0,0.0,0.0,0.0003377675000607,"(0.0, 0.0, 0.0, 0.0, 0.0, 0.0, 0.0, 0.0, 0.0, 0.0, 0.0, 0.0, 0.0, 0.0, 0.0, 0.0, 0.0, 0.0, 0.0, 0.0, 0.0, 0.0, 0.0, 0.0, 0.0, 0.0, 0.0, 0.0, 0.0, 0.0, 0.0, 0.0, 0.0, 0.0, 0.0, 0.0)",,,,,,,23,1,4000000,base_footprint,-0.0035694741521164,0.0014707573640881,0.9238600717181789,0.3827109400212324,0.0,0.0,0.0,0.0,0.0,0.0,0.0,0.0,0.0,-0.0001779250978423,-3.14170038937692e-05,0.0003369953169847,0.0,0.0,0.0,0.0,0.0,0.0,0.0,0.0,0.0,2.8102446798938647e-08,2.5951926678537553e-08,-9.949552168534984e-09,0.0,0.0,0.0,0.0,0.0,0.0,0.0,0.0,0.0
1.038,2.3561395726416787,-4.292609339074348e-07,-5.806105107032146e-07,1.086149481199783e-05,2.356327520271209,6.535275854324325e-06,-4.621752582961238e-06,4.620523082293353e-06,0.00020675604095765762,-5.254527206584978e-05,0.0004560920796506016,-1.5390774893202917e-07,1.5386002974249516e-07,6.88497616389e-06,25.0,1.0,22000000.0,odom,base_footprint,-8.042772545793601e-06,-2.16330536793115e-05,-0.0010023871665629,-0.0035694791822991,0.0014707455767538,0.9238612331679098,0.3827081362804882,"(1e-05, 0.0, 0.0, 0.0, 0.0, 0.0, 0.0, 1e-05, 0.0, 0.0, 0.0, 0.0, 0.0, 0.0, 1000000000000.0, 0.0, 0.0, 0.0, 0.0, 0.0, 0.0, 1000000000000.0, 0.0, 0.0, 0.0, 0.0, 0.0, 0.0, 1000000000000.0, 0.0, 0.0, 0.0, 0.0, 0.0, 0.0, 0.001)",-2.98891208212955e-06,2.222596446229895e-05,0.0,0.0,0.0,0.0003377950637772,"(0.0, 0.0, 0.0, 0.0, 0.0, 0.0, 0.0, 0.0, 0.0, 0.0, 0.0, 0.0, 0.0, 0.0, 0.0, 0.0, 0.0, 0.0, 0.0, 0.0, 0.0, 0.0, 0.0, 0.0, 0.0, 0.0, 0.0, 0.0, 0.0, 0.0, 0.0, 0.0, 0.0, 0.0, 0.0, 0.0)",,,,,,,24,1,38000000,base_footprint,-0.0035694831374324,0.0014707363106758,0.923862150112818,0.3827059227576141,0.0,0.0,0.0,0.0,0.0,0.0,0.0,0.0,0.0,-0.0001779264993762,-3.143656414612994e-05,0.0003370093971415,0.0,0.0,0.0,0.0,0.0,0.0,0.0,0.0,0.0,2.8079697930101088e-08,2.5929103082372717e-08,-1.0254052981697017e-08,0.0,0.0,0.0,0.0,0.0,0.0,0.0,0.0,0.0
1.072,2.356150434538826,-4.29265870276023e-07,-5.806430103663349e-07,1.086189714749608e-05,2.356334405247373,5.280667140436937e-06,-3.734517949833504e-06,3.7334730654528335e-06,0.0002241379942820385,-3.767593735397563e-05,0.000521980580311738,-1.2436222121105567e-07,1.2432187875185778e-07,7.463795209591882e-06,26.0,1.0,55000000.0,odom,base_footprint,-8.459410766629202e-06,-2.2196604576942697e-05,-0.0010023872398205,-0.0035694878657927,0.0014707252353839,0.9238632504594154,0.3827032664796862,"(1e-05, 0.0, 0.0, 0.0, 0.0, 0.0, 0.0, 1e-05, 0.0, 0.0, 0.0, 0.0, 0.0, 0.0, 1000000000000.0, 0.0, 0.0, 0.0, 0.0, 0.0, 0.0, 1000000000000.0, 0.0, 0.0, 0.0, 0.0, 0.0, 0.0, 1000000000000.0, 0.0, 0.0, 0.0, 0.0, 0.0, 0.0, 0.001)",-2.989536201269676e-06,2.2226921043407236e-05,0.0,0.0,0.0,0.0003378086493718,"(0.0, 0.0, 0.0, 0.0, 0.0, 0.0, 0.0, 0.0, 0.0, 0.0, 0.0, 0.0, 0.0, 0.0, 0.0, 0.0, 0.0, 0.0, 0.0, 0.0, 0.0, 0.0, 0.0, 0.0, 0.0, 0.0, 0.0, 0.0, 0.0, 0.0, 0.0, 0.0, 0.0, 0.0, 0.0, 0.0)",,,,,,,25,1,72000000,base_footprint,-0.0035694920532259,0.0014707154291275,0.9238642285569172,0.3827009052975192,0.0,0.0,0.0,0.0,0.0,0.0,0.0,0.0,0.0,-0.0001779279062602,-3.145505003674565e-05,0.0003370234776711,0.0,0.0,0.0,0.0,0.0,0.0,0.0,0.0,0.0,2.8059264406394025e-08,2.5908625013995565e-08,-1.0530119181833634e-08,0.0,0.0,0.0,0.0,0.0,0.0,0.0,0.0,0.0
1.106,2.356161296838197,-4.29270794577441e-07,-5.806754858101033e-07,1.086229937063976e-05,2.3563418690425824,4.369194177828794e-06,-3.08994212292628e-06,3.0890314728954873e-06,0.00024586928330225173,-2.7371560438682972e-05,0.0006525912618682654,-1.028974046597296e-07,1.028624153413974e-07,8.187447133964983e-06,26.0,1.0,55000000.0,odom,base_footprint,-8.459410766629202e-06,-2.2196604576942697e-05,-0.0010023872398205,-0.0035694878657927,0.0014707252353839,0.9238632504594154,0.3827032664796862,"(1e-05, 0.0, 0.0, 0.0, 0.0, 0.0, 0.0, 1e-05, 0.0, 0.0, 0.0, 0.0, 0.0, 0.0, 1000000000000.0, 0.0, 0.0, 0.0, 0.0, 0.0, 0.0, 1000000000000.0, 0.0, 0.0, 0.0, 0.0, 0.0, 0.0, 1000000000000.0, 0.0, 0.0, 0.0, 0.0, 0.0, 0.0, 0.001)",-2.989536201269676e-06,2.2226921043407236e-05,0.0,0.0,0.0,0.0003378086493718,"(0.0, 0.0, 0.0, 0.0, 0.0, 0.0, 0.0, 0.0, 0.0, 0.0, 0.0, 0.0, 0.0, 0.0, 0.0, 0.0, 0.0, 0.0, 0.0, 0.0, 0.0, 0.0, 0.0, 0.0, 0.0, 0.0, 0.0, 0.0, 0.0, 0.0, 0.0, 0.0, 0.0, 0.0, 0.0, 0.0)",,,,,,,26,1,106000000,base_footprint,-0.0035695009059714,0.0014706947034177,0.9238663070504776,0.3826958876409368,0.0,0.0,0.0,0.0,0.0,0.0,0.0,0.0,0.0,-0.0001779293180166,-3.147256135172215e-05,0.0003370375585735,0.0,0.0,0.0,0.0,0.0,0.0,0.0,0.0,0.0,2.8040766064394744e-08,2.5890239433769525e-08,-1.0780914207550402e-08,0.0,0.0,0.0,0.0,0.0,0.0,0.0,0.0,0.0
1.1400000000000001,2.3561721595396916,-4.2927570796050946e-07,-5.80707939529506e-07,1.0862701494751548e-05,2.3563500564897164,3.4092692724279694e-06,-2.4110924186357587e-06,2.4103423658722642e-06,0.0002503424281583901,-2.882657373576049e-05,0.00013432867435850986,-8.029120313017749e-08,8.026257458599333e-08,8.336402857674392e-06,27.0,1.0,89000000.0,odom,base_footprint,-8.888679245314373e-06,-2.2777264783039545e-05,-0.0010023873120242,-0.0035694967474409,0.0014707044382368,0.9238653289296996,0.3826982489155698,"(1e-05, 0.0, 0.0, 0.0, 0.0, 0.0, 0.0, 1e-05, 0.0, 0.0, 0.0, 0.0, 0.0, 0.0, 1000000000000.0, 0.0, 0.0, 0.0, 0.0, 0.0, 0.0, 1000000000000.0, 0.0, 0.0, 0.0, 0.0, 0.0, 0.0, 1000000000000.0, 0.0, 0.0, 0.0, 0.0, 0.0, 0.0, 0.001)",-2.990180857702328e-06,2.222790465523514e-05,0.0,0.0,0.0,0.0003378226524372,"(0.0, 0.0, 0.0, 0.0, 0.0, 0.0, 0.0, 0.0, 0.0, 0.0, 0.0, 0.0, 0.0, 0.0, 0.0, 0.0, 0.0, 0.0, 0.0, 0.0, 0.0, 0.0, 0.0, 0.0, 0.0, 0.0, 0.0, 0.0, 0.0, 0.0, 0.0, 0.0, 0.0, 0.0, 0.0, 0.0)",,,,,,,27,1,140000000,base_footprint,-0.0035695097015418,0.0014706741190087,0.9238683855935004,0.3826908697878557,0.0,0.0,0.0,0.0,0.0,0.0,0.0,0.0,0.0,-0.0001779307341423,-3.148918869213497e-05,0.0003370516398827,0.0,0.0,0.0,0.0,0.0,0.0,0.0,0.0,0.0,2.8024087751179666e-08,2.5873762539844982e-08,-1.1008527222435943e-08,0.0,0.0,0.0,0.0,0.0,0.0,0.0,0.0,0.0
1.174,2.3561830226432208,-4.292806113472339e-07,-5.807403736066315e-07,1.0863103529157314e-05,2.356358392892574,2.7613131211441097e-06,-1.952863233820498e-06,1.9522231796069766e-06,0.0002595779897358106,-1.9458142681196985e-05,0.0002773441915141287,-6.503183429337321e-08,6.50075427510784e-08,8.643947058202494e-06,29.0,1.0,155000000.0,odom,base_footprint,-9.721979146760928e-06,-2.3904521367133e-05,-0.0010023874438231,-0.0035695138223875,0.0014706644773152,0.923869363748509,0.382688508377234,"(1e-05, 0.0, 0.0, 0.0, 0.0, 0.0, 0.0, 1e-05, 0.0, 0.0, 0.0, 0.0, 0.0, 0.0, 1000000000000.0, 0.0, 0.0, 0.0, 0.0, 0.0, 0.0, 1000000000000.0, 0.0, 0.0, 0.0, 0.0, 0.0, 0.0, 1000000000000.0, 0.0, 0.0, 0.0, 0.0, 0.0, 0.0, 0.001)",-2.9914204048668185e-06,2.2229813713588447e-05,0.0,0.0,0.0,0.0003378498499809,"(0.0, 0.0, 0.0, 0.0, 0.0, 0.0, 0.0, 0.0, 0.0, 0.0, 0.0, 0.0, 0.0, 0.0, 0.0, 0.0, 0.0, 0.0, 0.0, 0.0, 0.0, 0.0, 0.0, 0.0, 0.0, 0.0, 0.0, 0.0, 0.0, 0.0, 0.0, 0.0, 0.0, 0.0, 0.0, 0.0)",,,,,,,28,1,174000000,base_footprint,-0.0035695184452653,0.001470653662712,0.9238704641859872,0.3826858517382658,0.0,0.0,0.0,0.0,0.0,0.0,0.0,0.0,0.0,-0.0001779321543496,-3.150501407246035e-05,0.0003370657215905,0.0,0.0,0.0,0.0,0.0,0.0,0.0,0.0,0.0,2.80089812501782e-08,2.5858997380948425e-08,-1.1214818360377309e-08,0.0,0.0,0.0,0.0,0.0,0.0,0.0,0.0,0.0
1.208,2.3561938861487057,-4.292855056734976e-07,-5.807727900793494e-07,1.086350548495929e-05,2.3563670368396323,2.3101058792612643e-06,-1.6337733616540187e-06,1.6332096546822107e-06,0.00027518007753153114,-1.3549767023508871e-05,0.0004685311650366528,-5.440591242406555e-08,5.438462155634623e-08,9.163496581799988e-06,29.0,1.0,155000000.0,odom,base_footprint,-9.721979146760928e-06,-2.3904521367133e-05,-0.0010023874438231,-0.0035695138223875,0.0014706644773152,0.923869363748509,0.382688508377234,"(1e-05, 0.0, 0.0, 0.0, 0.0, 0.0, 0.0, 1e-05, 0.0, 0.0, 0.0, 0.0, 0.0, 0.0, 1000000000000.0, 0.0, 0.0, 0.0, 0.0, 0.0, 0.0, 1000000000000.0, 0.0, 0.0, 0.0, 0.0, 0.0, 0.0, 1000000000000.0, 0.0, 0.0, 0.0, 0.0, 0.0, 0.0, 0.001)",-2.9914204048668185e-06,2.2229813713588447e-05,0.0,0.0,0.0,0.0003378498499809,"(0.0, 0.0, 0.0, 0.0, 0.0, 0.0, 0.0, 0.0, 0.0, 0.0, 0.0, 0.0, 0.0, 0.0, 0.0, 0.0, 0.0, 0.0, 0.0, 0.0, 0.0, 0.0, 0.0, 0.0, 0.0, 0.0, 0.0, 0.0, 0.0, 0.0, 0.0, 0.0, 0.0, 0.0, 0.0, 0.0)",,,,,,,29,1,208000000,base_footprint,-0.0035695271419749,0.0014706333225638,0.9238725428279388,0.3826808334921562,0.0,0.0,0.0,0.0,0.0,0.0,0.0,0.0,0.0,-0.0001779335781653,-3.152011205820584e-05,0.0003370798037686,0.0,0.0,0.0,0.0,0.0,0.0,0.0,0.0,0.0,2.7995457876500456e-08,2.5845805124361893e-08,-1.1402337793801724e-08,0.0,0.0,0.0,0.0,0.0,0.0,0.0,0.0,0.0
1.242,2.3562047500560768,-4.2929039175158657e-07,-5.808051907192495e-07,1.0863907371039261e-05,2.3563762003362143,1.8315002659820131e-06,-1.295301563114959e-06,1.2948309097654909e-06,0.0002731246300960589,-1.4372540939316851e-05,-6.172514821237951e-05,-4.313453910975273e-08,4.311687185180872e-08,9.095050182198763e-06,31.0,1.0,222000000.0,odom,base_footprint,-1.0567923686719948e-05,-2.5048982573353147e-05,-0.0010023875679837,-0.0035695309649619,0.0014706243830484,0.9238734598915844,0.3826786194975715,"(1e-05, 0.0, 0.0, 0.0, 0.0, 0.0, 0.0, 1e-05, 0.0, 0.0, 0.0, 0.0, 0.0, 0.0, 1000000000000.0, 0.0, 0.0, 0.0, 0.0, 0.0, 0.0, 1000000000000.0, 0.0, 0.0, 0.0, 0.0, 0.0, 0.0, 1000000000000.0, 0.0, 0.0, 0.0, 0.0, 0.0, 0.0, 0.001)",-2.992679259614255e-06,2.223174851387688e-05,0.0,0.0,0.0,0.0003378774773054,"(0.0, 0.0, 0.0, 0.0, 0.0, 0.0, 0.0, 0.0, 0.0, 0.0, 0.0, 0.0, 0.0, 0.0, 0.0, 0.0, 0.0, 0.0, 0.0, 0.0, 0.0, 0.0, 0.0, 0.0, 0.0, 0.0, 0.0, 0.0, 0.0, 0.0, 0.0, 0.0, 0.0, 0.0, 0.0, 0.0)",,,,,,,30,1,242000000,base_footprint,-0.0035695357960552,0.0014706130877111,0.923874621519357,0.3826758150495168,0.0,0.0,0.0,0.0,0.0,0.0,0.0,0.0,0.0,-0.0001779350052451,-3.153455016488616e-05,0.0003370938863671,0.0,0.0,0.0,0.0,0.0,0.0,0.0,0.0,0.0,2.7983142869476437e-08,2.583400235119897e-08,-1.1572452915263661e-08,0.0,0.0,0.0,0.0,0.0,0.0,0.0,0.0,0.0
1.276,2.356215614365271,-4.292952703027053e-07,-5.808375771292029e-07,1.0864309194058562e-05,2.3563852953863966,1.509809483590047e-06,-1.0678002076732129e-06,1.0673928017517675e-06,0.0002779405579803488,-9.660383855614594e-06,0.0001446224589876842,-3.555857168902394e-08,3.554335518930135e-08,9.255420580745615e-06,31.0,1.0,222000000.0,odom,base_footprint,-1.0567923686719948e-05,-2.5048982573353147e-05,-0.0010023875679837,-0.0035695309649619,0.0014706243830484,0.9238734598915844,0.3826786194975715,"(1e-05, 0.0, 0.0, 0.0, 0.0, 0.0, 0.0, 1e-05, 0.0, 0.0, 0.0, 0.0, 0.0, 0.0, 1000000000000.0, 0.0, 0.0, 0.0, 0.0, 0.0, 0.0, 1000000000000.0, 0.0, 0.0, 0.0, 0.0, 0.0, 0.0, 1000000000000.0, 0.0, 0.0, 0.0, 0.0, 0.0, 0.0, 0.001)",-2.992679259614255e-06,2.223174851387688e-05,0.0,0.0,0.0,0.0003378774773054,"(0.0, 0.0, 0.0, 0.0, 0.0, 0.0, 0.0, 0.0, 0.0, 0.0, 0.0, 0.0, 0.0, 0.0, 0.0, 0.0, 0.0, 0.0, 0.0, 0.0, 0.0, 0.0, 0.0, 0.0, 0.0, 0.0, 0.0, 0.0, 0.0, 0.0, 0.0, 0.0, 0.0, 0.0, 0.0, 0.0)",,,,,,,31,1,276000000,base_footprint,-0.0035695444114835,0.0014705929483084,0.923876700260242,0.3826707964103375,0.0,0.0,0.0,0.0,0.0,0.0,0.0,0.0,0.0,-0.0001779364353479,-3.15483896944226e-05,0.0003371079694593,0.0,0.0,0.0,0.0,0.0,0.0,0.0,0.0,0.0,2.7972156179288176e-08,2.5823489267381556e-08,-1.172676475459987e-08,0.0,0.0,0.0,0.0,0.0,0.0,0.0,0.0,0.0
1.31,2.356226479076234,-4.293001420259592e-07,-5.80869950806296e-07,1.0864710963343072e-05,2.3563945508069772,1.2859977497162655e-06,-9.095196338810734e-07,9.091557885533903e-07,0.00029047697083451615,-6.72107308930275e-06,0.00037646885447950026,-3.0287712631417224e-08,3.027417863417975e-08,9.672883128789388e-06,33.0,1.0,289000000.0,odom,base_footprint,-1.1413887187811543e-05,-2.619356957464644e-05,-0.0010023876841259,-0.0035695479486333,0.0014705846812399,0.9238775562267492,0.3826687298547236,"(1e-05, 0.0, 0.0, 0.0, 0.0, 0.0, 0.0, 1e-05, 0.0, 0.0, 0.0, 0.0, 0.0, 0.0, 1000000000000.0, 0.0, 0.0, 0.0, 0.0, 0.0, 0.0, 1000000000000.0, 0.0, 0.0, 0.0, 0.0, 0.0, 0.0, 1000000000000.0, 0.0, 0.0, 0.0, 0.0, 0.0, 0.0, 0.001)",-2.9939414382640617e-06,2.223368206617655e-05,0.0,0.0,0.0,0.000337905119788,"(0.0, 0.0, 0.0, 0.0, 0.0, 0.0, 0.0, 0.0, 0.0, 0.0, 0.0, 0.0, 0.0, 0.0, 0.0, 0.0, 0.0, 0.0, 0.0, 0.0, 0.0, 0.0, 0.0, 0.0, 0.0, 0.0, 0.0, 0.0, 0.0, 0.0, 0.0, 0.0, 0.0, 0.0, 0.0, 0.0)",,,,,,,32,1,310000000,base_footprint,-0.0035695529918678,0.0014705728954239,0.923878779050595,0.382665777574608,0.0,0.0,0.0,0.0,0.0,0.0,0.0,0.0,0.0,-0.0001779378682027,-3.1561686427001514e-05,0.0003371220530494,0.0,0.0,0.0,0.0,0.0,0.0,0.0,0.0,0.0,2.7962255584414317e-08,2.5814125090965057e-08,-1.1866783114307386e-08,0.0,0.0,0.0,0.0,0.0,0.0,0.0,0.0,0.0
1.344,2.3562373441889175,-4.2930500751157605e-07,-5.809023130589307e-07,1.0865112683333678e-05,2.356404223690106,1.0368981754999631e-06,-7.333514912935883e-07,7.330439390463729e-07,0.00028522404390444767,-7.480467694183254e-06,-0.00015774555345550982,-2.4421174042819034e-08,2.4409793534824162e-08,9.497960662018109e-06,34.0,1.0,322000000.0,odom,base_footprint,-1.1830562730835454e-05,-2.675736758819781e-05,-0.0010023877388213,-0.0035695562640389,0.0014705652492835,0.923879573895274,0.3826638585560606,"(1e-05, 0.0, 0.0, 0.0, 0.0, 0.0, 0.0, 1e-05, 0.0, 0.0, 0.0, 0.0, 0.0, 0.0, 1000000000000.0, 0.0, 0.0, 0.0, 0.0, 0.0, 0.0, 1000000000000.0, 0.0, 0.0, 0.0, 0.0, 0.0, 0.0, 1000000000000.0, 0.0, 0.0, 0.0, 0.0, 0.0, 0.0, 0.001)",-2.994557251087507e-06,2.2234634663905375e-05,0.0,0.0,0.0,0.0003379187395908,"(0.0, 0.0, 0.0, 0.0, 0.0, 0.0, 0.0, 0.0, 0.0, 0.0, 0.0, 0.0, 0.0, 0.0, 0.0, 0.0, 0.0, 0.0, 0.0, 0.0, 0.0, 0.0, 0.0, 0.0, 0.0, 0.0, 0.0, 0.0, 0.0, 0.0, 0.0, 0.0, 0.0, 0.0, 0.0, 0.0)",0.0,0.0,0.0,0.0,0.0,0.0,33,1,344000000,base_footprint,-0.0035695615404812,0.0014705529209554,0.923880857890417,0.3826607585423187,0.0,0.0,0.0,0.0,0.0,0.0,0.0,0.0,0.0,-0.000177939303495,-3.1574490638028875e-05,0.0003371361371181,0.0,0.0,0.0,0.0,0.0,0.0,0.0,0.0,0.0,2.7953289976912144e-08,2.580579342962715e-08,-1.1994144732610928e-08,0.0,0.0,0.0,0.0,0.0,0.0,0.0,0.0,0.0
1.3780000000000001,2.3562482097032795,-4.293098673550048e-07,-5.809346651265701e-07,1.0865514362023985e-05,2.3564137216507675,8.674498094414574e-07,-6.135140999673099e-07,6.132451557422387e-07,0.000287919513519595,-5.088539521276449e-06,8.094503348790752e-05,-2.0430496776247765e-08,2.0420586218631944e-08,9.587719800202513e-06,34.0,1.0,322000000.0,odom,base_footprint,-1.1830562730835454e-05,-2.675736758819781e-05,-0.0010023877388213,-0.0035695562640389,0.0014705652492835,0.923879573895274,0.3826638585560606,"(1e-05, 0.0, 0.0, 0.0, 0.0, 0.0, 0.0, 1e-05, 0.0, 0.0, 0.0, 0.0, 0.0, 0.0, 1000000000000.0, 0.0, 0.0, 0.0, 0.0, 0.0, 0.0, 1000000000000.0, 0.0, 0.0, 0.0, 0.0, 0.0, 0.0, 1000000000000.0, 0.0, 0.0, 0.0, 0.0, 0.0, 0.0, 0.001)",-2.994557251087507e-06,2.2234634663905375e-05,0.0,0.0,0.0,0.0003379187395908,"(0.0, 0.0, 0.0, 0.0, 0.0, 0.0, 0.0, 0.0, 0.0, 0.0, 0.0, 0.0, 0.0, 0.0, 0.0, 0.0, 0.0, 0.0, 0.0, 0.0, 0.0, 0.0, 0.0, 0.0, 0.0, 0.0, 0.0, 0.0, 0.0, 0.0, 0.0, 0.0, 0.0, 0.0, 0.0, 0.0)",0.0,0.0,0.0,0.0,0.0,0.0,34,1,378000000,base_footprint,-0.0035695700602928,0.0014705330175528,0.9238829367797085,0.3826557393134592,0.0,0.0,0.0,0.0,0.0,0.0,0.0,0.0,0.0,-0.0001779407410419,-3.158684810773284e-05,0.0003371502217064,0.0,0.0,0.0,0.0,0.0,0.0,0.0,0.0,0.0,2.7945285952686614e-08,2.5798413300139233e-08,-1.2109293734089571e-08,0.0,0.0,0.0,0.0,0.0,0.0,0.0,0.0,0.0
1.412,2.3562590756192843,-4.293147220380683e-07,-5.809670080916818e-07,1.086591600474307e-05,2.3564233093705678,7.482026970991013e-07,-5.291802458610476e-07,5.289381280800343e-07,0.00029901035793006764,-3.580994364635317e-06,0.00033305839070488425,-1.7622117076578775e-08,1.761322457617921e-08,9.957044919071253e-06,36.0,1.0,389000000.0,odom,base_footprint,-1.267655443659742e-05,-2.7902142165814065e-05,-0.0010023878455275,-0.0035695730609207,0.0014705260085217,0.9238836705171524,0.3826539677739869,"(1e-05, 0.0, 0.0, 0.0, 0.0, 0.0, 0.0, 1e-05, 0.0, 0.0, 0.0, 0.0, 0.0, 0.0, 1000000000000.0, 0.0, 0.0, 0.0, 0.0, 0.0, 0.0, 1000000000000.0, 0.0, 0.0, 0.0, 0.0, 0.0, 0.0, 1000000000000.0, 0.0, 0.0, 0.0, 0.0, 0.0, 0.0, 0.001)",-2.9958177201393404e-06,2.223656645723438e-05,0.0,0.0,0.0,0.0003379464006895,"(0.0, 0.0, 0.0, 0.0, 0.0, 0.0, 0.0, 0.0, 0.0, 0.0, 0.0, 0.0, 0.0, 0.0, 0.0, 0.0, 0.0, 0.0, 0.0, 0.0, 0.0, 0.0, 0.0, 0.0, 0.0, 0.0, 0.0, 0.0, 0.0, 0.0, 0.0, 0.0, 0.0, 0.0, 0.0, 0.0)",0.0,0.0,0.0,0.0,0.0,0.0,35,1,412000000,base_footprint,-0.003569578553996,0.0014705131785481,0.9238850157184704,0.3826507198880199,0.0,0.0,0.0,0.0,0.0,0.0,0.0,0.0,0.0,-0.0001779421805695,-3.1598800453979485e-05,0.0003371643068434,0.0,0.0,0.0,0.0,0.0,0.0,0.0,0.0,0.0,2.7938145100537416e-08,2.5791889755790692e-08,-1.2214472967565872e-08,0.0,0.0,0.0,0.0,0.0,0.0,0.0,0.0,0.0
1.446,2.3562699419368998,-4.293195720395468e-07,-5.809993429486959e-07,1.086631761548773e-05,2.3564332664154874,6.092782700360431e-07,-4.309276548072903e-07,4.307219133738176e-07,0.00029215963400225223,-4.171904716608353e-06,-0.0002057274452797418,-1.4350227119091577e-08,1.4342703332034501e-08,9.728915812275e-06,37.0,1.0,422000000.0,odom,base_footprint,-1.3093243847741524e-05,-2.8466032524938463e-05,-0.0010023878962013,-0.0035695812967807,0.001470506772815,0.9238856883268972,0.3826490959141708,"(1e-05, 0.0, 0.0, 0.0, 0.0, 0.0, 0.0, 1e-05, 0.0, 0.0, 0.0, 0.0, 0.0, 0.0, 1000000000000.0, 0.0, 0.0, 0.0, 0.0, 0.0, 0.0, 1000000000000.0, 0.0, 0.0, 0.0, 0.0, 0.0, 0.0, 1000000000000.0, 0.0, 0.0, 0.0, 0.0, 0.0, 0.0, 0.001)",-2.9964328159273837e-06,2.2237518329573453e-05,0.0,0.0,0.0,0.000337960028698,"(0.0, 0.0, 0.0, 0.0, 0.0, 0.0, 0.0, 0.0, 0.0, 0.0, 0.0, 0.0, 0.0, 0.0, 0.0, 0.0, 0.0, 0.0, 0.0, 0.0, 0.0, 0.0, 0.0, 0.0, 0.0, 0.0, 0.0, 0.0, 0.0, 0.0, 0.0, 0.0, 0.0, 0.0, 0.0, 0.0)",0.2084210515022277,2.2237518351175822e-05,0.0,0.0,0.0,0.0413635969161987,36,1,446000000,base_footprint,-0.0035695870240342,0.0014704933978929,0.9238870947067036,0.3826457002659911,0.0,0.0,0.0,0.0,0.0,0.0,0.0,0.0,0.0,-0.0001779436219195,-3.161038523062424e-05,0.000337178392487,0.0,0.0,0.0,0.0,0.0,0.0,0.0,0.0,0.0,2.7931644575273458e-08,2.5786125884066012e-08,-1.230936027488321e-08,0.0,0.0,0.0,0.0,0.0,0.0,0.0,0.0,0.0
1.48,2.3561253272234706,-0.0001579607011284056,0.00015619096261303294,-0.00014461471342919194,2.3564429953312995,5.132162577072062e-07,-3.62988867024537e-07,3.6280850264462174e-07,0.00029379333692809684,-2.8847451149800866e-06,4.906014792326153e-05,-1.2087812802729665e-08,1.2081239459401659e-08,9.783318119705626e-06,38.0,1.0,455000000.0,odom,base_footprint,-1.3509937826433787e-05,-2.9029953342541052e-05,-0.0010023879457819,-0.0035695895110462,0.0014704875903455,0.9238877061832462,0.3826442238691562,"(1e-05, 0.0, 0.0, 0.0, 0.0, 0.0, 0.0, 1e-05, 0.0, 0.0, 0.0, 0.0, 0.0, 0.0, 1000000000000.0, 0.0, 0.0, 0.0, 0.0, 0.0, 0.0, 1000000000000.0, 0.0, 0.0, 0.0, 0.0, 0.0, 0.0, 1000000000000.0, 0.0, 0.0, 0.0, 0.0, 0.0, 0.0, 0.001)",-2.9970525340667e-06,2.2238470318517787e-05,0.0,0.0,0.0,0.0003379736590249,"(0.0, 0.0, 0.0, 0.0, 0.0, 0.0, 0.0, 0.0, 0.0, 0.0, 0.0, 0.0, 0.0, 0.0, 0.0, 0.0, 0.0, 0.0, 0.0, 0.0, 0.0, 0.0, 0.0, 0.0, 0.0, 0.0, 0.0, 0.0, 0.0, 0.0, 0.0, 0.0, 0.0, 0.0, 0.0, 0.0)",0.2084210515022277,2.2237518351175822e-05,0.0,0.0,0.0,0.0413635969161987,37,1,480000000,base_footprint,-0.003565580669427,0.0014686723509948,0.9238594404894784,0.3827125080977668,0.0,0.0,0.0,0.0,0.0,0.0,0.0,0.0,0.0,-0.0001693116316186,-0.0001072115458464,-0.0119828763300013,0.0,0.0,0.0,0.0,0.0,0.0,0.0,0.0,0.0,-1.6043619018718536e-05,-0.5264253152851747,0.0029276634490105,0.0,0.0,0.0,0.0,0.0,0.0,0.0,0.0,0.0
1.514,2.355412156725881,-0.0007445051951845,0.0007438581315230999,-0.000713170497589566,2.356452778649419,0.03403962992332794,-0.02407586925849195,0.024063435431482455,-0.000254707562276612,1.0221956969090158,-0.016471498474615882,-0.0008017379337533077,0.0008013009063553659,-8.48176182381118e-06,39.0,1.0,489000000.0,odom,base_footprint,-0.0003271915797492,0.0002828909566493,-0.0010021388539534,-0.0035652981586028,0.0014688564074516,0.9238312422883928,0.3827805727590929,"(1e-05, 0.0, 0.0, 0.0, 0.0, 0.0, 0.0, 1e-05, 0.0, 0.0, 0.0, 0.0, 0.0, 0.0, 1000000000000.0, 0.0, 0.0, 0.0, 0.0, 0.0, 0.0, 1000000000000.0, 0.0, 0.0, 0.0, 0.0, 0.0, 0.0, 1000000000000.0, 0.0, 0.0, 0.0, 0.0, 0.0, 0.0, 0.001)",0.0254126251178827,2.961859676848394e-05,0.0,0.0,0.0,-0.0169946757400825,"(0.0, 0.0, 0.0, 0.0, 0.0, 0.0, 0.0, 0.0, 0.0, 0.0, 0.0, 0.0, 0.0, 0.0, 0.0, 0.0, 0.0, 0.0, 0.0, 0.0, 0.0, 0.0, 0.0, 0.0, 0.0, 0.0, 0.0, 0.0, 0.0, 0.0, 0.0, 0.0, 0.0, 0.0, 0.0, 0.0)",0.2084210515022277,2.2237518351175822e-05,0.0,0.0,0.0,0.0413635969161987,38,1,514000000,base_footprint,-0.0035652972163489,0.0014699909720621,0.9237229113377828,0.3830419178783857,0.0,0.0,0.0,0.0,0.0,0.0,0.0,0.0,0.0,-0.0001600358874291,-0.0002004797036925,-0.0293485076834103,0.0,0.0,0.0,0.0,0.0,0.0,0.0,0.0,0.0,-0.0012914838469035,-0.74911451664768,0.0041411828231608,0.0,0.0,0.0,0.0,0.0,0.0,0.0,0.0,0.0
1.548,2.3541069722488785,-0.0013554275476343998,0.0013579025590940998,-0.0013051844770024523,2.356444296887595,0.06672397285610575,-0.04719275832512295,0.04716918607914361,4.376565266409979e-05,0.9815117997831174,0.008963159607829181,-0.0015715491758157023,0.0015707035575278844,1.4573962337145233e-06,39.0,1.0,489000000.0,odom,base_footprint,-0.0003271915797492,0.0002828909566493,-0.0010021388539534,-0.0035652981586028,0.0014688564074516,0.9238312422883928,0.3827805727590929,"(1e-05, 0.0, 0.0, 0.0, 0.0, 0.0, 0.0, 1e-05, 0.0, 0.0, 0.0, 0.0, 0.0, 0.0, 1000000000000.0, 0.0, 0.0, 0.0, 0.0, 0.0, 0.0, 1000000000000.0, 0.0, 0.0, 0.0, 0.0, 0.0, 0.0, 1000000000000.0, 0.0, 0.0, 0.0, 0.0, 0.0, 0.0, 0.001)",0.0254126251178827,2.961859676848394e-05,0.0,0.0,0.0,-0.0169946757400825,"(0.0, 0.0, 0.0, 0.0, 0.0, 0.0, 0.0, 0.0, 0.0, 0.0, 0.0, 0.0, 0.0, 0.0, 0.0, 0.0, 0.0, 0.0, 0.0, 0.0, 0.0, 0.0, 0.0, 0.0, 0.0, 0.0, 0.0, 0.0, 0.0, 0.0, 0.0, 0.0, 0.0, 0.0, 0.0, 0.0)",0.2084210515022277,3.418678534217179e-05,0.0,0.0,0.0,0.0563711263239383,39,1,548000000,base_footprint,-0.0035649671158144,0.0014725042458964,0.923472742253166,0.3836446494558823,0.0,0.0,0.0,0.0,0.0,0.0,0.0,0.0,0.0,-5.351605622356392e-05,-0.0002946987281034,-0.0467660126560275,0.0,0.0,0.0,0.0,0.0,0.0,0.0,0.0,0.0,-0.0047187990037813,-0.7490635850451861,0.0040359893947149,0.0,0.0,0.0,0.0,0.0,0.0,0.0,0.0,0.0
1.582,2.352210225167597,-0.0019609524814053,0.0019714462352167,-0.0018967470812816245,2.356445754283829,0.10008737650984244,-0.0707902429855596,0.07075467782887851,4.3749299094278266e-05,1.0019040136257262,-4.91098192838651e-07,-0.0023573605764236946,0.002356085262658654,1.4568516598394665e-06,41.0,1.0,555000000.0,odom,base_footprint,-0.0026788816995579,0.0026382121233003,-0.0010023100164539,-0.0035648747853166,0.001473269985321,0.923397474018438,0.383825775736445,"(1e-05, 0.0, 0.0, 0.0, 0.0, 0.0, 0.0, 1e-05, 0.0, 0.0, 0.0, 0.0, 0.0, 0.0, 1000000000000.0, 0.0, 0.0, 0.0, 0.0, 0.0, 0.0, 1000000000000.0, 0.0, 0.0, 0.0, 0.0, 0.0, 0.0, 1000000000000.0, 0.0, 0.0, 0.0, 0.0, 0.0, 0.0, 0.001)",0.074824562618167,3.743662010764759e-05,0.0,0.0,0.0,-0.0507966962230314,"(0.0, 0.0, 0.0, 0.0, 0.0, 0.0, 0.0, 0.0, 0.0, 0.0, 0.0, 0.0, 0.0, 0.0, 0.0, 0.0, 0.0, 0.0, 0.0, 0.0, 0.0, 0.0, 0.0, 0.0, 0.0, 0.0, 0.0, 0.0, 0.0, 0.0, 0.0, 0.0, 0.0, 0.0, 0.0, 0.0)",0.2084210515022277,3.418678534217179e-05,0.0,0.0,0.0,0.0563711263239383,40,1,582000000,base_footprint,-0.0035645622978902,0.0014762072468381,0.9231084850018711,0.3845202720603157,0.0,0.0,0.0,0.0,0.0,0.0,0.0,0.0,0.0,8.83864307056788e-05,-0.000389451284742,-0.0640984215735936,0.0,0.0,0.0,0.0,0.0,0.0,0.0,0.0,0.0,-0.0097167800950115,-0.7404567608651982,0.0039326182383411,0.0,0.0,0.0,0.0,0.0,0.0,0.0,0.0,0.0
1.616,2.349729552464052,-0.0025490423145398,0.0025744765039445007,-0.0024806727035451277,2.356447211135489,0.13715414640865115,-0.09700713343707411,0.0969581143556712,4.4691389166999654e-05,1.1131162131774386,2.8290993174816472e-05,-0.0032303999244787484,0.0032286427947873864,1.4882232592610886e-06,42.0,1.0,589000000.0,odom,base_footprint,-0.0047804108553829,0.0047530440015889,-0.0010024610065072,-0.0035645176658595,0.0014772797630132,0.9230064179444768,0.3847652067061387,"(1e-05, 0.0, 0.0, 0.0, 0.0, 0.0, 0.0, 1e-05, 0.0, 0.0, 0.0, 0.0, 0.0, 0.0, 1000000000000.0, 0.0, 0.0, 0.0, 0.0, 0.0, 0.0, 1000000000000.0, 0.0, 0.0, 0.0, 0.0, 0.0, 0.0, 1000000000000.0, 0.0, 0.0, 0.0, 0.0, 0.0, 0.0, 0.001)",0.0998602506694455,3.959131099751795e-05,0.0,0.0,0.0,-0.0680708914481325,"(0.0, 0.0, 0.0, 0.0, 0.0, 0.0, 0.0, 0.0, 0.0, 0.0, 0.0, 0.0, 0.0, 0.0, 0.0, 0.0, 0.0, 0.0, 0.0, 0.0, 0.0, 0.0, 0.0, 0.0, 0.0, 0.0, 0.0, 0.0, 0.0, 0.0, 0.0, 0.0, 0.0, 0.0, 0.0, 0.0)",0.2084210515022277,3.418678534217179e-05,0.0,0.0,0.0,0.0563711263239383,41,1,616000000,base_footprint,-0.0035641870523067,0.0014811424989944,0.9226308352174426,0.385664938377237,0.0,0.0,0.0,0.0,0.0,0.0,0.0,0.0,0.0,0.0001939043304506,-0.0004828566120047,-0.0810558419121496,0.0,0.0,0.0,0.0,0.0,0.0,0.0,0.0,0.0,-0.0161355395198633,-0.7131983825824786,0.0038015545899847,0.0,0.0,0.0,0.0,0.0,0.0,0.0,0.0,0.0
1.65,2.346685860398604,-0.003098087849805,0.0031470114553588,-0.003043692065447967,2.356448699358748,0.16681360035143317,-0.11798500944039711,0.1179250389423598,4.197271321561017e-05,0.8906742925760366,-8.164192046214663e-05,-0.003928976507185422,0.003926828064453682,1.3976913500798188e-06,43.0,1.0,622000000.0,odom,base_footprint,-0.0073762923880993,0.0073778546078625,-0.0010026516899767,-0.0035641414978724,0.0014823251113421,0.9225187930671191,0.3859328646871539,"(1e-05, 0.0, 0.0, 0.0, 0.0, 0.0, 0.0, 1e-05, 0.0, 0.0, 0.0, 0.0, 0.0, 0.0, 1000000000000.0, 0.0, 0.0, 0.0, 0.0, 0.0, 0.0, 1000000000000.0, 0.0, 0.0, 0.0, 0.0, 0.0, 0.0, 1000000000000.0, 0.0, 0.0, 0.0, 0.0, 0.0, 0.0, 0.001)",0.12307512344498,3.736722253461916e-05,0.0,0.0,0.0,-0.0844038413682835,"(0.0, 0.0, 0.0, 0.0, 0.0, 0.0, 0.0, 0.0, 0.0, 0.0, 0.0, 0.0, 0.0, 0.0, 0.0, 0.0, 0.0, 0.0, 0.0, 0.0, 0.0, 0.0, 0.0, 0.0, 0.0, 0.0, 0.0, 0.0, 0.0, 0.0, 0.0, 0.0, 0.0, 0.0, 0.0, 0.0)",0.2084210515022277,3.959131208830513e-05,0.0,0.0,0.0,0.0385957770049572,42,1,650000000,base_footprint,-0.0035637916429649,0.0014872722271537,0.9220428373940338,0.3870685900726218,0.0,0.0,0.0,0.0,0.0,0.0,0.0,0.0,0.0,0.0003468950810329,-0.0005751947871983,-0.0971239909983498,0.0,0.0,0.0,0.0,0.0,0.0,0.0,0.0,0.0,-0.0232787930257608,-0.6537227913047277,0.0033944657579644,0.0,0.0,0.0,0.0,0.0,0.0,0.0,0.0,0.0
1.6840000000000002,2.343123970858281,-0.0035786582698622005,0.0036596024566748,-0.0035618895403226603,2.3564500970500983,0.20017665880122307,-0.14158244844729925,0.14151008805201534,3.87969139337441e-05,1.0018936471408377,-9.536934780378591e-05,-0.004714786115946325,0.004712195302320176,1.2919372339936786e-06,44.0,1.0,655000000.0,odom,base_footprint,-0.0104785081401758,0.0105328950060846,-0.0010028861363137,-0.003563802583385,0.0014885118911488,0.9219282138534084,0.3873415187461325,"(1e-05, 0.0, 0.0, 0.0, 0.0, 0.0, 0.0, 1e-05, 0.0, 0.0, 0.0, 0.0, 0.0, 0.0, 1000000000000.0, 0.0, 0.0, 0.0, 0.0, 0.0, 0.0, 1000000000000.0, 0.0, 0.0, 0.0, 0.0, 0.0, 0.0, 1000000000000.0, 0.0, 0.0, 0.0, 0.0, 0.0, 0.0, 0.001)",0.1441233957723205,2.8404388512134893e-05,0.0,0.0,0.0,-0.0997703730450157,"(0.0, 0.0, 0.0, 0.0, 0.0, 0.0, 0.0, 0.0, 0.0, 0.0, 0.0, 0.0, 0.0, 0.0, 0.0, 0.0, 0.0, 0.0, 0.0, 0.0, 0.0, 0.0, 0.0, 0.0, 0.0, 0.0, 0.0, 0.0, 0.0, 0.0, 0.0, 0.0, 0.0, 0.0, 0.0, 0.0)",0.2084210515022277,3.959131208830513e-05,0.0,0.0,0.0,0.0385957770049572,43,1,684000000,base_footprint,-0.0035632627967279,0.0014945834002958,0.9213520193301268,0.3887100794358165,0.0,0.0,0.0,0.0,0.0,0.0,0.0,0.0,0.0,0.0005234345115965,-0.0006697722956502,-0.1118152970402088,0.0,0.0,0.0,0.0,0.0,0.0,0.0,0.0,0.0,-0.0292335160026532,-0.5549141430566029,0.0028107630211706,0.0,0.0,0.0,0.0,0.0,0.0,0.0,0.0,0.0
1.718,2.339073340757029,-0.0039570789894006995,0.004077536025033898,-0.00405063010125195,2.356451388987332,0.21279859429772854,-0.15050997999225052,0.15043266818687231,0.03944096153411297,0.3790371019971614,1.183248186792169,-0.005015363526954961,0.0050060219138481285,0.001313384019085962,45.0,1.0,689000000.0,odom,base_footprint,-0.0141322120193247,0.0142740190080072,-0.0010031270992778,-0.0035631437390485,0.0014959883554056,0.9212198499734195,0.3890232050154407,"(1e-05, 0.0, 0.0, 0.0, 0.0, 0.0, 0.0, 1e-05, 0.0, 0.0, 0.0, 0.0, 0.0, 0.0, 1000000000000.0, 0.0, 0.0, 0.0, 0.0, 0.0, 0.0, 1000000000000.0, 0.0, 0.0, 0.0, 0.0, 0.0, 0.0, 1000000000000.0, 0.0, 0.0, 0.0, 0.0, 0.0, 0.0, 0.001)",0.1622675295146295,2.860541818129614e-05,0.0,0.0,0.0,-0.1143450163644399,"(0.0, 0.0, 0.0, 0.0, 0.0, 0.0, 0.0, 0.0, 0.0, 0.0, 0.0, 0.0, 0.0, 0.0, 0.0, 0.0, 0.0, 0.0, 0.0, 0.0, 0.0, 0.0, 0.0, 0.0, 0.0, 0.0, 0.0, 0.0, 0.0, 0.0, 0.0, 0.0, 0.0, 0.0, 0.0, 0.0)",0.2084210515022277,3.959131208830513e-05,0.0,0.0,0.0,0.0385957770049572,44,1,718000000,base_footprint,-0.0035622774766798,0.0015029165916072,0.9205628612410858,0.3905753063424816,0.0,0.0,0.0,0.0,0.0,0.0,0.0,0.0,0.0,0.0006026656008736,-0.0007625354958916,-0.1259763204457961,0.0,0.0,0.0,0.0,0.0,0.0,0.0,0.0,0.0,-0.0332210182236818,-0.4162235942737431,0.0021444004264271,0.0,0.0,0.0,0.0,0.0,0.0,0.0,0.0,0.0
1.752,2.3345451052976283,-0.0042047963608722,0.004371979305621103,-0.004528235459400952,2.3577647730064184,0.20654005234641765,-0.1462750247697193,0.1458163583137329,0.038273092743401314,-0.18794420274206897,-0.03507113485620595,-0.004874141420567966,0.004852488869283087,0.001274493988355264,45.0,1.0,689000000.0,odom,base_footprint,-0.0141322120193247,0.0142740190080072,-0.0010031270992778,-0.0035631437390485,0.0014959883554056,0.9212198499734195,0.3890232050154407,"(1e-05, 0.0, 0.0, 0.0, 0.0, 0.0, 0.0, 1e-05, 0.0, 0.0, 0.0, 0.0, 0.0, 0.0, 1000000000000.0, 0.0, 0.0, 0.0, 0.0, 0.0, 0.0, 1000000000000.0, 0.0, 0.0, 0.0, 0.0, 0.0, 0.0, 1000000000000.0, 0.0, 0.0, 0.0, 0.0, 0.0, 0.0, 0.001)",0.1622675295146295,2.860541818129614e-05,0.0,0.0,0.0,-0.1143450163644399,"(0.0, 0.0, 0.0, 0.0, 0.0, 0.0, 0.0, 0.0, 0.0, 0.0, 0.0, 0.0, 0.0, 0.0, 0.0, 0.0, 0.0, 0.0, 0.0, 0.0, 0.0, 0.0, 0.0, 0.0, 0.0, 0.0, 0.0, 0.0, 0.0, 0.0, 0.0, 0.0, 0.0, 0.0, 0.0, 0.0)",0.1852631568908691,2.860541826521512e-05,0.0,0.0,0.0,0.0743729397654533,45,1,752000000,base_footprint,-0.0035596556092301,0.0015120073038786,0.9196761890341272,0.3926585667084329,0.0,0.0,0.0,0.0,0.0,0.0,0.0,0.0,0.0,0.0004709218253459,-0.0008807605241921,-0.1399743434421223,0.0,0.0,0.0,0.0,0.0,0.0,0.0,0.0,0.0,-0.0368959340800525,-0.2462839488896946,0.0015875568536807,0.0,0.0,0.0,0.0,0.0,0.0,0.0,0.0,0.0
1.786,2.3308970129851954,-0.0042546042214396985,0.004464764882356299,-0.0036480923124329045,2.359039266994773,0.20654031361513045,-0.14646093326137083,0.14562999751577532,0.03826178927788381,7.84590729139365e-06,-0.00033944340893404557,-0.004880327189782536,0.004846279915108701,0.0012741175829535311,47.0,1.0,755000000.0,odom,base_footprint,-0.0221239099848772,0.0225583525514974,-0.0010033300825417,-0.0035590284802685,0.0015130820526195,0.9195654242468456,0.3929178978217939,"(1e-05, 0.0, 0.0, 0.0, 0.0, 0.0, 0.0, 1e-05, 0.0, 0.0, 0.0, 0.0, 0.0, 0.0, 1000000000000.0, 0.0, 0.0, 0.0, 0.0, 0.0, 0.0, 1000000000000.0, 0.0, 0.0, 0.0, 0.0, 0.0, 0.0, 1000000000000.0, 0.0, 0.0, 0.0, 0.0, 0.0, 0.0, 0.001)",0.182560459089362,-9.08719450147949e-05,0.0,0.0,0.0,-0.1416126190840276,"(0.0, 0.0, 0.0, 0.0, 0.0, 0.0, 0.0, 0.0, 0.0, 0.0, 0.0, 0.0, 0.0, 0.0, 0.0, 0.0, 0.0, 0.0, 0.0, 0.0, 0.0, 0.0, 0.0, 0.0, 0.0, 0.0, 0.0, 0.0, 0.0, 0.0, 0.0, 0.0, 0.0, 0.0, 0.0, 0.0)",0.1852631568908691,2.860541826521512e-05,0.0,0.0,0.0,0.0743729397654533,46,1,786000000,base_footprint,-0.0035560590462854,0.0015180067736625,0.9189584357257324,0.3943354454116565,0.0,0.0,0.0,0.0,0.0,0.0,0.0,0.0,0.0,0.0008592990918932,0.0006719982055796,-0.0798090534445868,0.0,0.0,0.0,0.0,0.0,0.0,0.0,0.0,0.0,-0.0158210480125108,0.0585097209066381,-0.0027104041120711,0.0,0.0,0.0,0.0,0.0,0.0,0.0,0.0,0.0
1.82,2.328316964298339,-0.0041848610414171004,0.004405153537573099,-0.002580048686856351,2.3603133845777267,0.18271196810049817,-0.12972792248265788,0.1286636289535274,0.035133043789995655,-0.7155659313703387,-0.09395632095760227,-0.004322524659917842,0.004281890554939698,0.0011699303582068555,48.0,1.0,789000000.0,odom,base_footprint,-0.026369979076429,0.0270173793974776,-0.0010032507134151,-0.0035571522934912,0.0015170206927335,0.9188964813807112,0.3944797863286876,"(1e-05, 0.0, 0.0, 0.0, 0.0, 0.0, 0.0, 1e-05, 0.0, 0.0, 0.0, 0.0, 0.0, 0.0, 1000000000000.0, 0.0, 0.0, 0.0, 0.0, 0.0, 0.0, 1000000000000.0, 0.0, 0.0, 0.0, 0.0, 0.0, 0.0, 1000000000000.0, 0.0, 0.0, 0.0, 0.0, 0.0, 0.0, 0.001)",0.1797092538265581,8.515950462056887e-06,0.0,0.0,0.0,-0.0777291996738221,"(0.0, 0.0, 0.0, 0.0, 0.0, 0.0, 0.0, 0.0, 0.0, 0.0, 0.0, 0.0, 0.0, 0.0, 0.0, 0.0, 0.0, 0.0, 0.0, 0.0, 0.0, 0.0, 0.0, 0.0, 0.0, 0.0, 0.0, 0.0, 0.0, 0.0, 0.0, 0.0, 0.0, 0.0, 0.0, 0.0)",0.1852631568908691,2.860541826521512e-05,0.0,0.0,0.0,0.0743729397654533,47,1,820000000,base_footprint,-0.0035578317419854,0.0015095914613946,0.9184489953101164,0.3955205506427614,0.0,0.0,0.0,0.0,0.0,0.0,0.0,0.0,0.0,4.583966274485183e-06,-0.0009973857183491,-0.0664687310856577,0.0,0.0,0.0,0.0,0.0,0.0,0.0,0.0,0.0,-0.0009888640132486,0.0688412239822684,0.0027404840031325,0.0,0.0,0.0,0.0,0.0,0.0,0.0,0.0,0.0
1.854,2.3274160698183755,-0.004126611753643199,0.004363351922874199,-0.0009008944799635542,2.361483314935934,0.18356137869321063,-0.1304821533222551,0.12910920730970268,0.07362464817898945,0.0255078256069807,1.1559040357055193,-0.004350401461492482,0.004293925095142566,0.002451700784360349,49.0,1.0,822000000.0,odom,base_footprint,-0.0304257776841775,0.0312875765474151,-0.0010030349549899,-0.0035570633693151,0.0015098869489098,0.918411867454209,0.3956067608887145,"(1e-05, 0.0, 0.0, 0.0, 0.0, 0.0, 0.0, 1e-05, 0.0, 0.0, 0.0, 0.0, 0.0, 0.0, 1000000000000.0, 0.0, 0.0, 0.0, 0.0, 0.0, 0.0, 1000000000000.0, 0.0, 0.0, 0.0, 0.0, 0.0, 0.0, 1000000000000.0, 0.0, 0.0, 0.0, 0.0, 0.0, 0.0, 0.001)",0.1774713036131088,0.0002354469189262,0.0,0.0,0.0,-0.060478911285311,"(0.0, 0.0, 0.0, 0.0, 0.0, 0.0, 0.0, 0.0, 0.0, 0.0, 0.0, 0.0, 0.0, 0.0, 0.0, 0.0, 0.0, 0.0, 0.0, 0.0, 0.0, 0.0, 0.0, 0.0, 0.0, 0.0, 0.0, 0.0, 0.0, 0.0, 0.0, 0.0, 0.0, 0.0, 0.0, 0.0)",0.2199999988079071,8.515950867149513e-06,0.0,0.0,0.0,0.0781682282686233,48,1,854000000,base_footprint,-0.0035550868911828,0.0015135079443679,0.9182707400165788,0.3959342352971047,0.0,0.0,0.0,0.0,0.0,0.0,0.0,0.0,0.0,6.522154442910159e-05,0.0005303071959545,-0.0022455428973346,0.0,0.0,0.0,0.0,0.0,0.0,0.0,0.0,0.0,-0.011812048765386,0.0133739396894721,-0.0025171027800802,0.0,0.0,0.0,0.0,0.0,0.0,0.0,0.0,0.0
1.888,2.327419075446425,-0.004226499313277503,0.004471874495086403,3.005628049557174e-06,2.3639350157202945,0.18344830515567825,-0.13071772643877855,0.12870958262370175,0.07554672266944709,-0.00339560172769883,0.05771995466839767,-0.004358366408380906,0.004280468311414235,0.0025157058648925886,50.0,1.0,855000000.0,odom,base_footprint,-0.0344296301204165,0.0355225566599703,-0.0010031417097465,-0.0035555552580621,0.0015131964864485,0.9182699992567755,0.3959359502850959,"(1e-05, 0.0, 0.0, 0.0, 0.0, 0.0, 0.0, 1e-05, 0.0, 0.0, 0.0, 0.0, 0.0, 0.0, 1000000000000.0, 0.0, 0.0, 0.0, 0.0, 0.0, 0.0, 1000000000000.0, 0.0, 0.0, 0.0, 0.0, 0.0, 0.0, 1000000000000.0, 0.0, 0.0, 0.0, 0.0, 0.0, 0.0, 0.001)",0.1775557203802709,-2.4436416663775606e-06,0.0,0.0,0.0,-0.0014168568467703,"(0.0, 0.0, 0.0, 0.0, 0.0, 0.0, 0.0, 0.0, 0.0, 0.0, 0.0, 0.0, 0.0, 0.0, 0.0, 0.0, 0.0, 0.0, 0.0, 0.0, 0.0, 0.0, 0.0, 0.0, 0.0, 0.0, 0.0, 0.0, 0.0, 0.0, 0.0, 0.0, 0.0, 0.0, 0.0, 0.0)",0.2199999988079071,8.515950867149513e-06,0.0,0.0,0.0,0.0781682282686233,49,1,888000000,base_footprint,-0.0035421507467446,0.0015172284083981,0.9182713588990966,0.3959329016533616,0.0,0.0,0.0,0.0,0.0,0.0,0.0,0.0,0.0,-0.0002824922639036,-2.906832223854184e-05,0.0018442589365044,0.0,0.0,0.0,0.0,0.0,0.0,0.0,0.0,0.0,-0.0116167792551205,-0.238289094330022,0.0025640674057222,0.0,0.0,0.0,0.0,0.0,0.0,0.0,0.0,0.0
1.9220000000000002,2.3275258944117647,-0.0044770379130653,0.004739970063983197,0.00010681896533970558,2.367667346591768,0.2180173538942021,-0.1559200381163516,0.1523827690811045,0.0774853264406968,0.04142324724864637,1.2297309596926729,-0.005198772213517115,0.005067545472446469,0.002580261370475204,50.0,1.0,855000000.0,odom,base_footprint,-0.0344296301204165,0.0355225566599703,-0.0010031417097465,-0.0035555552580621,0.0015131964864485,0.9182699992567755,0.3959359502850959,"(1e-05, 0.0, 0.0, 0.0, 0.0, 0.0, 0.0, 1e-05, 0.0, 0.0, 0.0, 0.0, 0.0, 0.0, 1000000000000.0, 0.0, 0.0, 0.0, 0.0, 0.0, 0.0, 1000000000000.0, 0.0, 0.0, 0.0, 0.0, 0.0, 0.0, 1000000000000.0, 0.0, 0.0, 0.0, 0.0, 0.0, 0.0, 0.001)",0.1775557203802709,-2.4436416663775606e-06,0.0,0.0,0.0,-0.0014168568467703,"(0.0, 0.0, 0.0, 0.0, 0.0, 0.0, 0.0, 0.0, 0.0, 0.0, 0.0, 0.0, 0.0, 0.0, 0.0, 0.0, 0.0, 0.0, 0.0, 0.0, 0.0, 0.0, 0.0, 0.0, 0.0, 0.0, 0.0, 0.0, 0.0, 0.0, 0.0, 0.0, 0.0, 0.0, 0.0, 0.0)",0.2199999988079071,8.515950867149513e-06,0.0,0.0,0.0,0.0781682282686233,50,1,922000000,base_footprint,-0.0035418980885597,0.0015169300686308,0.9182925053483728,0.3958838573396316,0.0,0.0,0.0,0.0,0.0,0.0,0.0,0.0,0.0,-0.0002103846906722,-1.1498129866542654e-05,0.0042597532389117,0.0,0.0,0.0,0.0,0.0,0.0,0.0,0.0,0.0,-0.0223518307146619,-0.3892131819182732,0.0019693627861835,0.0,0.0,0.0,0.0,0.0,0.0,0.0,0.0,0.0
1.956,2.327766446434652,-0.004839438004807399,0.005123038689713699,0.00024055202288719713,2.370247607962243,0.21786940298605664,-0.15620662910663355,0.15187681120119484,0.07933659626345693,-0.004442970214578243,0.05559368837117497,-0.005208449241219955,0.005050523995804026,0.0026419086555731163,52.0,1.0,922000000.0,odom,base_footprint,-0.0430262083161114,0.0446209845445036,-0.0010016427739957,-0.0035419016279527,0.0015169240680384,0.918293359498906,0.3958818760368335,"(1e-05, 0.0, 0.0, 0.0, 0.0, 0.0, 0.0, 1e-05, 0.0, 0.0, 0.0, 0.0, 0.0, 0.0, 1000000000000.0, 0.0, 0.0, 0.0, 0.0, 0.0, 0.0, 1000000000000.0, 0.0, 0.0, 0.0, 0.0, 0.0, 0.0, 1000000000000.0, 0.0, 0.0, 0.0, 0.0, 0.0, 0.0, 0.001)",0.1990904723597091,3.508229934343077e-05,0.0,0.0,0.0,0.0043164119194479,"(0.0, 0.0, 0.0, 0.0, 0.0, 0.0, 0.0, 0.0, 0.0, 0.0, 0.0, 0.0, 0.0, 0.0, 0.0, 0.0, 0.0, 0.0, 0.0, 0.0, 0.0, 0.0, 0.0, 0.0, 0.0, 0.0, 0.0, 0.0, 0.0, 0.0, 0.0, 0.0, 0.0, 0.0, 0.0, 0.0)",0.2199999988079071,3.508229929138906e-05,0.0,0.0,0.0,0.0617523044347763,51,1,956000000,base_footprint,-0.0035524472114792,0.0015156420426807,0.9183400889817512,0.3957733744417349,0.0,0.0,0.0,0.0,0.0,0.0,0.0,0.0,0.0,0.0011761614216057,0.0008147153496644,0.0261809393760218,0.0,0.0,0.0,0.0,0.0,0.0,0.0,0.0,0.0,-0.0249551890876263,-0.4848095153238042,2.853711125819041e-05,0.0,0.0,0.0,0.0,0.0,0.0,0.0,0.0,0.0
1.9900000000000002,2.329703128738703,-0.0051094463535032025,0.005398336533725005,0.001936682304051196,2.3728895166178168,0.22421059959441755,-0.16116546182133695,0.1558720208581496,0.06474900866735095,0.1904263245754027,-0.43806569357675623,-0.005372497801798097,0.005184648670323371,0.002156141988622787,54.0,1.0,989000000.0,odom,base_footprint,-0.0528383919774276,0.0549976346953617,-0.0010027577289935,-0.0035530641214049,0.0015161554309113,0.918722893233208,0.3948839354256666,"(1e-05, 0.0, 0.0, 0.0, 0.0, 0.0, 0.0, 1e-05, 0.0, 0.0, 0.0, 0.0, 0.0, 0.0, 1000000000000.0, 0.0, 0.0, 0.0, 0.0, 0.0, 0.0, 1000000000000.0, 0.0, 0.0, 0.0, 0.0, 0.0, 0.0, 1000000000000.0, 0.0, 0.0, 0.0, 0.0, 0.0, 0.0, 0.001)",0.21918641768953,1.1093580317769748e-05,0.0,0.0,0.0,0.0626460692185447,"(0.0, 0.0, 0.0, 0.0, 0.0, 0.0, 0.0, 0.0, 0.0, 0.0, 0.0, 0.0, 0.0, 0.0, 0.0, 0.0, 0.0, 0.0, 0.0, 0.0, 0.0, 0.0, 0.0, 0.0, 0.0, 0.0, 0.0, 0.0, 0.0, 0.0, 0.0, 0.0, 0.0, 0.0, 0.0, 0.0)",0.2199999988079071,3.508229929138906e-05,0.0,0.0,0.0,0.0617523044347763,52,1,990000000,base_footprint,-0.0035530641214049,0.0015161554309113,0.918722893233208,0.3948839354256666,0.0,0.0,0.0,0.0,0.0,0.0,0.0,0.0,0.0,-0.0008061158269594,0.0002896577786217,0.0626420215538155,0.0,0.0,0.0,0.0,0.0,0.0,0.0,0.0,0.0,0.003968249126756,-0.1196011149219331,0.003747657135107,0.0,0.0,0.0,0.0,0.0,0.0,0.0,0.0,0.0
2.024,2.3318288033281873,-0.005136170876890098,0.0054038666516237,0.002125674589484205,2.3750456586064397,0.2178299300508952,-0.15690510815128492,0.1510981980766531,0.061992447758659426,-0.19161169800367397,-0.08277960686761329,-0.005230223214648348,0.005026076215805768,0.002064348510363359,54.0,1.0,989000000.0,odom,base_footprint,-0.0528383919774276,0.0549976346953617,-0.0010027577289935,-0.0035530641214049,0.0015161554309113,0.918722893233208,0.3948839354256666,"(1e-05, 0.0, 0.0, 0.0, 0.0, 0.0, 0.0, 1e-05, 0.0, 0.0, 0.0, 0.0, 0.0, 0.0, 1000000000000.0, 0.0, 0.0, 0.0, 0.0, 0.0, 0.0, 1000000000000.0, 0.0, 0.0, 0.0, 0.0, 0.0, 0.0, 1000000000000.0, 0.0, 0.0, 0.0, 0.0, 0.0, 0.0, 0.001)",0.21918641768953,1.1093580317769748e-05,0.0,0.0,0.0,0.0626460692185447,"(0.0, 0.0, 0.0, 0.0, 0.0, 0.0, 0.0, 0.0, 0.0, 0.0, 0.0, 0.0, 0.0, 0.0, 0.0, 0.0, 0.0, 0.0, 0.0, 0.0, 0.0, 0.0, 0.0, 0.0, 0.0, 0.0, 0.0, 0.0, 0.0, 0.0, 0.0, 0.0, 0.0, 0.0, 0.0, 0.0)",0.2199999988079071,3.508229929138906e-05,0.0,0.0,0.0,0.0617523044347763,53,2,24000000,base_footprint,-0.0035527888438508,0.0015122755886475,0.919142076928794,0.3939072646359776,0.0,0.0,0.0,0.0,0.0,0.0,0.0,0.0,0.0,-0.0005745601044646,0.0002852892521196,0.0623981468324436,0.0,0.0,0.0,0.0,0.0,0.0,0.0,0.0,0.0,0.0132021550632997,-0.0061674646470562,-0.0002312610671015,0.0,0.0,0.0,0.0,0.0,0.0,0.0,0.0,0.0
2.058,2.3339455850578714,-0.005149843412804604,0.005395342592249101,0.002116781729684103,2.3771100071168028,0.21801244777087753,-0.15734842338081115,0.15090030166511467,0.061726057911912685,0.005481012612081589,-0.007999695097499728,-0.005244956421245743,0.005019494029635673,0.0020554777284666928,55.0,2.0,22000000.0,odom,base_footprint,-0.0578232712562211,0.0602426515150262,-0.0010025224314621,-0.0035527698051454,0.0015123809103945,0.91912978822621,0.3939359375912988,"(1e-05, 0.0, 0.0, 0.0, 0.0, 0.0, 0.0, 1e-05, 0.0, 0.0, 0.0, 0.0, 0.0, 0.0, 1000000000000.0, 0.0, 0.0, 0.0, 0.0, 0.0, 0.0, 1000000000000.0, 0.0, 0.0, 0.0, 0.0, 0.0, 0.0, 1000000000000.0, 0.0, 0.0, 0.0, 0.0, 0.0, 0.0, 0.001)",0.2193677206449395,3.7325679193012103e-06,0.0,0.0,0.0,0.0624090355074197,"(0.0, 0.0, 0.0, 0.0, 0.0, 0.0, 0.0, 0.0, 0.0, 0.0, 0.0, 0.0, 0.0, 0.0, 0.0, 0.0, 0.0, 0.0, 0.0, 0.0, 0.0, 0.0, 0.0, 0.0, 0.0, 0.0, 0.0, 0.0, 0.0, 0.0, 0.0, 0.0, 0.0, 0.0, 0.0, 0.0)",0.1968421041965484,1.109358072426403e-05,0.0,0.0,0.0,0.0872614607214927,54,2,58000000,base_footprint,-0.0035600486307385,0.0015112586004828,0.9195584471347356,0.3929342240812612,0.0,0.0,0.0,0.0,0.0,0.0,0.0,0.0,0.0,0.0055217938299637,0.0002106780512967,0.0624847316558038,0.0,0.0,0.0,0.0,0.0,0.0,0.0,0.0,0.0,0.0168833651622594,0.0561765601952343,-0.0064387838878158,0.0,0.0,0.0,0.0,0.0,0.0,0.0,0.0,0.0
2.092,2.3361638031726577,-0.004735498329760696,0.004939795176299999,0.0022182181147862856,2.3791654848452697,0.19305179573156134,-0.1396076741960448,0.13333676590030033,0.061659152503153195,-0.7495691303097954,-0.002009171434218936,-0.004653573007848824,0.004435252025898341,0.0020532497783550016,56.0,2.0,55000000.0,odom,base_footprint,-0.0628231609073237,0.0654819073119977,-0.0010025026459188,-0.0035540675926889,0.0015091217991655,0.9195339662157384,0.392991572594751,"(1e-05, 0.0, 0.0, 0.0, 0.0, 0.0, 0.0, 1e-05, 0.0, 0.0, 0.0, 0.0, 0.0, 0.0, 1000000000000.0, 0.0, 0.0, 0.0, 0.0, 0.0, 0.0, 1000000000000.0, 0.0, 0.0, 0.0, 0.0, 0.0, 0.0, 1000000000000.0, 0.0, 0.0, 0.0, 0.0, 0.0, 0.0, 0.001)",0.2195580609538287,1.4734299431801157e-06,0.0,0.0,0.0,0.0621283404612249,"(0.0, 0.0, 0.0, 0.0, 0.0, 0.0, 0.0, 0.0, 0.0, 0.0, 0.0, 0.0, 0.0, 0.0, 0.0, 0.0, 0.0, 0.0, 0.0, 0.0, 0.0, 0.0, 0.0, 0.0, 0.0, 0.0, 0.0, 0.0, 0.0, 0.0, 0.0, 0.0, 0.0, 0.0, 0.0, 0.0)",0.1968421041965484,1.109358072426403e-05,0.0,0.0,0.0,0.0872614607214927,55,2,92000000,base_footprint,-0.0035569180430381,0.0015058868708697,0.919993705184302,0.3919141016345638,0.0,0.0,0.0,0.0,0.0,0.0,0.0,0.0,0.0,-0.0042495512061428,-7.857396911339649e-05,0.0606335663666748,0.0,0.0,0.0,0.0,0.0,0.0,0.0,0.0,0.0,0.0430819164730866,0.7856837208533789,0.0047548982855027,0.0,0.0,0.0,0.0,0.0,0.0,0.0,0.0,0.0
2.126,2.338934588800023,-0.004616268979236504,0.004793016579206402,0.002770785627365324,2.3812187346236247,0.19524478864353853,-0.141470148613455,0.13456122971995685,0.0866701882602739,0.0658556430023181,0.7510821548684894,-0.004717498702865903,0.004473996912972318,0.002886117269067121,56.0,2.0,55000000.0,odom,base_footprint,-0.0628231609073237,0.0654819073119977,-0.0010025026459188,-0.0035540675926889,0.0015091217991655,0.9195339662157384,0.392991572594751,"(1e-05, 0.0, 0.0, 0.0, 0.0, 0.0, 0.0, 1e-05, 0.0, 0.0, 0.0, 0.0, 0.0, 0.0, 1000000000000.0, 0.0, 0.0, 0.0, 0.0, 0.0, 0.0, 1000000000000.0, 0.0, 0.0, 0.0, 0.0, 0.0, 0.0, 1000000000000.0, 0.0, 0.0, 0.0, 0.0, 0.0, 0.0, 0.001)",0.2195580609538287,1.4734299431801157e-06,0.0,0.0,0.0,0.0621283404612249,"(0.0, 0.0, 0.0, 0.0, 0.0, 0.0, 0.0, 0.0, 0.0, 0.0, 0.0, 0.0, 0.0, 0.0, 0.0, 0.0, 0.0, 0.0, 0.0, 0.0, 0.0, 0.0, 0.0, 0.0, 0.0, 0.0, 0.0, 0.0, 0.0, 0.0, 0.0, 0.0, 0.0, 0.0, 0.0, 0.0)",0.1968421041965484,1.109358072426403e-05,0.0,0.0,0.0,0.0872614607214927,56,2,126000000,base_footprint,-0.0035612868578663,0.0015020781137669,0.920535767871791,0.3906391699074075,0.0,0.0,0.0,0.0,0.0,0.0,0.0,0.0,0.0,-0.0004816342076467,0.0004203852252367,0.0870949730335971,0.0,0.0,0.0,0.0,0.0,0.0,0.0,0.0,0.0,0.0108869496715923,-0.1718458165097091,-0.0021328170232958,0.0,0.0,0.0,0.0,0.0,0.0,0.0,0.0,0.0
2.16,2.3418787535459105,-0.004654796231280095,0.004804892764892599,0.0029441647458874347,2.3841048518926917,0.19553961916593549,-0.14207213173366198,0.13435494798559552,0.0861789522522386,0.008853769441349997,-0.01475183207313215,-0.004737498153840871,0.004467137207010758,0.0028697591099995454,58.0,2.0,122000000.0,odom,base_footprint,-0.0720666857532122,0.0751056128758649,-0.0010029661101178,-0.0035608129285863,0.0015023976934642,0.9204847284120472,0.3907594249313226,"(1e-05, 0.0, 0.0, 0.0, 0.0, 0.0, 0.0, 1e-05, 0.0, 0.0, 0.0, 0.0, 0.0, 0.0, 1000000000000.0, 0.0, 0.0, 0.0, 0.0, 0.0, 0.0, 1000000000000.0, 0.0, 0.0, 0.0, 0.0, 0.0, 0.0, 1000000000000.0, 0.0, 0.0, 0.0, 0.0, 0.0, 0.0, 0.001)",0.1965014952663141,-1.9563949095829924e-05,0.0,0.0,0.0,0.0871183574907872,"(0.0, 0.0, 0.0, 0.0, 0.0, 0.0, 0.0, 0.0, 0.0, 0.0, 0.0, 0.0, 0.0, 0.0, 0.0, 0.0, 0.0, 0.0, 0.0, 0.0, 0.0, 0.0, 0.0, 0.0, 0.0, 0.0, 0.0, 0.0, 0.0, 0.0, 0.0, 0.0, 0.0, 0.0, 0.0, 0.0)",0.2199999988079071,0.0,0.0,0.0,0.0,0.1281439960002899,57,2,160000000,base_footprint,-0.0035643785426819,0.0014970125054671,0.921109820411959,0.3892836406783771,0.0,0.0,0.0,0.0,0.0,0.0,0.0,0.0,0.0,-0.0018413975446045,0.0005368601424177,0.0823667421404157,0.0,0.0,0.0,0.0,0.0,0.0,0.0,0.0,0.0,0.0137118632125291,-0.0770830435716309,0.0050463717903501,0.0,0.0,0.0,0.0,0.0,0.0,0.0,0.0,0.0
2.194,2.3446562708322576,-0.004926497929551604,0.005056372045893098,0.0027775172863471194,2.3869746110026915,0.21611988798664147,-0.15745052246950364,0.14804438171520995,0.1032156820602232,0.6180260907118915,0.5116135077472855,-0.005251655677136249,0.004920760168582562,0.003437082212605433,58.0,2.0,122000000.0,odom,base_footprint,-0.0720666857532122,0.0751056128758649,-0.0010029661101178,-0.0035608129285863,0.0015023976934642,0.9204847284120472,0.3907594249313226,"(1e-05, 0.0, 0.0, 0.0, 0.0, 0.0, 0.0, 1e-05, 0.0, 0.0, 0.0, 0.0, 0.0, 0.0, 1000000000000.0, 0.0, 0.0, 0.0, 0.0, 0.0, 0.0, 1000000000000.0, 0.0, 0.0, 0.0, 0.0, 0.0, 0.0, 1000000000000.0, 0.0, 0.0, 0.0, 0.0, 0.0, 0.0, 0.001)",0.1965014952663141,-1.9563949095829924e-05,0.0,0.0,0.0,0.0871183574907872,"(0.0, 0.0, 0.0, 0.0, 0.0, 0.0, 0.0, 0.0, 0.0, 0.0, 0.0, 0.0, 0.0, 0.0, 0.0, 0.0, 0.0, 0.0, 0.0, 0.0, 0.0, 0.0, 0.0, 0.0, 0.0, 0.0, 0.0, 0.0, 0.0, 0.0, 0.0, 0.0, 0.0, 0.0, 0.0, 0.0)",0.2199999988079071,0.0,0.0,0.0,0.0,0.1281439960002899,58,2,194000000,base_footprint,-0.0035704972030031,0.0014914789288351,0.9216495436847674,0.3880040536721084,0.0,0.0,0.0,0.0,0.0,0.0,0.0,0.0,0.0,4.6467452601733125e-06,-0.0004332750468227,0.0977428251037854,0.0,0.0,0.0,0.0,0.0,0.0,0.0,0.0,0.0,0.0063433743052997,-0.4212562623489331,0.0004170670074912,0.0,0.0,0.0,0.0,0.0,0.0,0.0,0.0,0.0
2.228,2.348453819131695,-0.0051925883873013,0.005297231785704598,0.0037975482994374583,2.3904116932152966,0.21825347764261022,-0.1595178373550028,0.14895851794602494,0.12459436119901879,0.06407176144050278,0.6420023765404078,-0.005322310831572702,0.004949185954597321,0.004148992227927326,60.0,2.0,189000000.0,odom,base_footprint,-0.0814631691442686,0.0847822008220149,-0.0010034724417514,-0.0035690661491919,0.0014907827250309,0.9215719296231686,0.3881883793524982,"(1e-05, 0.0, 0.0, 0.0, 0.0, 0.0, 0.0, 1e-05, 0.0, 0.0, 0.0, 0.0, 0.0, 0.0, 1000000000000.0, 0.0, 0.0, 0.0, 0.0, 0.0, 0.0, 1000000000000.0, 0.0, 0.0, 0.0, 0.0, 0.0, 0.0, 1000000000000.0, 0.0, 0.0, 0.0, 0.0, 0.0, 0.0, 0.001)",0.2115462519703447,-1.0493858588894732e-05,0.0,0.0,0.0,0.1037773490412349,"(0.0, 0.0, 0.0, 0.0, 0.0, 0.0, 0.0, 0.0, 0.0, 0.0, 0.0, 0.0, 0.0, 0.0, 0.0, 0.0, 0.0, 0.0, 0.0, 0.0, 0.0, 0.0, 0.0, 0.0, 0.0, 0.0, 0.0, 0.0, 0.0, 0.0, 0.0, 0.0, 0.0, 0.0, 0.0, 0.0)",0.2199999988079071,0.0,0.0,0.0,0.0,0.1281439960002899,59,2,228000000,base_footprint,-0.0035788769966776,0.001487723305321,0.9223845904663204,0.3862533437901711,0.0,0.0,0.0,0.0,0.0,0.0,0.0,0.0,0.0,0.000200264425082,-9.270002841160058e-05,0.1277467388271259,0.0,0.0,0.0,0.0,0.0,0.0,0.0,0.0,0.0,0.0177106027818762,-0.1850271732584225,-0.0032900763138183,0.0,0.0,0.0,0.0,0.0,0.0,0.0,0.0,0.0
2.262,2.3526407902817463,-0.0052422836546702906,0.0053073835088914,0.0041869711500512885,2.394560685443224,0.21848035883111358,-0.16030095505361427,0.14844955710230762,0.1248064334283851,0.006813248904004922,0.006368535416405745,-0.005348370503380284,0.004932164127952951,0.004156054233165224,62.0,2.0,255000000.0,odom,base_footprint,-0.0915652087818002,0.0950599510765961,-0.0010046579426746,-0.0035828541401547,0.0014830264010877,0.9230600306743516,0.3846363783632131,"(1e-05, 0.0, 0.0, 0.0, 0.0, 0.0, 0.0, 1e-05, 0.0, 0.0, 0.0, 0.0, 0.0, 0.0, 1000000000000.0, 0.0, 0.0, 0.0, 0.0, 0.0, 0.0, 1000000000000.0, 0.0, 0.0, 0.0, 0.0, 0.0, 0.0, 1000000000000.0, 0.0, 0.0, 0.0, 0.0, 0.0, 0.0, 0.001)",0.2191919653225379,-0.0001259139678646,0.0,0.0,0.0,0.1239364472824042,"(0.0, 0.0, 0.0, 0.0, 0.0, 0.0, 0.0, 0.0, 0.0, 0.0, 0.0, 0.0, 0.0, 0.0, 0.0, 0.0, 0.0, 0.0, 0.0, 0.0, 0.0, 0.0, 0.0, 0.0, 0.0, 0.0, 0.0, 0.0, 0.0, 0.0, 0.0, 0.0, 0.0, 0.0, 0.0, 0.0)",0.2199999988079071,0.0,0.0,0.0,0.0,0.0723623186349868,60,2,262000000,base_footprint,-0.0035805045344463,0.0014800614296469,0.9231911889150384,0.3843215035814171,0.0,0.0,0.0,0.0,0.0,0.0,0.0,0.0,0.0,-0.0035210217689205,-0.0025638731484961,0.105491758789141,0.0,0.0,0.0,0.0,0.0,0.0,0.0,0.0,0.0,0.0297038343425979,-0.0030454668144971,0.0083506588899905,0.0,0.0,0.0,0.0,0.0,0.0,0.0,0.0,0.0
2.2960000000000003,2.355086516447104,-0.0052739238013110035,0.005303026727821694,0.0024457261653578755,2.3987167396763893,0.22467486355290486,-0.16547894899444665,0.15197207556722303,0.07366904752818651,0.18602116281655504,-1.5356572342401977,-0.005516744721102309,0.0050538035018504466,0.002453179282688611,62.0,2.0,255000000.0,odom,base_footprint,-0.0915652087818002,0.0950599510765961,-0.0010046579426746,-0.0035828541401547,0.0014830264010877,0.9230600306743516,0.3846363783632131,"(1e-05, 0.0, 0.0, 0.0, 0.0, 0.0, 0.0, 1e-05, 0.0, 0.0, 0.0, 0.0, 0.0, 0.0, 1000000000000.0, 0.0, 0.0, 0.0, 0.0, 0.0, 0.0, 1000000000000.0, 0.0, 0.0, 0.0, 0.0, 0.0, 0.0, 1000000000000.0, 0.0, 0.0, 0.0, 0.0, 0.0, 0.0, 0.001)",0.2191919653225379,-0.0001259139678646,0.0,0.0,0.0,0.1239364472824042,"(0.0, 0.0, 0.0, 0.0, 0.0, 0.0, 0.0, 0.0, 0.0, 0.0, 0.0, 0.0, 0.0, 0.0, 0.0, 0.0, 0.0, 0.0, 0.0, 0.0, 0.0, 0.0, 0.0, 0.0, 0.0, 0.0, 0.0, 0.0, 0.0, 0.0, 0.0, 0.0, 0.0, 0.0, 0.0, 0.0)",0.2199999988079071,0.0,0.0,0.0,0.0,0.0723623186349868,61,2,296000000,base_footprint,-0.0035810471249025,0.0014802515753513,0.923660462069834,0.3831922960677885,0.0,0.0,0.0,0.0,0.0,0.0,0.0,0.0,0.0,-0.0006098184347364,0.0005385083570795,0.0587936524880998,0.0,0.0,0.0,0.0,0.0,0.0,0.0,0.0,0.0,0.0122578564869917,0.0079837031188098,-0.0062153915360656,0.0,0.0,0.0,0.0,0.0,0.0,0.0,0.0,0.0
2.33,2.357471701804003,-0.005263000999782996,0.005261830666860409,0.0023851853568985777,2.401169918959078,0.21781029432811158,-0.16078395405587273,0.14693483056599482,0.0688755953295752,-0.2061432199637622,-0.14394751347181114,-0.005359802860721423,0.0048866860297067695,0.0022935573244748544,63.0,2.0,289000000.0,odom,base_footprint,-0.0968365252913737,0.1003645503189146,-0.0010042081075554,-0.0035806756398228,0.0014817979694744,0.9235925183384164,0.3833560265680484,"(1e-05, 0.0, 0.0, 0.0, 0.0, 0.0, 0.0, 1e-05, 0.0, 0.0, 0.0, 0.0, 0.0, 0.0, 1000000000000.0, 0.0, 0.0, 0.0, 0.0, 0.0, 0.0, 1000000000000.0, 0.0, 0.0, 0.0, 0.0, 0.0, 0.0, 1000000000000.0, 0.0, 0.0, 0.0, 0.0, 0.0, 0.0, 0.001)",0.2198129410727315,-0.0002313818140222,0.0,0.0,0.0,0.0597799169880665,"(0.0, 0.0, 0.0, 0.0, 0.0, 0.0, 0.0, 0.0, 0.0, 0.0, 0.0, 0.0, 0.0, 0.0, 0.0, 0.0, 0.0, 0.0, 0.0, 0.0, 0.0, 0.0, 0.0, 0.0, 0.0, 0.0, 0.0, 0.0, 0.0, 0.0, 0.0, 0.0, 0.0, 0.0, 0.0, 0.0)",0.2199999988079071,0.0,0.0,0.0,0.0,0.0723623186349868,62,2,330000000,base_footprint,-0.003581966902395,0.001473982667347,0.9241168052025902,0.3820904699549104,0.0,0.0,0.0,0.0,0.0,0.0,0.0,0.0,0.0,-0.0007713680661318,0.0009066210361959,0.0800879925536997,0.0,0.0,0.0,0.0,0.0,0.0,0.0,0.0,0.0,0.0245758537204316,0.0441657027701216,-0.0001594779546686,0.0,0.0,0.0,0.0,0.0,0.0,0.0,0.0,0.0
2.364,2.359929622975159,-0.005255479489337703,0.005224911782092001,0.0024579211711563964,2.403463476283553,0.2174681278505738,-0.16086742394619485,0.14633543160748436,0.07100175351598231,-0.010275269595729487,0.06384859418639985,-0.005362731352641707,0.004866532915780335,0.0023643583920822113,63.0,2.0,289000000.0,odom,base_footprint,-0.0968365252913737,0.1003645503189146,-0.0010042081075554,-0.0035806756398228,0.0014817979694744,0.9235925183384164,0.3833560265680484,"(1e-05, 0.0, 0.0, 0.0, 0.0, 0.0, 0.0, 1e-05, 0.0, 0.0, 0.0, 0.0, 0.0, 0.0, 1000000000000.0, 0.0, 0.0, 0.0, 0.0, 0.0, 0.0, 1000000000000.0, 0.0, 0.0, 0.0, 0.0, 0.0, 0.0, 1000000000000.0, 0.0, 0.0, 0.0, 0.0, 0.0, 0.0, 0.001)",0.2198129410727315,-0.0002313818140222,0.0,0.0,0.0,0.0597799169880665,"(0.0, 0.0, 0.0, 0.0, 0.0, 0.0, 0.0, 0.0, 0.0, 0.0, 0.0, 0.0, 0.0, 0.0, 0.0, 0.0, 0.0, 0.0, 0.0, 0.0, 0.0, 0.0, 0.0, 0.0, 0.0, 0.0, 0.0, 0.0, 0.0, 0.0, 0.0, 0.0, 0.0, 0.0, 0.0, 0.0)",0.2084210515022277,0.0,0.0,0.0,0.0,0.0351645424962043,63,2,364000000,base_footprint,-0.003590403721815,0.001467827317996,0.9245856678801287,0.380954455591131,0.0,0.0,0.0,0.0,0.0,0.0,0.0,0.0,0.0,-0.0077351833551823,-0.0001791329458317,0.0529660193186873,0.0,0.0,0.0,0.0,0.0,0.0,0.0,0.0,0.0,0.0217248539931761,0.077706368510272,0.0100074054711563,0.0,0.0,0.0,0.0,0.0,0.0,0.0,0.0,0.0
2.398,2.361239150938853,-0.0050420350456313046,0.004996879143269392,0.0013095279636936574,2.4058278346756348,0.2125923625453286,-0.15759847246936662,0.1426822837213041,0.036094184191587934,-0.1464193785358917,-1.0482753550869182,-0.005250971465979174,0.004748067460665175,0.0012019363335798784,65.0,2.0,355000000.0,odom,base_footprint,-0.1070526177142167,0.1105642102285451,-0.0010045458127041,-0.0035880307756446,0.0014669214322224,0.9244942428621928,0.3811762966021442,"(1e-05, 0.0, 0.0, 0.0, 0.0, 0.0, 0.0, 1e-05, 0.0, 0.0, 0.0, 0.0, 0.0, 0.0, 1000000000000.0, 0.0, 0.0, 0.0, 0.0, 0.0, 0.0, 1000000000000.0, 0.0, 0.0, 0.0, 0.0, 0.0, 0.0, 1000000000000.0, 0.0, 0.0, 0.0, 0.0, 0.0, 0.0, 0.001)",0.2190171151093305,4.641771172377018e-05,0.0,0.0,0.0,0.0689389066938285,"(0.0, 0.0, 0.0, 0.0, 0.0, 0.0, 0.0, 0.0, 0.0, 0.0, 0.0, 0.0, 0.0, 0.0, 0.0, 0.0, 0.0, 0.0, 0.0, 0.0, 0.0, 0.0, 0.0, 0.0, 0.0, 0.0, 0.0, 0.0, 0.0, 0.0, 0.0, 0.0, 0.0, 0.0, 0.0, 0.0)",0.2084210515022277,0.0,0.0,0.0,0.0,0.0351645424962043,64,2,398000000,base_footprint,-0.0035855125297448,0.0014627801234477,0.924834928364998,0.3803489971727526,0.0,0.0,0.0,0.0,0.0,0.0,0.0,0.0,0.0,-0.0002298547345445,0.0003453757298022,0.0350875543653166,0.0,0.0,0.0,0.0,0.0,0.0,0.0,0.0,0.0,-0.0034124417408029,0.2285355586314271,-0.0117431033810312,0.0,0.0,0.0,0.0,0.0,0.0,0.0,0.0,0.0
2.432,2.362492296297785,-0.005018598660449097,0.004960376189540497,0.001253145358932173,2.407029771009215,0.20593681210972464,-0.1528306111790614,0.13803178934053772,0.036502833320457,-0.1998663794475661,0.01227174561168364,-0.005092137027200962,0.004593269748697344,0.0012155443495712182,67.0,2.0,422000000.0,odom,base_footprint,-0.1170162249923457,0.1204298534614804,-0.0010035993934179,-0.0035832479968167,0.0014600456537768,0.925009622155744,0.379923975973839,"(1e-05, 0.0, 0.0, 0.0, 0.0, 0.0, 0.0, 1e-05, 0.0, 0.0, 0.0, 0.0, 0.0, 0.0, 1000000000000.0, 0.0, 0.0, 0.0, 0.0, 0.0, 0.0, 1000000000000.0, 0.0, 0.0, 0.0, 0.0, 0.0, 0.0, 1000000000000.0, 0.0, 0.0, 0.0, 0.0, 0.0, 0.0, 0.001)",0.2075494388289743,1.3591539590976365e-05,0.0,0.0,0.0,0.0370649747582182,"(0.0, 0.0, 0.0, 0.0, 0.0, 0.0, 0.0, 0.0, 0.0, 0.0, 0.0, 0.0, 0.0, 0.0, 0.0, 0.0, 0.0, 0.0, 0.0, 0.0, 0.0, 0.0, 0.0, 0.0, 0.0, 0.0, 0.0, 0.0, 0.0, 0.0, 0.0, 0.0, 0.0, 0.0, 0.0, 0.0)",0.2084210515022277,0.0,0.0,0.0,0.0,0.0351645424962043,65,2,432000000,base_footprint,-0.0035826605481813,0.0014589883999048,0.9250730776584768,0.3797694522835129,0.0,0.0,0.0,0.0,0.0,0.0,0.0,0.0,0.0,-0.0005001262429532,0.0002942822546331,0.0371877493708627,0.0,0.0,0.0,0.0,0.0,0.0,0.0,0.0,0.0,0.0077551129735508,0.0013804347164177,0.0005419406218849,0.0,0.0,0.0,0.0,0.0,0.0,0.0,0.0,0.0
2.466,2.3638131782196954,-0.005049855331204597,0.004980094494838411,0.0013208819219103773,2.408245315358786,0.2060582697510644,-0.1530885174884257,0.13792721394271112,0.03686201092241599,0.0036473766168093258,0.010786114172942696,-0.005100750565919651,0.004589751500025042,0.0012275049637164527,68.0,2.0,455000000.0,odom,base_footprint,-0.1218930274245971,0.1252420716795851,-0.0010031672518835,-0.0035810554465063,0.0014566217115228,0.9252427279844956,0.3793559655612223,"(1e-05, 0.0, 0.0, 0.0, 0.0, 0.0, 0.0, 1e-05, 0.0, 0.0, 0.0, 0.0, 0.0, 0.0, 1000000000000.0, 0.0, 0.0, 0.0, 0.0, 0.0, 0.0, 1000000000000.0, 0.0, 0.0, 0.0, 0.0, 0.0, 0.0, 1000000000000.0, 0.0, 0.0, 0.0, 0.0, 0.0, 0.0, 0.001)",0.2076811514967819,8.286498615173166e-06,0.0,0.0,0.0,0.0372753385490489,"(0.0, 0.0, 0.0, 0.0, 0.0, 0.0, 0.0, 0.0, 0.0, 0.0, 0.0, 0.0, 0.0, 0.0, 0.0, 0.0, 0.0, 0.0, 0.0, 0.0, 0.0, 0.0, 0.0, 0.0, 0.0, 0.0, 0.0, 0.0, 0.0, 0.0, 0.0, 0.0, 0.0, 0.0, 0.0, 0.0)",0.2199999988079071,4.6417710109381005e-05,0.0,0.0,0.0,0.1263747960329055,66,2,466000000,base_footprint,-0.0035761471788788,0.0014534091412549,0.9253237204518934,0.3791584248599646,0.0,0.0,0.0,0.0,0.0,0.0,0.0,0.0,0.0,0.0034571938263474,0.0009864832557577,0.0525419368614789,0.0,0.0,0.0,0.0,0.0,0.0,0.0,0.0,0.0,0.009088493306769,-0.1599417347366503,-0.0041530093685114,0.0,0.0,0.0,0.0,0.0,0.0,0.0,0.0,0.0
2.5,2.367670244034774,-0.005278200125542504,0.0051804829426707055,0.0038570658150787196,2.4094728203225024,0.2242555281575044,-0.16679208456157682,0.14990311016388239,0.1324704567539121,0.54646421640961,2.8711244994443277,-0.005565260907845705,0.004979403539962497,0.004411266209905274,68.0,2.0,455000000.0,odom,base_footprint,-0.1218930274245971,0.1252420716795851,-0.0010031672518835,-0.0035810554465063,0.0014566217115228,0.9252427279844956,0.3793559655612223,"(1e-05, 0.0, 0.0, 0.0, 0.0, 0.0, 0.0, 1e-05, 0.0, 0.0, 0.0, 0.0, 0.0, 0.0, 1000000000000.0, 0.0, 0.0, 0.0, 0.0, 0.0, 0.0, 1000000000000.0, 0.0, 0.0, 0.0, 0.0, 0.0, 0.0, 1000000000000.0, 0.0, 0.0, 0.0, 0.0, 0.0, 0.0, 0.001)",0.2076811514967819,8.286498615173166e-06,0.0,0.0,0.0,0.0372753385490489,"(0.0, 0.0, 0.0, 0.0, 0.0, 0.0, 0.0, 0.0, 0.0, 0.0, 0.0, 0.0, 0.0, 0.0, 0.0, 0.0, 0.0, 0.0, 0.0, 0.0, 0.0, 0.0, 0.0, 0.0, 0.0, 0.0, 0.0, 0.0, 0.0, 0.0, 0.0, 0.0, 0.0, 0.0, 0.0, 0.0)",0.2199999988079071,4.6417710109381005e-05,0.0,0.0,0.0,0.1263747960329055,67,2,500000000,base_footprint,-0.0035798193332443,0.0014490410891247,0.926053209524021,0.3773732082484432,0.0,0.0,0.0,0.0,0.0,0.0,0.0,0.0,0.0,-0.0008445633449741,0.0005984904357916,0.128180726113102,0.0,0.0,0.0,0.0,0.0,0.0,0.0,0.0,0.0,0.0283400906059649,-0.1662010189649916,0.0061016479746445,0.0,0.0,0.0,0.0,0.0,0.0,0.0,0.0,0.0
2.534,2.3720220199358004,-0.005330994284066498,0.0051878614929938005,0.004351775901026312,2.413884086532408,0.21787154790611732,-0.16268480066990185,0.14491951910630219,0.1269541899688559,-0.19171111866027293,-0.16565365720889508,-0.005427677901102179,0.004814253561397906,0.004227574525962902,69.0,2.0,489000000.0,odom,base_footprint,-0.1271106983528031,0.1303736714684107,-0.0010027372077575,-0.0035800732462213,0.0014513204967119,0.9258111039464398,0.3779667664674261,"(1e-05, 0.0, 0.0, 0.0, 0.0, 0.0, 0.0, 1e-05, 0.0, 0.0, 0.0, 0.0, 0.0, 0.0, 1000000000000.0, 0.0, 0.0, 0.0, 0.0, 0.0, 0.0, 1000000000000.0, 0.0, 0.0, 0.0, 0.0, 0.0, 0.0, 1000000000000.0, 0.0, 0.0, 0.0, 0.0, 0.0, 0.0, 0.001)",0.2186973353055604,-3.820250806133019e-05,0.0,0.0,0.0,0.1282473424730554,"(0.0, 0.0, 0.0, 0.0, 0.0, 0.0, 0.0, 0.0, 0.0, 0.0, 0.0, 0.0, 0.0, 0.0, 0.0, 0.0, 0.0, 0.0, 0.0, 0.0, 0.0, 0.0, 0.0, 0.0, 0.0, 0.0, 0.0, 0.0, 0.0, 0.0, 0.0, 0.0, 0.0, 0.0, 0.0, 0.0)",0.2199999988079071,4.6417710109381005e-05,0.0,0.0,0.0,0.1263747960329055,68,2,534000000,base_footprint,-0.0035817617431511,0.0014418386820071,0.9268721402522716,0.3753573333614302,0.0,0.0,0.0,0.0,0.0,0.0,0.0,0.0,0.0,-0.0009057443455558,0.0005859530123409,0.1278685325570172,0.0,0.0,0.0,0.0,0.0,0.0,0.0,0.0,0.0,0.0279988658433466,-0.0048223821015141,0.0001808884415089,0.0,0.0,0.0,0.0,0.0,0.0,0.0,0.0,0.0
2.568,2.3763678665471994,-0.005307149555344809,0.0051196646177135985,0.004345846611399029,2.418111661058371,0.2180515088755005,-0.16343088493376182,0.14434959775714645,0.1266624560915005,0.005404233314810558,-0.00876077709775973,-0.005452458689758531,0.004795248761140008,0.004217859787846967,71.0,2.0,555000000.0,odom,base_footprint,-0.1374683509878683,0.1404379459508413,-0.0010025005631705,-0.0035838851216652,0.0014374551392431,0.9273985987407098,0.3740547133026466,"(1e-05, 0.0, 0.0, 0.0, 0.0, 0.0, 0.0, 1e-05, 0.0, 0.0, 0.0, 0.0, 0.0, 0.0, 1000000000000.0, 0.0, 0.0, 0.0, 0.0, 0.0, 0.0, 1000000000000.0, 0.0, 0.0, 0.0, 0.0, 0.0, 0.0, 1000000000000.0, 0.0, 0.0, 0.0, 0.0, 0.0, 0.0, 0.001)",0.2190105798476052,-2.437266514047909e-05,0.0,0.0,0.0,0.1276567427318291,"(0.0, 0.0, 0.0, 0.0, 0.0, 0.0, 0.0, 0.0, 0.0, 0.0, 0.0, 0.0, 0.0, 0.0, 0.0, 0.0, 0.0, 0.0, 0.0, 0.0, 0.0, 0.0, 0.0, 0.0, 0.0, 0.0, 0.0, 0.0, 0.0, 0.0, 0.0, 0.0, 0.0, 0.0, 0.0, 0.0)",0.2084210515022277,0.0,0.0,0.0,0.0,0.1036319509148597,69,2,568000000,base_footprint,-0.0035872927564885,0.0014338801730618,0.9276855679071964,0.3733424197905069,0.0,0.0,0.0,0.0,0.0,0.0,0.0,0.0,0.0,-0.0022911137266935,0.0008268147471902,0.1159296310364993,0.0,0.0,0.0,0.0,0.0,0.0,0.0,0.0,0.0,0.0148918582287507,0.291542445857098,0.0001297488331766,0.0,0.0,0.0,0.0,0.0,0.0,0.0,0.0,0.0
2.6020000000000003,2.379946630303691,-0.005104181386611284,0.004885595481065597,0.0035787637564914654,2.4223295208462177,0.21307475162484718,-0.16029430404953307,0.14038014770353452,0.10587186788774476,-0.14945216968928918,-0.6243419881007731,-0.005346116255428858,0.00466514063561027,0.0035255332006619007,71.0,2.0,555000000.0,odom,base_footprint,-0.1374683509878683,0.1404379459508413,-0.0010025005631705,-0.0035838851216652,0.0014374551392431,0.9273985987407098,0.3740547133026466,"(1e-05, 0.0, 0.0, 0.0, 0.0, 0.0, 0.0, 1e-05, 0.0, 0.0, 0.0, 0.0, 0.0, 0.0, 1000000000000.0, 0.0, 0.0, 0.0, 0.0, 0.0, 0.0, 1000000000000.0, 0.0, 0.0, 0.0, 0.0, 0.0, 0.0, 1000000000000.0, 0.0, 0.0, 0.0, 0.0, 0.0, 0.0, 0.001)",0.2190105798476052,-2.437266514047909e-05,0.0,0.0,0.0,0.1276567427318291,"(0.0, 0.0, 0.0, 0.0, 0.0, 0.0, 0.0, 0.0, 0.0, 0.0, 0.0, 0.0, 0.0, 0.0, 0.0, 0.0, 0.0, 0.0, 0.0, 0.0, 0.0, 0.0, 0.0, 0.0, 0.0, 0.0, 0.0, 0.0, 0.0, 0.0, 0.0, 0.0, 0.0, 0.0, 0.0, 0.0)",0.2084210515022277,0.0,0.0,0.0,0.0,0.1036319509148597,70,2,602000000,base_footprint,-0.0035898548386234,0.0014303035429424,0.928352126970106,0.3716818471812861,0.0,0.0,0.0,0.0,0.0,0.0,0.0,0.0,0.0,-0.0006073494327165,0.0004537966465038,0.1043756876518784,0.0,0.0,0.0,0.0,0.0,0.0,0.0,0.0,0.0,0.0217949546783647,0.033890697690236,-0.0020213499709353,0.0,0.0,0.0,0.0,0.0,0.0,0.0,0.0,0.0
2.636,2.383485407018285,-0.005125031010327602,0.004870675010308995,0.0035387767145942384,2.4258550540468797,0.2069184799101769,-0.156142640887458,0.1357745669299984,0.10335679593986295,-0.18487302446457313,-0.07552768612257682,-0.005207404143015338,0.0045122395683945965,0.0034417813047974365,73.0,2.0,622000000.0,odom,base_footprint,-0.1475787391137088,0.1501062876179416,-0.0010031468910345,-0.0035933080149915,0.0014277039223386,0.9287581587301644,0.3706660658748986,"(1e-05, 0.0, 0.0, 0.0, 0.0, 0.0, 0.0, 1e-05, 0.0, 0.0, 0.0, 0.0, 0.0, 0.0, 1000000000000.0, 0.0, 0.0, 0.0, 0.0, 0.0, 0.0, 1000000000000.0, 0.0, 0.0, 0.0, 0.0, 0.0, 0.0, 1000000000000.0, 0.0, 0.0, 0.0, 0.0, 0.0, 0.0, 0.001)",0.207981871509286,-2.370176326606244e-05,0.0,0.0,0.0,0.1040587312790139,"(0.0, 0.0, 0.0, 0.0, 0.0, 0.0, 0.0, 0.0, 0.0, 0.0, 0.0, 0.0, 0.0, 0.0, 0.0, 0.0, 0.0, 0.0, 0.0, 0.0, 0.0, 0.0, 0.0, 0.0, 0.0, 0.0, 0.0, 0.0, 0.0, 0.0, 0.0, 0.0, 0.0, 0.0, 0.0, 0.0)",0.2084210515022277,0.0,0.0,0.0,0.0,0.1036319509148597,71,2,636000000,base_footprint,-0.0035956452552994,0.0014259785336152,0.929008308399778,0.370038647771557,0.0,0.0,0.0,0.0,0.0,0.0,0.0,0.0,0.0,-0.0005239849867439,0.0004284682642841,0.1037877146897369,0.0,0.0,0.0,0.0,0.0,0.0,0.0,0.0,0.0,0.021659498673131,-0.0035584257058531,-0.0001147190417503,0.0,0.0,0.0,0.0,0.0,0.0,0.0,0.0,0.0
2.67,2.387168901393973,-0.005098619752262501,0.004811282165805203,0.0036834943756880456,2.429296835351677,0.20705565500232634,-0.15671284431490975,0.13532600893831628,0.1027403307125175,0.004119372136619943,-0.018512469289653406,-0.0052263197664579935,0.004497323259007273,0.003421253012726833,73.0,2.0,622000000.0,odom,base_footprint,-0.1475787391137088,0.1501062876179416,-0.0010031468910345,-0.0035933080149915,0.0014277039223386,0.9287581587301644,0.3706660658748986,"(1e-05, 0.0, 0.0, 0.0, 0.0, 0.0, 0.0, 1e-05, 0.0, 0.0, 0.0, 0.0, 0.0, 0.0, 1000000000000.0, 0.0, 0.0, 0.0, 0.0, 0.0, 0.0, 1000000000000.0, 0.0, 0.0, 0.0, 0.0, 0.0, 0.0, 1000000000000.0, 0.0, 0.0, 0.0, 0.0, 0.0, 0.0, 0.001)",0.207981871509286,-2.370176326606244e-05,0.0,0.0,0.0,0.1040587312790139,"(0.0, 0.0, 0.0, 0.0, 0.0, 0.0, 0.0, 0.0, 0.0, 0.0, 0.0, 0.0, 0.0, 0.0, 0.0, 0.0, 0.0, 0.0, 0.0, 0.0, 0.0, 0.0, 0.0, 0.0, 0.0, 0.0, 0.0, 0.0, 0.0, 0.0, 0.0, 0.0, 0.0, 0.0, 0.0, 0.0)",0.1968421041965484,0.0,0.0,0.0,0.0,0.0702208429574966,72,2,670000000,base_footprint,-0.0035983875943816,0.0014122881421155,0.9296882683442717,0.3683270024746407,0.0,0.0,0.0,0.0,0.0,0.0,0.0,0.0,0.0,0.0019868795639639,0.0022719702537635,0.1131967622424696,0.0,0.0,0.0,0.0,0.0,0.0,0.0,0.0,0.0,0.0060466533289059,0.231552424151915,-0.0051347778403364,0.0,0.0,0.0,0.0,0.0,0.0,0.0,0.0,0.0
2.704,2.389765501395875,-0.004895956102545007,0.004591536298569704,0.0025966000019019835,2.4327180883644033,0.2014611632095031,-0.15292816006616397,0.13114716215192682,0.0690417774774412,-0.16800275654123814,-1.0119685656179067,-0.005097604556452983,0.0043612478888432555,0.002299091189998792,74.0,2.0,655000000.0,odom,base_footprint,-0.1525650299994066,0.1548253714719109,-0.0010036394057883,-0.0035992277852951,0.0014230105837755,0.9293908336340372,0.3690768198590337,"(1e-05, 0.0, 0.0, 0.0, 0.0, 0.0, 0.0, 1e-05, 0.0, 0.0, 0.0, 0.0, 0.0, 0.0, 1000000000000.0, 0.0, 0.0, 0.0, 0.0, 0.0, 0.0, 1000000000000.0, 0.0, 0.0, 0.0, 0.0, 0.0, 0.0, 1000000000000.0, 0.0, 0.0, 0.0, 0.0, 0.0, 0.0, 0.001)",0.2081126954298987,-3.8429749631932464e-05,0.0,0.0,0.0,0.1032161056474188,"(0.0, 0.0, 0.0, 0.0, 0.0, 0.0, 0.0, 0.0, 0.0, 0.0, 0.0, 0.0, 0.0, 0.0, 0.0, 0.0, 0.0, 0.0, 0.0, 0.0, 0.0, 0.0, 0.0, 0.0, 0.0, 0.0, 0.0, 0.0, 0.0, 0.0, 0.0, 0.0, 0.0, 0.0, 0.0, 0.0)",0.1968421041965484,0.0,0.0,0.0,0.0,0.0702208429574966,73,2,704000000,base_footprint,-0.0036070067857667,0.0014164289865059,0.9301656412180078,0.3671196850190222,0.0,0.0,0.0,0.0,0.0,0.0,0.0,0.0,0.0,-0.0004169870082588,0.0004686857651719,0.0672730909502919,0.0,0.0,0.0,0.0,0.0,0.0,0.0,0.0,0.0,0.0102864234157407,0.1010070613376377,0.0034091031878457,0.0,0.0,0.0,0.0,0.0,0.0,0.0,0.0,0.0
2.738,2.391987815566001,-0.004889478798541791,0.004565888177078592,0.002222314170125639,2.4350171795544027,0.19550953098596152,-0.14870252506137938,0.12693122447499072,0.06735732114188547,-0.17872769440064823,-0.050584274341012696,-0.00495660871137627,0.004221160722082187,0.0022429987940247864,76.0,2.0,722000000.0,odom,base_footprint,-0.1622670336370215,0.1639227481730802,-0.0010043826455549,-0.003608800907635,0.0014135539218747,0.930397259477411,0.3665322877704527,"(1e-05, 0.0, 0.0, 0.0, 0.0, 0.0, 0.0, 1e-05, 0.0, 0.0, 0.0, 0.0, 0.0, 0.0, 1000000000000.0, 0.0, 0.0, 0.0, 0.0, 0.0, 0.0, 1000000000000.0, 0.0, 0.0, 0.0, 0.0, 0.0, 0.0, 1000000000000.0, 0.0, 0.0, 0.0, 0.0, 0.0, 0.0, 0.001)",0.1967881159373427,-0.0001031937017867,0.0,0.0,0.0,0.0653897133093807,"(0.0, 0.0, 0.0, 0.0, 0.0, 0.0, 0.0, 0.0, 0.0, 0.0, 0.0, 0.0, 0.0, 0.0, 0.0, 0.0, 0.0, 0.0, 0.0, 0.0, 0.0, 0.0, 0.0, 0.0, 0.0, 0.0, 0.0, 0.0, 0.0, 0.0, 0.0, 0.0, 0.0, 0.0, 0.0, 0.0)",0.1968421041965484,0.0,0.0,0.0,0.0,0.0702208429574966,74,2,738000000,base_footprint,-0.0036095122077,0.0014105272390837,0.9305729968841164,0.366085890611267,0.0,0.0,0.0,0.0,0.0,0.0,0.0,0.0,0.0,-0.0005688174001318,0.0004960781967791,0.0622694187856603,0.0,0.0,0.0,0.0,0.0,0.0,0.0,0.0,0.0,0.0099914377871719,0.0044110196698228,0.000338993320887,0.0,0.0,0.0,0.0,0.0,0.0,0.0,0.0,0.0
2.7720000000000002,2.3935108508621767,-0.004896917177133114,0.004552318622985413,0.001523035296175923,2.4372601783484273,0.19535329073841923,-0.14886779540473286,0.1264961963604596,0.06671925683570022,-0.004691899325594419,-0.019161090275833376,-0.004962051022104048,0.004206720756468622,0.0022217512526288177,76.0,2.0,722000000.0,odom,base_footprint,-0.1622670336370215,0.1639227481730802,-0.0010043826455549,-0.003608800907635,0.0014135539218747,0.930397259477411,0.3665322877704527,"(1e-05, 0.0, 0.0, 0.0, 0.0, 0.0, 0.0, 1e-05, 0.0, 0.0, 0.0, 0.0, 0.0, 0.0, 1000000000000.0, 0.0, 0.0, 0.0, 0.0, 0.0, 0.0, 1000000000000.0, 0.0, 0.0, 0.0, 0.0, 0.0, 0.0, 1000000000000.0, 0.0, 0.0, 0.0, 0.0, 0.0, 0.0, 0.001)",0.1967881159373427,-0.0001031937017867,0.0,0.0,0.0,0.0653897133093807,"(0.0, 0.0, 0.0, 0.0, 0.0, 0.0, 0.0, 0.0, 0.0, 0.0, 0.0, 0.0, 0.0, 0.0, 0.0, 0.0, 0.0, 0.0, 0.0, 0.0, 0.0, 0.0, 0.0, 0.0, 0.0, 0.0, 0.0, 0.0, 0.0, 0.0, 0.0, 0.0, 0.0, 0.0, 0.0, 0.0)",0.2199999988079071,0.0,0.0,0.0,0.0,0.0749371200799942,75,2,772000000,base_footprint,-0.0035972439081015,0.0013929321214952,0.9308515845592972,0.3653771299627497,0.0,0.0,0.0,0.0,0.0,0.0,0.0,0.0,0.0,0.0018378606074019,-0.0002295370836394,0.0116521260659226,0.0,0.0,0.0,0.0,0.0,0.0,0.0,0.0,0.0,0.0178434041615706,-0.0279758791069885,-0.0015391262199985,0.0,0.0,0.0,0.0,0.0,0.0,0.0,0.0,0.0
2.806,2.3936291156652096,-0.004976041939168702,0.004611185666903689,0.00011826480303289699,2.4394819296010564,0.239395711076752,-0.18277400957597975,0.15460908092820225,0.11228588120525015,1.3225952053553385,1.3683670981846825,-0.006096081151171751,0.0051369783249524195,0.0037391198441348306,78.0,2.0,789000000.0,odom,base_footprint,-0.171944478226548,0.172921152536332,-0.0010022412832357,-0.0035971953070836,0.0013937231342092,0.9308567416171768,0.365363988794189,"(1e-05, 0.0, 0.0, 0.0, 0.0, 0.0, 0.0, 1e-05, 0.0, 0.0, 0.0, 0.0, 0.0, 0.0, 1000000000000.0, 0.0, 0.0, 0.0, 0.0, 0.0, 0.0, 1000000000000.0, 0.0, 0.0, 0.0, 0.0, 0.0, 0.0, 1000000000000.0, 0.0, 0.0, 0.0, 0.0, 0.0, 0.0, 0.001)",0.1996176828589995,-2.1671105469286966e-05,0.0,0.0,0.0,-0.0017955207558554,"(0.0, 0.0, 0.0, 0.0, 0.0, 0.0, 0.0, 0.0, 0.0, 0.0, 0.0, 0.0, 0.0, 0.0, 0.0, 0.0, 0.0, 0.0, 0.0, 0.0, 0.0, 0.0, 0.0, 0.0, 0.0, 0.0, 0.0, 0.0, 0.0, 0.0, 0.0, 0.0, 0.0, 0.0, 0.0, 0.0)",0.2199999988079071,0.0,0.0,0.0,0.0,0.0749371200799942,76,2,806000000,base_footprint,-0.0035938673283632,0.001396625671192,0.930873188151422,0.3653221060039596,0.0,0.0,0.0,0.0,0.0,0.0,0.0,0.0,0.0,-0.0002340226061245,-0.0008244068917617,0.0162225782317443,0.0,0.0,0.0,0.0,0.0,0.0,0.0,0.0,0.0,0.0187894005938311,-0.0976738053908461,0.0030969978445599,0.0,0.0,0.0,0.0,0.0,0.0,0.0,0.0,0.0
2.84,2.3957892781533765,-0.005056337831476104,0.0046739515965510126,0.0021601624881668613,2.443221049445191,0.21801309326498275,-0.16697409469416305,0.14017617677776328,0.07432259632311954,-0.6421206550080857,-1.1400385850489674,-0.005566094609645805,0.00466087789191747,0.002474942457559881,79.0,2.0,822000000.0,odom,base_footprint,-0.1768153870450127,0.177424794795917,-0.0010021834762776,-0.0035954050913396,0.00140085595666,0.9309938728503044,0.3650144098251586,"(1e-05, 0.0, 0.0, 0.0, 0.0, 0.0, 0.0, 1e-05, 0.0, 0.0, 0.0, 0.0, 0.0, 0.0, 1000000000000.0, 0.0, 0.0, 0.0, 0.0, 0.0, 0.0, 1000000000000.0, 0.0, 0.0, 0.0, 0.0, 0.0, 0.0, 1000000000000.0, 0.0, 0.0, 0.0, 0.0, 0.0, 0.0, 0.001)",0.2021779637656828,0.0001994119821272,0.0,0.0,0.0,0.0627300662210943,"(0.0, 0.0, 0.0, 0.0, 0.0, 0.0, 0.0, 0.0, 0.0, 0.0, 0.0, 0.0, 0.0, 0.0, 0.0, 0.0, 0.0, 0.0, 0.0, 0.0, 0.0, 0.0, 0.0, 0.0, 0.0, 0.0, 0.0, 0.0, 0.0, 0.0, 0.0, 0.0, 0.0, 0.0, 0.0, 0.0)",0.2199999988079071,0.0,0.0,0.0,0.0,0.0228198692202568,77,2,840000000,base_footprint,-0.0035916627837155,0.001399045447727,0.9312672167427892,0.3643165020286925,0.0,0.0,0.0,0.0,0.0,0.0,0.0,0.0,0.0,-0.0008921155002303,-0.0003555852364218,0.1101100044426443,0.0,0.0,0.0,0.0,0.0,0.0,0.0,0.0,0.0,0.0067976018077138,-0.1092590910219608,0.0034863527954637,0.0,0.0,0.0,0.0,0.0,0.0,0.0,0.0,0.0
2.874,2.400348364539187,-0.005205548224733486,0.004785597333841096,0.004559086385810484,2.4456959919027508,0.21798396606356835,-0.16729815640435558,0.1397438239225859,0.07469250287021975,-0.0008746907331652503,0.011108304717724189,-0.005576896372596351,0.004646432643006778,0.002487260345578318,79.0,2.0,822000000.0,odom,base_footprint,-0.1768153870450127,0.177424794795917,-0.0010021834762776,-0.0035954050913396,0.00140085595666,0.9309938728503044,0.3650144098251586,"(1e-05, 0.0, 0.0, 0.0, 0.0, 0.0, 0.0, 1e-05, 0.0, 0.0, 0.0, 0.0, 0.0, 0.0, 1000000000000.0, 0.0, 0.0, 0.0, 0.0, 0.0, 0.0, 1000000000000.0, 0.0, 0.0, 0.0, 0.0, 0.0, 0.0, 1000000000000.0, 0.0, 0.0, 0.0, 0.0, 0.0, 0.0, 0.001)",0.2021779637656828,0.0001994119821272,0.0,0.0,0.0,0.0627300662210943,"(0.0, 0.0, 0.0, 0.0, 0.0, 0.0, 0.0, 0.0, 0.0, 0.0, 0.0, 0.0, 0.0, 0.0, 0.0, 0.0, 0.0, 0.0, 0.0, 0.0, 0.0, 0.0, 0.0, 0.0, 0.0, 0.0, 0.0, 0.0, 0.0, 0.0, 0.0, 0.0, 0.0, 0.0, 0.0, 0.0)",0.2199999988079071,0.0,0.0,0.0,0.0,0.0228198692202568,78,2,874000000,base_footprint,-0.0035950612463283,0.0013992618262318,0.932095249149391,0.3621927168153879,0.0,0.0,0.0,0.0,0.0,0.0,0.0,0.0,0.0,-0.0005029029913558,0.0006244864634043,0.12325154889925,0.0,0.0,0.0,0.0,0.0,0.0,0.0,0.0,0.0,0.0446183017382873,-0.1627105688167536,-0.0027494266943266,0.0,0.0,0.0,0.0,0.0,0.0,0.0,0.0,0.0
2.908,2.4032980574213902,-0.005368734093884803,0.004895394256367397,0.0029496928822032578,2.448183252248329,0.2243855499385188,-0.17256849242518238,0.14341893335020764,0.020326850367029983,0.19223975600451834,-1.6326021772729657,-0.005748235390220384,0.004773798465496292,0.0006768841172220986,81.0,2.0,889000000.0,odom,base_footprint,-0.187062664987827,0.1868440619731115,-0.0010019616664886,-0.0035968219388851,0.0013952672407879,0.9324061044653676,0.3613917160879378,"(1e-05, 0.0, 0.0, 0.0, 0.0, 0.0, 0.0, 1e-05, 0.0, 0.0, 0.0, 0.0, 0.0, 0.0, 1000000000000.0, 0.0, 0.0, 0.0, 0.0, 0.0, 0.0, 1000000000000.0, 0.0, 0.0, 0.0, 0.0, 0.0, 0.0, 1000000000000.0, 0.0, 0.0, 0.0, 0.0, 0.0, 0.0, 0.001)",0.2132425165391783,4.8215521378333626e-05,0.0,0.0,0.0,0.0918373986909077,"(0.0, 0.0, 0.0, 0.0, 0.0, 0.0, 0.0, 0.0, 0.0, 0.0, 0.0, 0.0, 0.0, 0.0, 0.0, 0.0, 0.0, 0.0, 0.0, 0.0, 0.0, 0.0, 0.0, 0.0, 0.0, 0.0, 0.0, 0.0, 0.0, 0.0, 0.0, 0.0, 0.0, 0.0, 0.0, 0.0)",0.2199999988079071,0.0,0.0,0.0,0.0,0.0228198692202568,79,2,908000000,base_footprint,-0.0035949333112006,0.0013924736326087,0.932628423957522,0.3608176274770667,0.0,0.0,0.0,0.0,0.0,0.0,0.0,0.0,0.0,-7.734157008399133e-05,0.0012349585522424,0.0457073199564392,0.0,0.0,0.0,0.0,0.0,0.0,0.0,0.0,0.0,0.0347273143105785,-0.2021515498626418,0.0003885797704799,0.0,0.0,0.0,0.0,0.0,0.0,0.0,0.0,0.0
2.942,2.404240809100811,-0.005513413695672903,0.005011109942347686,0.0009427516794207059,2.4488601363655516,0.21759590720038813,-0.16744087506963082,0.13896593894287984,0.023164061127101322,-0.20389317531923962,0.08520152432646663,-0.005577651278082196,0.004625311217855109,0.0007713632355324741,81.0,2.0,889000000.0,odom,base_footprint,-0.187062664987827,0.1868440619731115,-0.0010019616664886,-0.0035968219388851,0.0013952672407879,0.9324061044653676,0.3613917160879378,"(1e-05, 0.0, 0.0, 0.0, 0.0, 0.0, 0.0, 1e-05, 0.0, 0.0, 0.0, 0.0, 0.0, 0.0, 1000000000000.0, 0.0, 0.0, 0.0, 0.0, 0.0, 0.0, 1000000000000.0, 0.0, 0.0, 0.0, 0.0, 0.0, 0.0, 1000000000000.0, 0.0, 0.0, 0.0, 0.0, 0.0, 0.0, 0.001)",0.2132425165391783,4.8215521378333626e-05,0.0,0.0,0.0,0.0918373986909077,"(0.0, 0.0, 0.0, 0.0, 0.0, 0.0, 0.0, 0.0, 0.0, 0.0, 0.0, 0.0, 0.0, 0.0, 0.0, 0.0, 0.0, 0.0, 0.0, 0.0, 0.0, 0.0, 0.0, 0.0, 0.0, 0.0, 0.0, 0.0, 0.0, 0.0, 0.0, 0.0, 0.0, 0.0, 0.0, 0.0)",0.2199999988079071,4.821552283829078e-05,0.0,0.0,0.0,-0.0148292677477002,80,2,942000000,base_footprint,-0.0036083938691011,0.0013865989646302,0.9327983752966464,0.3603779236869728,0.0,0.0,0.0,0.0,0.0,0.0,0.0,0.0,0.0,-0.0004486157787033,0.0001836129282112,0.0260304056780788,0.0,0.0,0.0,0.0,0.0,0.0,0.0,0.0,0.0,0.0129660766657928,-0.058962352723281,0.0019069036241733,0.0,0.0,0.0,0.0,0.0,0.0,0.0,0.0,0.0
2.976,2.4044059039979047,-0.005529198453191497,0.0050179487809141055,0.00016509489709370942,2.4496314996010837,0.21760633288648712,-0.16755604620005518,0.13884339197134885,0.025673480843255932,0.00031308366663638213,0.07535794943407237,-0.0055816778735693915,0.004620995618829605,0.0008549269120804227,83.0,2.0,955000000.0,odom,base_footprint,-0.1977162033173039,0.1965297049408231,-0.0010029349902894,-0.0036078593454971,0.0013857146718231,0.9328638852149878,0.3602083214021984,"(1e-05, 0.0, 0.0, 0.0, 0.0, 0.0, 0.0, 1e-05, 0.0, 0.0, 0.0, 0.0, 0.0, 0.0, 1000000000000.0, 0.0, 0.0, 0.0, 0.0, 0.0, 0.0, 1000000000000.0, 0.0, 0.0, 0.0, 0.0, 0.0, 0.0, 1000000000000.0, 0.0, 0.0, 0.0, 0.0, 0.0, 0.0, 0.001)",0.2194329737256658,2.4208397128328007e-05,0.0,0.0,0.0,0.0259897856009479,"(0.0, 0.0, 0.0, 0.0, 0.0, 0.0, 0.0, 0.0, 0.0, 0.0, 0.0, 0.0, 0.0, 0.0, 0.0, 0.0, 0.0, 0.0, 0.0, 0.0, 0.0, 0.0, 0.0, 0.0, 0.0, 0.0, 0.0, 0.0, 0.0, 0.0, 0.0, 0.0, 0.0, 0.0, 0.0, 0.0)",0.2199999988079071,4.821552283829078e-05,0.0,0.0,0.0,-0.0148292677477002,81,2,976000000,base_footprint,-0.0036069175056034,0.0013859251483389,0.9328281259227064,0.3603009254014246,0.0,0.0,0.0,0.0,0.0,0.0,0.0,0.0,0.0,-0.0004147858152968,-0.0003091385378908,-0.0119232086171415,0.0,0.0,0.0,0.0,0.0,0.0,0.0,0.0,0.0,0.0036963411300486,-0.0144746081064928,0.0005308958293913,0.0,0.0,0.0,0.0,0.0,0.0,0.0,0.0,0.0
3.01,2.403989354254729,-0.005536547080530391,0.005027877032759198,-0.0004165497431758425,2.450486426513164,0.22435746093308656,-0.1728767094840607,0.14300319435000447,-0.011519695633386604,0.20273657797595918,-1.116912206505782,-0.005755969399991437,0.004763003498693122,-0.00038360586459177396,84.0,2.0,989000000.0,odom,base_footprint,-0.2032504149564753,0.2015526444424222,-0.0010027025761631,-0.0036057615149353,0.0013864857661679,0.9327977201101432,0.3603796463431816,"(1e-05, 0.0, 0.0, 0.0, 0.0, 0.0, 0.0, 1e-05, 0.0, 0.0, 0.0, 0.0, 0.0, 0.0, 1000000000000.0, 0.0, 0.0, 0.0, 0.0, 0.0, 0.0, 1000000000000.0, 0.0, 0.0, 0.0, 0.0, 0.0, 0.0, 1000000000000.0, 0.0, 0.0, 0.0, 0.0, 0.0, 0.0, 0.001)",0.2199502959377267,2.5662073600440927e-05,0.0,0.0,0.0,-0.0121238566211554,"(0.0, 0.0, 0.0, 0.0, 0.0, 0.0, 0.0, 0.0, 0.0, 0.0, 0.0, 0.0, 0.0, 0.0, 0.0, 0.0, 0.0, 0.0, 0.0, 0.0, 0.0, 0.0, 0.0, 0.0, 0.0, 0.0, 0.0, 0.0, 0.0, 0.0, 0.0, 0.0, 0.0, 0.0, 0.0, 0.0)",0.2199999988079071,4.821552283829078e-05,0.0,0.0,0.0,-0.0148292677477002,82,3,10000000,base_footprint,-0.003604622141562,0.0013873651309162,0.932753068013814,0.3604952094383881,0.0,0.0,0.0,0.0,0.0,0.0,0.0,0.0,0.0,-0.0001537904329979,-0.0001909977184963,-0.0125287781496349,0.0,0.0,0.0,0.0,0.0,0.0,0.0,0.0,0.0,-0.0028242087744578,-0.0060099939348904,-0.0003548586234407,0.0,0.0,0.0,0.0,0.0,0.0,0.0,0.0,0.0
3.044,2.4035498636569628,-0.005539342102452022,0.005034716545476603,-0.0004394905977660457,2.4501028206485724,0.21792948432286888,-0.16787038992538184,0.13897047284776654,-0.012338771551313955,-0.19303233063716765,-0.024596874412232766,-0.005589219094907024,0.0046287612167612785,-0.00041088109265875473,84.0,2.0,989000000.0,odom,base_footprint,-0.2032504149564753,0.2015526444424222,-0.0010027025761631,-0.0036057615149353,0.0013864857661679,0.9327977201101432,0.3603796463431816,"(1e-05, 0.0, 0.0, 0.0, 0.0, 0.0, 0.0, 1e-05, 0.0, 0.0, 0.0, 0.0, 0.0, 0.0, 1000000000000.0, 0.0, 0.0, 0.0, 0.0, 0.0, 0.0, 1000000000000.0, 0.0, 0.0, 0.0, 0.0, 0.0, 0.0, 1000000000000.0, 0.0, 0.0, 0.0, 0.0, 0.0, 0.0, 0.001)",0.2199502959377267,2.5662073600440927e-05,0.0,0.0,0.0,-0.0121238566211554,"(0.0, 0.0, 0.0, 0.0, 0.0, 0.0, 0.0, 0.0, 0.0, 0.0, 0.0, 0.0, 0.0, 0.0, 0.0, 0.0, 0.0, 0.0, 0.0, 0.0, 0.0, 0.0, 0.0, 0.0, 0.0, 0.0, 0.0, 0.0, 0.0, 0.0, 0.0, 0.0, 0.0, 0.0, 0.0, 0.0)",0.2199999988079071,2.5662073312560096e-05,0.0,0.0,0.0,0.127363309264183,83,3,44000000,base_footprint,-0.0036040453499171,0.0013890752334166,0.932673826761954,0.360700172165643,0.0,0.0,0.0,0.0,0.0,0.0,0.0,0.0,0.0,-6.524734040862594e-05,-0.0001739341327505,-0.0132042433076187,0.0,0.0,0.0,0.0,0.0,0.0,0.0,0.0,0.0,-0.0023374016551236,-0.0060688788350328,-0.0001633385897361,0.0,0.0,0.0,0.0,0.0,0.0,0.0,0.0,0.0
3.078,2.406510578653843,-0.00551356416169238,0.005009484636873007,0.00296071499688022,2.4496919395559136,0.2181104673829499,-0.1679526386620011,0.13915490342952397,-0.012961906117669907,0.005434926729159734,-0.018712749740418994,-0.005591908737760712,0.004634961280773272,-0.00043163147371840795,85.0,3.0,22000000.0,odom,base_footprint,-0.2086252541165702,0.206435244570285,-0.0010025580993339,-0.0036042038364867,0.0013879816338909,0.9327232647005672,0.3605723155041233,"(1e-05, 0.0, 0.0, 0.0, 0.0, 0.0, 0.0, 1e-05, 0.0, 0.0, 0.0, 0.0, 0.0, 0.0, 1000000000000.0, 0.0, 0.0, 0.0, 0.0, 0.0, 0.0, 1000000000000.0, 0.0, 0.0, 0.0, 0.0, 0.0, 0.0, 1000000000000.0, 0.0, 0.0, 0.0, 0.0, 0.0, 0.0, 0.001)",0.2201433293068821,2.9378192915666124e-05,0.0,0.0,0.0,-0.012786012312829,"(0.0, 0.0, 0.0, 0.0, 0.0, 0.0, 0.0, 0.0, 0.0, 0.0, 0.0, 0.0, 0.0, 0.0, 0.0, 0.0, 0.0, 0.0, 0.0, 0.0, 0.0, 0.0, 0.0, 0.0, 0.0, 0.0, 0.0, 0.0, 0.0, 0.0, 0.0, 0.0, 0.0, 0.0, 0.0, 0.0)",0.2199999988079071,2.5662073312560096e-05,0.0,0.0,0.0,0.127363309264183,84,3,78000000,base_footprint,-0.0036053086499022,0.0013828579658834,0.9332067743505498,0.3593190862723932,0.0,0.0,0.0,0.0,0.0,0.0,0.0,0.0,0.0,-0.001157020810749,0.0002678875886195,0.2188492811200006,0.0,0.0,0.0,0.0,0.0,0.0,0.0,0.0,0.0,0.0064825154392184,0.0614819012330842,-0.0004912424140286,0.0,0.0,0.0,0.0,0.0,0.0,0.0,0.0,0.0
3.112,2.412181748931632,-0.005534787055042706,0.004973350559336787,0.005671170277789182,2.449260308082195,0.22464090530151778,-0.17291942466413782,0.1433959863751739,0.22005218041264837,0.19610924680384048,6.997420015925473,-0.005775748833014414,0.004753839062282937,0.0073277376077411915,87.0,3.0,89000000.0,odom,base_footprint,-0.2195047293825232,0.2163099316244031,-0.0010027657615918,-0.0036088583995501,0.0013808723674413,0.9336746861350224,0.3581014518306565,"(1e-05, 0.0, 0.0, 0.0, 0.0, 0.0, 0.0, 1e-05, 0.0, 0.0, 0.0, 0.0, 0.0, 0.0, 1000000000000.0, 0.0, 0.0, 0.0, 0.0, 0.0, 0.0, 1000000000000.0, 0.0, 0.0, 0.0, 0.0, 0.0, 0.0, 1000000000000.0, 0.0, 0.0, 0.0, 0.0, 0.0, 0.0, 0.001)",0.2182846562214493,-5.187008416249195e-05,0.0,0.0,0.0,0.2167838429784695,"(0.0, 0.0, 0.0, 0.0, 0.0, 0.0, 0.0, 0.0, 0.0, 0.0, 0.0, 0.0, 0.0, 0.0, 0.0, 0.0, 0.0, 0.0, 0.0, 0.0, 0.0, 0.0, 0.0, 0.0, 0.0, 0.0, 0.0, 0.0, 0.0, 0.0, 0.0, 0.0, 0.0, 0.0, 0.0, 0.0)",0.2199999988079071,2.5662073312560096e-05,0.0,0.0,0.0,0.127363309264183,85,3,112000000,base_footprint,-0.0036136219259376,0.0013769447289983,0.9342218773111808,0.3566714590669725,0.0,0.0,0.0,0.0,0.0,0.0,0.0,0.0,0.0,-0.0001241459716134,0.000629119870754,0.1272896406996532,0.0,0.0,0.0,0.0,0.0,0.0,0.0,0.0,0.0,0.0457533813039731,-0.0284573127887372,-0.0006097938979233,0.0,0.0,0.0,0.0,0.0,0.0,0.0,0.0,0.0
3.146,2.416493124072562,-0.005571291270808992,0.0049598415046654964,0.0043113751409298295,2.4565880456899363,0.21838255291685474,-0.16911897188026026,0.13816552670129623,0.12744758297062747,-0.1879385100499413,-2.7809188421027295,-0.0056414932356362284,0.004588843046679933,0.004244004512921895,87.0,3.0,89000000.0,odom,base_footprint,-0.2195047293825232,0.2163099316244031,-0.0010027657615918,-0.0036088583995501,0.0013808723674413,0.9336746861350224,0.3581014518306565,"(1e-05, 0.0, 0.0, 0.0, 0.0, 0.0, 0.0, 1e-05, 0.0, 0.0, 0.0, 0.0, 0.0, 0.0, 1000000000000.0, 0.0, 0.0, 0.0, 0.0, 0.0, 0.0, 1000000000000.0, 0.0, 0.0, 0.0, 0.0, 0.0, 0.0, 1000000000000.0, 0.0, 0.0, 0.0, 0.0, 0.0, 0.0, 0.001)",0.2182846562214493,-5.187008416249195e-05,0.0,0.0,0.0,0.2167838429784695,"(0.0, 0.0, 0.0, 0.0, 0.0, 0.0, 0.0, 0.0, 0.0, 0.0, 0.0, 0.0, 0.0, 0.0, 0.0, 0.0, 0.0, 0.0, 0.0, 0.0, 0.0, 0.0, 0.0, 0.0, 0.0, 0.0, 0.0, 0.0, 0.0, 0.0, 0.0, 0.0, 0.0, 0.0, 0.0, 0.0)",0.2199999988079071,0.0,0.0,0.0,0.0,0.0116556212306022,86,3,146000000,base_footprint,-0.0036208932981094,0.0013703581167239,0.9349885627097592,0.3546567338318767,0.0,0.0,0.0,0.0,0.0,0.0,0.0,0.0,0.0,-0.0006134257777507,0.0006799658160628,0.1258612152346123,0.0,0.0,0.0,0.0,0.0,0.0,0.0,0.0,0.0,0.0264709787394901,0.0006297918602989,0.0006018369190404,0.0,0.0,0.0,0.0,0.0,0.0,0.0,0.0,0.0
3.18,2.4186157712253578,-0.005613258974150298,0.004960661081985618,0.0021226471527957536,2.4608320502028582,0.21852705037940076,-0.1698161103363281,0.1375374873180443,0.12532132637481413,0.0043392631395202,-0.0638515494238239,-0.00566450153247949,0.004568080357932969,0.004173200168281311,89.0,3.0,155000000.0,odom,base_footprint,-0.2303093880334764,0.2259428423960253,-0.0010038535252959,-0.0036226172529688,0.0013683031115639,0.9352107366761504,0.3540704483524226,"(1e-05, 0.0, 0.0, 0.0, 0.0, 0.0, 0.0, 1e-05, 0.0, 0.0, 0.0, 0.0, 0.0, 0.0, 1000000000000.0, 0.0, 0.0, 0.0, 0.0, 0.0, 0.0, 1000000000000.0, 0.0, 0.0, 0.0, 0.0, 0.0, 0.0, 1000000000000.0, 0.0, 0.0, 0.0, 0.0, 0.0, 0.0, 0.001)",0.2194216172031211,-4.9358697431764464e-05,0.0,0.0,0.0,0.1250311016997098,"(0.0, 0.0, 0.0, 0.0, 0.0, 0.0, 0.0, 0.0, 0.0, 0.0, 0.0, 0.0, 0.0, 0.0, 0.0, 0.0, 0.0, 0.0, 0.0, 0.0, 0.0, 0.0, 0.0, 0.0, 0.0, 0.0, 0.0, 0.0, 0.0, 0.0, 0.0, 0.0, 0.0, 0.0, 0.0, 0.0)",0.2199999988079071,0.0,0.0,0.0,0.0,0.0116556212306022,87,3,180000000,base_footprint,-0.0036258340771457,0.0013706341245747,0.9353644209173584,0.3536642118892952,0.0,0.0,0.0,0.0,0.0,0.0,0.0,0.0,0.0,0.0001545266789041,0.0001398978821972,0.0022689756656037,0.0,0.0,0.0,0.0,0.0,0.0,0.0,0.0,0.0,0.0161802709628364,-0.0193860698312635,-0.0003687811083283,0.0,0.0,0.0,0.0,0.0,0.0,0.0,0.0,0.0
3.214,2.418654501320425,-0.005608810697819211,0.004944035498891497,3.8730095067052155e-05,2.4650052503711395,0.22504252324300733,-0.17546880684681193,0.14090718608834576,0.010613029885568653,0.195659845753951,-3.4446935882656295,-0.005844027438162228,0.0046910681184656414,0.00035341389518943615,90.0,3.0,189000000.0,odom,base_footprint,-0.2359294647383072,0.2309042410431245,-0.0010040921786843,-0.0036249526091825,0.0013671035954172,0.9353676322453264,0.3536557412146908,"(1e-05, 0.0, 0.0, 0.0, 0.0, 0.0, 0.0, 1e-05, 0.0, 0.0, 0.0, 0.0, 0.0, 0.0, 1000000000000.0, 0.0, 0.0, 0.0, 0.0, 0.0, 0.0, 1000000000000.0, 0.0, 0.0, 0.0, 0.0, 0.0, 0.0, 1000000000000.0, 0.0, 0.0, 0.0, 0.0, 0.0, 0.0, 0.001)",0.2199533017219279,9.931294844378602e-05,0.0,0.0,0.0,0.0018147600606069,"(0.0, 0.0, 0.0, 0.0, 0.0, 0.0, 0.0, 0.0, 0.0, 0.0, 0.0, 0.0, 0.0, 0.0, 0.0, 0.0, 0.0, 0.0, 0.0, 0.0, 0.0, 0.0, 0.0, 0.0, 0.0, 0.0, 0.0, 0.0, 0.0, 0.0, 0.0, 0.0, 0.0, 0.0, 0.0, 0.0)",0.2199999988079071,0.0,0.0,0.0,0.0,0.0116556212306022,88,3,214000000,base_footprint,-0.0036236893249109,0.0013554575198716,0.9353713143699182,0.3536460601568752,0.0,0.0,0.0,0.0,0.0,0.0,0.0,0.0,0.0,-0.0001579793064851,0.0004830036463038,-0.0035274281563166,0.0,0.0,0.0,0.0,0.0,0.0,0.0,0.0,0.0,0.0028394741345133,0.0176925944898328,0.0008277404693294,0.0,0.0,0.0,0.0,0.0,0.0,0.0,0.0,0.0
3.248,2.418167779471127,-0.005573278007284688,0.004917765176420202,-0.0004867218492976555,2.465358664266329,0.21836581339721164,-0.17031119314707344,0.13666647705068757,0.007270061937659867,-0.2005017971710416,-0.1003894278651287,-0.005671998087351875,0.004550201776016908,0.0002420930625240736,91.0,3.0,222000000.0,odom,base_footprint,-0.2413685351288237,0.2356978130811916,-0.0010038104893077,-0.0036256179880577,0.0013553973266236,0.9353588010521102,0.3536791357807959,"(1e-05, 0.0, 0.0, 0.0, 0.0, 0.0, 0.0, 1e-05, 0.0, 0.0, 0.0, 0.0, 0.0, 0.0, 1000000000000.0, 0.0, 0.0, 0.0, 0.0, 0.0, 0.0, 1000000000000.0, 0.0, 0.0, 0.0, 0.0, 0.0, 0.0, 1000000000000.0, 0.0, 0.0, 0.0, 0.0, 0.0, 0.0, 0.001)",0.2189238822060541,6.525179453156782e-05,0.0,0.0,0.0,-0.011855198189201,"(0.0, 0.0, 0.0, 0.0, 0.0, 0.0, 0.0, 0.0, 0.0, 0.0, 0.0, 0.0, 0.0, 0.0, 0.0, 0.0, 0.0, 0.0, 0.0, 0.0, 0.0, 0.0, 0.0, 0.0, 0.0, 0.0, 0.0, 0.0, 0.0, 0.0, 0.0, 0.0, 0.0, 0.0, 0.0, 0.0)",0.2199999988079071,6.525179196614772e-05,0.0,0.0,0.0,-0.0200603287667036,89,3,248000000,base_footprint,-0.0036267390293819,0.0013569687803843,0.9352852116311164,0.3538736756299906,0.0,0.0,0.0,0.0,0.0,0.0,0.0,0.0,0.0,-0.0003863636892293,4.050217923157102e-05,-0.0138308752273284,0.0,0.0,0.0,0.0,0.0,0.0,0.0,0.0,0.0,-0.0094379273341625,0.0331774155899135,-8.197844522072087e-05,0.0,0.0,0.0,0.0,0.0,0.0,0.0,0.0,0.0
3.282,2.4175655430386773,-0.005586325942196518,0.004934127807236399,-0.0006022364324498319,2.465600757328853,0.21811236065453507,-0.17014655903961023,0.13646666375812963,0.0068118931687646345,-0.007611193473770998,-0.013758821888745713,-0.005666480183635633,0.004543591987204017,0.00022683604251986234,92.0,3.0,255000000.0,odom,base_footprint,-0.2467721565142736,0.2404677327988464,-0.0010039932422548,-0.003626382570351,0.0013559731478946,0.9352688877227798,0.3539168240477834,"(1e-05, 0.0, 0.0, 0.0, 0.0, 0.0, 0.0, 1e-05, 0.0, 0.0, 0.0, 0.0, 0.0, 0.0, 1000000000000.0, 0.0, 0.0, 0.0, 0.0, 0.0, 0.0, 1000000000000.0, 0.0, 0.0, 0.0, 0.0, 0.0, 0.0, 1000000000000.0, 0.0, 0.0, 0.0, 0.0, 0.0, 0.0, 0.001)",0.2185834002216501,3.45716936411139e-05,0.0,0.0,0.0,-0.0095323192420451,"(0.0, 0.0, 0.0, 0.0, 0.0, 0.0, 0.0, 0.0, 0.0, 0.0, 0.0, 0.0, 0.0, 0.0, 0.0, 0.0, 0.0, 0.0, 0.0, 0.0, 0.0, 0.0, 0.0, 0.0, 0.0, 0.0, 0.0, 0.0, 0.0, 0.0, 0.0, 0.0, 0.0, 0.0, 0.0, 0.0)",0.2199999988079071,6.525179196614772e-05,0.0,0.0,0.0,-0.0200603287667036,90,3,282000000,base_footprint,-0.0036168962370838,0.0013640125491175,0.9351786235691671,0.3541553325176029,0.0,0.0,0.0,0.0,0.0,0.0,0.0,0.0,0.0,0.0003046688755572,-0.0001416670590264,-0.0242852558353478,0.0,0.0,0.0,0.0,0.0,0.0,0.0,0.0,0.0,0.0079056999620697,-0.0432843738381346,-0.0001302532252271,0.0,0.0,0.0,0.0,0.0,0.0,0.0,0.0,0.0
