Time,yaw_world,delta_position_x_world,delta_position_y_world,delta_yaw,Theta_calculated,linear_velocity_x,world_velocity_x,world_velocity_y,angular_velocity_yaw,linear_acceleration_x,angular_acceleration_yaw,kinematic_delta_x,kinematic_delta_y,kinematic_delta_yaw,header.seq_x,header.stamp.secs_x,header.stamp.nsecs_x,header.frame_id_x,child_frame_id,pose.pose.position.x,pose.pose.position.y,pose.pose.position.z,pose.pose.orientation.x,pose.pose.orientation.y,pose.pose.orientation.z,pose.pose.orientation.w,pose.covariance,twist.twist.linear.x,twist.twist.linear.y,twist.twist.linear.z,twist.twist.angular.x,twist.twist.angular.y,twist.twist.angular.z,twist.covariance,linear.x,linear.y,linear.z,angular.x,angular.y,angular.z,header.seq_y,header.stamp.secs_y,header.stamp.nsecs_y,header.frame_id_y,orientation.x,orientation.y,orientation.z,orientation.w,orientation_covariance_0,orientation_covariance_1,orientation_covariance_2,orientation_covariance_3,orientation_covariance_4,orientation_covariance_5,orientation_covariance_6,orientation_covariance_7,orientation_covariance_8,angular_velocity.x,angular_velocity.y,angular_velocity.z,angular_velocity_covariance_0,angular_velocity_covariance_1,angular_velocity_covariance_2,angular_velocity_covariance_3,angular_velocity_covariance_4,angular_velocity_covariance_5,angular_velocity_covariance_6,angular_velocity_covariance_7,angular_velocity_covariance_8,linear_acceleration.x,linear_acceleration.y,linear_acceleration.z,linear_acceleration_covariance_0,linear_acceleration_covariance_1,linear_acceleration_covariance_2,linear_acceleration_covariance_3,linear_acceleration_covariance_4,linear_acceleration_covariance_5,linear_acceleration_covariance_6,linear_acceleration_covariance_7,linear_acceleration_covariance_8
0.5930000000000001,-2.3572289914486517,4.867106575270725e-06,-9.249166421870443e-06,-1.315807388957424e-05,-2.3562266246781336,0.00018403421278989955,-0.0001301360214866344,-0.00013012765804712025,0.00044877230630448753,0.005729343183872792,0.017069732493216194,-4.3334410925499415e-06,-4.333339439841003e-06,1.4944117799939436e-05,6,0,590000000,odom,base_footprint,1.2307841207979606e-05,7.751511697062612e-07,-0.0010028612692769,0.0036318449595522,0.0015106557654979,-0.9240699484114924,0.3822031633361102,"(1e-05, 0.0, 0.0, 0.0, 0.0, 0.0, 0.0, 1e-05, 0.0, 0.0, 0.0, 0.0, 0.0, 0.0, 1000000000000.0, 0.0, 0.0, 0.0, 0.0, 0.0, 0.0, 1000000000000.0, 0.0, 0.0, 0.0, 0.0, 0.0, 0.0, 1000000000000.0, 0.0, 0.0, 0.0, 0.0, 0.0, 0.0, 0.001)",0.0002241804681778,0.0005323033028882,0.0,0.0,0.0,-0.000673989392293,"(0.0, 0.0, 0.0, 0.0, 0.0, 0.0, 0.0, 0.0, 0.0, 0.0, 0.0, 0.0, 0.0, 0.0, 0.0, 0.0, 0.0, 0.0, 0.0, 0.0, 0.0, 0.0, 0.0, 0.0, 0.0, 0.0, 0.0, 0.0, 0.0, 0.0, 0.0, 0.0, 0.0, 0.0, 0.0, 0.0)",,,,,,,4,0,593000000,base_footprint,0.0036153390508303,0.0015038467908354,-0.9240702562703608,0.382202602352217,0.0,0.0,0.0,0.0,0.0,0.0,0.0,0.0,0.0,0.0203044324070673,-9.233588936457832e-05,-0.0005170013667993,0.0,0.0,0.0,0.0,0.0,0.0,0.0,0.0,0.0,-0.0108674541076539,0.0068350582913541,0.1304261371318222,0.0,0.0,0.0,0.0,0.0,0.0,0.0,0.0,0.0
0.627,-2.357238972997946,-6.658042373819412e-07,-6.856825731232918e-07,-9.981549294213465e-06,-2.3562116805603335,3.814002813970722e-05,-2.6969536136529038e-05,-2.6968608919966807e-05,-0.00042875088398293935,-0.004381206746252021,-0.026352047756379185,-8.980803493459424e-07,-8.980598811633373e-07,-1.4277404436631882e-05,7,0,623000000,odom,base_footprint,1.1883208801348032e-05,-7.668813915141619e-07,-0.0010024797521446,0.0035654543689885,0.0014825091883995,-0.9240723677651292,0.3821980492291877,"(1e-05, 0.0, 0.0, 0.0, 0.0, 0.0, 0.0, 1e-05, 0.0, 0.0, 0.0, 0.0, 0.0, 0.0, 1000000000000.0, 0.0, 0.0, 0.0, 0.0, 0.0, 0.0, 1000000000000.0, 0.0, 0.0, 0.0, 0.0, 0.0, 0.0, 1000000000000.0, 0.0, 0.0, 0.0, 0.0, 0.0, 0.0, 0.001)",1.0652494669248006e-06,1.7828089424898382e-06,0.0,0.0,0.0,2.724132349567256e-05,"(0.0, 0.0, 0.0, 0.0, 0.0, 0.0, 0.0, 0.0, 0.0, 0.0, 0.0, 0.0, 0.0, 0.0, 0.0, 0.0, 0.0, 0.0, 0.0, 0.0, 0.0, 0.0, 0.0, 0.0, 0.0, 0.0, 0.0, 0.0, 0.0, 0.0, 0.0, 0.0, 0.0, 0.0, 0.0, 0.0)",,,,,,,5,0,627000000,base_footprint,0.0035646452012946,0.0014821284253896,-0.9240723630459532,0.3821980696636072,0.0,0.0,0.0,0.0,0.0,0.0,0.0,0.0,0.0,0.0004682977658799,6.160020169761635e-05,3.704975704292472e-05,0.0,0.0,0.0,0.0,0.0,0.0,0.0,0.0,0.0,0.0101328675367645,-0.0064049378183289,0.0019276359619755,0.0,0.0,0.0,0.0,0.0,0.0,0.0,0.0,0.0
0.661,-2.3572332586427738,3.0180346097556307e-07,-2.282665639286028e-07,5.714355172159458e-06,-2.35622595796477,-7.678703963036062e-06,5.429834499718368e-06,5.4294927808787e-06,1.823179990326593e-05,-0.0013759379009832817,0.013422903420006163,1.8081109562635534e-07,1.8080450307018444e-07,6.071189367787556e-07,8,0,656000000,odom,base_footprint,1.2133842256388009e-05,-9.58991325919912e-07,-0.001002403502044,0.0035648442470168,0.0014822694304867,-0.924071457033422,0.3822002577955154,"(1e-05, 0.0, 0.0, 0.0, 0.0, 0.0, 0.0, 1e-05, 0.0, 0.0, 0.0, 0.0, 0.0, 0.0, 1000000000000.0, 0.0, 0.0, 0.0, 0.0, 0.0, 0.0, 1000000000000.0, 0.0, 0.0, 0.0, 0.0, 0.0, 0.0, 1000000000000.0, 0.0, 0.0, 0.0, 0.0, 0.0, 0.0, 0.001)",-2.0874147990433e-06,1.6747875205095057e-05,0.0,0.0,0.0,0.0002540679557542,"(0.0, 0.0, 0.0, 0.0, 0.0, 0.0, 0.0, 0.0, 0.0, 0.0, 0.0, 0.0, 0.0, 0.0, 0.0, 0.0, 0.0, 0.0, 0.0, 0.0, 0.0, 0.0, 0.0, 0.0, 0.0, 0.0, 0.0, 0.0, 0.0, 0.0, 0.0, 0.0, 0.0, 0.0, 0.0, 0.0)",,,,,,,6,0,661000000,base_footprint,0.0035648447986472,0.0014822778398818,-0.9240712700967176,0.3822007097269784,0.0,0.0,0.0,0.0,0.0,0.0,0.0,0.0,0.0,0.0001776449537339,2.9377596976951657e-05,0.0002685312259834,0.0,0.0,0.0,0.0,0.0,0.0,0.0,0.0,0.0,-0.000450864313107,-6.842666017528104e-05,-0.0003528686247491,0.0,0.0,0.0,0.0,0.0,0.0,0.0,0.0,0.0
0.6950000000000001,-2.357223665662544,5.085872830431354e-07,-3.8400720977528655e-07,9.592980229733428e-06,-2.3562253508458335,-7.25603161586936e-06,5.1309474971483435e-06,5.130630818135609e-06,0.0001529939398829391,1.2692863278279336e-05,0.004046911110500696,1.708579067378164e-07,1.708526512750501e-07,5.094698198101873e-06,9,0,690000000,odom,base_footprint,1.2630516665247064e-05,-1.3340135327196204e-06,-0.0010023897555923,0.0035647359205847,0.0014822746729311,-0.9240696668203972,0.3822045870761504,"(1e-05, 0.0, 0.0, 0.0, 0.0, 0.0, 0.0, 1e-05, 0.0, 0.0, 0.0, 0.0, 0.0, 0.0, 1000000000000.0, 0.0, 0.0, 0.0, 0.0, 0.0, 0.0, 1000000000000.0, 0.0, 0.0, 0.0, 0.0, 0.0, 0.0, 1000000000000.0, 0.0, 0.0, 0.0, 0.0, 0.0, 0.0, 0.001)",-2.635874644914064e-06,2.0878995397421727e-05,0.0,0.0,0.0,0.0003164848636875,"(0.0, 0.0, 0.0, 0.0, 0.0, 0.0, 0.0, 0.0, 0.0, 0.0, 0.0, 0.0, 0.0, 0.0, 0.0, 0.0, 0.0, 0.0, 0.0, 0.0, 0.0, 0.0, 0.0, 0.0, 0.0, 0.0, 0.0, 0.0, 0.0, 0.0, 0.0, 0.0, 0.0, 0.0, 0.0, 0.0)",,,,,,,7,0,695000000,base_footprint,0.0035647285976535,0.0014822760981438,-0.9240694372137964,0.3822051422665212,0.0,0.0,0.0,0.0,0.0,0.0,0.0,0.0,0.0,0.0001774309142736,3.061592483665498e-05,0.0003206657824731,0.0,0.0,0.0,0.0,0.0,0.0,0.0,0.0,0.0,-0.0001015007229743,-1.3400798048290538e-05,-5.513413573808571e-06,0.0,0.0,0.0,0.0,0.0,0.0,0.0,0.0,0.0
0.7290000000000001,-2.357213140839707,5.583941910447185e-07,-4.2134553463347233e-07,1.0524822837254533e-05,-2.356220256147635,-5.424770306900895e-06,3.835990704534176e-06,3.835793033697338e-06,0.00019290532931306306,5.499283210115512e-05,0.0011985402231268452,1.277364281721467e-07,1.277339703769901e-07,6.423747466125001e-06,10,0,723000000,odom,base_footprint,1.316934755455669e-05,-1.7406115164547362e-06,-0.0010023861602334,0.0035646979870963,0.0014822919424399,-0.9240677259607252,0.3822092798149106,"(1e-05, 0.0, 0.0, 0.0, 0.0, 0.0, 0.0, 1e-05, 0.0, 0.0, 0.0, 0.0, 0.0, 0.0, 1000000000000.0, 0.0, 0.0, 0.0, 0.0, 0.0, 0.0, 1000000000000.0, 0.0, 0.0, 0.0, 0.0, 0.0, 0.0, 1000000000000.0, 0.0, 0.0, 0.0, 0.0, 0.0, 0.0, 0.001)",-2.769455408811646e-06,2.186796837963636e-05,0.0,0.0,0.0,0.0003314201671715,"(0.0, 0.0, 0.0, 0.0, 0.0, 0.0, 0.0, 0.0, 0.0, 0.0, 0.0, 0.0, 0.0, 0.0, 0.0, 0.0, 0.0, 0.0, 0.0, 0.0, 0.0, 0.0, 0.0, 0.0, 0.0, 0.0, 0.0, 0.0, 0.0, 0.0, 0.0, 0.0, 0.0, 0.0, 0.0, 0.0)",,,,,,,8,0,729000000,base_footprint,0.0035646947619763,0.0014822950896296,-0.9240674259508064,0.3822100051662337,0.0,0.0,0.0,0.0,0.0,0.0,0.0,0.0,0.0,0.0001750173353548,3.084442246682611e-05,0.0003335217935966,0.0,0.0,0.0,0.0,0.0,0.0,0.0,0.0,0.0,-2.50476757805579e-05,-3.3079097742331994e-06,-3.8857361425991775e-06,0.0,0.0,0.0,0.0,0.0,0.0,0.0,0.0,0.0
0.763,-2.3572023847539865,5.70753917647146e-07,-4.306134563001299e-07,1.0756085720320387e-05,-2.3562138324001687,-3.942944385491001e-06,2.788136639975829e-06,2.7880287846253132e-06,0.0002129829277317004,4.449927691921603e-05,0.0006029308834425625,9.284342011330903e-08,9.284288856448938e-08,7.092331493465624e-06,10,0,723000000,odom,base_footprint,1.316934755455669e-05,-1.7406115164547362e-06,-0.0010023861602334,0.0035646979870963,0.0014822919424399,-0.9240677259607252,0.3822092798149106,"(1e-05, 0.0, 0.0, 0.0, 0.0, 0.0, 0.0, 1e-05, 0.0, 0.0, 0.0, 0.0, 0.0, 0.0, 1000000000000.0, 0.0, 0.0, 0.0, 0.0, 0.0, 0.0, 1000000000000.0, 0.0, 0.0, 0.0, 0.0, 0.0, 0.0, 1000000000000.0, 0.0, 0.0, 0.0, 0.0, 0.0, 0.0, 0.001)",-2.769455408811646e-06,2.186796837963636e-05,0.0,0.0,0.0,0.0003314201671715,"(0.0, 0.0, 0.0, 0.0, 0.0, 0.0, 0.0, 0.0, 0.0, 0.0, 0.0, 0.0, 0.0, 0.0, 0.0, 0.0, 0.0, 0.0, 0.0, 0.0, 0.0, 0.0, 0.0, 0.0, 0.0, 0.0, 0.0, 0.0, 0.0, 0.0, 0.0, 0.0, 0.0, 0.0, 0.0, 0.0)",,,,,,,9,0,763000000,base_footprint,0.0035646792094974,0.001482317562117,-0.9240653704073408,0.3822149748645682,0.0,0.0,0.0,0.0,0.0,0.0,0.0,0.0,0.0,0.0001744730407198,3.092272033107655e-05,0.000336724556754,0.0,0.0,0.0,0.0,0.0,0.0,0.0,0.0,0.0,-6.244374054422741e-06,-8.033215383421304e-07,-8.388052124926537e-07,0.0,0.0,0.0,0.0,0.0,0.0,0.0,0.0,0.0
0.797,-2.357191571007401,5.73842153972666e-07,-4.3291591594971784e-07,1.0813746585291995e-05,-2.3562067400686755,-2.7155858493648583e-06,1.9202326911608972e-06,1.9201856465112006e-06,0.00023109915679397507,3.685761369748175e-05,0.0005440309027710111,6.394267557595787e-08,6.394325507273767e-08,7.69560192123937e-06,11,0,756000000,odom,base_footprint,1.3722333711075566e-05,-2.157825613152524e-06,-0.0010023853330672,0.0035646814361356,0.0014823135207276,-0.924065734388354,0.3822140948764154,"(1e-05, 0.0, 0.0, 0.0, 0.0, 0.0, 0.0, 1e-05, 0.0, 0.0, 0.0, 0.0, 0.0, 0.0, 1000000000000.0, 0.0, 0.0, 0.0, 0.0, 0.0, 0.0, 1000000000000.0, 0.0, 0.0, 0.0, 0.0, 0.0, 0.0, 1000000000000.0, 0.0, 0.0, 0.0, 0.0, 0.0, 0.0, 0.001)",-2.802814021954487e-06,2.212497251848052e-05,0.0,0.0,0.0,0.0003352976910163,"(0.0, 0.0, 0.0, 0.0, 0.0, 0.0, 0.0, 0.0, 0.0, 0.0, 0.0, 0.0, 0.0, 0.0, 0.0, 0.0, 0.0, 0.0, 0.0, 0.0, 0.0, 0.0, 0.0, 0.0, 0.0, 0.0, 0.0, 0.0, 0.0, 0.0, 0.0, 0.0, 0.0, 0.0, 0.0, 0.0)",,,,,,,10,0,797000000,base_footprint,0.0035646683238248,0.0014823405739667,-0.9240633038035174,0.3822199711813762,0.0,0.0,0.0,0.0,0.0,0.0,0.0,0.0,0.0,0.0001743376294383,3.096595547461332e-05,0.0003375302513272,0.0,0.0,0.0,0.0,0.0,0.0,0.0,0.0,0.0,-1.5688536502800006e-06,-2.1753166764359705e-07,-2.1495466504176498e-07,0.0,0.0,0.0,0.0,0.0,0.0,0.0,0.0,0.0
0.8310000000000001,-2.3571807426369804,5.74632098618388e-07,-4.334912939952737e-07,1.0828370420767897e-05,-2.3561990444667544,-1.480854644500002e-06,1.0471271299492588e-06,1.0471175921841134e-06,0.00023080703062640772,3.7079015161106794e-05,-8.772557584605108e-06,3.486874844721982e-08,3.486960079497023e-08,7.685874119859378e-06,12,0,790000000,odom,base_footprint,1.4295889040166678e-05,-2.5905292097331244e-06,-0.001002385205561,0.0035646701078565,0.0014823365145412,-0.924063668811294,0.3822190887285604,"(1e-05, 0.0, 0.0, 0.0, 0.0, 0.0, 0.0, 1e-05, 0.0, 0.0, 0.0, 0.0, 0.0, 0.0, 1000000000000.0, 0.0, 0.0, 0.0, 0.0, 0.0, 0.0, 1000000000000.0, 0.0, 0.0, 0.0, 0.0, 0.0, 0.0, 1000000000000.0, 0.0, 0.0, 0.0, 0.0, 0.0, 0.0, 0.001)",-2.8119897440941185e-06,2.2192995588411788e-05,0.0,0.0,0.0,0.0003363245423782,"(0.0, 0.0, 0.0, 0.0, 0.0, 0.0, 0.0, 0.0, 0.0, 0.0, 0.0, 0.0, 0.0, 0.0, 0.0, 0.0, 0.0, 0.0, 0.0, 0.0, 0.0, 0.0, 0.0, 0.0, 0.0, 0.0, 0.0, 0.0, 0.0, 0.0, 0.0, 0.0, 0.0, 0.0, 0.0, 0.0)",,,,,,,11,0,831000000,base_footprint,0.0035646587086894,0.0014823634515887,-0.9240612343748182,0.382224974239747,0.0,0.0,0.0,0.0,0.0,0.0,0.0,0.0,0.0,0.0001743051614947,3.099875279321115e-05,0.0003377416448263,0.0,0.0,0.0,0.0,0.0,0.0,0.0,0.0,0.0,-4.096227509122717e-07,-7.22188907208935e-08,-5.912294408192565e-08,0.0,0.0,0.0,0.0,0.0,0.0,0.0,0.0,0.0
0.8650000000000001,-2.357169910315769,5.748520455770342e-07,-4.3363835691831096e-07,1.0832321211573515e-05,-2.3561913585926346,-4.3268926800000904e-07,3.0595655741148254e-07,3.0595847368441664e-07,0.00023378094629504493,3.1476437732732516e-05,8.930677683595235e-05,1.0188181931409507e-08,1.0188588600374065e-08,7.784905511624998e-06,12,0,790000000,odom,base_footprint,1.4295889040166678e-05,-2.5905292097331244e-06,-0.001002385205561,0.0035646701078565,0.0014823365145412,-0.924063668811294,0.3822190887285604,"(1e-05, 0.0, 0.0, 0.0, 0.0, 0.0, 0.0, 1e-05, 0.0, 0.0, 0.0, 0.0, 0.0, 0.0, 1000000000000.0, 0.0, 0.0, 0.0, 0.0, 0.0, 0.0, 1000000000000.0, 0.0, 0.0, 0.0, 0.0, 0.0, 0.0, 1000000000000.0, 0.0, 0.0, 0.0, 0.0, 0.0, 0.0, 0.001)",-2.8119897440941185e-06,2.2192995588411788e-05,0.0,0.0,0.0,0.0003363245423782,"(0.0, 0.0, 0.0, 0.0, 0.0, 0.0, 0.0, 0.0, 0.0, 0.0, 0.0, 0.0, 0.0, 0.0, 0.0, 0.0, 0.0, 0.0, 0.0, 0.0, 0.0, 0.0, 0.0, 0.0, 0.0, 0.0, 0.0, 0.0, 0.0, 0.0, 0.0, 0.0, 0.0, 0.0, 0.0, 0.0)",,,,,,,12,0,865000000,base_footprint,0.0035646495113186,0.0014823860530514,-0.9240591641636006,0.382229979110377,0.0,0.0,0.0,0.0,0.0,0.0,0.0,0.0,0.0,0.000174298196561,3.102743507358408e-05,0.0003378056530259,0.0,0.0,0.0,0.0,0.0,0.0,0.0,0.0,0.0,-1.2211117945976124e-07,-3.614396142184452e-08,-2.0895276778251908e-08,0.0,0.0,0.0,0.0,0.0,0.0,0.0,0.0,0.0
0.899,-2.357159076690802,5.749306020009885e-07,-4.336791872634922e-07,1.0833624966899436e-05,-2.356183573687123,6.197980759369472e-07,-4.382586381303363e-07,-4.38268206740216e-07,0.00024083053345529302,3.160622654465333e-05,0.0002116993141215644,-1.4593765372030598e-08,-1.4594578552339257e-08,8.019656764061259e-06,14,0,856000000,odom,base_footprint,1.5411458081301954e-05,-3.4320821135844226e-06,-0.0010023853451495,0.0035646516536309,0.0014823807613819,-0.9240596513057476,0.382228801419473,"(1e-05, 0.0, 0.0, 0.0, 0.0, 0.0, 0.0, 1e-05, 0.0, 0.0, 0.0, 0.0, 0.0, 0.0, 1000000000000.0, 0.0, 0.0, 0.0, 0.0, 0.0, 0.0, 1000000000000.0, 0.0, 0.0, 0.0, 0.0, 0.0, 0.0, 1000000000000.0, 0.0, 0.0, 0.0, 0.0, 0.0, 0.0, 0.001)",-2.8157755575609344e-06,2.2215498030860143e-05,0.0,0.0,0.0,0.0003366654716247,"(0.0, 0.0, 0.0, 0.0, 0.0, 0.0, 0.0, 0.0, 0.0, 0.0, 0.0, 0.0, 0.0, 0.0, 0.0, 0.0, 0.0, 0.0, 0.0, 0.0, 0.0, 0.0, 0.0, 0.0, 0.0, 0.0, 0.0, 0.0, 0.0, 0.0, 0.0, 0.0, 0.0, 0.0, 0.0, 0.0)",,,,,,,13,0,899000000,base_footprint,0.0035646405106881,0.001482408365766,-0.9240570936763604,0.3822349845708332,0.0,0.0,0.0,0.0,0.0,0.0,0.0,0.0,0.0,0.0001742975580728,3.1053712307167686e-05,0.000337833109357,0.0,0.0,0.0,0.0,0.0,0.0,0.0,0.0,0.0,-5.0784358439699946e-08,-2.7166399417119573e-08,-1.176541928441921e-08,0.0,0.0,0.0,0.0,0.0,0.0,0.0,0.0,0.0
0.933,-2.35714824241871,5.749740630400096e-07,-4.3369365905357796e-07,1.0834272091919672e-05,-2.356175554030359,1.6646311814594398e-06,-1.1770497071475128e-06,-1.1770942855995033e-06,0.00023073868393930162,3.137636953520998e-05,-0.0003030585440237658,-3.919509769922954e-08,-3.919789722181871e-08,7.683598175178745e-06,16,0,923000000,odom,base_footprint,1.6544429007019426e-05,-4.286690871048784e-06,-0.0010023855351857,0.0035646339792151,0.0014824245977709,-0.9240555711608855,0.3822386652452046,"(1e-05, 0.0, 0.0, 0.0, 0.0, 0.0, 0.0, 1e-05, 0.0, 0.0, 0.0, 0.0, 0.0, 0.0, 1000000000000.0, 0.0, 0.0, 0.0, 0.0, 0.0, 0.0, 1000000000000.0, 0.0, 0.0, 0.0, 0.0, 0.0, 0.0, 1000000000000.0, 0.0, 0.0, 0.0, 0.0, 0.0, 0.0, 0.001)",-2.8171034775907694e-06,2.221876671129936e-05,0.0,0.0,0.0,0.0003367163920173,"(0.0, 0.0, 0.0, 0.0, 0.0, 0.0, 0.0, 0.0, 0.0, 0.0, 0.0, 0.0, 0.0, 0.0, 0.0, 0.0, 0.0, 0.0, 0.0, 0.0, 0.0, 0.0, 0.0, 0.0, 0.0, 0.0, 0.0, 0.0, 0.0, 0.0, 0.0, 0.0, 0.0, 0.0, 0.0, 0.0)",,,,,,,14,0,933000000,base_footprint,0.0035646316433129,0.0014824304071109,-0.9240550230387072,0.3822399903179548,0.0,0.0,0.0,0.0,0.0,0.0,0.0,0.0,0.0,0.0001742984901112,3.10781369668455e-05,0.0003378514995107,0.0,0.0,0.0,0.0,0.0,0.0,0.0,0.0,0.0,-3.3071384330196626e-08,-2.491282385460297e-08,-9.819251501332471e-09,0.0,0.0,0.0,0.0,0.0,0.0,0.0,0.0,0.0
0.9670000000000001,-2.3571374076625062,5.750087919897603e-07,-4.3370158114841573e-07,1.0834756203781382e-05,-2.356167870432184,2.79633944759461e-06,-1.9772579496594663e-06,-1.9773632207265754e-06,0.00022473286126227485,3.398523321727238e-05,-0.00018035503534614923,-6.584159171203134e-08,-6.584729318064308e-08,7.4836042800337535e-06,16,0,923000000,odom,base_footprint,1.6544429007019426e-05,-4.286690871048784e-06,-0.0010023855351857,0.0035646339792151,0.0014824245977709,-0.9240555711608855,0.3822386652452046,"(1e-05, 0.0, 0.0, 0.0, 0.0, 0.0, 0.0, 1e-05, 0.0, 0.0, 0.0, 0.0, 0.0, 0.0, 1000000000000.0, 0.0, 0.0, 0.0, 0.0, 0.0, 0.0, 1000000000000.0, 0.0, 0.0, 0.0, 0.0, 0.0, 0.0, 1000000000000.0, 0.0, 0.0, 0.0, 0.0, 0.0, 0.0, 0.001)",-2.8171034775907694e-06,2.221876671129936e-05,0.0,0.0,0.0,0.0003367163920173,"(0.0, 0.0, 0.0, 0.0, 0.0, 0.0, 0.0, 0.0, 0.0, 0.0, 0.0, 0.0, 0.0, 0.0, 0.0, 0.0, 0.0, 0.0, 0.0, 0.0, 0.0, 0.0, 0.0, 0.0, 0.0, 0.0, 0.0, 0.0, 0.0, 0.0, 0.0, 0.0, 0.0, 0.0, 0.0, 0.0)",,,,,,,15,0,967000000,base_footprint,0.0035646228855803,0.0014824521999934,-0.9240529522817932,0.3822449962765513,0.0,0.0,0.0,0.0,0.0,0.0,0.0,0.0,0.0,0.0001742998130728,3.110096272395657e-05,0.000337867639812,0.0,0.0,0.0,0.0,0.0,0.0,0.0,0.0,0.0,-2.8656306094368103e-08,-2.432968234563007e-08,-9.624887130226044e-09,0.0,0.0,0.0,0.0,0.0,0.0,0.0,0.0,0.0
1.001,-2.3571265724627755,5.750413294390577e-07,-4.337078669835494e-07,1.0835199730774292e-05,-2.3561603868279035,4.208550691707217e-06,-2.9757932433203653e-06,-2.9759962193655687e-06,0.00022185621691638526,4.2408746069447654e-05,-8.638571609278066e-05,-9.909226721261796e-08,-9.91023217598589e-08,7.38781202331563e-06,18,0,990000000,odom,base_footprint,1.7677548560974653e-05,-5.1413407245902085e-06,-0.0010023857095359,0.0035646167624482,0.0014824674459202,-0.9240514905037204,0.3822485300108573,"(1e-05, 0.0, 0.0, 0.0, 0.0, 0.0, 0.0, 1e-05, 0.0, 0.0, 0.0, 0.0, 0.0, 0.0, 1000000000000.0, 0.0, 0.0, 0.0, 0.0, 0.0, 0.0, 1000000000000.0, 0.0, 0.0, 0.0, 0.0, 0.0, 0.0, 1000000000000.0, 0.0, 0.0, 0.0, 0.0, 0.0, 0.0, 0.001)",-2.8182681883963216e-06,2.22207385329338e-05,0.0,0.0,0.0,0.0003367478306227,"(0.0, 0.0, 0.0, 0.0, 0.0, 0.0, 0.0, 0.0, 0.0, 0.0, 0.0, 0.0, 0.0, 0.0, 0.0, 0.0, 0.0, 0.0, 0.0, 0.0, 0.0, 0.0, 0.0, 0.0, 0.0, 0.0, 0.0, 0.0, 0.0, 0.0, 0.0, 0.0, 0.0, 0.0, 0.0, 0.0)",,,,,,,16,1,1000000,base_footprint,0.0035646142244958,0.0014824737669647,-0.9240508814133452,0.3822500024279667,0.0,0.0,0.0,0.0,0.0,0.0,0.0,0.0,0.0,0.0001743012344208,3.112235828606467e-05,0.0003378832208442,0.0,0.0,0.0,0.0,0.0,0.0,0.0,0.0,0.0,-2.75411222253395e-08,-2.4163278620771272e-08,-9.838616799185737e-09,0.0,0.0,0.0,0.0,0.0,0.0,0.0,0.0,0.0
1.035,-2.357115736829727,5.75073299955573e-07,-4.337137361129506e-07,1.0835633048600355e-05,-2.3561529990158805,5.555761160409889e-06,-3.928353389030387e-06,-3.9286793865639526e-06,0.00020242960478124983,4.0456770831912074e-05,-0.0005833817457998626,-1.3081203488346122e-07,-1.3082715633577836e-07,6.74090583921562e-06,19,1,23000000,odom,base_footprint,1.823569838357896e-05,-5.562296433817351e-06,-0.0010023857891379,0.0035646084153581,0.0014824882389322,-0.9240494804695504,0.3822533890489671,"(1e-05, 0.0, 0.0, 0.0, 0.0, 0.0, 0.0, 1e-05, 0.0, 0.0, 0.0, 0.0, 0.0, 0.0, 1000000000000.0, 0.0, 0.0, 0.0, 0.0, 0.0, 0.0, 1000000000000.0, 0.0, 0.0, 0.0, 0.0, 0.0, 0.0, 1000000000000.0, 0.0, 0.0, 0.0, 0.0, 0.0, 0.0, 0.001)",-2.8188343751988976e-06,2.2221670063214417e-05,0.0,0.0,0.0,0.0003367627334041,"(0.0, 0.0, 0.0, 0.0, 0.0, 0.0, 0.0, 0.0, 0.0, 0.0, 0.0, 0.0, 0.0, 0.0, 0.0, 0.0, 0.0, 0.0, 0.0, 0.0, 0.0, 0.0, 0.0, 0.0, 0.0, 0.0, 0.0, 0.0, 0.0, 0.0, 0.0, 0.0, 0.0, 0.0, 0.0, 0.0)",,,,,,,17,1,35000000,base_footprint,0.0035646056503611,0.0014824951289215,-0.9240488104352808,0.3822550087675664,0.0,0.0,0.0,0.0,0.0,0.0,0.0,0.0,0.0,0.0001743026813839,3.11424615741526e-05,0.0003378986620095,0.0,0.0,0.0,0.0,0.0,0.0,0.0,0.0,0.0,-2.724618688485155e-08,-2.410241699651073e-08,-1.0129166056987267e-08,0.0,0.0,0.0,0.0,0.0,0.0,0.0,0.0,0.0
1.069,-2.357104900766021,5.751051087112791e-07,-4.33719491959271e-07,1.0836063705887966e-05,-2.356146258110041,7.204059003662169e-06,-5.09379327152537e-06,-5.094284663739242e-06,0.00018628745750219595,4.9498433731299675e-05,-0.00048474916753915565,-1.696205957298375e-07,-1.6964239921007812e-07,6.203372334823126e-06,19,1,23000000,odom,base_footprint,1.823569838357896e-05,-5.562296433817351e-06,-0.0010023857891379,0.0035646084153581,0.0014824882389322,-0.9240494804695504,0.3822533890489671,"(1e-05, 0.0, 0.0, 0.0, 0.0, 0.0, 0.0, 1e-05, 0.0, 0.0, 0.0, 0.0, 0.0, 0.0, 1000000000000.0, 0.0, 0.0, 0.0, 0.0, 0.0, 0.0, 1000000000000.0, 0.0, 0.0, 0.0, 0.0, 0.0, 0.0, 1000000000000.0, 0.0, 0.0, 0.0, 0.0, 0.0, 0.0, 0.001)",-2.8188343751988976e-06,2.2221670063214417e-05,0.0,0.0,0.0,0.0003367627334041,"(0.0, 0.0, 0.0, 0.0, 0.0, 0.0, 0.0, 0.0, 0.0, 0.0, 0.0, 0.0, 0.0, 0.0, 0.0, 0.0, 0.0, 0.0, 0.0, 0.0, 0.0, 0.0, 0.0, 0.0, 0.0, 0.0, 0.0, 0.0, 0.0, 0.0, 0.0, 0.0, 0.0, 0.0, 0.0, 0.0)",,,,,,,18,1,69000000,base_footprint,0.0035645971548959,0.0014825163049294,-0.924046739348076,0.3822600152941945,0.0,0.0,0.0,0.0,0.0,0.0,0.0,0.0,0.0,0.0001743041358829,3.116139381671755e-05,0.0003379140674546,0.0,0.0,0.0,0.0,0.0,0.0,0.0,0.0,0.0,-2.7156390773952887e-08,-2.4069703832292315e-08,-1.041668788145474e-08,0.0,0.0,0.0,0.0,0.0,0.0,0.0,0.0,0.0
1.103,-2.3570940642724336,5.751368582084178e-07,-4.3372521059794125e-07,1.0836493587351725e-05,-2.3561400547377063,9.333777797369384e-06,-6.599618292050038e-06,-6.600336837609441e-06,0.00017192687119121618,6.395551933054698e-05,-0.0004312488381675605,-2.197638172741415e-07,-2.1979468811145325e-07,5.725164810667499e-06,20,1,56000000,odom,base_footprint,1.879387820282602e-05,-5.983257586529567e-06,-0.0010023858650261,0.0035646001447916,0.0014825088511558,-0.9240474703324828,0.3822582482634662,"(1e-05, 0.0, 0.0, 0.0, 0.0, 0.0, 0.0, 1e-05, 0.0, 0.0, 0.0, 0.0, 0.0, 0.0, 1000000000000.0, 0.0, 0.0, 0.0, 0.0, 0.0, 0.0, 1000000000000.0, 0.0, 0.0, 0.0, 0.0, 0.0, 0.0, 1000000000000.0, 0.0, 0.0, 0.0, 0.0, 0.0, 0.0, 0.001)",-2.8193991176702247e-06,2.2222595710126703e-05,0.0,0.0,0.0,0.0003367775906839,"(0.0, 0.0, 0.0, 0.0, 0.0, 0.0, 0.0, 0.0, 0.0, 0.0, 0.0, 0.0, 0.0, 0.0, 0.0, 0.0, 0.0, 0.0, 0.0, 0.0, 0.0, 0.0, 0.0, 0.0, 0.0, 0.0, 0.0, 0.0, 0.0, 0.0, 0.0, 0.0, 0.0, 0.0, 0.0, 0.0)",,,,,,,19,1,103000000,base_footprint,0.0035645887307172,0.0014825373123113,-0.9240446681518484,0.3822650220075584,0.0,0.0,0.0,0.0,0.0,0.0,0.0,0.0,0.0,0.0001743055933323,3.117926405822844e-05,0.0003379294631216,0.0,0.0,0.0,0.0,0.0,0.0,0.0,0.0,0.0,-2.7119012069554924e-08,-2.4045748208209217e-08,-1.0683588074094861e-08,0.0,0.0,0.0,0.0,0.0,0.0,0.0,0.0,0.0
1.137,-2.3570832273492615,5.751685758490777e-07,-4.3373091178225756e-07,1.0836923172163893e-05,-2.3561343295728956,-0.00015259650885604954,0.0001078955345495088,0.00010790851745497275,0.0021907357589475785,-0.004862771370973541,0.06062489152421508,3.5927437506866075e-06,3.5935311493571974e-06,7.295150077295437e-05,20,1,56000000,odom,base_footprint,1.879387820282602e-05,-5.983257586529567e-06,-0.0010023858650261,0.0035646001447916,0.0014825088511558,-0.9240474703324828,0.3822582482634662,"(1e-05, 0.0, 0.0, 0.0, 0.0, 0.0, 0.0, 1e-05, 0.0, 0.0, 0.0, 0.0, 0.0, 0.0, 1000000000000.0, 0.0, 0.0, 0.0, 0.0, 0.0, 0.0, 1000000000000.0, 0.0, 0.0, 0.0, 0.0, 0.0, 0.0, 1000000000000.0, 0.0, 0.0, 0.0, 0.0, 0.0, 0.0, 0.001)",-2.8193991176702247e-06,2.2222595710126703e-05,0.0,0.0,0.0,0.0003367775906839,"(0.0, 0.0, 0.0, 0.0, 0.0, 0.0, 0.0, 0.0, 0.0, 0.0, 0.0, 0.0, 0.0, 0.0, 0.0, 0.0, 0.0, 0.0, 0.0, 0.0, 0.0, 0.0, 0.0, 0.0, 0.0, 0.0, 0.0, 0.0, 0.0, 0.0, 0.0, 0.0, 0.0, 0.0, 0.0, 0.0)",,,,,,,20,1,137000000,base_footprint,0.0035645803711593,0.001482558166788,-0.9240425968466268,0.3822700289075804,0.0,0.0,0.0,0.0,0.0,0.0,0.0,0.0,0.0,0.0001743070524553,3.1196171162996785e-05,0.0003379448556395,0.0,0.0,0.0,0.0,0.0,0.0,0.0,0.0,0.0,-2.7096215347975553e-08,-2.4025605781907703e-08,-1.0927392390271233e-08,0.0,0.0,0.0,0.0,0.0,0.0,0.0,0.0,0.0
1.171,-2.3570723899966706,5.752002701082774e-07,-4.3373660112708615e-07,1.0837352590886697e-05,-2.356061378072123,9.907283248499993e-06,-7.004574588175885e-06,-7.006439623995143e-06,0.00016208030681469588,0.004879993756893379,-0.06092058414813461,-2.3324868656663277e-07,-2.3331808566215804e-07,5.3972742169293735e-06,22,1,123000000,odom,base_footprint,1.9927244397800054e-05,-6.837952868723584e-06,-0.001002386009005,0.003564583560228,0.0014825502101339,-0.9240433888291396,0.3822681144825923,"(1e-05, 0.0, 0.0, 0.0, 0.0, 0.0, 0.0, 1e-05, 0.0, 0.0, 0.0, 0.0, 0.0, 0.0, 1000000000000.0, 0.0, 0.0, 0.0, 0.0, 0.0, 0.0, 1000000000000.0, 0.0, 0.0, 0.0, 0.0, 0.0, 0.0, 1000000000000.0, 0.0, 0.0, 0.0, 0.0, 0.0, 0.0, 0.001)",-2.8205404772340857e-06,2.222447449345843e-05,0.0,0.0,0.0,0.0003368077386487,"(0.0, 0.0, 0.0, 0.0, 0.0, 0.0, 0.0, 0.0, 0.0, 0.0, 0.0, 0.0, 0.0, 0.0, 0.0, 0.0, 0.0, 0.0, 0.0, 0.0, 0.0, 0.0, 0.0, 0.0, 0.0, 0.0, 0.0, 0.0, 0.0, 0.0, 0.0, 0.0, 0.0, 0.0, 0.0, 0.0)",,,,,,,21,1,171000000,base_footprint,0.0035645720701831,0.0014825788826227,-0.9240405254324172,0.3822750359942378,0.0,0.0,0.0,0.0,0.0,0.0,0.0,0.0,0.0,0.0001743085129525,3.121220437404069e-05,0.0003379602467216,0.0,0.0,0.0,0.0,0.0,0.0,0.0,0.0,0.0,-2.7078254229098752e-08,-2.4007851779067862e-08,-1.1148893693710364e-08,0.0,0.0,0.0,0.0,0.0,0.0,0.0,0.0,0.0
1.205,-2.357061552214786,5.752319446436712e-07,-4.337422807002174e-07,1.083778188437634e-05,-2.356055980797906,8.486071096621616e-06,-5.999727226782271e-06,-6.0013894942025155e-06,0.00019086659512027049,-4.2679043599951234e-05,0.0008644531022695077,-1.9978769683257192e-07,-1.99849489035424e-07,6.355857617505008e-06,24,1,190000000,odom,base_footprint,2.106073370544692e-05,-7.692670262816285e-06,-0.0010023861414276,0.0035645672123922,0.0014825910089101,-0.9240393069025594,0.3822779814265092,"(1e-05, 0.0, 0.0, 0.0, 0.0, 0.0, 0.0, 1e-05, 0.0, 0.0, 0.0, 0.0, 0.0, 0.0, 1000000000000.0, 0.0, 0.0, 0.0, 0.0, 0.0, 0.0, 1000000000000.0, 0.0, 0.0, 0.0, 0.0, 0.0, 0.0, 1000000000000.0, 0.0, 0.0, 0.0, 0.0, 0.0, 0.0, 0.001)",-2.8216794067706624e-06,2.2226350871833507e-05,0.0,0.0,0.0,0.0003368378966994,"(0.0, 0.0, 0.0, 0.0, 0.0, 0.0, 0.0, 0.0, 0.0, 0.0, 0.0, 0.0, 0.0, 0.0, 0.0, 0.0, 0.0, 0.0, 0.0, 0.0, 0.0, 0.0, 0.0, 0.0, 0.0, 0.0, 0.0, 0.0, 0.0, 0.0, 0.0, 0.0, 0.0, 0.0, 0.0, 0.0)",,,,,,,22,1,205000000,base_footprint,0.0035645638223119,0.0014825994727546,-0.92403845390922,0.3822800432675218,0.0,0.0,0.0,0.0,0.0,0.0,0.0,0.0,0.0,0.0001743099746115,3.122744505945743e-05,0.0003379756369749,0.0,0.0,0.0,0.0,0.0,0.0,0.0,0.0,0.0,-2.7062838616873363e-08,-2.3992040669457195e-08,-1.1350138451859516e-08,0.0,0.0,0.0,0.0,0.0,0.0,0.0,0.0,0.0
1.239,-2.357050714003712,5.75263601805806e-07,-4.337479516461351e-07,1.08382110743932e-05,-2.3560496249402885,6.7440496780720615e-06,-4.76807238189597e-06,-4.7694540380744594e-06,0.00020587291477747725,-5.231295551199864e-05,0.00045064022994614896,-1.5877421176542782e-07,-1.588254172281314e-07,6.855568062089993e-06,24,1,190000000,odom,base_footprint,2.106073370544692e-05,-7.692670262816285e-06,-0.0010023861414276,0.0035645672123922,0.0014825910089101,-0.9240393069025594,0.3822779814265092,"(1e-05, 0.0, 0.0, 0.0, 0.0, 0.0, 0.0, 1e-05, 0.0, 0.0, 0.0, 0.0, 0.0, 0.0, 1000000000000.0, 0.0, 0.0, 0.0, 0.0, 0.0, 0.0, 1000000000000.0, 0.0, 0.0, 0.0, 0.0, 0.0, 0.0, 1000000000000.0, 0.0, 0.0, 0.0, 0.0, 0.0, 0.0, 0.001)",-2.8216794067706624e-06,2.2226350871833507e-05,0.0,0.0,0.0,0.0003368378966994,"(0.0, 0.0, 0.0, 0.0, 0.0, 0.0, 0.0, 0.0, 0.0, 0.0, 0.0, 0.0, 0.0, 0.0, 0.0, 0.0, 0.0, 0.0, 0.0, 0.0, 0.0, 0.0, 0.0, 0.0, 0.0, 0.0, 0.0, 0.0, 0.0, 0.0, 0.0, 0.0, 0.0, 0.0, 0.0, 0.0)",,,,,,,23,1,239000000,base_footprint,0.0035645556225784,0.001482619948922,-0.9240363822770336,0.3822850507274282,0.0,0.0,0.0,0.0,0.0,0.0,0.0,0.0,0.0,0.000174311437325,3.124196681851983e-05,0.0003379910265511,0.0,0.0,0.0,0.0,0.0,0.0,0.0,0.0,0.0,-2.7048953933874234e-08,-2.39778800809949e-08,-1.1532700517624628e-08,0.0,0.0,0.0,0.0,0.0,0.0,0.0,0.0,0.0
1.2730000000000001,-2.3570398753635398,5.752952434369547e-07,-4.337536147944708e-07,1.0838640172039504e-05,-2.3560427693722263,5.495408193743264e-06,-3.885250791569544e-06,-3.886429917349448e-06,0.00022315392577685838,-3.749674127113505e-05,0.0005189492792606946,-1.293766966689801e-07,-1.2942027025112195e-07,7.431025728369385e-06,26,1,256000000,odom,base_footprint,2.2177425484068945e-05,-8.534652226046754e-06,-0.001002386262541,0.0035645512994757,0.0014826307467835,-0.9240352854864576,0.3822877018111661,"(1e-05, 0.0, 0.0, 0.0, 0.0, 0.0, 0.0, 1e-05, 0.0, 0.0, 0.0, 0.0, 0.0, 0.0, 1000000000000.0, 0.0, 0.0, 0.0, 0.0, 0.0, 0.0, 1000000000000.0, 0.0, 0.0, 0.0, 0.0, 0.0, 0.0, 1000000000000.0, 0.0, 0.0, 0.0, 0.0, 0.0, 0.0, 0.001)",-2.822802506597985e-06,2.222819627753652e-05,0.0,0.0,0.0,0.0003368676172192,"(0.0, 0.0, 0.0, 0.0, 0.0, 0.0, 0.0, 0.0, 0.0, 0.0, 0.0, 0.0, 0.0, 0.0, 0.0, 0.0, 0.0, 0.0, 0.0, 0.0, 0.0, 0.0, 0.0, 0.0, 0.0, 0.0, 0.0, 0.0, 0.0, 0.0, 0.0, 0.0, 0.0, 0.0, 0.0, 0.0)",,,,,,,24,1,273000000,base_footprint,0.0035645474664759,0.0014826403217731,-0.9240343105358556,0.3822900583739547,0.0,0.0,0.0,0.0,0.0,0.0,0.0,0.0,0.0,0.0001743129009025,3.125583634676353e-05,0.000338006415653,0.0,0.0,0.0,0.0,0.0,0.0,0.0,0.0,0.0,-2.7036582599466133e-08,-2.3965244098493955e-08,-1.1698355993027444e-08,0.0,0.0,0.0,0.0,0.0,0.0,0.0,0.0,0.0
1.307,-2.35702903629435,5.753268711747166e-07,-4.337592708794462e-07,1.083906918974975e-05,-2.356035338346498,4.591308673441446e-06,-3.246028762688305e-06,-3.247062150101054e-06,0.0002448211428171171,-2.7150135744799352e-05,0.0006506671783861483,-1.0809091857162514e-07,-1.0812900820839107e-07,8.15254405581e-06,27,1,290000000,odom,base_footprint,2.275273747323137e-05,-8.968408836072458e-06,-0.0010023863218551,0.003564543164792,0.0014826510689074,-0.9240332136875768,0.3822927095564909,"(1e-05, 0.0, 0.0, 0.0, 0.0, 0.0, 0.0, 1e-05, 0.0, 0.0, 0.0, 0.0, 0.0, 0.0, 1000000000000.0, 0.0, 0.0, 0.0, 0.0, 0.0, 0.0, 1000000000000.0, 0.0, 0.0, 0.0, 0.0, 0.0, 0.0, 1000000000000.0, 0.0, 0.0, 0.0, 0.0, 0.0, 0.0, 0.001)",-2.8233828402343134e-06,2.222914611984808e-05,0.0,0.0,0.0,0.0003368829322334,"(0.0, 0.0, 0.0, 0.0, 0.0, 0.0, 0.0, 0.0, 0.0, 0.0, 0.0, 0.0, 0.0, 0.0, 0.0, 0.0, 0.0, 0.0, 0.0, 0.0, 0.0, 0.0, 0.0, 0.0, 0.0, 0.0, 0.0, 0.0, 0.0, 0.0, 0.0, 0.0, 0.0, 0.0, 0.0, 0.0)",,,,,,,25,1,307000000,base_footprint,0.0035645393499165,0.0014826606009676,-0.9240322386856826,0.3822950662071,0.0,0.0,0.0,0.0,0.0,0.0,0.0,0.0,0.0,0.0001743143653998,3.1269114427255426e-05,0.0003380218043937,0.0,0.0,0.0,0.0,0.0,0.0,0.0,0.0,0.0,-2.7025449899104307e-08,-2.3953949531524574e-08,-1.1848862299724893e-08,0.0,0.0,0.0,0.0,0.0,0.0,0.0,0.0,0.0
1.341,-2.357018196796215,5.753584864215886e-07,-4.3376492050387766e-07,1.0839498135073454e-05,-2.356027185802442,3.622692977378385e-06,-2.5612021625389363e-06,-2.5620593066813554e-06,0.0002493327159670045,-2.9087558440332142e-05,0.00013548267717379493,-8.528657438148848e-08,-8.531803202995849e-08,8.30277944170125e-06,27,1,290000000,odom,base_footprint,2.275273747323137e-05,-8.968408836072458e-06,-0.0010023863218551,0.003564543164792,0.0014826510689074,-0.9240332136875768,0.3822927095564909,"(1e-05, 0.0, 0.0, 0.0, 0.0, 0.0, 0.0, 1e-05, 0.0, 0.0, 0.0, 0.0, 0.0, 0.0, 1000000000000.0, 0.0, 0.0, 0.0, 0.0, 0.0, 0.0, 1000000000000.0, 0.0, 0.0, 0.0, 0.0, 0.0, 0.0, 1000000000000.0, 0.0, 0.0, 0.0, 0.0, 0.0, 0.0, 0.001)",-2.8233828402343134e-06,2.222914611984808e-05,0.0,0.0,0.0,0.0003368829322334,"(0.0, 0.0, 0.0, 0.0, 0.0, 0.0, 0.0, 0.0, 0.0, 0.0, 0.0, 0.0, 0.0, 0.0, 0.0, 0.0, 0.0, 0.0, 0.0, 0.0, 0.0, 0.0, 0.0, 0.0, 0.0, 0.0, 0.0, 0.0, 0.0, 0.0, 0.0, 0.0, 0.0, 0.0, 0.0, 0.0)",,,,,,,26,1,341000000,base_footprint,0.0035645312691916,0.0014826807952686,-0.9240301667265116,0.3823000742268634,0.0,0.0,0.0,0.0,0.0,0.0,0.0,0.0,0.0,0.0001743158306189,3.12818558100316e-05,0.0003380371928363,0.0,0.0,0.0,0.0,0.0,0.0,0.0,0.0,0.0,-2.7015359908700866e-08,-2.3943878309451324e-08,-1.1985406287948369e-08,0.0,0.0,0.0,0.0,0.0,0.0,0.0,0.0,0.0
1.375,-2.3570073568691976,5.753900905584343e-07,-4.33770564291832e-07,1.0839927017336493e-05,-2.356018883023,2.9712286649188946e-06,-2.1006069585898474e-06,-2.1013448514605185e-06,0.00025859582573569805,-1.9563492866651367e-05,0.0002781714645253321,-6.994900541422057e-08,-6.997598941960165e-08,8.611240996998746e-06,28,1,323000000,odom,base_footprint,2.3311158761253527e-05,-9.389413304471649e-06,-0.0010023863776642,0.0035645353052927,0.0014826707082149,-0.924031202719722,0.3822975701936544,"(1e-05, 0.0, 0.0, 0.0, 0.0, 0.0, 0.0, 1e-05, 0.0, 0.0, 0.0, 0.0, 0.0, 0.0, 1000000000000.0, 0.0, 0.0, 0.0, 0.0, 0.0, 0.0, 1000000000000.0, 0.0, 0.0, 0.0, 0.0, 0.0, 0.0, 1000000000000.0, 0.0, 0.0, 0.0, 0.0, 0.0, 0.0, 0.001)",-2.823942503142746e-06,2.223006813936284e-05,0.0,0.0,0.0,0.0003368977993503,"(0.0, 0.0, 0.0, 0.0, 0.0, 0.0, 0.0, 0.0, 0.0, 0.0, 0.0, 0.0, 0.0, 0.0, 0.0, 0.0, 0.0, 0.0, 0.0, 0.0, 0.0, 0.0, 0.0, 0.0, 0.0, 0.0, 0.0, 0.0, 0.0, 0.0, 0.0, 0.0, 0.0, 0.0, 0.0, 0.0)",0.0,0.0,0.0,0.0,0.0,0.0,27,1,375000000,base_footprint,0.003564523220937,0.0014827009126254,-0.9240280946583392,0.3823050824332453,0.0,0.0,0.0,0.0,0.0,0.0,0.0,0.0,0.0,0.0001743172965841,3.1294110502880015e-05,0.000338052581125,0.0,0.0,0.0,0.0,0.0,0.0,0.0,0.0,0.0,-2.7006390310255598e-08,-2.3934922024810783e-08,-1.2109286290583296e-08,0.0,0.0,0.0,0.0,0.0,0.0,0.0,0.0,0.0
1.409,-2.3569965165133535,5.754216847271218e-07,-4.33776202735537e-07,1.084035584408838e-05,-2.3560102717820035,2.52227294827478e-06,-1.7831877189286006e-06,-1.7838448320022025e-06,0.0002742049173348534,-1.348215365297641e-05,0.00046874148946412375,-5.9379111559005625e-08,-5.9403071986672005e-08,9.131023747250619e-06,28,1,323000000,odom,base_footprint,2.3311158761253527e-05,-9.389413304471649e-06,-0.0010023863776642,0.0035645353052927,0.0014826707082149,-0.924031202719722,0.3822975701936544,"(1e-05, 0.0, 0.0, 0.0, 0.0, 0.0, 0.0, 1e-05, 0.0, 0.0, 0.0, 0.0, 0.0, 0.0, 1000000000000.0, 0.0, 0.0, 0.0, 0.0, 0.0, 0.0, 1000000000000.0, 0.0, 0.0, 0.0, 0.0, 0.0, 0.0, 1000000000000.0, 0.0, 0.0, 0.0, 0.0, 0.0, 0.0, 0.001)",-2.823942503142746e-06,2.223006813936284e-05,0.0,0.0,0.0,0.0003368977993503,"(0.0, 0.0, 0.0, 0.0, 0.0, 0.0, 0.0, 0.0, 0.0, 0.0, 0.0, 0.0, 0.0, 0.0, 0.0, 0.0, 0.0, 0.0, 0.0, 0.0, 0.0, 0.0, 0.0, 0.0, 0.0, 0.0, 0.0, 0.0, 0.0, 0.0, 0.0, 0.0, 0.0, 0.0, 0.0, 0.0)",0.0,0.0,0.0,0.0,0.0,0.0,28,1,409000000,base_footprint,0.0035645152021008,0.0014827209602493,-0.9240260224811612,0.3823100908262464,0.0,0.0,0.0,0.0,0.0,0.0,0.0,0.0,0.0,0.0001743187631882,3.1305923646001594e-05,0.0003380679693031,0.0,0.0,0.0,0.0,0.0,0.0,0.0,0.0,0.0,-2.699826159564445e-08,-2.3926960956299553e-08,-1.2222014972424186e-08,0.0,0.0,0.0,0.0,0.0,0.0,0.0,0.0,0.0
1.443,-2.356985675728731,5.754532700231358e-07,-4.337818363276524e-07,1.0840784622434542e-05,-2.356001140758256,2.033526043009008e-06,-1.4376420068263972e-06,-1.4381980488806273e-06,0.00027221475245473,-1.4677084242215378e-05,-5.976471111481647e-05,-4.7872642347346116e-08,-4.789283116827915e-08,9.06475125674251e-06,30,1,390000000,odom,base_footprint,2.4445014786328954e-05,-1.0244196310536802e-05,-0.0010023864862758,0.0035645194438778,0.0014827103550735,-0.9240271195297164,0.3823074393008225,"(1e-05, 0.0, 0.0, 0.0, 0.0, 0.0, 0.0, 1e-05, 0.0, 0.0, 0.0, 0.0, 0.0, 0.0, 1000000000000.0, 0.0, 0.0, 0.0, 0.0, 0.0, 0.0, 1000000000000.0, 0.0, 0.0, 0.0, 0.0, 0.0, 0.0, 1000000000000.0, 0.0, 0.0, 0.0, 0.0, 0.0, 0.0, 0.001)",-2.825076651552214e-06,2.223194047144976e-05,0.0,0.0,0.0,0.0003369279914227,"(0.0, 0.0, 0.0, 0.0, 0.0, 0.0, 0.0, 0.0, 0.0, 0.0, 0.0, 0.0, 0.0, 0.0, 0.0, 0.0, 0.0, 0.0, 0.0, 0.0, 0.0, 0.0, 0.0, 0.0, 0.0, 0.0, 0.0, 0.0, 0.0, 0.0, 0.0, 0.0, 0.0, 0.0, 0.0, 0.0)",0.0,0.0,0.0,0.0,0.0,0.0,29,1,443000000,base_footprint,0.0035645072099142,0.0014827409446823,-0.9240239501949734,0.3823150994058683,0.0,0.0,0.0,0.0,0.0,0.0,0.0,0.0,0.0,0.0001743202303164,3.131733636270235e-05,0.0003380833574925,0.0,0.0,0.0,0.0,0.0,0.0,0.0,0.0,0.0,-2.6991064554964195e-08,-2.3919919362205296e-08,-1.2323990190361214e-08,0.0,0.0,0.0,0.0,0.0,0.0,0.0,0.0,0.0
1.477,-2.3569748345153725,5.754848474300475e-07,-4.3378746550750375e-07,1.0841213358592228e-05,-2.3559920760069994,1.7083126099639704e-06,-1.2077148980235921e-06,-1.2082039142685217e-06,0.0002770644152275902,-9.766169160511639e-06,0.00014563551870451095,-4.021620014444175e-08,-4.023389600703546e-08,9.226245027078755e-06,32,1,456000000,odom,base_footprint,2.556206752606137e-05,-1.108624276055601e-05,-0.0010023865880086,0.0035645039261646,0.0014827491566056,-0.9240230968689752,0.3823171618164264,"(1e-05, 0.0, 0.0, 0.0, 0.0, 0.0, 0.0, 1e-05, 0.0, 0.0, 0.0, 0.0, 0.0, 0.0, 1000000000000.0, 0.0, 0.0, 0.0, 0.0, 0.0, 0.0, 1000000000000.0, 0.0, 0.0, 0.0, 0.0, 0.0, 0.0, 1000000000000.0, 0.0, 0.0, 0.0, 0.0, 0.0, 0.0, 0.001)",-2.826195931177188e-06,2.223378271212012e-05,0.0,0.0,0.0,0.0003369577413085,"(0.0, 0.0, 0.0, 0.0, 0.0, 0.0, 0.0, 0.0, 0.0, 0.0, 0.0, 0.0, 0.0, 0.0, 0.0, 0.0, 0.0, 0.0, 0.0, 0.0, 0.0, 0.0, 0.0, 0.0, 0.0, 0.0, 0.0, 0.0, 0.0, 0.0, 0.0, 0.0, 0.0, 0.0, 0.0, 0.0)",0.2084210515022277,2.223194132966455e-05,0.0,0.0,0.0,-0.0242784544825553,30,1,477000000,base_footprint,0.0035644992418656,0.0014827608718587,-0.9240218777997714,0.382320108172113,0.0,0.0,0.0,0.0,0.0,0.0,0.0,0.0,0.0,0.000174321697999,3.1328385753794266e-05,0.0003380987457199,0.0,0.0,0.0,0.0,0.0,0.0,0.0,0.0,0.0,-2.6984540243966988e-08,-2.391368634868748e-08,-1.2416818479163208e-08,0.0,0.0,0.0,0.0,0.0,0.0,0.0,0.0,0.0
1.5110000000000001,-2.357073076514032,-0.00010891103221149882,-0.0001104599142502909,-9.824199865970938e-05,-2.3559828497619724,1.4872525665720679e-06,-1.0514237807179297e-06,-1.051868922497484e-06,0.00028960579935275886,-6.6384397414985745e-06,0.0003766181418969567,-3.501178997028985e-08,-3.502785677075643e-08,9.64387311844687e-06,32,1,456000000,odom,base_footprint,2.556206752606137e-05,-1.108624276055601e-05,-0.0010023865880086,0.0035645039261646,0.0014827491566056,-0.9240230968689752,0.3823171618164264,"(1e-05, 0.0, 0.0, 0.0, 0.0, 0.0, 0.0, 1e-05, 0.0, 0.0, 0.0, 0.0, 0.0, 0.0, 1000000000000.0, 0.0, 0.0, 0.0, 0.0, 0.0, 0.0, 1000000000000.0, 0.0, 0.0, 0.0, 0.0, 0.0, 0.0, 1000000000000.0, 0.0, 0.0, 0.0, 0.0, 0.0, 0.0, 0.001)",-2.826195931177188e-06,2.223378271212012e-05,0.0,0.0,0.0,0.0003369577413085,"(0.0, 0.0, 0.0, 0.0, 0.0, 0.0, 0.0, 0.0, 0.0, 0.0, 0.0, 0.0, 0.0, 0.0, 0.0, 0.0, 0.0, 0.0, 0.0, 0.0, 0.0, 0.0, 0.0, 0.0, 0.0, 0.0, 0.0, 0.0, 0.0, 0.0, 0.0, 0.0, 0.0, 0.0, 0.0, 0.0)",0.2084210515022277,2.223194132966455e-05,0.0,0.0,0.0,-0.0242784544825553,31,1,511000000,base_footprint,0.0035599766868347,0.0014811352089154,-0.924040673143646,0.3822747273633451,0.0,0.0,0.0,0.0,0.0,0.0,0.0,0.0,0.0,-0.0002093628209443,0.000100553755695,-0.0099841370193508,0.0,0.0,0.0,0.0,0.0,0.0,0.0,0.0,0.0,0.0007808800260641,0.4370468348879189,0.0018882276400782,0.0,0.0,0.0,0.0,0.0,0.0,0.0,0.0,0.0
1.545,-2.357715343675671,-0.000672206279593585,-0.0006718131139589001,-0.0006422671616386212,-2.3559732058888536,0.03370424346665517,-0.023827224768611353,-0.02383777228445732,-0.0003524327556378756,1.0120947812038616,-0.019280437086805838,-0.0007934409762530648,-0.000793803423073317,-1.1736010762741258e-05,34,1,523000000,odom,base_footprint,-0.0002680613582474,-0.0003069014547481,-0.0010021304923015,0.0035602354031621,0.0014808864949766,-0.924074094674186,0.3821939288517629,"(1e-05, 0.0, 0.0, 0.0, 0.0, 0.0, 0.0, 1e-05, 0.0, 0.0, 0.0, 0.0, 0.0, 0.0, 1000000000000.0, 0.0, 0.0, 0.0, 0.0, 0.0, 0.0, 1000000000000.0, 0.0, 0.0, 0.0, 0.0, 0.0, 0.0, 1000000000000.0, 0.0, 0.0, 0.0, 0.0, 0.0, 0.0, 0.001)",0.0246572019034789,2.8745529778578804e-05,0.0,0.0,0.0,-0.0164516527477146,"(0.0, 0.0, 0.0, 0.0, 0.0, 0.0, 0.0, 0.0, 0.0, 0.0, 0.0, 0.0, 0.0, 0.0, 0.0, 0.0, 0.0, 0.0, 0.0, 0.0, 0.0, 0.0, 0.0, 0.0, 0.0, 0.0, 0.0, 0.0, 0.0, 0.0, 0.0, 0.0, 0.0, 0.0, 0.0, 0.0)",0.2084210515022277,2.223194132966455e-05,0.0,0.0,0.0,-0.0242784544825553,32,1,545000000,base_footprint,0.0035610679412321,0.0014802956007057,-0.9241633842360776,0.3819779663244627,0.0,0.0,0.0,0.0,0.0,0.0,0.0,0.0,0.0,0.0001848392342608,0.0001884828074709,-0.0272700499938915,0.0,0.0,0.0,0.0,0.0,0.0,0.0,0.0,0.0,0.0022402852074894,0.7493325153476446,0.0044211398949116,0.0,0.0,0.0,0.0,0.0,0.0,0.0,0.0,0.0
1.5790000000000002,-2.358947373081505,-0.0012865846949533999,-0.001282487896476,-0.001232029405834112,-2.3559849418996164,0.06705429937371035,-0.047404613115978184,-0.047424484391752765,4.356176068446576e-05,1.0015031803920476,0.011891727216887126,-0.0015785520463070116,-0.0015792568914094933,1.45060663079271e-06,34,1,523000000,odom,base_footprint,-0.0002680613582474,-0.0003069014547481,-0.0010021304923015,0.0035602354031621,0.0014808864949766,-0.924074094674186,0.3821939288517629,"(1e-05, 0.0, 0.0, 0.0, 0.0, 0.0, 0.0, 1e-05, 0.0, 0.0, 0.0, 0.0, 0.0, 0.0, 1000000000000.0, 0.0, 0.0, 0.0, 0.0, 0.0, 0.0, 1000000000000.0, 0.0, 0.0, 0.0, 0.0, 0.0, 0.0, 1000000000000.0, 0.0, 0.0, 0.0, 0.0, 0.0, 0.0, 0.001)",0.0246572019034789,2.8745529778578804e-05,0.0,0.0,0.0,-0.0164516527477146,"(0.0, 0.0, 0.0, 0.0, 0.0, 0.0, 0.0, 0.0, 0.0, 0.0, 0.0, 0.0, 0.0, 0.0, 0.0, 0.0, 0.0, 0.0, 0.0, 0.0, 0.0, 0.0, 0.0, 0.0, 0.0, 0.0, 0.0, 0.0, 0.0, 0.0, 0.0, 0.0, 0.0, 0.0, 0.0, 0.0)",0.2084210515022277,2.8745529562002048e-05,0.0,0.0,0.0,-0.0246567707508802,33,1,579000000,base_footprint,0.0035626031060562,0.001478433070304,-0.9243985103063138,0.3814085948667559,0.0,0.0,0.0,0.0,0.0,0.0,0.0,0.0,0.0,0.0003850173989805,0.0002812204601656,-0.0446165110330667,0.0,0.0,0.0,0.0,0.0,0.0,0.0,0.0,0.0,0.0054729598830877,0.7495173503742842,0.0042212482696235,0.0,0.0,0.0,0.0,0.0,0.0,0.0,0.0,0.0
1.613,-2.360768845461438,-0.0019009666839596,-0.0018885135985994002,-0.00182147237993302,-2.3559834912929856,0.10312032291516306,-0.07290169256487626,-0.07293246341173297,4.487986455751978e-05,1.0830637700135946,3.9582698890511146e-05,-0.0024275931368212783,-0.0024286842431726426,1.4944994897654088e-06,35,1,556000000,odom,base_footprint,-0.0011394266169461,-0.0011770019525438,-0.0010021999347597,0.0035613218434014,0.0014796549687634,-0.9242333189153028,0.3818087215016249,"(1e-05, 0.0, 0.0, 0.0, 0.0, 0.0, 0.0, 1e-05, 0.0, 0.0, 0.0, 0.0, 0.0, 0.0, 1000000000000.0, 0.0, 0.0, 0.0, 0.0, 0.0, 0.0, 1000000000000.0, 0.0, 0.0, 0.0, 0.0, 0.0, 0.0, 1000000000000.0, 0.0, 0.0, 0.0, 0.0, 0.0, 0.0, 0.001)",0.0493873721992382,3.379923626740597e-05,0.0,0.0,0.0,-0.0332826006775887,"(0.0, 0.0, 0.0, 0.0, 0.0, 0.0, 0.0, 0.0, 0.0, 0.0, 0.0, 0.0, 0.0, 0.0, 0.0, 0.0, 0.0, 0.0, 0.0, 0.0, 0.0, 0.0, 0.0, 0.0, 0.0, 0.0, 0.0, 0.0, 0.0, 0.0, 0.0, 0.0, 0.0, 0.0, 0.0, 0.0)",0.2084210515022277,2.8745529562002048e-05,0.0,0.0,0.0,-0.0246567707508802,34,1,613000000,base_footprint,0.0035649095382173,0.0014756737744966,-0.9247454855442092,0.3805665523564834,0.0,0.0,0.0,0.0,0.0,0.0,0.0,0.0,0.0,0.0004486790788024,0.000374147307154,-0.0619041070874818,0.0,0.0,0.0,0.0,0.0,0.0,0.0,0.0,0.0,0.0102653661024458,0.7418014220968135,0.0040493126701186,0.0,0.0,0.0,0.0,0.0,0.0,0.0,0.0,0.0
1.647,-2.363173223481208,-0.0025059214822156003,-0.0024784508053229994,-0.0024043780197700033,-2.355981996793496,0.1337808528861818,-0.09457724482113657,-0.09461744744494546,4.31845309195231e-05,0.9207366357663286,-5.091092005996042e-05,-0.0031493792367350585,-0.003150803996855944,1.4380448796201193e-06,37,1,623000000,odom,base_footprint,-0.0046885283812695,-0.004703533459898,-0.0010024539524979,0.0035656072762277,0.0014744981175253,-0.9248812110214668,0.3802365813536602,"(1e-05, 0.0, 0.0, 0.0, 0.0, 0.0, 0.0, 1e-05, 0.0, 0.0, 0.0, 0.0, 0.0, 0.0, 1000000000000.0, 0.0, 0.0, 0.0, 0.0, 0.0, 0.0, 1000000000000.0, 0.0, 0.0, 0.0, 0.0, 0.0, 0.0, 1000000000000.0, 0.0, 0.0, 0.0, 0.0, 0.0, 0.0, 0.001)",0.0991072888463999,3.85869091758112e-05,0.0,0.0,0.0,-0.067343960591332,"(0.0, 0.0, 0.0, 0.0, 0.0, 0.0, 0.0, 0.0, 0.0, 0.0, 0.0, 0.0, 0.0, 0.0, 0.0, 0.0, 0.0, 0.0, 0.0, 0.0, 0.0, 0.0, 0.0, 0.0, 0.0, 0.0, 0.0, 0.0, 0.0, 0.0, 0.0, 0.0, 0.0, 0.0, 0.0, 0.0)",0.2084210515022277,2.8745529562002048e-05,0.0,0.0,0.0,-0.0246567707508802,35,1,647000000,base_footprint,0.0035680019376717,0.0014720247849348,-0.9252023247499936,0.3794545569398432,0.0,0.0,0.0,0.0,0.0,0.0,0.0,0.0,0.0,0.0006166052320472,0.0004646881427653,-0.0788287809582598,0.0,0.0,0.0,0.0,0.0,0.0,0.0,0.0,0.0,0.0164750119477278,0.7169141239637031,0.0040606562275722,0.0,0.0,0.0,0.0,0.0,0.0,0.0,0.0,0.0
1.681,-2.366140356631759,-0.0030826042316638,-0.0030318318387171006,-0.002967133150550971,-2.3559805587486164,0.16714392216888518,-0.11816331383737785,-0.11821388235299479,4.1804084382178316e-05,1.001893972453555,-4.1454850971314803e-05,-0.0039347846980322685,-0.003936575912097891,1.392076009926538e-06,37,1,623000000,odom,base_footprint,-0.0046885283812695,-0.004703533459898,-0.0010024539524979,0.0035656072762277,0.0014744981175253,-0.9248812110214668,0.3802365813536602,"(1e-05, 0.0, 0.0, 0.0, 0.0, 0.0, 0.0, 1e-05, 0.0, 0.0, 0.0, 0.0, 0.0, 0.0, 1000000000000.0, 0.0, 0.0, 0.0, 0.0, 0.0, 0.0, 1000000000000.0, 0.0, 0.0, 0.0, 0.0, 0.0, 0.0, 1000000000000.0, 0.0, 0.0, 0.0, 0.0, 0.0, 0.0, 0.001)",0.0991072888463999,3.85869091758112e-05,0.0,0.0,0.0,-0.067343960591332,"(0.0, 0.0, 0.0, 0.0, 0.0, 0.0, 0.0, 0.0, 0.0, 0.0, 0.0, 0.0, 0.0, 0.0, 0.0, 0.0, 0.0, 0.0, 0.0, 0.0, 0.0, 0.0, 0.0, 0.0, 0.0, 0.0, 0.0, 0.0, 0.0, 0.0, 0.0, 0.0, 0.0, 0.0, 0.0, 0.0)",0.2199999988079071,3.85869097954128e-05,0.0,0.0,0.0,0.0,36,1,681000000,base_footprint,0.0035719447047543,0.0014675290219046,-0.9257642454434516,0.3780815380683282,0.0,0.0,0.0,0.0,0.0,0.0,0.0,0.0,0.0,0.000741728644855,0.0005515280347724,-0.0949057050382545,0.0,0.0,0.0,0.0,0.0,0.0,0.0,0.0,0.0,0.023437240402735,0.6608509198193215,0.0037480164949174,0.0,0.0,0.0,0.0,0.0,0.0,0.0,0.0,0.0
1.715,-2.369626225077084,-0.0036011358710671005,-0.0035184027163240005,-0.0034858684453249462,-2.3559791666726064,0.20624261039937739,-0.1458041431789012,-0.14586694682557752,3.975093641987964e-05,1.1741347816964625,-6.165609496392429e-05,-0.004855211930331487,-0.004857435338088163,1.323706182781992e-06,39,1,690000000,odom,base_footprint,-0.0105403393790217,-0.0104633410283339,-0.0010028888088919,0.003573160430533,0.0014660047489357,-0.9259481422405792,0.3776309325728409,"(1e-05, 0.0, 0.0, 0.0, 0.0, 0.0, 0.0, 1e-05, 0.0, 0.0, 0.0, 0.0, 0.0, 0.0, 1000000000000.0, 0.0, 0.0, 0.0, 0.0, 0.0, 0.0, 1000000000000.0, 0.0, 0.0, 0.0, 0.0, 0.0, 0.0, 1000000000000.0, 0.0, 0.0, 0.0, 0.0, 0.0, 0.0, 0.001)",0.1439713450710546,2.8148782258874405e-05,0.0,0.0,0.0,-0.0993006425260757,"(0.0, 0.0, 0.0, 0.0, 0.0, 0.0, 0.0, 0.0, 0.0, 0.0, 0.0, 0.0, 0.0, 0.0, 0.0, 0.0, 0.0, 0.0, 0.0, 0.0, 0.0, 0.0, 0.0, 0.0, 0.0, 0.0, 0.0, 0.0, 0.0, 0.0, 0.0, 0.0, 0.0, 0.0, 0.0, 0.0)",0.2199999988079071,3.85869097954128e-05,0.0,0.0,0.0,0.0,37,1,715000000,base_footprint,0.0035766290898797,0.0014621847023265,-0.9264218019203112,0.3764674151463487,0.0,0.0,0.0,0.0,0.0,0.0,0.0,0.0,0.0,0.0007392115295294,0.0006339048847067,-0.1093323235655366,0.0,0.0,0.0,0.0,0.0,0.0,0.0,0.0,0.0,0.0295408057479205,0.5624965350177512,0.003116133247332,0.0,0.0,0.0,0.0,0.0,0.0,0.0,0.0,0.0
1.749,-2.3735628491333802,-0.0040237387936733985,-0.0039018062334857002,-0.003936624056296355,-2.3559778429664235,0.21801746804009642,-0.15412822776117036,-0.15419502513964342,-4.375368528634942e-06,0.3535993285501211,-0.0013251142627181555,-0.005132403938296647,-0.005134760335855312,-1.4569977200354357e-07,40,1,723000000,odom,base_footprint,-0.0141612352011239,-0.0139938857603052,-0.001003137568341,0.0035778989768234,0.0014605970190063,-0.9266101737652817,0.3760035254754065,"(1e-05, 0.0, 0.0, 0.0, 0.0, 0.0, 0.0, 1e-05, 0.0, 0.0, 0.0, 0.0, 0.0, 0.0, 1000000000000.0, 0.0, 0.0, 0.0, 0.0, 0.0, 0.0, 1000000000000.0, 0.0, 0.0, 0.0, 0.0, 0.0, 0.0, 1000000000000.0, 0.0, 0.0, 0.0, 0.0, 0.0, 0.0, 0.001)",0.1613573198357682,1.6390447546754672e-05,0.0,0.0,0.0,-0.1127800907784818,"(0.0, 0.0, 0.0, 0.0, 0.0, 0.0, 0.0, 0.0, 0.0, 0.0, 0.0, 0.0, 0.0, 0.0, 0.0, 0.0, 0.0, 0.0, 0.0, 0.0, 0.0, 0.0, 0.0, 0.0, 0.0, 0.0, 0.0, 0.0, 0.0, 0.0, 0.0, 0.0, 0.0, 0.0, 0.0, 0.0)",0.2199999988079071,3.85869097954128e-05,0.0,0.0,0.0,0.0,38,1,749000000,base_footprint,0.0035817226705031,0.0014559269511401,-0.927161003894978,0.3746431961158261,0.0,0.0,0.0,0.0,0.0,0.0,0.0,0.0,0.0,0.0007406311956603,0.0007089532876492,-0.1214773666194571,0.0,0.0,0.0,0.0,0.0,0.0,0.0,0.0,0.0,0.0329621242809463,0.4191802634541642,0.0023797673545329,0.0,0.0,0.0,0.0,0.0,0.0,0.0,0.0,0.0
1.783,-2.3778715729400135,-0.004316303737717599,-0.0041485135090699975,-0.0043087238066332745,-2.355977988666196,0.21801460539709272,-0.1541262264713573,-0.15419297805072035,2.4678541219265798e-05,-8.59652553663125e-05,0.0008724897822192414,-0.005132334823756299,-0.0051346946581374685,8.217954226015512e-07,40,1,723000000,odom,base_footprint,-0.0141612352011239,-0.0139938857603052,-0.001003137568341,0.0035778989768234,0.0014605970190063,-0.9266101737652817,0.3760035254754065,"(1e-05, 0.0, 0.0, 0.0, 0.0, 0.0, 0.0, 1e-05, 0.0, 0.0, 0.0, 0.0, 0.0, 0.0, 1000000000000.0, 0.0, 0.0, 0.0, 0.0, 0.0, 0.0, 1000000000000.0, 0.0, 0.0, 0.0, 0.0, 0.0, 0.0, 1000000000000.0, 0.0, 0.0, 0.0, 0.0, 0.0, 0.0, 0.001)",0.1613573198357682,1.6390447546754672e-05,0.0,0.0,0.0,-0.1127800907784818,"(0.0, 0.0, 0.0, 0.0, 0.0, 0.0, 0.0, 0.0, 0.0, 0.0, 0.0, 0.0, 0.0, 0.0, 0.0, 0.0, 0.0, 0.0, 0.0, 0.0, 0.0, 0.0, 0.0, 0.0, 0.0, 0.0, 0.0, 0.0, 0.0, 0.0, 0.0, 0.0, 0.0, 0.0, 0.0, 0.0)",0.2199999988079071,1.6390447854064405e-05,0.0,0.0,0.0,-0.0061134197749197,39,1,783000000,base_footprint,0.0035860274041759,0.0014482014053141,-0.927965965425753,0.3726448847516845,0.0,0.0,0.0,0.0,0.0,0.0,0.0,0.0,0.0,0.0010240870813198,0.0007874477874205,-0.131296376933207,0.0,0.0,0.0,0.0,0.0,0.0,0.0,0.0,0.0,0.0361552535644527,0.2394983546863162,0.0019379734232312,0.0,0.0,0.0,0.0,0.0,0.0,0.0,0.0,0.0
1.8170000000000002,-2.38246960874378,-0.0044546087771925,-0.004233794659073302,-0.00459803580376672,-2.355977166870773,0.22462140378206377,-0.15879679631389765,-0.1588658318124682,1.2770611675257277e-05,0.19840235390303457,-0.00035759548180205766,-0.0052878637706966665,-0.005290301714015747,4.2526136878606735e-07,41,1,756000000,odom,base_footprint,-0.0181507653703295,-0.0178547368116795,-0.0010033671241997,0.003582978573915,0.0014543282420986,-0.927345070404008,0.3741873429063156,"(1e-05, 0.0, 0.0, 0.0, 0.0, 0.0, 0.0, 1e-05, 0.0, 0.0, 0.0, 0.0, 0.0, 0.0, 1000000000000.0, 0.0, 0.0, 0.0, 0.0, 0.0, 0.0, 1000000000000.0, 0.0, 0.0, 0.0, 0.0, 0.0, 0.0, 1000000000000.0, 0.0, 0.0, 0.0, 0.0, 0.0, 0.0, 0.001)",0.1738399978414297,6.975113825136159e-06,0.0,0.0,0.0,-0.1239900301757116,"(0.0, 0.0, 0.0, 0.0, 0.0, 0.0, 0.0, 0.0, 0.0, 0.0, 0.0, 0.0, 0.0, 0.0, 0.0, 0.0, 0.0, 0.0, 0.0, 0.0, 0.0, 0.0, 0.0, 0.0, 0.0, 0.0, 0.0, 0.0, 0.0, 0.0, 0.0, 0.0, 0.0, 0.0, 0.0, 0.0)",0.2199999988079071,1.6390447854064405e-05,0.0,0.0,0.0,-0.0061134197749197,40,1,817000000,base_footprint,0.0035839581842474,0.0014387622245223,-0.92882024784579,0.3705105024134679,0.0,0.0,0.0,0.0,0.0,0.0,0.0,0.0,0.0,0.0016154597000897,0.0013603819753246,-0.1385851193867318,0.0,0.0,0.0,0.0,0.0,0.0,0.0,0.0,0.0,0.0316622614255205,0.0353556281019581,0.0015432407335368,0.0,0.0,0.0,0.0,0.0,0.0,0.0,0.0,0.0
1.851,-2.3872396033274774,-0.0044488259229188,-0.0042129864738004,-0.004769994583697202,-2.355976741609404,0.21801205693785627,-0.1541242325434621,-0.15419136782960294,-0.006050588383979363,-0.19847888421043536,-0.18208285272236094,-0.005132787776251688,-0.005134121855533479,-0.0002014845931865128,43,1,823000000,odom,base_footprint,-0.0268449195821047,-0.0261453198203382,-0.0010021261073309,0.0035815602184094,0.0014350821040856,-0.929000291466868,0.3700588756133687,"(1e-05, 0.0, 0.0, 0.0, 0.0, 0.0, 0.0, 1e-05, 0.0, 0.0, 0.0, 0.0, 0.0, 0.0, 1000000000000.0, 0.0, 0.0, 0.0, 0.0, 0.0, 0.0, 1000000000000.0, 0.0, 0.0, 0.0, 0.0, 0.0, 0.0, 1000000000000.0, 0.0, 0.0, 0.0, 0.0, 0.0, 0.0, 0.001)",0.1802197556167288,-1.1267879391735349e-05,0.0,0.0,0.0,-0.1390178809349126,"(0.0, 0.0, 0.0, 0.0, 0.0, 0.0, 0.0, 0.0, 0.0, 0.0, 0.0, 0.0, 0.0, 0.0, 0.0, 0.0, 0.0, 0.0, 0.0, 0.0, 0.0, 0.0, 0.0, 0.0, 0.0, 0.0, 0.0, 0.0, 0.0, 0.0, 0.0, 0.0, 0.0, 0.0, 0.0, 0.0)",0.2199999988079071,1.6390447854064405e-05,0.0,0.0,0.0,-0.0061134197749197,41,1,851000000,base_footprint,0.0035770496468218,0.0014267723076587,-0.9297013100312091,0.368294234495817,0.0,0.0,0.0,0.0,0.0,0.0,0.0,0.0,0.0,0.0007150413079356,0.0006272306890479,-0.1433654966034447,0.0,0.0,0.0,0.0,0.0,0.0,0.0,0.0,0.0,0.0076036646272808,-0.0030262179174553,-0.0022300947230532,0.0,0.0,0.0,0.0,0.0,0.0,0.0,0.0,0.0
1.885,-2.39225797430073,-0.004546350577517001,-0.004260077273176902,-0.00501837097325275,-2.3561782262025908,0.21801071638494887,-0.15415434870122072,-0.15415936311227116,-0.00596579126810326,-4.025684406615225e-05,0.0025464599362193135,-0.00513378330373268,-0.005133063258881439,-0.00019866084922783858,43,1,823000000,odom,base_footprint,-0.0268449195821047,-0.0261453198203382,-0.0010021261073309,0.0035815602184094,0.0014350821040856,-0.929000291466868,0.3700588756133687,"(1e-05, 0.0, 0.0, 0.0, 0.0, 0.0, 0.0, 1e-05, 0.0, 0.0, 0.0, 0.0, 0.0, 0.0, 1000000000000.0, 0.0, 0.0, 0.0, 0.0, 0.0, 0.0, 1000000000000.0, 0.0, 0.0, 0.0, 0.0, 0.0, 0.0, 1000000000000.0, 0.0, 0.0, 0.0, 0.0, 0.0, 0.0, 0.001)",0.1802197556167288,-1.1267879391735349e-05,0.0,0.0,0.0,-0.1390178809349126,"(0.0, 0.0, 0.0, 0.0, 0.0, 0.0, 0.0, 0.0, 0.0, 0.0, 0.0, 0.0, 0.0, 0.0, 0.0, 0.0, 0.0, 0.0, 0.0, 0.0, 0.0, 0.0, 0.0, 0.0, 0.0, 0.0, 0.0, 0.0, 0.0, 0.0, 0.0, 0.0, 0.0, 0.0, 0.0, 0.0)",0.1968421041965484,0.0,0.0,0.0,0.0,0.0332898199558258,42,1,885000000,base_footprint,0.0035824816808546,0.0014198670281138,-0.9306224901863728,0.365960285498227,0.0,0.0,0.0,0.0,0.0,0.0,0.0,0.0,0.0,0.0009669750735273,0.0008043007928295,-0.1518794268123748,0.0,0.0,0.0,0.0,0.0,0.0,0.0,0.0,0.0,0.0427547276799332,0.1713496494995465,0.0016759034381641,0.0,0.0,0.0,0.0,0.0,0.0,0.0,0.0,0.0
1.919,-2.395269004331737,-0.004687867547744098,-0.0043474444465985,-0.003011030031006889,-2.3563768870518187,0.224624592372343,-0.1588625405903015,-0.15880459910102124,-0.006232120415299013,0.1986148945163402,-0.00799787228816075,-0.005290602904222845,-0.005287712609626175,-0.00020752960982945714,45,1,890000000,odom,base_footprint,-0.0357458344257978,-0.0345170402863242,-0.001001667727808,0.0035832150825727,0.0014183373124064,-0.9307902369477008,0.3655334234947379,"(1e-05, 0.0, 0.0, 0.0, 0.0, 0.0, 0.0, 1e-05, 0.0, 0.0, 0.0, 0.0, 0.0, 0.0, 1000000000000.0, 0.0, 0.0, 0.0, 0.0, 0.0, 0.0, 1000000000000.0, 0.0, 0.0, 0.0, 0.0, 0.0, 0.0, 1000000000000.0, 0.0, 0.0, 0.0, 0.0, 0.0, 0.0, 0.001)",0.1882201201417543,0.0001367729743878,0.0,0.0,0.0,-0.1535990719638623,"(0.0, 0.0, 0.0, 0.0, 0.0, 0.0, 0.0, 0.0, 0.0, 0.0, 0.0, 0.0, 0.0, 0.0, 0.0, 0.0, 0.0, 0.0, 0.0, 0.0, 0.0, 0.0, 0.0, 0.0, 0.0, 0.0, 0.0, 0.0, 0.0, 0.0, 0.0, 0.0, 0.0, 0.0, 0.0, 0.0)",0.1968421041965484,0.0,0.0,0.0,0.0,0.0332898199558258,43,1,919000000,base_footprint,0.0035907154791509,0.0014238070925634,-0.9311723521610484,0.3645588157027226,0.0,0.0,0.0,0.0,0.0,0.0,0.0,0.0,0.0,0.0011380505197573,0.0002195149648255,-0.0330248352630671,0.0,0.0,0.0,0.0,0.0,0.0,0.0,0.0,0.0,0.0307326686500143,0.1118617023001054,0.0019410995819699,0.0,0.0,0.0,0.0,0.0,0.0,0.0,0.0,0.0
1.953,-2.394876276032881,-0.004848393959199802,-0.004482687969101895,0.00039272829885605987,-2.356584416661648,0.19483428781693823,-0.1378223552900557,-0.13771491600925145,0.04197119831270135,-0.8946037404025455,1.4475471089489598,-0.004586218858778083,-0.004589171751053675,0.0013976409038129552,46,1,923000000,odom,base_footprint,-0.040311756678763,-0.0387464677009092,-0.0010028986192251,0.0035902874008952,0.001423476034708,-0.9311945742364048,0.3645020555018011,"(1e-05, 0.0, 0.0, 0.0, 0.0, 0.0, 0.0, 1e-05, 0.0, 0.0, 0.0, 0.0, 0.0, 0.0, 1000000000000.0, 0.0, 0.0, 0.0, 0.0, 0.0, 0.0, 1000000000000.0, 0.0, 0.0, 0.0, 0.0, 0.0, 0.0, 1000000000000.0, 0.0, 0.0, 0.0, 0.0, 0.0, 0.0, 0.001)",0.1915260170249733,-2.258024036674855e-05,0.0,0.0,0.0,-0.018467706798767,"(0.0, 0.0, 0.0, 0.0, 0.0, 0.0, 0.0, 0.0, 0.0, 0.0, 0.0, 0.0, 0.0, 0.0, 0.0, 0.0, 0.0, 0.0, 0.0, 0.0, 0.0, 0.0, 0.0, 0.0, 0.0, 0.0, 0.0, 0.0, 0.0, 0.0, 0.0, 0.0, 0.0, 0.0, 0.0, 0.0)",0.1968421041965484,0.0,0.0,0.0,0.0,0.0332898199558258,44,1,953000000,base_footprint,0.0035973618444317,0.0014226650214582,-0.9311007331548335,0.3647416342159592,0.0,0.0,0.0,0.0,0.0,0.0,0.0,0.0,0.0,0.0010518434270418,-0.0002311153371276,0.0336007096416281,0.0,0.0,0.0,0.0,0.0,0.0,0.0,0.0,0.0,0.0078596682324393,0.1628189079674043,0.0012487621580912,0.0,0.0,0.0,0.0,0.0,0.0,0.0,0.0,0.0
1.987,-2.3937267982637622,-0.0048893994129017015,-0.004531487013510305,0.0011494777691187787,-2.355186775757835,0.19453519734567443,-0.13741846906930563,-0.13769570568819053,0.03501025905353186,-0.008981695833747975,-0.20903721499007477,-0.004573301798052646,-0.0045879925753043735,0.0011658416264826112,47,1,956000000,odom,base_footprint,-0.0450336367046582,-0.043113292317279,-0.001003382468681,0.0035961000140994,0.0014224117322836,-0.9310761344333648,0.3648044362369722,"(1e-05, 0.0, 0.0, 0.0, 0.0, 0.0, 0.0, 1e-05, 0.0, 0.0, 0.0, 0.0, 0.0, 0.0, 1000000000000.0, 0.0, 0.0, 0.0, 0.0, 0.0, 0.0, 1000000000000.0, 0.0, 0.0, 0.0, 0.0, 0.0, 0.0, 1000000000000.0, 0.0, 0.0, 0.0, 0.0, 0.0, 0.0, 0.001)",0.195968495001533,6.0108593614299766e-05,0.0,0.0,0.0,0.0338298026788067,"(0.0, 0.0, 0.0, 0.0, 0.0, 0.0, 0.0, 0.0, 0.0, 0.0, 0.0, 0.0, 0.0, 0.0, 0.0, 0.0, 0.0, 0.0, 0.0, 0.0, 0.0, 0.0, 0.0, 0.0, 0.0, 0.0, 0.0, 0.0, 0.0, 0.0, 0.0, 0.0, 0.0, 0.0, 0.0, 0.0)",0.2199999988079071,6.01085921516642e-05,0.0,0.0,0.0,0.0256246645003557,45,1,987000000,base_footprint,0.0035938502131729,0.0014225028163064,-0.9308909617087944,0.365276714471726,0.0,0.0,0.0,0.0,0.0,0.0,0.0,0.0,0.0,0.0001974422379785,-0.0001256506370115,0.0337877983992348,0.0,0.0,0.0,0.0,0.0,0.0,0.0,0.0,0.0,-0.0047714335119872,0.0045211655631249,-0.0009150822637803,0.0,0.0,0.0,0.0,0.0,0.0,0.0,0.0,0.0
2.021,-2.3927281290246323,-0.005107015117421801,-0.004742789763572397,0.0009986692391299457,-2.3540209341313525,0.20050485419487263,-0.1414698442251167,-0.1420861700892397,0.034586027676002246,0.17926897445039644,-0.012739681006895369,-0.0047081588904378125,-0.004734242143503485,0.0011517147216108749,48,1,990000000,odom,base_footprint,-0.049923104282648,-0.047645797658348,-0.0010030122029104,0.003593389184051,0.0014225216386237,-0.9308662841766208,0.3653396022464175,"(1e-05, 0.0, 0.0, 0.0, 0.0, 0.0, 0.0, 1e-05, 0.0, 0.0, 0.0, 0.0, 0.0, 0.0, 1000000000000.0, 0.0, 0.0, 0.0, 0.0, 0.0, 0.0, 1000000000000.0, 0.0, 0.0, 0.0, 0.0, 0.0, 0.0, 1000000000000.0, 0.0, 0.0, 0.0, 0.0, 0.0, 0.0, 0.001)",0.1961695020154056,1.4011078153852718e-05,0.0,0.0,0.0,0.0337751086180727,"(0.0, 0.0, 0.0, 0.0, 0.0, 0.0, 0.0, 0.0, 0.0, 0.0, 0.0, 0.0, 0.0, 0.0, 0.0, 0.0, 0.0, 0.0, 0.0, 0.0, 0.0, 0.0, 0.0, 0.0, 0.0, 0.0, 0.0, 0.0, 0.0, 0.0, 0.0, 0.0, 0.0, 0.0, 0.0, 0.0)",0.2199999988079071,6.01085921516642e-05,0.0,0.0,0.0,0.0256246645003557,46,2,21000000,base_footprint,0.0035829477218365,0.0014191766227117,-0.9307084926768998,0.3657415071911165,0.0,0.0,0.0,0.0,0.0,0.0,0.0,0.0,0.0,9.33793071691304e-05,-5.264104951411357e-05,0.024072886047386,0.0,0.0,0.0,0.0,0.0,0.0,0.0,0.0,0.0,0.0365058966663113,0.5798712503619091,0.0029277924385923,0.0,0.0,0.0,0.0,0.0,0.0,0.0,0.0,0.0
2.055,-2.391861581833117,-0.0054610460064074,-0.005081573724810801,0.0008665471915154653,-2.3528692194097416,0.21836215335325612,-0.15389106704443098,-0.15491794441250958,0.03132143725181791,0.5362552299814862,-0.09803574847400415,-0.005121814540940349,-0.005161505330863422,0.0010430038604855364,49,2,23000000,odom,base_footprint,-0.0549322551725471,-0.0522986484933166,-0.0010018976654993,0.0035830338417689,0.0014194134994114,-0.9306953440448402,0.3657749632042397,"(1e-05, 0.0, 0.0, 0.0, 0.0, 0.0, 0.0, 1e-05, 0.0, 0.0, 0.0, 0.0, 0.0, 0.0, 1000000000000.0, 0.0, 0.0, 0.0, 0.0, 0.0, 0.0, 1000000000000.0, 0.0, 0.0, 0.0, 0.0, 0.0, 0.0, 1000000000000.0, 0.0, 0.0, 0.0, 0.0, 0.0, 0.0, 0.001)",0.2178908093522703,9.293247501970804e-06,0.0,0.0,0.0,0.0245798580530869,"(0.0, 0.0, 0.0, 0.0, 0.0, 0.0, 0.0, 0.0, 0.0, 0.0, 0.0, 0.0, 0.0, 0.0, 0.0, 0.0, 0.0, 0.0, 0.0, 0.0, 0.0, 0.0, 0.0, 0.0, 0.0, 0.0, 0.0, 0.0, 0.0, 0.0, 0.0, 0.0, 0.0, 0.0, 0.0, 0.0)",0.2199999988079071,6.01085921516642e-05,0.0,0.0,0.0,0.0256246645003557,47,2,55000000,base_footprint,0.0035891488680053,0.0014234578755714,-0.9305499127390788,0.3661447141218518,0.0,0.0,0.0,0.0,0.0,0.0,0.0,0.0,0.0,3.688445898640327e-05,-8.175153876278915e-05,0.025768562244159,0.0,0.0,0.0,0.0,0.0,0.0,0.0,0.0,0.0,0.0026856062058396,0.1135272033069251,0.0005914482561522,0.0,0.0,0.0,0.0,0.0,0.0,0.0,0.0,0.0
2.089,-2.390989842821455,-0.005468267136669591,-0.0050966229248742,0.0008717390116617096,-2.351826215549256,0.21784455456069357,-0.1533650080027244,-0.15471077619891666,0.025716260675971003,-0.0155435072841607,-0.16832362089630343,-0.0051047815771583065,-0.005154120957308517,0.0008563514805098345,49,2,23000000,odom,base_footprint,-0.0549322551725471,-0.0522986484933166,-0.0010018976654993,0.0035830338417689,0.0014194134994114,-0.9306953440448402,0.3657749632042397,"(1e-05, 0.0, 0.0, 0.0, 0.0, 0.0, 0.0, 1e-05, 0.0, 0.0, 0.0, 0.0, 0.0, 0.0, 1000000000000.0, 0.0, 0.0, 0.0, 0.0, 0.0, 0.0, 1000000000000.0, 0.0, 0.0, 0.0, 0.0, 0.0, 0.0, 1000000000000.0, 0.0, 0.0, 0.0, 0.0, 0.0, 0.0, 0.001)",0.2178908093522703,9.293247501970804e-06,0.0,0.0,0.0,0.0245798580530869,"(0.0, 0.0, 0.0, 0.0, 0.0, 0.0, 0.0, 0.0, 0.0, 0.0, 0.0, 0.0, 0.0, 0.0, 0.0, 0.0, 0.0, 0.0, 0.0, 0.0, 0.0, 0.0, 0.0, 0.0, 0.0, 0.0, 0.0, 0.0, 0.0, 0.0, 0.0, 0.0, 0.0, 0.0, 0.0, 0.0)",0.2199999988079071,9.29324778553564e-06,0.0,0.0,0.0,0.0327849946916103,48,2,89000000,base_footprint,0.0035891404168776,0.0014249411948867,-0.9303902315195068,0.3665502758241191,0.0,0.0,0.0,0.0,0.0,0.0,0.0,0.0,0.0,-5.811153033838479e-06,-8.62881071812226e-05,0.0255177107505892,0.0,0.0,0.0,0.0,0.0,0.0,0.0,0.0,0.0,-0.0051767975031039,0.006229081847514,-0.0001235459198341,0.0,0.0,0.0,0.0,0.0,0.0,0.0,0.0,0.0
2.123,-2.3899035831013644,-0.005466810035081704,-0.005104875212755204,0.0010862597200906878,-2.3509698640687464,0.22470032364059458,-0.158054832002782,-0.15971507607223656,0.026188939936290772,0.20587895134837877,0.014194572381975055,-0.005260837306898199,-0.005320874407803895,0.0008720916998784828,51,2,90000000,odom,base_footprint,-0.0657059220968126,-0.0623331703573928,-0.0010025946708322,0.003589177825614,0.0014250477541767,-0.9303808820372416,0.3665740053263996,"(1e-05, 0.0, 0.0, 0.0, 0.0, 0.0, 0.0, 1e-05, 0.0, 0.0, 0.0, 0.0, 0.0, 0.0, 1000000000000.0, 0.0, 0.0, 0.0, 0.0, 0.0, 0.0, 1000000000000.0, 0.0, 0.0, 0.0, 0.0, 0.0, 0.0, 1000000000000.0, 0.0, 0.0, 0.0, 0.0, 0.0, 0.0, 0.001)",0.2199706017302344,1.3842469097080644e-05,0.0,0.0,0.0,0.0255020595539631,"(0.0, 0.0, 0.0, 0.0, 0.0, 0.0, 0.0, 0.0, 0.0, 0.0, 0.0, 0.0, 0.0, 0.0, 0.0, 0.0, 0.0, 0.0, 0.0, 0.0, 0.0, 0.0, 0.0, 0.0, 0.0, 0.0, 0.0, 0.0, 0.0, 0.0, 0.0, 0.0, 0.0, 0.0, 0.0, 0.0)",0.2199999988079071,9.29324778553564e-06,0.0,0.0,0.0,0.0327849946916103,49,2,123000000,base_footprint,0.0035902776227604,0.0014274851833432,-0.9301910029320052,0.3670555411065105,0.0,0.0,0.0,0.0,0.0,0.0,0.0,0.0,0.0,-0.0001425142129074,-0.0001264635921704,0.0324155163426921,0.0,0.0,0.0,0.0,0.0,0.0,0.0,0.0,0.0,-0.0065825421962746,0.0041974294128798,-0.0002244297945506,0.0,0.0,0.0,0.0,0.0,0.0,0.0,0.0,0.0
2.157,-2.3888062934346603,-0.0054656184170755046,-0.005114842859050395,0.0010972896667040821,-2.3490293944329257,0.21844436696011146,-0.1533527919866617,-0.1555662644871937,0.03199139329464358,0.005039874882790479,-0.0027636097634237415,-0.005103820620507157,-0.0051831417278728744,0.0010653133967116312,53,2,156000000,odom,base_footprint,-0.0763166751253371,-0.0722528033590681,-0.0010033607384604,0.0035931167409058,0.0014309108562019,-0.9299894657338752,0.367565824894303,"(1e-05, 0.0, 0.0, 0.0, 0.0, 0.0, 0.0, 1e-05, 0.0, 0.0, 0.0, 0.0, 0.0, 0.0, 1000000000000.0, 0.0, 0.0, 0.0, 0.0, 0.0, 0.0, 1000000000000.0, 0.0, 0.0, 0.0, 0.0, 0.0, 0.0, 1000000000000.0, 0.0, 0.0, 0.0, 0.0, 0.0, 0.0, 0.001)",0.2202642915756263,9.255891793708004e-07,0.0,0.0,0.0,0.0321399329710926,"(0.0, 0.0, 0.0, 0.0, 0.0, 0.0, 0.0, 0.0, 0.0, 0.0, 0.0, 0.0, 0.0, 0.0, 0.0, 0.0, 0.0, 0.0, 0.0, 0.0, 0.0, 0.0, 0.0, 0.0, 0.0, 0.0, 0.0, 0.0, 0.0, 0.0, 0.0, 0.0, 0.0, 0.0, 0.0, 0.0)",0.2199999988079071,9.29324778553564e-06,0.0,0.0,0.0,0.0327849946916103,50,2,157000000,base_footprint,0.0035931167409058,0.0014309108562019,-0.9299894657338752,0.367565824894303,0.0,0.0,0.0,0.0,0.0,0.0,0.0,0.0,0.0,-0.000258873123382,-0.0001293461724772,0.0321387507567566,0.0,0.0,0.0,0.0,0.0,0.0,0.0,0.0,0.0,-0.0065347927958608,0.0056762474277422,-0.0002701064265289,0.0,0.0,0.0,0.0,0.0,0.0,0.0,0.0,0.0
2.191,-2.3877192291478964,-0.005464283252447397,-0.005124112089121308,0.0010870642867639724,-2.347964081036214,0.22519454677158995,-0.15792063032349143,-0.16054176532570263,0.032486115453867426,0.20270810244680149,0.014856521298013375,-0.005255795144097483,-0.005348952147402554,0.0010817876446137854,53,2,156000000,odom,base_footprint,-0.0763166751253371,-0.0722528033590681,-0.0010033607384604,0.0035931167409058,0.0014309108562019,-0.9299894657338752,0.367565824894303,"(1e-05, 0.0, 0.0, 0.0, 0.0, 0.0, 0.0, 1e-05, 0.0, 0.0, 0.0, 0.0, 0.0, 0.0, 1000000000000.0, 0.0, 0.0, 0.0, 0.0, 0.0, 0.0, 1000000000000.0, 0.0, 0.0, 0.0, 0.0, 0.0, 0.0, 1000000000000.0, 0.0, 0.0, 0.0, 0.0, 0.0, 0.0, 0.001)",0.2202642915756263,9.255891793708004e-07,0.0,0.0,0.0,0.0321399329710926,"(0.0, 0.0, 0.0, 0.0, 0.0, 0.0, 0.0, 0.0, 0.0, 0.0, 0.0, 0.0, 0.0, 0.0, 0.0, 0.0, 0.0, 0.0, 0.0, 0.0, 0.0, 0.0, 0.0, 0.0, 0.0, 0.0, 0.0, 0.0, 0.0, 0.0, 0.0, 0.0, 0.0, 0.0, 0.0, 0.0)",0.2199999988079071,9.255891768589208e-07,0.0,0.0,0.0,-0.0252959560602903,51,2,191000000,base_footprint,0.0035968329144611,0.0014353478661656,-0.9297895252435496,0.3680712448927016,0.0,0.0,0.0,0.0,0.0,0.0,0.0,0.0,0.0,-0.0003091328097276,-0.0001577057341851,0.0318876445001107,0.0,0.0,0.0,0.0,0.0,0.0,0.0,0.0,0.0,-0.0059705155798866,0.0043228144850438,-0.0003455044241498,0.0,0.0,0.0,0.0,0.0,0.0,0.0,0.0,0.0
2.225,-2.3885045066687582,-0.005476949228831102,-0.0051378916997506935,-0.0007852775208618823,-2.3468822933916003,0.2185770356244951,-0.1531113555452008,-0.15598985000795054,-0.025087544509120187,-0.198724058471317,-1.7289387376272554,-0.0051007101577438705,-0.005192397643806135,-0.0008354152321537023,54,2,190000000,odom,base_footprint,-0.0817809583777845,-0.0773769154481894,-0.0010040355285585,0.0035968329144611,0.0014353478661656,-0.9297895252435496,0.3680712448927017,"(1e-05, 0.0, 0.0, 0.0, 0.0, 0.0, 0.0, 1e-05, 0.0, 0.0, 0.0, 0.0, 0.0, 0.0, 1000000000000.0, 0.0, 0.0, 0.0, 0.0, 0.0, 0.0, 1000000000000.0, 0.0, 0.0, 0.0, 0.0, 0.0, 0.0, 1000000000000.0, 0.0, 0.0, 0.0, 0.0, 0.0, 0.0, 0.001)",0.2203979988682619,-2.6627680481755567e-05,0.0,0.0,0.0,0.0318892675722327,"(0.0, 0.0, 0.0, 0.0, 0.0, 0.0, 0.0, 0.0, 0.0, 0.0, 0.0, 0.0, 0.0, 0.0, 0.0, 0.0, 0.0, 0.0, 0.0, 0.0, 0.0, 0.0, 0.0, 0.0, 0.0, 0.0, 0.0, 0.0, 0.0, 0.0, 0.0, 0.0, 0.0, 0.0, 0.0, 0.0)",0.2199999988079071,9.255891768589208e-07,0.0,0.0,0.0,-0.0252959560602903,52,2,225000000,base_footprint,0.0036006926107306,0.0014343366735262,-0.9299339622219418,0.3677061375571944,0.0,0.0,0.0,0.0,0.0,0.0,0.0,0.0,0.0,0.0001559565403561,0.0001566109901765,-0.0263803349719265,0.0,0.0,0.0,0.0,0.0,0.0,0.0,0.0,0.0,0.0055513499218997,0.0129476994544434,0.0003448733545422,0.0,0.0,0.0,0.0,0.0,0.0,0.0,0.0,0.0
2.259,-2.38939683360018,-0.005477970599428006,-0.005128742251185495,-0.0008923269314218274,-2.3477177086237537,0.21848869059256976,-0.15317968080326577,-0.1557988873704344,-0.025991510748829095,-0.0026530039617219496,-0.027146133324591832,-0.0051030608583871664,-0.0051859608508896555,-0.0008655173079360089,56,2,256000000,odom,base_footprint,-0.0924136608282401,-0.0873422513536951,-0.0010046217774572,0.003602711908979,0.0014331557862159,-0.9300883118568036,0.3673155301355425,"(1e-05, 0.0, 0.0, 0.0, 0.0, 0.0, 0.0, 1e-05, 0.0, 0.0, 0.0, 0.0, 0.0, 0.0, 1000000000000.0, 0.0, 0.0, 0.0, 0.0, 0.0, 0.0, 1000000000000.0, 0.0, 0.0, 0.0, 0.0, 0.0, 0.0, 1000000000000.0, 0.0, 0.0, 0.0, 0.0, 0.0, 0.0, 0.001)",0.2205950275988362,-6.729083314183093e-05,0.0,0.0,0.0,-0.0261702388513901,"(0.0, 0.0, 0.0, 0.0, 0.0, 0.0, 0.0, 0.0, 0.0, 0.0, 0.0, 0.0, 0.0, 0.0, 0.0, 0.0, 0.0, 0.0, 0.0, 0.0, 0.0, 0.0, 0.0, 0.0, 0.0, 0.0, 0.0, 0.0, 0.0, 0.0, 0.0, 0.0, 0.0, 0.0, 0.0, 0.0)",0.2199999988079071,9.255891768589208e-07,0.0,0.0,0.0,-0.0252959560602903,53,2,259000000,base_footprint,0.0036027032508723,0.0014330227100413,-0.9300979220450306,0.367291195623738,0.0,0.0,0.0,0.0,0.0,0.0,0.0,0.0,0.0,0.0003194298747053,0.0001553129306114,-0.0261627420852217,0.0,0.0,0.0,0.0,0.0,0.0,0.0,0.0,0.0,0.0070532681984444,-0.0085666955284547,0.0003167430249119,0.0,0.0,0.0,0.0,0.0,0.0,0.0,0.0,0.0
2.293,-2.3903042190652006,-0.005473818257943089,-0.005111357720178303,-0.0009073854650205603,-2.34858322593169,0.22482956000145154,-0.1577638858496049,-0.16018391733279322,-0.02645608901493009,0.19041649876521885,-0.01395129928231218,-0.005255817409245056,-0.0053318775824101996,-0.0008809877641971721,56,2,256000000,odom,base_footprint,-0.0924136608282401,-0.0873422513536951,-0.0010046217774572,0.003602711908979,0.0014331557862159,-0.9300883118568036,0.3673155301355425,"(1e-05, 0.0, 0.0, 0.0, 0.0, 0.0, 0.0, 1e-05, 0.0, 0.0, 0.0, 0.0, 0.0, 0.0, 1000000000000.0, 0.0, 0.0, 0.0, 0.0, 0.0, 0.0, 1000000000000.0, 0.0, 0.0, 0.0, 0.0, 0.0, 0.0, 1000000000000.0, 0.0, 0.0, 0.0, 0.0, 0.0, 0.0, 0.001)",0.2205950275988362,-6.729083314183093e-05,0.0,0.0,0.0,-0.0261702388513901,"(0.0, 0.0, 0.0, 0.0, 0.0, 0.0, 0.0, 0.0, 0.0, 0.0, 0.0, 0.0, 0.0, 0.0, 0.0, 0.0, 0.0, 0.0, 0.0, 0.0, 0.0, 0.0, 0.0, 0.0, 0.0, 0.0, 0.0, 0.0, 0.0, 0.0, 0.0, 0.0, 0.0, 0.0, 0.0, 0.0)",0.2199999988079071,0.0,0.0,0.0,0.0,0.0312656611204147,54,2,293000000,base_footprint,0.0035988555355229,0.0014288098659085,-0.93026448323913,0.3668691837222577,0.0,0.0,0.0,0.0,0.0,0.0,0.0,0.0,0.0,0.0008698721341475,0.0007111534541178,-0.0281247999226027,0.0,0.0,0.0,0.0,0.0,0.0,0.0,0.0,0.0,0.0065475740747177,-0.023992256644681,0.0011089479867771,0.0,0.0,0.0,0.0,0.0,0.0,0.0,0.0,0.0
2.327,-2.3911480137288392,-0.005428322230989907,-0.005064729454966901,-0.0008437946636385973,-2.349464213695887,0.2179628474055868,-0.1530822342109677,-0.15515679945825628,0.030301789625165897,-0.2062075854614037,1.7044408000028823,-0.005094963938233551,-0.005169358325712595,0.0010090495945180246,58,2,323000000,odom,base_footprint,-0.1031623175625231,-0.0973749152402555,-0.0010032181384943,0.0035934751759285,0.0014278149344921,-0.930415345216185,0.3664864713286429,"(1e-05, 0.0, 0.0, 0.0, 0.0, 0.0, 0.0, 1e-05, 0.0, 0.0, 0.0, 0.0, 0.0, 0.0, 1000000000000.0, 0.0, 0.0, 0.0, 0.0, 0.0, 0.0, 1000000000000.0, 0.0, 0.0, 0.0, 0.0, 0.0, 0.0, 1000000000000.0, 0.0, 0.0, 0.0, 0.0, 0.0, 0.0, 0.001)",0.2172521281423999,0.0002536337649693,0.0,0.0,0.0,-0.0118516337473059,"(0.0, 0.0, 0.0, 0.0, 0.0, 0.0, 0.0, 0.0, 0.0, 0.0, 0.0, 0.0, 0.0, 0.0, 0.0, 0.0, 0.0, 0.0, 0.0, 0.0, 0.0, 0.0, 0.0, 0.0, 0.0, 0.0, 0.0, 0.0, 0.0, 0.0, 0.0, 0.0, 0.0, 0.0, 0.0, 0.0)",0.2199999988079071,0.0,0.0,0.0,0.0,0.0312656611204147,55,2,327000000,base_footprint,0.0035921444336732,0.0014266263914533,-0.9304192040263866,0.3664766923208244,0.0,0.0,0.0,0.0,0.0,0.0,0.0,0.0,0.0,0.0010442390210328,0.0013386787024714,-0.0044975425057478,0.0,0.0,0.0,0.0,0.0,0.0,0.0,0.0,0.0,-0.0136973506709375,-0.0817802873677134,-0.0009514308225728,0.0,0.0,0.0,0.0,0.0,0.0,0.0,0.0,0.0
2.361,-2.3905442627684437,-0.005399734287688904,-0.0050394301265342945,0.0006037509603955549,-2.348455164101369,0.21759359078883506,-0.1526665201089186,-0.15504807122377295,0.03168970863212086,-0.011088787289842198,0.04167924945810697,-0.005081003138955146,-0.005165847909813744,0.0010552672974496248,58,2,323000000,odom,base_footprint,-0.1031623175625231,-0.0973749152402555,-0.0010032181384943,0.0035934751759285,0.0014278149344921,-0.930415345216185,0.3664864713286429,"(1e-05, 0.0, 0.0, 0.0, 0.0, 0.0, 0.0, 1e-05, 0.0, 0.0, 0.0, 0.0, 0.0, 0.0, 1000000000000.0, 0.0, 0.0, 0.0, 0.0, 0.0, 0.0, 1000000000000.0, 0.0, 0.0, 0.0, 0.0, 0.0, 0.0, 1000000000000.0, 0.0, 0.0, 0.0, 0.0, 0.0, 0.0, 0.001)",0.2172521281423999,0.0002536337649693,0.0,0.0,0.0,-0.0118516337473059,"(0.0, 0.0, 0.0, 0.0, 0.0, 0.0, 0.0, 0.0, 0.0, 0.0, 0.0, 0.0, 0.0, 0.0, 0.0, 0.0, 0.0, 0.0, 0.0, 0.0, 0.0, 0.0, 0.0, 0.0, 0.0, 0.0, 0.0, 0.0, 0.0, 0.0, 0.0, 0.0, 0.0, 0.0, 0.0, 0.0)",0.2199999988079071,0.0,0.0,0.0,0.0,0.0312656611204147,56,2,361000000,base_footprint,0.0035998041848208,0.0014322771947036,-0.9303084963097754,0.366757538008032,0.0,0.0,0.0,0.0,0.0,0.0,0.0,0.0,0.0,-0.0011378579421691,0.0008325539425945,0.0260629309364761,0.0,0.0,0.0,0.0,0.0,0.0,0.0,0.0,0.0,0.0078478801448176,0.0620584862075105,-0.0023918607078809,0.0,0.0,0.0,0.0,0.0,0.0,0.0,0.0,0.0
2.395,-2.3894609813962586,-0.005436832700413993,-0.005083534610452203,0.001083281372185052,-2.3473998968039194,0.22393863867025882,-0.15694981330647936,-0.15973499927238868,0.032361227391606816,0.1905419784211339,0.020165728513091775,-0.005223492891285628,-0.005322058079362087,0.0010776288721405071,59,2,356000000,odom,base_footprint,-0.108397698525559,-0.1022614349295289,-0.0010040841059778,0.0035973010228672,0.0014323337872555,-0.9303263040706016,0.3667123883912397,"(1e-05, 0.0, 0.0, 0.0, 0.0, 0.0, 0.0, 1e-05, 0.0, 0.0, 0.0, 0.0, 0.0, 0.0, 1000000000000.0, 0.0, 0.0, 0.0, 0.0, 0.0, 0.0, 1000000000000.0, 0.0, 0.0, 0.0, 0.0, 0.0, 0.0, 1000000000000.0, 0.0, 0.0, 0.0, 0.0, 0.0, 0.0, 0.001)",0.2186292308817644,-4.011135025724921e-06,0.0,0.0,0.0,0.0224048597995071,"(0.0, 0.0, 0.0, 0.0, 0.0, 0.0, 0.0, 0.0, 0.0, 0.0, 0.0, 0.0, 0.0, 0.0, 0.0, 0.0, 0.0, 0.0, 0.0, 0.0, 0.0, 0.0, 0.0, 0.0, 0.0, 0.0, 0.0, 0.0, 0.0, 0.0, 0.0, 0.0, 0.0, 0.0, 0.0, 0.0)",0.2084210515022277,0.0,0.0,0.0,0.0,0.030609993264079,57,2,395000000,base_footprint,0.0036086772359769,0.0014356782086714,-0.9301096778550684,0.3672613557632068,0.0,0.0,0.0,0.0,0.0,0.0,0.0,0.0,0.0,-0.0038686358253006,0.0010986468875546,0.0306548006115381,0.0,0.0,0.0,0.0,0.0,0.0,0.0,0.0,0.0,-0.0141413247215708,-0.078711165954689,0.0008380633165813,0.0,0.0,0.0,0.0,0.0,0.0,0.0,0.0,0.0
2.4290000000000003,-2.388430332913928,-0.005203176115349095,-0.004874548571708007,0.0010306484823305875,-2.346322267931779,0.20726786685515183,-0.14510651781452946,-0.14800022675126748,0.029841110427788455,-0.5006237782314409,-0.07567918810265348,-0.004829533774137273,-0.004930870026608246,0.0009937089772453556,61,2,423000000,odom,base_footprint,-0.1189189602024963,-0.1121054684650598,-0.0010036912452477,0.0035955998108057,0.0014323920200552,-0.9299484255090712,0.3676696150191104,"(1e-05, 0.0, 0.0, 0.0, 0.0, 0.0, 0.0, 1e-05, 0.0, 0.0, 0.0, 0.0, 0.0, 0.0, 1000000000000.0, 0.0, 0.0, 0.0, 0.0, 0.0, 0.0, 1000000000000.0, 0.0, 0.0, 0.0, 0.0, 0.0, 0.0, 1000000000000.0, 0.0, 0.0, 0.0, 0.0, 0.0, 0.0, 0.001)",0.2086999966062645,1.287112868268714e-05,0.0,0.0,0.0,0.0303513684429929,"(0.0, 0.0, 0.0, 0.0, 0.0, 0.0, 0.0, 0.0, 0.0, 0.0, 0.0, 0.0, 0.0, 0.0, 0.0, 0.0, 0.0, 0.0, 0.0, 0.0, 0.0, 0.0, 0.0, 0.0, 0.0, 0.0, 0.0, 0.0, 0.0, 0.0, 0.0, 0.0, 0.0, 0.0, 0.0, 0.0)",0.2084210515022277,0.0,0.0,0.0,0.0,0.030609993264079,58,2,429000000,base_footprint,0.0035964063480669,0.0014335451402327,-0.9299203389329904,0.3677406342090346,0.0,0.0,0.0,0.0,0.0,0.0,0.0,0.0,0.0,0.0010939794076913,-0.0002009656274581,0.0311093520698642,0.0,0.0,0.0,0.0,0.0,0.0,0.0,0.0,0.0,-0.0222919984880461,-0.2526526683332392,0.0018077030183451,0.0,0.0,0.0,0.0,0.0,0.0,0.0,0.0,0.0
2.463,-2.3873483064618033,-0.005147254253229802,-0.00483183832687549,0.0010820264521247402,-2.3453285589545336,0.20607719587385775,-0.14412664340881307,-0.14729331729220163,0.0314102930053882,-0.0357558853241465,0.04712259992792036,-0.0047967877266859105,-0.004907438616390798,0.0010459627570794273,61,2,423000000,odom,base_footprint,-0.1189189602024963,-0.1121054684650598,-0.0010036912452477,0.0035955998108057,0.0014323920200552,-0.9299484255090712,0.3676696150191104,"(1e-05, 0.0, 0.0, 0.0, 0.0, 0.0, 0.0, 1e-05, 0.0, 0.0, 0.0, 0.0, 0.0, 0.0, 1000000000000.0, 0.0, 0.0, 0.0, 0.0, 0.0, 0.0, 1000000000000.0, 0.0, 0.0, 0.0, 0.0, 0.0, 0.0, 1000000000000.0, 0.0, 0.0, 0.0, 0.0, 0.0, 0.0, 0.001)",0.2086999966062645,1.287112868268714e-05,0.0,0.0,0.0,0.0303513684429929,"(0.0, 0.0, 0.0, 0.0, 0.0, 0.0, 0.0, 0.0, 0.0, 0.0, 0.0, 0.0, 0.0, 0.0, 0.0, 0.0, 0.0, 0.0, 0.0, 0.0, 0.0, 0.0, 0.0, 0.0, 0.0, 0.0, 0.0, 0.0, 0.0, 0.0, 0.0, 0.0, 0.0, 0.0, 0.0, 0.0)",0.2084210515022277,0.0,0.0,0.0,0.0,0.030609993264079,59,2,463000000,base_footprint,0.003590028059993,0.0014324373153969,-0.9297212742171158,0.3682436857435148,0.0,0.0,0.0,0.0,0.0,0.0,0.0,0.0,0.0,0.000298967093416,-0.0001093733369657,0.0316476744506487,0.0,0.0,0.0,0.0,0.0,0.0,0.0,0.0,0.0,-0.0043205985788281,-0.0002332954545847,-0.0017844565947724,0.0,0.0,0.0,0.0,0.0,0.0,0.0,0.0,0.0
2.497,-2.3862388270190658,-0.005146915342366401,-0.0048418601176645065,0.0011094794427375376,-2.3442825961974543,0.21244606964001816,-0.1484220119645696,-0.15200078575415527,0.03224402215312927,0.19125747045526756,0.025036911343575604,-0.004939669150467275,-0.005064342500031898,0.0010737259376992047,63,2,490000000,odom,base_footprint,-0.1290638691688543,-0.1216357557268206,-0.0010027109533834,0.0035872865685221,0.0014325696122678,-0.929558659510131,0.3686540080469898,"(1e-05, 0.0, 0.0, 0.0, 0.0, 0.0, 0.0, 1e-05, 0.0, 0.0, 0.0, 0.0, 0.0, 0.0, 1000000000000.0, 0.0, 0.0, 0.0, 0.0, 0.0, 0.0, 1000000000000.0, 0.0, 0.0, 0.0, 0.0, 0.0, 0.0, 1000000000000.0, 0.0, 0.0, 0.0, 0.0, 0.0, 0.0, 0.001)",0.2079002680613709,1.6130365294381166e-05,0.0,0.0,0.0,0.031413356426327,"(0.0, 0.0, 0.0, 0.0, 0.0, 0.0, 0.0, 0.0, 0.0, 0.0, 0.0, 0.0, 0.0, 0.0, 0.0, 0.0, 0.0, 0.0, 0.0, 0.0, 0.0, 0.0, 0.0, 0.0, 0.0, 0.0, 0.0, 0.0, 0.0, 0.0, 0.0, 0.0, 0.0, 0.0, 0.0, 0.0)",0.2084210515022277,1.2871129001723602e-05,0.0,0.0,0.0,0.0385564975440502,60,2,497000000,base_footprint,0.0035870659201178,0.001432507099126,-0.929516862976997,0.36875938269134,0.0,0.0,0.0,0.0,0.0,0.0,0.0,0.0,0.0,8.579931919834311e-05,0.0001013239017546,0.0395993107469052,0.0,0.0,0.0,0.0,0.0,0.0,0.0,0.0,0.0,-0.0065651829923231,0.0039400502172464,-0.0002163312537436,0.0,0.0,0.0,0.0,0.0,0.0,0.0,0.0,0.0
2.531,-2.384905530451751,-0.005143919135960601,-0.00485073151806549,0.0013332965673149568,-2.343208870259755,0.20637441364521703,-0.144021521816951,-0.14781136580431373,0.03868730991339595,-0.18233201185589007,0.19349212493293338,-0.004792681098476387,-0.004925268365083181,0.0012882874201160853,63,2,490000000,odom,base_footprint,-0.1290638691688543,-0.1216357557268206,-0.0010027109533834,0.0035872865685221,0.0014325696122678,-0.929558659510131,0.3686540080469898,"(1e-05, 0.0, 0.0, 0.0, 0.0, 0.0, 0.0, 1e-05, 0.0, 0.0, 0.0, 0.0, 0.0, 0.0, 1000000000000.0, 0.0, 0.0, 0.0, 0.0, 0.0, 0.0, 1000000000000.0, 0.0, 0.0, 0.0, 0.0, 0.0, 0.0, 1000000000000.0, 0.0, 0.0, 0.0, 0.0, 0.0, 0.0, 0.001)",0.2079002680613709,1.6130365294381166e-05,0.0,0.0,0.0,0.031413356426327,"(0.0, 0.0, 0.0, 0.0, 0.0, 0.0, 0.0, 0.0, 0.0, 0.0, 0.0, 0.0, 0.0, 0.0, 0.0, 0.0, 0.0, 0.0, 0.0, 0.0, 0.0, 0.0, 0.0, 0.0, 0.0, 0.0, 0.0, 0.0, 0.0, 0.0, 0.0, 0.0, 0.0, 0.0, 0.0, 0.0)",0.2084210515022277,1.2871129001723602e-05,0.0,0.0,0.0,0.0385564975440502,61,2,531000000,base_footprint,0.0035849447883169,0.0014342883338943,-0.9292708285320443,0.3693789628920517,0.0,0.0,0.0,0.0,0.0,0.0,0.0,0.0,0.0,4.732329257614928e-06,-0.000155520016897,0.0389842146799022,0.0,0.0,0.0,0.0,0.0,0.0,0.0,0.0,0.0,-0.0077046529043003,0.0055914451995133,-0.0002412567850976,0.0,0.0,0.0,0.0,0.0,0.0,0.0,0.0,0.0
2.565,-2.383586185219244,-0.0051420216836184085,-0.004861889981852996,0.0013193452325066524,-2.3419205828396388,0.2065446283192303,-0.1439496085720686,-0.1481188498452416,0.038563598476427034,0.005111551772170082,-0.003715058167234773,-0.004790289828387829,-0.004935496142392159,0.0012841678292650203,64,2,523000000,odom,base_footprint,-0.1340569688051448,-0.1263419685353045,-0.0010025140785673,0.0035852184953355,0.0014339119831097,-0.9293212486756136,0.3692520912124453,"(1e-05, 0.0, 0.0, 0.0, 0.0, 0.0, 0.0, 1e-05, 0.0, 0.0, 0.0, 0.0, 0.0, 0.0, 1000000000000.0, 0.0, 0.0, 0.0, 0.0, 0.0, 0.0, 1000000000000.0, 0.0, 0.0, 0.0, 0.0, 0.0, 0.0, 1000000000000.0, 0.0, 0.0, 0.0, 0.0, 0.0, 0.0, 0.001)",0.208009174365877,1.3162584398734856e-05,0.0,0.0,0.0,0.0390520654273245,"(0.0, 0.0, 0.0, 0.0, 0.0, 0.0, 0.0, 0.0, 0.0, 0.0, 0.0, 0.0, 0.0, 0.0, 0.0, 0.0, 0.0, 0.0, 0.0, 0.0, 0.0, 0.0, 0.0, 0.0, 0.0, 0.0, 0.0, 0.0, 0.0, 0.0, 0.0, 0.0, 0.0, 0.0, 0.0, 0.0)",0.2084210515022277,1.2871129001723602e-05,0.0,0.0,0.0,0.0385564975440502,62,2,565000000,base_footprint,0.00358434938469,0.0014365092392586,-0.9290269565652872,0.3699918956622352,0.0,0.0,0.0,0.0,0.0,0.0,0.0,0.0,0.0,-6.536365929154045e-05,-0.0001588924400225,0.038645039636079,0.0,0.0,0.0,0.0,0.0,0.0,0.0,0.0,0.0,-0.0076936124086349,0.0058975794396006,-0.0001598443922386,0.0,0.0,0.0,0.0,0.0,0.0,0.0,0.0,0.0
2.599,-2.382299480538452,-0.005159570824393583,-0.004890749547376422,0.0012867046807922833,-2.340636415010374,0.21298222559367305,-0.14823997967583974,-0.15292591946606324,0.0393966389148143,0.19332123947275565,0.02501622938099892,-0.0049329836007369595,-0.005095733503609241,0.0013119080758633164,65,2,556000000,odom,base_footprint,-0.1390481506817107,-0.1310585078135577,-0.0010025046808328,0.003584380598349,0.0014359288309525,-0.929084182440412,0.3698481746110834,"(1e-05, 0.0, 0.0, 0.0, 0.0, 0.0, 0.0, 1e-05, 0.0, 0.0, 0.0, 0.0, 0.0, 0.0, 1000000000000.0, 0.0, 0.0, 0.0, 0.0, 0.0, 0.0, 1000000000000.0, 0.0, 0.0, 0.0, 0.0, 0.0, 0.0, 1000000000000.0, 0.0, 0.0, 0.0, 0.0, 0.0, 0.0, 0.001)",0.2081895786381013,1.0631848023787138e-05,0.0,0.0,0.0,0.0387257564617249,"(0.0, 0.0, 0.0, 0.0, 0.0, 0.0, 0.0, 0.0, 0.0, 0.0, 0.0, 0.0, 0.0, 0.0, 0.0, 0.0, 0.0, 0.0, 0.0, 0.0, 0.0, 0.0, 0.0, 0.0, 0.0, 0.0, 0.0, 0.0, 0.0, 0.0, 0.0, 0.0, 0.0, 0.0, 0.0, 0.0)",0.2199999988079071,1.3162584764359052e-05,0.0,0.0,0.0,0.0800776928663253,63,2,599000000,base_footprint,0.0035801057997989,0.0014374445695947,-0.928788742109886,0.3705895156713253,0.0,0.0,0.0,0.0,0.0,0.0,0.0,0.0,0.0,-0.0007894198091774,-0.0001250034872745,0.0335706305808353,0.0,0.0,0.0,0.0,0.0,0.0,0.0,0.0,0.0,0.0026519637360685,0.1741791248034062,0.0001718275629874,0.0,0.0,0.0,0.0,0.0,0.0,0.0,0.0,0.0
2.633,-2.3798991925954085,-0.005393897707869411,-0.005130692276964388,0.0024002879430433666,-2.3393245069345103,0.21815404324255078,-0.15163404330759625,-0.15683846305438834,0.07915607533331681,0.15530983930563735,1.1939770696247,-0.005042456886989747,-0.005229434852579453,0.00263589730859945,65,2,556000000,odom,base_footprint,-0.1390481506817107,-0.1310585078135577,-0.0010025046808328,0.003584380598349,0.0014359288309525,-0.929084182440412,0.3698481746110834,"(1e-05, 0.0, 0.0, 0.0, 0.0, 0.0, 0.0, 1e-05, 0.0, 0.0, 0.0, 0.0, 0.0, 0.0, 1000000000000.0, 0.0, 0.0, 0.0, 0.0, 0.0, 0.0, 1000000000000.0, 0.0, 0.0, 0.0, 0.0, 0.0, 0.0, 1000000000000.0, 0.0, 0.0, 0.0, 0.0, 0.0, 0.0, 0.001)",0.2081895786381013,1.0631848023787138e-05,0.0,0.0,0.0,0.0387257564617249,"(0.0, 0.0, 0.0, 0.0, 0.0, 0.0, 0.0, 0.0, 0.0, 0.0, 0.0, 0.0, 0.0, 0.0, 0.0, 0.0, 0.0, 0.0, 0.0, 0.0, 0.0, 0.0, 0.0, 0.0, 0.0, 0.0, 0.0, 0.0, 0.0, 0.0, 0.0, 0.0, 0.0, 0.0, 0.0, 0.0)",0.2199999988079071,1.3162584764359052e-05,0.0,0.0,0.0,0.0800776928663253,64,2,633000000,base_footprint,0.0035864329137863,0.0014448714059912,-0.9283432816698036,0.3717039160731488,0.0,0.0,0.0,0.0,0.0,0.0,0.0,0.0,0.0,-0.0005139322930519,-0.0003800869500732,0.0794964115528456,0.0,0.0,0.0,0.0,0.0,0.0,0.0,0.0,0.0,-0.0078707607587101,0.1669517403686404,0.001164482337601,0.0,0.0,0.0,0.0,0.0,0.0,0.0,0.0,0.0
2.667,-2.377203005147036,-0.00540339573553239,-0.005166275191720998,0.002696187448372633,-2.336688609625911,0.2185291778798593,-0.15148014290865008,-0.1575079930962938,0.07872449053625624,0.011265304423678998,-0.012960504416233304,-0.005037340091281103,-0.005251687175076893,0.0026215255348573333,67,2,623000000,odom,base_footprint,-0.1493792734762885,-0.1408603400554255,-0.0010030384505028,0.0035859770287309,0.0014432484929384,-0.9284762703131212,0.3713716107458575,"(1e-05, 0.0, 0.0, 0.0, 0.0, 0.0, 0.0, 1e-05, 0.0, 0.0, 0.0, 0.0, 0.0, 0.0, 1000000000000.0, 0.0, 0.0, 0.0, 0.0, 0.0, 0.0, 1000000000000.0, 0.0, 0.0, 0.0, 0.0, 0.0, 0.0, 1000000000000.0, 0.0, 0.0, 0.0, 0.0, 0.0, 0.0, 0.001)",0.2198164251796539,-2.5027713567882248e-05,0.0,0.0,0.0,0.0796469484370774,"(0.0, 0.0, 0.0, 0.0, 0.0, 0.0, 0.0, 0.0, 0.0, 0.0, 0.0, 0.0, 0.0, 0.0, 0.0, 0.0, 0.0, 0.0, 0.0, 0.0, 0.0, 0.0, 0.0, 0.0, 0.0, 0.0, 0.0, 0.0, 0.0, 0.0, 0.0, 0.0, 0.0, 0.0, 0.0, 0.0)",0.2199999988079071,1.3162584764359052e-05,0.0,0.0,0.0,0.0800776928663253,65,2,667000000,base_footprint,0.0035890973683663,0.0014520058876617,-0.9278413274687182,0.3729550657922069,0.0,0.0,0.0,0.0,0.0,0.0,0.0,0.0,0.0,-0.0005918092748171,-0.0004147693650104,0.0791253701956873,0.0,0.0,0.0,0.0,0.0,0.0,0.0,0.0,0.0,-0.0167291999695673,0.0050784675249995,-0.0004367013236265,0.0,0.0,0.0,0.0,0.0,0.0,0.0,0.0,0.0
2.701,-2.3744772926053503,-0.0053719590100407,-0.005164123587012098,0.002725712541685521,-2.334067084091054,0.22525640715012357,-0.15571716799657914,-0.1627655140172739,0.08081614418555645,0.20201889700493345,0.06281242190090719,-0.005178012034039707,-0.005427129431540322,0.0026911776013790302,69,2,690000000,odom,base_footprint,-0.160022721098089,-0.1510479244826989,-0.0010042200146954,0.0035903362088496,0.0014561644199791,-0.927487635401677,0.3738337534895632,"(1e-05, 0.0, 0.0, 0.0, 0.0, 0.0, 0.0, 1e-05, 0.0, 0.0, 0.0, 0.0, 0.0, 0.0, 1000000000000.0, 0.0, 0.0, 0.0, 0.0, 0.0, 0.0, 1000000000000.0, 0.0, 0.0, 0.0, 0.0, 0.0, 0.0, 1000000000000.0, 0.0, 0.0, 0.0, 0.0, 0.0, 0.0, 0.001)",0.219996799081956,-5.489494608965084e-05,0.0,0.0,0.0,0.0787446948873313,"(0.0, 0.0, 0.0, 0.0, 0.0, 0.0, 0.0, 0.0, 0.0, 0.0, 0.0, 0.0, 0.0, 0.0, 0.0, 0.0, 0.0, 0.0, 0.0, 0.0, 0.0, 0.0, 0.0, 0.0, 0.0, 0.0, 0.0, 0.0, 0.0, 0.0, 0.0, 0.0, 0.0, 0.0, 0.0, 0.0)",0.2084210515022277,0.0,0.0,0.0,0.0,0.0714418068528175,66,2,701000000,base_footprint,0.0035742963789627,0.0014511171306933,-0.9273322330144546,0.3742192516117973,0.0,0.0,0.0,0.0,0.0,0.0,0.0,0.0,0.0,0.0001392251117693,-0.000391513357799,0.0864334686039065,0.0,0.0,0.0,0.0,0.0,0.0,0.0,0.0,0.0,-0.0246850866255574,-0.1515229820915668,0.0012952697540413,0.0,0.0,0.0,0.0,0.0,0.0,0.0,0.0,0.0
2.7350000000000003,-2.3713006736663274,-0.005087093131818821,-0.004918016709176604,0.0031766189390229904,-2.331375906489675,0.19560907563563304,-0.1348414398437882,-0.14170637449275478,0.02016962198047694,-0.8903102556904063,-1.8212168830354205,-0.004488573864110225,-0.004720387893344044,0.0006716484119498823,69,2,690000000,odom,base_footprint,-0.160022721098089,-0.1510479244826989,-0.0010042200146954,0.0035903362088496,0.0014561644199791,-0.927487635401677,0.3738337534895632,"(1e-05, 0.0, 0.0, 0.0, 0.0, 0.0, 0.0, 1e-05, 0.0, 0.0, 0.0, 0.0, 0.0, 0.0, 1000000000000.0, 0.0, 0.0, 0.0, 0.0, 0.0, 0.0, 1000000000000.0, 0.0, 0.0, 0.0, 0.0, 0.0, 0.0, 1000000000000.0, 0.0, 0.0, 0.0, 0.0, 0.0, 0.0, 0.001)",0.219996799081956,-5.489494608965084e-05,0.0,0.0,0.0,0.0787446948873313,"(0.0, 0.0, 0.0, 0.0, 0.0, 0.0, 0.0, 0.0, 0.0, 0.0, 0.0, 0.0, 0.0, 0.0, 0.0, 0.0, 0.0, 0.0, 0.0, 0.0, 0.0, 0.0, 0.0, 0.0, 0.0, 0.0, 0.0, 0.0, 0.0, 0.0, 0.0, 0.0, 0.0, 0.0, 0.0, 0.0)",0.2084210515022277,0.0,0.0,0.0,0.0,0.0714418068528175,67,2,735000000,base_footprint,0.0035794009499246,0.0014620658740114,-0.9267366527999698,0.3756916642798029,0.0,0.0,0.0,0.0,0.0,0.0,0.0,0.0,0.0,0.0020334767147149,-7.914284448366771e-05,0.0819889998416681,0.0,0.0,0.0,0.0,0.0,0.0,0.0,0.0,0.0,-0.0253485034509409,-0.2185637226091231,0.001054851241065,0.0,0.0,0.0,0.0,0.0,0.0,0.0,0.0,0.0
2.769,-2.3689587273470325,-0.005082330396359996,-0.004936788489504407,0.0023419463192948515,-2.3307042580777244,0.2066697375224416,-0.142365421583738,-0.14981477612331653,0.07044835875465033,0.33215200861287,1.509871975200402,-0.004734847871854955,-0.00499444946105089,0.0023459303465298564,71,2,756000000,odom,base_footprint,-0.16996300674713,-0.1606675116911366,-0.0010042895283368,0.0035864237370324,0.001467234799628,-0.9264512948273188,0.3763947171515639,"(1e-05, 0.0, 0.0, 0.0, 0.0, 0.0, 0.0, 1e-05, 0.0, 0.0, 0.0, 0.0, 0.0, 0.0, 1000000000000.0, 0.0, 0.0, 0.0, 0.0, 0.0, 0.0, 1000000000000.0, 0.0, 0.0, 0.0, 0.0, 0.0, 0.0, 1000000000000.0, 0.0, 0.0, 0.0, 0.0, 0.0, 0.0, 0.001)",0.2085785539774025,-0.0001920079885388,0.0,0.0,0.0,0.0674428390038881,"(0.0, 0.0, 0.0, 0.0, 0.0, 0.0, 0.0, 0.0, 0.0, 0.0, 0.0, 0.0, 0.0, 0.0, 0.0, 0.0, 0.0, 0.0, 0.0, 0.0, 0.0, 0.0, 0.0, 0.0, 0.0, 0.0, 0.0, 0.0, 0.0, 0.0, 0.0, 0.0, 0.0, 0.0, 0.0, 0.0)",0.2084210515022277,0.0,0.0,0.0,0.0,0.0714418068528175,68,2,769000000,base_footprint,0.0035851629675111,0.0014695696537657,-0.926296062976491,0.3767765792691758,0.0,0.0,0.0,0.0,0.0,0.0,0.0,0.0,0.0,0.0001502791700232,-0.0004351020386724,0.0686678419666365,0.0,0.0,0.0,0.0,0.0,0.0,0.0,0.0,0.0,-0.0072871697822611,0.0259285947429321,-0.0033090917291858,0.0,0.0,0.0,0.0,0.0,0.0,0.0,0.0,0.0
2.803,-2.3669545993522174,-0.005045036861509283,-0.004921232813248799,0.002004127994815086,-2.3283583277311948,0.21291268366125676,-0.14630342961591838,-0.15468392724022237,0.07168340312234486,0.18747586002447905,0.03708841945028625,-0.004865685051082913,-0.005156847570307075,0.0023870573239740843,71,2,756000000,odom,base_footprint,-0.16996300674713,-0.1606675116911366,-0.0010042895283368,0.0035864237370324,0.001467234799628,-0.9264512948273188,0.3763947171515639,"(1e-05, 0.0, 0.0, 0.0, 0.0, 0.0, 0.0, 1e-05, 0.0, 0.0, 0.0, 0.0, 0.0, 0.0, 1000000000000.0, 0.0, 0.0, 0.0, 0.0, 0.0, 0.0, 1000000000000.0, 0.0, 0.0, 0.0, 0.0, 0.0, 0.0, 1000000000000.0, 0.0, 0.0, 0.0, 0.0, 0.0, 0.0, 0.001)",0.2085785539774025,-0.0001920079885388,0.0,0.0,0.0,0.0674428390038881,"(0.0, 0.0, 0.0, 0.0, 0.0, 0.0, 0.0, 0.0, 0.0, 0.0, 0.0, 0.0, 0.0, 0.0, 0.0, 0.0, 0.0, 0.0, 0.0, 0.0, 0.0, 0.0, 0.0, 0.0, 0.0, 0.0, 0.0, 0.0, 0.0, 0.0, 0.0, 0.0, 0.0, 0.0, 0.0, 0.0)",0.2199999988079071,0.0,0.0,0.0,0.0,0.0,69,2,803000000,base_footprint,0.0035699801087135,0.0014659477523756,-0.925918101199244,0.37770461489211,0.0,0.0,0.0,0.0,0.0,0.0,0.0,0.0,0.0,0.0014223728180776,-0.0010092893845173,0.0574798476552682,0.0,0.0,0.0,0.0,0.0,0.0,0.0,0.0,0.0,-0.023627514964265,-0.049820113685643,0.0021188275084161,0.0,0.0,0.0,0.0,0.0,0.0,0.0,0.0,0.0
2.837,-2.364444535931423,-0.005021427465398909,-0.004936341988515197,0.002510063420794406,-2.325971270407221,0.21788466853988883,-0.1493416520526462,-0.15865307985325583,-0.0007763956966402488,0.14930885521417622,-2.175969934504057,-0.0049730769791959326,-0.0052831475909971524,-2.5853976698120287e-05,72,2,790000000,odom,base_footprint,-0.1750278914929366,-0.1655974901404618,-0.0010034630523131,0.0035785005425007,0.0014698461332913,-0.926039328663826,0.3774072013807665,"(1e-05, 0.0, 0.0, 0.0, 0.0, 0.0, 0.0, 1e-05, 0.0, 0.0, 0.0, 0.0, 0.0, 0.0, 1000000000000.0, 0.0, 0.0, 0.0, 0.0, 0.0, 0.0, 1000000000000.0, 0.0, 0.0, 0.0, 0.0, 0.0, 0.0, 1000000000000.0, 0.0, 0.0, 0.0, 0.0, 0.0, 0.0, 0.001)",0.2068994146688263,-0.0001141233132936,0.0,0.0,0.0,0.052867021178356,"(0.0, 0.0, 0.0, 0.0, 0.0, 0.0, 0.0, 0.0, 0.0, 0.0, 0.0, 0.0, 0.0, 0.0, 0.0, 0.0, 0.0, 0.0, 0.0, 0.0, 0.0, 0.0, 0.0, 0.0, 0.0, 0.0, 0.0, 0.0, 0.0, 0.0, 0.0, 0.0, 0.0, 0.0, 0.0, 0.0)",0.2199999988079071,0.0,0.0,0.0,0.0,0.0,70,2,837000000,base_footprint,0.0035634942311044,0.0014615555229587,-0.9254433776444284,0.3788663618459554,0.0,0.0,0.0,0.0,0.0,0.0,0.0,0.0,0.0,-0.0022112972159038,-0.0004098152810446,0.0858459663727783,0.0,0.0,0.0,0.0,0.0,0.0,0.0,0.0,0.0,-0.0130837544053158,0.0636049011665754,-0.0046934038138157,0.0,0.0,0.0,0.0,0.0,0.0,0.0,0.0,0.0
2.871,-2.3616934494389046,-0.0051218290809184885,-0.0050546876823628906,0.0027510864925184286,-2.325997124383919,0.21779162129821364,-0.14928197598989976,-0.15858146787142405,-0.0028549314455078925,-0.002794211461717496,-0.06241849095698629,-0.004971272516275377,-0.005280590869386375,-9.506921713541283e-05,73,2,823000000,odom,base_footprint,-0.1798954796595939,-0.1703717400962658,-0.0010017895029904,0.0035664248302869,0.0014642854786988,-0.925645444615776,0.3783723659888886,"(1e-05, 0.0, 0.0, 0.0, 0.0, 0.0, 0.0, 1e-05, 0.0, 0.0, 0.0, 0.0, 0.0, 0.0, 1000000000000.0, 0.0, 0.0, 0.0, 0.0, 0.0, 0.0, 1000000000000.0, 0.0, 0.0, 0.0, 0.0, 0.0, 0.0, 1000000000000.0, 0.0, 0.0, 0.0, 0.0, 0.0, 0.0, 0.001)",0.2071667432625243,0.0001326883063129,0.0,0.0,0.0,0.077598790270882,"(0.0, 0.0, 0.0, 0.0, 0.0, 0.0, 0.0, 0.0, 0.0, 0.0, 0.0, 0.0, 0.0, 0.0, 0.0, 0.0, 0.0, 0.0, 0.0, 0.0, 0.0, 0.0, 0.0, 0.0, 0.0, 0.0, 0.0, 0.0, 0.0, 0.0, 0.0, 0.0, 0.0, 0.0, 0.0, 0.0)",0.2199999988079071,0.0,0.0,0.0,0.0,0.0,71,2,871000000,base_footprint,0.003570931335414,0.0014657985563987,-0.9249213310924258,0.3801389629782836,0.0,0.0,0.0,0.0,0.0,0.0,0.0,0.0,0.0,-0.0003374190780502,-0.0001154798549676,0.0560938047519855,0.0,0.0,0.0,0.0,0.0,0.0,0.0,0.0,0.0,-0.0150550667818237,0.1700385067260979,0.0025520623596627,0.0,0.0,0.0,0.0,0.0,0.0,0.0,0.0,0.0
2.9050000000000002,-2.3610462064377318,-0.0052010432318095046,-0.0051516868212554134,0.0006472430011728036,-2.3260921936010543,0.22421306917402903,-0.15369898044251432,-0.1632425306082013,-0.002487376959459609,0.19283627254700866,0.01103767225370221,-0.005118330869410465,-0.005435830492667109,-8.282965275000498e-05,73,2,823000000,odom,base_footprint,-0.1798954796595939,-0.1703717400962658,-0.0010017895029904,0.0035664248302869,0.0014642854786988,-0.925645444615776,0.3783723659888886,"(1e-05, 0.0, 0.0, 0.0, 0.0, 0.0, 0.0, 1e-05, 0.0, 0.0, 0.0, 0.0, 0.0, 0.0, 1000000000000.0, 0.0, 0.0, 0.0, 0.0, 0.0, 0.0, 1000000000000.0, 0.0, 0.0, 0.0, 0.0, 0.0, 0.0, 1000000000000.0, 0.0, 0.0, 0.0, 0.0, 0.0, 0.0, 0.001)",0.2071667432625243,0.0001326883063129,0.0,0.0,0.0,0.077598790270882,"(0.0, 0.0, 0.0, 0.0, 0.0, 0.0, 0.0, 0.0, 0.0, 0.0, 0.0, 0.0, 0.0, 0.0, 0.0, 0.0, 0.0, 0.0, 0.0, 0.0, 0.0, 0.0, 0.0, 0.0, 0.0, 0.0, 0.0, 0.0, 0.0, 0.0, 0.0, 0.0, 0.0, 0.0, 0.0, 0.0)",0.2084210515022277,6.89107855578186e-06,0.0,0.0,0.0,-0.005726630333811,72,2,905000000,base_footprint,0.003574556218449,0.0014782202976257,-0.9247982195994612,0.3804382872927745,0.0,0.0,0.0,0.0,0.0,0.0,0.0,0.0,0.0,0.00257382918054,-0.0002018010875175,-0.004100179889686,0.0,0.0,0.0,0.0,0.0,0.0,0.0,0.0,0.0,-0.0056801223506584,-0.1618965910214566,0.0043181821118376,0.0,0.0,0.0,0.0,0.0,0.0,0.0,0.0,0.0
2.939,-2.3611610917211023,-0.0050211182356794115,-0.004972770042239089,-0.00011488528337055826,-2.3261750232538043,0.20626169729401744,-0.1414056795053353,-0.1501609855263453,-0.004632571595369043,-0.5390802366369845,-0.06442025933661964,-0.004709130130785015,-0.005000058502439198,-0.00015426463412578916,75,2,890000000,odom,base_footprint,-0.1900229214948662,-0.180370213100683,-0.0010028064603639,0.00357264743779,0.0014714696267781,-0.924801250755064,0.3804309629476704,"(1e-05, 0.0, 0.0, 0.0, 0.0, 0.0, 0.0, 1e-05, 0.0, 0.0, 0.0, 0.0, 0.0, 0.0, 1000000000000.0, 0.0, 0.0, 0.0, 0.0, 0.0, 0.0, 1000000000000.0, 0.0, 0.0, 0.0, 0.0, 0.0, 0.0, 1000000000000.0, 0.0, 0.0, 0.0, 0.0, 0.0, 0.0, 0.001)",0.2186626543695978,-6.306278783295427e-05,0.0,0.0,0.0,0.0085445955395192,"(0.0, 0.0, 0.0, 0.0, 0.0, 0.0, 0.0, 0.0, 0.0, 0.0, 0.0, 0.0, 0.0, 0.0, 0.0, 0.0, 0.0, 0.0, 0.0, 0.0, 0.0, 0.0, 0.0, 0.0, 0.0, 0.0, 0.0, 0.0, 0.0, 0.0, 0.0, 0.0, 0.0, 0.0, 0.0, 0.0)",0.2084210515022277,6.89107855578186e-06,0.0,0.0,0.0,-0.005726630333811,73,2,939000000,base_footprint,0.0035731461809199,0.0014784893440697,-0.924820074268014,0.3803851691726879,0.0,0.0,0.0,0.0,0.0,0.0,0.0,0.0,0.0,0.0002681874916503,-0.0001238922935788,-0.0038117034369937,0.0,0.0,0.0,0.0,0.0,0.0,0.0,0.0,0.0,0.0015755451224005,-0.0264134254789193,-0.0049885771493008,0.0,0.0,0.0,0.0,0.0,0.0,0.0,0.0,0.0
2.973,-2.3612967245703187,-0.005027402889827587,-0.004978220048411808,-0.0001356328492163605,-2.3263292878879303,0.20609589307694753,-0.14131515426183128,-0.15001847992543926,-0.0039211600136628035,-0.004979105617714991,0.021363711162349544,-0.004706056167017891,-0.0049953690044722155,-0.00013057462845497136,77,2,956000000,odom,base_footprint,-0.1998275167150715,-0.1900819218128088,-0.0010029934685933,0.0035715071446752,0.001477512398506,-0.9248333299263488,0.3803529586465302,"(1e-05, 0.0, 0.0, 0.0, 0.0, 0.0, 0.0, 1e-05, 0.0, 0.0, 0.0, 0.0, 0.0, 0.0, 1000000000000.0, 0.0, 0.0, 0.0, 0.0, 0.0, 0.0, 1000000000000.0, 0.0, 0.0, 0.0, 0.0, 0.0, 0.0, 1000000000000.0, 0.0, 0.0, 0.0, 0.0, 0.0, 0.0, 0.001)",0.2080921729488156,2.5011350692730198e-05,0.0,0.0,0.0,-0.0039754904885611,"(0.0, 0.0, 0.0, 0.0, 0.0, 0.0, 0.0, 0.0, 0.0, 0.0, 0.0, 0.0, 0.0, 0.0, 0.0, 0.0, 0.0, 0.0, 0.0, 0.0, 0.0, 0.0, 0.0, 0.0, 0.0, 0.0, 0.0, 0.0, 0.0, 0.0, 0.0, 0.0, 0.0, 0.0, 0.0, 0.0)",0.2084210515022277,6.89107855578186e-06,0.0,0.0,0.0,-0.005726630333811,74,2,973000000,base_footprint,0.0035703969089117,0.001476420021331,-0.924845881313762,0.3803224530142869,0.0,0.0,0.0,0.0,0.0,0.0,0.0,0.0,0.0,0.00035259895325,0.0001097363719113,-0.0042184538477588,0.0,0.0,0.0,0.0,0.0,0.0,0.0,0.0,0.0,0.000969647502046,0.005030665857805,0.0003671845706858,0.0,0.0,0.0,0.0,0.0,0.0,0.0,0.0,0.0
3.007,-2.3613802935295696,-0.005096698799967103,-0.005045099753877402,-8.356895925087926e-05,-2.3264598625163853,0.2125025384492153,-0.14572823808540053,-0.1546628897696052,-0.004329290057816717,0.19239175292095376,-0.012256157482099508,-0.004853054950435931,-0.005149987179298771,-0.00014416535892529668,77,2,956000000,odom,base_footprint,-0.1998275167150715,-0.1900819218128088,-0.0010029934685933,0.0035715071446752,0.001477512398506,-0.9248333299263488,0.3803529586465302,"(1e-05, 0.0, 0.0, 0.0, 0.0, 0.0, 0.0, 1e-05, 0.0, 0.0, 0.0, 0.0, 0.0, 0.0, 1000000000000.0, 0.0, 0.0, 0.0, 0.0, 0.0, 0.0, 1000000000000.0, 0.0, 0.0, 0.0, 0.0, 0.0, 0.0, 1000000000000.0, 0.0, 0.0, 0.0, 0.0, 0.0, 0.0, 0.001)",0.2080921729488156,2.5011350692730198e-05,0.0,0.0,0.0,-0.0039754904885611,"(0.0, 0.0, 0.0, 0.0, 0.0, 0.0, 0.0, 0.0, 0.0, 0.0, 0.0, 0.0, 0.0, 0.0, 0.0, 0.0, 0.0, 0.0, 0.0, 0.0, 0.0, 0.0, 0.0, 0.0, 0.0, 0.0, 0.0, 0.0, 0.0, 0.0, 0.0, 0.0, 0.0, 0.0, 0.0, 0.0)",0.2199999988079071,2.9023654860793613e-05,0.0,0.0,0.0,0.0368084199726581,75,3,7000000,base_footprint,0.0035666430556111,0.001475112716731,-0.924861785709688,0.3802838156346834,0.0,0.0,0.0,0.0,0.0,0.0,0.0,0.0,0.0,-0.0004420653339987,6.89224828443697e-05,0.0193846021257943,0.0,0.0,0.0,0.0,0.0,0.0,0.0,0.0,0.0,0.0013150758721065,0.2917985036561596,0.0007470361035135,0.0,0.0,0.0,0.0,0.0,0.0,0.0,0.0,0.0
3.041,-2.360133647562771,-0.005303622586526613,-0.005256009161554609,0.001246645966798354,-2.3266040278753106,0.21785147415466166,-0.1494192438157772,-0.1585343949081099,0.0378740598951302,0.16062869986325426,1.2673678664548622,-0.004972262104429029,-0.005282395926417222,0.0012612061945078358,79,3,23000000,odom,base_footprint,-0.2099420564631775,-0.2000961501533576,-0.0010024600132042,0.0035680916572614,0.0014755385600824,-0.9247456674782538,0.3805660809742273,"(1e-05, 0.0, 0.0, 0.0, 0.0, 0.0, 0.0, 1e-05, 0.0, 0.0, 0.0, 0.0, 0.0, 0.0, 1000000000000.0, 0.0, 0.0, 0.0, 0.0, 0.0, 0.0, 1000000000000.0, 0.0, 0.0, 0.0, 0.0, 0.0, 0.0, 1000000000000.0, 0.0, 0.0, 0.0, 0.0, 0.0, 0.0, 0.001)",0.2196895568011762,-2.6275012358079053e-06,0.0,0.0,0.0,0.0375732955325291,"(0.0, 0.0, 0.0, 0.0, 0.0, 0.0, 0.0, 0.0, 0.0, 0.0, 0.0, 0.0, 0.0, 0.0, 0.0, 0.0, 0.0, 0.0, 0.0, 0.0, 0.0, 0.0, 0.0, 0.0, 0.0, 0.0, 0.0, 0.0, 0.0, 0.0, 0.0, 0.0, 0.0, 0.0, 0.0, 0.0)",0.2199999988079071,2.9023654860793613e-05,0.0,0.0,0.0,0.0368084199726581,76,3,41000000,base_footprint,0.0035678626470932,0.0014766008207448,-0.9246245625526562,0.3808602215123769,0.0,0.0,0.0,0.0,0.0,0.0,0.0,0.0,0.0,-5.6972658699768215e-05,-0.0001471900311929,0.0373141635910381,0.0,0.0,0.0,0.0,0.0,0.0,0.0,0.0,0.0,-0.0048977551934935,0.0489607708058146,0.000742345781939,0.0,0.0,0.0,0.0,0.0,0.0,0.0,0.0,0.0
3.075,-2.3588742326422802,-0.0053029582445330015,-0.005268451849161082,0.0012594149204909755,-2.3253428216808025,0.21808753671919556,-0.14938087349011023,-0.15889470824284288,0.037023453214094275,0.007088965901918947,-0.025543744175253028,-0.004971051648024799,-0.005294323148011205,0.0012328809920293395,80,3,56000000,odom,base_footprint,-0.2150900456525671,-0.2052040408199394,-0.0010025257673611,0.0035678524731071,0.0014777416667714,-0.9245112580606388,0.3811351734325129,"(1e-05, 0.0, 0.0, 0.0, 0.0, 0.0, 0.0, 1e-05, 0.0, 0.0, 0.0, 0.0, 0.0, 0.0, 1000000000000.0, 0.0, 0.0, 0.0, 0.0, 0.0, 0.0, 1000000000000.0, 0.0, 0.0, 0.0, 0.0, 0.0, 0.0, 1000000000000.0, 0.0, 0.0, 0.0, 0.0, 0.0, 0.0, 0.001)",0.2198589370545109,9.19685816999638e-06,0.0,0.0,0.0,0.0370793228109577,"(0.0, 0.0, 0.0, 0.0, 0.0, 0.0, 0.0, 0.0, 0.0, 0.0, 0.0, 0.0, 0.0, 0.0, 0.0, 0.0, 0.0, 0.0, 0.0, 0.0, 0.0, 0.0, 0.0, 0.0, 0.0, 0.0, 0.0, 0.0, 0.0, 0.0, 0.0, 0.0, 0.0, 0.0, 0.0, 0.0)",0.2199999988079071,0.0,0.0,0.0,0.0,0.0,77,3,75000000,base_footprint,0.0035681936793825,0.001479224807558,-0.9243845442392206,0.3814423865533084,0.0,0.0,0.0,0.0,0.0,0.0,0.0,0.0,0.0,-0.0001153376323252,-0.0001541683951826,0.0368162237885381,0.0,0.0,0.0,0.0,0.0,0.0,0.0,0.0,0.0,-0.0079681400626013,0.005826856278822,-0.0001660860269785,0.0,0.0,0.0,0.0,0.0,0.0,0.0,0.0,0.0
3.109,-2.358263154164905,-0.005305255235120404,-0.005282528787124208,0.0006110784773754041,-2.324109940688773,0.22488330039741183,-0.15383356877365076,-0.16403576413695592,0.03766192628088797,0.20407698733382193,0.01917336536918006,-0.005119160501002538,-0.005465667992681549,0.0012541421451535695,80,3,56000000,odom,base_footprint,-0.2150900456525671,-0.2052040408199394,-0.0010025257673611,0.0035678524731071,0.0014777416667714,-0.9245112580606388,0.3811351734325129,"(1e-05, 0.0, 0.0, 0.0, 0.0, 0.0, 0.0, 1e-05, 0.0, 0.0, 0.0, 0.0, 0.0, 0.0, 1000000000000.0, 0.0, 0.0, 0.0, 0.0, 0.0, 0.0, 1000000000000.0, 0.0, 0.0, 0.0, 0.0, 0.0, 0.0, 1000000000000.0, 0.0, 0.0, 0.0, 0.0, 0.0, 0.0, 0.001)",0.2198589370545109,9.19685816999638e-06,0.0,0.0,0.0,0.0370793228109577,"(0.0, 0.0, 0.0, 0.0, 0.0, 0.0, 0.0, 0.0, 0.0, 0.0, 0.0, 0.0, 0.0, 0.0, 0.0, 0.0, 0.0, 0.0, 0.0, 0.0, 0.0, 0.0, 0.0, 0.0, 0.0, 0.0, 0.0, 0.0, 0.0, 0.0, 0.0, 0.0, 0.0, 0.0, 0.0, 0.0)",0.2199999988079071,0.0,0.0,0.0,0.0,0.0,78,3,109000000,base_footprint,0.003570687819548,0.0014815327667726,-0.9242679440814688,0.3817247998133881,0.0,0.0,0.0,0.0,0.0,0.0,0.0,0.0,0.0,-0.0002275632597152,-6.783355644773072e-05,-0.0008103619272694,0.0,0.0,0.0,0.0,0.0,0.0,0.0,0.0,0.0,-0.0049773359059577,0.015468698085425,-0.0005281187921546,0.0,0.0,0.0,0.0,0.0,0.0,0.0,0.0,0.0
3.143,-2.3582924707351594,-0.005313173552563388,-0.0052915134187631885,-2.931657025451173e-05,-2.32285579854362,0.21842677123699317,-0.1492169831956736,-0.1595134675160684,0.00047780400703435164,-0.19388976457713714,-1.1166403085241325,-0.004968814581866488,-0.005311902262285972,1.5910873434243912e-05,82,3,123000000,odom,base_footprint,-0.2255460670478975,-0.2156112274017629,-0.0010033282655599,0.0035724652422191,0.0014824511279094,-0.9242700445046388,0.3817196938358558,"(1e-05, 0.0, 0.0, 0.0, 0.0, 0.0, 0.0, 1e-05, 0.0, 0.0, 0.0, 0.0, 0.0, 0.0, 1000000000000.0, 0.0, 0.0, 0.0, 0.0, 0.0, 0.0, 1000000000000.0, 0.0, 0.0, 0.0, 0.0, 0.0, 0.0, 1000000000000.0, 0.0, 0.0, 0.0, 0.0, 0.0, 0.0, 0.001)",0.2205532173298457,7.797005326465323e-06,0.0,0.0,0.0,-0.0007790763148041,"(0.0, 0.0, 0.0, 0.0, 0.0, 0.0, 0.0, 0.0, 0.0, 0.0, 0.0, 0.0, 0.0, 0.0, 0.0, 0.0, 0.0, 0.0, 0.0, 0.0, 0.0, 0.0, 0.0, 0.0, 0.0, 0.0, 0.0, 0.0, 0.0, 0.0, 0.0, 0.0, 0.0, 0.0, 0.0, 0.0)",0.2199999988079071,0.0,0.0,0.0,0.0,0.0,79,3,143000000,base_footprint,0.0035753307755483,0.0014837986118842,-0.924273520402744,0.3817112453594246,0.0,0.0,0.0,0.0,0.0,0.0,0.0,0.0,0.0,-0.0002216172992564,-4.921401291738288e-05,-0.0010699500151152,0.0,0.0,0.0,0.0,0.0,0.0,0.0,0.0,0.0,0.0012877750220286,0.004234070430885,-0.0001385623915367,0.0,0.0,0.0,0.0,0.0,0.0,0.0,0.0,0.0
3.177,-2.358339701808143,-0.005316434436874601,-0.005293226318482919,-4.723107298376661e-05,-2.3228398876701855,0.21857940672557036,-0.14931871545428443,-0.1596273105066447,-0.0009072755432803257,0.004583648305621344,-0.041593980489930245,-0.00497232477362675,-0.005315578636229205,-3.021227559123485e-05,82,3,123000000,odom,base_footprint,-0.2255460670478975,-0.2156112274017629,-0.0010033282655599,0.0035724652422191,0.0014824511279094,-0.9242700445046388,0.3817196938358558,"(1e-05, 0.0, 0.0, 0.0, 0.0, 0.0, 0.0, 1e-05, 0.0, 0.0, 0.0, 0.0, 0.0, 0.0, 1000000000000.0, 0.0, 0.0, 0.0, 0.0, 0.0, 0.0, 1000000000000.0, 0.0, 0.0, 0.0, 0.0, 0.0, 0.0, 1000000000000.0, 0.0, 0.0, 0.0, 0.0, 0.0, 0.0, 0.001)",0.2205532173298457,7.797005326465323e-06,0.0,0.0,0.0,-0.0007790763148041,"(0.0, 0.0, 0.0, 0.0, 0.0, 0.0, 0.0, 0.0, 0.0, 0.0, 0.0, 0.0, 0.0, 0.0, 0.0, 0.0, 0.0, 0.0, 0.0, 0.0, 0.0, 0.0, 0.0, 0.0, 0.0, 0.0, 0.0, 0.0, 0.0, 0.0, 0.0, 0.0, 0.0, 0.0, 0.0, 0.0)",0.2199999988079071,0.0,0.0,0.0,0.0,-0.0258852615952491,80,3,177000000,base_footprint,0.0035785223008193,0.0014848380632984,-0.9242825227201028,0.3816894125178629,0.0,0.0,0.0,0.0,0.0,0.0,0.0,0.0,0.0,-2.2634868253023464e-05,1.3071184019842554e-05,-0.0018529270072919,0.0,0.0,0.0,0.0,0.0,0.0,0.0,0.0,0.0,0.00109261359917,0.0010989966167811,0.0002497660891102,0.0,0.0,0.0,0.0,0.0,0.0,0.0,0.0,0.0
3.211,-2.358924520481345,-0.005318676082227691,-0.005293011227571587,-0.0005848186732020366,-2.3228700999457765,0.22524005461508703,-0.15387379066791348,-0.16448689537010094,-0.0015461239135390065,0.20001945614164185,-0.019184635743503927,-0.005124067391411045,-0.0054773479787324575,-5.1485926320848924e-05,84,3,190000000,odom,base_footprint,-0.2360212205611611,-0.2260411026144638,-0.0010043276771816,0.0035795087870611,0.001485400527839,-0.9242880115847654,0.3816761092114569,"(1e-05, 0.0, 0.0, 0.0, 0.0, 0.0, 0.0, 1e-05, 0.0, 0.0, 0.0, 0.0, 0.0, 0.0, 1000000000000.0, 0.0, 0.0, 0.0, 0.0, 0.0, 0.0, 1000000000000.0, 0.0, 0.0, 0.0, 0.0, 0.0, 0.0, 1000000000000.0, 0.0, 0.0, 0.0, 0.0, 0.0, 0.0, 0.001)",0.2206226244882206,-1.643096118822407e-05,0.0,0.0,0.0,-0.0022272402647446,"(0.0, 0.0, 0.0, 0.0, 0.0, 0.0, 0.0, 0.0, 0.0, 0.0, 0.0, 0.0, 0.0, 0.0, 0.0, 0.0, 0.0, 0.0, 0.0, 0.0, 0.0, 0.0, 0.0, 0.0, 0.0, 0.0, 0.0, 0.0, 0.0, 0.0, 0.0, 0.0, 0.0, 0.0, 0.0, 0.0)",0.2199999988079071,0.0,0.0,0.0,0.0,-0.0258852615952491,81,3,211000000,base_footprint,0.0035811623261018,0.001484812514944,-0.9243940838931172,0.3814191241555595,0.0,0.0,0.0,0.0,0.0,0.0,0.0,0.0,0.0,0.000304205831639,-0.0005406733729888,-0.0292056763597214,0.0,0.0,0.0,0.0,0.0,0.0,0.0,0.0,0.0,0.0027140341321674,-0.0005649715493823,8.547124131369602e-05,0.0,0.0,0.0,0.0,0.0,0.0,0.0,0.0,0.0
3.245,-2.359910511422965,-0.005319952631116315,-0.005282307991865909,-0.0009859909416198855,-2.3229215858720975,0.21846371482751836,-0.14925271641230214,-0.1595306282184966,-0.026987258827730856,-0.20349368731437442,-0.7639980454712267,-0.004972433157643456,-0.005310200254759869,-0.0008986757189634375,85,3,223000000,odom,base_footprint,-0.2411848368324883,-0.2311768289830705,-0.0010045260854381,0.0035809046602643,0.0014854805953787,-0.924462280639234,0.3812538027935211,"(1e-05, 0.0, 0.0, 0.0, 0.0, 0.0, 0.0, 1e-05, 0.0, 0.0, 0.0, 0.0, 0.0, 0.0, 1000000000000.0, 0.0, 0.0, 0.0, 0.0, 0.0, 0.0, 1000000000000.0, 0.0, 0.0, 0.0, 0.0, 0.0, 0.0, 1000000000000.0, 0.0, 0.0, 0.0, 0.0, 0.0, 0.0, 0.001)",0.2206073020104655,-5.474139062359995e-05,0.0,0.0,0.0,-0.0277714899138934,"(0.0, 0.0, 0.0, 0.0, 0.0, 0.0, 0.0, 0.0, 0.0, 0.0, 0.0, 0.0, 0.0, 0.0, 0.0, 0.0, 0.0, 0.0, 0.0, 0.0, 0.0, 0.0, 0.0, 0.0, 0.0, 0.0, 0.0, 0.0, 0.0, 0.0, 0.0, 0.0, 0.0, 0.0, 0.0, 0.0)",0.2199999988079071,0.0,0.0,0.0,0.0,-0.0258852615952491,82,3,245000000,base_footprint,0.0035796759502013,0.0014838903373458,-0.92458201324355,0.3809633640864464,0.0,0.0,0.0,0.0,0.0,0.0,0.0,0.0,0.0,0.0006994021862804,-2.026397912034385e-05,-0.0321246857277408,0.0,0.0,0.0,0.0,0.0,0.0,0.0,0.0,0.0,0.0100321548569535,-0.0135658679577256,0.0009330613834883,0.0,0.0,0.0,0.0,0.0,0.0,0.0,0.0,0.0
3.279,-2.361300929018149,-0.005291883867741293,-0.005246028113739892,-0.0013904175951839905,-2.3238202615910604,0.21822541550841076,-0.14923306186032934,-0.15922256505159577,-0.02738188223741325,-0.0071561357089369015,-0.011850552843315085,-0.0049718090024187785,-0.005299909365940467,-0.0009118166785058613,85,3,223000000,odom,base_footprint,-0.2411848368324883,-0.2311768289830705,-0.0010045260854381,0.0035809046602643,0.0014854805953787,-0.924462280639234,0.3812538027935211,"(1e-05, 0.0, 0.0, 0.0, 0.0, 0.0, 0.0, 1e-05, 0.0, 0.0, 0.0, 0.0, 0.0, 0.0, 1000000000000.0, 0.0, 0.0, 0.0, 0.0, 0.0, 0.0, 1000000000000.0, 0.0, 0.0, 0.0, 0.0, 0.0, 0.0, 1000000000000.0, 0.0, 0.0, 0.0, 0.0, 0.0, 0.0, 0.001)",0.2206073020104655,-5.474139062359995e-05,0.0,0.0,0.0,-0.0277714899138934,"(0.0, 0.0, 0.0, 0.0, 0.0, 0.0, 0.0, 0.0, 0.0, 0.0, 0.0, 0.0, 0.0, 0.0, 0.0, 0.0, 0.0, 0.0, 0.0, 0.0, 0.0, 0.0, 0.0, 0.0, 0.0, 0.0, 0.0, 0.0, 0.0, 0.0, 0.0, 0.0, 0.0, 0.0, 0.0, 0.0)",0.2199999988079071,0.0,0.0,0.0,0.0,-0.0031561027280986,83,3,279000000,base_footprint,0.0035771822547515,0.0014794912592726,-0.9248466537933986,0.3803204988425997,0.0,0.0,0.0,0.0,0.0,0.0,0.0,0.0,0.0,0.000457039428525,0.0006191380416382,-0.0432252440687192,0.0,0.0,0.0,0.0,0.0,0.0,0.0,0.0,0.0,0.0005929332044674,-0.0588876421755659,-0.0010082637812826,0.0,0.0,0.0,0.0,0.0,0.0,0.0,0.0,0.0
3.313,-2.3620074720686977,-0.005266829751515878,-0.005212911008680293,-0.0007065430505486247,-2.324732078269567,0.22452644126240096,-0.1536913170143286,-0.16367987628404276,-0.027906497911357752,0.18921999261231803,-0.01575422444277788,-0.0051203822122061204,-0.005448227313402491,-0.0009292863804482133,87,3,290000000,odom,base_footprint,-0.2516208482833048,-0.2415239050767592,-0.0010036189063194,0.0035762808996293,0.0014783832485457,-0.9249288887120188,0.3801204748811189,"(1e-05, 0.0, 0.0, 0.0, 0.0, 0.0, 0.0, 1e-05, 0.0, 0.0, 0.0, 0.0, 0.0, 0.0, 1000000000000.0, 0.0, 0.0, 0.0, 0.0, 0.0, 0.0, 1000000000000.0, 0.0, 0.0, 0.0, 0.0, 0.0, 0.0, 1000000000000.0, 0.0, 0.0, 0.0, 0.0, 0.0, 0.0, 0.001)",0.2177901588173798,0.000125764131327,0.0,0.0,0.0,-0.0290509338884948,"(0.0, 0.0, 0.0, 0.0, 0.0, 0.0, 0.0, 0.0, 0.0, 0.0, 0.0, 0.0, 0.0, 0.0, 0.0, 0.0, 0.0, 0.0, 0.0, 0.0, 0.0, 0.0, 0.0, 0.0, 0.0, 0.0, 0.0, 0.0, 0.0, 0.0, 0.0, 0.0, 0.0, 0.0, 0.0, 0.0)",0.2199999988079071,0.0,0.0,0.0,0.0,-0.0031561027280986,84,3,313000000,base_footprint,0.0035786467719695,0.0014812135139754,-0.9249809417331176,0.3799937587965395,0.0,0.0,0.0,0.0,0.0,0.0,0.0,0.0,0.0,-0.0008010856400724,0.0003812981848616,-0.0030136700609186,0.0,0.0,0.0,0.0,0.0,0.0,0.0,0.0,0.0,0.0097831169753816,0.0127130789436811,-0.0021798390463385,0.0,0.0,0.0,0.0,0.0,0.0,0.0,0.0,0.0
3.347,-2.3621041753084833,-0.005305101704813908,-0.00524661858892983,-9.670323978561157e-05,-2.3256613646500153,0.21748610946728297,-0.14901938853933266,-0.1584090579814753,-0.0035496811785845975,-0.21142137522876822,0.7314359379211157,-0.0049625891714225046,-0.0052747925167067325,-0.00011820438324686711,88,3,323000000,odom,base_footprint,-0.2567458059554225,-0.2465922403877352,-0.0010047394882937,0.0035840847393088,0.0014818980830997,-0.9249843664570526,0.379985368303436,"(1e-05, 0.0, 0.0, 0.0, 0.0, 0.0, 0.0, 1e-05, 0.0, 0.0, 0.0, 0.0, 0.0, 0.0, 1000000000000.0, 0.0, 0.0, 0.0, 0.0, 0.0, 0.0, 1000000000000.0, 0.0, 0.0, 0.0, 0.0, 0.0, 0.0, 1000000000000.0, 0.0, 0.0, 0.0, 0.0, 0.0, 0.0, 0.001)",0.2197678437575535,4.3546549768666565e-05,0.0,0.0,0.0,-0.0038920982654023,"(0.0, 0.0, 0.0, 0.0, 0.0, 0.0, 0.0, 0.0, 0.0, 0.0, 0.0, 0.0, 0.0, 0.0, 0.0, 0.0, 0.0, 0.0, 0.0, 0.0, 0.0, 0.0, 0.0, 0.0, 0.0, 0.0, 0.0, 0.0, 0.0, 0.0, 0.0, 0.0, 0.0, 0.0, 0.0, 0.0)",0.2199999988079071,0.0,0.0,0.0,0.0,-0.0031561027280986,85,3,347000000,base_footprint,0.0035799689778876,0.001480653206705,-0.9249993115783116,0.3799490295656097,0.0,0.0,0.0,0.0,0.0,0.0,0.0,0.0,0.0,0.0002633397001417,-8.54344047085751e-05,-0.0015361376057472,0.0,0.0,0.0,0.0,0.0,0.0,0.0,0.0,0.0,5.324811112552945e-05,0.0197961051875903,0.0026141401171566,0.0,0.0,0.0,0.0,0.0,0.0,0.0,0.0,0.0
3.3810000000000002,-2.3621698357925522,-0.005305029016604124,-0.00524389151135346,-6.566048406897451e-05,-2.325779569033262,0.21739483188401632,-0.1489755617636821,-0.15832496621529737,-0.0025305638225783023,-0.0027410685665663036,0.030604124804993846,-0.004961040154462185,-0.005272076510994936,-8.426777529185747e-05,89,3,356000000,odom,base_footprint,-0.2618947556775688,-0.2516847392339787,-0.0010040887685695,0.0035790191018925,0.001480609536977,-0.9250032732670104,0.3799393936708636,"(1e-05, 0.0, 0.0, 0.0, 0.0, 0.0, 0.0, 1e-05, 0.0, 0.0, 0.0, 0.0, 0.0, 0.0, 1000000000000.0, 0.0, 0.0, 0.0, 0.0, 0.0, 0.0, 1000000000000.0, 0.0, 0.0, 0.0, 0.0, 0.0, 0.0, 1000000000000.0, 0.0, 0.0, 0.0, 0.0, 0.0, 0.0, 0.001)",0.2193874563183057,3.25588337105609e-05,0.0,0.0,0.0,-0.0021817231051739,"(0.0, 0.0, 0.0, 0.0, 0.0, 0.0, 0.0, 0.0, 0.0, 0.0, 0.0, 0.0, 0.0, 0.0, 0.0, 0.0, 0.0, 0.0, 0.0, 0.0, 0.0, 0.0, 0.0, 0.0, 0.0, 0.0, 0.0, 0.0, 0.0, 0.0, 0.0, 0.0, 0.0, 0.0, 0.0, 0.0)",0.2199999988079071,3.255883348174393e-05,0.0,0.0,0.0,0.0224336609244346,86,3,381000000,base_footprint,0.0035769104710049,0.0014795899889499,-0.9250117960402344,0.3799186672320362,0.0,0.0,0.0,0.0,0.0,0.0,0.0,0.0,0.0,0.0003306411364451,-6.258667072706139e-05,-0.0017016317377857,0.0,0.0,0.0,0.0,0.0,0.0,0.0,0.0,0.0,-0.0003358905804738,0.003886476649039,0.0002870773362426,0.0,0.0,0.0,0.0,0.0,0.0,0.0,0.0,0.0
3.415,-2.361628464388277,-0.005303625869333084,-0.005243481194349531,0.0005413714042754592,-2.3258638368085536,0.22399777765913553,-0.15351415147447242,-0.1631208438345764,-0.0018200348865693337,0.19828665991349,0.021337205285554613,-0.005112115595896308,-0.005431835301425267,-6.060716172275882e-05,90,3,390000000,odom,base_footprint,-0.2672004097673551,-0.2569293393058399,-0.0010036385158694,0.003575800297981,0.0014793073401514,-0.9250148764984576,0.3799111785122487,"(1e-05, 0.0, 0.0, 0.0, 0.0, 0.0, 0.0, 1e-05, 0.0, 0.0, 0.0, 0.0, 0.0, 0.0, 1000000000000.0, 0.0, 0.0, 0.0, 0.0, 0.0, 0.0, 1000000000000.0, 0.0, 0.0, 0.0, 0.0, 0.0, 0.0, 1000000000000.0, 0.0, 0.0, 0.0, 0.0, 0.0, 0.0, 0.001)",0.2194669766428641,3.2056393635307434e-05,0.0,0.0,0.0,-0.0015581836060701,"(0.0, 0.0, 0.0, 0.0, 0.0, 0.0, 0.0, 0.0, 0.0, 0.0, 0.0, 0.0, 0.0, 0.0, 0.0, 0.0, 0.0, 0.0, 0.0, 0.0, 0.0, 0.0, 0.0, 0.0, 0.0, 0.0, 0.0, 0.0, 0.0, 0.0, 0.0, 0.0, 0.0, 0.0, 0.0, 0.0)",0.2199999988079071,3.255883348174393e-05,0.0,0.0,0.0,0.0224336609244346,87,3,415000000,base_footprint,0.0035728960206419,0.0014795382462419,-0.924908936327556,0.380169047769584,0.0,0.0,0.0,0.0,0.0,0.0,0.0,0.0,0.0,0.0004105976903342,-2.8724255348901737e-05,0.0241296079422499,0.0,0.0,0.0,0.0,0.0,0.0,0.0,0.0,0.0,-0.0031572353056082,-0.0022614142305032,0.0005269791122272,0.0,0.0,0.0,0.0,0.0,0.0,0.0,0.0,0.0
3.449,-2.360814539121123,-0.0053016474726170215,-0.005249437865576301,0.0008139252671539587,-2.3259244439702766,0.2175390727681368,-0.14909735762060344,-0.1584084155951779,0.02327981337536323,-0.19395510183179365,0.7537491970550318,-0.00496282862545716,-0.005276988353363802,0.0007752177853995956,90,3,390000000,odom,base_footprint,-0.2672004097673551,-0.2569293393058399,-0.0010036385158694,0.003575800297981,0.0014793073401514,-0.9250148764984576,0.3799111785122487,"(1e-05, 0.0, 0.0, 0.0, 0.0, 0.0, 0.0, 1e-05, 0.0, 0.0, 0.0, 0.0, 0.0, 0.0, 1000000000000.0, 0.0, 0.0, 0.0, 0.0, 0.0, 0.0, 1000000000000.0, 0.0, 0.0, 0.0, 0.0, 0.0, 0.0, 1000000000000.0, 0.0, 0.0, 0.0, 0.0, 0.0, 0.0, 0.001)",0.2194669766428641,3.2056393635307434e-05,0.0,0.0,0.0,-0.0015581836060701,"(0.0, 0.0, 0.0, 0.0, 0.0, 0.0, 0.0, 0.0, 0.0, 0.0, 0.0, 0.0, 0.0, 0.0, 0.0, 0.0, 0.0, 0.0, 0.0, 0.0, 0.0, 0.0, 0.0, 0.0, 0.0, 0.0, 0.0, 0.0, 0.0, 0.0, 0.0, 0.0, 0.0, 0.0, 0.0, 0.0)",0.2199999988079071,3.255883348174393e-05,0.0,0.0,0.0,0.0224336609244346,88,3,449000000,base_footprint,0.0035690919741618,0.0014784384821518,-0.92475416090609,0.3805454213218284,0.0,0.0,0.0,0.0,0.0,0.0,0.0,0.0,0.0,0.0002032295831097,-3.922459588221128e-05,0.0237754930232245,0.0,0.0,0.0,0.0,0.0,0.0,0.0,0.0,0.0,-0.0050061152216883,0.0052873755729758,-0.0003402517962151,0.0,0.0,0.0,0.0,0.0,0.0,0.0,0.0,0.0
3.483,-2.3600136981303,-0.005302009547746789,-0.0052583025439739695,0.000800840990822671,-2.3251492261848767,0.21769582265959794,-0.14908185684202532,-0.15863817688051318,0.0236554116809839,0.004707203947781943,0.011279228397017085,-0.004962276332266075,-0.0052846702250545,0.0007877252089767639,91,3,423000000,odom,base_footprint,-0.2723465626287184,-0.2620188303155097,-0.0010031004603387,0.0035714578933269,0.0014790197979262,-0.9248677466448416,0.3802692577701317,"(1e-05, 0.0, 0.0, 0.0, 0.0, 0.0, 0.0, 1e-05, 0.0, 0.0, 0.0, 0.0, 0.0, 0.0, 1000000000000.0, 0.0, 0.0, 0.0, 0.0, 0.0, 0.0, 1000000000000.0, 0.0, 0.0, 0.0, 0.0, 0.0, 0.0, 1000000000000.0, 0.0, 0.0, 0.0, 0.0, 0.0, 0.0, 0.001)",0.2193853867982468,1.4576779780686722e-05,0.0,0.0,0.0,0.0240494495088869,"(0.0, 0.0, 0.0, 0.0, 0.0, 0.0, 0.0, 0.0, 0.0, 0.0, 0.0, 0.0, 0.0, 0.0, 0.0, 0.0, 0.0, 0.0, 0.0, 0.0, 0.0, 0.0, 0.0, 0.0, 0.0, 0.0, 0.0, 0.0, 0.0, 0.0, 0.0, 0.0, 0.0, 0.0, 0.0, 0.0)",0.2084210515022277,1.4576779904018622e-05,0.0,0.0,0.0,0.0158443171530961,89,3,483000000,base_footprint,0.0035672689695492,0.0014785280381386,-0.9246017156178844,0.3809156809891189,0.0,0.0,0.0,0.0,0.0,0.0,0.0,0.0,0.0,0.0001118324068403,-5.170035837307016e-05,0.0233742286786845,0.0,0.0,0.0,0.0,0.0,0.0,0.0,0.0,0.0,-0.005109777714662,0.0058085774263485,-0.0001749744346397,0.0,0.0,0.0,0.0,0.0,0.0,0.0,0.0,0.0
3.517,-2.3591849293664118,-0.005055813634206818,-0.005022755750942909,0.0008287687638883767,-2.3243615009759,0.22448264482165353,-0.1536006830081944,-0.16370488082381912,0.02400508255247298,0.20380847333500265,0.010500626771443906,-0.005112652837998079,-0.005453482423312686,0.0007993692489973504,93,3,490000000,odom,base_footprint,-0.282794479367855,-0.2723764048537937,-0.0010025095461135,0.0035670507092657,0.0014786787259342,-0.924566207983388,0.3810018591997705,"(1e-05, 0.0, 0.0, 0.0, 0.0, 0.0, 0.0, 1e-05, 0.0, 0.0, 0.0, 0.0, 0.0, 0.0, 1000000000000.0, 0.0, 0.0, 0.0, 0.0, 0.0, 0.0, 1000000000000.0, 0.0, 0.0, 0.0, 0.0, 0.0, 0.0, 1000000000000.0, 0.0, 0.0, 0.0, 0.0, 0.0, 0.0, 0.001)",0.2197727944890409,1.763065224777427e-05,0.0,0.0,0.0,0.0232755605098094,"(0.0, 0.0, 0.0, 0.0, 0.0, 0.0, 0.0, 0.0, 0.0, 0.0, 0.0, 0.0, 0.0, 0.0, 0.0, 0.0, 0.0, 0.0, 0.0, 0.0, 0.0, 0.0, 0.0, 0.0, 0.0, 0.0, 0.0, 0.0, 0.0, 0.0, 0.0, 0.0, 0.0, 0.0, 0.0, 0.0)",0.2084210515022277,1.4576779904018622e-05,0.0,0.0,0.0,0.0158443171530961,90,3,517000000,base_footprint,0.0035723962805525,0.0014825980962152,-0.9244437679123896,0.3812987802965597,0.0,0.0,0.0,0.0,0.0,0.0,0.0,0.0,0.0,0.0006819343090678,-9.30146084258249e-05,0.0268224636234573,0.0,0.0,0.0,0.0,0.0,0.0,0.0,0.0,0.0,-0.0099348715254408,-0.7484438910242318,-0.0035124250329831,0.0,0.0,0.0,0.0,0.0,0.0,0.0,0.0,0.0
