Time,yaw_world,delta_position_x_world,delta_position_y_world,delta_yaw,Theta_calculated,linear_velocity_x,world_velocity_x,world_velocity_y,angular_velocity_yaw,linear_acceleration_x,angular_acceleration_yaw,kinematic_delta_x,kinematic_delta_y,kinematic_delta_yaw,twist.twist.linear.x,odom_world_velocity_x,odom_world_velocity_y,odom_angular_velocity,odom_yaw_world
0.616,-2.842199747809549e-05,3.666870495553504e-06,5.8795123367334095e-06,-1.593256222694663e-05,-1.4819911591443822e-06,0.0001415951119098,0.0001415951119096,-2.0984270402832218e-10,-9.591101900416652e-05,0.0042590929350251,-0.0030287555169138,4.7151172265876e-06,-8.180128992662693e-12,-3.193836932838745e-06,0.0002237216557382,0.000223721655713,-3.352201425122741e-09,-0.0002633485240777,-1.4983803933450844e-05
0.65,-2.446040175647888e-05,-4.3087721750788295e-08,2.484739322405795e-07,3.961595721616613e-06,-4.675828091983129e-06,5.388125612060363e-05,5.3881256120014616e-05,-2.519394909991383e-10,-0.0003672238966111,-0.0026340497233996,-0.0081475338620715,1.7942458287248727e-06,-1.694855960984078e-11,-1.222855575715125e-05,4.640555512916874e-07,4.640555511045705e-07,-1.3178211803985369e-11,-0.0004028262684821,-2.8397918673907423e-05
0.684,-1.5193681457419262e-05,-9.497051516992733e-08,6.005417870816807e-07,9.266720299059616e-06,-1.690438384913438e-05,-2.8975899513198397e-06,-2.897589950905834e-06,4.898197277217233e-11,8.289495321931309e-05,-0.0017050704526103,0.0135170825774913,-9.64897453692191e-08,1.368238976731936e-12,2.760401942203126e-06,-2.559173401886397e-06,-2.559173401208019e-06,5.892515631272161e-11,0.0001613466944062,-2.3025073750177983e-05
0.7180000000000001,-4.608030502133604e-06,-1.0821925824824193e-07,6.883354056436318e-07,1.0585650955285658e-05,-1.4143981906931257e-05,-2.1427627644549533e-06,-2.142762764240621e-06,3.0307197770286355e-11,0.0002249014800077,2.266748308903561e-05,0.0042644602639159,-7.135400005325773e-08,6.461335911062427e-13,7.489219284256871e-06,-3.1245878077985505e-06,-3.124587807519062e-06,4.1792043943980637e-11,0.0002897854497385,-1.3375218273885406e-05
0.752,6.315392177116348e-06,-1.1159602051648289e-07,7.108479404323501e-07,1.0923422679249954e-05,-6.654762622674383e-06,-9.723565913738784e-07,-9.723565913523477e-07,6.470802300138193e-12,0.0002540237131214,3.51473325249572e-05,0.0008745415349471,-3.2379474492634694e-08,3.5009716329088285e-14,8.45898964694438e-06,-3.26624941810286e-06,-3.2662494180880326e-06,9.841653829871899e-12,0.0003111736407255,-3.013136037725843e-06
0.786,1.7328578968631352e-05,-1.125007513700857e-07,7.168268017680359e-07,1.1013186791515004e-05,1.8042270242699973e-06,-2.5802616186934495e-07,-2.58026161868925e-07,-4.655377742130843e-13,0.0002634039308721,2.145136424938539e-05,0.000281688220741,-8.592271189977793e-09,-6.473373939636664e-14,8.77135089804187e-06,-3.305411898762707e-06,-3.305411898667033e-06,-2.5149192270054912e-11,0.0003189677388205,7.608489664998026e-06
0.8200000000000001,2.836588526520343e-05,-1.1275071505351815e-07,7.184293663937312e-07,1.1037306296572078e-05,1.0575577922311863e-05,3.729789377837808e-07,3.729789377629233e-07,3.944467819839956e-12,0.0002729730345709,1.894910209168545e-05,0.0002873604714359,1.2420198626473684e-08,2.0449380047983805e-13,9.0900020512125e-06,-3.31651348922468e-06,-3.316513488649361e-06,-6.177466158854227e-11,0.0003308677683802,1.8626386352059046e-05
0.8540000000000001,3.9409932689136666e-05,-1.128273380756814e-07,7.188733604636344e-07,1.1044047423933236e-05,1.9665579973524368e-05,9.827382473828768e-07,9.82738247192847e-07,1.9326117595703457e-11,0.0002631806733348,1.8311090378351228e-05,-0.0002940649019847,3.2725183627195583e-08,8.309440303080288e-13,8.763916422050625e-06,-3.3195714096968467e-06,-3.3195714082680245e-06,-9.739689009032403e-11,0.0003217361548971,2.934020031013359e-05
0.888,5.045612038582287e-05,-1.1285806741228975e-07,7.190106128913448e-07,1.1046187696686206e-05,2.842949639557499e-05,1.649281960630609e-06,1.6492819599641045e-06,4.6888255548718615e-11,0.0002592936535725,2.0016327725157124e-05,-0.0001167273201901,5.492108925691457e-08,1.872302661039315e-12,8.634478663965002e-06,-3.320572821239388e-06,-3.3205728185749985e-06,-1.3302104850675068e-10,0.0003219059705792,4.0059669130424135e-05
0.922,6.150323007899089e-05,-1.1287664459548767e-07,7.190666283365619e-07,1.104710969316802e-05,4.575244319384063e-05,3.342964389094572e-06,3.342964385595681e-06,1.5294878825772058e-10,0.0002448051704956,2.5354513911477987e-05,-0.0004837774322024,1.1132071401078748e-07,5.6965564841717606e-12,8.152012177505617e-06,-3.321294789833772e-06,-3.3212947834855804e-06,-2.0534952843687343e-10,0.0003219887304112,6.182815484980884e-05
0.956,7.255093897384078e-05,-1.1289200276334844e-07,7.191011065682228e-07,1.104770889484989e-05,5.3904455371346246e-05,4.429967609337869e-06,4.429967602901812e-06,2.3879499117841847e-10,0.0002337471793293,3.2642739346645576e-05,-0.0003320718067966,1.475179211326004e-07,8.724268014677803e-12,7.78378107166688e-06,-3.3215303877098234e-06,-3.3215303789681554e-06,-2.409801482470877e-10,0.0003220055292502,7.255093897384078e-05
0.99,8.359916135736258e-05,-1.1290650714368414e-07,7.191298544139523e-07,1.10482223835218e-05,6.168823644301313e-05,5.933119372162143e-06,5.9331193608730825e-06,3.6600367044242576e-10,0.0002259786757844,4.513969257730551e-05,-0.000233288394741,1.9757287465179276e-07,1.3196845088238018e-11,7.525089903622498e-06,-3.321761244730424e-06,-3.3217612331228287e-06,-2.7769645396539047e-10,0.0003317784499556,8.359916135736258e-05
1.024,9.46478743023249e-05,-1.129207841581523e-07,7.191570589781491e-07,1.1048712944962324e-05,6.921332634663563e-05,7.333812607545046e-06,7.333812589978787e-06,5.07597564965813e-10,0.000201529600886,4.20628599214085e-05,-0.0007342064534044,2.4421595916370294e-07,1.805069976403426e-11,6.710935709506871e-06,-3.321982108476384e-06,-3.3219820936988618e-06,-3.1333900312833387e-10,0.000322034350524,9.432290522981336e-05
1.058,0.0001056970715265,-1.1293499988396765e-07,7.191838312310614e-07,1.1049197224243309e-05,7.59242620561425e-05,9.113240884941428e-06,9.11324085867482e-06,6.919160884642873e-10,0.0001808971949069,5.343628460649796e-05,-0.0006195917711461,3.034709204901682e-07,2.4362719120380014e-11,6.02387659040062e-06,-3.322202059005098e-06,-3.322202040675024e-06,-3.48987709159757e-10,0.0003220480526994,0.0001050471053847
1.092,0.0001167467511754,-1.1294919850107776e-07,7.192104675342811e-07,1.104967964893168e-05,8.194813864654312e-05,-0.0001536112587617,-0.0001536112582459,-1.2588156716589162e-08,0.0022253553082254,-0.0048866216110119,0.0613951385380938,-5.115254878554566e-06,-6.155920052850359e-10,7.410433176390752e-05,-3.322428359458424e-06,-3.32242833706782e-06,-3.8572315596690686e-10,0.0003318213602065,0.0001160967566795
1.126,0.0001277969125859,-1.1296339187845394e-07,7.19237048402413e-07,1.1050161410489505e-05,0.0001560524704104,1.0700560572909885e-05,1.070056044261786e-05,1.6698489054017903e-09,0.0001637296543988,0.0049342888689089,-0.0619106802950924,3.5632866250945626e-07,5.7056276718669797e-11,5.452197491482483e-06,-3.3226478738069027e-06,-3.322647847086519e-06,-4.2138444539744255e-10,0.0003220757445938,0.0001268218789745
1.16,0.0001388475554284,-1.129775833476343e-07,7.192635970538468e-07,1.1050642842433852e-05,0.0001615046679019,8.886873669864838e-06,8.886873553963307e-06,1.4352715744984083e-09,0.0001874847912146,-5.446507216351491e-05,0.0007133674719449,2.959328891301123e-07,4.9116077073630976e-11,6.243243547447497e-06,-3.3228673129079384e-06,-3.3228672814747728e-06,-4.5705194015365846e-10,0.0003220893647259,0.0001375474548199
1.194,0.0001498986794775,-1.1299177393123833e-07,7.192901213393274e-07,1.1051124049124285e-05,0.0001677479114493,7.450438993869385e-06,7.450438889044085e-06,1.2497955747412056e-09,0.0002154918891787,-4.313617645631992e-05,0.0008410539929169,2.4809961479635924e-07,4.284181408354647e-11,7.1758799096531285e-06,-3.323093343095726e-06,-3.3230933064062485e-06,-4.938067583206092e-10,0.0003318638872867,0.0001485985222665
1.228,0.0001609502845504,-1.1300596405427329e-07,7.193166248931346e-07,1.1051605072915152e-05,0.000174923791359,5.8199539387297305e-06,5.819953849689287e-06,1.0180484033057822e-09,0.0002276628160818,-4.896351516935898e-05,0.0003654933003933,1.9380446301756486e-07,3.489612688813683e-11,7.581171775526257e-06,-3.32331267936766e-06,-3.323312637187409e-06,-5.294868513783226e-10,0.0003221169994605,0.0001593250183486
1.262,0.0001720023704887,-1.1302015395352889e-07,7.193431100859441e-07,1.1052085938335472e-05,0.0001825049631345,4.679069569662193e-06,4.679069491736825e-06,8.539534145746512e-10,0.0002426869793488,-3.4260791863890005e-05,0.0004511760740825,1.5581301391902825e-07,2.927566921023456e-11,8.08147641231563e-06,-3.323531976571493e-06,-3.32353192851709e-06,-5.651731487638526e-10,0.0003221306035439,0.0001700519674466
1.296,0.0001830549371528,-1.1303434381288585e-07,7.193695788318404e-07,1.1052566664088186e-05,0.0001905864395468,3.864345424797276e-06,3.864345354614597e-06,7.364918312327491e-10,0.0002627137230722,-2.4466190536484007e-05,0.0006014037154181,1.286827001659118e-07,2.5261013451475836e-11,8.748366978305613e-06,-3.323757884727285e-06,-3.323757830219614e-06,-6.019473379837023e-10,0.0003319063615489,0.0001811044492862
1.33,0.000194107984419,-1.1304853378066305e-07,7.193960328007217e-07,1.1053047266136362e-05,0.0001993348065251,3.015334145009029e-06,3.015334085102836e-06,6.010610444236843e-10,0.000264804894688,-2.549583422787527e-05,6.279794642110532e-05,1.0041062491678829e-07,2.0592999515165678e-11,8.818002993112513e-06,-3.323977120541936e-06,-3.3239770593813585e-06,-6.376462312983085e-10,0.0003221582123755,0.0001918323177583
1.364,0.000205161512177,-1.1306272398696473e-07,7.194224734485937e-07,1.105352775803372e-05,0.0002081528095182,2.443655350409889e-06,2.443655297471037e-06,5.086537230091054e-10,0.0002725084800494,-1.716753136934356e-05,0.0002313388997426,8.137372130448046e-08,1.7416753425191488e-11,9.074532385648124e-06,-3.324196332671748e-06,-3.3241962644745103e-06,-6.73351328349939e-10,0.0003221718058723,0.0002025606388938
1.398,0.0002163568506634,2.777936080539025e-05,7.284947370068624e-07,1.119533848634646e-05,0.0002172273419039,2.044728571639656e-06,2.0447285233966184e-06,4.4417094903909067e-10,0.000287207654515,-1.1979783146253229e-05,0.0004414166506185,6.808945973696065e-08,1.5208011193078263e-11,9.564014895352508e-06,-3.324422167909326e-06,-3.3244220920606907e-06,-7.101448868858098e-10,0.0003319488026127,0.0002136145340208
1.432,0.0002306959618905,0.0006772126905585,9.337985899438304e-07,1.433911122717302e-05,0.0002267913567992,0.0337093349699327,0.0337093341030244,7.644985749097186e-06,-0.0004145521429828,1.012230938179013,-0.0210738677927312,0.0011225208270194,2.483387714824408e-07,-1.380458636132927e-05,0.025874500620979,0.0258744999431709,5.922490000720851e-06,0.0004588104498345,0.0002288929220003
1.466,0.0002469924430609,0.001585839434989,1.0629584915015823e-06,1.6296481170380163e-05,0.0002129867704379,0.067054137309423,0.0670541357885224,1.4281644042060643e-05,2.1424590652125425e-05,1.001345415600308,0.013092394403453,0.0022329027209457,4.793765404590121e-07,7.134388687157766e-07,0.0518228025331743,0.0518228009943855,1.2628882943683545e-05,0.0004444635051949,0.0002436935567233
1.5,0.0002656333421108,0.0024937470259859,1.217649188285823e-06,1.8640899049928144e-05,0.0002137002093066,0.1031201445171436,0.1031201421625096,2.203679629932019e-05,2.2144661498004173e-05,1.083063279511129,2.1623749125488018e-05,0.0034339007327495,7.397069211706547e-07,7.374172278835391e-07,0.07851243637937,0.0785124336930983,2.053804883058648e-05,0.0005374233976373,0.0002615897558646
1.534,0.0002866288748058,0.0033899516833966,1.3729830412040655e-06,2.099553269500828e-05,0.0002144376265345,0.1337806810161029,0.1337806779402512,2.868761149341134e-05,2.149048175035246e-05,0.92073683180058,-1.9645037467018436e-05,0.0044548965737781,9.628786791687929e-07,7.156330422867369e-07,0.1040085536203064,0.1040085495051314,2.9257935265905207e-05,0.0005919943639864,0.0002813031681854
1.568,0.0003086124316546,0.0042514255027769,1.4380968866821916e-06,2.198355684878637e-05,0.0002151532595768,0.1671437577933675,0.1671437539247479,3.596152402971804e-05,2.107243170563331e-05,1.0018941975154527,-1.2554055396971482e-05,0.0055658870036562,1.206953236799634e-06,7.017119757975892e-07,0.1284223466551015,0.128422340782292,3.883812442606292e-05,0.0006342885026299,0.000302424975323
1.602,0.0003303043101474,0.0050398010058726,1.418692718314465e-06,2.1691878492767144e-05,0.0002158549715526,0.2062424574050331,0.2062424526002677,4.451845943040095e-05,2.0420544818663628e-05,1.1741351234734403,-1.957618279188232e-05,0.0068678736690823,1.4940295560549687e-06,6.800041424614989e-07,0.1512603172770193,0.1512603093545843,4.895610278797799e-05,0.0006375274892409,0.0003236546407147
1.636,0.0003520440316377,0.0057038977736809,1.421674156365212e-06,2.173972149029812e-05,0.0002165349756951,0.2180174855072822,0.2180174803961461,4.720841055651516e-05,-2.490317432248792e-06,0.3536044475149885,-0.0006880138814087,0.0072599820951374,1.5814996494126926e-06,-8.292757049388478e-08,0.1697352639450572,0.1697352539281305,5.831338846032272e-05,0.0005976067951358,0.0003435549469927
1.67,0.0003707913332268,0.0061919675194032,1.2240576228384606e-06,1.8747301589072948e-05,0.0002164520481246,0.2180145281304421,0.2180145230232895,4.718969076627145e-05,1.3581695961077804e-05,-8.881011531786158e-05,0.0004826430448446,0.0072598836141993,1.5828159790649312e-06,4.5227047550389094e-07,0.1832126868775766,0.1832126746473146,6.694384338204476e-05,0.0006556681584822,0.0003653886966702
1.7040000000000002,0.0003081576680144,0.0064641521936346,-4.142822422958866e-06,-6.263366521238544e-05,0.0002169043186001,0.224621380288357,0.2246213750044217,4.872134705242843e-05,7.961792682600012e-06,0.1984039687061523,-0.0001687658642185,0.0074798917852432,1.6334678791541826e-06,2.6512769633058044e-07,0.1907472562923051,0.1907472447359386,6.639796862186347e-05,-0.0005193611213788,0.0003480939713282
1.738,0.0001256677677821,0.0065104893260375,-1.1547769511556545e-05,-0.0001824899002323,0.0002171694462964,0.2180116618763463,0.2180116567353514,4.734547152369953e-05,-9.259550008626432e-07,-0.1984900424027225,-0.0002668993298337,0.0072597881671857,1.5862596364856824e-06,-3.0834301528726016e-08,0.1912519712025663,0.1912519678380241,3.587409428989294e-05,-0.0048203885869646,0.0001875750313823
1.772,0.0002930009100616,0.0065726585795825,1.15103916418514e-05,0.0001673331422795,0.0002171386119949,0.2179946037009638,0.2179945985618308,4.7335045298042335e-05,0.0001126629633725,-0.000512257518994,0.0034110786298329,0.0072592201269916,1.5996308251435325e-06,3.751676680306681e-06,0.1931301430640604,0.193130138425292,4.232932777959476e-05,0.0009489525177119,0.0002191751502221
1.806,0.0003539527907136,0.0068356929627768,4.009122574395554e-06,6.09518806519542e-05,0.0002208902886752,0.224624673434225,0.2246246679542232,4.96174085549719e-05,5.437707958710702e-06,0.1991011931910275,-0.0032199776400559,0.0074800014404978,1.6629928742349851e-06,1.810756750250664e-07,0.2009862998612004,0.2009862891731804,6.55460987054086e-05,0.0032116239511757,0.0003261222277963
1.84,0.0003990259461987,0.0072730917078265,2.961539504511067e-06,4.507315548512952e-05,0.0002210713643502,0.2180177983223222,0.2180177929947795,4.819749173516522e-05,7.603478541729436e-06,-0.1984046580151,6.503815564620823e-05,0.0072599925043577,1.6156500359554468e-06,2.5319583543959024e-07,0.2137817587771304,0.2137817433974365,8.109128043512041e-05,0.0015974724915046,0.0003793180617634
1.874,0.0004549883557114,0.007464383025214,3.7757677478254687e-06,5.596240951262422e-05,0.0002213245601856,0.2174919011854411,0.2174918958585684,4.81362989808288e-05,0.0014414185255492,-0.0157927068132466,0.043057508919144,0.0072424800884448,1.786489721182795e-06,4.799923690078922e-05,0.2194892761693716,0.2194892563127126,9.336298532941172e-05,0.0013827816600218,0.0004253646910421
1.908,-1.7713943634183736e-05,0.007345886802412,4.177795662432598e-06,-0.0004727022993455,0.0002693237970864,0.2242024255511688,0.2242024174198729,6.03830478354564e-05,0.0015716405424251,0.2015172482200516,0.0039105710773556,0.0074659404410846,2.216157382933417e-06,5.23356300627581e-05,0.2196876198733168,0.2196875947312782,0.0001051037039598,0.00159335598096,0.0004784234452081
1.942,-0.0024595463097662,0.0071035888958597,-7.219789932601406e-06,-0.0024418323661321,0.0003216594271492,0.206502116188132,0.2065021055052834,6.64233512527675e-05,-0.0714034309957277,-0.5315408217128174,-2.191443589734322,0.0068765162714488,-5.954127012533314e-06,-0.0023777342521577,0.208954505734603,0.2089543806034159,-0.0002286775787626,-0.0472316210334565,-0.0010943895352059
1.976,-0.0049135822336678,0.0071108060539449,-2.4883818326259185e-05,-0.0024540359239015,-0.0020560748250084,0.2064895617134515,0.2064891252521083,-0.0004245576903336,-0.0712395447339226,-0.0003770112516662,0.0049215093635179,0.0068760646820853,-2.228450428328875e-05,-0.0023722768396396,0.2091300700029273,0.2091288122251387,-0.0007253114723585,-0.0712867508400216,-0.0034682383381786
2.01,-0.0069017719965447,0.0071130574675543,-4.183506557253256e-05,-0.0019881897628768,-0.0044283516646481,0.2129297589255287,0.2129276711208783,-0.0009429247705445,-0.0738270079553023,0.1933993156779947,-0.0777015982396324,0.0070904457631039,-4.010560062845464e-05,-0.0024584393649115,0.2093185152666199,0.2093148370368043,-0.0012408987381115,-0.073876163528358,-0.005928314583673
2.044,-0.0085300246956912,0.007115400848552,-5.40198513982877e-05,-0.0016282526991465,-0.0068867910295596,0.2068520054834963,0.2068471002257315,-0.0014245352752973,-0.0478186523369304,-0.1825151183793522,0.7810317002514074,0.0068879678293218,-5.291184416732589e-05,-0.0015923611228197,0.2092731386969588,0.2092672170881067,-0.0015743037431659,-0.0478822475430843,-0.0075227934268577
2.078,-0.0101662381294002,0.0071207513461166,-6.598063537357712e-05,-0.0016362134337089,-0.0084791521523794,0.2070053247354405,0.2069978833504142,-0.0017552086125221,-0.047520906618293,0.0046041817400652,0.0089413128719955,0.0068929804788518,-6.389308095745482e-05,-0.0015824461903891,0.209437489583451,0.2094288041431604,-0.0019073641980253,-0.0475799862641022,-0.0091072069694523
2.112,-0.0115745213110213,0.0072544913415836,-7.797269717850001e-05,-0.0014082831816211,-0.0100615983427686,0.2134154700795015,0.2134046675318518,-0.0021472645096523,-0.0490472720821281,0.19249685717901,-0.0458368007157678,0.0071063139805028,-7.729765358562613e-05,-0.0016332741603348,0.2095500394009633,0.209537948048269,-0.0022510754465793,-0.0491118320430359,-0.0107426309764854
2.146,-0.0131815117130094,0.0075569010700252,-9.63385793175e-05,-0.001606990401988,-0.0116948725031034,0.2288594771299213,0.2288438267480494,-0.002676421396143,-0.0080843249072092,0.4637839955081034,1.2301185337813458,0.0076204874632629,-9.014033893564168e-05,-0.00026920801941,0.2251390430973106,0.22512283713312,-0.0027012826411539,-0.037716005208375,-0.0119985739499243
2.18,-0.0150031519514075,0.0075058788007006,-0.0001087341229421,-0.0018216402383981,-0.0119640805225135,0.2186272819025792,0.2186116350196191,-0.0026156120046137,-0.0557667271485212,-0.3072731299502145,-1.431903971210568,0.0072796825145601,-9.384942415017668e-05,-0.0018570320140457,0.220825135194356,0.2208043736008793,-0.0030280244927879,-0.0514766930186089,-0.0137127478274439
2.214,-0.0167691717751794,0.0074692033700435,-0.0001168131467643,-0.0017660198237718,-0.0138211125365593,0.224840448302317,0.224818973778627,-0.0031074462041906,-0.0561198902669678,0.1865815735656994,-0.0106054990524522,0.0074863709283158,-0.0001104631649587,-0.00186879234589,0.220263550227875,0.2202370052257654,-0.0034195157806037,-0.0544303769600432,-0.0155252793802134
2.248,-0.0186962189286932,0.0074453011056906,-0.0001290102900647,-0.0019270471535137,-0.0156899048824493,0.2179008770593633,0.217874056940712,-0.0034187037653424,-0.054664836747041,-0.2083955328214329,0.0436953008987021,0.007255098634903,-0.0001204364870678,-0.0018203390636764,0.2184508696345635,0.2184182877199766,-0.0037728018196821,-0.0524411481182942,-0.0172715696125526
2.282,-0.0203122880036632,0.0074678996453416,-0.0001444193889925,-0.00161606907497,-0.0175102439461258,0.2175056824739354,0.2174723387648245,-0.0038083829389712,-0.0477420391156999,-0.011867705268103,0.2078918207609958,0.0072417251992842,-0.0001325659296824,-0.0015898099025528,0.2198646488765246,0.2198246770981027,-0.0041922743603343,-0.0539672516328699,-0.0190686790919272
2.316,-0.0219959917772012,0.0074724158074168,-0.0001573508549291,-0.001683703773538,-0.0191000538486786,0.2240781432454051,0.2240372712837909,-0.0042796443802455,-0.0490105361428343,0.1973711943384268,-0.0380930038178494,0.0074603217280239,-0.0001485899759185,-0.0016320508535563,0.2197352327960804,0.2196881429429794,-0.004548888019359,-0.0490834166355809,-0.020703156865892
2.35,-0.0236928649253743,0.0074777290928034,-0.0001695429169231,-0.001696873148173,-0.020732104702235,0.2174509526521703,0.2174042219238078,-0.0045078929712408,-0.0490692692002058,-0.1990147325295718,-0.0017637554766229,0.0072394349355266,-0.0001560177828469,-0.0016340066643668,0.219933209222507,0.2198783088283377,-0.0049138402193391,-0.0492829662450353,-0.0223442796418517
2.384,-0.0254043978334338,0.0074835157744388,-0.0001823774899181,-0.0017115329080595,-0.0223661113666018,0.2175696384979055,0.2175152219288667,-0.0048657810621893,-0.049511185279657,0.003564139511567,-0.0132707531366727,0.0072431202628453,-0.0001679917597467,-0.0016487224698125,0.2201050009769267,0.2200416463324309,-0.0052806566226449,-0.0495362328567022,-0.0239938361959799
2.418,-0.0269103459242907,0.0074877282246874,-0.0001948264343161,-0.0015059480908568,-0.0240148338364144,0.2243416066851064,0.2242769195182911,-0.005387008579995,-0.0514324217452972,0.2033624080240505,-0.0576947887579633,0.0074682644000979,-0.0001857728401418,-0.0017126996441183,0.2202953938765068,0.2202226012575463,-0.0056627253654951,-0.0514757330734921,-0.0257079781073272
2.452,-0.0283761733910705,0.0074932567452843,-0.0002059885624315,-0.0014658274667798,-0.0257275334805328,0.2179261721677752,0.2178540528277571,-0.0056060843928395,-0.0424767487420518,-0.1926556912111464,0.2689391292265884,0.0072544057688974,-0.0001918034823117,-0.0014144757331103,0.2204092988753552,0.2203282193295448,-0.0059778589643483,-0.0425518261758799,-0.027124953918984
2.486,-0.0298570254559468,0.0074993095530965,-0.0002173398101169,-0.0014808520648762,-0.0271420092136431,0.2181052735687963,0.2180249406593582,-0.0059190885280444,-0.0427401392939938,0.005378420451083,-0.0079096261844438,0.0072600880797694,-0.0002022623720471,-0.0014232466384899,0.2205956060876616,0.2205057105503282,-0.0062970659737395,-0.0427828692126882,-0.0285496234637665
2.52,-0.0311400180899576,0.0075033228694026,-0.0002282122103073,-0.0012829926340107,-0.0285652558521331,0.2248964777344831,0.2248047291519582,-0.0064233517957223,-0.0444422557233558,0.203940065035641,-0.0511146074883475,0.007485836766656,-0.0002194268397576,-0.0014799271155877,0.2207833824133721,0.2206838240908593,-0.0066296104353098,-0.0445213308648437,-0.0300321837815658
2.5540000000000003,-0.0323936234667492,0.0075078015946827,-0.0002381146914918,-0.0012536053767916,-0.0300451829677209,0.2184546700193639,0.2183560764990978,-0.0065625230810534,-0.0364863113272195,-0.193447679132708,0.2389172491332221,0.0072711231005342,-0.0002229394592256,-0.0012149941671964,0.2208870749186924,0.2207792241383838,-0.0069017428950459,-0.0365908127471509,-0.0312506578460459
2.588,-0.033629982325026,0.0075096868527771,-0.0002483419031206,-0.0012363588582768,-0.0312601771349173,0.2185885090062511,0.2184817155025836,-0.0068320026803303,-0.0363849038882534,0.0040191887954091,0.003045268437419,0.0072753018329552,-0.000231903379905,-0.0012116172994788,0.2210023630326429,0.2208858928219665,-0.0071740377929607,-0.0365287750936691,-0.0324670660566651
2.622,-0.0340333510491861,0.0074624256778572,-0.000254227860433,-0.0004033687241601,-0.0337008586900146,0.2173451466876647,0.217221733724426,-0.0073233316487154,-0.0089741127220083,-0.2378865238970838,0.8388805940856079,0.0072334475162247,-0.0002449380379448,-0.0002988379536428,0.2192652595426352,0.2191382192780327,-0.0074629011752828,-0.0102381596384401,-0.0340425238223087
2.656,-0.035521049400967,0.0073246394261773,-0.0002528272373777,-0.0014876983517808,-0.0339996966436575,0.2067998557894257,0.2066803391196268,-0.0070297778004252,-0.0351726416320915,-0.3166754023495193,-0.7867426099124084,0.0068823169493801,-0.0002381128309705,-0.0011712489663486,0.2127813509859371,0.2126471272022541,-0.0075566275565814,-0.0444001675272738,-0.035521049400967
2.69,-0.0384327587918407,0.0071825111349875,-0.0002626489233811,-0.0029117093908737,-0.0351709456100061,0.2128457606874055,0.2127141296421143,-0.0074844434127119,-0.0355117807469866,0.1815587056450379,-0.0101843578046583,0.0070832318431224,-0.0002534105854459,-0.0011825422988746,0.2093337367110207,0.2091791547213797,-0.00804329257506,-0.0874387204466584,-0.0384327587918407
2.724,-0.040515409151765,0.007024657404899,-0.0002750852098334,-0.0020826503599243,-0.0363534879088808,0.2063180482467287,0.2061817307615066,-0.0074987287275318,-0.0331171315488288,-0.196027400620923,0.0719113873320675,0.0068657128945319,-0.0002534842200621,-0.0011028004805759,0.2063121563410543,0.2061433349394184,-0.0083445379830386,-0.0607944111749503,-0.0404572126839665
2.758,-0.0420517722276128,0.0070364561049584,-0.0002907441798923,-0.0015363630758478,-0.0374562883894568,0.2060345197348751,0.2058900061420408,-0.0077154839907185,-0.0334431395132801,-0.0085143697253339,-0.0097900289625033,0.0068559930743421,-0.0002607340396832,-0.0011136565457922,0.2080591660880121,0.2078757965594504,-0.0087332581556373,-0.0459459807220865,-0.041987213842012
2.792,-0.0432389037101885,0.0070706508030217,-0.0003009400584416,-0.0011871314825757,-0.038569944935249,0.2122658861754044,0.2121080180670918,-0.008185053786017,-0.0347558270581666,0.1871281213372152,-0.0394200463929866,0.0070630380690331,-0.0002766400995178,-0.0011573690410369,0.2081327345910026,0.2079389017751397,-0.0089804419088101,-0.0352508248687534,-0.0431610663101415
2.826,-0.04582439674867,0.0074020351508087,-0.0003265350914972,-0.0025854930384814,-0.0397273139762859,0.2286525955865415,0.2284721827537807,-0.0090813642249137,0.005488635804159,0.4920933757098226,1.208542428298067,0.007608151684775,-0.0003017039269661,0.0001827715722784,0.2242957295019623,0.2240623075782555,-0.0102301806203343,-0.0740239009062095,-0.0456260622103183
2.8600000000000003,-0.046659667742583,0.00747577543154,-0.0003455397986179,-0.0008352709939129,-0.0395445424040074,0.2177762307351572,0.2176059768644204,-0.0086096170701005,-0.0228037202807936,-0.3266175631046318,-0.8496203028514306,0.0072461698673037,-0.0002894417628912,-0.0007593638853504,0.2199684165527884,0.2197299325118791,-0.0102401679217713,-0.0283384359529756,-0.0465697321275524
2.894,-0.0473941156742376,0.0074747144537556,-0.0003506977335753,-0.0007344479316546,-0.0403039062893579,0.2244630381654692,0.2242807534175381,-0.0090442881939033,-0.0230044059334071,0.2008050279372955,-0.00602659617458,0.0074684334099986,-0.0003040253581295,-0.0007660467175824,0.220163156727938,0.2199165284594078,-0.0104180655965029,-0.0230539150911659,-0.0473374275000882
2.928,-0.0477578574642888,0.0074772769296975,-0.0003551827398704,-0.0003637417900511,-0.0410699530069403,0.2180463807244902,0.2178625126819896,-0.008952637317532,-0.0109422475846677,-0.192692415645014,0.3622269774396214,0.007254767599706,-0.000299434809862,-0.0003643768445694,0.2202391326070697,0.2199885919431194,-0.0105021400865793,-0.0109859135819428,-0.0477032584223669
2.962,-0.0481338448746987,0.0074834562309112,-0.0003582708941909,-0.0003759874104098,-0.0414343298515098,0.2182178570450759,0.2180305652315233,-0.0090391237499932,-0.0108887787042664,0.0051494390566293,0.0016056720841241,0.0072603634981789,-0.0003023093564608,-0.000362596330852,0.2204204019612138,0.2201658181005719,-0.0105908517527595,-0.0109209398496735,-0.048066925719361
2.996,-0.0485628599012071,0.0074895411333653,-0.0003616704635613,-0.0004290150265084,-0.0417969261823618,0.2250078246843441,0.2248113108690983,-0.0094018973881972,-0.0114305541803147,0.2039029321101553,-0.0162695338152639,0.0074861573082808,-0.0003144978809614,-0.0003806374542044,0.2205960847120288,0.2203372345916121,-0.0106834284196359,-0.0114668086893074,-0.048448770448715
3.03,-0.0492804585104475,0.0074973929786729,-0.0003665397861795,-0.0007175986092403,-0.0421775636365663,0.2185387636374131,0.21834440802709,-0.009214699966291,-0.0205255707918501,-0.1942660975054366,-0.2731236219680323,0.0072707637708798,-0.0003093245375651,-0.0006835015073686,0.220823590917287,0.2205570963001004,-0.0108455325951993,-0.0205708357392095,-0.0491337792788306
3.064,-0.0499763585678521,0.0074994768960355,-0.0003729974193712,-0.0006959000574046,-0.0428610651439349,0.2186358168373791,0.2184350228306239,-0.0093680950642483,-0.0204154573608652,0.0029145105094887,0.0033067096391873,0.0072737800827691,-0.000314420285498,-0.0006798347301168,0.2208528552446242,0.2205788701823251,-0.0109975314862878,-0.020497397875586,-0.0498163426280877
3.098,-0.0506022105416478,0.0074954953385347,-0.000378245750591,-0.0006258519737956,-0.0435408998740517,0.2251942209306428,0.2249807919285468,-0.0098020611997221,-0.0198831499340684,0.1969490718697813,0.015985208011915,0.0074917522068367,-0.00032887875847,-0.0006621088928044,0.2206788827093029,0.220397763657044,-0.0111353064079996,-0.0199524004618309,-0.0504807575634666
3.132,-0.0510145347356699,0.0074837718889679,-0.0003782395126076,-0.0004123241940221,-0.0442030087668562,0.2183466949874214,0.2181334152612262,-0.0096484381328525,-0.0114875674354576,-0.2056314097063486,0.2521195945528764,0.0072637815316671,-0.0003226725597984,-0.0003825359956007,0.2203109445890552,0.2200256749328998,-0.0112077953248463,-0.0124274149648848,-0.0508945904817973
3.166,-0.0514908794552367,0.0074545386441832,-0.000378500715795,-0.0004763447195668,-0.044585544762457,0.2180261728405352,0.2178095048049363,-0.0097175953877165,-0.0107177646623898,-0.0096252896962819,0.0231172003924265,0.0072529990467378,-0.000324880484793,-0.0003569015632575,0.2192605818128305,0.2189717434204451,-0.011250703102992,-0.0132123675062341,-0.0513345623197549
3.2,-0.0526676536795734,0.007392928293015,-0.0003812247450723,-0.0011767742243366,-0.0449424463257146,0.2243610064633102,0.224134459784566,-0.0100799384080613,-0.0101385548101971,0.1902352439271783,0.0173936892550369,0.0074636211598024,-0.0003369118317212,-0.0003376138751795,0.2174282895967059,0.2171306057844678,-0.0113737042611029,-0.0300139204365935,-0.0523340258702934
3.234,-0.0533286013311106,0.0074098902364886,-0.0003930745777526,-0.0006609476515372,-0.0452800602008941,0.2175629444377089,0.2173399496459684,-0.0098478972523842,-0.0032517836100666,-0.2041460067748152,0.2068099459498656,0.0072374029952252,-0.0003283171003345,-0.0001082843942152,0.2185110101105145,0.2182015139180591,-0.0116258704355585,-0.0269090696958834,-0.0532300978911664
3.268,-0.0534984627489369,0.0074521738514998,-0.0003974421083005,-0.0001698614178262,-0.0453883445951093,0.217405548966562,0.2171816486245422,-0.0098642902521208,-0.005223740162779,-0.0047265907251322,-0.0592179144958686,0.0072321207353425,-0.0003291001615873,-0.0001739505474205,0.2194852194502266,0.219171963740314,-0.0117222808074456,-0.0061078038536525,-0.053433487759493
3.302,-0.0536411701801456,0.0074556809036488,-0.0003989076179612,-0.0001427074312087,-0.0455622951425299,0.2241316127488466,0.223899013035598,-0.010208417854108,-0.0057741458297716,0.2019838973659048,-0.016528698708485,0.007455804864293,-0.0003406470921901,-0.0001922790561313,0.2196245866897895,0.2193088972397725,-0.0117714344977903,-0.0057113818318795,-0.0536236767744946
3.336,-0.0536806732367733,0.0074604986766247,-0.0003997253021318,-3.950305662762944e-05,-0.0457545741986613,0.2176773437896752,0.217449531838951,-0.0099562594557145,-0.0012637793681476,-0.1938218906658068,0.1354464402890066,0.0072410628775937,-0.000331686073559,-4.208385295931816e-05,0.2197589104455829,0.2194425406669478,-0.0117877082532902,-0.001241784740696,-0.0536650282063598
3.37,-0.053725112412445,0.0074667239043333,-0.000400466482509,-4.443917567176214e-05,-0.0457966580516206,0.2178406521692178,0.217612249802008,-0.0099728869249893,-0.0012368751524185,0.0049041555418196,0.0008079344062803,0.0072464815237062,-0.000332236628892,-4.118794257553793e-05,0.2199423271573002,0.2196252086940407,-0.0118065651850123,-0.0012331385331795,-0.0537060917195146
3.404,-0.053829034640051,0.0074631361786127,-0.000400794352018,-0.0001039222276059,-0.0458378459941961,0.2246229100878944,0.2243869728922644,-0.0102926251559325,-0.0014238352249501,0.203671408969267,-0.0056144165925406,0.0074720785300145,-0.0003429115144619,-4.74137129908403e-05,0.2201332610927029,0.219815293410715,-0.0118274858727186,-0.0014578561274522,-0.0537546383285588
3.438,-0.0540984820877788,0.0073511775722061,-0.0003964187096836,-0.0002694474477277,-0.045885259707187,0.2174123696071028,0.217183533557617,-0.0099725227301299,-0.0053790298886581,-0.2165327471709185,-0.1187746145257659,0.0072321823341802,-0.0003327230077804,-0.0001791216952923,0.2195304557353788,0.2192112280394533,-0.0118346312497646,-0.0054156995649121,-0.0539349811240704
3.472,-0.0544486766317598,0.0070881482474981,-0.0003841113815027,-0.0003501945439809,-0.0460643814024793,0.2066511761007101,0.2064319654879847,-0.009515892421323,-0.0091472731961045,-0.3231589641559371,-0.1131604596830736,0.0068741365103782,-0.0003179169263125,-0.0003046041974302,0.2086952933579411,0.2083880523953412,-0.011320118755278,-0.0100294901186991,-0.0542689631450231
3.506,-0.054691612456813,0.0070980495553036,-0.0003877699802282,-0.0002429358250531,-0.0463689855999096,0.2133000426338429,0.2130707773373611,-0.0098869627516177,-0.0114907553528602,0.1996656616556376,-0.0703748395422134,0.0070951941667588,-0.0003305837875261,-0.0003826421532502,0.209128230975522,0.2088159776753144,-0.0114238547983542,-0.0115410692624907,-0.054653280751464
3.54,-0.0547378123367715,0.0070984781785961,-0.0003894084750565,-4.61998799585403e-05,-0.0467516277531598,0.2071503148555658,0.2069239703432226,-0.0096810868272713,-0.0019012600860746,-0.1846765098581704,0.2879728308344017,0.0068905584361442,-0.0003225890576215,-6.331196086628577e-05,0.2091168373718313,0.2088038428883839,-0.0114370829952403,-0.0019919782849474,-0.0547196136283528
3.574,-0.0547436880761673,0.0070947450931528,-0.0003898070880467,-5.8757393957761805e-06,-0.0468149397140261,0.2071359827104539,0.2069090405573763,-0.0096935168567192,-0.0007093566650949,-0.0004303947481034,0.0357928955249145,0.0068900676714187,-0.0003228662278896,-2.3621576947663316e-05,0.2090109621898307,0.2086978427665008,-0.0114364653686246,-0.000744344968061,-0.0547444003157892
3.608,-0.0546024773952994,0.0071108335854495,-0.0003868883164648,0.0001412106808678,-0.0468385612909738,0.213237463842842,0.2130036010096872,-0.0099840844864879,0.0004390864442638,0.1832276616332743,0.0344877810618282,0.0070930227907629,-0.0003324086244933,1.4621578593987384e-05,0.2088195136009343,0.2085067217018518,-0.0114252468541076,0.0001070115730562,-0.0547408368304064
3.642,-0.0539473724223912,0.0071676844074352,-0.0003822603347519,0.0006551049729081,-0.0468239397123798,0.2174517134396834,0.2172133775790675,-0.0101782257072458,-0.0082473623300916,0.1265540419471895,-0.2608543175482133,0.007233159297264,-0.000339918443642,-0.000274637165592,0.2109598589332939,0.2106493087418278,-0.0114425000653431,0.014235103012775,-0.054266807900081
3.676,-0.0554583175686101,0.0072227297768465,-0.0003873174757816,-0.0015109451462188,-0.0470985768779718,0.217872860245285,0.2176312538503516,-0.0102577082716034,0.0015325879120121,0.0126470512192688,0.2936921994625757,0.0072471299252572,-0.000341387015814,5.103517747000464e-05,0.2122386522799925,0.2119267875154035,-0.0115014023070473,0.0014821467332006,-0.0542174524138654
3.71,-0.0574792100745702,0.0073016351581874,-0.0004104655941263,-0.00202089250596,-0.0470475417005018,0.2242821923137705,0.2240340170118002,-0.0105480334957546,0.0036164824281415,0.1924724344890535,0.0625794148987809,0.0074603543702336,-0.0003507902678344,0.0001204288648571,0.2146716931028962,0.2143299527894961,-0.0121081442391646,-0.0665337641844146,-0.0564330267612064
3.744,-0.0579064517853343,0.0074191014577404,-0.0004299942505696,-0.0004272417107641,-0.0469271128356447,0.2177116462313318,0.2174719729418081,-0.0102128296546095,0.0030177545545755,-0.1973136961693296,-0.0179798160230038,0.0072418342312609,-0.0003397136240653,0.0001004912266673,0.2182234991857581,0.2178587478729361,-0.0126119614696926,-0.0418311511009307,-0.0578260040928674
3.778,-0.057955266030011,0.0074528161083234,-0.0004308087513267,-4.8814244676710645e-05,-0.0468266216089773,0.2174799107762171,0.2172415167089117,-0.0101801281545464,-0.001358537055404,-0.0069590226761189,-0.1314201684678539,0.0072341352917603,-0.0003391521781582,-4.523928394495336e-05,0.2195550702181394,0.2191868531210979,-0.0127103216860299,-0.0029324369269256,-0.057923654242534
3.812,-0.0578442863474791,0.0074570966642756,-0.000431356686302,0.0001109796825319,-0.0468718608929223,0.2242194556417607,0.2239731988722784,-0.0105057353481956,-0.0015108654502288,0.2023887347010105,-0.0045744262710167,0.007458299189179,-0.0003500185831954,-5.03118194926211e-05,0.2197033197360562,0.2193342191931371,-0.0127298465811888,-0.0014981903074334,-0.0579735439797716
3.846,-0.0576337256381036,0.0074621120350815,-0.0004304833583208,0.0002105607093754,-0.0469221727124149,0.217776773762163,0.2175370792404497,-0.0102148101201461,0.0060066526530665,-0.1934739303182502,0.225751294393256,0.007244019165583,-0.0003394189620001,0.0002000215333471,0.2198069574182508,0.2194401873105183,-0.0126926247322352,0.0059155405871706,-0.0577765564782188
3.88,-0.0574200031650649,0.007468063185718,-0.0004294260142123,0.0002137224730387,-0.0467221511790678,0.2179308426990418,0.2176930188750906,-0.0101784936294123,0.006361358155473,0.0046266948011652,0.0106518168890826,0.0072492138286244,-0.00033816628375,0.0002118332265772,0.2199777133047277,0.2196132627727705,-0.0126573759158457,0.0061682664509075,-0.0575711532054036
3.914,-0.057054352637025,0.0074730269914918,-0.000428179500429,0.0003656505280398,-0.0465103179524905,0.2247033487314293,0.2244603523114108,-0.0104472566425678,0.006687567950029,0.2033785595311567,0.0097960899266079,0.0074745688739105,-0.0003470513232017,0.0002226960127359,0.2201623101996247,0.2198002538031457,-0.0126210641591153,0.0064122690071416,-0.0573576246474658
3.948,-0.0566167505078777,0.0074784172387157,-0.000425794255625,0.0004376021291473,-0.0462876219397546,0.2182509802251177,0.2180172158090657,-0.0100987118033927,0.0131243234266203,-0.1937648200093587,0.1932959602579954,0.0072600469906247,-0.0003346908853105,0.0004370399701064,0.2202778524854897,0.2199208783017041,-0.0125355328018487,0.0125838402548943,-0.0569385827669778
3.982,-0.056174279046804,0.0074840398790171,-0.000423301520474,0.0004424714610737,-0.0458505819696481,0.2184100462088038,0.2181805073412435,-0.0100107193172812,0.0133235105688149,0.0047767562668495,0.0059815958617014,0.0072654850526979,-0.0003317354442697,0.0004436729019415,0.2204429448386449,0.2200910170463986,-0.0124513511160729,0.0127681083588665,-0.0565134047586275
4.016,-0.0540587011560153,0.0074766466877446,-0.0004168792951535,0.0021155778907886,-0.0454069090677066,0.2251565267553355,0.2249244541891952,-0.0102201491289876,0.0136209653069229,0.2025970134093614,0.0089325747179574,0.0074900617061493,-0.0003386222407998,0.0004535781447205,0.2205808659161048,0.2202342423497806,-0.0123611045184763,0.0133679761379305,-0.0560682511532344
4.05,-0.0511287206589839,0.007466160865406,-0.0003948723307855,0.0029299804970314,-0.0449533309229861,0.2185956852889055,0.2183748531860688,-0.0098232949100163,0.0845288733478496,-0.197022266259158,2.129366607835636,0.0072723338185142,-0.0003168710316365,0.0028148114824833,0.2199235537518683,0.2196094289814365,-0.0117502424357242,0.0784997015683316,-0.053454211091009
4.084,-0.0483325954283379,0.0074696518370936,-0.0003703195741821,0.0027961252306459,-0.0421385194405026,0.2184617736460609,0.2182678459935732,-0.0092029315931702,0.0863204244815811,-0.0040213706559955,0.0538003343462904,0.0072687501115961,-0.0002960011543774,0.0028744701352366,0.2199239098165521,0.2196422498181459,-0.0111269134903685,0.0852319133964297,-0.0506159883749079
4.118,-0.0459045008637292,0.0074101800491461,-0.0003451789873732,0.0024280945646087,-0.039264049305266,0.2247927074682612,0.2246194521399549,-0.0088240042643795,0.0893755353619841,0.1901181327988083,0.0917450714835739,0.0074802543565477,-0.0002826981110398,0.002976205327554,0.2197910812624816,0.2195393895601889,-0.0105155044610518,0.082718820273515,-0.0478614516597998
4.152,-0.0429315448221518,0.0071784189627589,-0.0003171371439043,0.0029729560415773,-0.0362878439777119,0.2059866194217504,0.2058510119283856,-0.0074731699338835,-0.002442823369284,-0.5647473887841087,-2.757308070008053,0.0068548289027526,-0.0002491261522644,-8.134601819715925e-05,0.2148277577787033,0.2146052125847545,-0.009775901169587,0.070269309318902,-0.0455214836594804
4.186,-0.0398620553952708,0.0070160970435212,-0.0002914822153815,0.0030694894268809,-0.0363691899959091,0.2064859038317504,0.2063493575748554,-0.0075080696360246,0.0928125170233857,0.0149935258258273,2.8605207325126063,0.0068718093502213,-0.0002393904717345,0.0030906568168787,0.2057428218625616,0.2055564378853647,-0.0087555463478858,0.0886741158521268,-0.0425686356016046
4.22,-0.0368775804300364,0.007033520220984,-0.0002690779485234,0.0029844749652344,-0.0332785331790303,0.2121388447911381,0.2120213879073882,-0.0070583666059086,0.0957462915858307,0.1697579867683986,0.0881013382115605,0.0070606752565653,-0.0002237783508819,0.0031883515098081,0.2069128311048497,0.2067515138721547,-0.0081689159254006,0.0924439985298592,-0.0394902504505603
4.254,-0.0339287511940035,0.0070386651112656,-0.0002489173111225,0.0029488292360328,-0.0300901816692222,0.2059347119566364,0.2058414903868014,-0.0061956778485631,0.0863368656657909,-0.1863102953303802,-0.2825653429441358,0.0068548090319666,-0.0001964531465127,0.0028750176266708,0.2070808364252531,0.2069420250021106,-0.0075809697670065,0.086285952543125,-0.0366169282308742
4.288,-0.0309877053456269,0.0070449801696607,-0.0002286415190314,0.0029410458483766,-0.0272151640425513,0.2060465381966115,0.2059702371607876,-0.0056068981385954,0.0859704637220985,0.0033581453445952,-0.0110030613721451,0.0068590670240196,-0.0001768824853668,0.0028628164419458,0.207234226627916,0.2071161726256354,-0.0069939776221015,0.0859271727696559,-0.0337555533776446
4.322,-0.0300422953182275,0.0073261646575543,-0.0002198885540515,0.0009454100273993,-0.0214103222680832,0.2174537894375908,0.2174039507264019,-0.004655400017217,-0.0120127382178508,0.1501458830150082,-3.013869288366508,0.0072395205695725,-0.0001564630840471,-0.0004000241826544,0.2197644280955018,0.2196651846690875,-0.0066038246826107,0.0228478858172051,-0.0300540856100413
4.356,-0.0277338446459408,0.0074538334459185,-0.000216637781167,0.0023084506722867,-0.0218103464507376,0.2180665730696101,0.2180147089493483,-0.0047557304438506,0.0762076640173904,0.0184019108714513,2.649261328385625,0.0072600831597706,-0.0001491441344864,0.0025377152117791,0.2194451457604349,0.219360756282044,-0.0060852774125952,0.0696769058288413,-0.0277338446459408
4.39,-0.0251068845031293,0.0074614826693968,-0.0001971386291582,0.0026269601428114,-0.0192726312389585,0.224829648923121,0.2247878954922277,-0.0043327906791332,0.0789325508066505,0.2030953709763018,0.0818284321099136,0.0074856181004864,-0.0001344341450683,0.0026284539418614,0.2196334604067296,0.2195642404466554,-0.005513732612101,0.0788876919763213,-0.0251068845031293
4.424,-0.0227944865598866,0.0074708053849457,-0.0001789434511972,0.0023123979432427,-0.016644177297097,0.2183889180316889,0.2183586687377782,-0.0036347360450205,0.067461557455412,-0.193415342085048,-0.3444742748119672,0.007271473657308,-0.0001128594115534,0.0022464698632652,0.2198929085231976,0.2198354445003625,-0.0050267842722131,0.0674097807556706,-0.0228621388039655
4.458,-0.020498213264539,0.007477081278599,-0.0001621449739664,0.0022962732953476,-0.0143977074338318,0.2185479804018416,0.2185253289528699,-0.0031464811716842,0.0670221577755295,0.004776647752335,-0.0131951855820571,0.0072770044663883,-9.664753566691484e-05,0.0022318378539251,0.2200412385114971,0.2199944011093182,-0.0045398376871835,0.0669344243770697,-0.0206332224722091
4.492,-0.018208927169438,0.0074814859437684,-0.0001462985169891,0.0022892860951009,-0.0121658695799067,0.225240916527088,0.2252242479608009,-0.0027401840183258,0.0695499213192432,0.2009890728302215,0.0759088151265363,0.0075000665290449,-8.255296097262596e-05,0.0023160123799307,0.2201451254113958,0.220108115126313,-0.0040365700713544,0.0689562943662288,-0.0183369778698137
4.526,-0.0162723969819633,0.0074869544517235,-0.0001318462514248,0.0019365301874747,-0.0098498571999759,0.2185099913974404,0.2184993915976693,-0.0021522574097488,0.0581156551544599,-0.2021298837732019,-0.3433713562997978,0.0072760946352421,-6.461987676018278e-05,0.0019352513166435,0.2202328986272022,0.2202031252017563,-0.0036212275707472,0.056862411356228,-0.0164434595716513
4.5600000000000005,-0.014333733625459,0.0074845430063601,-0.000119788216499,0.0019386633565043,-0.0079146058833324,0.2183116508786551,0.2183048132857834,-0.0017278326374556,0.0579822964884838,-0.0059561717352921,-0.0040047647440255,0.0072696013797976,-5.050896069688658e-05,0.0019308104730665,0.2201300061670646,0.2201066757135833,-0.0032048278311603,0.0565810604451492,-0.0145593102588278
4.594,-0.0127459079184573,0.0074639740700932,-9.642757078860004e-05,0.0015878257070016,-0.0059837954102658,0.224670029369548,0.224666007135637,-0.0013443714678146,0.060509298177378,0.1909422970238102,0.0758859366034289,0.0074814181275808,-3.7220149435425066e-05,0.0020149596293066,0.218819663486307,0.218801513614107,-0.0028182917585665,0.0504335230345045,-0.0128798739417788
4.628,-0.0132170496312685,0.0074113354666632,-9.074739082750095e-05,-0.0004711417128111,-0.0039688357809592,0.2177299958999427,0.2177282810980369,-0.0008641323297255,-0.0207855230613771,-0.2084094135016609,-2.4412859230857413,0.007250341265055,-3.127505360807739e-05,-0.0006921579179438,0.2185521993431096,0.2185336975200329,-0.0028437450541666,-0.0039710590209285,-0.0130121102071757
4.662,-0.0140898084810067,0.007458330182569,-0.0001004124574217,-0.0008727588497382,-0.004660993698903,0.2174649362953455,0.2174625741017282,-0.0010135990277457,-0.0225655832499022,-0.0079597478858031,-0.0534552609166699,0.0072414904035969,-3.646386722182111e-05,-0.0007514339222217,0.2194982731718396,0.2194769095653758,-0.0030623672299943,-0.0282285687452849,-0.0139521215463937
4.696,-0.0148034796582523,0.0074636850259951,-0.0001072060660929,-0.0007136711772455,-0.0054124276211248,0.224038401245223,0.2240351197210152,-0.001212585710749,-0.0228514115081392,0.1974013498461715,-0.0085834311782894,0.0074603534615247,-4.320756465655975e-05,-0.000760952003221,0.2196002591310323,0.2195764977394777,-0.0032303948491878,-0.0227853076203173,-0.0147108722901503
4.73,-0.01525443305252,0.0074668462554737,-0.0001114183587328,-0.0004509533942677,-0.0061733796243458,0.2174995430142238,0.2174953985066058,-0.001342698718598,-0.0134166137557887,-0.1963621090390133,0.2833272598303459,0.0072425866035551,-4.6320030678922216e-05,-0.0004467732380677,0.219684985743427,0.219659742945215,-0.0033302087519863,-0.0134752792612395,-0.0151595990895496
4.764,-0.0157233101493996,0.0074729501413559,-0.0001147226737702,-0.0004688770968795,-0.0066201528624136,0.2176510793728246,0.2176463099560077,-0.0014408728913459,-0.0135464373905841,0.0045506413994224,-0.0038986076515124,0.0072476111203712,-4.960601252975369e-05,-0.0004510963651064,0.2198656383710699,0.2198388454627673,-0.0034323405885231,-0.0135770998333662,-0.0156117165140006
4.798,-0.0162054717375945,0.0074792766403104,-0.000118389834122,-0.0004821615881949,-0.00707124922752,0.224430886083274,0.2244252750465983,-0.0015869935041463,-0.0143643986227363,0.2035977991125935,-0.024563400364932,0.0074733488082438,-5.462422040163104e-05,-0.0004783344741371,0.2200578832351666,0.2200293929405587,-0.0035409343613597,-0.0144114268426582,-0.0160916170278612
4.832,-0.016697927200602,0.0074856077099936,-0.0001222102456431,-0.0004924554630074,-0.0075495837016571,0.2180118249133566,0.2180056120185449,-0.0016458828851815,-0.0141901808829102,-0.1927645996972172,0.0052317639587417,0.0072595737367468,-5.651333810065432e-05,-0.0004725330234009,0.220243297181655,0.2202130766655967,-0.0036483995009938,-0.0142479055570898,-0.0165660722829123
4.866,-0.0172056620769149,0.0074919370038419,-0.000126176938471,-0.0005077348763129,-0.008022116725058,0.2181895515913255,0.2181825309048555,-0.0017503232774246,-0.0146048802287043,0.0053371374765441,-0.0124534338076312,0.0072654638999997,-6.00427531942892e-05,-0.0004863425116158,0.2204285537855186,0.2203964970905857,-0.0037591746666946,-0.0146754193886794,-0.0170547637485553
4.9,-0.0177516461199219,0.0074532520210408,-0.0001297972762521,-0.000545984043007,-0.0085084592366739,0.2249825253120851,0.2249743816824041,-0.0019142315489457,-0.0154703987216387,0.2039932048276138,-0.0259915463343638,0.0074916302476196,-6.566355308277997e-05,-0.0005151642774305,0.2206126872106784,0.2205786245549859,-0.0038766155015973,-0.0155610546340005,-0.0175729468678675
4.934,-0.0184832710250695,0.0071023318709101,-0.0001277012642924,-0.0007316249051475,-0.0090236235141045,0.2062429503578822,0.2062345536681703,-0.0018610334802102,-0.0195048006347537,-0.5627499986247105,-0.1211532106040542,0.0068675901147232,-6.419347054120141e-05,-0.0006495098611372,0.208412341697265,0.2083777622386539,-0.0037963635427296,-0.0193302564626136,-0.0182166444080725
4.968,-0.0193196270816483,0.0071156728662484,-0.0001348009398447,-0.0008363560565787,-0.0096731333752418,0.2071245191483747,0.2071148289541241,-0.0020035118540604,-0.0241252843548884,0.0264735372520254,-0.1387532648689111,0.0068968963564132,-6.94780653231349e-05,-0.0008033719690177,0.2093380923051988,0.2093002077666143,-0.0039824513596547,-0.0242798788421502,-0.0190251643735161
5.002,-0.0199910128502918,0.0071120133090093,-0.0001407750666994,-0.0006713857686435,-0.0104765053442596,0.2134308117514401,0.2134190990782415,-0.0022359681371661,-0.0247428117604176,0.1893781562482108,-0.0185443665324088,0.0071068246250129,-7.737597444876347e-05,-0.0008239356316219,0.2092271908393078,0.2091859436950928,-0.0041543166588019,-0.024975075079154,-0.019856834373652
5.036,-0.0202910832405062,0.007098890627639,-0.0001452989374798,-0.0003000703902143,-0.0113004409758815,0.2069752208681088,0.2069620056443821,-0.0023388614873929,-0.0085937087470582,-0.1938615880880256,0.4849580484492324,0.0068918236558263,-7.88609434679302e-05,-0.000286170501277,0.2088529085170176,0.2088104690545982,-0.0042101554860152,-0.0090991906341096,-0.0201598374217678
5.07,-0.0208279826826584,0.007082411442765,-0.0001399473367461,-0.0005368994421522,-0.0115866114771585,0.2066904372089224,0.2066765633134407,-0.0023947882079318,-0.0076414024069847,-0.0085520618374297,0.0285977879901933,0.0068823194463312,-8.061283064467817e-05,-0.0002544587001525,0.2083615524463488,0.2083176068820276,-0.0042791588890314,-0.011374997108178,-0.0205386248254702
5.104,-0.0220825731997706,0.0070259707536503,-0.0001416253039798,-0.0012545905171121,-0.0118410701773111,0.2126966492451903,0.2126817382205398,-0.002518497095753,-0.0070311126093239,0.1803667278158508,0.0183270209507756,0.0070822921138415,-8.468554471537698e-05,-0.0002341360498904,0.2058977560684581,0.2058502676043001,-0.0044219092329345,-0.0282061418637268,-0.0214778893495323
5.138,-0.0245291296565785,0.0071836924579951,-0.0001655350568144,-0.0024465564568078,-0.0120752062272016,0.2174956375735923,0.2174797811809664,-0.0026262408538373,-0.0281885978094366,0.1441137636156758,-0.6353599159193001,0.0072420347263192,-9.084307113727272e-05,-0.0009386803070542,0.2115739834878743,0.2115161818649616,-0.0049452298425665,-0.0569899295762033,-0.0233756540044198
5.172,-0.025926233287073,0.0074052777201019,-0.0001879134616766,-0.0013971036304945,-0.0130138865342558,0.2176951030486498,0.2176766687522294,-0.0028329794024061,-0.0140731244281567,0.005989954205931,0.4238880895279234,0.0072486108281012,-9.60269499134653e-05,-0.0004686350434576,0.2180478208464062,0.2179766205747269,-0.0055718092831688,-0.0654738885883154,-0.0255559344944107
5.206,-0.0263035896371129,0.0074634667984844,-0.0001948043166739,-0.0003773563500398,-0.0134825215777134,0.224106037182164,0.2240856686736125,-0.003021422941831,-0.019004979874814,0.1925205445499761,-0.1481037671668848,0.0074620205697256,-0.0001029645870051,-0.0006328658298313,0.2196512943233058,0.2195755714365459,-0.0057671072660263,-0.0211057966979697,-0.0262587575244531
5.24,-0.026369841928357,0.0074665202743376,-0.0001957264426136,-6.625229124416697e-05,-0.0141153874075447,0.2175916240824921,0.2175699475120437,-0.0030712880788206,-0.0022230854253773,-0.1956280210111675,0.5039607942773778,0.0072450755977439,-0.0001025323273082,-7.40287446650667e-05,0.2196754259996279,0.2195992501379791,-0.0057846457934161,-0.0023117342715754,-0.0263357382756966
5.274,-0.0264444765024845,0.0074728584503791,-0.0001964620208668,-7.463457412743707e-05,-0.0141894161522098,0.2177463654586202,0.217724445350885,-0.0030895901165841,-0.0019901713938583,0.0046468881720154,0.0069944153609324,0.007250220754294,-0.0001031138521896,-6.62727074154823e-05,0.2198600203477416,0.2197833856998611,-0.0058044739309815,-0.0020450462816539,-0.0264038383168757
5.308,-0.0266724546988841,0.0074804130711614,-0.0001975064007561,-0.0002279781963995,-0.0142556888596253,0.2245314161443043,0.2245086013697869,-0.0032007415935875,-0.0023180815941865,0.2037552758463704,-0.0098471531630086,0.0074761324480755,-0.0001068631961288,-7.719211708641095e-05,0.2200519852412996,0.2199748237174884,-0.0058269322200502,-0.0023740431495601,-0.026482893953756
5.342,-0.027052453172417,0.0074881145848809,-0.0002003795778348,-0.0003799984735329,-0.0143328809767117,0.2181074352105225,0.2180850325277545,-0.0031260008766134,-0.0106551072547011,-0.1929123403538085,-0.250361130946386,0.0072622131050458,-0.0001053744408817,-0.0003548150715815,0.2203126897643558,0.2202333465916583,-0.0059122178785784,-0.0106878014708746,-0.0268387977427362
5.376,-0.0274435109029714,0.0074942539852765,-0.0002035828693783,-0.0003910577305544,-0.0146876960482933,0.2182859601821362,0.2182624153632887,-0.0032060025608885,-0.0111622666789096,0.0053611102586702,-0.0152300127389943,0.0072681185680208,-0.000108100910321,-0.0003717034804076,0.2204947572682582,0.2204131240096981,-0.005999395559019,-0.0112117305240209,-0.027212148369186
5.41,-0.0277124842437578,0.0074987832210348,-0.0002066913025019,-0.0002689733407863,-0.0150593995287009,0.2250760572100742,0.2250505356977252,-0.0033893821560191,-0.0118127685736601,0.2039068176557952,-0.0195345914339466,0.0074941606002741,-0.0001143303257393,-0.0003933651935028,0.2206689263792248,0.2205848373520159,-0.0060913545081864,-0.0118739146892742,-0.0276075497283389
5.444,-0.0278780628071034,0.0075014156240942,-0.0002090253331169,-0.0001655785633456,-0.0154527647222038,0.2186017064149118,0.2185756072089551,-0.0033778663010688,-0.0049852292556293,-0.1944249488036755,0.2050312107516731,0.0072785585020721,-0.0001130773153424,-0.0001660081342124,0.2207285785444601,0.2206434342253211,-0.0061302789099916,-0.0050735688577757,-0.0277764995713028
5.478,-0.0280311300763584,0.0074988804645129,-0.0002105162548306,-0.0001530672692549,-0.0156187728564163,0.2186486063062229,0.2186219376147509,-0.0034148840720617,-0.0045907457716926,0.0014084051444757,0.0118463508689708,0.0072801019558361,-0.0001142623163125,-0.0001528718341973,0.2206922951036697,0.2206062010198603,-0.0061638615907747,-0.0047086066451703,-0.027933296172587
5.5120000000000005,-0.0281967526640678,0.0074902529663418,-0.0002130249086126,-0.0001656225877094,-0.0157716446906137,0.2251322330049369,0.2251042333518791,-0.0035505583859446,-0.0042308966931196,0.1947035044658874,0.010806278635827,0.0074959627765345,-0.0001187515683768,-0.0001408888598808,0.2204452592481027,0.220358330934997,-0.0061901787135421,-0.0045267084840359,-0.0280840355651054
5.546,-0.0286254135062454,0.0074694406610481,-0.0002044285923222,-0.0004286608421775,-0.0159125335504945,0.2182286671438604,0.2182010390256679,-0.0034724244419169,-0.0038398716641007,-0.207314290122417,0.0117424933639304,0.0072660873430027,-0.0001160865171713,-0.0001278677264145,0.2201042818718367,0.2200162638603207,-0.0062240288610114,-0.0059270513968832,-0.0282814063766216
5.58,-0.0295373773310455,0.0073983306758133,-0.0002113175839676,-0.0009119638248,-0.0160404012769091,0.2179605742790095,0.2179325348546558,-0.0034960251514889,-0.0030522344413681,-0.0080508367823112,0.0236527694514302,0.0072571476388144,-0.0001167766898137,-0.0001016394068975,0.2177177649137595,0.217626913482063,-0.0062890132225749,-0.0182791083571223,-0.0288901006849138
5.614,-0.0302737679770569,0.0072755255206586,-0.0002153176270092,-0.0007363906460114,-0.0161420406838066,0.2242270591131252,0.2241978468320867,-0.0036193251273061,-0.0025151721516385,0.1881827277512225,0.016127996688576,0.0074657834059442,-0.0001208261416867,-8.375523264956277e-05,0.2182289149493888,0.2181321527723668,-0.0064979417418461,-0.0267299251823434,-0.0297802071934858
5.648,-0.030570621546996,0.0070599605690223,-0.0002150638451813,-0.000296853569939,-0.0162257959164562,0.2064878652244871,0.2064606841244557,-0.0033502829474064,-0.0247348944046276,-0.5327085251843271,-0.6672589265161905,0.0068750942114592,-0.0001143865993798,-0.0008236719836741,0.2079825835768975,0.2078857502283461,-0.0063458587534575,-0.0221027037811733,-0.0305162272293989
5.682,-0.0305985483307188,0.0070662248864403,-0.0002150241119984,-2.7926783722761334e-05,-0.0170494679001303,0.2059689124889898,0.2059389772438345,-0.0035114902335902,-0.0010360268830901,-0.0155841662311482,0.7116777033494748,0.0068577660811044,-0.0001170417030726,-3.4499695206902106e-05,0.2078756792401959,0.2077785180928579,-0.0063549538714869,-0.0017859334428959,-0.0305756988130473
5.716,-0.0306113878244708,0.0070715568549994,-0.0002156319633878,-1.2839493752022507e-05,-0.0170839675953372,0.2123029457198894,0.212271964897674,-0.0036268002182358,-0.0008697692464912,0.1902112081351221,0.0049927218197863,0.0070686548435738,-0.0001208653125596,-2.8963315908159255e-05,0.2080389308561679,0.2079414970705935,-0.006366360641511,-0.0009265733369366,-0.0306065537051673
5.75,-0.0306252650348672,0.0070774755768244,-0.000215863890658,-1.3877210396428393e-05,-0.0171129309112454,0.2062199394201736,0.2061897441545363,-0.0035288553309723,-0.0001570330516251,-0.1826728618533276,0.0214034893353195,0.0068661183310302,-0.0001175196063074,-5.229200619116803e-06,0.2082040216993459,0.2081064668842765,-0.006372840240051,-0.0002059937576802,-0.0306134132972981
5.784,-0.0306499176056202,0.0070835593007135,-0.000216235995522,-2.465257075299349e-05,-0.0171181601118645,0.20638829947442,0.2063580610860819,-0.0035328154120755,-0.0004168354606526,0.0050558574848766,-0.0078018741449718,0.0068717227756441,-0.000117681209203,-1.3880620839734629e-05,0.2083809215492109,0.208283185639128,-0.0063814610956202,-0.0004622651369748,-0.0306288067263593
5.818,-0.0312184442976268,0.0073366517212515,-0.0002252837580293,-0.0005685266920066,-0.0171320407327042,0.212820360471644,0.2127891291219585,-0.0036458687303524,-0.0007516322275351,0.1931549849016204,-0.0100539569634364,0.0070858766429363,-0.0001214865824639,-2.502935317691968e-05,0.2085630663696838,0.2084650748035561,-0.0063925926409321,-0.0008000039164767,-0.030655446856778
5.852,-0.0314095970772499,0.007491488569134,-0.0002346002613702,-0.0001911527796231,-0.0171570700858811,0.2181280321678171,0.2180959283203731,-0.0037422543311434,-0.0244301011997624,0.1593895404256212,-0.7110651343011221,0.0072625430940522,-0.0001275614356645,-0.000813522369952,0.2206134268938281,0.2205050461289446,-0.0069143877176812,-0.0207607087022318,-0.0313467784565623
5.886,-0.0314691978378361,0.0074951763123037,-0.000235298839895,-5.960076058613568e-05,-0.0179705924558332,0.2183953614444954,0.2183600978550129,-0.0039244827966244,-0.0020009894659401,0.0080279062065531,0.6735468989135849,0.007271387075184,-0.0001309177611013,-6.663294921580576e-05,0.2205044274273326,0.2203956204675077,-0.0069262539513128,-0.0020823105222817,-0.0314161193969543
5.92,-0.0315579230260572,0.00749954834679,-0.0002366895413833,-8.872518822108932e-05,-0.018037225405049,0.2251644159281483,0.2251277892567316,-0.0040611211063946,-0.0017254382114215,0.2032749094190057,0.0082748124480042,0.0074967516750545,-0.0001354406276991,-5.7457092440338366e-05,0.2206572624336912,0.2205479601200628,-0.0069444043380289,-0.0018177058651445,-0.0314766490022636
5.954,-0.0316374674921288,0.0074983663798378,-0.0002379226950855,-7.954446607164045e-05,-0.0180946824974894,0.2186434180721456,0.2186076252043025,-0.0039560673409653,-0.0025435024275835,-0.195825761441522,-0.0245664929778361,0.0072796285090939,-0.0001320355456868,-8.469863083853113e-05,0.2207207268095043,0.2206107735079404,-0.0069660502111361,-0.0026746016111036,-0.0315657132359134
5.988,-0.0317138542083027,0.0074904115149759,-0.0002394963845913,-7.638671617393039e-05,-0.0181793811283279,0.2185977976620376,0.2185616764749124,-0.0039737537881574,-0.0020971519754389,-0.0013699822855238,0.013403917481819,0.0072780993783817,-0.0001325703527423,-6.983516078211683e-05,0.2205537976301798,0.2204433974058506,-0.0069775489436157,-0.0022841046697884,-0.0316417739214173
6.022,-0.0319351907044523,0.0074758834344518,-0.0002335447046136,-0.0002213364961495,-0.01824921628911,0.2249840955632277,0.2249466329380907,-0.0041055555311636,-0.0015905192531497,0.191780717753455,0.0152141958645403,0.0074907194368401,-0.0001369033016932,-5.2964291129886654e-05,0.219241408032678,0.2191295227847023,-0.0070033734942414,-0.0068977150211463,-0.0319490973072291
6.056,-0.0326714126930888,0.0074054536060034,-0.0002340649055962,-0.0007362219886365,-0.0182953976825519,0.2177789256976857,0.2177424790616717,-0.0039841297814714,0.000765248206438,-0.0084421525964962,0.016863591146464,0.0072508264205726,-0.0001325693907471,2.54827652743872e-05,0.2175134677785206,0.2173973888602998,-0.0071052080730349,-0.0216911527285192,-0.0326714126930888
6.09,-0.0331373284610656,0.0074208157398927,-0.000243170125994,-0.0004659157679768,-0.0182699149172775,0.2240600451899941,0.2240226517523032,-0.0040933302344737,0.0008091097623588,0.1886222069762254,0.0013171638414661,0.0074599563218068,-0.0001361973722014,2.6943355086550545e-05,0.2194396348008382,0.2193191644098038,-0.0072703125180903,-0.0139914645038087,-0.0331373284610656
6.124,-0.0304865554208812,0.0074220559687072,-0.0002373605417156,0.0026507730401844,-0.018242971562191,0.2175490053047393,0.2175128055003436,-0.0039685201840478,0.0917073367157092,-0.1955267232809235,2.729676485085597,0.0072433671134668,-0.0001210819871466,0.0030538543126331,0.2185329656832745,0.2184307984986767,-0.0066815684953266,0.0768142615869832,-0.0305794135502191
6.158,-0.0273236490192217,0.0074308519863783,-0.0002143139777363,0.0031629064016595,-0.0151891172495579,0.2174793928358533,0.2174543060607968,-0.003303192980847,0.0922169605218675,-0.0020904645311122,0.0153040182029513,0.0072413860335543,-9.886815758315252e-05,0.0030708247853781,0.2187117216189379,0.2186289696502533,-0.0060158792531421,0.0921912455851065,-0.027509445072235
6.192,-0.0241763513506383,0.0074373679735139,-0.0001914752622002,0.0031472976685833,-0.0121182924641797,0.2242350539460944,0.2242185893510238,-0.0027172794565215,0.0948177450335541,0.2028727060132484,0.0781016369875853,0.0074666095757365,-7.868778407962127e-05,0.0031574309096173,0.2188976027501661,0.218832692905332,-0.005330385124001,0.0947745942850428,-0.0243534510825431
6.226,-0.021307831723452,0.0074467207373829,-0.000169205970584,0.0028685196271863,-0.0089608615545623,0.217816314693076,0.2178075697489474,-0.0019517957194751,0.0838977719816722,-0.1927549325230756,-0.3279271186751329,0.007253073502122,-5.4853281641059376e-05,0.0027937958069896,0.2191583469815895,0.2191074094721343,-0.0047248456179286,0.0838658048803739,-0.0215607197800266
6.26,-0.0184466769878722,0.0074536635891482,-0.0001480936927596,0.0028611547355798,-0.0061670657475726,0.2180002380720302,0.2179960925163489,-0.0013444132791944,0.0834578446939044,0.0055232245932176,-0.0132110296626975,0.00725932279243,-3.467186796886097e-05,0.002779146228307,0.2193454386312794,0.2193067479463168,-0.0041196788174601,0.0834210752899914,-0.0187827979728699
6.2940000000000005,-0.0156288476877841,0.0074527385126283,-0.0001270840214238,0.002817829300088,-0.0033879195192656,0.2247919764801212,0.2247906864003518,-0.0007615756679952,0.0857087258203019,0.2039561083510826,0.0675940278197451,0.007485555904781,-1.4668154147085547e-05,0.002854100569816,0.2195367430613165,0.2195088878773159,-0.0034970983449771,0.0856660603201206,-0.0159301181642099
6.328,-0.0158044914107293,0.0071554528477348,-0.0001095335738192,-0.0001756437229451,-0.0005338189494496,0.2067578790926637,0.2067578496335257,-0.0001103712685657,-0.0342527810220717,-0.5415644861098351,-3.602447652924133,0.0068850328140006,-7.592705117496488e-06,-0.0011406176080349,0.2089330659426695,0.2089068585624683,-0.0033091524239178,0.0027362869798614,-0.0158389998077805
6.362,-0.0133120696016748,0.0070819196903391,-0.0001044221459959,0.0024924218090544,-0.0016744365574846,0.2069810800027958,0.2069807898425262,-0.0003465765251126,0.0735231231413172,0.0067027300339957,3.236513638540208,0.0068924675480656,-3.094252999246932e-06,0.0024483200006058,0.2083613029218476,0.2083415781912631,-0.0028669412382779,0.0624352831006342,-0.0137599048805294
6.396,-0.0108175884142355,0.0070860387915083,-8.644642971940286e-05,0.0024944811874392,0.0007738834431212,0.21342367347126,0.2134236095620155,0.0001651650307834,0.0763678163874507,0.1934712753292571,0.0854262236076129,0.0071069915252196,1.4546266787891898e-05,0.0025430482857021,0.2084580651940028,0.2084449370888537,-0.0023394756786439,0.0761833404897989,-0.0112229996422191
6.43,-0.0086548476193604,0.0070917908538521,-7.142674483300027e-05,0.002162740794875,0.0033169317288233,0.207094381722602,0.2070932424937153,0.0006869166660148,0.0650852261680125,-0.1900688212810213,-0.338816523106253,0.0068961747470737,3.035677655162508e-05,0.0021673380313948,0.2086239158207525,0.2086152846389321,-0.0018977005563952,0.0638618310388002,-0.009096400668627
6.464,-0.0065005381989397,0.0070905430209999,-5.811281314499484e-05,0.0021543094204207,0.0054842697602181,0.2069309216787534,0.206927809733663,0.0011348593072957,0.064729128191573,-0.0049087100254833,-0.0106936329261089,0.0068906499388922,4.522642278672866e-05,0.0021554799687793,0.2085378123800832,0.2085326935824347,-0.0014611295374326,0.062756711119082,-0.0070066021883616
6.498,-0.0045671554762101,0.0070790671143488,-4.2736336099004346e-05,0.0019333827227295,0.0076397497289975,0.2129758443761057,0.2129696291561307,0.0016270663217495,0.0666608572600659,0.1815292101306995,0.0580098819367216,0.0070918226072437,6.20621029222626e-05,0.0022198065467601,0.2079993643513357,0.2079968220554594,-0.0010283897068923,0.0619335030624444,-0.0049442165363822
6.532,-0.0036213610328027,0.0070522530348451,-1.6020487401097183e-05,0.0009457944434074,0.0098595562757577,0.2176697458667095,0.2176591660219137,0.0021460923379316,-0.0312799403962495,0.140958002720835,-2.941165094784248,0.0072480860465745,6.769973966173818e-05,-0.0010416220151951,0.2075468377362764,0.2075453456370062,-0.0007869934840179,0.0346043149169766,-0.0037918928496469
6.566,-0.0034032925893151,0.0071807880852179,-2.278293141910054e-05,0.0002180684434876,0.0088179342605626,0.2178073822180872,0.217798914361403,0.0019205862881319,0.0684439853718297,0.0041332237650944,2.994712485527907,0.0072526245887187,7.223033814732232e-05,0.0022791847128819,0.2123646767922856,0.2123634383950169,-0.0007252462600845,0.0113149503973415,-0.0034151050014154
6.6,-0.0020023156058072,0.0073801598500267,-2.138569109290389e-05,0.0014009769835078,0.0110971189734445,0.2242113203454334,0.2241975151179278,0.0024880486307727,0.0720624342732808,0.1923104542746611,0.1086621291727045,0.0074656705557164,9.181970444174404e-05,0.0023996790613002,0.2181266200876779,0.2181258637248478,-0.0005744259423735,0.0234729774182643,-0.0026334548533872
6.634,0.0001765863145385,0.0074423344067013,-5.858548464396374e-06,0.0021789019203458,0.0134967980347448,0.2174145639458142,0.2173947617412436,0.0029343113700625,0.063367557953267,-0.2041067987873629,-0.2611073969974121,0.0072391369584847,0.0001053601326403,0.0021101396798437,0.2189072209978377,0.2189071902182085,-0.0001160851636591,0.0631579858832594,-0.0005302939234747
6.668,0.0023554461137018,0.0074474298325097,9.710768437899696e-06,0.0021788597991633,0.0156069377145886,0.2175607846808302,0.2175342888708898,0.0033953197750464,0.0635927816707808,0.0043910130635433,0.0067634750004155,0.0072437665285257,0.0001207437732613,0.002117639629637,0.2190650849243086,0.2190648088773746,0.0003477706340171,0.0635980947447026,0.0015875226315238
6.702,0.0043899080225848,0.007454668100743,2.586834809190086e-05,0.002034461908883,0.0177245773442256,0.2243300388145107,0.224294801902519,0.0039759469349634,0.0652642579692963,0.203280904915329,0.0501944834389045,0.0074688669635017,0.0001405251704219,0.0021732997903775,0.2192544152073252,0.2192528655830192,0.0008243309654885,0.0652308368587464,0.0037597094989201
6.736,0.0061342438877448,0.0074638011273862,3.9703588523398725e-05,0.0017443358651599,0.0198978771346031,0.217908009901473,0.2178648736542666,0.0043356206973071,0.0513526170334213,-0.1928537211122423,-0.4177669950713221,0.0072547731098091,0.0001505889407019,0.0017100421472129,0.2195496407303677,0.2195463580687762,0.0012005846784884,0.0513127666005165,0.0054684246267173
6.77,0.0078661304940415,0.0074700768028443,5.25926812180999e-05,0.0017318866062966,0.0216079192818161,0.2180912768350299,0.2180403651701469,0.0047121320018306,0.0506948467162084,0.0055035115182264,-0.0197528623787665,0.0072606080461598,0.0001630522487386,0.0016881383956497,0.219736226676578,0.2197306026079601,0.0015721296394291,0.0506383905138907,0.0071546830308298
6.804,0.0094783207906179,0.0074771121071202,6.530657482110153e-05,0.0016121902965764,0.0232960576774658,0.224884304691133,0.2248232843860474,0.005238443880087,0.0518284446059321,0.2039948305136052,0.0340419786703821,0.0074864608781965,0.0001809106819615,0.0017258872053775,0.219925128709289,0.2199164610518093,0.0019525358499609,0.0517603009093999,0.0088783010511129
6.838,0.0109051537075379,0.0074845654671227,7.641189624379985e-05,0.00142683291692,0.0250219448828434,0.2184373923973065,0.2183690143877318,0.0054651580640857,0.0421112220004398,-0.1936009697845792,-0.2918084866514198,0.0072715579419707,0.0001870980339258,0.0014023036926146,0.2201683490855245,0.2201567205751907,0.0022628134308308,0.042027951782493,0.0102778318454699
6.872,0.0123020883248163,0.0074887882370586,8.699407187039848e-05,0.0013969346172783,0.026424248575458,0.2185799490517837,0.2185036427603829,0.0057751387795744,0.0413870707941891,0.004280980614932,-0.0217462824699915,0.0072760362140509,0.0001973358102769,0.0013781894574464,0.2202917963497807,0.2202768466277652,0.002566394112614,0.0412134405520939,0.0116502394158546
6.906,0.0137735396937245,0.007490571019985,9.470200931770144e-05,0.0014714513689081,0.0278024380329045,0.2251920483449151,0.225105019976129,0.0062600814152206,0.0422869882942597,0.1985615403342751,0.0270245495516687,0.007495847627966,0.0002137484854511,0.0014081567101988,0.2204283793662028,0.2204096460850375,0.0028737332303349,0.0416567040702137,0.0130374076613927
6.94,0.0153631018032491,0.007485454833136,0.0001041833961048,0.0015895621095245,0.0292105947431033,0.2184613231577179,0.2183681277564865,0.0063804777209599,0.0474853105343462,-0.202123879495412,0.1561057729755709,0.007271487345526,0.0002182287860918,0.0015812608407937,0.2201921371494705,0.2201687961680027,0.0032060031789932,0.0457397159929369,0.0145605402039575
6.974,0.0169573518332641,0.0074704695193117,0.0001081270824922,0.001594250030015,0.0307918555838971,0.2182324152491531,0.2181289661599411,0.0067187191840464,0.0478810284427615,-0.0068741113683125,0.0118834206731316,0.0072635128224956,0.0002295337714936,0.0015944382471439,0.2199038893519564,0.2198752785767193,0.0035471711161977,0.0471685094514272,0.0161312515686901
7.008,0.0187910301752335,0.0074042051824321,0.0001303749425442,0.0018336783419693,0.032386293831041,0.2245758764463567,0.2244581110628015,0.0072719089493999,0.0500448273326041,0.1904943302463554,0.0649789456409198,0.0074742495305053,0.0002483925628119,0.0016664927501757,0.2178447460034922,0.2178106737990738,0.0038527575215061,0.0467106772310978,0.0176867171204856
7.042,0.0204868973899564,0.0074098141628193,0.0001477665306659,0.0016958672147229,0.0340527865812168,0.2175971292763829,0.2174709794923118,0.007408356631359,0.037208635782679,-0.2095719870863,-0.3854712177154689,0.0072416285910766,0.0002511944023837,0.0012390475715632,0.2176841538513359,0.2176421912881302,0.0042740389882434,0.0585187581384616,0.0196353917664964
7.076,0.0218274330896756,0.0074463386636791,0.0001594675449477,0.0013405356997191,0.03529183415278,0.2173639077958634,0.2172285569981007,0.0076695786593204,0.0390047190336465,-0.00700364806365,0.053936433962989,0.0072335427024719,0.000260104397641,0.0012988571438204,0.2189480479276627,0.2188996604542733,0.0046028626242754,0.0417051550178498,0.0210241734285908
7.11,0.0225636981173905,0.0073154773204893,0.0001649423959384,0.0007362650277148,0.0365906912966004,0.2239886418260011,0.223838711745681,0.0081940704836216,0.0408919399059277,0.1989409618659967,0.056673299467902,0.0074536406453899,0.0002779474255057,0.0013617015988673,0.2190757317639516,0.2190208215477638,0.0049046892310811,0.0410149105058083,0.0223899699484342
7.144,0.0226544819369286,0.0070730687718107,0.0001583439500239,9.078381953811844e-05,0.0379523928954678,0.2065940054313816,0.2064452359267446,0.0078388547207159,-0.037174561832299,-0.5223614532918767,-2.344339391538342,0.0068747858239942,0.0002567879417208,-0.0012379129090155,0.2086596451390864,0.2086088109413322,0.0046055952072418,-0.0094862489561281,0.0220740778581951
7.178,0.0238109628952391,0.0070664523988233,0.0001647614916545,0.0011564809583105,0.0367144799864522,0.2062573328010061,0.2061183358160538,0.0075709295734051,0.0329606986024639,-0.0101102892004649,2.1061639770199108,0.0068636005026988,0.0002558879196145,0.001097591263462,0.2078693007948084,0.2078140139634869,0.0047939350544439,0.0297364293117688,0.023064300954277
7.212,0.0250406484503224,0.007071899291585,0.000173019144246,0.0012296855550832,0.0378120712499143,0.2126191942968872,0.2124672159688179,0.0080376564941006,0.0346087242004068,0.1910468917682006,0.0494902581964843,0.0070750021287148,0.000271740366317,0.0011524705158735,0.2080547370225262,0.2079937366135554,0.0050377700467058,0.0345868474137646,0.0242160429731554
7.246,0.026309770864327,0.0070775006144214,0.0001820627455919,0.0012691224140046,0.0389645417657878,0.2065454071731584,0.206388634723139,0.0080459108523853,0.0371739771440893,-0.1823960097215831,0.0770346229334064,0.006872573581524,0.000272191860269,0.0012378934388981,0.2082028159483185,0.2081353787219436,0.0052987444817128,0.0371358139201002,0.0254526655766947
7.28,0.0275658887300333,0.0070835454211279,0.0001910369292835,0.0012561178657063,0.040202435204686,0.2067191256400936,0.2065520947133633,0.0083083737835151,0.0369022219618961,0.0052167707788332,-0.0081608162820779,0.0068780126539348,0.0002809041291714,0.0012288439913311,0.2083858334556472,0.2083116677571265,0.0055591960973921,0.03687442335551,0.0266805838744332
7.314,0.0295014507287713,0.0072553180925269,0.0002060219954041,0.0019355619987379,0.0414312791960172,0.2131611970321939,0.2129782721792319,0.0088290146532218,0.0376374938920841,0.193455597360369,0.0220802381437849,0.0070919899625119,0.000298460055941,0.0012533285466064,0.2085682945251543,0.2084869331948336,0.005825132457251,0.0376031618689953,0.0279327691646708
7.348,0.0331242498032675,0.0074669005895933,0.0002328901726518,0.0036227990744961,0.0426846077426236,0.2182181711679652,0.2180194072425573,0.0093117288134548,0.1056441557322677,0.1518610851582973,2.04224209730281,0.0072594854287635,0.0003228599150545,0.0035179503858845,0.2197450814564889,0.2196431155281495,0.0066934763319909,0.0760399503408148,0.0304648995110199
7.382,0.0367505648023669,0.0074681712346271,0.000257818461887,0.0036263149990993,0.0462025581285081,0.2186411429206083,0.2184078203892294,0.0100981864934246,0.1054787996598095,0.0127018544337286,-0.0049656478215683,0.0072723744315731,0.0003490516483582,0.0035124440286716,0.2198118378818428,0.2196849036738136,0.0074690809890383,0.1057379222879533,0.0339859723232088
7.416,0.0401825105617932,0.0074721830339135,0.0002832528513665,0.0034319457594263,0.0497150021571797,0.2252439270902504,0.2249656300620386,0.0111933900954121,0.1080823285750533,0.1982818068961593,0.0781840515088242,0.0074906680172743,0.000386230363022,0.0035991415415492,0.21979198700438,0.2196366127310409,0.0082629231733278,0.1086239173189114,0.0376031487699285
7.45,0.0433978443907384,0.0074680645727802,0.0003064072098917,0.0032153338289452,0.053314143698729,0.2183434529610573,0.2180332169679253,0.0116352803823148,0.0956454281915293,-0.2072214453211154,-0.3734804919977186,0.0072598762935213,0.0003990262591854,0.0031849927587779,0.2200363903430675,0.219852698428479,0.0089891083497216,0.0979294073656985,0.0408641980352063
7.484,0.0466453516520435,0.0074225089543962,0.0003316622252192,0.003247507261305,0.0564991364575069,0.2180952329476096,0.2177472289230072,0.0123156376539583,0.0956164030192256,-0.0074540544578899,-0.0008716267959061,0.0072503170035305,0.0004216634354623,0.0031840262205402,0.2188693441102933,0.2186583240877772,0.0096086991000108,0.0916350313710783,0.0439156445798632
7.518,0.0502073551841554,0.007365486908252,0.0003598712624157,0.0035620035321119,0.0596831626780472,0.2243751522784342,0.2239756497770686,0.0133834699129354,0.0974502930723505,0.1885861660908283,0.0550717733671148,0.0074576523127225,0.0004577803684351,0.0032450947593092,0.2170868565349837,0.2168439100635694,0.0102675191055688,0.102067031257703,0.0473144767207447
7.552,0.0531304767951216,0.0074154367029604,0.0003853121692521,0.0029231216109662,0.0629282574373565,0.2175154825966811,0.2170849477875223,0.0136788381581109,0.0808334985124954,-0.2059960865391308,-0.4990028396352902,0.0072283063523431,0.0004652437242532,0.002691755500466,0.2176076158175646,0.217328177342446,0.0110244181168494,0.1011751696261399,0.0506836098692951
7.586,0.0560039038920173,0.007423845512787,0.0004055070814521,0.0028734270968956,0.0656200129378225,0.2173714147312024,0.2169035834952881,0.0142536805473876,0.0830145257633501,-0.0043263623266864,0.0654963138394809,0.0072222234261167,0.0004846400771101,0.0027643837079195,0.2185908219501018,0.218278425457162,0.0116823123037889,0.0836519491730812,0.0534692197767588
7.62,0.0608369199983901,0.0074083440644043,0.0004313620740761,0.0048330161063728,0.0683843966457421,0.2240500423026369,0.2235263697382126,0.0153095880894705,0.0862873671050972,0.2005593865295629,0.09828352377619,0.0074426847355597,0.0005205124367895,0.0028733693245997,0.2187538587301054,0.2184067293812996,0.0123187365535057,0.0863008075864787,0.0563430366693885
7.654,0.0660764921654215,0.0074095925133856,0.0004701304621273,0.0052395721670314,0.0712577659703419,0.2176583688163466,0.2171060040039113,0.0154967267913706,0.1517608459788348,-0.1919421467354452,1.9661705367488744,0.007228294503063,0.0005343164415277,0.0050536361710951,0.2182849523297815,0.2178749624882402,0.0133724019668457,0.1488457672614813,0.0612996007191958
7.688,0.0713077580866841,0.007413678668672,0.0005093642127857,0.0052312659212625,0.076311402141437,0.2177650241313808,0.2171312620789262,0.0166018301085615,0.1526880112219782,0.0032028623133402,0.0278428000943972,0.0072290336456908,0.0005712299410322,0.0050845107736918,0.2184773593057751,0.2179961327357517,0.0144928479423902,0.1526980150653677,0.0663844446208726
7.722,0.074483030485007,0.0070758221720821,0.0005207371183621,0.0031752723983228,0.0866265918893891,0.1954603374985865,0.1947274125523911,0.0169108939950615,-0.0480721908360757,-0.8737520749361527,-6.160649775091753,0.0064848700511093,0.0005579511017101,-0.0016008039548413,0.2003304928428401,0.1997752387720269,0.0149050439863433,0.0857621488760054,0.0744710891571495
7.756,0.0780327907249841,0.0069322409040881,0.0005257789728128,0.0035497602399771,0.0850257879345478,0.2066608022388288,0.2059142369567495,0.017550333344865,0.1449159654074779,0.3363502924997664,5.795440127434044,0.0068555065393002,0.0006009777972759,0.004825701648069,0.2075844815370045,0.2069527991285303,0.0161819624228068,0.106958005040078,0.0780327907249841
7.79,0.0830469001079279,0.0070352227300831,0.0005666149555004,0.0050141093829438,0.0898514895826168,0.2132621704889142,0.2124018858065343,0.0191361508007915,0.1504742377842322,0.1982392867893519,0.1669150863890204,0.0070713557992208,0.0006549612454047,0.0050107921182149,0.2076746519185542,0.2069589194311099,0.0172269183953474,0.1505738553436577,0.0830469001079279
7.824,0.0875407778117832,0.0073326158634481,0.0006264674525429,0.0044938777038552,0.0948622817008318,0.2182269908097473,0.2172458306674442,0.0206704759376673,0.1264324931047173,0.1490937033283227,-0.7219743147001477,0.0072328148479753,0.0007035634170212,0.004210202020387,0.2196511804850463,0.218812522296248,0.0191760573327348,0.1311321067985047,0.0874135992643181
7.858,0.0918331623840158,0.0074341632984433,0.0006657940150242,0.0042923845722325,0.0990724837212188,0.2185889933505573,0.2175171060210493,0.0216207447197724,0.1248199883126146,0.0108709471714717,-0.048423567330411,0.0072418015068504,0.0007350318870267,0.00415650561081,0.2195753934493103,0.218655232280012,0.0200809064783788,0.1251567542531471,0.0915813191809479
7.892,0.0961479698643416,0.0074366830315437,0.0006985914444769,0.0043148074803257,0.1032289893320289,0.2250718400153874,0.2238736965578146,0.0231926962091881,0.1259535936353875,0.1946800800249269,0.0340422018850717,0.0074533515343285,0.0007879585859572,0.0041942546680584,0.2196546013410125,0.2186453273858773,0.0210324678200548,0.129671570893166,0.0958993824916903
7.926,0.0994627831438621,0.0074295787700968,0.0007292254752412,0.0033148132795205,0.1074232440000873,0.218189564402637,0.216931847700649,0.0233935774817559,0.098923550612238,-0.2066749433258369,-0.8117130036981848,0.0072225333185722,0.0007909126238479,0.0032941542353875,0.2186754085519642,0.2176002304492447,0.021658116580257,0.0992662374066203,0.0992049481973308
7.96,0.1027695576683744,0.0074060278972079,0.0007489795386693,0.0033067745245123,0.1107173982354749,0.2178480280082877,0.2165141635790964,0.0240703194150804,0.0970503244152853,-0.0102563481786578,-0.0562530389475271,0.0072086128033949,0.0008132003449568,0.003231775803029,0.2187306791398947,0.2175855606635988,0.0223524895192213,0.0950629409260067,0.1023705441301668
7.994,0.1065632462907051,0.0073549082535846,0.0007755788025866,0.0037936886223306,0.1139491740385039,0.2243255428565312,0.2228707501257473,0.0255064289202563,0.1016231080763142,0.1945199654127158,0.13732083066153,0.0074201435119593,0.000861929947002,0.0033840494989412,0.2167154024257539,0.2154964835469812,0.0229528043480988,0.1123323932764912,0.106111212826274
8.028,0.1080312792169017,0.0069963111745505,0.0007572645638557,0.0014680329261965,0.1173332235374451,0.1727844297952791,0.171596424685595,0.0202268686355711,-0.0413978189019183,-1.5477811730105713,-4.294922732079057,0.0057146224956489,0.0006696235727779,-0.0013785473694338,0.2007698554765258,0.1996016871739128,0.0216264038941401,0.0545217980342128,0.1079267887008133
8.062,0.1110901012065319,0.0066423746576649,0.0007280920068895,0.0030588219896302,0.1159546761680112,0.1944718547275679,0.1931659345494746,0.022499422454996,0.1000185732817264,0.6512740219906541,4.246738504013354,0.0064311650068303,0.0007599499942564,0.0033306184902814,0.1943700130800313,0.1931862254912958,0.0214192498738334,0.0749489299939489,0.1104225880696118
8.096,0.114883883194723,0.0066144699391557,0.0007502318932418,0.003793781988191,0.1192852946582927,0.2004305794330072,0.1990063079573405,0.0238517623046847,0.1120294725868495,0.1789406818450245,0.3606876668205134,0.0066254120685072,0.0008066318467373,0.003730581437142,0.1954121142012975,0.194140252724458,0.0222588555120087,0.1120849192461094,0.1141550158805072
8.13,0.1202208810627075,0.0070318362837196,0.0008297208634204,0.0053369978679845,0.1230158760954348,0.2180718141910634,0.2164238638464444,0.0267586864841562,0.073218709719962,0.5297668095512366,-1.165488374381006,0.0072058200277699,0.0008998589461713,0.0024381830336747,0.2126638570476499,0.2111533618538353,0.0253016574991941,0.1532237892909814,0.1192573680638969
8.164,0.1233301132710192,0.0073754828222689,0.0009040678134406,0.0031092322083116,0.1254540591291096,0.2178285472360799,0.2161166229354955,0.0272558485822389,0.0838531932882268,-0.0073053139634701,0.3193538609088543,0.0071954057806275,0.0009176759332603,0.0027923113364979,0.219104374519937,0.2174586252603188,0.0268043510211503,0.1016770650756444,0.1226432143309159
8.198,0.1262848119859077,0.0073629570613904,0.0009244219808481,0.0029546987148885,0.1282463704656075,0.2245790024711592,0.222734692155354,0.0287225566654605,0.0875235484336416,0.2027163734258049,0.1102208752376801,0.0074156596296569,0.0009672783871856,0.0029145341628402,0.2193120226668363,0.2175855963436245,0.0274640046243839,0.0875200108237027,0.1255576306913452
8.232,0.1288056845005588,0.0070262752340541,0.0009001405234714,0.0025208725146511,0.1311609046284478,0.2068072763048667,0.2050309533309051,0.02704732350636,0.0662366242133359,-0.5336854704592324,-0.6392469735827517,0.0068265306884431,0.0009082139871492,0.002205679586304,0.2081102222504194,0.2064049072245903,0.0265871938859145,0.0765111081310134,0.1281054505921079
8.266,0.1314856092957046,0.0070152983364106,0.0009175608004559,0.0026799247951457,0.1333665842147519,0.2068498582393124,0.2050130007105936,0.0275051521221348,0.0779089779370445,0.0012787367701411,0.3505211328441022,0.006825735903748,0.0009247854987573,0.0025943689653035,0.2081371907535608,0.2063619624835311,0.0271261979409171,0.0779219139222068,0.1307002503257174
8.3,0.1343400550929458,0.0069814082340469,0.0009333373896101,0.0028544457972412,0.1359609531800555,0.2132506432820524,0.2112826679781455,0.0289045164679473,0.0796267740613288,0.1922157670492475,0.0515854691977262,0.0070344271978623,0.0009718565676964,0.0026515715762422,0.2082640279346297,0.2064148907394354,0.0276911215479465,0.0797682147873643,0.1333565318781366
8.334,0.1369508023123445,0.0066858175284856,0.0009106191108797,0.0026107472193987,0.1386125247562977,0.19500856111265,0.1931381668501481,0.0269441535957337,0.0460518084724755,-0.5478102753574278,-1.0082572248904895,0.0064308092525299,0.0009021800398439,0.0015335252221334,0.1974833015574532,0.1956515224530357,0.0268353527243682,0.0886447497581933,0.1363084020450845
8.368,0.1390093597066497,0.0066333843540034,0.0009199954965573,0.0020585573943052,0.1401460499784312,0.1954997085376383,0.1935829522476027,0.02730891131854,0.0580483327099639,0.0147491719215711,0.3602559831077586,0.0064454281384169,0.0009156252329719,0.0019330094792417,0.1970601503197253,0.1951792618328812,0.0271617119196174,0.0590521355962768,0.1382748381604405
8.402,0.1406431632673597,0.0066454103488799,0.0009356341150099,0.00163380356071,0.142079059457673,0.2012844245002657,0.1992562298806757,0.0285021823750822,0.0586364341965963,0.1737151940728929,0.0176607053042784,0.0066343003294119,0.0009556089397859,0.0019525932587466,0.1965966172902664,0.1946654068686906,0.0274883484156943,0.0602361604725873,0.1402807023041777
8.436,0.1405966422115712,0.0068488436151423,0.0009730390796573,-4.652105578850652e-05,0.1440316527164197,0.2058025276285539,0.2036715167032187,0.0295396963781313,0.0426944480100892,0.1356787726212666,-0.4787383239191327,0.0067815586374027,0.0009885019276708,0.0014217251187359,0.2044849875662605,0.2024687546321076,0.0286446074802413,0.0079050849624312,0.1405439416334266
8.47,0.1420257344170361,0.0069821002243937,0.0009909809398578,0.0014290922054648,0.1454533778351556,0.2064928685897351,0.2043123647121522,0.0299292900708672,0.0469317649889013,0.0207309597952329,0.1272467561204832,0.0068028188363104,0.0010019705247334,0.0015628277741304,0.2079629073120888,0.2058880797261305,0.0293030620308351,0.0249780704496859,0.1413757113794012
8.504,0.143283301343594,0.0069371045548647,0.0010014391837421,0.0012575669265578,0.147016205609286,0.2125551605956904,0.2102622363417342,0.0311366065015513,0.0489197013280838,0.1820508109896483,0.0596977879634373,0.0070008834453327,0.0010425609484478,0.0016290260542251,0.2070718807921986,0.2049567965329647,0.0295207616731577,0.050286539106942,0.1430502531316623
8.538,0.1436334898536649,0.0066828857071925,0.0009662501587316,0.0003501885100709,0.1486452316635113,0.1945300512201307,0.1923848953052317,0.0288095971180039,0.0379396991878391,-0.5412945758426346,-0.3297297940013429,0.006405807991,0.0009634148459002,0.001263391982955,0.198410483266319,0.1963817934561413,0.0283003722400195,0.0022026381469437,0.1431236009819556
8.572,0.1453385506984489,0.0065821291695689,0.0009578665351158,0.0017050608447839,0.1499086236464663,0.1947134426549195,0.1925296786125676,0.0290800206993061,0.0442018445793538,0.0055072502939594,0.1880524141596028,0.0064105219966433,0.0009730913742826,0.0014719214244924,0.1958839730141417,0.1938396554929643,0.0282262084271669,0.0443348856711174,0.1445999526748038
8.606,0.1475075868368045,0.0066656790907639,0.0009817392851819,0.0021690361383556,0.1513805450709587,0.2004844349967517,0.1981916608501777,0.0302336608007513,0.0486326622418743,0.1733030733282944,0.1330575874630774,0.0065989628367433,0.0010121333996857,0.0016194676526544,0.1959740639500018,0.193883167407351,0.0285508517766544,0.0482667089715421,0.1462072340835561
8.64,0.1509567327936724,0.0071435581821841,0.0010758018401419,0.0034491459568678,0.1530000127236132,0.2179720973047216,0.2154258154468683,0.0332197718606078,0.0244355858956151,0.5251550242633599,-0.7266389293170936,0.0071732273043094,0.0011091465513826,0.0008137050103239,0.2123978383871811,0.2100254289012402,0.0316569260415029,0.1019702808979833,0.149602844437459
8.674,0.1522605322447082,0.0073767988817099,0.0011281499159074,0.0013037994510358,0.1538137177339372,0.2178269435213613,0.215255272942621,0.0333728151982423,0.0360265251864466,-0.0043589724732831,0.3480762549799267,0.0071673307573536,0.0011156237774668,0.0011996832887086,0.2195318383060699,0.2170147259628175,0.0331487065407627,0.0592846848264454,0.1515770244421796
8.708,0.15346300799074,0.0072514872674509,0.0011181460302125,0.0012024757460317,0.1550134010226458,0.2245486239057921,0.2218561650607979,0.0346688119568708,0.0386518582868786,0.2018522637967224,0.0788388318448038,0.0073870637346779,0.0011592354980095,0.001287106880953,0.2197095935320731,0.217147563964494,0.033455058725322,0.0386507347310793,0.1528640939087245
8.742,0.1539820258630553,0.0070046760891306,0.0010850004934904,0.0005190178723153,0.1563005079035989,0.2066987340703981,0.2041790605386202,0.0321757347060113,0.0068974899810064,-0.5360327277896115,-0.9535846338099772,0.00679903816604,0.0010722419321399,0.0002296864163675,0.2085181759499913,0.2060633325541176,0.0319019227978914,0.0220006579582082,0.1535967158187329
8.776,0.1546732611038124,0.0070091400369254,0.00109011758516,0.0006912352407571,0.1565301943199664,0.2068103709265343,0.2042819368235195,0.0322400342804139,0.0201858258605079,0.0033524581422287,0.3990491255105577,0.0068022257097131,0.0010758885122653,0.0006721880011549,0.2086212807281285,0.2061437022831926,0.0320564000103414,0.0202045137584241,0.1542695261268884
8.81,0.1558850769133493,0.0068962077206096,0.0010786219077277,0.0012118158095369,0.1572023823211213,0.2131774186234585,0.2105487557750048,0.0333741404767025,0.0196642319271779,0.1912026335412689,-0.0156634814813818,0.007010907700046,0.0011136637786291,0.000654818923175,0.2087613350228679,0.2062602953711474,0.0322177831940234,0.0203619323756189,0.1549475784749965
8.844,0.1563720370894105,0.006642119844207,0.001044017369396,0.0004869601760612,0.1578572012442963,0.1949678531995595,0.1925437015824829,0.0306494169954462,-0.0034726291925467,-0.5468337965134854,-0.6948006342259685,0.0064117628889683,0.0010202634811944,-0.0001156385521118,0.1979859938033583,0.1955757862588175,0.0307987917222208,0.0374538639569708,0.1561947921447636
8.878,0.156674123133317,0.0066226509748228,0.001047306457409,0.0003020860439064,0.1577415626921845,0.1955014361432953,0.1930742028343195,0.0307109709059,0.0099585924363893,0.0160235118239,0.4033399888569401,0.006429199890211,0.0010237500111518,0.0003316211281317,0.1972349182011208,0.1948252767295364,0.0307363710457557,0.008387555345255,0.1564740977377606
8.912,0.1558784937270241,0.0066776299169237,0.0010553236141127,-0.0007956294062929,0.1580731838203163,0.2013220701646974,0.1988120726559079,0.0316912559180184,0.0081588437470465,0.1747938144565193,-0.0540465071874708,0.0066202971588669,0.0010562270593213,0.0002716894967766,0.1966469237459394,0.194237107131729,0.0306913478335266,0.0072056476402435,0.1567140458041807
8.946,0.1542704085703971,0.0069022501609634,0.001080150549636,-0.0016080851566269,0.1583448733170929,0.2057971737840004,0.2032225735221767,0.0324509221518518,-0.0092511757888103,0.1343874960751653,-0.5228234094851921,0.0067674765897304,0.0010795824032697,-0.0003080641537673,0.2047595919773291,0.2023009118875129,0.0316359219275019,-0.0477446357737728,0.1551241494329141
8.98,0.1540950146996937,0.0069976064171091,0.0010867095031588,-0.0001753938707033,0.1580368091633255,0.2065266693873212,0.2039529655851809,0.0325031228842687,-0.0046109755188893,0.0219067748744961,0.13934535345108,0.0067917153685505,0.0010818417038041,-0.000153545484779,0.2085440014835903,0.2060689923749706,0.0320339029209992,-0.0272123642013487,0.1542179777050092
9.014,0.1524268149975112,0.0068705322646724,0.0010688345506268,-0.0016681997021825,0.1578832636785465,0.2125916971684067,0.2099475467106751,0.0334253995505282,-0.0044108761512033,0.1821329663989656,0.0060089900206006,0.0069913335297661,0.0011125617524226,-0.000146882175835,0.207750136053548,0.2052884862584973,0.0318866185093752,-0.0037069413068856,0.1540945365594899
9.048,0.1452046790657771,0.0064034588048429,0.0009653099380226,-0.007222135931734,0.1577363815027115,0.1721116767598733,0.1699749773213311,0.0270358347699507,-0.0081700349155389,-1.2156162284844874,-0.1128876505806483,0.0056602879338423,0.0008995309358031,-0.0002720621626874,0.1942813570147759,0.1920710248456137,0.0292227154497731,-0.0933062882675376,0.1509874371601809
9.082,0.1390387622851593,0.0060642135653155,0.000868026207198,-0.0061659167806178,0.157464319340024,0.1605883042164858,0.1586015200514295,0.025182559212729,0.0252509970132734,-0.3460472235251494,1.0036345924568284,0.0052810763021846,0.000840806687947,0.000840858200542,0.1827975403878776,0.1809202739633089,0.0261303509524645,-0.2267005817001,0.1434383077895676
9.116,0.1371795351357258,0.0060001158366993,0.00083165434698,-0.0018592271494334,0.1583051775405661,0.1654382587163821,0.1633695991173825,0.0260804818079398,0.025795516226068,0.1456442792761637,0.0163519283121499,0.0054398328030534,0.0008708237924862,0.000858990690328,0.1727549980294457,0.1711088683630871,0.0237916899706072,-0.1585570105084222,0.1381583593396371
9.15,0.1398567007421805,0.0066110743645071,0.0009191943630298,0.0026771656064546,0.1591641682308941,0.2058009321125239,0.2031996292673386,0.0326180061315802,-0.0081353993878838,1.2120922941784325,-1.0189464148333889,0.0067666932409943,0.0010852721269745,-0.0002709087996165,0.1900237522408506,0.1882331090271702,0.0260254314403743,-0.0230539990160706,0.1373906611724019
9.184,0.1424357867924177,0.0071784964587853,0.0010231273485676,0.0025790860502372,0.1588932594312776,0.2179967809928753,0.2152506761198402,0.0344926507129748,-0.0002505794453614,0.3662417081186618,0.2367813796553252,0.0071678507631156,0.0011485849972507,-8.344295530537948e-06,0.2090699967677749,0.2070057662657761,0.0293065910879492,0.0975520499056174,0.140639144434259
9.218,0.1428303250843426,0.0071490631094996,0.0010273954352778,0.0003945382919249,0.158884915135747,0.2245570534342485,0.2217286052971883,0.035528802963731,0.0018505461398089,0.1970051784196162,0.0630968644195342,0.007383524507787,0.0011833465610311,6.162318645563936e-05,0.2199944519545926,0.2177656263397827,0.0312360508970589,0.0548929780752204,0.1424670806041638
9.252,0.1435090258210014,0.0070145094353659,0.0010116007082457,0.0006787007366588,0.1589465383222027,0.2067802808510175,0.2041737267365967,0.0327287925123304,0.0151826944717073,-0.5338370145114435,0.4003648147717221,0.006798707833573,0.0010915966100534,0.0005055837259078,0.2084940934669326,0.2063685435615572,0.0296953066810173,0.0134076691496279,0.1429135559868465
9.286,0.1441947544947464,0.0070190178678939,0.0010164933508012,0.0006857286737449,0.1594521220481105,0.2067269298918332,0.2041044793260782,0.0328235443170512,0.0203402687378658,-0.0016021309064336,0.1548821100948506,0.0067963070002085,0.0010953348771911,0.0006773309489709,0.2085359685446284,0.206389833348471,0.0298410265781285,0.0203336745923501,0.1435906673507717
9.32,0.1451190462236796,0.0067921970209119,0.0009895709211877,0.0009242917289332,0.1601294529970815,0.2131147274887489,0.210388276378295,0.0339802918641653,0.0199823633970301,0.1918257536611324,-0.0107479081332045,0.0070055510906413,0.0011338839685158,0.0006654127011211,0.2087099567647141,0.2065415728569901,0.030007078073172,0.020522037858401,0.1442740512114565
9.354,0.1450582158118015,0.0066362409722837,0.0009689297576481,-6.0830411878126656e-05,0.1607948656982026,0.1951683739879094,0.1926507673332927,0.0312470166732441,-0.0071513055999152,-0.538929534559744,-0.814824894803166,0.0064153929886711,0.001039770406572,-0.0002381384764771,0.1970133284705443,0.1949430772010018,0.0284859306754548,0.0247265087741497,0.1450974439536357
9.388,0.1449543742040307,0.0066374757112355,0.0009698940101513,-0.0001038416077707,0.1605567272217254,0.1954889629957566,0.1929746687185984,0.0312523900862559,-0.00094682801263,0.0096272975329482,0.1863206482668221,0.0064260714750278,0.0010406119218451,-3.1529372820582324e-05,0.1973198271158074,0.1952475977167615,0.0285217418620559,-0.001308129928533,0.1450538832270155
9.422,0.1433832181698356,0.0067348595556266,0.000983581095256,-0.0015711560341951,0.1604199037532629,0.2182223780726017,0.2154204677752114,0.0348572568509142,0.1924995705191505,0.5059279110234133,5.8757223835813965,0.0071697305410772,0.0011837401793907,0.0064102356982877,0.2015843310315451,0.1995170356633197,0.0287957461712166,-0.0483098803128262,0.1433374674812898
9.456,0.1427583419385344,0.0068442773357473,0.0009869342242595,-0.0006248762313011,0.1668301394515506,0.2182464808001279,0.21521636824172,0.0362414296418475,0.1922617175214045,0.0007238056314167,-0.0071427326650461,0.0071627911789864,0.0012297826635212,0.0064023151934627,0.2057296854190592,0.2036368635893068,0.0292699718164384,-0.0173911574401023,0.1427583419385344
9.49,0.1451288255635317,0.0070370395675516,0.0010192414795937,0.0023704836249972,0.1732324546450134,0.2247244547142486,0.2213609463891658,0.0387351514816871,0.1997843192782311,0.1945337511747972,0.2259039566614583,0.0073669727182095,0.0013144008633872,0.006652817831965,0.2127558364362057,0.2105191946105926,0.0307687282508869,0.0711856944443628,0.1451288255635317
9.524,0.1504580790561973,0.0071059666674222,0.0010604082001526,0.0053292534926655,0.1798852724769785,0.2063802367544236,0.2030501318822002,0.0369248705540461,0.2112763149571444,-0.5508774162109608,0.3451049753427423,0.0067571865242339,0.0012533825445579,0.0070355012880729,0.210159026720812,0.2077901693863096,0.031465250970677,0.1548772162893008,0.1502862368659654
9.558,0.1570074117403801,0.0070019398379383,0.0010832169299689,0.0065493326841827,0.1869207737650514,0.2063781829350558,0.2027833057116236,0.0383521227084178,0.2135779804820642,-6.167625729372253e-05,0.0691190848324267,0.0067480838699703,0.0013011369280457,0.0071121467500527,0.206238176658528,0.2037156302631829,0.0321578528186867,0.1885408958121973,0.1565646486965116
9.592,0.1646700503850534,0.006895865458748,0.0011171749725353,0.0076626386446733,0.1940329205151041,0.2123887871707228,0.2084032262846318,0.0409523160518079,0.2246101195500089,0.180498625695707,0.3312954675058485,0.0069346609314846,0.001389661887556,0.0074795169810153,0.2062798835334686,0.203503654151788,0.0337291134993317,0.2307588668700921,0.1642489189632857
9.626,0.1684883720052509,0.0065157290569344,0.0011009179736723,0.0038183216201974,0.2015124374961195,0.1835701819713815,0.1798556360488274,0.0367418275331786,-0.0126855927435307,-0.8654235795598001,-7.125997366172363,0.0059894492818534,0.0012222458625115,-0.0004224302383595,0.1871511614799287,0.1845048293500944,0.0313612051710208,0.1236313346910177,0.1683658424084965
9.66,0.1745823571123488,0.0064270672886284,0.0011092055258841,0.0060939851070979,0.2010900072577599,0.1947333667374172,0.1908093812535377,0.0388955543286316,0.2144240635924359,0.3352307737548283,6.820109799878878,0.00634927250188,0.0013179040213806,0.0071403213176281,0.1947661057671101,0.1918348924492124,0.0336631845594592,0.1605258525912399,0.1737113532997848
9.694,0.1819954650574761,0.0065069694838044,0.0011714770196725,0.0074131079451273,0.208230328575388,0.2007875110557804,0.1964501571876536,0.0415085573938838,0.2223697974302594,0.1818061356865819,0.2386106257604659,0.0065366109178255,0.0014064517019785,0.0074049142544276,0.1947809473672452,0.1915948150956112,0.0350862406900496,0.2224948294409058,0.181120431120167
9.728,0.1887753223889826,0.0061683886440255,0.0011560242044036,0.0067798573315064,0.2156352428298157,0.1836403963231485,0.1793874077228728,0.039293168772585,0.1876886248809509,-0.5149283703493068,-1.041476653132389,0.0059694710500347,0.0013271295592068,0.0062500312085356,0.1835696292261871,0.1803413565195674,0.0342754125127921,0.2011412081886517,0.1878184333528491
9.762,0.1952759570056531,0.0061307608837219,0.0011905098283435,0.0065006346166704,0.2218852740383514,0.1836830206523701,0.1791799014703737,0.0404229512164337,0.1894489005704139,0.0012800098865341,0.0528611318157071,0.0059624033343446,0.0013649041749113,0.0063086483889947,0.1837387659282244,0.1802873977568776,0.0354455683390778,0.1895333587596807,0.1941298941995465
9.796,0.2015668822550916,0.006129918003509,0.0012313874311851,0.0062909252494385,0.2281939224273461,0.1893752252453998,0.1844659664157334,0.042840205077187,0.1944846278944669,0.1709370748657555,0.1512230427643525,0.0061380523097383,0.0014464681919492,0.0064763381088857,0.1838548603744801,0.1801676220983753,0.0366365613934575,0.1946528122187257,0.20061183284643
9.83,0.2050330159981724,0.0060071415177875,0.001240364282491,0.0034661337430807,0.2346702605362319,0.1720222406796763,0.1673072944353638,0.0399990064523477,-0.0055539980375614,-0.5211106476193238,-6.007165943904756,0.005571454255801,0.0013314591917264,-0.0001849481346507,0.1788197753392901,0.1751023333172642,0.0362723712933669,0.1095722837504389,0.2042605898953197
9.864,0.2118219595599036,0.0057464859491613,0.0012102242979109,0.0067889435617312,0.2344853124015811,0.1722686322031077,0.1675543381017969,0.0400253097976559,0.1985100535079444,0.0073991448477896,6.128049595961137,0.0055751117216351,0.0013512820528703,0.0066103847818145,0.1721108612987354,0.1683214016565761,0.0359173262000125,0.1793326427173296,0.2102323668978067
9.898,0.2187260150039785,0.0056946100820942,0.0012470439240169,0.0069040554440748,0.2410956971833956,0.177551091056001,0.1724157705043583,0.0423933015530145,0.2018684458971069,0.1586323979847854,0.1008526242991757,0.0057366551433164,0.0014309915739402,0.0067222192483736,0.1718993063722562,0.1678708406025102,0.0369966539928873,0.2008296518614689,0.2169199943047937
9.932,0.2274387218012246,0.0054495510082683,0.0012347237734499,0.0087127067972461,0.2478179164317693,0.1605980115078554,0.155691737545079,0.039392945567341,0.20292523911009,-0.5091014879323017,0.0317355319214128,0.0051800614988866,0.001329299014783,0.0067574104623659,0.1634524301840886,0.1593205808758235,0.0365191654131706,0.2524227809866461,0.225325672911649
9.966,0.2342240131859232,0.0053166742266037,0.0012482271082027,0.0067852913846986,0.2545753268941353,0.1608723449760853,0.1556874824286186,0.0405131977649651,0.1973813392228884,0.0082382422891882,-0.1664834800961419,0.0051799203689688,0.0013661246585234,0.0065727985961221,0.1600857148581105,0.1557874569936377,0.03684703984159,0.2080302782829864,0.2322530811784724
10.0,0.240901281398479,0.0052691936144011,0.0012761884319087,0.0066772682125557,0.2611481254902575,0.1655608894787356,0.159947411847273,0.0427461526730648,0.2004213232357131,0.1407971322117207,0.0912908111959355,0.005321457290636,0.0014412171753283,0.0066740300637492,0.1604455775525256,0.1558877392575018,0.0379709903129825,0.2003988647096259,0.238926363373303
10.034,0.2467517987914373,0.0049412207824297,0.001227259265095,0.0058505173929582,0.2678221555540067,0.14942960202914,0.1441023634813199,0.0395438339274876,0.1672387579747465,-0.484423046534405,-0.9964734312602584,0.0047949154315054,0.0013301711206092,0.005569050640559,0.1490650161666346,0.1446164937724963,0.0361448305253816,0.1799345266746441,0.2449181831115686
10.068,0.2524496469913621,0.0049133295122651,0.0012513627740178,0.0056978481999248,0.2733912061945658,0.1492595490764144,0.1437161710683448,0.0402998159294656,0.1657915784548988,-0.0051066952770449,-0.0434588444398712,0.0047820179208315,0.0013551941695635,0.0055208595625481,0.1491193856771845,0.1444676564352368,0.0369552084130407,0.1655943283868272,0.25043247424685
10.102,0.2584109536968025,0.0049037865930454,0.0012780844342741,0.0059613067054403,0.2789120657571139,0.1537564345327514,0.1478145980379021,0.0423306717064318,0.172317027536572,0.1350416052954079,0.1959594318820784,0.0049181529146687,0.0014237324568708,0.0057381570169678,0.1490550589702777,0.1441910236275912,0.0377671723837038,0.1722957420996834,0.2561699224587694
10.136,0.264490183192601,0.0048233506076047,0.001290264090469,0.0060792294957984,0.2846502227740818,0.1488818146310648,0.1428908009450426,0.0418092541565018,0.1914873313699331,-0.1463849820326309,0.5756847998006354,0.004753790694907,0.001407415667583,0.0063765281346187,0.1481405616130731,0.1430642087050548,0.0384481232654236,0.1914109201567598,0.2625439060999895
10.17,0.2689223968912498,0.0045921009265956,0.0012561191451707,0.0044322136986488,0.2910267509087005,0.1378210142572661,0.132025608737832,0.039545803927932,0.1563601014714734,-0.3321561673813438,-1.054871768722516,0.0043930027808883,0.001328320905295,0.005206791379,0.1397462775430214,0.1347962031974598,0.0368646943657519,0.1325214443019099,0.2669568701952431
10.204,0.2745127730308159,0.0045271008063838,0.0012580680221829,0.005590376139566,0.2962335422877006,0.1418508433384586,0.1356722141769394,0.0414090818077221,0.1629325373617207,0.1210158883240993,0.1973704471545738,0.0045141199278346,0.0013911779344633,0.0054256534941453,0.1378045686789102,0.1327399610538593,0.0370162381692194,0.1500601590673731,0.2719538734921867
10.238,0.280969810946533,0.0043821534008983,0.0012504388706225,0.0064570379157171,0.3016591957818459,0.1373869057184551,0.1311831791742851,0.0408183214331395,0.1977539353102493,-0.1340521807808848,1.045687626081942,0.0043638909929675,0.0013736294996611,0.0065852060458313,0.1355094401845235,0.1302907252470711,0.0372442652460103,0.1944728477991029,0.2784298193238968
10.272,0.2866974161614666,0.0040980582226486,0.0011931717989302,0.0057276052149335,0.3082444018276772,0.1262778305804083,0.12032606123684,0.0383109577447829,0.1620207321774717,-0.3336058600014051,-1.0730691631464748,0.0040033951449439,0.0012865631388444,0.0053952903815098,0.1246112544692069,0.1196209752641427,0.0349111302773883,0.1661052623314996,0.2839611245595357
10.306,0.2921093187976195,0.0040977354325155,0.0012201797111288,0.0054119026361528,0.3136396922091871,0.1297986817985471,0.1234667055458687,0.0400458539463229,0.1713632543118008,0.1057312678119752,0.2805562202501213,0.0041076123668783,0.0013452559449703,0.0057063963685829,0.125561419240105,0.1203289735869908,0.0358693199976062,0.1725507157977394,0.2897070633956005
10.34,0.2971799671133747,0.004095003393989,0.001242180535969,0.0050706483157552,0.3193460885777701,0.1260212159530165,0.1196496984311351,0.039563828626856,0.1478162968356629,-0.1134374127786974,-0.7071158401242591,0.0039810745976802,0.0013272815155448,0.0049222826846275,0.1258447316964723,0.120421571205973,0.0365450637438472,0.1482197110235204,0.2946427797726837
10.374,0.302261463775275,0.0040905085916096,0.001263140923699,0.0050814966619002,0.3242683712623976,0.126072375438464,0.1195019986457931,0.0401685967934887,0.1478151770836561,0.0015363208843087,-3.3626186391578326e-05,0.0039761066485364,0.0013474080285237,0.0049222453968857,0.1259158105598898,0.1203079378458991,0.0371590021424329,0.1479807383067535,0.2995705383582986
10.408,0.3075196273288596,0.0039778514548145,0.00125128767308,0.0052581635535846,0.3291906166592834,0.129950879400285,0.1229730770895798,0.0420101579148147,0.1524827345759024,0.1164715904450764,0.1401668916590476,0.0040914323068167,0.0014093342723623,0.0050776750613775,0.1259801242802815,0.1201788398822255,0.0377893921390325,0.1526565610911652,0.3046540018426344
10.442,0.3121672314001363,0.0037104272469514,0.0011860467534669,0.0046476040712766,0.334268291720661,0.1147715080377943,0.1084189762167745,0.0376540124472276,0.1313495596503699,-0.4558369778525723,-0.634629877643619,0.003607596509581,0.001261775184525,0.0043739403363573,0.1145315167971634,0.1090865973869282,0.0348938764026175,0.148165022067739,0.3095878970774901
10.476,0.3167584167519158,0.0037055832146843,0.0012040274707623,0.0045911853517795,0.3386422320570183,0.114738659636204,0.1082222604097944,0.0381169564224023,0.1341963216832489,-0.0009864384861953,0.0854883493357067,0.0036009514928458,0.001277347471712,0.0044687375120521,0.114600518709291,0.1089949940335748,0.0354029682944743,0.1343744502827485,0.3140625662719056
10.51,0.3210007584225498,0.0037039718066804,0.0012214608613315,0.0042423416706339,0.3431109695690705,0.1182257497406374,0.1113346825446239,0.039773312213388,0.1371833889996675,0.1047174205535536,0.0897017212137708,0.0037044050639567,0.0013329198419735,0.0045682068536889,0.1146091568821471,0.1088401355998746,0.0359038121073168,0.1373481670663606,0.3186362602352154
10.544,0.3249264095150264,0.0036995361374763,0.0012368400152095,0.0039256510924766,0.3476791764227595,0.1147172587723242,0.1078532648901932,0.0390860935981356,0.1156329612719915,-0.1053600891385331,-0.6471599918220999,0.0035889971978809,0.0013084832168243,0.0038505776103573,0.1147429731168979,0.1088273302073549,0.0363670466170197,0.1161833147504496,0.3225051646164054
10.578,0.3287968264148274,0.0036937159379168,0.0012541908679884,0.0038704168998009,0.3515297540331167,0.1146917846277027,0.1076780453329419,0.0394923285507991,0.1136170123120375,-0.0007649893279723,-0.0605390078064271,0.0035831807864631,0.0013218793232983,0.0037834465099908,0.1147520399227079,0.1086970958765212,0.03678276790065,0.113985556472549,0.3263008836469413
10.612,0.3320268920585493,0.0036829735973042,0.0012646575936468,0.0032300656437219,0.3553132005431076,0.1181503543889645,0.1107703970158032,0.041102620198708,0.1153638797943634,0.1038609537916447,0.0524584829527293,0.0036860142579893,0.0013758040302163,0.0038416171971523,0.1143651805953912,0.1081901820952121,0.0370712696143696,0.1144236852134088,0.3301111923645478
10.646,0.3347392947106695,0.0036681550982089,0.0012695365410662,0.0027124026521201,0.35915481774026,0.1146479496263942,0.1073327483831762,0.0402968172198501,0.0904601296223132,-0.1051773201973066,-0.7478603655270316,0.0035721522129227,0.0013472700729538,0.003012322316423,0.1138265161425284,0.1075788394557848,0.0371923255321813,0.0824936118755305,0.332858229640003
10.68,0.337725556015909,0.0036862773888497,0.0012892587970863,0.0029862613052395,0.362167140056683,0.1145433461813228,0.1071130566470463,0.0405828935654053,0.0875356925011349,-0.0031412445967376,-0.0878209345699199,0.0035648882741289,0.0013566118254695,0.0029149385602877,0.1150193536221124,0.1086012201011365,0.0378843859682723,0.083552135456914,0.3356405157507182
10.714,0.3410433118204137,0.0037398322206316,0.0013218040796574,0.0033177558045047,0.3650820786169708,0.1180544480490966,0.1102740059144462,0.0421485032208444,0.0891599806538432,0.1054384945277409,0.0487774220032515,0.003670033527711,0.0014089993427551,0.0029690273557729,0.1148537991980246,0.1083327226282087,0.0381499200284842,0.0886761816227311,0.3385934325987552
10.748,0.3478397903468075,0.0037343729199972,0.0013363044411222,0.0067964785263937,0.3680511059727437,0.1376257569456317,0.1284090046953992,0.0495174362017567,0.3551383097055895,0.5877269938899439,7.987337208761151,0.004266167834851,0.0016741819607571,0.0118261057131961,0.1211145738720803,0.1140875494629898,0.0406542871262729,0.111737396314478,0.3423142878960273
10.782,0.3560707074219414,0.0036237979330584,0.0013291677536805,0.0082309170751339,0.3798772116859399,0.1145948465698647,0.1064253998142937,0.0424925068069485,0.2410547623141865,-0.6916189302032145,-3.4259323540961875,0.0035382466725931,0.0014292138858243,0.0080271235850624,0.1134410413181758,0.1065717962313929,0.0388757264030721,0.2243327731954908,0.3497845692434371
10.816,0.3616304022975058,0.0036366770052826,0.001365632864774,0.0055596948755643,0.3879043352710023,0.1181714519022508,0.109391759207528,0.0446982668810344,0.2469238908725333,0.1074055655371189,0.1762501068572633,0.0036365830992877,0.0015034166752088,0.0082225655660553,0.1136224439822976,0.1064185502329551,0.0398139666803793,0.2468408561611817,0.3580043697536045
10.85,0.365768595997327,0.0036482649752276,0.0013881147560379,0.0041381936998212,0.3961269008370577,0.1147504970203038,0.1058644867862351,0.044276257790082,0.1225525471637687,-0.1027313778362459,-3.734875186449389,0.0035222671256813,0.0014815933645715,0.0040809998205534,0.114781430691798,0.1073229085664966,0.0407009843674994,0.1344475274451696,0.3624814724175286
10.884,0.3699117347473712,0.003645221166548,0.001404249240179,0.0041431387500442,0.4002079006576112,0.1148605715481351,0.1057842907658767,0.0447508069594806,0.1207119011313683,0.0033055413763151,-0.0552746556276405,0.0035196103007747,0.0014972825222545,0.0040197063076745,0.1148745196782252,0.1072454181521787,0.0411652226602416,0.120656782832971,0.3664993432858666
10.918,0.3716632173364608,0.0036578402068787,0.0014236868147328,0.0017514825890895,0.4042276069652858,0.1184238239927237,0.1088796288344098,0.0465771243631544,0.1245223914256214,0.1070045779155741,0.1144291379655592,0.0036224634371557,0.001558535793067,0.0041465956344731,0.114950877414999,0.1071450675601467,0.0416369873551115,0.1244546697459619,0.3706436837884071
10.952,0.3725519892780095,0.0036712961811995,0.0014317686678285,0.0008887719415486,0.408374202599759,0.1149041637126324,0.1054553264275515,0.0456304828657115,0.0279093891274501,-0.1056955039066441,-2.9012913603054447,0.0035109537239044,0.0015211314184907,0.000929382657944,0.1159097404937529,0.1079905009008845,0.0421084273810503,0.0345089853274914,0.3717928329998126
10.986,0.3734768430313511,0.003669859318294,0.0014350551509917,0.0009248537533416,0.409303585257703,0.1149892864307159,0.1054909641387419,0.045762347830109,0.0271555788987181,0.0025562377802841,-0.0226369438057638,0.0035121575663145,0.0015254789963978,0.0009042807773273,0.1159119569370009,0.1079560652404168,0.0422027219355815,0.0260014414148811,0.3726586809989281
11.02,0.3740598248373307,0.0036695304118437,0.0014389134021358,0.0005829818059796,0.4102078660350304,0.118473742865599,0.1086449177724821,0.0472473236363146,0.0291073371578253,0.1046383313778708,0.0586113591323479,0.0036171105813623,0.001575093849194,0.0009692743273555,0.1159027363360397,0.1079082099613814,0.0422996750946382,0.0279105135049257,0.3735881010986421
11.054,0.3746263535736302,0.0036683662795695,0.0014405953837276,0.0005665287362994,0.4111771403623859,0.11498653193,0.1054025158451762,0.0459588095885464,0.0159583938855343,-0.104721049117088,-0.3948631613300591,0.0035094949083134,0.0015313656110638,0.0005314145163882,0.1159460431481939,0.1079265321873585,0.0423715538036297,0.0156005940176933,0.3741076008794313
11.088,0.37527875995947,0.0036619116205984,0.0014437433701394,0.0006524063858397,0.4117085548787743,0.1149659131634149,0.1053591819545909,0.0460065643941956,0.0170651902503628,-0.0006191821797306,0.033237128072925,0.0035080232090836,0.0015330201047397,0.000568270835337,0.1158713565174867,0.1078335228967006,0.0424040399123625,0.0166459539729635,0.374661911146731
11.122,0.3761177459288414,0.0036293383625363,0.0014341865979176,0.0008389859693713,0.4129110706069227,0.1149299262018503,0.1052708196801729,0.0461187864175466,0.0117595388681818,-0.1046195920178008,-0.2188244537338507,0.0035052154454192,0.0015364466271935,0.0003915926443104,0.1137334944456484,0.1057817338344172,0.0417795709145371,0.0249743059345182,0.3761541544849754
11.156,0.3776814485211417,0.0035687181853611,0.0014136938386819,0.0015637025923003,0.4133026632512332,0.1148485710859458,0.1051782468693927,0.0461273310084664,0.0134804279349728,-0.0024430965737078,0.0516783503540843,0.0035020886747033,0.0015368308965468,0.0004488982502345,0.1126304129202916,0.1046924620984561,0.0415343026227563,0.0458646857707615,0.3776814485211417
11.19,0.3791930460733739,0.0035718187843631,0.0014211615507985,0.0015115975522321,0.4137515615014677,0.1182408377796892,0.1082635535139798,0.0475383918466791,0.0153776168991674,0.1018698706829837,0.0569726415674052,0.0036047687312015,0.001583956283944,0.0005120746427422,0.1137413364057624,0.1056615668996096,0.0421037395926788,0.0453933198868505,0.3791930460733739
11.224,0.3825029543559715,0.0036148440944288,0.0014462644752196,0.0033099082825975,0.4142636361442099,0.1146416114824528,0.1049444176924213,0.0461450785944965,0.0990974771038453,-0.1080848737908824,2.514109916056392,0.0034921052959903,0.0015423990932625,0.003299945987558,0.114934470613679,0.1066328566414297,0.0428878353351499,0.0963739705515496,0.3824022992927405
11.258,0.385981013330003,0.003617257546628,0.0014628863338441,0.0034780589740315,0.4175635821317681,0.1146437585111122,0.1047935328540311,0.0464920083189069,0.1010687498534965,6.447533511634951e-05,0.0591973798694057,0.0034870106942448,0.0015540579572101,0.0033655893701214,0.114756434875168,0.1063226034582087,0.0431803582561234,0.1013155255862545,0.3857761062947628
11.292,0.3894680622741917,0.0036116418426677,0.0014741124614432,0.0034870489441886,0.4209291715018894,0.1180947951910095,0.1077862611710397,0.0482545599293465,0.1041802964297478,0.1036347351320509,0.0934398371246637,0.0035864858403045,0.0016131044129334,0.0034692038711106,0.1147333078076006,0.1061503324685339,0.0435412314627564,0.1044788983928285,0.3892552536112439
11.326,0.3934284121297956,0.0036035999267203,0.0014865821673675,0.0039603498556039,0.4243983753730001,0.1146382085889119,0.1044682668200087,0.047204873647732,0.115947444355794,-0.1038013994623897,0.3533678055869714,0.0034757478884543,0.001578638947284,0.0038610498970479,0.1146059367684652,0.1058635686586163,0.0439024552097016,0.1160862890118583,0.3931209270353388
11.36,0.39337954649372,0.0036438734142616,0.0015137885484608,-4.8865636075590135e-05,0.4282594252700479,0.1148824066618421,0.1045073727471174,0.0477092905198969,-0.0391857757835236,0.0073332754633686,-4.6586552594389685,0.0034811289415656,0.0015864530380237,-0.0013048863335913,0.1157735181850863,0.1069235285663419,0.0443944428039721,0.0125583403790327,0.3935391197699606
