Time,header.seq,header.stamp.secs,header.stamp.nsecs,header.frame_id,orientation.x,orientation.y,orientation.z,orientation.w,orientation_covariance_0,orientation_covariance_1,orientation_covariance_2,orientation_covariance_3,orientation_covariance_4,orientation_covariance_5,orientation_covariance_6,orientation_covariance_7,orientation_covariance_8,angular_velocity.x,angular_velocity.y,angular_velocity.z,angular_velocity_covariance_0,angular_velocity_covariance_1,angular_velocity_covariance_2,angular_velocity_covariance_3,angular_velocity_covariance_4,angular_velocity_covariance_5,angular_velocity_covariance_6,angular_velocity_covariance_7,angular_velocity_covariance_8,linear_acceleration.x,linear_acceleration.y,linear_acceleration.z,linear_acceleration_covariance_0,linear_acceleration_covariance_1,linear_acceleration_covariance_2,linear_acceleration_covariance_3,linear_acceleration_covariance_4,linear_acceleration_covariance_5,linear_acceleration_covariance_6,linear_acceleration_covariance_7,linear_acceleration_covariance_8
0.14900000000000002,0,0,149000000,base_footprint,0.0009315770146884197,-1.788052489830632e-05,0.9999995648340759,4.6649879465648256e-05,0.0,0.0,0.0,0.0,0.0,0.0,0.0,0.0,0.0,-0.0002833959648638356,0.04758703697658318,2.6635841412737447e-06,0.0,0.0,0.0,0.0,0.0,0.0,0.0,0.0,0.0,-1.1067353002109275e-05,1.7365100883075132e-06,-0.06605319234603932,0.0,0.0,0.0,0.0,0.0,0.0,0.0,0.0,0.0
0.186,1,0,183000000,base_footprint,0.00012041700057198374,-2.2929852020210495e-05,0.9999999914006207,4.661251431223382e-05,0.0,0.0,0.0,0.0,0.0,0.0,0.0,0.0,0.0,-0.0002837943100118844,0.047559618613245,3.24636921212973e-06,0.0,0.0,0.0,0.0,0.0,0.0,0.0,0.0,0.0,-0.0002145448312170815,2.9440526996685485e-07,7.816949080366814e-05,0.0,0.0,0.0,0.0,0.0,0.0,0.0,0.0,0.0
0.21700000000000003,2,0,217000000,base_footprint,-0.0009728957842509998,-3.093452349264358e-05,0.9999995251740409,4.656759619573586e-05,0.0,0.0,0.0,0.0,0.0,0.0,0.0,0.0,0.0,-0.00042032938938385225,0.06776825555277279,6.859119653693189e-06,0.0,0.0,0.0,0.0,0.0,0.0,0.0,0.0,0.0,-0.00037011381457257783,5.021731843539551e-08,0.002816087439673425,0.0,0.0,0.0,0.0,0.0,0.0,0.0,0.0,0.0
0.251,3,0,251000000,base_footprint,-0.0021263757177215296,-3.839449656557814e-05,0.9999977374439537,4.646658192257099e-05,0.0,0.0,0.0,0.0,0.0,0.0,0.0,0.0,0.0,-0.0004207894193829332,0.06769108835206472,8.062237828490634e-06,0.0,0.0,0.0,0.0,0.0,0.0,0.0,0.0,0.0,-0.0002956565871520078,3.818533788975072e-07,0.00015101037348329595,0.0,0.0,0.0,0.0,0.0,0.0,0.0,0.0,0.0
0.28500000000000003,4,0,285000000,base_footprint,-0.00327855163056048,-4.5861623645201426e-05,0.9999946234094985,4.6346655805957384e-05,0.0,0.0,0.0,0.0,0.0,0.0,0.0,0.0,0.0,-0.0004212721119932804,0.0676147356935992,9.090631552617353e-06,0.0,0.0,0.0,0.0,0.0,0.0,0.0,0.0,0.0,-0.00029471267676960475,4.160156106842379e-08,0.00014975621037124895,0.0,0.0,0.0,0.0,0.0,0.0,0.0,0.0,0.0
0.319,5,0,319000000,base_footprint,-0.003922135249413173,-6.862531034053453e-06,0.9999923072344696,4.7748016955575444e-05,0.0,0.0,0.0,0.0,0.0,0.0,0.0,0.0,0.0,-4.325532819508086e-05,-0.02944192684760686,-0.00012805426381060702,0.0,0.0,0.0,0.0,0.0,0.0,0.0,0.0,0.0,0.0009401146750460916,0.00013663153445509274,0.13202169425450355,0.0,0.0,0.0,0.0,0.0,0.0,0.0,0.0,0.0
0.35400000000000004,6,0,353000000,base_footprint,-0.0038525404557278593,-6.86337782185588e-06,0.9999925777463399,4.834419948846367e-05,0.0,0.0,0.0,0.0,0.0,0.0,0.0,0.0,0.0,6.965645777927786e-05,-0.0006678155092929085,8.66894140925172e-06,0.0,0.0,0.0,0.0,0.0,0.0,0.0,0.0,0.0,-0.0010212541954416282,-0.00012095262399811348,0.000416826490175547,0.0,0.0,0.0,0.0,0.0,0.0,0.0,0.0,0.0
0.387,7,0,387000000,base_footprint,-0.0038531100366091683,-6.875371573320782e-06,0.9999925755577467,4.8219909381927366e-05,0.0,0.0,0.0,0.0,0.0,0.0,0.0,0.0,0.0,3.854441741701986e-05,-0.00016679330069575176,9.107300012879775e-06,0.0,0.0,0.0,0.0,0.0,0.0,0.0,0.0,0.0,-1.074953420824854e-05,4.251708441554066e-07,-0.0005415089741972452,0.0,0.0,0.0,0.0,0.0,0.0,0.0,0.0,0.0
0.42100000000000004,8,0,421000000,base_footprint,-0.0038531016422101902,-6.87597355070527e-06,0.9999925755972153,4.8071859322324847e-05,0.0,0.0,0.0,0.0,0.0,0.0,0.0,0.0,0.0,3.871487145040496e-05,-0.00018074123731417297,9.768897756634453e-06,0.0,0.0,0.0,0.0,0.0,0.0,0.0,0.0,0.0,1.0140738829685395e-07,1.2895038380926375e-06,1.5049333008002603e-05,0.0,0.0,0.0,0.0,0.0,0.0,0.0,0.0,0.0
0.455,9,0,455000000,base_footprint,-0.003853101639737362,-6.8766173599908e-06,0.9999925756045559,4.7919023165775755e-05,0.0,0.0,0.0,0.0,0.0,0.0,0.0,0.0,0.0,3.871122846170664e-05,-0.00018040483383031773,9.860082787564144e-06,0.0,0.0,0.0,0.0,0.0,0.0,0.0,0.0,0.0,-3.370952056332387e-08,1.7731885630943382e-07,-3.740262404858866e-07,0.0,0.0,0.0,0.0,0.0,0.0,0.0,0.0,0.0
0.48900000000000005,10,0,489000000,base_footprint,-0.0038531016276537326,-6.8772511139029975e-06,0.9999925756119427,4.7765508065025944e-05,0.0,0.0,0.0,0.0,0.0,0.0,0.0,0.0,0.0,3.871156575892151e-05,-0.00018041051340666185,9.873284570892736e-06,0.0,0.0,0.0,0.0,0.0,0.0,0.0,0.0,0.0,-3.740689945432003e-09,2.568111819938968e-08,5.077138681036211e-09,0.0,0.0,0.0,0.0,0.0,0.0,0.0,0.0,0.0
0.523,11,0,523000000,base_footprint,-0.003853101625289987,-6.877881279286669e-06,0.9999925756192731,4.761189327369198e-05,0.0,0.0,0.0,0.0,0.0,0.0,0.0,0.0,0.0,3.87118189852473e-05,-0.00018041014974134464,9.875091328769801e-06,0.0,0.0,0.0,0.0,0.0,0.0,0.0,0.0,0.0,-5.412254025173753e-10,3.5140972692006442e-09,-5.180787204092693e-10,0.0,0.0,0.0,0.0,0.0,0.0,0.0,0.0,0.0
0.557,12,0,557000000,base_footprint,-0.0038531016244232404,-6.878508864094359e-06,0.9999925756265751,4.745826354864447e-05,0.0,0.0,0.0,0.0,0.0,0.0,0.0,0.0,0.0,3.871206215383108e-05,-0.00018041010023895192,9.87525119734338e-06,0.0,0.0,0.0,0.0,0.0,0.0,0.0,0.0,0.0,-5.384753059025382e-11,3.103805580717293e-10,-3.105881322252835e-11,0.0,0.0,0.0,0.0,0.0,0.0,0.0,0.0,0.0
0.5910000000000001,13,0,591000000,base_footprint,-0.003853101623756846,-6.879134160216642e-06,0.9999925756338526,4.730463126541337e-05,0.0,0.0,0.0,0.0,0.0,0.0,0.0,0.0,0.0,3.871229766609459e-05,-0.0001804100722635242,9.875187189189697e-06,0.0,0.0,0.0,0.0,0.0,0.0,0.0,0.0,0.0,1.1940920659874145e-11,-1.252528458109202e-10,1.1893662698737543e-11,0.0,0.0,0.0,0.0,0.0,0.0,0.0,0.0,0.0
0.625,14,0,625000000,base_footprint,-0.0038531016231109824,-6.879757331202468e-06,0.9999925756411066,4.715099824085325e-05,0.0,0.0,0.0,0.0,0.0,0.0,0.0,0.0,0.0,3.871252633487547e-05,-0.00018041004739528625,9.87510522713413e-06,0.0,0.0,0.0,0.0,0.0,0.0,0.0,0.0,0.0,1.7227161508582242e-11,-1.6030795156263918e-10,1.6520757317477734e-11,0.0,0.0,0.0,0.0,0.0,0.0,0.0,0.0,0.0
0.659,15,0,659000000,base_footprint,-0.003853101622459658,-6.880378515122496e-06,0.9999925756483371,4.699736474349062e-05,0.0,0.0,0.0,0.0,0.0,0.0,0.0,0.0,0.0,3.871274856326463e-05,-0.00018041002260949586,9.87503490853223e-06,0.0,0.0,0.0,0.0,0.0,0.0,0.0,0.0,0.0,1.3809334578506175e-11,-1.377822107644846e-10,1.540053727431504e-11,0.0,0.0,0.0,0.0,0.0,0.0,0.0,0.0,0.0
0.6930000000000001,16,0,693000000,base_footprint,-0.0038531016217992517,-6.88099783837019e-06,0.9999925756555441,4.684373081310545e-05,0.0,0.0,0.0,0.0,0.0,0.0,0.0,0.0,0.0,3.871296482206556e-05,-0.00018040999740550828,9.874979808875023e-06,0.0,0.0,0.0,0.0,0.0,0.0,0.0,0.0,0.0,9.338606927537745e-12,-1.082932969905311e-10,1.3395588884885766e-11,0.0,0.0,0.0,0.0,0.0,0.0,0.0,0.0,0.0
0.7270000000000001,17,0,727000000,base_footprint,-0.003853101621129935,-6.88161541903137e-06,0.9999925756627274,4.669009645693278e-05,0.0,0.0,0.0,0.0,0.0,0.0,0.0,0.0,0.0,3.8713175592982415e-05,-0.00018040997178023308,9.874939454470628e-06,0.0,0.0,0.0,0.0,0.0,0.0,0.0,0.0,0.0,5.006869378120929e-12,-7.971814328352159e-11,1.1449884419847743e-11,0.0,0.0,0.0,0.0,0.0,0.0,0.0,0.0,0.0
0.761,18,0,761000000,base_footprint,-0.0038531016204525876,-6.882231367513177e-06,0.9999925756698872,4.6536461684586845e-05,0.0,0.0,0.0,0.0,0.0,0.0,0.0,0.0,0.0,3.871338117059891e-05,-0.00018040994570168707,9.874913159999116e-06,0.0,0.0,0.0,0.0,0.0,0.0,0.0,0.0,0.0,8.754920360914569e-13,-5.2469745984928694e-11,9.57861513948728e-12,0.0,0.0,0.0,0.0,0.0,0.0,0.0,0.0,0.0
0.794,19,0,795000000,base_footprint,-0.003853101619767286,-6.8828457891046445e-06,0.9999925756770235,4.6382826498458923e-05,0.0,0.0,0.0,0.0,0.0,0.0,0.0,0.0,0.0,3.871358174578348e-05,-0.00018040991930155445,9.874899845564871e-06,0.0,0.0,0.0,0.0,0.0,0.0,0.0,0.0,0.0,-2.9357531555872432e-12,-2.7317800839159256e-11,7.773542503890092e-12,0.0,0.0,0.0,0.0,0.0,0.0,0.0,0.0,0.0
0.8290000000000001,20,0,829000000,base_footprint,-0.003853101619074485,-6.883458787970067e-06,0.9999925756841362,4.622919090906019e-05,0.0,0.0,0.0,0.0,0.0,0.0,0.0,0.0,0.0,3.871377925987918e-05,-0.00018040989257372546,9.874899351779596e-06,0.0,0.0,0.0,0.0,0.0,0.0,0.0,0.0,0.0,-6.7003309939289295e-12,-2.4446996778003417e-12,6.621881172558193e-12,0.0,0.0,0.0,0.0,0.0,0.0,0.0,0.0,0.0
0.8630000000000001,21,0,863000000,base_footprint,-0.003853101618374766,-6.884070446427305e-06,0.9999925756912256,4.6075554911564936e-05,0.0,0.0,0.0,0.0,0.0,0.0,0.0,0.0,0.0,3.871397266227841e-05,-0.00018040986542580456,9.874910390857334e-06,0.0,0.0,0.0,0.0,0.0,0.0,0.0,0.0,0.0,-1.0090077462272443e-11,1.9907656033409324e-11,5.022586323307663e-12,0.0,0.0,0.0,0.0,0.0,0.0,0.0,0.0,0.0
0.897,22,0,897000000,base_footprint,-0.003853101617668741,-6.884680849052055e-06,0.9999925756982911,4.592191851247027e-05,0.0,0.0,0.0,0.0,0.0,0.0,0.0,0.0,0.0,3.8714161914145844e-05,-0.00018040983805504162,9.874931947978154e-06,0.0,0.0,0.0,0.0,0.0,0.0,0.0,0.0,0.0,-1.3179083166860334e-11,4.02886863044663e-11,3.757565752239945e-12,0.0,0.0,0.0,0.0,0.0,0.0,0.0,0.0,0.0
0.931,23,0,931000000,base_footprint,-0.0038531016169562242,-6.885290075561935e-06,0.9999925757053333,4.5768281710806944e-05,0.0,0.0,0.0,0.0,0.0,0.0,0.0,0.0,0.0,3.8714347419074814e-05,-0.0001804098103876751,9.87496432196535e-06,0.0,0.0,0.0,0.0,0.0,0.0,0.0,0.0,0.0,-1.635553753954543e-11,6.125525110740104e-11,2.3390346651004226e-12,0.0,0.0,0.0,0.0,0.0,0.0,0.0,0.0,0.0
0.9650000000000001,24,0,965000000,base_footprint,-0.0038531016162382313,-6.885898200698224e-06,0.9999925757123519,4.561464450571429e-05,0.0,0.0,0.0,0.0,0.0,0.0,0.0,0.0,0.0,3.871452945838739e-05,-0.00018040978223093874,9.875005423797746e-06,0.0,0.0,0.0,0.0,0.0,0.0,0.0,0.0,0.0,-1.892528663052429e-11,7.816656495042593e-11,9.232305322226495e-13,0.0,0.0,0.0,0.0,0.0,0.0,0.0,0.0,0.0
0.9980000000000001,25,0,999000000,base_footprint,-0.0038531016155152163,-6.886505294276324e-06,0.9999925757193467,4.546100690529878e-05,0.0,0.0,0.0,0.0,0.0,0.0,0.0,0.0,0.0,3.8714708231157445e-05,-0.00018040975398473692,9.875055481554299e-06,0.0,0.0,0.0,0.0,0.0,0.0,0.0,0.0,0.0,-2.1551394537982867e-11,9.552423925420954e-11,-1.2621194132645485e-13,0.0,0.0,0.0,0.0,0.0,0.0,0.0,0.0,0.0
1.033,26,1,33000000,base_footprint,-0.0038531016147869517,-6.8871114216411086e-06,0.9999925757263183,4.530736890809064e-05,0.0,0.0,0.0,0.0,0.0,0.0,0.0,0.0,0.0,3.871488382495982e-05,-0.00018040972559140356,9.875114257337564e-06,0.0,0.0,0.0,0.0,0.0,0.0,0.0,0.0,0.0,-2.4112408936082018e-11,1.1242016285315657e-10,-9.874902842087673e-13,0.0,0.0,0.0,0.0,0.0,0.0,0.0,0.0,0.0
1.067,27,1,67000000,base_footprint,-0.0038531016140537114,-6.88771664425885e-06,0.9999925757332662,4.515373051538519e-05,0.0,0.0,0.0,0.0,0.0,0.0,0.0,0.0,0.0,3.871505647400589e-05,-0.00018040969694948792,9.87518042997404e-06,0.0,0.0,0.0,0.0,0.0,0.0,0.0,0.0,0.0,-2.6284951023928985e-11,1.2675340998100837e-10,-2.1653474618480545e-12,0.0,0.0,0.0,0.0,0.0,0.0,0.0,0.0,0.0
1.102,28,1,101000000,base_footprint,-0.0038531016133167575,-6.888321019646012e-06,0.9999925757401903,4.5000091737666674e-05,0.0,0.0,0.0,0.0,0.0,0.0,0.0,0.0,0.0,3.871522660524214e-05,-0.00018040966791723598,9.87525302461895e-06,0.0,0.0,0.0,0.0,0.0,0.0,0.0,0.0,0.0,-2.817623036400669e-11,1.3919650305244516e-10,-3.237431757526292e-12,0.0,0.0,0.0,0.0,0.0,0.0,0.0,0.0,0.0
1.131,29,1,135000000,base_footprint,-0.003853101612575228,-6.8889246015008675e-06,0.9999925757470911,4.484645256194714e-05,0.0,0.0,0.0,0.0,0.0,0.0,0.0,0.0,0.0,3.871539405748986e-05,-0.00018040963885681378,9.875333645324166e-06,0.0,0.0,0.0,0.0,0.0,0.0,0.0,0.0,0.0,-3.05313734299191e-11,1.5475604148065359e-10,-3.8239269997410195e-12,0.0,0.0,0.0,0.0,0.0,0.0,0.0,0.0,0.0
1.169,30,1,169000000,base_footprint,-0.003853101611830011,-6.889527440314132e-06,0.9999925757539682,4.4692812998970566e-05,0.0,0.0,0.0,0.0,0.0,0.0,0.0,0.0,0.0,3.871555913625678e-05,-0.0001804096095174744,9.875419364980208e-06,0.0,0.0,0.0,0.0,0.0,0.0,0.0,0.0,0.0,-3.203001710304679e-11,1.6462985314427727e-10,-5.084266076203834e-12,0.0,0.0,0.0,0.0,0.0,0.0,0.0,0.0,0.0
1.203,31,1,203000000,base_footprint,-0.003853101611081637,-6.890129582886778e-06,0.9999925757608219,4.453917306590018e-05,0.0,0.0,0.0,0.0,0.0,0.0,0.0,0.0,0.0,3.871572202345881e-05,-0.00018040957993206087,9.875509909442672e-06,0.0,0.0,0.0,0.0,0.0,0.0,0.0,0.0,0.0,-3.345108588357472e-11,1.73974907184072e-10,-5.800702356097571e-12,0.0,0.0,0.0,0.0,0.0,0.0,0.0,0.0,0.0
1.24,32,1,237000000,base_footprint,-0.0038531016103292887,-6.890731073639581e-06,0.9999925757676518,4.438553276319697e-05,0.0,0.0,0.0,0.0,0.0,0.0,0.0,0.0,0.0,3.8715882806459395e-05,-0.00018040955043813306,9.875608318449637e-06,0.0,0.0,0.0,0.0,0.0,0.0,0.0,0.0,0.0,-3.575530856674793e-11,1.8922802938407502e-10,-6.138060435136698e-12,0.0,0.0,0.0,0.0,0.0,0.0,0.0,0.0,0.0
1.271,33,1,271000000,base_footprint,-0.0038531016095740387,-6.891331953605037e-06,0.9999925757744583,4.423189207731011e-05,0.0,0.0,0.0,0.0,0.0,0.0,0.0,0.0,0.0,3.871604156350186e-05,-0.00018040952068809065,9.875711071346432e-06,0.0,0.0,0.0,0.0,0.0,0.0,0.0,0.0,0.0,-3.703425033906901e-11,1.9764038242729982e-10,-7.091693102484027e-12,0.0,0.0,0.0,0.0,0.0,0.0,0.0,0.0,0.0
1.307,34,1,305000000,base_footprint,-0.003853101608815548,-6.891932262765651e-06,0.9999925757812411,4.4078251009810844e-05,0.0,0.0,0.0,0.0,0.0,0.0,0.0,0.0,0.0,3.871619860194683e-05,-0.00018040949053398206,9.875818436995033e-06,0.0,0.0,0.0,0.0,0.0,0.0,0.0,0.0,0.0,-3.8394556922960705e-11,2.0658033970528003e-10,-7.995412370542387e-12,0.0,0.0,0.0,0.0,0.0,0.0,0.0,0.0,0.0
1.338,35,1,339000000,base_footprint,-0.0038531016080542765,-6.892532036300141e-06,0.9999925757880005,4.392460956098308e-05,0.0,0.0,0.0,0.0,0.0,0.0,0.0,0.0,0.0,3.871635387225586e-05,-0.0001804094606183562,9.875930992282188e-06,0.0,0.0,0.0,0.0,0.0,0.0,0.0,0.0,0.0,-3.99118503584938e-11,2.166403193366909e-10,-8.098475228624587e-12,0.0,0.0,0.0,0.0,0.0,0.0,0.0,0.0,0.0
1.374,36,1,373000000,base_footprint,-0.003853101607290459,-6.8931313085328834e-06,0.9999925757947361,4.377096773662645e-05,0.0,0.0,0.0,0.0,0.0,0.0,0.0,0.0,0.0,3.871650752289511e-05,-0.00018040943040635712,9.876047930219987e-06,0.0,0.0,0.0,0.0,0.0,0.0,0.0,0.0,0.0,-4.1202926273906345e-11,2.2513307693885144e-10,-8.918094559676307e-12,0.0,0.0,0.0,0.0,0.0,0.0,0.0,0.0,0.0
1.407,37,1,407000000,base_footprint,-0.0038531016065241857,-6.89373011139313e-06,0.9999925758014484,4.361732553747464e-05,0.0,0.0,0.0,0.0,0.0,0.0,0.0,0.0,0.0,3.8716659679070586e-05,-0.00018040940016907772,9.876168321103317e-06,0.0,0.0,0.0,0.0,0.0,0.0,0.0,0.0,0.0,-4.221677325470306e-11,2.318228214656042e-10,-9.254694104495868e-12,0.0,0.0,0.0,0.0,0.0,0.0,0.0,0.0,0.0
1.437,38,1,441000000,base_footprint,-0.0038531016057553684,-6.8943284748504905e-06,0.9999925758081368,4.346368295929257e-05,0.0,0.0,0.0,0.0,0.0,0.0,0.0,0.0,0.0,3.8716810443192835e-05,-0.00018040936965022,9.876292132133025e-06,0.0,0.0,0.0,0.0,0.0,0.0,0.0,0.0,0.0,-4.322343290903713e-11,2.384488931332004e-10,-1.023195482857851e-11,0.0,0.0,0.0,0.0,0.0,0.0,0.0,0.0,0.0
1.474,39,1,475000000,base_footprint,-0.0038531016049845952,-6.894926426446405e-06,0.9999925758148018,4.331004000694733e-05,0.0,0.0,0.0,0.0,0.0,0.0,0.0,0.0,0.0,3.871695987562127e-05,-0.0001804093391063462,9.876420888867678e-06,0.0,0.0,0.0,0.0,0.0,0.0,0.0,0.0,0.0,-4.4676017511734035e-11,2.4804070773979237e-10,-1.0330058657429817e-11,0.0,0.0,0.0,0.0,0.0,0.0,0.0,0.0,0.0
1.508,40,1,509000000,base_footprint,-0.0038531016042116645,-6.895523992600056e-06,0.9999925758214433,4.31563966813165e-05,0.0,0.0,0.0,0.0,0.0,0.0,0.0,0.0,0.0,3.871710807856574e-05,-0.0001804093084768256,9.876551503592123e-06,0.0,0.0,0.0,0.0,0.0,0.0,0.0,0.0,0.0,-4.522212002062813e-11,2.51634449772158e-10,-1.0861004997550072e-11,0.0,0.0,0.0,0.0,0.0,0.0,0.0,0.0,0.0
1.545,41,1,543000000,base_footprint,-0.0038531016034367774,-6.896121197764536e-06,0.999992575828061,4.300275297878256e-05,0.0,0.0,0.0,0.0,0.0,0.0,0.0,0.0,0.0,3.871725510608096e-05,-0.00018040927783691705,9.876685969965751e-06,0.0,0.0,0.0,0.0,0.0,0.0,0.0,0.0,0.0,-4.635198035659027e-11,2.591019507356711e-10,-1.1194821523250685e-11,0.0,0.0,0.0,0.0,0.0,0.0,0.0,0.0,0.0
1.58,42,1,577000000,base_footprint,-0.00385310160266027,-6.8967180648135225e-06,0.9999925758346554,4.28491089039464e-05,0.0,0.0,0.0,0.0,0.0,0.0,0.0,0.0,0.0,3.871740107096064e-05,-0.00018040924691620154,9.87682264020174e-06,0.0,0.0,0.0,0.0,0.0,0.0,0.0,0.0,0.0,-4.700540111048133e-11,2.633688053962794e-10,-1.1715188177361626e-11,0.0,0.0,0.0,0.0,0.0,0.0,0.0,0.0,0.0
1.611,43,1,611000000,base_footprint,-0.00385310160188183,-6.897314615609115e-06,0.999992575841226,4.2695464455982006e-05,0.0,0.0,0.0,0.0,0.0,0.0,0.0,0.0,0.0,3.871754603978552e-05,-0.0001804092160684709,9.876963000559939e-06,0.0,0.0,0.0,0.0,0.0,0.0,0.0,0.0,0.0,-4.8085391013648035e-11,2.705261384369525e-10,-1.1931084322898823e-11,0.0,0.0,0.0,0.0,0.0,0.0,0.0,0.0,0.0
1.645,44,1,645000000,base_footprint,-0.0038477910947414175,-6.958447114013965e-06,0.9999925963320483,4.166966130527842e-05,0.0,0.0,0.0,0.0,0.0,0.0,0.0,0.0,0.0,3.6521266738779385e-05,-0.000183790502413706,-2.545685028814425e-05,0.0,0.0,0.0,0.0,0.0,0.0,0.0,0.0,0.0,0.7148095902347412,-0.00012845287254465947,0.005487681195716621,0.0,0.0,0.0,0.0,0.0,0.0,0.0,0.0,0.0
1.6800000000000002,45,1,679000000,base_footprint,-0.003848301842264093,-7.002609464310551e-06,0.9999925943233794,4.2688307244844714e-05,0.0,0.0,0.0,0.0,0.0,0.0,0.0,0.0,0.0,3.5875373250357676e-05,-0.0001091268393959627,-7.467209315749189e-05,0.0,0.0,0.0,0.0,0.0,0.0,0.0,0.0,0.0,0.7861742976466994,-0.00016271636457000006,0.005959215442980101,0.0,0.0,0.0,0.0,0.0,0.0,0.0,0.0,0.0
1.714,46,1,713000000,base_footprint,-0.0038490440032034226,-7.065156239206182e-06,0.999992591361399,4.508502270549275e-05,0.0,0.0,0.0,0.0,0.0,0.0,0.0,0.0,0.0,3.547187212588003e-05,-9.887723322083485e-05,-0.0001534527307287565,0.0,0.0,0.0,0.0,0.0,0.0,0.0,0.0,0.0,0.7851050263781033,-0.0002237740179861283,0.006024592094998668,0.0,0.0,0.0,0.0,0.0,0.0,0.0,0.0,0.0
1.746,47,1,747000000,base_footprint,-0.0038501056037088936,-7.1429206626078525e-06,0.9999925870618492,4.9569839797777034e-05,0.0,0.0,0.0,0.0,0.0,0.0,0.0,0.0,0.0,3.5038500126870106e-05,-7.627065434753837e-05,-0.00027791423737753737,0.0,0.0,0.0,0.0,0.0,0.0,0.0,0.0,0.0,0.7730398165710821,-0.00031829904641673577,0.0059204862766025,0.0,0.0,0.0,0.0,0.0,0.0,0.0,0.0,0.0
1.7810000000000001,48,1,781000000,base_footprint,-0.0038497780284996873,-7.2646174537720345e-06,0.9999925879009528,5.744137808979398e-05,0.0,0.0,0.0,0.0,0.0,0.0,0.0,0.0,0.0,-3.546719612187016e-05,-0.0037071882552328094,-0.0005992820872374499,0.0,0.0,0.0,0.0,0.0,0.0,0.0,0.0,0.0,0.7417617676476808,-0.0007101138948423334,0.00835133950258878,0.0,0.0,0.0,0.0,0.0,0.0,0.0,0.0,0.0
1.815,49,1,815000000,base_footprint,-0.003852248641151751,-7.3835483240688384e-06,0.9999925775679069,7.02494393566822e-05,0.0,0.0,0.0,0.0,0.0,0.0,0.0,0.0,0.0,-1.8504616432011404e-05,-0.0026150853134175906,-0.0009232548629227283,0.0,0.0,0.0,0.0,0.0,0.0,0.0,0.0,0.0,0.6693215918752838,-0.0007227882750282203,0.004370643581975171,0.0,0.0,0.0,0.0,0.0,0.0,0.0,0.0,0.0
1.8490000000000002,50,1,849000000,base_footprint,-0.0038557839380320043,-7.946926208036861e-06,0.9999925624066714,8.943382434568638e-05,0.0,0.0,0.0,0.0,0.0,0.0,0.0,0.0,0.0,3.346577684041724e-05,-2.7572933563908693e-05,-0.0012449297404187292,0.0,0.0,0.0,0.0,0.0,0.0,0.0,0.0,0.0,0.5522076124101495,-0.0007226247064369431,0.002307345328651932,0.0,0.0,0.0,0.0,0.0,0.0,0.0,0.0,0.0
1.883,51,1,883000000,base_footprint,-0.0038605988846045734,-7.964436905213368e-06,0.9999925418942229,0.00010894379650227172,0.0,0.0,0.0,0.0,0.0,0.0,0.0,0.0,0.0,-9.958954269878147e-05,0.00012652745836848702,5.360033635971243e-05,0.0,0.0,0.0,0.0,0.0,0.0,0.0,0.0,0.0,0.39588526714487,0.002432381185469428,0.001508885799915969,0.0,0.0,0.0,0.0,0.0,0.0,0.0,0.0,0.0
1.915,52,1,917000000,base_footprint,-0.0038568471534054048,-8.153560899222947e-06,0.9999924959204528,0.0003643711542301314,0.0,0.0,0.0,0.0,0.0,0.0,0.0,0.0,0.0,-0.00013479429511263126,0.000746250972254767,-0.026249491143919335,0.0,0.0,0.0,0.0,0.0,0.0,0.0,0.0,0.0,0.10726338497479289,-0.009402623006737885,0.001705205730068494,0.0,0.0,0.0,0.0,0.0,0.0,0.0,0.0,0.0
1.951,53,1,951000000,base_footprint,-0.0038520477477794962,5.25390286415111e-09,0.9999922752043768,0.000781831006642094,0.0,0.0,0.0,0.0,0.0,0.0,0.0,0.0,0.0,0.0002430640230771195,0.00010742671526568583,-0.018391237007715985,0.0,0.0,0.0,0.0,0.0,0.0,0.0,0.0,0.0,-0.023286968722411743,-0.00788241974984419,-5.474311856003256e-05,0.0,0.0,0.0,0.0,0.0,0.0,0.0,0.0,0.0
1.985,54,1,985000000,base_footprint,-0.00385189643346682,2.9041632883470195e-06,0.9999918066775981,0.001244774318952412,0.0,0.0,0.0,0.0,0.0,0.0,0.0,0.0,0.0,0.000937474015806145,0.0008963514570281959,-0.04528364693219907,0.0,0.0,0.0,0.0,0.0,0.0,0.0,0.0,0.0,0.03534497617552322,0.006500091045770621,-0.0006466117208776052,0.0,0.0,0.0,0.0,0.0,0.0,0.0,0.0,0.0
2.019,55,2,19000000,base_footprint,-0.0038500897693561115,6.993368957927404e-06,0.9999890877762201,0.002645956980778476,0.0,0.0,0.0,0.0,0.0,0.0,0.0,0.0,0.0,0.0011012202045988257,0.00011223570768816965,-0.11433146874499298,0.0,0.0,0.0,0.0,0.0,0.0,0.0,0.0,0.0,0.15617463579932753,-0.018555906485117984,0.0022263718727950706,0.0,0.0,0.0,0.0,0.0,0.0,0.0,0.0,0.0
2.045,56,2,53000000,base_footprint,-0.0038490335817743288,1.6956947421735047e-05,0.9999777118903137,0.005455307100535552,0.0,0.0,0.0,0.0,0.0,0.0,0.0,0.0,0.0,0.001731843039834468,-9.678901242022545e-05,-0.21849857880067589,0.0,0.0,0.0,0.0,0.0,0.0,0.0,0.0,0.0,0.2674528151546888,-0.037195740177940646,0.0023193992463090476,0.0,0.0,0.0,0.0,0.0,0.0,0.0,0.0,0.0
2.088,57,2,87000000,base_footprint,-0.0038568031951110877,2.7551418568137664e-05,0.9999422481058382,0.010031189514498676,0.0,0.0,0.0,0.0,0.0,0.0,0.0,0.0,0.0,0.001763418312647755,-0.0013548905142893811,-0.22384138173279658,0.0,0.0,0.0,0.0,0.0,0.0,0.0,0.0,0.0,0.19172550597757793,-0.06260183445668144,0.0032023411957693825,0.0,0.0,0.0,0.0,0.0,0.0,0.0,0.0,0.0
2.121,58,2,121000000,base_footprint,-0.0038466401988050633,3.7495482802752814e-05,0.9999284813323308,0.011324052882627932,0.0,0.0,0.0,0.0,0.0,0.0,0.0,0.0,0.0,0.00027499647391684105,0.00011253341401437122,-0.06854656922701896,0.0,0.0,0.0,0.0,0.0,0.0,0.0,0.0,0.0,-0.2266445576243048,-0.007047300168931523,-0.004341855101950191,0.0,0.0,0.0,0.0,0.0,0.0,0.0,0.0,0.0
2.153,59,2,155000000,base_footprint,-0.0038493495753436887,4.769392337287825e-05,0.9998941606725172,0.014030241841776793,0.0,0.0,0.0,0.0,0.0,0.0,0.0,0.0,0.0,0.0018367934632336814,-0.000134109657648907,-0.24775765536949693,0.0,0.0,0.0,0.0,0.0,0.0,0.0,0.0,0.0,0.46854970482932345,-0.056579870958931626,0.00464866814788273,0.0,0.0,0.0,0.0,0.0,0.0,0.0,0.0,0.0
2.189,60,2,189000000,base_footprint,-0.003861510894715391,6.811817156311245e-05,0.9998106344600922,0.019072999607625107,0.0,0.0,0.0,0.0,0.0,0.0,0.0,0.0,0.0,0.0020821387991534906,-0.0036533743624305027,-0.30517642861104016,0.0,0.0,0.0,0.0,0.0,0.0,0.0,0.0,0.0,-0.10484399927261306,-0.056029697595803264,0.00042043844139139644,0.0,0.0,0.0,0.0,0.0,0.0,0.0,0.0,0.0
2.223,61,2,223000000,base_footprint,-0.0038497896302473666,7.958134003890557e-05,0.9997363543697332,0.02263613346242454,0.0,0.0,0.0,0.0,0.0,0.0,0.0,0.0,0.0,0.0018806641045831787,0.0010284449018278493,-0.20155724291276633,0.0,0.0,0.0,0.0,0.0,0.0,0.0,0.0,0.0,-0.3583927586419031,-0.013950309732783371,-0.005177442702959592,0.0,0.0,0.0,0.0,0.0,0.0,0.0,0.0,0.0
2.257,62,2,257000000,base_footprint,-0.0038529563653418456,9.781680026769754e-05,0.999619265166016,0.027321600759742017,0.0,0.0,0.0,0.0,0.0,0.0,0.0,0.0,0.0,0.002263303318937808,-0.00020460700864519346,-0.30349176344871637,0.0,0.0,0.0,0.0,0.0,0.0,0.0,0.0,0.0,0.2612415681303569,-0.08351197206226534,0.0032441928528619147,0.0,0.0,0.0,0.0,0.0,0.0,0.0,0.0,0.0
2.291,63,2,291000000,base_footprint,-0.003851176767686558,0.0001205051831664893,0.9994627903812678,0.032546652044330424,0.0,0.0,0.0,0.0,0.0,0.0,0.0,0.0,0.0,0.0028462673133206554,-0.0010581804648363007,-0.31623921404475214,0.0,0.0,0.0,0.0,0.0,0.0,0.0,0.0,0.0,-0.23233199145572775,-0.03428375248886418,-0.0014328030846999136,0.0,0.0,0.0,0.0,0.0,0.0,0.0,0.0,0.0
2.325,64,2,325000000,base_footprint,-0.0038537908244824174,0.0001333341923271633,0.9993103152700399,0.03693269978173592,0.0,0.0,0.0,0.0,0.0,0.0,0.0,0.0,0.0,0.0017014897727099252,-0.0009386271706352602,-0.2641231543744309,0.0,0.0,0.0,0.0,0.0,0.0,0.0,0.0,0.0,-0.20267815506421172,-0.024399475217802696,-0.001056515187557959,0.0,0.0,0.0,0.0,0.0,0.0,0.0,0.0,0.0
2.359,65,2,359000000,base_footprint,-0.003854220714418412,0.00015264512420723068,0.9991158539603182,0.04186444848907991,0.0,0.0,0.0,0.0,0.0,0.0,0.0,0.0,0.0,0.0020892968241529343,-0.00030811256588585286,-0.29421449983835285,0.0,0.0,0.0,0.0,0.0,0.0,0.0,0.0,0.0,0.06926268380570956,-0.06983466968362419,-0.00036253946877614317,0.0,0.0,0.0,0.0,0.0,0.0,0.0,0.0,0.0
2.392,66,2,393000000,base_footprint,-0.0038480724072902264,0.00017699502714269496,0.9989078332907233,0.04656502552282345,0.0,0.0,0.0,0.0,0.0,0.0,0.0,0.0,0.0,0.0017949989832786795,-0.00011647841493468407,-0.216170399171234,0.0,0.0,0.0,0.0,0.0,0.0,0.0,0.0,0.0,0.05020378987285804,-0.06670573537672517,0.0006035129716390064,0.0,0.0,0.0,0.0,0.0,0.0,0.0,0.0,0.0
2.427,67,2,427000000,base_footprint,-0.003846922841954688,0.00018542007051467263,0.9987900641870384,0.04902626321980295,0.0,0.0,0.0,0.0,0.0,0.0,0.0,0.0,0.0,0.0014540190027452042,0.00016997622629976987,-0.11173609293354739,0.0,0.0,0.0,0.0,0.0,0.0,0.0,0.0,0.0,0.1420374158006203,-0.05827487761263671,0.00014499218841253426,0.0,0.0,0.0,0.0,0.0,0.0,0.0,0.0,0.0
2.462,68,2,461000000,base_footprint,-0.0038462474495594284,0.0001953240560130633,0.9986766616235387,0.05128443972135912,0.0,0.0,0.0,0.0,0.0,0.0,0.0,0.0,0.0,0.0013881022232172116,-0.0002483374527299591,-0.1610673925257659,0.0,0.0,0.0,0.0,0.0,0.0,0.0,0.0,0.0,0.12004742462845434,-0.05087834231063547,0.0017820356664227436,0.0,0.0,0.0,0.0,0.0,0.0,0.0,0.0,0.0
2.495,69,2,495000000,base_footprint,-0.003851619722669605,0.00019703993245907608,0.9985094426577419,0.05444280599034932,0.0,0.0,0.0,0.0,0.0,0.0,0.0,0.0,0.0,0.0012566956583838526,-0.0001900974028596877,-0.16354940536896645,0.0,0.0,0.0,0.0,0.0,0.0,0.0,0.0,0.0,-0.06667775951789921,-0.02709461128813221,-0.00020646561186290214,0.0,0.0,0.0,0.0,0.0,0.0,0.0,0.0,0.0
2.529,70,2,529000000,base_footprint,-0.0038481795015634142,0.00021668484692504512,0.9983910305696015,0.05657291437048182,0.0,0.0,0.0,0.0,0.0,0.0,0.0,0.0,0.0,0.001182672966867476,-0.000917100154083714,-0.17736827457328197,0.0,0.0,0.0,0.0,0.0,0.0,0.0,0.0,0.0,-0.13406939701281137,0.004298916985604933,-0.00014607685443925403,0.0,0.0,0.0,0.0,0.0,0.0,0.0,0.0,0.0
2.563,71,2,563000000,base_footprint,-0.0038437486337932385,0.00022579284891013318,0.9981170247352248,0.061217477469528325,0.0,0.0,0.0,0.0,0.0,0.0,0.0,0.0,0.0,0.0022533407614407845,-0.00021170297593514365,-0.2993463623280463,0.0,0.0,0.0,0.0,0.0,0.0,0.0,0.0,0.0,0.13673081094990627,-0.09063029061615681,7.196095067750767e-06,0.0,0.0,0.0,0.0,0.0,0.0,0.0,0.0,0.0
2.597,72,2,597000000,base_footprint,-0.0038382108514159216,0.0002474953356320599,0.9977741379728163,0.06657309123153402,0.0,0.0,0.0,0.0,0.0,0.0,0.0,0.0,0.0,0.0027824927408125035,-0.0008877884348354277,-0.3846351558757589,0.0,0.0,0.0,0.0,0.0,0.0,0.0,0.0,0.0,0.2559640107514328,-0.13739268108365094,0.002731450249350291,0.0,0.0,0.0,0.0,0.0,0.0,0.0,0.0,0.0
2.6310000000000002,73,2,631000000,base_footprint,-0.0038444965062676122,0.00027311442494701174,0.9973419319165562,0.07276136403391334,0.0,0.0,0.0,0.0,0.0,0.0,0.0,0.0,0.0,0.002636957537377245,-0.0009508740629239653,-0.3509869001031635,0.0,0.0,0.0,0.0,0.0,0.0,0.0,0.0,0.0,0.07936562864905848,-0.10800259760784221,0.0007132255311203726,0.0,0.0,0.0,0.0,0.0,0.0,0.0,0.0,0.0
2.665,74,2,665000000,base_footprint,-0.0038423443115123686,0.0002956787557850297,0.9968902839194599,0.07870775559780575,0.0,0.0,0.0,0.0,0.0,0.0,0.0,0.0,0.0,0.0027334640298347654,-0.0005881533743715599,-0.35098930971362347,0.0,0.0,0.0,0.0,0.0,0.0,0.0,0.0,0.0,-0.022260111164564514,-0.07505258107341048,-0.0005292734840987714,0.0,0.0,0.0,0.0,0.0,0.0,0.0,0.0,0.0
2.698,75,2,699000000,base_footprint,-0.0038413194843591875,0.0003156536309705989,0.9964624320655245,0.08395097444023175,0.0,0.0,0.0,0.0,0.0,0.0,0.0,0.0,0.0,0.0016598378790107886,-0.0010625886185429768,-0.26310481763137455,0.0,0.0,0.0,0.0,0.0,0.0,0.0,0.0,0.0,-0.0435788566194201,-0.05903846547110905,0.0005241581066650833,0.0,0.0,0.0,0.0,0.0,0.0,0.0,0.0,0.0
2.732,76,2,733000000,base_footprint,-0.0038400190668359544,0.00033237820958296934,0.9960773952007266,0.08840229945215033,0.0,0.0,0.0,0.0,0.0,0.0,0.0,0.0,0.0,0.0018833227067511621,-0.0004343741383727906,-0.26304354797275104,0.0,0.0,0.0,0.0,0.0,0.0,0.0,0.0,0.0,-0.018791093985011824,-0.05535008183731076,-0.0009659697303698461,0.0,0.0,0.0,0.0,0.0,0.0,0.0,0.0,0.0
2.767,77,2,767000000,base_footprint,-0.0038392964102139117,0.00034911752368563313,0.9956723855513775,0.09285277901311503,0.0,0.0,0.0,0.0,0.0,0.0,0.0,0.0,0.0,0.0018492972770689819,-0.00044487574520447285,-0.2629166141045676,0.0,0.0,0.0,0.0,0.0,0.0,0.0,0.0,0.0,-0.020553210360938313,-0.05475641156115783,-0.00011952339427833135,0.0,0.0,0.0,0.0,0.0,0.0,0.0,0.0,0.0
2.801,78,2,801000000,base_footprint,-0.0038339845767046267,0.0003706888900928782,0.9952323159277632,0.09745665952141654,0.0,0.0,0.0,0.0,0.0,0.0,0.0,0.0,0.0,0.0017505315742876659,-0.0011110327634635325,-0.26006555936293574,0.0,0.0,0.0,0.0,0.0,0.0,0.0,0.0,0.0,-0.22132830488655314,0.025969166809833015,-0.000729129429932274,0.0,0.0,0.0,0.0,0.0,0.0,0.0,0.0,0.0
2.837,79,2,835000000,base_footprint,-0.003834107678887365,0.00038459518626452106,0.9948424962785045,0.1013585679812176,0.0,0.0,0.0,0.0,0.0,0.0,0.0,0.0,0.0,0.0011490759948435967,0.00014713812114748403,-0.2112852259006787,0.0,0.0,0.0,0.0,0.0,0.0,0.0,0.0,0.0,-0.1362963885909457,0.003859288135642444,-0.003239592906326028,0.0,0.0,0.0,0.0,0.0,0.0,0.0,0.0,0.0
2.869,80,2,869000000,base_footprint,-0.0038356729291865468,0.0003960808949225541,0.9944810210462152,0.10484574150618778,0.0,0.0,0.0,0.0,0.0,0.0,0.0,0.0,0.0,0.0014084047052774135,-0.000275761027828331,-0.2046568006586368,0.0,0.0,0.0,0.0,0.0,0.0,0.0,0.0,0.0,-0.03341695293258348,-0.033528814880007814,0.0008286440637141647,0.0,0.0,0.0,0.0,0.0,0.0,0.0,0.0,0.0
2.903,81,2,903000000,base_footprint,-0.0038308504476235344,0.00040879232144558835,0.994178729524553,0.10767456168766884,0.0,0.0,0.0,0.0,0.0,0.0,0.0,0.0,0.0,0.0007158117934790806,-0.0014606706516683801,-0.13465366945724686,0.0,0.0,0.0,0.0,0.0,0.0,0.0,0.0,0.0,-0.03981985576635472,-0.020443394824499354,0.0014434372146322377,0.0,0.0,0.0,0.0,0.0,0.0,0.0,0.0,0.0
2.9370000000000003,82,2,937000000,base_footprint,-0.003833260684969118,0.0004170054103361295,0.9939224219371187,0.11001523253468665,0.0,0.0,0.0,0.0,0.0,0.0,0.0,0.0,0.0,0.001015202117691738,-0.000304404389758074,-0.1380078233535755,0.0,0.0,0.0,0.0,0.0,0.0,0.0,0.0,0.0,-0.0037563607172588507,-0.030498143451529243,-0.0016347305029609119,0.0,0.0,0.0,0.0,0.0,0.0,0.0,0.0,0.0
2.97,83,2,971000000,base_footprint,-0.003831932449792561,0.0004268485619965537,0.9936608243640385,0.11235346108680817,0.0,0.0,0.0,0.0,0.0,0.0,0.0,0.0,0.0,0.001060814199333995,-0.00035304162718096613,-0.13832863354374195,0.0,0.0,0.0,0.0,0.0,0.0,0.0,0.0,0.0,-0.012405454286735573,-0.02617121287132132,-2.4468024413132903e-06,0.0,0.0,0.0,0.0,0.0,0.0,0.0,0.0,0.0
3.005,84,3,5000000,base_footprint,-0.0038304989031872237,0.00043897380537807814,0.9933176864201376,0.11534777165206153,0.0,0.0,0.0,0.0,0.0,0.0,0.0,0.0,0.0,0.0014981626968826372,-0.0001555494314225002,-0.19590800937682962,0.0,0.0,0.0,0.0,0.0,0.0,0.0,0.0,0.0,-0.0015865767752189334,-0.04001152550877745,-0.00019631074736045303,0.0,0.0,0.0,0.0,0.0,0.0,0.0,0.0,0.0
3.038,85,3,39000000,base_footprint,-0.0038304662889319186,0.0004533303271337302,0.9929241063712299,0.11868799857828272,0.0,0.0,0.0,0.0,0.0,0.0,0.0,0.0,0.0,0.001412276210239352,-0.0004717166903341575,-0.19995893509519932,0.0,0.0,0.0,0.0,0.0,0.0,0.0,0.0,0.0,-0.025296333772143048,-0.03307307700746693,0.0005071843957773851,0.0,0.0,0.0,0.0,0.0,0.0,0.0,0.0,0.0
3.073,86,3,73000000,base_footprint,-0.003823578091460016,0.00046172712378962275,0.9924888962176698,0.12227410986497975,0.0,0.0,0.0,0.0,0.0,0.0,0.0,0.0,0.0,0.001330075967063772,-0.000392165747147881,-0.22327739319546902,0.0,0.0,0.0,0.0,0.0,0.0,0.0,0.0,0.0,-0.06269105940076188,-0.017051434825308163,-0.00037963014554486896,0.0,0.0,0.0,0.0,0.0,0.0,0.0,0.0,0.0
3.107,87,3,107000000,base_footprint,-0.0038211866187045592,0.0004802025873126222,0.9918537909807548,0.1273233099452156,0.0,0.0,0.0,0.0,0.0,0.0,0.0,0.0,0.0,0.002487239605807448,-0.0012901929922631656,-0.36102170272996953,0.0,0.0,0.0,0.0,0.0,0.0,0.0,0.0,0.0,0.21809419364485635,-0.19198744599163153,0.0023970590339221255,0.0,0.0,0.0,0.0,0.0,0.0,0.0,0.0,0.0
3.141,88,3,141000000,base_footprint,-0.003817595705982602,0.0005018986609925638,0.9911058040573234,0.13302052181767376,0.0,0.0,0.0,0.0,0.0,0.0,0.0,0.0,0.0,0.0022522264657029874,-0.0008059393721169838,-0.31031127127269903,0.0,0.0,0.0,0.0,0.0,0.0,0.0,0.0,0.0,0.05419067043334068,-0.11866467059640941,0.0001453960086054473,0.0,0.0,0.0,0.0,0.0,0.0,0.0,0.0,0.0
3.175,89,3,175000000,base_footprint,-0.003818856294213447,0.0005236760201653277,0.9904219393285243,0.1380200137543648,0.0,0.0,0.0,0.0,0.0,0.0,0.0,0.0,0.0,0.002142508944360075,-0.0007346632486325976,-0.2958635422840935,0.0,0.0,0.0,0.0,0.0,0.0,0.0,0.0,0.0,-0.007191593945675765,-0.0729987164016818,-0.00018447639958920993,0.0,0.0,0.0,0.0,0.0,0.0,0.0,0.0,0.0
3.21,90,3,209000000,base_footprint,-0.0038146656308395976,0.0005433445350124316,0.9898092448322259,0.14234750418430256,0.0,0.0,0.0,0.0,0.0,0.0,0.0,0.0,0.0,0.0015441417093119145,-0.0004989789479928114,-0.1903630479371609,0.0,0.0,0.0,0.0,0.0,0.0,0.0,0.0,0.0,-0.3520431816365163,0.15716725160542955,-0.0028324464849612645,0.0,0.0,0.0,0.0,0.0,0.0,0.0,0.0,0.0
3.243,91,3,243000000,base_footprint,-0.0038123281303862454,0.0005517338180194804,0.9895042463802579,0.14445244248353295,0.0,0.0,0.0,0.0,0.0,0.0,0.0,0.0,0.0,0.00042984176042735437,-0.00039540251523579716,-0.06974593574258753,0.0,0.0,0.0,0.0,0.0,0.0,0.0,0.0,0.0,-0.27841937624329294,0.14934247388009558,-0.002059218615834639,0.0,0.0,0.0,0.0,0.0,0.0,0.0,0.0,0.0
3.277,92,3,277000000,base_footprint,-0.0038159852821120395,0.0005513883484107901,0.9893754816457888,0.14533165706541576,0.0,0.0,0.0,0.0,0.0,0.0,0.0,0.0,0.0,0.00018912509621048305,-4.63398332342681e-05,-0.050745008094318915,0.0,0.0,0.0,0.0,0.0,0.0,0.0,0.0,0.0,-0.04732476657694671,0.01817965800112699,-0.0010044468895214287,0.0,0.0,0.0,0.0,0.0,0.0,0.0,0.0,0.0
3.311,93,3,311000000,base_footprint,-0.0038175712326872545,0.0005505299989498808,0.989361567068412,0.1454263135561779,0.0,0.0,0.0,0.0,0.0,0.0,0.0,0.0,0.0,3.87965172751468e-05,0.00013062051189972293,0.009008141884975738,0.0,0.0,0.0,0.0,0.0,0.0,0.0,0.0,0.0,0.1497418831320475,-0.0999451030973367,0.001466263255015666,0.0,0.0,0.0,0.0,0.0,0.0,0.0,0.0,0.0
3.346,94,3,345000000,base_footprint,-0.0038094002981815525,0.0005533922998286519,0.9894596698913399,0.14475753481201376,0.0,0.0,0.0,0.0,0.0,0.0,0.0,0.0,0.0,-0.0003628286984420474,-6.740699360635594e-05,0.03851076152884303,0.0,0.0,0.0,0.0,0.0,0.0,0.0,0.0,0.0,0.06790966413725116,-0.0355968758107569,0.0009049886910353824,0.0,0.0,0.0,0.0,0.0,0.0,0.0,0.0,0.0
3.379,95,3,379000000,base_footprint,-0.0038090294021115518,0.0005527886958460685,0.9894958716878933,0.14450988074276372,0.0,0.0,0.0,0.0,0.0,0.0,0.0,0.0,0.0,-7.990245075815568e-06,-0.00017007610508860063,-0.01499208333599201,0.0,0.0,0.0,0.0,0.0,0.0,0.0,0.0,0.0,0.11943861451847414,-0.07402723543426892,0.0009665889009139086,0.0,0.0,0.0,0.0,0.0,0.0,0.0,0.0,0.0
3.4130000000000003,96,3,413000000,base_footprint,-0.003808621605578794,0.0005562110080308921,0.9893688155085253,0.1453772056755731,0.0,0.0,0.0,0.0,0.0,0.0,0.0,0.0,0.0,0.0006163179928341028,-0.0003092393163600827,-0.10155856254048905,0.0,0.0,0.0,0.0,0.0,0.0,0.0,0.0,0.0,0.2186881635352009,-0.15668891575847885,0.001852994433112685,0.0,0.0,0.0,0.0,0.0,0.0,0.0,0.0,0.0
3.447,97,3,447000000,base_footprint,-0.003813544016929695,0.0005616769424054956,0.9890891474301947,0.14726778275255561,0.0,0.0,0.0,0.0,0.0,0.0,0.0,0.0,0.0,0.0007263311660955495,-0.00038982083172853287,-0.11258833840765045,0.0,0.0,0.0,0.0,0.0,0.0,0.0,0.0,0.0,0.011505352081098288,-0.037688179425865206,0.0002426512510733576,0.0,0.0,0.0,0.0,0.0,0.0,0.0,0.0,0.0
3.482,98,3,481000000,base_footprint,-0.0038147622950722524,0.0005684847119844508,0.9888047240312918,0.14916548577725824,0.0,0.0,0.0,0.0,0.0,0.0,0.0,0.0,0.0,0.0007401456500703541,0.004489117241847462,-0.10919072200939575,0.0,0.0,0.0,0.0,0.0,0.0,0.0,0.0,0.0,-0.03368449418918901,-0.006510907448337232,-0.0008679044819969214,0.0,0.0,0.0,0.0,0.0,0.0,0.0,0.0,0.0
3.515,99,3,515000000,base_footprint,-0.003808632175237548,0.0005706331581528829,0.9886847429105377,0.14995882046307432,0.0,0.0,0.0,0.0,0.0,0.0,0.0,0.0,0.0,0.002725041255225185,-0.003468600091949853,-0.04469795800247227,0.0,0.0,0.0,0.0,0.0,0.0,0.0,0.0,0.0,-0.4383807465104914,0.28905953806632706,-0.006188746487518338,0.0,0.0,0.0,0.0,0.0,0.0,0.0,0.0,0.0
3.549,100,3,549000000,base_footprint,-0.0038127532350780854,0.0005806567125545625,0.9884186466294849,0.15170268536083428,0.0,0.0,0.0,0.0,0.0,0.0,0.0,0.0,0.0,0.0007274751782140976,-0.00041476420165027935,-0.1116597987409369,0.0,0.0,0.0,0.0,0.0,0.0,0.0,0.0,0.0,0.151595499072748,-0.13172508158548207,0.004574903663018875,0.0,0.0,0.0,0.0,0.0,0.0,0.0,0.0,0.0
3.583,101,3,583000000,base_footprint,-0.0038040641440683326,0.00058228302946778,0.9881022379673597,0.1537503085081677,0.0,0.0,0.0,0.0,0.0,0.0,0.0,0.0,0.0,-0.0018208270938540102,-0.0028169768270338573,-0.15628842029282364,0.0,0.0,0.0,0.0,0.0,0.0,0.0,0.0,0.0,-0.014064276364693082,-0.02089701816676268,0.004000360001390277,0.0,0.0,0.0,0.0,0.0,0.0,0.0,0.0,0.0
3.617,102,3,617000000,base_footprint,-0.003804526197168224,0.0005948217306597648,0.9875718785150669,0.15712083418103967,0.0,0.0,0.0,0.0,0.0,0.0,0.0,0.0,0.0,0.0013563955523272766,-0.0006024053418390815,-0.19656122948513777,0.0,0.0,0.0,0.0,0.0,0.0,0.0,0.0,0.0,0.054546413313605414,-0.09151313862383446,-0.003605961948221087,0.0,0.0,0.0,0.0,0.0,0.0,0.0,0.0,0.0
3.651,103,3,651000000,base_footprint,-0.00380300403993119,0.0006055822301158832,0.9871032351740172,0.16003866263945038,0.0,0.0,0.0,0.0,0.0,0.0,0.0,0.0,0.0,0.0009630182218139088,-0.00044887797264277267,-0.14600556688579683,0.0,0.0,0.0,0.0,0.0,0.0,0.0,0.0,0.0,0.06296040017385994,-0.09400747629997468,0.0005235498561208699,0.0,0.0,0.0,0.0,0.0,0.0,0.0,0.0,0.0
3.685,104,3,685000000,base_footprint,-0.0038101500848520017,0.0006220846996815295,0.986811007798826,0.16183056155752193,0.0,0.0,0.0,0.0,0.0,0.0,0.0,0.0,0.0,0.0010104275876331038,-0.0001617984940144934,-0.087981613533609,0.0,0.0,0.0,0.0,0.0,0.0,0.0,0.0,0.0,0.02190825510496977,-0.04732732564336659,-0.0005590274026593262,0.0,0.0,0.0,0.0,0.0,0.0,0.0,0.0,0.0
3.7190000000000003,105,3,719000000,base_footprint,-0.003805182698513711,0.000619573127072922,0.9866011682233511,0.16310509364851256,0.0,0.0,0.0,0.0,0.0,0.0,0.0,0.0,0.0,0.0003713286470730855,-0.00037584409233535514,-0.06125490864942691,0.0,0.0,0.0,0.0,0.0,0.0,0.0,0.0,0.0,-0.21074960396569153,0.1414316062181519,-0.0009577395059185322,0.0,0.0,0.0,0.0,0.0,0.0,0.0,0.0,0.0
3.753,106,3,753000000,base_footprint,-0.0038050113035777103,0.0006234956055555515,0.9864330901722163,0.16411852959218814,0.0,0.0,0.0,0.0,0.0,0.0,0.0,0.0,0.0,0.0003068546797117184,-0.00013942526567652702,-0.06021909243294438,0.0,0.0,0.0,0.0,0.0,0.0,0.0,0.0,0.0,-0.008919403759981457,-0.008466880933941344,-0.00035283494567606323,0.0,0.0,0.0,0.0,0.0,0.0,0.0,0.0,0.0
3.7880000000000003,107,3,787000000,base_footprint,-0.0038028706397403265,0.0006255236000863253,0.986282948140197,0.165018462915532,0.0,0.0,0.0,0.0,0.0,0.0,0.0,0.0,0.0,0.0009106666592492956,-7.526989650980272e-05,-0.012923846144527046,0.0,0.0,0.0,0.0,0.0,0.0,0.0,0.0,0.0,0.033640244757237786,-0.040935953607946246,0.0005441690266135521,0.0,0.0,0.0,0.0,0.0,0.0,0.0,0.0,0.0
3.821,108,3,821000000,base_footprint,-0.003797677022553689,0.0006277423915016781,0.9864431831901881,0.1640580078092243,0.0,0.0,0.0,0.0,0.0,0.0,0.0,0.0,0.0,-0.0005598324169838422,8.262374139930059e-05,0.06410207544917355,0.0,0.0,0.0,0.0,0.0,0.0,0.0,0.0,0.0,0.14476046442292625,-0.09831131113613864,0.001432608085173565,0.0,0.0,0.0,0.0,0.0,0.0,0.0,0.0,0.0
3.855,109,3,855000000,base_footprint,-0.003805777127054096,0.0006218303821934153,0.9865586942268338,0.16336178326915923,0.0,0.0,0.0,0.0,0.0,0.0,0.0,0.0,0.0,-0.000500826635607326,-6.616341441528985e-05,0.030698211429988496,0.0,0.0,0.0,0.0,0.0,0.0,0.0,0.0,0.0,0.0756733757043046,-0.04697209099261269,0.0007117551353836551,0.0,0.0,0.0,0.0,0.0,0.0,0.0,0.0,0.0
3.8890000000000002,110,3,889000000,base_footprint,-0.003811710077329734,0.0006181871105502008,0.9866374621219437,0.1628852573087966,0.0,0.0,0.0,0.0,0.0,0.0,0.0,0.0,0.0,-0.0011167590173917514,-0.001751690804696838,0.014635942200994501,0.0,0.0,0.0,0.0,0.0,0.0,0.0,0.0,0.0,-0.15210272768171684,0.12474157654421299,0.0011802715589500975,0.0,0.0,0.0,0.0,0.0,0.0,0.0,0.0,0.0
3.9290000000000003,111,3,923000000,base_footprint,-0.0038037566064461023,0.0006227556708300773,0.9865778757798497,0.16324594522613095,0.0,0.0,0.0,0.0,0.0,0.0,0.0,0.0,0.0,9.86630145679365e-05,-0.00016423198357404245,-0.027192949208439603,0.0,0.0,0.0,0.0,0.0,0.0,0.0,0.0,0.0,-0.1038395569060434,0.0746667511492774,-0.0036353974482575737,0.0,0.0,0.0,0.0,0.0,0.0,0.0,0.0,0.0
3.957,112,3,957000000,base_footprint,-0.003803537728267276,0.0006251634122648922,0.9865015151794488,0.16370675862684836,0.0,0.0,0.0,0.0,0.0,0.0,0.0,0.0,0.0,0.00018069281020777374,-0.00018259853209620067,-0.02739004061397955,0.0,0.0,0.0,0.0,0.0,0.0,0.0,0.0,0.0,-0.002645225394466495,-0.0051133961442352705,-0.00014773928485715856,0.0,0.0,0.0,0.0,0.0,0.0,0.0,0.0,0.0
3.991,113,3,991000000,base_footprint,-0.003802919155782759,0.0006294440605882448,0.9864035738781884,0.16429586436184737,0.0,0.0,0.0,0.0,0.0,0.0,0.0,0.0,0.0,0.00152238833240572,0.001910098725501935,-0.05736743488448554,0.0,0.0,0.0,0.0,0.0,0.0,0.0,0.0,0.0,0.10711968944057362,-0.09204317367341187,-0.0017893923357012618,0.0,0.0,0.0,0.0,0.0,0.0,0.0,0.0,0.0
4.025,114,4,25000000,base_footprint,-0.0038040499912237826,0.0006311131020538421,0.986323875471502,0.16477361310232216,0.0,0.0,0.0,0.0,0.0,0.0,0.0,0.0,0.0,-3.026729708632641e-05,-0.00015646375795188363,-0.010417632356415671,0.0,0.0,0.0,0.0,0.0,0.0,0.0,0.0,0.0,0.07441933108613225,-0.06567186205165851,0.0038769246384121343,0.0,0.0,0.0,0.0,0.0,0.0,0.0,0.0,0.0
4.059,115,4,59000000,base_footprint,-0.003804676944703407,0.0006308853064212482,0.9862965932815924,0.16493682577945362,0.0,0.0,0.0,0.0,0.0,0.0,0.0,0.0,0.0,-0.0007286445145714635,-0.00021481039063653957,-0.017698935294251282,0.0,0.0,0.0,0.0,0.0,0.0,0.0,0.0,0.0,-0.012086049779118464,0.00636290523020188,0.0008020319141309961,0.0,0.0,0.0,0.0,0.0,0.0,0.0,0.0,0.0
4.093,116,4,93000000,base_footprint,-0.003799211226898015,0.0006281846103931516,0.986183018342473,0.16561469050503375,0.0,0.0,0.0,0.0,0.0,0.0,0.0,0.0,0.0,0.0006139971472672222,-4.29651111420587e-05,-0.08198078146554871,0.0,0.0,0.0,0.0,0.0,0.0,0.0,0.0,0.0,0.0700067380992487,-0.06492595248767072,-0.0010437618436203522,0.0,0.0,0.0,0.0,0.0,0.0,0.0,0.0,0.0
4.128,117,4,127000000,base_footprint,-0.0038018615072415874,0.0006354035839367878,0.985981660173147,0.16680919613010028,0.0,0.0,0.0,0.0,0.0,0.0,0.0,0.0,0.0,0.00018516473136157713,-0.00040085370336728115,-0.06847952602643188,0.0,0.0,0.0,0.0,0.0,0.0,0.0,0.0,0.0,0.012573835235091906,-0.030455977234824697,0.0008791907105932696,0.0,0.0,0.0,0.0,0.0,0.0,0.0,0.0,0.0
4.161,118,4,161000000,base_footprint,-0.0038015962304890844,0.0006391439821146819,0.9857882504473685,0.16794839874493261,0.0,0.0,0.0,0.0,0.0,0.0,0.0,0.0,0.0,0.0004264100801407106,-0.00022077990684485588,-0.06822602734250371,0.0,0.0,0.0,0.0,0.0,0.0,0.0,0.0,0.0,-0.008136650148406354,-0.012728806723678312,-0.0004079648024277178,0.0,0.0,0.0,0.0,0.0,0.0,0.0,0.0,0.0
4.195,119,4,195000000,base_footprint,-0.0037963916638916718,0.0006464612900447842,0.9855660289112408,0.16924766513681197,0.0,0.0,0.0,0.0,0.0,0.0,0.0,0.0,0.0,-0.0011088215488756533,-0.001809329957505758,-0.09256671086130043,0.0,0.0,0.0,0.0,0.0,0.0,0.0,0.0,0.0,-0.18444263542647227,0.12861925634466534,0.0009907378787111613,0.0,0.0,0.0,0.0,0.0,0.0,0.0,0.0,0.0
4.23,120,4,229000000,base_footprint,-0.0037984887075734742,0.0006438448025811133,0.9854394753685359,0.16998293247497925,0.0,0.0,0.0,0.0,0.0,0.0,0.0,0.0,0.0,-0.00032835257291658436,-0.0008274725762692575,0.00600480253001628,0.0,0.0,0.0,0.0,0.0,0.0,0.0,0.0,0.0,0.02484780933705604,-0.03462737450130761,-0.0009833556167465167,0.0,0.0,0.0,0.0,0.0,0.0,0.0,0.0,0.0
4.264,121,4,263000000,base_footprint,-0.0038035427642879828,0.0006413751952668147,0.9856272979996724,0.16889035241293177,0.0,0.0,0.0,0.0,0.0,0.0,0.0,0.0,0.0,-0.0006541150877500451,0.0003720025090094977,0.08083859164049334,0.0,0.0,0.0,0.0,0.0,0.0,0.0,0.0,0.0,0.11975551991495924,-0.07918892764113115,-0.0005393842013125335,0.0,0.0,0.0,0.0,0.0,0.0,0.0,0.0,0.0
4.296,122,4,297000000,base_footprint,-0.0037961806415091363,0.000641484211783107,0.98583151011178,0.1676943981809476,0.0,0.0,0.0,0.0,0.0,0.0,0.0,0.0,0.0,-0.0005611218533142701,1.708311500011139e-05,0.050913424844667876,0.0,0.0,0.0,0.0,0.0,0.0,0.0,0.0,0.0,-0.01995308459486715,0.036129206126377954,0.00032938539387318414,0.0,0.0,0.0,0.0,0.0,0.0,0.0,0.0,0.0
4.332,123,4,331000000,base_footprint,-0.003802134029979199,0.0006362220837740426,0.9859345735345131,0.16708726973529758,0.0,0.0,0.0,0.0,0.0,0.0,0.0,0.0,0.0,-0.0005622020163950108,-0.0006403388682636433,0.033774745092712534,0.0,0.0,0.0,0.0,0.0,0.0,0.0,0.0,0.0,0.040644003615901196,-0.022344110583038295,0.0012058278745654188,0.0,0.0,0.0,0.0,0.0,0.0,0.0,0.0,0.0
4.366,124,4,365000000,base_footprint,-0.003801979079128713,0.0006346893349368,0.9860274773491862,0.16653815189598503,0.0,0.0,0.0,0.0,0.0,0.0,0.0,0.0,0.0,-0.0003748925376170293,5.354717353140529e-06,0.03294120583821751,0.0,0.0,0.0,0.0,0.0,0.0,0.0,0.0,0.0,0.0068569765948879625,0.003687230734307922,-0.0009073918587261393,0.0,0.0,0.0,0.0,0.0,0.0,0.0,0.0,0.0
4.399,125,4,399000000,base_footprint,-0.003807868237166022,0.0006314365808986919,0.9861386497166689,0.16587846443199888,0.0,0.0,0.0,0.0,0.0,0.0,0.0,0.0,0.0,-0.000375439261001746,-0.0004004395145148604,0.08135780445157938,0.0,0.0,0.0,0.0,0.0,0.0,0.0,0.0,0.0,-0.2686518725966631,0.22171199454435397,-0.0017717815784297117,0.0,0.0,0.0,0.0,0.0,0.0,0.0,0.0,0.0
4.433,126,4,433000000,base_footprint,-0.003802264530211527,0.0006297879391168206,0.9862974086659443,0.16493200965985153,0.0,0.0,0.0,0.0,0.0,0.0,0.0,0.0,0.0,-0.00032054383009041504,-0.00040665273525524327,0.03283787261697316,0.0,0.0,0.0,0.0,0.0,0.0,0.0,0.0,0.0,0.014913635904901714,0.003988217078237663,-0.00024054249171069977,0.0,0.0,0.0,0.0,0.0,0.0,0.0,0.0,0.0
4.467,127,4,467000000,base_footprint,-0.003803322080463249,0.0006283089755411121,0.9863878198892942,0.16439041560574247,0.0,0.0,0.0,0.0,0.0,0.0,0.0,0.0,0.0,-0.00020370646018267295,-6.810074435968309e-05,0.03228985258523271,0.0,0.0,0.0,0.0,0.0,0.0,0.0,0.0,0.0,0.004756167344994989,0.004789243458303594,-0.0005061321812063205,0.0,0.0,0.0,0.0,0.0,0.0,0.0,0.0,0.0
4.501,128,4,501000000,base_footprint,-0.0038038418495447805,0.0006288292684617341,0.9864194642950577,0.1642004135828721,0.0,0.0,0.0,0.0,0.0,0.0,0.0,0.0,0.0,-0.00016183848571766965,-0.00022159711564157105,-0.001201428062701702,0.0,0.0,0.0,0.0,0.0,0.0,0.0,0.0,0.0,0.11119490522966272,-0.08220260040958352,0.0015083244357929394,0.0,0.0,0.0,0.0,0.0,0.0,0.0,0.0,0.0
4.535,129,4,535000000,base_footprint,-0.003803604395341459,0.0006275358045032721,0.9863676909080725,0.16451114589928278,0.0,0.0,0.0,0.0,0.0,0.0,0.0,0.0,0.0,-0.0019167983008683664,-0.0003522500649124679,-0.03933127385453651,0.0,0.0,0.0,0.0,0.0,0.0,0.0,0.0,0.0,0.024543294710193148,-0.024559650305273774,0.0024844052837650157,0.0,0.0,0.0,0.0,0.0,0.0,0.0,0.0,0.0
4.569,130,4,569000000,base_footprint,-0.003799205303423645,0.0006263781912830928,0.986244500783935,0.16524817204093636,0.0,0.0,0.0,0.0,0.0,0.0,0.0,0.0,0.0,0.00018154457883573218,-0.00026742060266728,-0.040601775085849494,0.0,0.0,0.0,0.0,0.0,0.0,0.0,0.0,0.0,-0.006710709211084572,-0.005821111655613544,-0.0024703415978096902,0.0,0.0,0.0,0.0,0.0,0.0,0.0,0.0,0.0
4.602,131,4,603000000,base_footprint,-0.0037991331610730014,0.0006268893675928691,0.9862053482189053,0.1654816749412846,0.0,0.0,0.0,0.0,0.0,0.0,0.0,0.0,0.0,-0.00020239090541459935,-0.00010683661499105026,0.014589702808458243,0.0,0.0,0.0,0.0,0.0,0.0,0.0,0.0,0.0,0.054660679260260386,-0.04772622224259664,0.00035966597345805137,0.0,0.0,0.0,0.0,0.0,0.0,0.0,0.0,0.0
4.6370000000000005,132,4,637000000,base_footprint,-0.0038030499377026817,0.0006265035663472091,0.9863331880612171,0.16471789955389984,0.0,0.0,0.0,0.0,0.0,0.0,0.0,0.0,0.0,-0.0006837964722076705,-6.288268618826067e-05,0.05719455126555788,0.0,0.0,0.0,0.0,0.0,0.0,0.0,0.0,0.0,0.07717358218490775,-0.048327496823095575,0.0007055095980945526,0.0,0.0,0.0,0.0,0.0,0.0,0.0,0.0,0.0
4.671,133,4,671000000,base_footprint,-0.0038043864162615815,0.0006223508151769292,0.986494303167149,0.16375020348756694,0.0,0.0,0.0,0.0,0.0,0.0,0.0,0.0,0.0,-0.0005037654966253687,9.973918156094278e-05,0.05764043706848278,0.0,0.0,0.0,0.0,0.0,0.0,0.0,0.0,0.0,0.008275727569030465,0.009539973545178968,-0.00025893296111392664,0.0,0.0,0.0,0.0,0.0,0.0,0.0,0.0,0.0
4.702,134,4,705000000,base_footprint,-0.0038055298969732042,0.0006180008548623345,0.9866685066634678,0.16269724636769095,0.0,0.0,0.0,0.0,0.0,0.0,0.0,0.0,0.0,-0.0005566259421719883,0.0001437102320090534,0.06441975771951441,0.0,0.0,0.0,0.0,0.0,0.0,0.0,0.0,0.0,0.0072914706222826815,0.012325567618300332,-2.7207462865152533e-05,0.0,0.0,0.0,0.0,0.0,0.0,0.0,0.0,0.0
4.739,135,4,739000000,base_footprint,-0.0038072697435141086,0.0006135491784848713,0.9868471749572675,0.16160996730822622,0.0,0.0,0.0,0.0,0.0,0.0,0.0,0.0,0.0,-0.000629555978799926,0.0002580591470193495,0.06436127601421052,0.0,0.0,0.0,0.0,0.0,0.0,0.0,0.0,0.0,0.00941999789783364,0.010766035923423345,-3.0057930137141818e-05,0.0,0.0,0.0,0.0,0.0,0.0,0.0,0.0,0.0
4.773,136,4,773000000,base_footprint,-0.0038053496352549775,0.0006110527464763957,0.9870352727595177,0.16045721005065194,0.0,0.0,0.0,0.0,0.0,0.0,0.0,0.0,0.0,-0.0007465686516773401,-0.0007482419287604116,0.07444814763134423,0.0,0.0,0.0,0.0,0.0,0.0,0.0,0.0,0.0,-0.011553517318503789,0.027268037179245568,0.0014915384774802818,0.0,0.0,0.0,0.0,0.0,0.0,0.0,0.0,0.0
4.807,137,4,807000000,base_footprint,-0.00380682165574446,0.0006060473136719664,0.987233856135404,0.15923082024393198,0.0,0.0,0.0,0.0,0.0,0.0,0.0,0.0,0.0,-0.0007651201014505007,-0.0002688294268021618,0.0751539850510916,0.0,0.0,0.0,0.0,0.0,0.0,0.0,0.0,0.0,0.02238136412077558,0.002743893040695481,-0.0005926023771145708,0.0,0.0,0.0,0.0,0.0,0.0,0.0,0.0,0.0
4.841,138,4,841000000,base_footprint,-0.0038076051597918086,0.00060166406926325,0.9874340022957176,0.15798490830948295,0.0,0.0,0.0,0.0,0.0,0.0,0.0,0.0,0.0,-0.0006956533739310366,0.00011951217785148804,0.07456726627120758,0.0,0.0,0.0,0.0,0.0,0.0,0.0,0.0,0.0,0.011663940917158246,0.011530555871807997,-0.0004857183191903215,0.0,0.0,0.0,0.0,0.0,0.0,0.0,0.0,0.0
4.875,139,4,875000000,base_footprint,-0.0038080137221711144,0.0005975744675641652,0.9876328412939072,0.15673708155370134,0.0,0.0,0.0,0.0,0.0,0.0,0.0,0.0,0.0,-0.0005834359997682345,7.100725808107401e-05,0.07452529705260656,0.0,0.0,0.0,0.0,0.0,0.0,0.0,0.0,0.0,0.0104529918368803,0.012626895953818886,-6.372735363703924e-05,0.0,0.0,0.0,0.0,0.0,0.0,0.0,0.0,0.0
4.909,140,4,909000000,base_footprint,-0.00380898115396973,0.0005912983425201731,0.9879216084016895,0.15490654499361173,0.0,0.0,0.0,0.0,0.0,0.0,0.0,0.0,0.0,-0.0008218515346409928,0.0002258823152767648,0.11685911069145229,0.0,0.0,0.0,0.0,0.0,0.0,0.0,0.0,0.0,0.005214649267025957,0.02515362193900388,-0.00012841788215789236,0.0,0.0,0.0,0.0,0.0,0.0,0.0,0.0,0.0
4.943,141,4,943000000,base_footprint,-0.003810547455005003,0.0005844708519966264,0.9882262356698213,0.15295112047896628,0.0,0.0,0.0,0.0,0.0,0.0,0.0,0.0,0.0,-0.000794009953570017,0.00013885685145578394,0.11631698086049347,0.0,0.0,0.0,0.0,0.0,0.0,0.0,0.0,0.0,0.014791428440993742,0.020755235353147106,9.030882918557749e-05,0.0,0.0,0.0,0.0,0.0,0.0,0.0,0.0,0.0
4.977,142,4,977000000,base_footprint,-0.0038129588699431123,0.0005782661866730461,0.9885239643027472,0.15101489645745017,0.0,0.0,0.0,0.0,0.0,0.0,0.0,0.0,0.0,-0.0005959798413843999,0.00014627520493073966,0.11334680144865075,0.0,0.0,0.0,0.0,0.0,0.0,0.0,0.0,0.0,0.010918142494267903,0.024215381737143066,-8.634188993364687e-05,0.0,0.0,0.0,0.0,0.0,0.0,0.0,0.0,0.0
5.011,143,5,11000000,base_footprint,-0.0038140240225943843,0.0005759327769783148,0.9886223168033357,0.1503696652938906,0.0,0.0,0.0,0.0,0.0,0.0,0.0,0.0,0.0,-0.00037103087146443973,-0.0005472851698446523,0.0006188679973547187,0.0,0.0,0.0,0.0,0.0,0.0,0.0,0.0,0.0,0.04864643134150394,-0.02293013795825495,0.0016132153598778076,0.0,0.0,0.0,0.0,0.0,0.0,0.0,0.0,0.0
5.045,144,5,45000000,base_footprint,-0.0038111560422418264,0.0005734645988134866,0.9885959876538822,0.15054274948538965,0.0,0.0,0.0,0.0,0.0,0.0,0.0,0.0,0.0,0.0008061344521714663,0.00024687622635217505,-0.006287610055825607,0.0,0.0,0.0,0.0,0.0,0.0,0.0,0.0,0.0,-0.012241372320398671,0.005838071141913848,-0.002130542494761915,0.0,0.0,0.0,0.0,0.0,0.0,0.0,0.0,0.0
5.079,145,5,79000000,base_footprint,-0.003811053028102955,0.0005733304439594776,0.9885764566315275,0.15067095460264593,0.0,0.0,0.0,0.0,0.0,0.0,0.0,0.0,0.0,3.532581549937378e-05,-0.00010248617793222788,-0.007939741974331145,0.0,0.0,0.0,0.0,0.0,0.0,0.0,0.0,0.0,-0.002699004203115738,-0.0001673924645900461,0.0009246617524913846,0.0,0.0,0.0,0.0,0.0,0.0,0.0,0.0,0.0
5.114,146,5,113000000,base_footprint,-0.003811446805431682,0.0005695178270456252,0.9887070465487482,0.14981163048156695,0.0,0.0,0.0,0.0,0.0,0.0,0.0,0.0,0.0,-0.00017232262570386842,0.0006031698862235563,0.09486858415422832,0.0,0.0,0.0,0.0,0.0,0.0,0.0,0.0,0.0,-0.2946332361641313,0.2145531107541967,-0.0034216058485117148,0.0,0.0,0.0,0.0,0.0,0.0,0.0,0.0,0.0
5.147,147,5,147000000,base_footprint,-0.003812768543794419,0.0005685662748923699,0.9887329138140968,0.14964078544671083,0.0,0.0,0.0,0.0,0.0,0.0,0.0,0.0,0.0,6.579819154548327e-05,0.00010902815569176967,-0.0014459519537550782,0.0,0.0,0.0,0.0,0.0,0.0,0.0,0.0,0.0,0.021770538051580884,-0.011189293205535241,0.0007057907461558467,0.0,0.0,0.0,0.0,0.0,0.0,0.0,0.0,0.0
5.183,148,5,181000000,base_footprint,-0.0038143947772755235,0.0005698018102758892,0.9887296139456787,0.1496625411557923,0.0,0.0,0.0,0.0,0.0,0.0,0.0,0.0,0.0,0.003734462151760091,0.0005088509218565719,-0.006905116383204401,0.0,0.0,0.0,0.0,0.0,0.0,0.0,0.0,0.0,-0.01756135559223796,0.011899537995942955,0.00174425101690592,0.0,0.0,0.0,0.0,0.0,0.0,0.0,0.0,0.0
5.215,149,5,215000000,base_footprint,-0.003807779006032228,0.0005720421058807197,0.9887407492926342,0.1495891181707768,0.0,0.0,0.0,0.0,0.0,0.0,0.0,0.0,0.0,-0.0003773392033670955,-0.00027018081078791946,0.031155714679174724,0.0,0.0,0.0,0.0,0.0,0.0,0.0,0.0,0.0,-0.1639816467661657,0.11353252617657654,-0.002483162705261191,0.0,0.0,0.0,0.0,0.0,0.0,0.0,0.0,0.0
5.249,150,5,249000000,base_footprint,-0.0038129487949553026,0.0005660583470737971,0.9888598145705958,0.14879989289929563,0.0,0.0,0.0,0.0,0.0,0.0,0.0,0.0,0.0,-0.0007016239801361949,0.001166814264894298,0.05548238957582026,0.0,0.0,0.0,0.0,0.0,0.0,0.0,0.0,0.0,-0.047551318681897506,0.04217695919653911,-0.002843603280723892,0.0,0.0,0.0,0.0,0.0,0.0,0.0,0.0,0.0
5.283,151,5,283000000,base_footprint,-0.0038038153183869213,0.0005655607030977779,0.9890376457404114,0.14761350357734626,0.0,0.0,0.0,0.0,0.0,0.0,0.0,0.0,0.0,-0.0019768349229416426,-0.008997895710924169,0.10247165510142281,0.0,0.0,0.0,0.0,0.0,0.0,0.0,0.0,0.0,-0.024780291253085996,0.03534019745738358,0.013690526939668926,0.0,0.0,0.0,0.0,0.0,0.0,0.0,0.0,0.0
5.317,152,5,317000000,base_footprint,-0.003810614446041177,0.0005526373865518043,0.9894707534306313,0.14468172626452028,0.0,0.0,0.0,0.0,0.0,0.0,0.0,0.0,0.0,-0.0019264148120408668,0.0012334800815085663,0.19503114882746506,0.0,0.0,0.0,0.0,0.0,0.0,0.0,0.0,0.0,0.3162541617795345,-0.16972960830934308,-0.009966542901229341,0.0,0.0,0.0,0.0,0.0,0.0,0.0,0.0,0.0
5.352,153,5,351000000,base_footprint,-0.0038102248943317667,0.000547013171636674,0.9897326892093697,0.14287892382445289,0.0,0.0,0.0,0.0,0.0,0.0,0.0,0.0,0.0,-0.0005064818611939068,1.4885878538397308e-05,0.05304052711399787,0.0,0.0,0.0,0.0,0.0,0.0,0.0,0.0,0.0,0.18203389954256738,-0.0884491146925569,0.002175120642243243,0.0,0.0,0.0,0.0,0.0,0.0,0.0,0.0,0.0
5.385,154,5,385000000,base_footprint,-0.0038231955316718374,0.0005440494729961422,0.9897934048524473,0.14245737220901256,0.0,0.0,0.0,0.0,0.0,0.0,0.0,0.0,0.0,0.0006728972182773393,0.0004980689016622546,0.06493489600862244,0.0,0.0,0.0,0.0,0.0,0.0,0.0,0.0,0.0,0.06182561724581847,-0.03319554832328556,0.00045670278962361456,0.0,0.0,0.0,0.0,0.0,0.0,0.0,0.0,0.0
5.4190000000000005,155,5,419000000,base_footprint,-0.0038172338437469284,0.0005393731968309618,0.9899664441812343,0.14125005202653887,0.0,0.0,0.0,0.0,0.0,0.0,0.0,0.0,0.0,-0.0005010072471839581,1.5532707853781042e-05,0.07133687877006505,0.0,0.0,0.0,0.0,0.0,0.0,0.0,0.0,0.0,0.02098936070482252,0.005405901188870731,5.677849918604805e-05,0.0,0.0,0.0,0.0,0.0,0.0,0.0,0.0,0.0
5.453,156,5,453000000,base_footprint,-0.003819054109084316,0.0005358592721579188,0.9901346253294905,0.14006623934475437,0.0,0.0,0.0,0.0,0.0,0.0,0.0,0.0,0.0,-0.00027886190769925055,4.296839819674507e-05,0.06881256980026239,0.0,0.0,0.0,0.0,0.0,0.0,0.0,0.0,0.0,0.005054791767750722,0.015379996318996675,-0.00011810674278522067,0.0,0.0,0.0,0.0,0.0,0.0,0.0,0.0,0.0
5.486,157,5,487000000,base_footprint,-0.003815439076872022,0.0005286615309259144,0.990261170820761,0.139168877649897,0.0,0.0,0.0,0.0,0.0,0.0,0.0,0.0,0.0,-0.00011268964434692596,0.0014603340865143978,0.018931533388863556,0.0,0.0,0.0,0.0,0.0,0.0,0.0,0.0,0.0,0.002793702356990021,0.012194985556236345,-0.00104144700722677,0.0,0.0,0.0,0.0,0.0,0.0,0.0,0.0,0.0
5.527,158,5,521000000,base_footprint,-0.0038175299557028546,0.0005280533314502245,0.9903165978782653,0.13877385773817275,0.0,0.0,0.0,0.0,0.0,0.0,0.0,0.0,0.0,0.00041483502744252135,0.000217679195566549,0.028839686689460308,0.0,0.0,0.0,0.0,0.0,0.0,0.0,0.0,0.0,0.020581465707822637,-0.007261887961397465,0.0006720491658233171,0.0,0.0,0.0,0.0,0.0,0.0,0.0,0.0,0.0
5.557,159,5,555000000,base_footprint,-0.003817830720576278,0.0005257737799574529,0.9903819731330153,0.1383065256004813,0.0,0.0,0.0,0.0,0.0,0.0,0.0,0.0,0.0,-0.00018708566550463776,-8.558905535678701e-05,0.02743016583575724,0.0,0.0,0.0,0.0,0.0,0.0,0.0,0.0,0.0,0.0018649126024710425,0.00602571038171649,0.0008007273378565884,0.0,0.0,0.0,0.0,0.0,0.0,0.0,0.0,0.0
5.59,160,5,589000000,base_footprint,-0.0038183510761872963,0.0005234242024627389,0.9904466610604447,0.13784251091872932,0.0,0.0,0.0,0.0,0.0,0.0,0.0,0.0,0.0,-0.0002506897240972397,-2.0410657253193076e-05,0.027300372589586144,0.0,0.0,0.0,0.0,0.0,0.0,0.0,0.0,0.0,0.004201885446221948,0.004498867948049682,-9.912485436556351e-05,0.0,0.0,0.0,0.0,0.0,0.0,0.0,0.0,0.0
5.623,161,5,623000000,base_footprint,-0.0038213658526326183,0.0005265147005038778,0.990502481609387,0.13744072857394402,0.0,0.0,0.0,0.0,0.0,0.0,0.0,0.0,0.0,-0.0009583652708899965,-0.0013555263484031006,0.002502817593944105,0.0,0.0,0.0,0.0,0.0,0.0,0.0,0.0,0.0,-0.15949731353014993,0.10468164346482497,0.0008392413482776328,0.0,0.0,0.0,0.0,0.0,0.0,0.0,0.0,0.0
5.657,162,5,657000000,base_footprint,-0.0038203368263029108,0.0005207102406360684,0.990516504101265,0.1373396846886856,0.0,0.0,0.0,0.0,0.0,0.0,0.0,0.0,0.0,-0.00027890409160867584,0.0002648175701037084,0.018377089194369048,0.0,0.0,0.0,0.0,0.0,0.0,0.0,0.0,0.0,-0.12486841879118668,0.0775755752652527,-0.0038150275875005906,0.0,0.0,0.0,0.0,0.0,0.0,0.0,0.0,0.0
5.691,163,5,691000000,base_footprint,-0.0038159988134445102,0.0005218926346007705,0.9905934559821332,0.1367836640337843,0.0,0.0,0.0,0.0,0.0,0.0,0.0,0.0,0.0,0.0006888681461881163,0.0018818559757927892,0.08701733014058474,0.0,0.0,0.0,0.0,0.0,0.0,0.0,0.0,0.0,0.016110660113057312,-0.002229214013593792,-0.0016864429965690324,0.0,0.0,0.0,0.0,0.0,0.0,0.0,0.0,0.0
5.725,164,5,725000000,base_footprint,-0.0038231551913943977,0.0005109823383346438,0.9908253024456447,0.13509382818963014,0.0,0.0,0.0,0.0,0.0,0.0,0.0,0.0,0.0,-0.0009692025075548756,0.0002876526023585086,0.10331762588450104,0.0,0.0,0.0,0.0,0.0,0.0,0.0,0.0,0.0,-0.026308880755651604,0.040413418578103606,0.0018531748224351785,0.0,0.0,0.0,0.0,0.0,0.0,0.0,0.0,0.0
5.75,165,5,759000000,base_footprint,-0.0038185424300348643,0.000507644601910981,0.9910714731984407,0.13327601450726465,0.0,0.0,0.0,0.0,0.0,0.0,0.0,0.0,0.0,-0.0009701432283256033,-0.0003368618383363485,0.10926914080015028,0.0,0.0,0.0,0.0,0.0,0.0,0.0,0.0,0.0,-0.0014448595540812637,0.026748536580919923,0.0009520424893085332,0.0,0.0,0.0,0.0,0.0,0.0,0.0,0.0,0.0
5.793,166,5,793000000,base_footprint,-0.0038170007122445278,0.0005022705549602168,0.9913186160489823,0.13142518672074593,0.0,0.0,0.0,0.0,0.0,0.0,0.0,0.0,0.0,-0.0009108995493018005,0.0003224613121800084,0.1249213537354802,0.0,0.0,0.0,0.0,0.0,0.0,0.0,0.0,0.0,0.1408340184174478,-0.055998108326179255,0.00013101769458287904,0.0,0.0,0.0,0.0,0.0,0.0,0.0,0.0,0.0
5.827,167,5,827000000,base_footprint,-0.003817433548175213,0.0004972012956736666,0.9915050178963127,0.1300114590273078,0.0,0.0,0.0,0.0,0.0,0.0,0.0,0.0,0.0,-0.0005543744183851975,0.0006533723621511781,0.04044992867577981,0.0,0.0,0.0,0.0,0.0,0.0,0.0,0.0,0.0,0.200534145920669,-0.09349578079922859,0.0005743883205171136,0.0,0.0,0.0,0.0,0.0,0.0,0.0,0.0,0.0
5.86,168,5,861000000,base_footprint,-0.0038235543971679273,0.0004928260509384878,0.9915889475928344,0.1293696122201444,0.0,0.0,0.0,0.0,0.0,0.0,0.0,0.0,0.0,-0.00028552602713856936,-5.293927356066107e-05,0.03832630022263879,0.0,0.0,0.0,0.0,0.0,0.0,0.0,0.0,0.0,0.009341571789743252,0.003786901413178719,0.0013670317847478148,0.0,0.0,0.0,0.0,0.0,0.0,0.0,0.0,0.0
5.895,169,5,895000000,base_footprint,-0.0038238540055496807,0.0004907737315601924,0.9916774675327809,0.1286893067409223,0.0,0.0,0.0,0.0,0.0,0.0,0.0,0.0,0.0,-0.00014454281835462603,0.0001389391289455067,0.04335710854607068,0.0,0.0,0.0,0.0,0.0,0.0,0.0,0.0,0.0,0.0032614912202111705,0.008713830574382398,-0.00035049057639308757,0.0,0.0,0.0,0.0,0.0,0.0,0.0,0.0,0.0
5.928,170,5,929000000,base_footprint,-0.003825722510067558,0.0004893753011287059,0.9917695010401995,0.1279780495458679,0.0,0.0,0.0,0.0,0.0,0.0,0.0,0.0,0.0,-5.814181081886554e-05,1.1391706324852515e-05,0.03988479514261889,0.0,0.0,0.0,0.0,0.0,0.0,0.0,0.0,0.0,-0.0004057445506456573,0.011515866933473033,0.00012409127395563192,0.0,0.0,0.0,0.0,0.0,0.0,0.0,0.0,0.0
5.963,171,5,963000000,base_footprint,-0.0038200086423230374,0.0004814726688898891,0.9918297904080347,0.12751016656406633,0.0,0.0,0.0,0.0,0.0,0.0,0.0,0.0,0.0,3.304459982879963e-05,0.0002373958727180176,0.019111020504602606,0.0,0.0,0.0,0.0,0.0,0.0,0.0,0.0,0.0,-0.033882665943623144,0.025783408223425,-0.0002669962390978271,0.0,0.0,0.0,0.0,0.0,0.0,0.0,0.0,0.0
5.996,172,5,997000000,base_footprint,-0.0038200885884720555,0.0004794374825488935,0.9918952776120852,0.12699974532935546,0.0,0.0,0.0,0.0,0.0,0.0,0.0,0.0,0.0,7.228045582649903e-05,-0.00017050530323274083,0.04763512565002631,0.0,0.0,0.0,0.0,0.0,0.0,0.0,0.0,0.0,0.038715108511886684,-0.0150057658206746,0.00020597449095949717,0.0,0.0,0.0,0.0,0.0,0.0,0.0,0.0,0.0
6.031,173,6,31000000,base_footprint,-0.0038238865194812222,0.0004789576575662655,0.9920027835825613,0.1261571474625926,0.0,0.0,0.0,0.0,0.0,0.0,0.0,0.0,0.0,-0.0003851957898153247,-0.0001254228139708866,0.0495570603605998,0.0,0.0,0.0,0.0,0.0,0.0,0.0,0.0,0.0,0.010451338854870686,0.006867998712810109,0.0005936621058902344,0.0,0.0,0.0,0.0,0.0,0.0,0.0,0.0,0.0
6.064,174,6,65000000,base_footprint,-0.003824436998935061,0.0004751616312020731,0.9921090781952565,0.1253184937095238,0.0,0.0,0.0,0.0,0.0,0.0,0.0,0.0,0.0,-0.0004101830296751961,8.356047982820123e-06,0.04949761799124927,0.0,0.0,0.0,0.0,0.0,0.0,0.0,0.0,0.0,0.006326635320171619,0.008925232564021496,-0.00021954492483986768,0.0,0.0,0.0,0.0,0.0,0.0,0.0,0.0,0.0
6.098,175,6,99000000,base_footprint,-0.003825129058303389,0.000470604344268819,0.9922411611726614,0.12426835878037176,0.0,0.0,0.0,0.0,0.0,0.0,0.0,0.0,0.0,-0.0006383181647158083,3.9708930643983555e-05,0.07265220002041271,0.0,0.0,0.0,0.0,0.0,0.0,0.0,0.0,0.0,0.0021466750331713925,0.014075475746891131,4.285542147380448e-05,0.0,0.0,0.0,0.0,0.0,0.0,0.0,0.0,0.0
6.133,176,6,133000000,base_footprint,-0.0038265808528578802,0.00046554147319187683,0.9923944642331113,0.12303807504016542,0.0,0.0,0.0,0.0,0.0,0.0,0.0,0.0,0.0,-0.000675982504149824,7.804024031528565e-05,0.07289016557646288,0.0,0.0,0.0,0.0,0.0,0.0,0.0,0.0,0.0,0.00799371769595099,0.013793326096394021,-2.0075963135961305e-06,0.0,0.0,0.0,0.0,0.0,0.0,0.0,0.0,0.0
6.167,177,6,167000000,base_footprint,-0.003827781542672527,0.00046051423935691556,0.9925469360798785,0.12180195274929932,0.0,0.0,0.0,0.0,0.0,0.0,0.0,0.0,0.0,-0.000708768493350397,0.0001037176169856885,0.07336142117048183,0.0,0.0,0.0,0.0,0.0,0.0,0.0,0.0,0.0,0.007181088623408703,0.01435486664198982,-2.0693972023490618e-05,0.0,0.0,0.0,0.0,0.0,0.0,0.0,0.0,0.0
6.201,178,6,201000000,base_footprint,-0.003828562586087283,0.000456840999179773,0.9926663055560413,0.12082524247253185,0.0,0.0,0.0,0.0,0.0,0.0,0.0,0.0,0.0,-0.0004048616468482829,-0.00013853155459961504,0.04252888107024217,0.0,0.0,0.0,0.0,0.0,0.0,0.0,0.0,0.0,0.024448850606030886,0.0031308168745994625,0.000473656787939507,0.0,0.0,0.0,0.0,0.0,0.0,0.0,0.0,0.0
6.235,179,6,235000000,base_footprint,-0.003829652701981112,0.00045428461005986596,0.9927600709476961,0.12005235906720267,0.0,0.0,0.0,0.0,0.0,0.0,0.0,0.0,0.0,-0.0005030848059897294,-0.00024644614021633035,0.05156495190750873,0.0,0.0,0.0,0.0,0.0,0.0,0.0,0.0,0.0,-0.016031200351238166,0.018551722184677592,8.217786818210965e-05,0.0,0.0,0.0,0.0,0.0,0.0,0.0,0.0,0.0
6.269,180,6,269000000,base_footprint,-0.003829759773665654,0.00045167744034015826,0.9928616016376866,0.11920976856371295,0.0,0.0,0.0,0.0,0.0,0.0,0.0,0.0,0.0,-0.00047195691714464164,-0.00029067187843276766,0.04993097632822505,0.0,0.0,0.0,0.0,0.0,0.0,0.0,0.0,0.0,0.009497227746753125,0.007277762066059526,1.5932008880495358e-05,0.0,0.0,0.0,0.0,0.0,0.0,0.0,0.0,0.0
6.303,181,6,303000000,base_footprint,-0.003827135076745032,0.000446962492664501,0.993071500003402,0.11744849570184997,0.0,0.0,0.0,0.0,0.0,0.0,0.0,0.0,0.0,-0.0012057722687755577,0.0013138185371336882,0.1522555017903284,0.0,0.0,0.0,0.0,0.0,0.0,0.0,0.0,0.0,-0.013160334286097829,0.031232001983218113,-0.0019922573407925937,0.0,0.0,0.0,0.0,0.0,0.0,0.0,0.0,0.0
6.337,182,6,337000000,base_footprint,-0.0038305846696638016,0.0004369315674893516,0.9933717820235608,0.11488097488805062,0.0,0.0,0.0,0.0,0.0,0.0,0.0,0.0,0.0,-0.001109129141448208,0.00015606887263222455,0.15224062614094985,0.0,0.0,0.0,0.0,0.0,0.0,0.0,0.0,0.0,0.014514863811078284,0.029944414274402864,0.0013728205460218539,0.0,0.0,0.0,0.0,0.0,0.0,0.0,0.0,0.0
6.371,183,6,371000000,base_footprint,-0.003832130722064496,0.00042815898579579806,0.9936645335736044,0.112320640008697,0.0,0.0,0.0,0.0,0.0,0.0,0.0,0.0,0.0,-0.0009926571832854563,0.00017874793799371746,0.15116149725366398,0.0,0.0,0.0,0.0,0.0,0.0,0.0,0.0,0.0,0.013598284850500618,0.0303641151915911,-9.169183869773405e-05,0.0,0.0,0.0,0.0,0.0,0.0,0.0,0.0,0.0
6.405,184,6,405000000,base_footprint,-0.0038340868220777535,0.0004185847497939619,0.9939817387551094,0.10947797763211377,0.0,0.0,0.0,0.0,0.0,0.0,0.0,0.0,0.0,0.0016842886187647618,0.001621675780053824,0.16526116492943715,0.0,0.0,0.0,0.0,0.0,0.0,0.0,0.0,0.0,-0.11173251758752817,0.0930391580625449,-0.004824747207444691,0.0,0.0,0.0,0.0,0.0,0.0,0.0,0.0,0.0
6.439,185,6,439000000,base_footprint,-0.0038359967832765373,0.00040940425177653055,0.9942328589481872,0.10717340950325124,0.0,0.0,0.0,0.0,0.0,0.0,0.0,0.0,0.0,-0.0008184073443558112,1.306755803665416e-05,0.09965096020596562,0.0,0.0,0.0,0.0,0.0,0.0,0.0,0.0,0.0,-0.11065412890252822,0.08322518224886868,0.0034269908603530674,0.0,0.0,0.0,0.0,0.0,0.0,0.0,0.0,0.0
6.473,186,6,473000000,base_footprint,-0.0038329496641054213,0.00040147261640899274,0.9943761249030163,0.10583605028284022,0.0,0.0,0.0,0.0,0.0,0.0,0.0,0.0,0.0,-0.0008789264921350195,-0.00041646674911292354,0.07755420054782662,0.0,0.0,0.0,0.0,0.0,0.0,0.0,0.0,0.0,-0.03448410333582105,0.03414334317332787,8.349725513089818e-05,0.0,0.0,0.0,0.0,0.0,0.0,0.0,0.0,0.0
6.507,187,6,507000000,base_footprint,-0.0038330759064421306,0.0003947843890430924,0.9945463477426256,0.10422434392302983,0.0,0.0,0.0,0.0,0.0,0.0,0.0,0.0,0.0,-0.0006602813993595946,0.00013602281076568248,0.1003340046376604,0.0,0.0,0.0,0.0,0.0,0.0,0.0,0.0,0.0,0.004529528574772427,0.019328572244111036,-0.0008044451428834631,0.0,0.0,0.0,0.0,0.0,0.0,0.0,0.0,0.0
6.541,188,6,541000000,base_footprint,-0.0038339572432192276,0.00038789978886608783,0.9947227313548631,0.10252725506679573,0.0,0.0,0.0,0.0,0.0,0.0,0.0,0.0,0.0,-0.0007848016782618476,6.329272894647457e-05,0.10016024509333023,0.0,0.0,0.0,0.0,0.0,0.0,0.0,0.0,0.0,0.009358556829152055,0.01863061697913817,0.00010193338971724738,0.0,0.0,0.0,0.0,0.0,0.0,0.0,0.0,0.0
6.575,189,6,575000000,base_footprint,-0.003834880126030632,0.00038101778622478654,0.9948960279237824,0.10083175165267194,0.0,0.0,0.0,0.0,0.0,0.0,0.0,0.0,0.0,-0.0008715309186160658,5.7711518975517756e-05,0.10004382877888866,0.0,0.0,0.0,0.0,0.0,0.0,0.0,0.0,0.0,0.009389696565567178,0.018530524124307744,0.0001636238070325771,0.0,0.0,0.0,0.0,0.0,0.0,0.0,0.0,0.0
6.607,190,6,609000000,base_footprint,-0.0038352428408424274,0.0003762469765328699,0.9949947892373513,0.0998524849018967,0.0,0.0,0.0,0.0,0.0,0.0,0.0,0.0,0.0,0.0012119973532927091,-0.0007723295251020294,-0.005911675701983646,0.0,0.0,0.0,0.0,0.0,0.0,0.0,0.0,0.0,0.3476071420184226,-0.13210182310564927,0.0053427242783150265,0.0,0.0,0.0,0.0,0.0,0.0,0.0,0.0,0.0
6.643,191,6,643000000,base_footprint,-0.0038370533515087067,0.00037223754482265724,0.9951064526713967,0.09873341031554232,0.0,0.0,0.0,0.0,0.0,0.0,0.0,0.0,0.0,-0.0008570481153528433,6.823949327824947e-05,0.09098091328273467,0.0,0.0,0.0,0.0,0.0,0.0,0.0,0.0,0.0,-0.020212232497172005,0.022425270762843362,-0.002808498029449858,0.0,0.0,0.0,0.0,0.0,0.0,0.0,0.0,0.0
6.677,192,6,677000000,base_footprint,-0.003838470388946957,0.0003659645213781761,0.9952586456588562,0.09718724430881612,0.0,0.0,0.0,0.0,0.0,0.0,0.0,0.0,0.0,-0.0008816387376979235,0.0001051149245029376,0.09158359669618076,0.0,0.0,0.0,0.0,0.0,0.0,0.0,0.0,0.0,0.006854726002512069,0.018751814401878224,-3.431859802880406e-05,0.0,0.0,0.0,0.0,0.0,0.0,0.0,0.0,0.0
6.711,193,6,711000000,base_footprint,-0.003840664186579711,0.0003612251496678802,0.9953529218682503,0.09621683710938522,0.0,0.0,0.0,0.0,0.0,0.0,0.0,0.0,0.0,-0.0004418781454408109,0.00013735115724743927,0.04767119748747681,0.0,0.0,0.0,0.0,0.0,0.0,0.0,0.0,0.0,0.020857001046489566,0.006499403747218753,-7.940275887635472e-05,0.0,0.0,0.0,0.0,0.0,0.0,0.0,0.0,0.0
6.745,194,6,745000000,base_footprint,-0.003835824371388794,0.0003617623327071007,0.995441146129239,0.0952999484381482,0.0,0.0,0.0,0.0,0.0,0.0,0.0,0.0,0.0,-0.0004370750471756777,-0.00031151042061387395,0.055165912044017905,0.0,0.0,0.0,0.0,0.0,0.0,0.0,0.0,0.0,-0.013531525496442301,0.017746236112412345,0.00040613440061404893,0.0,0.0,0.0,0.0,0.0,0.0,0.0,0.0,0.0
6.779,195,6,779000000,base_footprint,-0.0038391304865061926,0.0003573839194148459,0.995523341912621,0.09443732874752692,0.0,0.0,0.0,0.0,0.0,0.0,0.0,0.0,0.0,-0.0004498867927668622,0.00023869282772743616,0.05152844336561179,0.0,0.0,0.0,0.0,0.0,0.0,0.0,0.0,0.0,0.01333364805560721,0.006450132501476259,-0.0006259819015454417,0.0,0.0,0.0,0.0,0.0,0.0,0.0,0.0,0.0
6.813,196,6,813000000,base_footprint,-0.003839808075596904,0.0003535977927065905,0.9956314023413251,0.0932911652536835,0.0,0.0,0.0,0.0,0.0,0.0,0.0,0.0,0.0,-0.0004528821461384964,-5.409491016266426e-06,0.0685133416853856,0.0,0.0,0.0,0.0,0.0,0.0,0.0,0.0,0.0,-6.280463174186137e-05,0.015843716068559822,0.00031783893173500824,0.0,0.0,0.0,0.0,0.0,0.0,0.0,0.0,0.0
6.847,197,6,847000000,base_footprint,-0.0038407069365150323,0.00035039845870373355,0.9957381779993901,0.09214449015325281,0.0,0.0,0.0,0.0,0.0,0.0,0.0,0.0,0.0,-0.00035392524418721683,6.663926155503888e-05,0.06698745635510771,0.0,0.0,0.0,0.0,0.0,0.0,0.0,0.0,0.0,0.003913372062597656,0.015177882696481251,-0.00017495869401676906,0.0,0.0,0.0,0.0,0.0,0.0,0.0,0.0,0.0
6.88,198,6,881000000,base_footprint,-0.00384049601215627,0.0003446107101891836,0.995829982967104,0.09114700684924656,0.0,0.0,0.0,0.0,0.0,0.0,0.0,0.0,0.0,0.0017486211503240016,0.0027871702549616215,0.052319941180867496,0.0,0.0,0.0,0.0,0.0,0.0,0.0,0.0,0.0,-0.053637704558153504,0.03395597483413621,-0.007385449389466669,0.0,0.0,0.0,0.0,0.0,0.0,0.0,0.0,0.0
6.915,199,6,915000000,base_footprint,-0.0038428604875551716,0.0003424481426321088,0.9959071487633819,0.09029986818669142,0.0,0.0,0.0,0.0,0.0,0.0,0.0,0.0,0.0,-0.0035571589821696346,0.0009322507153676997,0.020340530156136034,0.0,0.0,0.0,0.0,0.0,0.0,0.0,0.0,0.0,-0.2088875825273523,0.09004089307497397,0.009499035769745324,0.0,0.0,0.0,0.0,0.0,0.0,0.0,0.0,0.0
6.949,200,6,949000000,base_footprint,-0.003838589176583378,0.00033763339996588224,0.9959953647265264,0.08932180405754421,0.0,0.0,0.0,0.0,0.0,0.0,0.0,0.0,0.0,-0.00024869623943593616,8.060734297513052e-05,0.059732092258816774,0.0,0.0,0.0,0.0,0.0,0.0,0.0,0.0,0.0,-0.03943094905483022,0.028044846166802615,-0.004429270837312713,0.0,0.0,0.0,0.0,0.0,0.0,0.0,0.0,0.0
6.9830000000000005,201,6,983000000,base_footprint,-0.0038329685763549026,0.00033111986184897467,0.996084321323598,0.0883245352370281,0.0,0.0,0.0,0.0,0.0,0.0,0.0,0.0,0.0,-0.0027538900813083213,-0.0036031599708148897,0.04695711565423136,0.0,0.0,0.0,0.0,0.0,0.0,0.0,0.0,0.0,0.06294288362118922,-0.009688674851608065,0.005621489441749876,0.0,0.0,0.0,0.0,0.0,0.0,0.0,0.0,0.0
7.017,202,7,17000000,base_footprint,-0.003839204164600589,0.0003282168454593259,0.9961971637217356,0.08704231027410939,0.0,0.0,0.0,0.0,0.0,0.0,0.0,0.0,0.0,1.8732268067235493e-05,0.0013975363326966092,0.11987047772535489,0.0,0.0,0.0,0.0,0.0,0.0,0.0,0.0,0.0,0.2540823575734181,-0.07684543828790255,-0.004717692612280391,0.0,0.0,0.0,0.0,0.0,0.0,0.0,0.0,0.0
7.051,203,7,51000000,base_footprint,-0.0038402643575665175,0.00032015023382433815,0.9963721173097305,0.08501619681693773,0.0,0.0,0.0,0.0,0.0,0.0,0.0,0.0,0.0,-0.0010151674647103657,3.991861010477412e-05,0.1194492187953625,0.0,0.0,0.0,0.0,0.0,0.0,0.0,0.0,0.0,0.009463702852899021,0.02456019934670918,0.0019081971239008628,0.0,0.0,0.0,0.0,0.0,0.0,0.0,0.0,0.0
7.085,204,7,85000000,base_footprint,-0.0038456793097680097,0.000316057671067109,0.9965408007832615,0.08301531926368266,0.0,0.0,0.0,0.0,0.0,0.0,0.0,0.0,0.0,-0.00048431338579172354,-0.00017468891295013096,0.10349672086757944,0.0,0.0,0.0,0.0,0.0,0.0,0.0,0.0,0.0,-0.10180454248322619,0.06247029197081026,-0.0010506075034401492,0.0,0.0,0.0,0.0,0.0,0.0,0.0,0.0,0.0
7.119,205,7,119000000,base_footprint,-0.003842800902014184,0.00030658825171658854,0.9966527886500659,0.08166001323119197,0.0,0.0,0.0,0.0,0.0,0.0,0.0,0.0,0.0,-0.0007343330746822721,3.722193879687426e-05,0.07760928686371985,0.0,0.0,0.0,0.0,0.0,0.0,0.0,0.0,0.0,-0.1941598649740304,0.08451173057988008,-0.0015119889232366513,0.0,0.0,0.0,0.0,0.0,0.0,0.0,0.0,0.0
7.153,206,7,153000000,base_footprint,-0.0038438570479829154,0.0003012790358192059,0.996760037206366,0.08034029015569549,0.0,0.0,0.0,0.0,0.0,0.0,0.0,0.0,0.0,-0.0007636903438170636,2.134596021889804e-05,0.07802957155714742,0.0,0.0,0.0,0.0,0.0,0.0,0.0,0.0,0.0,0.004829605524803089,0.015397744040637342,-2.679570690849706e-06,0.0,0.0,0.0,0.0,0.0,0.0,0.0,0.0,0.0
7.187,207,7,187000000,base_footprint,-0.0038467889238860756,0.00029449410241724386,0.9968708557923015,0.07895322894045047,0.0,0.0,0.0,0.0,0.0,0.0,0.0,0.0,0.0,-0.0003079380598619881,-2.51619882237611e-05,0.10942557082017708,0.0,0.0,0.0,0.0,0.0,0.0,0.0,0.0,0.0,0.07479157104722027,-0.007157475511023441,0.0009781597294010558,0.0,0.0,0.0,0.0,0.0,0.0,0.0,0.0,0.0
7.221,208,7,221000000,base_footprint,-0.0038402206423881315,0.00029379708513356116,0.9970178310037379,0.07707535954695732,0.0,0.0,0.0,0.0,0.0,0.0,0.0,0.0,0.0,-0.0007641055595720838,4.6634291782580595e-05,0.138319989466533,0.0,0.0,0.0,0.0,0.0,0.0,0.0,0.0,0.0,0.07484334688973654,0.0010107151308528638,0.000722277415740134,0.0,0.0,0.0,0.0,0.0,0.0,0.0,0.0,0.0
7.254,209,7,255000000,base_footprint,-0.003839757994832454,0.00028494731327263144,0.9972018908749272,0.07465630515261083,0.0,0.0,0.0,0.0,0.0,0.0,0.0,0.0,0.0,-0.0008909518597504883,-2.0497983029461465e-05,0.12346187363820114,0.0,0.0,0.0,0.0,0.0,0.0,0.0,0.0,0.0,0.11968364149098928,-0.005039816695488798,0.00040744499003095356,0.0,0.0,0.0,0.0,0.0,0.0,0.0,0.0,0.0
7.289,210,7,289000000,base_footprint,-0.0038462525894723447,0.0002752572166633108,0.9973301051674669,0.07292319179199437,0.0,0.0,0.0,0.0,0.0,0.0,0.0,0.0,0.0,-0.0007122219236473017,-0.0005549666848192053,0.10051923557216767,0.0,0.0,0.0,0.0,0.0,0.0,0.0,0.0,0.0,0.07156162959907258,0.0018460332971772095,0.0010983274772303582,0.0,0.0,0.0,0.0,0.0,0.0,0.0,0.0,0.0
7.323,211,7,323000000,base_footprint,-0.0038480420917130524,0.00026995726007501163,0.9974509622522372,0.07125094804438944,0.0,0.0,0.0,0.0,0.0,0.0,0.0,0.0,0.0,-0.0005514864131690711,0.00012500207784027273,0.09688926452553467,0.0,0.0,0.0,0.0,0.0,0.0,0.0,0.0,0.0,0.0032453414848648164,0.02218403921429708,-0.0009659696870289107,0.0,0.0,0.0,0.0,0.0,0.0,0.0,0.0,0.0
7.357,212,7,357000000,base_footprint,-0.003842692139118291,0.00025948358971364247,0.9975533624641535,0.06980297573780166,0.0,0.0,0.0,0.0,0.0,0.0,0.0,0.0,0.0,-0.0010182917988997146,-0.000174138588575806,0.07558702102666977,0.0,0.0,0.0,0.0,0.0,0.0,0.0,0.0,0.0,-0.03646385194638205,0.029676911518607428,0.0006014609262497704,0.0,0.0,0.0,0.0,0.0,0.0,0.0,0.0,0.0
7.391,213,7,391000000,base_footprint,-0.003842951689671552,0.0002546217084767802,0.9976483245024297,0.0684323571681649,0.0,0.0,0.0,0.0,0.0,0.0,0.0,0.0,0.0,0.0002475921818029923,0.0004862659383904621,0.08934241106672107,0.0,0.0,0.0,0.0,0.0,0.0,0.0,0.0,0.0,0.051023874841339176,0.003384044834384192,-0.0012219153688886486,0.0,0.0,0.0,0.0,0.0,0.0,0.0,0.0,0.0
7.424,214,7,425000000,base_footprint,-0.003845354629245256,0.0002507981414232782,0.9977518054613074,0.0669065396412714,0.0,0.0,0.0,0.0,0.0,0.0,0.0,0.0,0.0,-0.0006233635128262926,-0.0001235152432135091,0.08963602339181974,0.0,0.0,0.0,0.0,0.0,0.0,0.0,0.0,0.0,0.007229904639427762,0.018524220722997326,0.001368996644474781,0.0,0.0,0.0,0.0,0.0,0.0,0.0,0.0,0.0
7.459,215,7,459000000,base_footprint,-0.0038454063665598467,0.0002446607217826623,0.9978526580793078,0.06538521052246629,0.0,0.0,0.0,0.0,0.0,0.0,0.0,0.0,0.0,-0.0006113103599109832,-7.621135794491231e-05,0.08953911592421257,0.0,0.0,0.0,0.0,0.0,0.0,0.0,0.0,0.0,0.006348653956274721,0.018580660265302158,-1.471140961155045e-05,0.0,0.0,0.0,0.0,0.0,0.0,0.0,0.0,0.0
7.493,216,7,493000000,base_footprint,-0.003845876517269076,0.00023840751383328803,0.9979541932301574,0.06381677373556954,0.0,0.0,0.0,0.0,0.0,0.0,0.0,0.0,0.0,-0.0006944756934040618,-0.0001327822753741267,0.09697358667557891,0.0,0.0,0.0,0.0,0.0,0.0,0.0,0.0,0.0,0.004480145219070983,0.019654290513486772,8.897538943615632e-05,0.0,0.0,0.0,0.0,0.0,0.0,0.0,0.0,0.0
7.527,217,7,527000000,base_footprint,-0.003846446879872045,0.0002318099506802309,0.9980581246006395,0.06217017797305683,0.0,0.0,0.0,0.0,0.0,0.0,0.0,0.0,0.0,-0.0007753733859739637,-4.641436456042169e-05,0.09688778060744685,0.0,0.0,0.0,0.0,0.0,0.0,0.0,0.0,0.0,0.006572470213569714,0.02025930354415178,-7.962038738549613e-05,0.0,0.0,0.0,0.0,0.0,0.0,0.0,0.0,0.0
7.5600000000000005,218,7,561000000,base_footprint,-0.0038473314766413426,0.0002252437717097644,0.9981592438796021,0.06052496314293253,0.0,0.0,0.0,0.0,0.0,0.0,0.0,0.0,0.0,-0.000835132607723611,-2.1441337316682778e-05,0.09681184106658178,0.0,0.0,0.0,0.0,0.0,0.0,0.0,0.0,0.0,0.006431289573466265,0.020296097158691895,-5.290068702813131e-05,0.0,0.0,0.0,0.0,0.0,0.0,0.0,0.0,0.0
7.595,219,7,595000000,base_footprint,-0.0038474564591438206,0.00022106990384677803,0.9982290514210825,0.05936252273832595,0.0,0.0,0.0,0.0,0.0,0.0,0.0,0.0,0.0,-0.0003462119763977187,0.0010922052642010653,0.02222217006738682,0.0,0.0,0.0,0.0,0.0,0.0,0.0,0.0,0.0,0.023666164037942784,0.010608318459723197,-0.0015351154327171805,0.0,0.0,0.0,0.0,0.0,0.0,0.0,0.0,0.0
7.629,220,7,629000000,base_footprint,-0.003849005562178908,0.00021898884221840942,0.9982511023263685,0.058990456043834745,0.0,0.0,0.0,0.0,0.0,0.0,0.0,0.0,0.0,-0.0002560022100960075,-5.338059339900159e-05,0.02185210667823115,0.0,0.0,0.0,0.0,0.0,0.0,0.0,0.0,0.0,0.002792595657536254,0.003948053003027388,0.0014925319166320993,0.0,0.0,0.0,0.0,0.0,0.0,0.0,0.0,0.0
7.663,221,7,663000000,base_footprint,-0.0038499208505324927,0.00021765641506564003,0.998273125842054,0.058616524604110785,0.0,0.0,0.0,0.0,0.0,0.0,0.0,0.0,0.0,-0.0002458979431710221,-9.69969497670172e-06,0.022166094481007835,0.0,0.0,0.0,0.0,0.0,0.0,0.0,0.0,0.0,0.001338882563476564,0.0054425149705853255,-0.00012201313815415313,0.0,0.0,0.0,0.0,0.0,0.0,0.0,0.0,0.0
7.697,222,7,697000000,base_footprint,-0.003849953453806937,0.00021710233601530818,0.9983067645083725,0.058040801698495896,0.0,0.0,0.0,0.0,0.0,0.0,0.0,0.0,0.0,-0.0006317320132971491,0.0004486648163222029,0.04947888270076952,0.0,0.0,0.0,0.0,0.0,0.0,0.0,0.0,0.0,0.023952540721252115,0.000913313150600125,-0.000714059649413225,0.0,0.0,0.0,0.0,0.0,0.0,0.0,0.0,0.0
7.731,223,7,731000000,base_footprint,-0.003848628289765924,0.00021451678467664697,0.998364751430969,0.05703477135060321,0.0,0.0,0.0,0.0,0.0,0.0,0.0,0.0,0.0,-0.00010389178241056898,-0.0010169115649360076,0.07018252608292622,0.0,0.0,0.0,0.0,0.0,0.0,0.0,0.0,0.0,-0.0521724734778918,0.02609125512648086,0.0020615281960811214,0.0,0.0,0.0,0.0,0.0,0.0,0.0,0.0,0.0
7.765,224,7,765000000,base_footprint,-0.003851580228665957,0.00021003506490120644,0.998426075744303,0.055950804184078023,0.0,0.0,0.0,0.0,0.0,0.0,0.0,0.0,0.0,-0.00043864281668026025,0.000270715712688747,0.06333311475269499,0.0,0.0,0.0,0.0,0.0,0.0,0.0,0.0,0.0,0.01690483967815683,0.01010304125406099,-0.0018534164023369815,0.0,0.0,0.0,0.0,0.0,0.0,0.0,0.0,0.0
7.799,225,7,799000000,base_footprint,-0.0038539671179869976,0.00020041622485982417,0.9985067530304785,0.05449193447952956,0.0,0.0,0.0,0.0,0.0,0.0,0.0,0.0,0.0,0.00034578819273217275,0.0008789782905573537,0.14498532162239053,0.0,0.0,0.0,0.0,0.0,0.0,0.0,0.0,0.0,-0.2159291355583677,0.06606251044970049,-0.0028936943605844304,0.0,0.0,0.0,0.0,0.0,0.0,0.0,0.0,0.0
7.833,226,7,833000000,base_footprint,-0.003851818899867749,0.00019538352149152223,0.9986247441312499,0.05228523429456736,0.0,0.0,0.0,0.0,0.0,0.0,0.0,0.0,0.0,-0.0021257698192163055,-0.001241930172488904,0.09791962668235095,0.0,0.0,0.0,0.0,0.0,0.0,0.0,0.0,0.0,-0.13024937436860287,0.05646561163469213,0.0030727918251089907,0.0,0.0,0.0,0.0,0.0,0.0,0.0,0.0,0.0
7.867,227,7,867000000,base_footprint,-0.0038490623418930875,0.00018787853894400357,0.9987139169696979,0.050553550535904344,0.0,0.0,0.0,0.0,0.0,0.0,0.0,0.0,0.0,-0.0008365453656086713,-0.0002292650027661876,0.10352055008773202,0.0,0.0,0.0,0.0,0.0,0.0,0.0,0.0,0.0,0.01623838001951799,0.018314557296919744,-0.0018908476388896482,0.0,0.0,0.0,0.0,0.0,0.0,0.0,0.0,0.0
7.901,228,7,901000000,base_footprint,-0.0038492812184705797,0.00018147913059266053,0.9987968614438406,0.04888741831350545,0.0,0.0,0.0,0.0,0.0,0.0,0.0,0.0,0.0,-0.0006505210792284821,-5.221193576429757e-05,0.0944790019772536,0.0,0.0,0.0,0.0,0.0,0.0,0.0,0.0,0.0,0.008048386803995887,0.019216695230939718,-0.00012165133733324844,0.0,0.0,0.0,0.0,0.0,0.0,0.0,0.0,0.0
7.931,229,7,935000000,base_footprint,-0.003849164804068171,0.00017516074979905224,0.9988740921303662,0.04728320335763723,0.0,0.0,0.0,0.0,0.0,0.0,0.0,0.0,0.0,-0.000636988605635668,-9.009243078601289e-05,0.09435677434677417,0.0,0.0,0.0,0.0,0.0,0.0,0.0,0.0,0.0,0.0048309170548329955,0.01902318483690112,0.00013166283673515374,0.0,0.0,0.0,0.0,0.0,0.0,0.0,0.0,0.0
7.969,230,7,969000000,base_footprint,-0.003849369745356231,0.00016885036910510194,0.9989486707986464,0.04568048764772766,0.0,0.0,0.0,0.0,0.0,0.0,0.0,0.0,0.0,-0.0006873581184003184,-0.00010722563610467192,0.09424430251064367,0.0,0.0,0.0,0.0,0.0,0.0,0.0,0.0,0.0,0.004834329627814087,0.01897110889097872,0.0001059467495186113,0.0,0.0,0.0,0.0,0.0,0.0,0.0,0.0,0.0
8.023,231,8,3000000,base_footprint,-0.003848626616568427,0.00016465439543765931,0.9989963159440626,0.04462646851687096,0.0,0.0,0.0,0.0,0.0,0.0,0.0,0.0,0.0,0.0008494382299315487,0.0015385223682517163,-0.0008150756557768616,0.0,0.0,0.0,0.0,0.0,0.0,0.0,0.0,0.0,0.3649098241187309,-0.051574869239645355,0.0014809623335707875,0.0,0.0,0.0,0.0,0.0,0.0,0.0,0.0,0.0
8.035,232,8,37000000,base_footprint,-0.003850304797273349,0.00016440592717132163,0.9989957808226265,0.044638302188257414,0.0,0.0,0.0,0.0,0.0,0.0,0.0,0.0,0.0,-9.080548377658595e-05,-0.0001369699339574127,-0.0008340869805971844,0.0,0.0,0.0,0.0,0.0,0.0,0.0,0.0,0.0,-8.320172396690767e-05,-0.00033293242989303765,0.0012067380467536797,0.0,0.0,0.0,0.0,0.0,0.0,0.0,0.0,0.0
8.071,233,8,71000000,base_footprint,-0.0038510358592587354,0.00016424835010674622,0.9989951693637225,0.04465192194337909,0.0,0.0,0.0,0.0,0.0,0.0,0.0,0.0,0.0,-0.00010927370220183557,-0.00010722523597733724,-0.0009240180383957759,0.0,0.0,0.0,0.0,0.0,0.0,0.0,0.0,0.0,0.001262178910249838,-0.00044064236446625106,-6.651724430573013e-05,0.0,0.0,0.0,0.0,0.0,0.0,0.0,0.0,0.0
8.105,234,8,105000000,base_footprint,-0.003851983300765887,0.0001640588703930901,0.998994576087723,0.044665112298619,0.0,0.0,0.0,0.0,0.0,0.0,0.0,0.0,0.0,-8.612035854028101e-05,-9.190398072083389e-05,-0.0006804594513740074,0.0,0.0,0.0,0.0,0.0,0.0,0.0,0.0,0.0,0.00023071280571567964,-0.0002562761509442689,-0.00013212001155511134,0.0,0.0,0.0,0.0,0.0,0.0,0.0,0.0,0.0
8.14,235,8,139000000,base_footprint,-0.0038528663410022845,0.00016405900897023025,0.9989942763884393,0.044671738814809625,0.0,0.0,0.0,0.0,0.0,0.0,0.0,0.0,0.0,-7.07365210166034e-05,-6.146820925999344e-05,-0.00013039592769018376,0.0,0.0,0.0,0.0,0.0,0.0,0.0,0.0,0.0,-0.0006176355660853506,2.332135459063805e-05,-0.00016123029743912482,0.0,0.0,0.0,0.0,0.0,0.0,0.0,0.0,0.0
8.173,236,8,173000000,base_footprint,-0.0038537777469987715,0.00016427387624043792,0.9989944667710721,0.04466740167002959,0.0,0.0,0.0,0.0,0.0,0.0,0.0,0.0,0.0,-5.250175529980019e-05,-1.6419417231440823e-05,0.0008190340867823675,0.0,0.0,0.0,0.0,0.0,0.0,0.0,0.0,0.0,-0.0019983315245196832,0.001172306340599307,-0.0001330076749918112,0.0,0.0,0.0,0.0,0.0,0.0,0.0,0.0,0.0
8.207,237,8,207000000,base_footprint,-0.003852800455727675,0.0001656770200504924,0.9989963025539028,0.04462640432977442,0.0,0.0,0.0,0.0,0.0,0.0,0.0,0.0,0.0,7.732413891188265e-05,-0.00026410004462434027,0.0033827718974907637,0.0,0.0,0.0,0.0,0.0,0.0,0.0,0.0,0.0,-0.007564208408459304,0.001297474346835795,0.0003351110948785413,0.0,0.0,0.0,0.0,0.0,0.0,0.0,0.0,0.0
8.24,238,8,241000000,base_footprint,-0.003853825844067379,0.00016614978436301026,0.9989967560727506,0.04461616048848295,0.0,0.0,0.0,0.0,0.0,0.0,0.0,0.0,0.0,0.0001567056900890443,-4.70191781534832e-05,0.000637259741104683,0.0,0.0,0.0,0.0,0.0,0.0,0.0,0.0,0.0,0.0017926439937299152,1.017560681989467e-05,-0.00034691939868083536,0.0,0.0,0.0,0.0,0.0,0.0,0.0,0.0,0.0
8.275,239,8,275000000,base_footprint,-0.003854601080985405,0.00016653817437805975,0.9989941275326777,0.044674908738207196,0.0,0.0,0.0,0.0,0.0,0.0,0.0,0.0,0.0,-0.0001268018057009554,-0.00024932420505883627,-0.012745414764845272,0.0,0.0,0.0,0.0,0.0,0.0,0.0,0.0,0.0,-0.027407436863914114,0.00433993752259994,0.00040123942886576437,0.0,0.0,0.0,0.0,0.0,0.0,0.0,0.0,0.0
8.309,240,8,309000000,base_footprint,-0.0038474467570677605,0.0001626807352270797,0.9989824411138124,0.04493609946043824,0.0,0.0,0.0,0.0,0.0,0.0,0.0,0.0,0.0,2.2849822070588883e-05,-0.00012512453237338393,-0.012124926207192495,0.0,0.0,0.0,0.0,0.0,0.0,0.0,0.0,0.0,-0.019276577684220326,-2.521712257271718e-05,-0.0003547992792749,0.0,0.0,0.0,0.0,0.0,0.0,0.0,0.0,0.0
8.343,241,8,343000000,base_footprint,-0.0038513931979790184,0.0001659560054150937,0.9989839019040201,0.04490326230529695,0.0,0.0,0.0,0.0,0.0,0.0,0.0,0.0,0.0,-7.904602167106065e-05,-0.00033449594169545824,0.00886510608748803,0.0,0.0,0.0,0.0,0.0,0.0,0.0,0.0,0.0,0.04432238597799708,-0.008031916718534343,0.0005589482634111101,0.0,0.0,0.0,0.0,0.0,0.0,0.0,0.0,0.0
8.377,242,8,377000000,base_footprint,-0.0038500403820020115,0.00016511709300140424,0.9989907141236432,0.044751570029843556,0.0,0.0,0.0,0.0,0.0,0.0,0.0,0.0,0.0,2.9656280620502173e-05,-0.00014452969432060455,0.008881771990687952,0.0,0.0,0.0,0.0,0.0,0.0,0.0,0.0,0.0,0.0015635558196066572,0.001725154154392009,-0.0001203085521468231,0.0,0.0,0.0,0.0,0.0,0.0,0.0,0.0,0.0
8.411,243,8,411000000,base_footprint,-0.0038492059478252147,0.00015815084651396978,0.9990681357675325,0.042988587972487315,0.0,0.0,0.0,0.0,0.0,0.0,0.0,0.0,0.0,-0.000939578984783704,9.487585297919204e-05,0.13125197197565605,0.0,0.0,0.0,0.0,0.0,0.0,0.0,0.0,0.0,-0.027162253288471005,0.026575438991592485,-0.0003451047581905947,0.0,0.0,0.0,0.0,0.0,0.0,0.0,0.0,0.0
8.445,244,8,445000000,base_footprint,-0.0038501194397280547,0.00014956074535558845,0.9991616069614432,0.040758279969965616,0.0,0.0,0.0,0.0,0.0,0.0,0.0,0.0,0.0,-0.0009316600824688076,-7.278857341861784e-05,0.13118248247582795,0.0,0.0,0.0,0.0,0.0,0.0,0.0,0.0,0.0,0.006200811893870345,0.02805126597824565,0.00017806511484721468,0.0,0.0,0.0,0.0,0.0,0.0,0.0,0.0,0.0
8.479,245,8,479000000,base_footprint,-0.0038506389671865726,0.00014082095796732656,0.9992500463979406,0.03852917755047126,0.0,0.0,0.0,0.0,0.0,0.0,0.0,0.0,0.0,-0.0009818617692218595,-9.166149126836742e-05,0.13109132134747126,0.0,0.0,0.0,0.0,0.0,0.0,0.0,0.0,0.0,0.00583420536407422,0.02813458001444965,8.369479616051858e-05,0.0,0.0,0.0,0.0,0.0,0.0,0.0,0.0,0.0
8.513,246,8,513000000,base_footprint,-0.003851819015188284,0.0001381430990968667,0.9992747780872375,0.03788221595235327,0.0,0.0,0.0,0.0,0.0,0.0,0.0,0.0,0.0,-0.00010695677502922458,-0.0001905690982663356,-0.002302565936457999,0.0,0.0,0.0,0.0,0.0,0.0,0.0,0.0,0.0,-0.3034708619310597,0.05621463365921696,-0.0025467773327794278,0.0,0.0,0.0,0.0,0.0,0.0,0.0,0.0,0.0
8.547,247,8,547000000,base_footprint,-0.003852130886134399,0.00013126813129533613,0.9993398314053809,0.036125409658284535,0.0,0.0,0.0,0.0,0.0,0.0,0.0,0.0,0.0,-0.0010132014864410851,-6.161411136634258e-05,0.12231682754935766,0.0,0.0,0.0,0.0,0.0,0.0,0.0,0.0,0.0,-0.02399527432268658,0.02391700764718995,-0.0002641502246185471,0.0,0.0,0.0,0.0,0.0,0.0,0.0,0.0,0.0
8.583,248,8,581000000,base_footprint,-0.003853168664891438,0.00012350544365173407,0.9994129192385374,0.03404342369313288,0.0,0.0,0.0,0.0,0.0,0.0,0.0,0.0,0.0,-0.0002301829079538079,-0.0003715870277343954,0.12716683229742318,0.0,0.0,0.0,0.0,0.0,0.0,0.0,0.0,0.0,0.005669115778007139,0.025345483762102806,0.0007164858825186591,0.0,0.0,0.0,0.0,0.0,0.0,0.0,0.0,0.0
8.615,249,8,615000000,base_footprint,-0.0038543994959442896,0.0001146135961407324,0.9994857919029498,0.0318320946904612,0.0,0.0,0.0,0.0,0.0,0.0,0.0,0.0,0.0,-0.0010498916656413613,-1.1759311871681123e-05,0.13028180684335072,0.0,0.0,0.0,0.0,0.0,0.0,0.0,0.0,0.0,-0.0001602499520235365,0.026685773055805006,-0.0009129867176377586,0.0,0.0,0.0,0.0,0.0,0.0,0.0,0.0,0.0
8.649000000000001,250,8,649000000,base_footprint,-0.003855551849486311,0.00010629721937784302,0.9995539506190481,0.029614577874601204,0.0,0.0,0.0,0.0,0.0,0.0,0.0,0.0,0.0,-0.0010415537259397811,5.92019444044552e-06,0.1307190144039705,0.0,0.0,0.0,0.0,0.0,0.0,0.0,0.0,0.0,0.002263495203556779,0.027382058636089827,-8.954092158708177e-05,0.0,0.0,0.0,0.0,0.0,0.0,0.0,0.0,0.0
8.683,251,8,683000000,base_footprint,-0.003853619034879668,0.00010005080303807117,0.9996170535949401,0.02740229501960899,0.0,0.0,0.0,0.0,0.0,0.0,0.0,0.0,0.0,0.0014776861743560892,-0.0035282999644688628,0.12728288863373274,0.0,0.0,0.0,0.0,0.0,0.0,0.0,0.0,0.0,0.0005902580068995129,0.02800628065848562,0.007507690597279301,0.0,0.0,0.0,0.0,0.0,0.0,0.0,0.0,0.0
8.72,252,8,717000000,base_footprint,-0.0038511608973608815,9.688664091744198e-05,0.9996692673249483,0.025426661965788105,0.0,0.0,0.0,0.0,0.0,0.0,0.0,0.0,0.0,-0.0006387005765419697,0.0001732187043657325,0.09890602690711088,0.0,0.0,0.0,0.0,0.0,0.0,0.0,0.0,0.0,0.06286609906547959,0.019141502953419893,-0.006882513681849735,0.0,0.0,0.0,0.0,0.0,0.0,0.0,0.0,0.0
8.751,253,8,751000000,base_footprint,-0.0038521849352176497,8.375557870994889e-05,0.9996921325481675,0.024511094988299682,0.0,0.0,0.0,0.0,0.0,0.0,0.0,0.0,0.0,-0.00047937421112641943,0.0012812659405953485,0.016022527989844937,0.0,0.0,0.0,0.0,0.0,0.0,0.0,0.0,0.0,0.08059767767496531,0.0025713990495714865,-0.0010151359023786936,0.0,0.0,0.0,0.0,0.0,0.0,0.0,0.0,0.0
8.785,254,8,785000000,base_footprint,-0.003846961332059078,8.371351009261392e-05,0.9996997214809904,0.02420042874389359,0.0,0.0,0.0,0.0,0.0,0.0,0.0,0.0,0.0,-0.0008403488029115611,6.183541942995472e-05,0.01612273225125751,0.0,0.0,0.0,0.0,0.0,0.0,0.0,0.0,0.0,0.040398172320401236,-0.0005313871728323,0.001467233776064579,0.0,0.0,0.0,0.0,0.0,0.0,0.0,0.0,0.0
8.819,255,8,819000000,base_footprint,-0.0038493047674109417,8.035345326603168e-05,0.9997161128392693,0.023513190461351915,0.0,0.0,0.0,0.0,0.0,0.0,0.0,0.0,0.0,-0.00056040073902491,-0.00011239710038479726,0.07072595213261552,0.0,0.0,0.0,0.0,0.0,0.0,0.0,0.0,0.0,0.11390906491381139,-0.002668430139427648,0.001582513941871493,0.0,0.0,0.0,0.0,0.0,0.0,0.0,0.0,0.0
8.853,256,8,853000000,base_footprint,-0.0038528753493353085,7.694382032833877e-05,0.9997514701978192,0.0219578520919098,0.0,0.0,0.0,0.0,0.0,0.0,0.0,0.0,0.0,-0.000604852912812902,2.5800457864495487e-05,0.0949041284449212,0.0,0.0,0.0,0.0,0.0,0.0,0.0,0.0,0.0,0.05349515823341114,0.014990349697467601,0.0003113803879850228,0.0,0.0,0.0,0.0,0.0,0.0,0.0,0.0,0.0
8.887,257,8,887000000,base_footprint,-0.0038524548350683907,7.080975938224223e-05,0.9997857837685358,0.0203356866630171,0.0,0.0,0.0,0.0,0.0,0.0,0.0,0.0,0.0,-0.0006274328608180768,-0.00014154815173408658,0.09774732568949353,0.0,0.0,0.0,0.0,0.0,0.0,0.0,0.0,0.0,0.001995783818712414,0.020744119985848495,0.00023832132177168438,0.0,0.0,0.0,0.0,0.0,0.0,0.0,0.0,0.0
8.921,258,8,921000000,base_footprint,-0.0038524605901703868,6.436967383071722e-05,0.9998181816926649,0.01867506253589902,0.0,0.0,0.0,0.0,0.0,0.0,0.0,0.0,0.0,-0.0006602196110048378,-0.00012433910367347942,0.09762401149188434,0.0,0.0,0.0,0.0,0.0,0.0,0.0,0.0,0.0,0.0029389450949646066,0.021270319817626622,1.7763584134812104e-05,0.0,0.0,0.0,0.0,0.0,0.0,0.0,0.0,0.0
8.955,259,8,955000000,base_footprint,-0.003852660952373301,5.794077189912613e-05,0.9998477998056248,0.017015606668712834,0.0,0.0,0.0,0.0,0.0,0.0,0.0,0.0,0.0,-0.0006963415388684291,-0.00014209580645310432,0.09753880177234092,0.0,0.0,0.0,0.0,0.0,0.0,0.0,0.0,0.0,0.0028441215690814827,0.021230169684265353,6.716623049422521e-05,0.0,0.0,0.0,0.0,0.0,0.0,0.0,0.0,0.0
8.991,260,8,989000000,base_footprint,-0.003853076638415094,5.16444439751561e-05,0.9998740613755582,0.01539521099616631,0.0,0.0,0.0,0.0,0.0,0.0,0.0,0.0,0.0,-0.0007111671509877004,-0.00010123421382334602,0.08890838651076861,0.0,0.0,0.0,0.0,0.0,0.0,0.0,0.0,0.0,0.004946326722017931,0.020739872516439686,-0.0001075284853115763,0.0,0.0,0.0,0.0,0.0,0.0,0.0,0.0,0.0
9.023,261,9,23000000,base_footprint,-0.0038539226081209382,4.571490617294844e-05,0.9998961940864727,0.013883308037529102,0.0,0.0,0.0,0.0,0.0,0.0,0.0,0.0,0.0,-0.0006971525108556479,-8.308137841174145e-05,0.08887183049713208,0.0,0.0,0.0,0.0,0.0,0.0,0.0,0.0,0.0,0.0024129761931137145,0.01935894823645046,-0.00015106657979691647,0.0,0.0,0.0,0.0,0.0,0.0,0.0,0.0,0.0
9.056,262,9,57000000,base_footprint,-0.0038549115626715187,3.982723204327205e-05,0.9999160264541876,0.012372473912027218,0.0,0.0,0.0,0.0,0.0,0.0,0.0,0.0,0.0,-0.000709535879777075,-6.422429453862705e-05,0.08883618410393743,0.0,0.0,0.0,0.0,0.0,0.0,0.0,0.0,0.0,0.0023236788930048754,0.019381361780348497,-8.000079586504657e-05,0.0,0.0,0.0,0.0,0.0,0.0,0.0,0.0,0.0
9.091,263,9,91000000,base_footprint,-0.003855715928799183,3.480547460878315e-05,0.9999326124515094,0.010950013660039504,0.0,0.0,0.0,0.0,0.0,0.0,0.0,0.0,0.0,-0.0006222835336939967,-0.00034741422144383293,0.07214551324110995,0.0,0.0,0.0,0.0,0.0,0.0,0.0,0.0,0.0,0.006809769079782868,0.01835031477734552,0.00030670388115765907,0.0,0.0,0.0,0.0,0.0,0.0,0.0,0.0,0.0
9.125,264,9,125000000,base_footprint,-0.0038573010491766307,2.9654723102690824e-05,0.999945371696157,0.009714626737450244,0.0,0.0,0.0,0.0,0.0,0.0,0.0,0.0,0.0,-0.0006209979694125711,-2.0919368574490092e-05,0.07280149673674972,0.0,0.0,0.0,0.0,0.0,0.0,0.0,0.0,0.0,-0.0023975553416301066,0.01589997951795849,-0.0005435971111962972,0.0,0.0,0.0,0.0,0.0,0.0,0.0,0.0,0.0
9.159,265,9,159000000,base_footprint,-0.0038586220487744163,2.5355352641092153e-05,0.9999564265847655,0.008500313218791664,0.0,0.0,0.0,0.0,0.0,0.0,0.0,0.0,0.0,-0.0005481916814449437,7.788949821699495e-05,0.06958873656418953,0.0,0.0,0.0,0.0,0.0,0.0,0.0,0.0,0.0,0.00576270589972335,0.016037937495423107,-0.00012785335652322705,0.0,0.0,0.0,0.0,0.0,0.0,0.0,0.0,0.0
9.193,266,9,193000000,base_footprint,-0.003856403876098176,1.570413951156553e-05,0.9999659338105458,0.007297884688567403,0.0,0.0,0.0,0.0,0.0,0.0,0.0,0.0,0.0,8.699975913102864e-05,0.0004894957738595157,0.07248672234647723,0.0,0.0,0.0,0.0,0.0,0.0,0.0,0.0,0.0,-0.07322696766524148,0.016261793894283505,-0.0008258538492457179,0.0,0.0,0.0,0.0,0.0,0.0,0.0,0.0,0.0
9.227,267,9,227000000,base_footprint,-0.0038595953386288554,1.7268704526829713e-05,0.999975757067959,0.005795558814831447,0.0,0.0,0.0,0.0,0.0,0.0,0.0,0.0,0.0,0.0002510947437537702,-0.0024061767301779475,0.09596103622594955,0.0,0.0,0.0,0.0,0.0,0.0,0.0,0.0,0.0,-0.23385590118938493,0.025478724383610027,0.0027816681950021535,0.0,0.0,0.0,0.0,0.0,0.0,0.0,0.0,0.0
9.261,268,9,261000000,base_footprint,-0.0038562180465475395,1.059334798542153e-05,0.9999817232051404,0.004656471393277619,0.0,0.0,0.0,0.0,0.0,0.0,0.0,0.0,0.0,-0.000376378074340308,0.00025283497242203077,0.0651452431470277,0.0,0.0,0.0,0.0,0.0,0.0,0.0,0.0,0.0,-0.04161321250411777,0.015049666415439414,-0.004718253665223039,0.0,0.0,0.0,0.0,0.0,0.0,0.0,0.0,0.0
9.295,269,9,295000000,base_footprint,-0.0038543961796204855,6.721893273599975e-06,0.9999858985468437,0.0036532577747007333,0.0,0.0,0.0,0.0,0.0,0.0,0.0,0.0,0.0,-0.0002486371214940424,-1.0457347411209618e-05,0.05186482278326134,0.0,0.0,0.0,0.0,0.0,0.0,0.0,0.0,0.0,0.002611988637331138,0.012343238743918539,0.0005604783338057646,0.0,0.0,0.0,0.0,0.0,0.0,0.0,0.0,0.0
9.329,270,9,329000000,base_footprint,-0.0038537391858942042,3.4235288666468717e-06,0.9999887242278659,0.0027749053482839254,0.0,0.0,0.0,0.0,0.0,0.0,0.0,0.0,0.0,-0.00037180826566126236,-9.771277412223214e-05,0.051610076624100915,0.0,0.0,0.0,0.0,0.0,0.0,0.0,0.0,0.0,0.0009972689951776306,0.01074656824623915,0.00011347003617564977,0.0,0.0,0.0,0.0,0.0,0.0,0.0,0.0,0.0
9.366,271,9,363000000,base_footprint,-0.003853303791513244,1.3178281173613938e-07,0.9999907744672518,0.0018981649714657457,0.0,0.0,0.0,0.0,0.0,0.0,0.0,0.0,0.0,-0.0003578099561124165,-0.00014292372906600238,0.051530524588304906,0.0,0.0,0.0,0.0,0.0,0.0,0.0,0.0,0.0,0.001218001149708025,0.01066811014087244,0.00020696566322354884,0.0,0.0,0.0,0.0,0.0,0.0,0.0,0.0,0.0
9.397,272,9,397000000,base_footprint,-0.0038505498757615267,-3.985033282837477e-06,0.9999920231932691,0.00106150817536307,0.0,0.0,0.0,0.0,0.0,0.0,0.0,0.0,0.0,-0.0005051696395604957,-0.0009405445007361325,0.07227262867599388,0.0,0.0,0.0,0.0,0.0,0.0,0.0,0.0,0.0,0.27760646120184534,0.008825071679926362,0.0031235962209491056,0.0,0.0,0.0,0.0,0.0,0.0,0.0,0.0,0.0
9.431000000000001,273,9,431000000,base_footprint,-0.0038531191873323457,-7.649689903546219e-06,0.9999925669460362,-0.00013952307254367342,0.0,0.0,0.0,0.0,0.0,0.0,0.0,0.0,0.0,-0.00031175675120664165,-0.0004591745225264024,0.043179073925058,0.0,0.0,0.0,0.0,0.0,0.0,0.0,0.0,0.0,0.06771313043058845,0.015736973399080558,-2.461020294727671e-05,0.0,0.0,0.0,0.0,0.0,0.0,0.0,0.0,0.0
9.465,274,9,465000000,base_footprint,-0.00385341561199305,-1.049305295883556e-05,0.9999921942312161,-0.0008732437546582093,0.0,0.0,0.0,0.0,0.0,0.0,0.0,0.0,0.0,-0.00033195396870302314,-0.00016426049464243116,0.0430908198559598,0.0,0.0,0.0,0.0,0.0,0.0,0.0,0.0,0.0,0.0013321184471044463,0.009441077870952766,-0.0003756472483733812,0.0,0.0,0.0,0.0,0.0,0.0,0.0,0.0,0.0
9.499,275,9,499000000,base_footprint,-0.0038540044526113055,-1.323333516999306e-05,0.9999913372529042,-0.001572225717400806,0.0,0.0,0.0,0.0,0.0,0.0,0.0,0.0,0.0,-0.0003446111762257745,-0.00013455840554431092,0.03952364142719063,0.0,0.0,0.0,0.0,0.0,0.0,0.0,0.0,0.0,0.0022349042361566474,0.009057160050037042,-0.0001618964333459692,0.0,0.0,0.0,0.0,0.0,0.0,0.0,0.0,0.0
9.533,276,9,533000000,base_footprint,-0.0038548899307101984,-1.585937945484018e-05,0.9999900545028059,-0.0022428703880469415,0.0,0.0,0.0,0.0,0.0,0.0,0.0,0.0,0.0,-0.0003087893880028293,-8.950382815554425e-05,0.03938156028312629,0.0,0.0,0.0,0.0,0.0,0.0,0.0,0.0,0.0,0.0013242182544924552,0.008706989303076318,-0.00017250799536372457,0.0,0.0,0.0,0.0,0.0,0.0,0.0,0.0,0.0
9.567,277,9,567000000,base_footprint,-0.0038562197952632677,-1.8643364497028596e-05,0.9999883237918425,-0.0029123017180124845,0.0,0.0,0.0,0.0,0.0,0.0,0.0,0.0,0.0,-0.00031509879639986835,-7.348082018744548e-05,0.03946534295577383,0.0,0.0,0.0,0.0,0.0,0.0,0.0,0.0,0.0,0.0004524667167730411,0.008569831620602231,-0.00010314039413907184,0.0,0.0,0.0,0.0,0.0,0.0,0.0,0.0,0.0
9.601,278,9,601000000,base_footprint,-0.0038568187174831507,-2.027579407299232e-05,0.999986481309283,-0.00348736819848878,0.0,0.0,0.0,0.0,0.0,0.0,0.0,0.0,0.0,-0.00023180221156214305,-4.2104459236336386e-05,0.02989075479861779,0.0,0.0,0.0,0.0,0.0,0.0,0.0,0.0,0.0,0.003413557817926937,0.0073968618542147105,-8.992212960656875e-05,0.0,0.0,0.0,0.0,0.0,0.0,0.0,0.0,0.0
9.636,279,9,635000000,base_footprint,-0.003857955260949026,-2.205090368602505e-05,0.9999845847162087,-0.0039932474145556686,0.0,0.0,0.0,0.0,0.0,0.0,0.0,0.0,0.0,-0.00018690172494302117,2.1876713151218162e-05,0.029722563805610697,0.0,0.0,0.0,0.0,0.0,0.0,0.0,0.0,0.0,-0.001157140982737115,0.007078092969638828,-0.00019786513841118201,0.0,0.0,0.0,0.0,0.0,0.0,0.0,0.0,0.0
9.669,280,9,669000000,base_footprint,-0.0038592965460124994,-2.3203969241488333e-05,0.999982500230983,-0.004483806813184016,0.0,0.0,0.0,0.0,0.0,0.0,0.0,0.0,0.0,-0.00032753063853473456,-0.00037735532875811476,0.029785995161216494,0.0,0.0,0.0,0.0,0.0,0.0,0.0,0.0,0.0,-0.023301812221128825,0.00596052618486744,0.0007914552067330983,0.0,0.0,0.0,0.0,0.0,0.0,0.0,0.0,0.0
9.702,281,9,703000000,base_footprint,-0.0038525835056630793,-2.5000988042143047e-05,0.999980471214838,-0.0049207889848202286,0.0,0.0,0.0,0.0,0.0,0.0,0.0,0.0,0.0,-0.00015390974663724618,0.0011085977493613263,0.023519149217896742,0.0,0.0,0.0,0.0,0.0,0.0,0.0,0.0,0.0,0.0216603188554972,0.005925447057819248,-0.002660278417803351,0.0,0.0,0.0,0.0,0.0,0.0,0.0,0.0,0.0
9.737,282,9,737000000,base_footprint,-0.0038558128004994754,-2.7374770866936984e-05,0.9999785470199016,-0.005295040909728368,0.0,0.0,0.0,0.0,0.0,0.0,0.0,0.0,0.0,-0.0001965661388087519,6.35515603312556e-05,0.021928051314796103,0.0,0.0,0.0,0.0,0.0,0.0,0.0,0.0,0.0,-0.0055049263487260474,0.004679536545528231,0.00195964806484105,0.0,0.0,0.0,0.0,0.0,0.0,0.0,0.0,0.0
9.771,283,9,771000000,base_footprint,-0.0038544280440429637,-2.8830389614732814e-05,0.9999765071432114,-0.005668131519718881,0.0,0.0,0.0,0.0,0.0,0.0,0.0,0.0,0.0,-0.00015864961562700984,-0.00010106883973477878,0.02190543851824292,0.0,0.0,0.0,0.0,0.0,0.0,0.0,0.0,0.0,-0.00040158904953141585,0.004816059943664918,0.00034748072994640036,0.0,0.0,0.0,0.0,0.0,0.0,0.0,0.0,0.0
9.805,284,9,805000000,base_footprint,-0.0038535509284754826,-3.3264796926334045e-05,0.9999700994476152,-0.006704420140605854,0.0,0.0,0.0,0.0,0.0,0.0,0.0,0.0,0.0,-0.0005950147843690991,-0.0003909648503246245,0.07953335652162363,0.0,0.0,0.0,0.0,0.0,0.0,0.0,0.0,0.0,-0.014814855514752319,0.01241694747849419,0.00027198797561359003,0.0,0.0,0.0,0.0,0.0,0.0,0.0,0.0,0.0
9.839,285,9,839000000,base_footprint,-0.003853083849463597,-3.83242429509749e-05,0.9999601266782207,-0.008055887895098708,0.0,0.0,0.0,0.0,0.0,0.0,0.0,0.0,0.0,-0.0005706226897509419,-0.00016275679013858215,0.079469556733987,0.0,0.0,0.0,0.0,0.0,0.0,0.0,0.0,0.0,0.0010174782806133575,0.01739724287632078,-0.00012013560343455871,0.0,0.0,0.0,0.0,0.0,0.0,0.0,0.0,0.0
9.873,286,9,873000000,base_footprint,-0.0038528198219964544,-4.339319875574156e-05,0.9999483415615492,-0.009405748495299997,0.0,0.0,0.0,0.0,0.0,0.0,0.0,0.0,0.0,-0.0005605542335967697,-0.00018327262931486381,0.07936594134615782,0.0,0.0,0.0,0.0,0.0,0.0,0.0,0.0,0.0,0.0006438736572540291,0.017436443639955206,0.0001256965349207898,0.0,0.0,0.0,0.0,0.0,0.0,0.0,0.0,0.0
9.907,287,9,907000000,base_footprint,-0.0038533374242481705,-4.935100828526993e-05,0.9999325026769824,-0.01096081408106513,0.0,0.0,0.0,0.0,0.0,0.0,0.0,0.0,0.0,-0.0007697632611101516,-0.0003116483433869392,0.10585019034010161,0.0,0.0,0.0,0.0,0.0,0.0,0.0,0.0,0.0,-0.3450309837242242,0.004678497972632173,-0.0025636743214477596,0.0,0.0,0.0,0.0,0.0,0.0,0.0,0.0,0.0
9.941,288,9,941000000,base_footprint,-0.0038530158950604923,-5.5300136088534846e-05,0.9999142761922275,-0.012513651640557373,0.0,0.0,0.0,0.0,0.0,0.0,0.0,0.0,0.0,-0.0006485241984485752,-0.00020004394330195877,0.08747727938914313,0.0,0.0,0.0,0.0,0.0,0.0,0.0,0.0,0.0,0.003441220042943919,0.01934865176276273,-0.00010642234114970951,0.0,0.0,0.0,0.0,0.0,0.0,0.0,0.0,0.0
9.975,289,9,975000000,base_footprint,-0.0038536422014398965,-6.130706432833533e-05,0.9998946038558645,-0.013997387725961409,0.0,0.0,0.0,0.0,0.0,0.0,0.0,0.0,0.0,-0.0007638605341901674,-0.000171836894160192,0.08759565712940447,0.0,0.0,0.0,0.0,0.0,0.0,0.0,0.0,0.0,0.0001903492010821342,0.017337472219678653,-0.00018831768345658632,0.0,0.0,0.0,0.0,0.0,0.0,0.0,0.0,0.0
10.009,290,10,9000000,base_footprint,-0.0038541738613033882,-6.575715938683785e-05,0.9998780901608466,-0.015130956220303048,0.0,0.0,0.0,0.0,0.0,0.0,0.0,0.0,0.0,-0.00047228124874691636,-0.00011234218888219418,0.06257388900946115,0.0,0.0,0.0,0.0,0.0,0.0,0.0,0.0,0.0,0.00699291969572348,0.015426116866154724,-0.0001417747283180573,0.0,0.0,0.0,0.0,0.0,0.0,0.0,0.0,0.0
10.045,291,10,43000000,base_footprint,-0.0038552622941375333,-7.001716217332478e-05,0.9998614309329522,-0.01619416508961147,0.0,0.0,0.0,0.0,0.0,0.0,0.0,0.0,0.0,-0.0004723629626550395,-8.225279734004894e-05,0.0625393526221469,0.0,0.0,0.0,0.0,0.0,0.0,0.0,0.0,0.0,7.408040140250487e-05,0.01301308531003964,-0.00010565578717595859,0.0,0.0,0.0,0.0,0.0,0.0,0.0,0.0,0.0
10.077,292,10,77000000,base_footprint,-0.003856229497545713,-7.429789735416195e-05,0.9998436252173181,-0.01725830484653881,0.0,0.0,0.0,0.0,0.0,0.0,0.0,0.0,0.0,-0.00047186232144797845,-7.954191490111257e-05,0.06267530589384462,0.0,0.0,0.0,0.0,0.0,0.0,0.0,0.0,0.0,-0.0019036937684753297,0.012885387093566035,-9.170620945207335e-05,0.0,0.0,0.0,0.0,0.0,0.0,0.0,0.0,0.0
10.112,293,10,111000000,base_footprint,-0.0038584285875747793,-7.874366476441437e-05,0.9998228807108609,-0.018420465121855085,0.0,0.0,0.0,0.0,0.0,0.0,0.0,0.0,0.0,-0.0005351965759199907,-3.8013553124464535e-05,0.07343302416258565,0.0,0.0,0.0,0.0,0.0,0.0,0.0,0.0,0.0,0.21973409507665936,0.029837380795830405,0.0021527576649559904,0.0,0.0,0.0,0.0,0.0,0.0,0.0,0.0,0.0
10.147,294,10,145000000,base_footprint,-0.003859952452765354,-8.405497549552632e-05,0.9997981883676837,-0.01971487353551504,0.0,0.0,0.0,0.0,0.0,0.0,0.0,0.0,0.0,-0.00046379697576798035,-8.367581818312356e-05,0.07743369876383847,0.0,0.0,0.0,0.0,0.0,0.0,0.0,0.0,0.0,0.04346049223022972,0.010910761800217258,0.00027941471490958966,0.0,0.0,0.0,0.0,0.0,0.0,0.0,0.0,0.0
10.177,295,10,179000000,base_footprint,-0.003850894263866555,-8.384723801869052e-05,0.9997685502835234,-0.02116623365153246,0.0,0.0,0.0,0.0,0.0,0.0,0.0,0.0,0.0,-0.00032019324122033345,0.000304537818256081,0.0914935087031498,0.0,0.0,0.0,0.0,0.0,0.0,0.0,0.0,0.0,-0.019418228534499933,0.02696648825274737,-0.0008010292991196215,0.0,0.0,0.0,0.0,0.0,0.0,0.0,0.0,0.0
10.212,296,10,213000000,base_footprint,-0.0038493187022535184,-9.021596285309587e-05,0.9997422274617511,-0.022375281817776746,0.0,0.0,0.0,0.0,0.0,0.0,0.0,0.0,0.0,-0.0010257381796149126,0.0005788718693927094,0.05172858224902005,0.0,0.0,0.0,0.0,0.0,0.0,0.0,0.0,0.0,0.07962661004409761,0.02257415750949673,-0.000578772748747596,0.0,0.0,0.0,0.0,0.0,0.0,0.0,0.0,0.0
10.247,297,10,247000000,base_footprint,-0.0038536957245484792,-9.653562352572917e-05,0.9997229342212929,-0.02322056205402157,0.0,0.0,0.0,0.0,0.0,0.0,0.0,0.0,0.0,-0.00037347400138510546,-0.00016930394523806598,0.04993917764734566,0.0,0.0,0.0,0.0,0.0,0.0,0.0,0.0,0.0,0.004617067494823003,0.011241128862402777,0.0018070274504831938,0.0,0.0,0.0,0.0,0.0,0.0,0.0,0.0,0.0
10.282,298,10,281000000,base_footprint,-0.003852582918546051,-9.918927272521744e-05,0.999702924084377,-0.024066809998216122,0.0,0.0,0.0,0.0,0.0,0.0,0.0,0.0,0.0,0.0007040913485174185,-0.00010814647009550815,0.044997714922911276,0.0,0.0,0.0,0.0,0.0,0.0,0.0,0.0,0.0,0.0002465779835071479,0.011227264041164746,0.0005076643452639196,0.0,0.0,0.0,0.0,0.0,0.0,0.0,0.0,0.0
10.311,299,10,315000000,base_footprint,-0.003852012432850758,-0.00010242085056655687,0.9996851242537298,-0.024795238575004482,0.0,0.0,0.0,0.0,0.0,0.0,0.0,0.0,0.0,-0.0003659161565016724,-0.00016599953536860555,0.04284981813328384,0.0,0.0,0.0,0.0,0.0,0.0,0.0,0.0,0.0,0.001779194098981117,0.00944332916783299,-0.00032973396310015233,0.0,0.0,0.0,0.0,0.0,0.0,0.0,0.0,0.0
10.349,300,10,349000000,base_footprint,-0.0038516446672697937,-0.00010521468555948348,0.9996668256920418,-0.025522370070665837,0.0,0.0,0.0,0.0,0.0,0.0,0.0,0.0,0.0,-0.0003234181137973636,-0.0001770364801995118,0.04274512415548898,0.0,0.0,0.0,0.0,0.0,0.0,0.0,0.0,0.0,0.0002537955070225131,0.009499491904565435,9.046266368470103e-05,0.0,0.0,0.0,0.0,0.0,0.0,0.0,0.0,0.0
10.376,301,10,383000000,base_footprint,-0.003851324932166739,-0.00010780854518355325,0.9996483405416475,-0.026236442706947326,0.0,0.0,0.0,0.0,0.0,0.0,0.0,0.0,0.0,-0.0002809778981692926,-0.00031339778965287714,0.03471039241986229,0.0,0.0,0.0,0.0,0.0,0.0,0.0,0.0,0.0,0.002358342904907834,0.009631796215519989,0.00014304370099856606,0.0,0.0,0.0,0.0,0.0,0.0,0.0,0.0,0.0
10.416,302,10,417000000,base_footprint,-0.0038517457056650366,-0.0001102772991593155,0.9996327003579668,-0.026825664371561402,0.0,0.0,0.0,0.0,0.0,0.0,0.0,0.0,0.0,-0.0002369609814740254,-0.00017873013447120795,0.03464834437371497,0.0,0.0,0.0,0.0,0.0,0.0,0.0,0.0,0.0,0.000619081265860071,0.007698013275026404,-9.742918132338149e-05,0.0,0.0,0.0,0.0,0.0,0.0,0.0,0.0,0.0
10.45,303,10,451000000,base_footprint,-0.0038522514640437367,-0.00011264225790326629,0.9996167600473522,-0.027413144708585854,0.0,0.0,0.0,0.0,0.0,0.0,0.0,0.0,0.0,-0.0002714823664515114,-0.0001341843254419645,0.03454679779319205,0.0,0.0,0.0,0.0,0.0,0.0,0.0,0.0,0.0,0.0005266757658785338,0.007690637502978705,-0.00022845801539974456,0.0,0.0,0.0,0.0,0.0,0.0,0.0,0.0,0.0
10.485,304,10,485000000,base_footprint,-0.0038528602531964595,-0.00011499707817435879,0.9996010673489834,-0.027979428127013737,0.0,0.0,0.0,0.0,0.0,0.0,0.0,0.0,0.0,0.00017893691534314892,8.29283856409803e-05,0.025819890801308327,0.0,0.0,0.0,0.0,0.0,0.0,0.0,0.0,0.0,0.0026904839575091254,0.007856578201038675,-0.00012774006834909363,0.0,0.0,0.0,0.0,0.0,0.0,0.0,0.0,0.0
10.519,305,10,519000000,base_footprint,-0.003854293711337261,-0.00011679372258098561,0.9995885298570789,-0.028423612672859082,0.0,0.0,0.0,0.0,0.0,0.0,0.0,0.0,0.0,-0.0001782555639042701,-9.191870988188088e-05,0.02606594002019398,0.0,0.0,0.0,0.0,0.0,0.0,0.0,0.0,0.0,0.00026907007115226165,0.005605273415816517,-8.020437604039193e-05,0.0,0.0,0.0,0.0,0.0,0.0,0.0,0.0,0.0
10.555,306,10,553000000,base_footprint,-0.0038546794987029463,-0.00011882734733842947,0.9995758430865866,-0.028866264804500632,0.0,0.0,0.0,0.0,0.0,0.0,0.0,0.0,0.0,-0.00018406268376481688,-0.00011483115761189744,0.02622190319904165,0.0,0.0,0.0,0.0,0.0,0.0,0.0,0.0,0.0,0.0009896100566171321,0.00558884477421355,-1.209473985805068e-05,0.0,0.0,0.0,0.0,0.0,0.0,0.0,0.0,0.0
10.587,307,10,587000000,base_footprint,-0.003855619642119831,-0.0001208124884741989,0.9995627741309175,-0.029315186733539618,0.0,0.0,0.0,0.0,0.0,0.0,0.0,0.0,0.0,-0.00017569631011372903,2.433072419114845e-05,0.026262583611781843,0.0,0.0,0.0,0.0,0.0,0.0,0.0,0.0,0.0,-0.000828501700193218,0.005654440203224888,-0.00030204733901262917,0.0,0.0,0.0,0.0,0.0,0.0,0.0,0.0,0.0
10.621,308,10,621000000,base_footprint,-0.003857022798601952,-0.00012394884354588803,0.9995497525322277,-0.029755675501958095,0.0,0.0,0.0,0.0,0.0,0.0,0.0,0.0,0.0,-0.00040954212195714647,-0.0001546793976829934,0.0265267380897823,0.0,0.0,0.0,0.0,0.0,0.0,0.0,0.0,0.0,-0.019964568897512823,0.003284963990714452,9.420209301900368e-05,0.0,0.0,0.0,0.0,0.0,0.0,0.0,0.0,0.0
10.66,309,10,655000000,base_footprint,-0.0038489923830516085,-0.00012099590797421918,0.9995299897047268,-0.030413324357825323,0.0,0.0,0.0,0.0,0.0,0.0,0.0,0.0,0.0,0.00041212403186084386,-0.0006660073071601709,0.04165952805665316,0.0,0.0,0.0,0.0,0.0,0.0,0.0,0.0,0.0,-0.03309704137839941,0.0056652795476223585,0.0013503687577659873,0.0,0.0,0.0,0.0,0.0,0.0,0.0,0.0,0.0
10.689,310,10,689000000,base_footprint,-0.003864193598657086,-0.00012792188081314036,0.9995139910964159,-0.030932721288926622,0.0,0.0,0.0,0.0,0.0,0.0,0.0,0.0,0.0,0.000450323154929707,-0.0036412860615751786,0.015812238743368064,0.0,0.0,0.0,0.0,0.0,0.0,0.0,0.0,0.0,-0.07993085432234573,-0.00406428895030713,0.0029977875024770066,0.0,0.0,0.0,0.0,0.0,0.0,0.0,0.0,0.0
10.723,311,10,723000000,base_footprint,-0.0038472399029981187,-0.0001279998388359096,0.9994795428888358,-0.03202851398198317,0.0,0.0,0.0,0.0,0.0,0.0,0.0,0.0,0.0,-0.0018635573445428331,-0.002609201495339063,0.04171397640547898,0.0,0.0,0.0,0.0,0.0,0.0,0.0,0.0,0.0,-0.2516365834392198,-0.017881131423900288,-0.004308654267285904,0.0,0.0,0.0,0.0,0.0,0.0,0.0,0.0,0.0
10.757,312,10,757000000,base_footprint,-0.003851725811651374,-0.0001328992688008254,0.9994606026704652,-0.03261365136943293,0.0,0.0,0.0,0.0,0.0,0.0,0.0,0.0,0.0,-0.00026810059114990687,-0.0002327804330472456,0.03403454533045755,0.0,0.0,0.0,0.0,0.0,0.0,0.0,0.0,0.0,0.02944544324605182,0.01071567207135067,-0.002174053668443651,0.0,0.0,0.0,0.0,0.0,0.0,0.0,0.0,0.0
10.791,313,10,791000000,base_footprint,-0.0038441391393559112,-0.0001342454671051011,0.9994398198953981,-0.033245315156969914,0.0,0.0,0.0,0.0,0.0,0.0,0.0,0.0,0.0,-0.0005062107422235551,0.0008622884291503666,0.05215592860622341,0.0,0.0,0.0,0.0,0.0,0.0,0.0,0.0,0.0,0.20668185563271693,0.03536496567209512,0.00013692214871094432,0.0,0.0,0.0,0.0,0.0,0.0,0.0,0.0,0.0
10.825,314,10,825000000,base_footprint,-0.0038498734924340273,-0.00013941805526338335,0.9994028171339239,-0.03433901777097012,0.0,0.0,0.0,0.0,0.0,0.0,0.0,0.0,0.0,-0.0002536794094925213,0.0011944847740403912,0.01706187879900148,0.0,0.0,0.0,0.0,0.0,0.0,0.0,0.0,0.0,0.1347849364522626,0.033144511359908445,0.0009049754483632924,0.0,0.0,0.0,0.0,0.0,0.0,0.0,0.0,0.0
10.858,315,10,859000000,base_footprint,-0.0038505409404452633,-0.00014044755151725017,0.9993928206098209,-0.03462865464463935,0.0,0.0,0.0,0.0,0.0,0.0,0.0,0.0,0.0,-6.724681839610608e-05,-0.0001859858015349214,0.01702925285065252,0.0,0.0,0.0,0.0,0.0,0.0,0.0,0.0,0.0,0.0006117446230981738,0.0036311055632473744,0.0018069308436284733,0.0,0.0,0.0,0.0,0.0,0.0,0.0,0.0,0.0
10.893,316,10,893000000,base_footprint,-0.0038507312701807294,-0.00014148189688456666,0.999383440839717,-0.03489828114572114,0.0,0.0,0.0,0.0,0.0,0.0,0.0,0.0,0.0,-3.7818764025354026e-05,-0.0002058311000828535,0.014080616634674194,0.0,0.0,0.0,0.0,0.0,0.0,0.0,0.0,0.0,0.0016473630954531018,0.0037691636059501545,1.634542477039897e-05,0.0,0.0,0.0,0.0,0.0,0.0,0.0,0.0,0.0
10.926,317,10,927000000,base_footprint,-0.0038512751444287436,-0.00014244330632260592,0.9993750982547981,-0.03513631138692715,0.0,0.0,0.0,0.0,0.0,0.0,0.0,0.0,0.0,-4.2081838297355285e-05,-0.00010632329492549554,0.013970113971135125,0.0,0.0,0.0,0.0,0.0,0.0,0.0,0.0,0.0,0.000883954876224096,0.003254221121382417,-0.00031101277085077237,0.0,0.0,0.0,0.0,0.0,0.0,0.0,0.0,0.0
10.961,318,10,961000000,base_footprint,-0.003852041984701921,-0.00014344417165200585,0.9993667527842123,-0.035372794996393064,0.0,0.0,0.0,0.0,0.0,0.0,0.0,0.0,0.0,-7.489495351926343e-05,-0.00011294742875625664,0.013940438477596018,0.0,0.0,0.0,0.0,0.0,0.0,0.0,0.0,0.0,0.000964758822512325,0.0031109961716699872,-0.0001018543556840219,0.0,0.0,0.0,0.0,0.0,0.0,0.0,0.0,0.0
10.995000000000001,319,10,995000000,base_footprint,-0.0038520584376858804,-0.00014684385517759182,0.9993415662879231,-0.03607733321457745,0.0,0.0,0.0,0.0,0.0,0.0,0.0,0.0,0.0,-0.00026949583367942727,0.0006012035449833946,0.09008065019485677,0.0,0.0,0.0,0.0,0.0,0.0,0.0,0.0,0.0,-0.020583473919851294,0.005363961116114625,-0.0012097751259516946,0.0,0.0,0.0,0.0,0.0,0.0,0.0,0.0,0.0
11.029,320,11,29000000,base_footprint,-0.0038538979436712776,-0.00015232873643510086,0.9992849825877376,-0.03761180454619154,0.0,0.0,0.0,0.0,0.0,0.0,0.0,0.0,0.0,-0.0006491302999393684,-0.00010071429887429483,0.09035030168696412,0.0,0.0,0.0,0.0,0.0,0.0,0.0,0.0,0.0,-0.0035738481914488274,0.019536924055710444,0.0008140978756846621,0.0,0.0,0.0,0.0,0.0,0.0,0.0,0.0,0.0
11.063,321,11,63000000,base_footprint,-0.0038551179286588143,-0.0001581872604617609,0.999225934050604,-0.03914901995254506,0.0,0.0,0.0,0.0,0.0,0.0,0.0,0.0,0.0,-0.0006273306468346057,2.981073026298233e-05,0.09100964642998763,0.0,0.0,0.0,0.0,0.0,0.0,0.0,0.0,0.0,-0.0043811709567286574,0.019931135357399037,-0.00030403751762679023,0.0,0.0,0.0,0.0,0.0,0.0,0.0,0.0,0.0
11.097,322,11,97000000,base_footprint,-0.0038540846113808494,-0.0001665859501326591,0.9991679844153812,-0.0406011970295709,0.0,0.0,0.0,0.0,0.0,0.0,0.0,0.0,0.0,-0.0008782000355369826,-0.0008025192936865378,0.07656049004058005,0.0,0.0,0.0,0.0,0.0,0.0,0.0,0.0,0.0,-0.014560087706198009,0.01630195394064133,0.0011403507713606043,0.0,0.0,0.0,0.0,0.0,0.0,0.0,0.0,0.0
11.131,323,11,131000000,base_footprint,-0.003849851911933034,-0.00016790509867367238,0.9991042538815798,-0.042140720495334974,0.0,0.0,0.0,0.0,0.0,0.0,0.0,0.0,0.0,0.00022190870463303903,-0.0010642244824129743,0.10030535938410498,0.0,0.0,0.0,0.0,0.0,0.0,0.0,0.0,0.0,-0.0425957892084012,0.013279050641841867,0.0007215718878745374,0.0,0.0,0.0,0.0,0.0,0.0,0.0,0.0,0.0
11.165,324,11,165000000,base_footprint,-0.0038484528649379165,-0.00017374375768482771,0.9990357950291145,-0.043733733824112477,0.0,0.0,0.0,0.0,0.0,0.0,0.0,0.0,0.0,-0.0013652559151994788,0.0005057954750415638,0.082206052415771,0.0,0.0,0.0,0.0,0.0,0.0,0.0,0.0,0.0,0.04278378822390719,0.02791735780677893,-0.0031714004198863245,0.0,0.0,0.0,0.0,0.0,0.0,0.0,0.0,0.0
11.199,325,11,199000000,base_footprint,-0.0038559380181687314,-0.0001838813956177262,0.9989801180494967,-0.044986905555349524,0.0,0.0,0.0,0.0,0.0,0.0,0.0,0.0,0.0,-0.0009890993126272071,-0.0024328838087267234,0.06959187977980998,0.0,0.0,0.0,0.0,0.0,0.0,0.0,0.0,0.0,-0.32413600066879134,-0.04235465137968542,0.001558262122630913,0.0,0.0,0.0,0.0,0.0,0.0,0.0,0.0,0.0
11.233,326,11,233000000,base_footprint,-0.0038496988507123837,-0.00018510755939877638,0.9989256052412729,-0.04618203922854505,0.0,0.0,0.0,0.0,0.0,0.0,0.0,0.0,0.0,-0.0006280855349829951,-6.73826375263476e-05,0.0675247319277196,0.0,0.0,0.0,0.0,0.0,0.0,0.0,0.0,0.0,-0.011957255869893393,0.012556901240992556,-0.0024675907898009906,0.0,0.0,0.0,0.0,0.0,0.0,0.0,0.0,0.0
