Theta_calculated,yaw_world,linear_velocity_x,world_velocity_x,world_velocity_y,angular_velocity_yaw,linear_acceleration_x,angular_acceleration_yaw,delta_position_x_world,delta_position_y_world,delta_yaw,kinematic_delta_x,kinematic_delta_y,kinematic_delta_yaw,twist.twist.linear.x
-2.3562266246781336,-2.357228991448652,0.0001840342127898,-0.0001301360214866,-0.0001301276580471,0.0004487723063044,0.0057293431838727,0.0170697324932161,4.867106575270725e-06,-9.249166421870444e-06,-1.315807388957424e-05,-4.3334410925499415e-06,-4.333339439841003e-06,1.4944117799939436e-05,0.0002241804681778
-2.356211680560333,-2.357238972997946,3.814002813970722e-05,-2.696953613652904e-05,-2.6968608919966807e-05,-0.0004287508839829,-0.004381206746252,-0.0263520477563791,-6.658042373819412e-07,-6.856825731232918e-07,-9.981549294213464e-06,-8.980803493459424e-07,-8.980598811633373e-07,-1.4277404436631882e-05,1.0652494669248006e-06
-2.35622595796477,-2.3572332586427738,-7.678703963036062e-06,5.429834499718368e-06,5.4294927808787e-06,1.823179990326593e-05,-0.0013759379009832,0.0134229034200061,3.018034609755631e-07,-2.282665639286028e-07,5.714355172159458e-06,1.8081109562635534e-07,1.8080450307018444e-07,6.071189367787556e-07,-2.0874147990433e-06
-2.356225350845833,-2.357223665662544,-7.25603161586936e-06,5.130947497148344e-06,5.130630818135609e-06,0.0001529939398829,1.2692863278279336e-05,0.0040469111105006,5.085872830431354e-07,-3.840072097752866e-07,9.592980229733428e-06,1.708579067378164e-07,1.708526512750501e-07,5.094698198101873e-06,-2.635874644914064e-06
-2.356220256147635,-2.357213140839707,-5.424770306900895e-06,3.835990704534176e-06,3.835793033697338e-06,0.000192905329313,5.499283210115512e-05,0.0011985402231268,5.583941910447185e-07,-4.213455346334724e-07,1.0524822837254533e-05,1.277364281721467e-07,1.277339703769901e-07,6.423747466125001e-06,-2.769455408811646e-06
-2.356213832400169,-2.3572023847539865,-3.942944385491001e-06,2.7881366399758303e-06,2.7880287846253124e-06,0.0002129829277317,4.449927691921603e-05,0.0006029308834425,5.70753917647146e-07,-4.306134563001299e-07,1.0756085720320389e-05,9.284342011330905e-08,9.284288856448938e-08,7.092331493465624e-06,-2.769455408811646e-06
-2.3562067400686755,-2.357191571007401,-2.7155858493648583e-06,1.920232691160897e-06,1.920185646511201e-06,0.0002310991567939,3.685761369748175e-05,0.000544030902771,5.73842153972666e-07,-4.329159159497178e-07,1.0813746585291996e-05,6.394267557595787e-08,6.394325507273767e-08,7.69560192123937e-06,-2.802814021954487e-06
-2.3561990444667544,-2.3571807426369804,-1.480854644500002e-06,1.0471271299492588e-06,1.0471175921841134e-06,0.0002308070306264,3.70790151611068e-05,-8.772557584605108e-06,5.74632098618388e-07,-4.334912939952737e-07,1.0828370420767897e-05,3.486874844721982e-08,3.486960079497023e-08,7.685874119859378e-06,-2.8119897440941185e-06
-2.3561913585926346,-2.357169910315769,-4.32689268000009e-07,3.0595655741148254e-07,3.059584736844167e-07,0.000233780946295,3.147643773273252e-05,8.930677683595235e-05,5.748520455770342e-07,-4.33638356918311e-07,1.0832321211573516e-05,1.0188181931409509e-08,1.0188588600374065e-08,7.784905511624998e-06,-2.8119897440941185e-06
-2.356183573687123,-2.357159076690802,6.197980759369472e-07,-4.382586381303363e-07,-4.38268206740216e-07,0.0002408305334552,3.160622654465333e-05,0.0002116993141215,5.749306020009885e-07,-4.336791872634922e-07,1.0833624966899436e-05,-1.4593765372030598e-08,-1.4594578552339257e-08,8.019656764061259e-06,-2.8157755575609344e-06
-2.356175554030359,-2.35714824241871,1.6646311814594398e-06,-1.1770497071475128e-06,-1.1770942855995033e-06,0.0002307386839393,3.137636953520998e-05,-0.0003030585440237,5.749740630400096e-07,-4.336936590535781e-07,1.0834272091919672e-05,-3.9195097699229545e-08,-3.9197897221818713e-08,7.683598175178745e-06,-2.8171034775907694e-06
-2.356167870432184,-2.3571374076625062,2.79633944759461e-06,-1.9772579496594663e-06,-1.9773632207265754e-06,0.0002247328612622,3.398523321727238e-05,-0.0001803550353461,5.750087919897603e-07,-4.3370158114841573e-07,1.0834756203781382e-05,-6.584159171203134e-08,-6.58472931806431e-08,7.4836042800337535e-06,-2.8171034775907694e-06
-2.3561603868279035,-2.3571265724627755,4.208550691707217e-06,-2.9757932433203653e-06,-2.9759962193655687e-06,0.0002218562169163,4.240874606944765e-05,-8.638571609278066e-05,5.750413294390577e-07,-4.337078669835494e-07,1.0835199730774292e-05,-9.909226721261796e-08,-9.91023217598589e-08,7.38781202331563e-06,-2.8182681883963216e-06
-2.3561529990158805,-2.357115736829727,5.555761160409889e-06,-3.928353389030387e-06,-3.9286793865639526e-06,0.0002024296047812,4.045677083191208e-05,-0.0005833817457998,5.75073299955573e-07,-4.337137361129506e-07,1.0835633048600355e-05,-1.3081203488346122e-07,-1.3082715633577836e-07,6.74090583921562e-06,-2.8188343751988976e-06
-2.356146258110041,-2.357104900766021,7.204059003662169e-06,-5.09379327152537e-06,-5.094284663739242e-06,0.0001862874575021,4.949843373129968e-05,-0.0004847491675391,5.751051087112791e-07,-4.33719491959271e-07,1.0836063705887966e-05,-1.696205957298375e-07,-1.6964239921007814e-07,6.203372334823126e-06,-2.8188343751988976e-06
-2.3561400547377063,-2.3570940642724336,9.333777797369384e-06,-6.599618292050038e-06,-6.600336837609441e-06,0.0001719268711912,6.395551933054698e-05,-0.0004312488381675,5.751368582084178e-07,-4.337252105979413e-07,1.0836493587351724e-05,-2.197638172741415e-07,-2.1979468811145325e-07,5.725164810667499e-06,-2.8193991176702247e-06
-2.356134329572896,-2.357083227349261,-0.000152596508856,0.0001078955345495,0.0001079085174549,0.0021907357589475,-0.0048627713709735,0.060624891524215,5.751685758490777e-07,-4.337309117822576e-07,1.0836923172163893e-05,3.5927437506866075e-06,3.5935311493571974e-06,7.295150077295437e-05,-2.8193991176702247e-06
-2.356061378072123,-2.3570723899966706,9.907283248499993e-06,-7.004574588175885e-06,-7.006439623995143e-06,0.0001620803068146,0.0048799937568933,-0.0609205841481346,5.752002701082774e-07,-4.337366011270862e-07,1.0837352590886695e-05,-2.3324868656663285e-07,-2.333180856621581e-07,5.3972742169293735e-06,-2.8205404772340857e-06
-2.356055980797906,-2.357061552214786,8.486071096621616e-06,-5.999727226782271e-06,-6.001389494202516e-06,0.0001908665951202,-4.2679043599951234e-05,0.0008644531022695,5.752319446436712e-07,-4.337422807002174e-07,1.083778188437634e-05,-1.9978769683257205e-07,-1.99849489035424e-07,6.355857617505008e-06,-2.8216794067706624e-06
-2.3560496249402885,-2.357050714003712,6.7440496780720615e-06,-4.76807238189597e-06,-4.7694540380744594e-06,0.0002058729147774,-5.231295551199864e-05,0.0004506402299461,5.75263601805806e-07,-4.337479516461351e-07,1.08382110743932e-05,-1.5877421176542782e-07,-1.588254172281314e-07,6.855568062089993e-06,-2.8216794067706624e-06
-2.3560427693722263,-2.35703987536354,5.495408193743264e-06,-3.885250791569544e-06,-3.886429917349448e-06,0.0002231539257768,-3.749674127113505e-05,0.0005189492792606,5.752952434369547e-07,-4.337536147944708e-07,1.0838640172039504e-05,-1.293766966689801e-07,-1.2942027025112198e-07,7.431025728369385e-06,-2.822802506597985e-06
-2.356035338346498,-2.35702903629435,4.591308673441446e-06,-3.246028762688305e-06,-3.247062150101054e-06,0.0002448211428171,-2.7150135744799352e-05,0.0006506671783861,5.753268711747166e-07,-4.337592708794462e-07,1.083906918974975e-05,-1.0809091857162517e-07,-1.0812900820839109e-07,8.15254405581e-06,-2.8233828402343134e-06
-2.356027185802442,-2.357018196796215,3.622692977378385e-06,-2.5612021625389363e-06,-2.5620593066813554e-06,0.000249332715967,-2.9087558440332145e-05,0.0001354826771737,5.753584864215886e-07,-4.337649205038777e-07,1.0839498135073454e-05,-8.52865743814885e-08,-8.53180320299585e-08,8.30277944170125e-06,-2.8233828402343134e-06
-2.356018883023,-2.3570073568691976,2.971228664918894e-06,-2.100606958589848e-06,-2.1013448514605185e-06,0.0002585958257356,-1.9563492866651367e-05,0.0002781714645253,5.753900905584343e-07,-4.33770564291832e-07,1.0839927017336493e-05,-6.994900541422057e-08,-6.997598941960165e-08,8.611240996998746e-06,-2.823942503142746e-06
-2.3560102717820035,-2.356996516513353,2.52227294827478e-06,-1.7831877189286006e-06,-1.7838448320022025e-06,0.0002742049173348,-1.348215365297641e-05,0.0004687414894641,5.754216847271218e-07,-4.33776202735537e-07,1.084035584408838e-05,-5.9379111559005625e-08,-5.940307198667201e-08,9.13102374725062e-06,-2.823942503142746e-06
-2.356001140758256,-2.356985675728731,2.033526043009008e-06,-1.4376420068263972e-06,-1.4381980488806273e-06,0.0002722147524547,-1.4677084242215378e-05,-5.976471111481647e-05,5.754532700231358e-07,-4.337818363276524e-07,1.0840784622434542e-05,-4.787264234734612e-08,-4.789283116827916e-08,9.06475125674251e-06,-2.825076651552214e-06
-2.3559920760069994,-2.3569748345153725,1.7083126099639704e-06,-1.207714898023592e-06,-1.2082039142685217e-06,0.0002770644152275,-9.76616916051164e-06,0.0001456355187045,5.754848474300475e-07,-4.337874655075038e-07,1.0841213358592228e-05,-4.021620014444176e-08,-4.023389600703546e-08,9.226245027078755e-06,-2.826195931177188e-06
-2.3559828497619724,-2.357073076514032,1.487252566572068e-06,-1.0514237807179295e-06,-1.051868922497484e-06,0.0002896057993527,-6.638439741498575e-06,0.0003766181418969,-0.0001089110322114,-0.0001104599142502,-9.824199865970938e-05,-3.501178997028985e-08,-3.5027856770756434e-08,9.64387311844687e-06,-2.826195931177188e-06
-2.355981996793496,-2.363173223481208,0.1337808528861818,-0.0945772448211365,-0.0946174474449454,4.31845309195231e-05,0.9207366357663286,-5.091092005996042e-05,-0.0025059214822156,-0.0024784508053229,-0.00240437801977,-0.003149379236735,-0.0031508039968559,1.4380448796201193e-06,0.0991072888463999
-2.3559778429664235,-2.37356284913338,0.2180174680400964,-0.1541282277611703,-0.1541950251396434,-4.375368528634942e-06,0.3535993285501211,-0.0013251142627181,-0.0040237387936733,-0.0039018062334857,-0.0039366240562963,-0.0051324039382966,-0.0051347603358553,-1.4569977200354357e-07,0.1613573198357682
-2.355977988666196,-2.377871572940013,0.2180146053970927,-0.1541262264713573,-0.1541929780507203,2.46785412192658e-05,-8.59652553663125e-05,0.0008724897822192,-0.0043163037377175,-0.0041485135090699,-0.0043087238066332,-0.0051323348237562,-0.0051346946581374,8.217954226015512e-07,0.1613573198357682
-2.355977166870773,-2.38246960874378,0.2246214037820637,-0.1587967963138976,-0.1588658318124682,1.2770611675257276e-05,0.1984023539030345,-0.000357595481802,-0.0044546087771925,-0.0042337946590733,-0.0045980358037667,-0.0052878637706966,-0.0052903017140157,4.252613687860674e-07,0.1738399978414297
-2.355976741609404,-2.3872396033274774,0.2180120569378562,-0.1541242325434621,-0.1541913678296029,-0.0060505883839793,-0.1984788842104353,-0.1820828527223609,-0.0044488259229188,-0.0042129864738004,-0.0047699945836972,-0.0051327877762516,-0.0051341218555334,-0.0002014845931865,0.1802197556167288
-2.3561782262025908,-2.39225797430073,0.2180107163849488,-0.1541543487012207,-0.1541593631122711,-0.0059657912681032,-4.025684406615225e-05,0.0025464599362193,-0.004546350577517,-0.0042600772731769,-0.0050183709732527,-0.0051337833037326,-0.0051330632588814,-0.0001986608492278,0.1802197556167288
-2.3563768870518187,-2.395269004331737,0.224624592372343,-0.1588625405903015,-0.1588045991010212,-0.006232120415299,0.1986148945163402,-0.0079978722881607,-0.004687867547744,-0.0043474444465985,-0.0030110300310068,-0.0052906029042228,-0.0052877126096261,-0.0002075296098294,0.1882201201417543
-2.356584416661648,-2.394876276032881,0.1948342878169382,-0.1378223552900557,-0.1377149160092514,0.0419711983127013,-0.8946037404025455,1.4475471089489598,-0.0048483939591998,-0.0044826879691018,0.000392728298856,-0.004586218858778,-0.0045891717510536,0.0013976409038129,0.1915260170249733
-2.355186775757835,-2.3937267982637622,0.1945351973456744,-0.1374184690693056,-0.1376957056881905,0.0350102590535318,-0.0089816958337479,-0.2090372149900747,-0.0048893994129017,-0.0045314870135103,0.0011494777691187,-0.0045733017980526,-0.0045879925753043,0.0011658416264826,0.195968495001533
-2.3540209341313525,-2.3927281290246323,0.2005048541948726,-0.1414698442251167,-0.1420861700892397,0.0345860276760022,0.1792689744503964,-0.0127396810068953,-0.0051070151174218,-0.0047427897635723,0.0009986692391299,-0.0047081588904378,-0.0047342421435034,0.0011517147216108,0.1961695020154056
-2.3528692194097416,-2.391861581833117,0.2183621533532561,-0.1538910670444309,-0.1549179444125095,0.0313214372518179,0.5362552299814862,-0.0980357484740041,-0.0054610460064074,-0.0050815737248108,0.0008665471915154,-0.0051218145409403,-0.0051615053308634,0.0010430038604855,0.2178908093522703
-2.351826215549256,-2.390989842821455,0.2178445545606935,-0.1533650080027244,-0.1547107761989166,0.025716260675971,-0.0155435072841607,-0.1683236208963034,-0.0054682671366695,-0.0050966229248742,0.0008717390116617,-0.0051047815771583,-0.0051541209573085,0.0008563514805098,0.2178908093522703
-2.3509698640687464,-2.3899035831013644,0.2247003236405945,-0.158054832002782,-0.1597150760722365,0.0261889399362907,0.2058789513483787,0.014194572381975,-0.0054668100350817,-0.0051048752127552,0.0010862597200906,-0.0052608373068981,-0.0053208744078038,0.0008720916998784,0.2199706017302344
-2.3490293944329257,-2.3888062934346603,0.2184443669601114,-0.1533527919866617,-0.1555662644871937,0.0319913932946435,0.0050398748827904,-0.0027636097634237,-0.0054656184170755,-0.0051148428590503,0.001097289666704,-0.0051038206205071,-0.0051831417278728,0.0010653133967116,0.2202642915756263
-2.347964081036214,-2.3877192291478964,0.2251945467715899,-0.1579206303234914,-0.1605417653257026,0.0324861154538674,0.2027081024468014,0.0148565212980133,-0.0054642832524473,-0.0051241120891213,0.0010870642867639,-0.0052557951440974,-0.0053489521474025,0.0010817876446137,0.2202642915756263
-2.3468822933916003,-2.3885045066687582,0.2185770356244951,-0.1531113555452008,-0.1559898500079505,-0.0250875445091201,-0.198724058471317,-1.7289387376272554,-0.0054769492288311,-0.0051378916997506,-0.0007852775208618,-0.0051007101577438,-0.0051923976438061,-0.0008354152321537,0.2203979988682619
-2.3477177086237537,-2.38939683360018,0.2184886905925697,-0.1531796808032657,-0.1557988873704344,-0.025991510748829,-0.0026530039617219,-0.0271461333245918,-0.005477970599428,-0.0051287422511854,-0.0008923269314218,-0.0051030608583871,-0.0051859608508896,-0.000865517307936,0.2205950275988362
-2.34858322593169,-2.3903042190652006,0.2248295600014515,-0.1577638858496049,-0.1601839173327932,-0.02645608901493,0.1904164987652188,-0.0139512992823121,-0.005473818257943,-0.0051113577201783,-0.0009073854650205,-0.005255817409245,-0.0053318775824101,-0.0008809877641971,0.2205950275988362
-2.349464213695887,-2.3911480137288392,0.2179628474055868,-0.1530822342109677,-0.1551567994582562,0.0303017896251658,-0.2062075854614037,1.7044408000028823,-0.0054283222309899,-0.0050647294549669,-0.0008437946636385,-0.0050949639382335,-0.0051693583257125,0.001009049594518,0.2172521281423999
-2.348455164101369,-2.390544262768444,0.217593590788835,-0.1526665201089186,-0.1550480712237729,0.0316897086321208,-0.0110887872898421,0.0416792494581069,-0.0053997342876889,-0.0050394301265342,0.0006037509603955,-0.0050810031389551,-0.0051658479098137,0.0010552672974496,0.2172521281423999
-2.34739989680392,-2.3894609813962586,0.2239386386702588,-0.1569498133064793,-0.1597349992723886,0.0323612273916068,0.1905419784211339,0.0201657285130917,-0.0054368327004139,-0.0050835346104522,0.001083281372185,-0.0052234928912856,-0.005322058079362,0.0010776288721405,0.2186292308817644
-2.346322267931779,-2.388430332913928,0.2072678668551518,-0.1451065178145294,-0.1480002267512674,0.0298411104277884,-0.5006237782314409,-0.0756791881026534,-0.005203176115349,-0.004874548571708,0.0010306484823305,-0.0048295337741372,-0.0049308700266082,0.0009937089772453,0.2086999966062645
-2.3453285589545336,-2.387348306461804,0.2060771958738577,-0.144126643408813,-0.1472933172922016,0.0314102930053882,-0.0357558853241465,0.0471225999279203,-0.0051472542532298,-0.0048318383268754,0.0010820264521247,-0.0047967877266859,-0.0049074386163907,0.0010459627570794,0.2086999966062645
-2.3442825961974543,-2.3862388270190658,0.2124460696400181,-0.1484220119645696,-0.1520007857541552,0.0322440221531292,0.1912574704552675,0.0250369113435756,-0.0051469153423664,-0.0048418601176645,0.0011094794427375,-0.0049396691504672,-0.0050643425000318,0.0010737259376992,0.2079002680613709
-2.343208870259755,-2.384905530451751,0.206374413645217,-0.144021521816951,-0.1478113658043137,0.0386873099133959,-0.18233201185589,0.1934921249329333,-0.0051439191359606,-0.0048507315180654,0.0013332965673149,-0.0047926810984763,-0.0049252683650831,0.001288287420116,0.2079002680613709
-2.3419205828396388,-2.383586185219244,0.2065446283192303,-0.1439496085720686,-0.1481188498452416,0.038563598476427,0.00511155177217,-0.0037150581672347,-0.0051420216836184,-0.0048618899818529,0.0013193452325066,-0.0047902898283878,-0.0049354961423921,0.001284167829265,0.208009174365877
-2.340636415010374,-2.382299480538452,0.212982225593673,-0.1482399796758397,-0.1529259194660632,0.0393966389148143,0.1933212394727556,0.0250162293809989,-0.0051595708243935,-0.0048907495473764,0.0012867046807922,-0.0049329836007369,-0.0050957335036092,0.0013119080758633,0.2081895786381013
-2.3393245069345103,-2.3798991925954085,0.2181540432425507,-0.1516340433075962,-0.1568384630543883,0.0791560753333168,0.1553098393056373,1.1939770696247,-0.0053938977078694,-0.0051306922769643,0.0024002879430433,-0.0050424568869897,-0.0052294348525794,0.0026358973085994,0.2081895786381013
-2.336688609625911,-2.377203005147036,0.2185291778798593,-0.15148014290865,-0.1575079930962938,0.0787244905362562,0.0112653044236789,-0.0129605044162333,-0.0054033957355323,-0.0051662751917209,0.0026961874483726,-0.0050373400912811,-0.0052516871750768,0.0026215255348573,0.2198164251796539
-2.334067084091054,-2.3744772926053503,0.2252564071501235,-0.1557171679965791,-0.1627655140172739,0.0808161441855564,0.2020188970049334,0.0628124219009071,-0.0053719590100407,-0.005164123587012,0.0027257125416855,-0.0051780120340397,-0.0054271294315403,0.002691177601379,0.219996799081956
-2.331375906489675,-2.371300673666328,0.195609075635633,-0.1348414398437882,-0.1417063744927547,0.0201696219804769,-0.8903102556904063,-1.8212168830354205,-0.0050870931318188,-0.0049180167091766,0.0031766189390229,-0.0044885738641102,-0.004720387893344,0.0006716484119498,0.219996799081956
-2.330704258077725,-2.3689587273470325,0.2066697375224416,-0.142365421583738,-0.1498147761233164,0.0704483587546503,0.33215200861287,1.509871975200402,-0.0050823303963599,-0.0049367884895044,0.0023419463192948,-0.0047348478718549,-0.0049944494610508,0.0023459303465298,0.2085785539774025
-2.3283583277311948,-2.3669545993522174,0.2129126836612567,-0.1463034296159183,-0.1546839272402223,0.0716834031223448,0.187475860024479,0.0370884194502862,-0.0050450368615092,-0.0049212328132487,0.002004127994815,-0.0048656850510829,-0.005156847570307,0.002387057323974,0.2085785539774025
-2.325971270407221,-2.364444535931423,0.2178846685398888,-0.1493416520526462,-0.1586530798532558,-0.0007763956966402,0.1493088552141762,-2.175969934504057,-0.0050214274653989,-0.0049363419885151,0.0025100634207944,-0.0049730769791959,-0.0052831475909971,-2.5853976698120287e-05,0.2068994146688263
-2.325997124383919,-2.3616934494389046,0.2177916212982136,-0.1492819759898997,-0.158581467871424,-0.0028549314455078,-0.0027942114617174,-0.0624184909569862,-0.0051218290809184,-0.0050546876823628,0.0027510864925184,-0.0049712725162753,-0.0052805908693863,-9.506921713541283e-05,0.2071667432625243
-2.3260921936010543,-2.361046206437732,0.224213069174029,-0.1536989804425143,-0.1632425306082013,-0.0024873769594596,0.1928362725470086,0.0110376722537022,-0.0052010432318095,-0.0051516868212554,0.0006472430011728,-0.0051183308694104,-0.0054358304926671,-8.282965275000498e-05,0.2071667432625243
-2.3261750232538043,-2.3611610917211023,0.2062616972940174,-0.1414056795053353,-0.1501609855263453,-0.004632571595369,-0.5390802366369845,-0.0644202593366196,-0.0050211182356794,-0.004972770042239,-0.0001148852833705,-0.004709130130785,-0.0050000585024391,-0.0001542646341257,0.2186626543695978
-2.3263292878879303,-2.3612967245703187,0.2060958930769475,-0.1413151542618312,-0.1500184799254392,-0.0039211600136628,-0.0049791056177149,0.0213637111623495,-0.0050274028898275,-0.0049782200484118,-0.0001356328492163,-0.0047060561670178,-0.0049953690044722,-0.0001305746284549,0.2080921729488156
-2.3264598625163853,-2.3613802935295696,0.2125025384492153,-0.1457282380854005,-0.1546628897696052,-0.0043292900578167,0.1923917529209537,-0.0122561574820995,-0.0050966987999671,-0.0050450997538774,-8.356895925087926e-05,-0.0048530549504359,-0.0051499871792987,-0.0001441653589252,0.2080921729488156
-2.3266040278753106,-2.360133647562771,0.2178514741546616,-0.1494192438157772,-0.1585343949081099,0.0378740598951302,0.1606286998632542,1.2673678664548622,-0.0053036225865266,-0.0052560091615546,0.0012466459667983,-0.004972262104429,-0.0052823959264172,0.0012612061945078,0.2196895568011762
-2.3253428216808025,-2.35887423264228,0.2180875367191955,-0.1493808734901102,-0.1588947082428428,0.0370234532140942,0.0070889659019189,-0.025543744175253,-0.005302958244533,-0.005268451849161,0.0012594149204909,-0.0049710516480247,-0.0052943231480112,0.0012328809920293,0.2198589370545109
-2.324109940688773,-2.358263154164905,0.2248833003974118,-0.1538335687736507,-0.1640357641369559,0.0376619262808879,0.2040769873338219,0.01917336536918,-0.0053052552351204,-0.0052825287871242,0.0006110784773754,-0.0051191605010025,-0.0054656679926815,0.0012541421451535,0.2198589370545109
-2.32285579854362,-2.35829247073516,0.2184267712369931,-0.1492169831956736,-0.1595134675160684,0.0004778040070343,-0.1938897645771371,-1.1166403085241323,-0.0053131735525633,-0.0052915134187631,-2.931657025451173e-05,-0.0049688145818664,-0.0053119022622859,1.5910873434243912e-05,0.2205532173298457
-2.322839887670185,-2.358339701808143,0.2185794067255703,-0.1493187154542844,-0.1596273105066447,-0.0009072755432803,0.0045836483056213,-0.0415939804899302,-0.0053164344368746,-0.0052932263184829,-4.723107298376661e-05,-0.0049723247736267,-0.0053155786362292,-3.021227559123485e-05,0.2205532173298457
-2.3228700999457765,-2.358924520481345,0.225240054615087,-0.1538737906679134,-0.1644868953701009,-0.001546123913539,0.2000194561416418,-0.0191846357435039,-0.0053186760822276,-0.0052930112275715,-0.000584818673202,-0.005124067391411,-0.0054773479787324,-5.148592632084893e-05,0.2206226244882206
-2.322921585872097,-2.359910511422965,0.2184637148275183,-0.1492527164123021,-0.1595306282184966,-0.0269872588277308,-0.2034936873143744,-0.7639980454712267,-0.0053199526311163,-0.0052823079918659,-0.0009859909416198,-0.0049724331576434,-0.0053102002547598,-0.0008986757189634,0.2206073020104655
-2.323820261591061,-2.361300929018149,0.2182254155084107,-0.1492330618603294,-0.1592225650515957,-0.0273818822374132,-0.0071561357089369,-0.011850552843315,-0.0052918838677412,-0.0052460281137398,-0.0013904175951839,-0.0049718090024187,-0.0052999093659404,-0.0009118166785058,0.2206073020104655
-2.324732078269567,-2.3620074720686977,0.2245264412624009,-0.1536913170143286,-0.1636798762840427,-0.0279064979113577,0.189219992612318,-0.0157542244427778,-0.0052668297515158,-0.0052129110086802,-0.0007065430505486,-0.0051203822122061,-0.0054482273134024,-0.0009292863804482,0.2177901588173798
-2.325661364650016,-2.362104175308484,0.2174861094672829,-0.1490193885393326,-0.1584090579814753,-0.0035496811785845,-0.2114213752287682,0.7314359379211157,-0.0053051017048139,-0.0052466185889298,-9.670323978561156e-05,-0.0049625891714225,-0.0052747925167067,-0.0001182043832468,0.2197678437575535
-2.325779569033262,-2.362169835792552,0.2173948318840163,-0.1489755617636821,-0.1583249662152973,-0.0025305638225783,-0.0027410685665663,0.0306041248049938,-0.0053050290166041,-0.0052438915113534,-6.566048406897451e-05,-0.0049610401544621,-0.0052720765109949,-8.426777529185747e-05,0.2193874563183057
-2.3258638368085536,-2.361628464388277,0.2239977776591355,-0.1535141514744724,-0.1631208438345764,-0.0018200348865693,0.19828665991349,0.0213372052855546,-0.005303625869333,-0.0052434811943495,0.0005413714042754,-0.0051121155958963,-0.0054318353014252,-6.060716172275882e-05,0.2194669766428641
-2.3259244439702766,-2.360814539121123,0.2175390727681368,-0.1490973576206034,-0.1584084155951779,0.0232798133753632,-0.1939551018317936,0.7537491970550318,-0.005301647472617,-0.0052494378655763,0.0008139252671539,-0.0049628286254571,-0.0052769883533638,0.0007752177853995,0.2194669766428641
-2.3251492261848767,-2.3600136981303,0.2176958226595979,-0.1490818568420253,-0.1586381768805131,0.0236554116809839,0.0047072039477819,0.011279228397017,-0.0053020095477467,-0.0052583025439739,0.0008008409908226,-0.004962276332266,-0.0052846702250545,0.0007877252089767,0.2193853867982468
-2.3243615009759,-2.359184929366412,0.2244826448216535,-0.1536006830081944,-0.1637048808238191,0.0240050825524729,0.2038084733350026,0.0105006267714439,-0.0050558136342068,-0.0050227557509429,0.0008287687638883,-0.005112652837998,-0.0054534824233126,0.0007993692489973,0.2197727944890409
-2.323098098913385,-2.3579947114461137,0.2060296699611832,-0.1407844276868576,-0.1504259612739704,0.0220651798965516,0.6590745561161476,0.2441519691198629,-0.0050234381645241,-0.0050037041444372,0.0005753458221269,-0.0046862159111598,-0.0050109670155015,0.0007347704905551,0.2081728322408886
-2.32236332842283,-2.35707246044142,0.2131594252563827,-0.1455419473996215,-0.1557385055879156,0.0162693310426014,0.2141067656216071,-0.1740495151336404,-0.0051740876487116,-0.0051590742109485,0.0009222510046935,-0.0048450746887514,-0.0051874674999415,0.0005417687237186,0.2087655843960774
-2.321821559699111,-2.3549539096059338,0.2182173776017474,-0.1489090405759958,-0.1595146435977588,0.0616048527663089,0.1518904608217606,1.361427078790014,-0.0052918893562924,-0.0052919198878106,0.0021185508354863,-0.0049531503463305,-0.0053169841779624,0.002051441597118,0.2201620477559086
-2.319770118101993,-2.352888379182467,0.2185947574176548,-0.1488384457079583,-0.1600961743756624,0.0617435738615553,0.0113327272044283,0.0041657986560497,-0.0052819861091459,-0.005302411741237,0.0020655304234669,-0.0049507670960791,-0.0053363581279614,0.0020560610095897,0.2201240317410566
-2.317714057092404,-2.3513303742365324,0.2250860126529509,-0.1529189945297954,-0.1651650514001093,0.0631584670871383,0.1949325896485295,0.0424892860535428,-0.0052143728361702,-0.0052533238640717,0.0015580049459344,-0.0050863438298145,-0.00550541284071,0.0021031769540017,0.2201240317410566
-2.3156108801384017,-2.351007920893396,0.2068410731621582,-0.1402042179461247,-0.1520723736152916,-0.0641392640399936,-0.5478960808045839,-3.822754688502462,-0.0051374905605581,-0.0051790318828536,0.0003224533431365,-0.0046741394262643,-0.0050590807466408,-0.0021358374925317,0.2155122971515661
-2.317746717630933,-2.3523448501257054,0.2066443983239518,-0.1403950780677536,-0.1516282606014375,-0.0622110151752466,-0.0059061512974895,0.057905371313724,-0.0050242157967405,-0.0050794829824896,-0.0013369292323095,-0.0046803175632035,-0.0050444354117994,-0.0020716268053357,0.2128202853349344
-2.321907862983467,-2.354065017198652,0.2179053078527237,-0.1487098341478555,-0.1592736902884704,-0.1194009826573886,0.1563050355667896,-1.7012816197217313,-0.0050302502509966,-0.0050645261168529,-0.0017201670729463,-0.0049625000678881,-0.0052940193264441,-0.003976052722491,0.2072130748288121
-2.325883915705958,-2.356732292929765,0.2175984818655993,-0.1491316536507863,-0.158457720511168,-0.1200184526843564,-0.0092139936073399,-0.0185426434524876,-0.0052076151014643,-0.0052199647728249,-0.0026672757311132,-0.0049765470672042,-0.0052667686615137,-0.003996614474389,0.2135510155274371
-2.329880530180347,-2.360720470361033,0.2240345065349845,-0.1541933966601679,-0.162529555911453,-0.1195954884778546,0.1932740140956524,0.0127016278228785,-0.0053137527585566,-0.0052900608310713,-0.003988177431268,-0.0051453338467115,-0.0054020620372527,-0.0039825297663125,0.2135510155274371
-2.3271986525361914,-2.3544147724572007,0.2177928089793772,-0.1494732234017855,-0.1584028507603553,0.0620197268984615,0.338758226068712,-4.147526359467109,-0.0051656938350242,-0.0051680687801324,0.0037687644300175,-0.0049719395905884,-0.0052800153484818,0.0020652569057187,0.2193699330309053
-2.3251333956304725,-2.3522750347757224,0.2245602863723355,-0.1537801695371432,-0.1636428479120087,0.0656175555320941,0.2032275493380862,0.1080429019108864,-0.0052595311304685,-0.005290051500837,0.0021397376814782,-0.0051148514783501,-0.0054549633763719,0.0021850645992187,0.2193699330309053
-2.3229483310312538,-2.3514890830821407,0.2181237681498187,-0.1490247274568743,-0.1592784004134905,0.0234770671581723,-0.1932888355110129,-1.265480131349,-0.0052642047902982,-0.0053109010347183,0.0007859516935817,-0.0049603810089835,-0.0053059741650442,0.0007817863363671,0.2194801720381111
-2.3221665446948867,-2.3507250000795614,0.2183127378748564,-0.1490291586752942,-0.1595329476407608,0.0223982889306127,0.0056747665176463,-0.0323957425693596,-0.0052652618951403,-0.0053196085451932,0.0007640830025792,-0.0049606206124202,-0.0053143615584346,0.0007458630213894,0.2194801720381111
-2.321420681673497,-2.3500430995596013,0.2251012240705462,-0.1535405231254317,-0.1646082283375501,0.0225799043171712,0.2038584443150109,0.0054539155122681,-0.0052660141342344,-0.0053279091475572,0.00068190051996,-0.0051107672368692,-0.0054834418094076,0.0007519108137618,0.2202210008332634
-2.320668770859736,-2.3501765533018104,0.2185918535308728,-0.1489802773272225,-0.1599602306748976,-0.0026480090796944,-0.1954765927829842,-0.7575949969028735,-0.0052727002485757,-0.0053371603077417,-0.000133453742209,-0.0049612091884898,-0.0053265211112577,-8.817870235382497e-05,0.2206972404692457
-2.320756949562089,-2.350327473257785,0.2185966568129531,-0.1489976557984235,-0.1599506078024541,-0.003984817375672,0.0001442427051124,-0.0401443932726014,-0.0052732371578855,-0.00533514403068,-0.000150919955975,-0.0049619064281602,-0.0053260902093154,-0.0001326944186098,0.2206972404692457
-2.320889643980699,-2.350479149910224,0.2250348920562463,-0.1534078693055821,-0.1646412107520103,-0.0045220665762948,0.1933403976964943,-0.0161336096283109,-0.0052661276012767,-0.0053247509943697,-0.0001516766524383,-0.0051088239195012,-0.0054822337424473,-0.0001505848169906,0.2205939437316162
-2.3150492054364213,-2.3501427148391167,0.2123460403800016,-0.1438479688523073,-0.1562005208766312,-0.0144356249089347,0.1738335397885909,-0.0459375072440699,-0.0049553668848124,-0.0050175167540452,-5.773783070051053e-05,-0.0047913201113393,-0.0052003877888751,-0.0004807063094675,0.2076149537958793
-2.309462996654935,-2.3420132345279616,0.2242238755881425,-0.150970538633625,-0.165783723110684,-0.0101790240718466,0.1928770017845396,0.0635357623528528,-0.0051849488463654,-0.0053365891222637,0.0001107572781626,-0.005028183085669,-0.0055198108721777,-0.0003389615015924,0.2197361473786988
-2.309801958156528,-2.341953512697505,0.2176973280523455,-0.1466307468351903,-0.1609085166288126,0.0016112781259206,-0.1959924184924027,0.3540631290620816,-0.0052066629666786,-0.0053577442628561,5.972183045654944e-05,-0.0048825908145549,-0.005358447745041,5.365556159315777e-05,0.2197361473786988
-2.3097483025949344,-2.3419117533769787,0.2178717751007303,-0.1467396054483583,-0.1610453308183858,0.0014297098266101,0.0052386501016453,-0.0054525014807961,-0.0052109346196839,-0.0053628421358271,4.175932052641329e-05,-0.0048862318382533,-0.0053629890301935,4.760933722611772e-05,0.2199598820299405
-2.3097006932577084,-2.341773294083074,0.2246637205022414,-0.1513061666522423,-0.1660729696335714,0.0009830512241674,0.2039623243697042,-0.0134131712445238,-0.0051653985674773,-0.0053171378900229,0.0001384592939044,-0.0050383333045892,-0.005530377520278,3.273560576477763e-05,0.2199598820299405
-2.309667957651944,-2.3381175953726303,0.1956650279578741,-0.1317714382784453,-0.1446412500629939,0.1900349739216191,-0.8708316079389585,5.677234915839387,-0.0047717397333532,-0.0049250441524442,0.0036556987104439,-0.0043726572127251,-0.0048304619457136,0.0063281646315899,0.1972398613641184
-2.3035033600187425,-2.338304080459808,0.2133387134404394,-0.1426989375467812,-0.158588839063289,-0.0071515196706663,0.2000186220838232,-0.0672551891027504,-0.0049737278326483,-0.0051578564032974,-0.0004259043022449,-0.0047524351052481,-0.0052805039375726,-0.0002381456050331,0.2090945671794429
-2.303741505623776,-2.337701852651048,0.218191593555055,-0.1459835755541528,-0.1621615465100135,0.0345434604344418,0.145732135574042,1.252101504657904,-0.0051721718447834,-0.0053614184116393,0.0006022278087605,-0.0048580763267225,-0.0054028370826073,0.0011502972324669,0.2197239401179106
-2.3025912083913087,-2.336550247814818,0.2184337370608596,-0.1459587467935386,-0.1625095127087409,0.0344487287182546,0.0072715767508886,-0.002844796281897,-0.0051973601873263,-0.0053938192549206,0.0011516048362296,-0.0048572512564551,-0.0054144162085381,0.0011471426663178,0.2197239401179106
-2.301444065724991,-2.335474112225476,0.2249086182654511,-0.1500932552478305,-0.1674989590988076,0.035166454975108,0.1944408770147605,0.021553341046648,-0.0051607597335894,-0.0053685353377093,0.0010761355893422,-0.0049947662084475,-0.0055807051607796,0.001171042950671,0.219556148658356
-2.30027302277432,-2.335012891137384,0.2067346047156164,-0.1377843947861903,-0.1541254597408404,-0.0321295889380968,-0.5457661726677084,-2.0209022196157616,-0.0050161866467273,-0.0052391142072801,0.0004612210880914,-0.0045908987276998,-0.0051299817032893,-0.0010699153116386,0.2134514462081042
-2.3013429380859587,-2.336190896806641,0.2064171826680567,-0.1377374086958826,-0.1537415348770829,-0.0301027685745416,-0.0095321936204127,0.0608654763830385,-0.0049045070938322,-0.0051100680504123,-0.0011780056692569,-0.0045891547535723,-0.0051173527253733,-0.0010024221935322,0.2134514462081042
-2.3023453602794905,-2.336755590382385,0.2122621863553574,-0.1417960510787056,-0.1579528906188221,-0.0308095684173152,0.1755256362552763,-0.0212252205037105,-0.0048979835629929,-0.0050954708097519,-0.0005646935757437,-0.0047244378602706,-0.0052574692485934,-0.0010259586282965,0.2083616085551708
-2.303371318907788,-2.3368779407531943,0.2059440882665234,-0.1377325724884392,-0.1531101105990275,-0.0046526690296453,-0.1897326753403592,0.7854924741041994,-0.0048989608227824,-0.0050934546496018,-0.0001223503708094,-0.0045868236781463,-0.0050982706846098,-0.0001549338786871,0.207874125537025
-2.3035262527864746,-2.336985309218249,0.2059855203998263,-0.1377840067912832,-0.1531195679425946,-0.003379817146124,0.0012442082072919,0.0382237802859246,-0.0049020244463789,-0.0050960558231268,-0.0001073684650547,-0.0045884284076576,-0.0050986827496715,-0.0001125479109659,0.207874125537025
-2.3036388006974406,-2.334476432138169,0.212358301654383,-0.1420645347637709,-0.1578407939788927,-0.0032743042306622,0.1913748124491527,0.0031685560198753,-0.0048878625567057,-0.0050841188888179,0.0025088770800798,-0.0047309675694331,-0.0052559017101048,-0.000109034330881,0.2081128763739647
-2.3037478350283216,-2.330148325833889,0.2070704768731155,-0.1385438395987171,-0.1538953764792965,0.1794831397330507,-0.1587935369750005,5.488211530441831,-0.0049127639951316,-0.0051573911876962,0.0043281063042797,-0.0045981013064685,-0.0051385319410061,0.0059767885531105,0.2081128763739647
-2.298150685568983,-2.3305737230466623,0.2247150903741906,-0.1494121286258292,-0.1678478110115808,-0.0110995497505182,0.2038417880286173,0.0090397488296672,-0.0051579795231214,-0.0054314270215377,-0.0002638220923172,-0.004976384442723,-0.0055884768459281,-0.0003696150066922,0.2203133616601226
-2.298520300575676,-2.3307834980281545,0.2182881191125482,-0.1451991169783214,-0.1629936175879589,-0.0058235855119176,-0.1930021399892614,0.1584373645225422,-0.0051630639671222,-0.0054342654793251,-0.0002097749814922,-0.0048355866553673,-0.0054272811455026,-0.0001939253975468,0.2203133616601226
-2.298714225973222,-2.3310173094188205,0.2184518526184268,-0.1453396574796101,-0.1630876938218591,-0.0062228727203616,0.0049169220984552,-0.0119906068601798,-0.0051682619123996,-0.0054368269063884,-0.0002338113906659,-0.0048403030182052,-0.0054303813107624,-0.000207221661588,0.2206147104147103
-2.29892144763481,-2.3318702097756403,0.2252019019230862,-0.149865414097147,-0.1680959674925784,-0.0072058345916636,0.2027041833231039,-0.029518374513575,-0.0051755639522468,-0.0054391772109936,-0.0008529003568198,-0.0049911174363429,-0.0055970614683602,-0.0002399542919024,0.2207038666537785
-2.2991614019267126,-2.3330457769005104,0.2185745515995901,-0.1454942464714617,-0.1631142509122468,-0.0322308276031316,-0.1990195292341169,-0.7515012916356746,-0.0051812045559616,-0.0054315583818319,-0.0011755671248701,-0.004847802147471,-0.0054291661975614,-0.0010732865591842,0.2208584014457759
-2.300234688485897,-2.334414613603029,0.2184381440395048,-0.1455783220139834,-0.1628563014777642,-0.0337487137353382,-0.0040963231256826,-0.0455821661323295,-0.005172170848216,-0.0054102908060252,-0.0013688367025186,-0.0048507343331354,-0.0054204524017342,-0.0011238321673867,0.2208584014457759
-2.301358520653284,-2.335818610760842,0.224812779111208,-0.150014973626352,-0.167440417282058,-0.0344538793987573,0.1914304826337285,-0.0211761460486234,-0.0051339225567447,-0.0053615287597366,-0.001403997157813,-0.0049986240260137,-0.005572963619133,-0.0011473141839786,0.2187321293466935
-2.302505834837262,-2.335150282104434,0.2179710598079876,-0.1456357378913026,-0.162177725852452,0.0374202923424312,-0.205457036132746,2.15838353577143,-0.0051439807478861,-0.0053603364778858,0.0006683286564079,-0.0048462341491016,-0.005403601128337,0.0012460957350029,0.2182667983375019
-2.30125973910226,-2.3337678760319447,0.2175686890290073,-0.1451650681292617,-0.1620593639405872,0.03786212871883,-0.0120832065759844,0.0132683596516142,-0.0051470527201604,-0.0053789500182883,0.0013824060724894,-0.0048305236264108,-0.0053996852377568,0.001260808886337,0.218649296784751
-2.299998930215922,-2.333388578473204,0.2239718365776256,-0.1492268854814991,-0.1670171255573697,0.0412374581066709,0.1922867131717228,0.1013612428781072,-0.0051488455022408,-0.0053900391664072,0.0003792975587408,-0.0049653630861469,-0.0055651446611558,0.0013732073549521,0.2189799549345134
-2.29862572286097,-2.333282469861958,0.2174307126177764,-0.1446459091573099,-0.1623381524889615,0.0034360063116647,-0.1964301489444223,-1.135178732582771,-0.0051545614984525,-0.0053970837172058,0.0001061086112459,-0.0048163295775679,-0.0054061983197021,0.0001144190101784,0.2194523051705948
-2.298511303850792,-2.333181039921864,0.2175525934748919,-0.1447084045390006,-0.1624457096491887,0.0030881629160179,0.0036600857992645,-0.0104457476170196,-0.0051579540997397,-0.0054015365006112,0.000101429940094,-0.0048184417542134,-0.0054097522133082,0.0001028358251033,0.2194523051705948
-2.298408468025688,-2.3337461738407024,0.2243113528642944,-0.1491868707620247,-0.1675077927024439,0.0030106267642225,0.2029657474295048,-0.0023284129668276,-0.0051670781704749,-0.005409501124682,-0.0005651339188386,-0.0049675710331309,-0.0055783227625761,0.0001002538712486,0.2197851423277175
-2.2983082141544395,-2.33443619843721,0.2178880533049534,-0.1448984958190795,-0.1627256269995307,-0.0190694143337856,-0.19289187865889,-0.6630642972374857,-0.0051762412667067,-0.005411586689444,-0.0006900245965075,-0.004826770011206,-0.0054172934387714,-0.000635011497315,0.2197851423277175
-2.2989432256517546,-2.335144035212431,0.2180782373642006,-0.1451283643763075,-0.1627755370605003,-0.0200890528961073,0.0057112330104272,-0.0306197766462954,-0.0051846023996499,-0.0054125884559356,-0.0007078367752209,-0.0048345171277328,-0.0054188710275818,-0.0006689654614403,0.2203666476760803
-2.295383240222722,-2.3340077635749674,0.2134004811910361,-0.1414474281124131,-0.1597885804835549,-0.0309595218334899,0.1987034671071643,-0.1297959822014874,-0.0049168810946932,-0.0051454273970509,-0.001042764880986,-0.0047128725615468,-0.0053185917468656,-0.0010309520770552,0.2094708130564068
-2.292350866792224,-2.328210637940377,0.2245104679499812,-0.1483009703779992,-0.1685579200276966,-0.0410008660637589,0.1951117847061907,-0.0762187190378752,-0.0049176109795211,-0.0051994393343431,0.000381283806746,-0.0049421800077332,-0.0056096696281449,-0.0013653288399231,0.2110174826577796
-2.293716195632147,-2.326691364924756,0.2177253571769093,-0.14404209562234,-0.1632672834542714,-0.0242175296031131,-0.20375708027243,0.5040040979172922,-0.0049386257276277,-0.0052392726189721,0.0015192730156208,-0.0047987232092285,-0.0054349279194762,-0.0008064437357836,0.2110174826577796
-2.2945226393679303,-2.325470350450442,0.2177069549296225,-0.1441615290184295,-0.16313727892728,-0.0251035884553528,-0.0005526200386443,-0.0266083739411303,-0.0049949422359143,-0.0053119964856014,0.0012210144743138,-0.0048027787580203,-0.005430526351756,-0.0008359494955632,0.2126892879403472
-2.2953585888634938,-2.325927175791505,0.2240113837961442,-0.1484764773597592,-0.1677374011396991,-0.0213142516761073,0.1893221881838369,0.1137938972746373,-0.005093996198816,-0.0054166709246911,-0.0004568253410632,-0.0049461763117039,-0.0055839643278262,-0.0007097645808143,0.2126892879403472
-2.296068353444308,-2.3251039705531733,0.1953754450528166,-0.1296001581905798,-0.1462031584014616,0.1528408895825216,-0.859938100400228,5.229884121880753,-0.004827327403701,-0.0051294077004803,0.0008232052383321,-0.0043032140242709,-0.004879582346909,0.0050896016230979,0.2195752636943117
-2.29097875182121,-2.325449930350869,0.2062762383575815,-0.1360436779121974,-0.1550548425915039,-0.0297574582822556,0.3273511502932377,-5.483433869813132,-0.0048088592271787,-0.0051198820100298,-0.0003459597976958,-0.0045327452123426,-0.0051611394703347,-0.0009909233607991,0.208469773592563
-2.2919696751820093,-2.3264230297322213,0.2125656691849331,-0.1403499580829465,-0.1596435184470499,-0.029102641356616,0.1888717966171656,0.0196641719411284,-0.0048688081348203,-0.0051738366241259,-0.0009730993813521,-0.0046761601236544,-0.0053139241507157,-0.0009691179571753,0.208469773592563
-2.2929387931391845,-2.3279757804388463,0.2179235819608705,-0.1440461530839402,-0.1635279589439504,-0.0518085920835053,0.1608982815596838,-0.6818603821888691,-0.0051163692498178,-0.0054249482685974,-0.001552750706625,-0.0048013614844996,-0.0054414027031531,-0.0017252261163807,0.2205452171551828
-2.294664019255565,-2.329755343508289,0.2181459762917024,-0.1444753502620248,-0.16344583243058,-0.0516517345122912,0.0066785084333896,0.0047104375739984,-0.0051573281025466,-0.005448809934589,-0.0017795630694426,-0.0048156372194572,-0.0054386683287326,-0.0017200027592592,0.2205452171551828
-2.2963840220148244,-2.3315089538612512,0.2249398767373071,-0.1492645276645049,-0.1682796747313446,-0.0538230131721464,0.2040210344025422,-0.0652035633590155,-0.0051508433785941,-0.005423084656471,-0.0017536103529622,-0.0049754554760503,-0.005599320182515,-0.0017923063386324,0.2207210439563414
-2.2952637359505195,-2.33581033120048,0.2133852872208478,-0.1414182620826832,-0.1597941048719796,-0.0640687715168256,0.2011100676196219,-0.129473739448906,-0.0049405375656379,-0.0051587992974719,-0.0022984294147905,-0.0047148321003272,-0.0053161770909618,-0.0021334900915102,0.2098138758073176
-2.2973972260420297,-2.339609218083797,0.2181122846552078,-0.1448991588574591,-0.163025159039687,-0.0393496025140915,0.1419518749057083,0.7423173874694925,-0.005078202186899,-0.005272375854995,-0.0037988868833176,-0.0048286271879116,-0.0054256374015626,-0.0013103417637192,0.21589309392355
-2.298707567805749,-2.343651641948024,0.2181953462434442,-0.1451679149209498,-0.1628971626511658,-0.0408799185259501,0.0024943419890793,-0.0459554357915514,-0.0050863400034015,-0.0052394344537489,-0.004042423864226,-0.0048377121311315,-0.0054212460825111,-0.0013613012869141,0.21589309392355
-2.300068869092663,-2.346569802630066,0.2246368758741493,-0.1496816999958973,-0.1675025811408176,-0.0398705692199143,0.193439328249404,0.0303107899710452,-0.0050975200109045,-0.0052221324369697,-0.0029181606820425,-0.0049880298651932,-0.0055745899572103,-0.0013276899550231,0.2147069580543416
-2.3013965590476864,-2.3461174495119463,0.2178946502216521,-0.1454047591013737,-0.1622822683656092,0.0347166617989836,-0.2024692388137301,2.239856787354295,-0.0051469818392068,-0.0052470574643859,0.0004523531181197,-0.0048387837841495,-0.0054068597355667,0.0011560648379061,0.2165127364901158
-2.3002404942097803,-2.3449421441186327,0.2173628073283703,-0.1448626036170348,-0.162053744427471,0.0344254481431413,-0.0159712580565101,-0.0087451548301012,-0.0052108918369432,-0.0053255613343703,0.0011753053933136,-0.0048207606915966,-0.0053992158516422,0.0011463674231666,0.2165127364901158
-2.2990941267866134,-2.344137757547866,0.2240163330208311,-0.1491053235934268,-0.1671852862431361,0.0363088070613125,0.1998055763501718,0.0565573248700083,-0.0052079351626502,-0.0053331167919289,0.0008043865707665,-0.0049617683766819,-0.0055703345227439,0.0012090832751417,0.2189857520876015
-2.297885043511472,-2.3439858547833987,0.2175419581557533,-0.1445995735939809,-0.1625283571401569,0.0051572688635524,-0.1944256716239577,-0.9354816275603652,-0.0052138107488758,-0.0053435909834907,0.0001519027644674,-0.0048146310359012,-0.0054126700074768,0.0001717370531562,0.2195831868261584
-2.2977133064583155,-2.3438465909819444,0.2177088863597621,-0.1446825946438421,-0.1626779210806847,0.0043041715074739,0.005012858979243,-0.0256185392215769,-0.005217529061269,-0.0053483453786558,0.0001392638014543,-0.0048174720987635,-0.0054175823346572,0.0001433289111988,0.2195831868261584
-2.297569977547117,-2.34406199996194,0.2244939668801905,-0.1491677047148403,-0.1677692970591171,0.0039488997881492,0.2037561717846381,-0.0106688204001396,-0.0052236081831951,-0.0053553728469706,-0.0002154089799955,-0.0049668449705454,-0.0055871084096439,0.0001314983629453,0.2199609217421792
-2.297438479184171,-2.3447165818208755,0.218066709572632,-0.1448756056038181,-0.1629851181082542,-0.0181816096508388,-0.1930107299567124,-0.6645798630326748,-0.0052339508294485,-0.0053602232998122,-0.0006545818589356,-0.0048259301998751,-0.0054260060698381,-0.0006054476013729,0.220350877862735
-2.298043926785544,-2.3453900165723627,0.2182539950973503,-0.1450987684242383,-0.1630372772641996,-0.0192425115321523,0.0056241899314814,-0.0318589153547613,-0.0052420735224212,-0.0053612018074755,-0.0006734347514871,-0.0048334578907878,-0.0054276554287155,-0.0006407756340206,0.220350877862735
-2.298684702419565,-2.345828487190868,0.2250448239421623,-0.1497211108458808,-0.1680141712780035,-0.020419533285474,0.2039287941384975,-0.0353459985982498,-0.0051602333067264,-0.0052716569632148,-0.0004384706185054,-0.0049875424413588,-0.0055932409101837,-0.0006799704584062,0.2205381689946155
-2.2947694388488933,-2.343285698648713,0.1994935549566096,-0.1321378414106445,-0.1494565801045948,0.063170994758241,0.8383587567602342,-2.2469676015008564,-0.0048193815219621,-0.0049396761035153,0.0013124466145271,-0.0043948877539597,-0.0049815853936304,0.0021035941254494,0.1971829318335943
-2.292665844723444,-2.343681594032528,0.2129307049519903,-0.1407022746501285,-0.1598197579138179,-0.0284869035052153,0.4035180178793012,-2.752489437341032,-0.0049484920417255,-0.0050715785384606,-0.0003958953838147,-0.0046878405002299,-0.0053198354598014,-0.0009486138867236,0.2095017676019208
-2.293614458610168,-2.344007499478492,0.2104995961663925,-0.1392456383054648,-0.1578630171988297,0.0667917685460055,-0.0730062698377708,2.861221382919547,-0.0049307024981771,-0.0050586782708291,-0.0003259054459641,-0.0046309618385748,-0.005262050625946,0.0022241658925819,0.2072706535980883
-2.291390292717585,-2.344686923689809,0.2179719179610104,-0.1438246509672835,-0.1637871386701059,-0.0265736805273964,0.2243940478864226,-2.803767239441501,-0.0049658438785912,-0.0050954766846333,-0.000679424211317,-0.0047917029201091,-0.0054520539183781,-0.0008849035615623,0.2072706535980883
-2.292275196279148,-2.343389651136889,0.2245700031182166,-0.1483275378161002,-0.168613842331907,-0.0264014268997505,0.1981406954115983,0.0051727816109879,-0.0050329622533568,-0.0051573126069298,0.0012972725529194,-0.0049417019742601,-0.005612732900938,-0.0008791675157616,0.2092395660011882
-2.2931543637949097,-2.342915793883725,0.2176887794026798,-0.1439261605344344,-0.1633207426864231,-0.0258193295640202,-0.2066433548209245,0.0174804004723811,-0.0051314983065537,-0.0052719275839904,0.0004738572531639,-0.0047950082434066,-0.0054365817175645,-0.0008597836744818,0.2152551564714949
-2.294014147469392,-2.3436143361383457,0.2174532250485503,-0.1439106378554159,-0.1630203465707971,-0.0220924950484717,-0.0070737043282141,0.1119169524188722,-0.0052110307401685,-0.0053492635330365,-0.0006985422546201,-0.0047941504687133,-0.005426876284477,-0.0007356800851141,0.2152551564714949
-2.2947498275545057,-2.3441219312783392,0.2241129107839048,-0.148441584394825,-0.1679038200946855,-0.0212646526662911,0.1999905626232581,0.0248601315970141,-0.0050510586033627,-0.0051781012537966,-0.0005075951399935,-0.004945011655595,-0.0055895105601655,-0.0007081129337874,0.2196989321873892
-2.2954579404882933,-2.343387913798653,0.199159433804694,-0.1320192282455524,-0.1491154031173676,0.0608248667204865,-0.7493536630393623,2.465150732335668,-0.0048364760109153,-0.0049609401578807,0.0007340174796857,-0.0043911442426682,-0.0049700485421904,0.0020254680617922,0.1997897524631569
-2.293432472426501,-2.344394100046389,0.2063253659533473,-0.1364562204861367,-0.154757411862636,-0.0304677492306999,0.2151931576172169,-2.74151999853413,-0.0049523449099776,-0.0050778501682401,-0.0010061862477352,-0.0045465390096161,-0.0051511746210533,-0.0010145760493823,0.1997897524631569
-2.294447048475883,-2.343635331325049,0.2127292272668957,-0.1408533194568816,-0.1594178990312826,-0.0302297160070696,0.1923081475540032,0.0071481448537628,-0.0050045704934434,-0.0051251761943185,0.0007587687213397,-0.0046930180750411,-0.0053063150362795,-0.0010066495430354,0.2085824435819182
-2.295453698018919,-2.34369451785897,0.2106565752170991,-0.1396398086117894,-0.1577241786571107,0.0496790613410395,-0.0622418032971924,2.399662983426703,-0.0051490066270833,-0.0052848908175463,-5.9186533921007374e-05,-0.0046455911243202,-0.0052561191183619,0.0016543127426566,0.2122767160419798
-2.293799385276262,-2.345100868235676,0.2181650006046168,-0.1443465626900473,-0.1635849544682538,-0.0400133604029321,0.2254782398653938,-2.693466118437587,-0.0052454113958494,-0.0053718208046342,-0.0014063503767056,-0.004810297868664,-0.0054442372279994,-0.0013324449014176,0.2207931892465585
-2.29513183017768,-2.345603683932979,0.2250831247449974,-0.1491486138243039,-0.1685737347253738,-0.0421921164872167,0.2077514756871049,-0.065428110639177,-0.0052491226108926,-0.0053631557794001,-0.000502815697303,-0.0049705181289855,-0.005610078741812,-0.0014049974790243,0.2209392650084494
-2.296536827656704,-2.345916294345032,0.2185916516033333,-0.1450769894800291,-0.1635083400750082,-0.0085594755374638,-0.1949391333833061,1.0099892177102967,-0.0052500197706273,-0.0053599844365368,-0.0003126104120529,-0.0048317692435776,-0.005444201642215,-0.0002850305353975,0.220701923949676
-2.296821858192102,-2.346290651172803,0.2185705072591764,-0.145109550668661,-0.1634511699201722,-0.0089300450470682,-0.0006349652899944,-0.0111282135016345,-0.0052479743689219,-0.0053530675303594,-0.0003743568277712,-0.0048328868617912,-0.0054422679152233,-0.0002973705000673,0.2206199784868438
-2.297119228692169,-2.345884971897552,0.2250334742456263,-0.1494503681032044,-0.1682398644937449,-0.0101069262342826,0.1940830926861809,-0.0353417773938263,-0.0051697225422208,-0.005278146008377,0.0004056792752509,-0.0049775674877999,-0.0056016142791304,-0.0003365606436016,0.2206199784868438
-2.2974557893357708,-2.3458557821135093,0.1988636705669228,-0.1321203764280498,-0.1486302984046659,0.0407805858908658,-0.7858799903514556,1.528153517271728,-0.0050165510376763,-0.0051284730810655,2.9189784042760177e-05,-0.0043961825127541,-0.0049524315932133,0.0013579935101658,0.2131184835576796
-2.2960977958256046,-2.346458975349732,0.2065643177602436,-0.1370267251844421,-0.1545719701530075,-0.0191002261201192,0.2312506664660895,-1.7982225829124656,-0.0049426587775346,-0.005043235827617,-0.000603193236222,-0.0045645600088012,-0.0051458541784917,-0.0006360375297999,0.2080482482032048
-2.296733833355405,-2.3461218938821733,0.2123261380163139,-0.1409499197840621,-0.1587939199018313,-0.020400122218544,0.1730276353174265,-0.0390359188716169,-0.005040129895205,-0.0051436055675552,0.000337081467558,-0.0046953596757741,-0.0052863036049021,-0.0006793240698775,0.2076920266367929
-2.29602701594944,-2.3447245763966627,0.2173800406726249,-0.1441899408251053,-0.1626755760637862,0.040970604004154,-0.0119161119564346,-0.0196776618996769,-0.0052047909182473,-0.0053184365398506,0.0013973174855106,-0.004797758106434,-0.0054204324647625,0.0013643211133383,0.2170151850658346
-2.2946626948361017,-2.343306934689924,0.2241324886744595,-0.1484399200875687,-0.1679314223241229,0.0425405901573887,0.2027762162713079,0.0471467313283699,-0.0052040234077007,-0.0053332839963318,0.0014176417067393,-0.0049390144147986,-0.0055956795372402,0.001416601652241,0.2170151850658346
-2.2932460931838605,-2.3431860791719417,0.2177061796790893,-0.143952646728849,-0.1633205932215013,0.0028725597612729,-0.1929822521132182,-1.1912321440275004,-0.0052105275359695,-0.0053488199435576,0.0001208555179816,-0.0047932926691196,-0.0054388670101055,9.56562400503902e-05,0.2192334719178905
-2.2931504369438103,-2.3431260019495994,0.2178739754154928,-0.1440479620366785,-0.1634602514265483,0.001822958406658,0.005038911003107,-0.0315195601986476,-0.0052160981002373,-0.005355027163627,6.007722234224744e-05,-0.0047965615168432,-0.0054434339992237,6.070451494171181e-05,0.2199584135201438
-2.2930897324288684,-2.3430821560788138,0.2246664748477927,-0.1485286088139132,-0.1685653501889918,0.0013496602658503,0.2039789619309303,-0.0142131573816117,-0.005218213675682,-0.0053576892736344,4.384587078565261e-05,-0.0049458039322285,-0.0056134012718825,4.494368685281636e-05,0.2199584135201438
-2.291919211611777,-2.3422837241383183,0.2055936731079984,-0.1357387915776504,-0.1544141796697365,-0.004532573702791,0.5488329982399519,-1.1511618235722056,-0.0048151550818698,-0.0049514325337354,0.0002264941330354,-0.0045204232953668,-0.005141709508354,-0.0001509347043029,0.2201551909590998
-2.2920701463160804,-2.342397199062116,0.2132942983691789,-0.1408471412480831,-0.1601765916700779,-0.0064589426917444,0.2312500078432602,-0.0578489185871906,-0.0049541503181682,-0.0050939153925563,-0.0001134749237978,-0.0046907144011434,-0.0053334367372354,-0.000215082791635,0.2080798296412858
-2.292285229107716,-2.3396293827311623,0.2070304783806926,-0.1367443154080435,-0.1554432731967645,0.0822926373017417,-0.1881027023569458,2.6652126124170024,-0.0049325225943469,-0.0050811711938529,0.0027678163309539,-0.0045464206105588,-0.0051825525137625,0.002740344822148,0.2083051429962813
-2.289544884285568,-2.3368581449556687,0.2070343360725454,-0.1363203744040478,-0.1558203190708448,0.0821919265790374,0.0001158466021851,-0.0030243460271558,-0.0049171956427626,-0.0050935996746079,0.0027712377754935,-0.0045322947420566,-0.0051950810038929,0.0027369911550819,0.2083051429962813
-2.2868078931304856,-2.3344041031786418,0.2130830797823781,-0.1398636653943002,-0.1607561942570629,0.0843697875430878,0.18164395525023,0.065401230151664,-0.0048962936504591,-0.0050977975370223,0.0024540417770269,-0.0046498646968602,-0.0053597769605891,0.0028095139251848,0.2082061903358749
-2.283998379205301,-2.333491219614957,0.2179396489372256,-0.1425889200391839,-0.1648213895735028,-0.0009204651748994,0.1458429175629905,-2.5612688503900087,-0.0049145895452522,-0.0051391502806079,0.0009128835636849,-0.0047482241674773,-0.0054885409133273,-3.065149032415171e-05,0.2074562327617623
-2.284029030695625,-2.3314562133262684,0.2178602714446133,-0.142542036735142,-0.1647569896463213,-0.0013655206311517,-0.0023837084868576,-0.0133650287162844,-0.0049470797064732,-0.0051944236296503,0.0020350062886884,-0.0047467036031328,-0.0054863612255045,-4.547183701735236e-05,0.2074562327617623
-2.2840745025326425,-2.3292361908781003,0.2242685743464787,-0.1467425854836725,-0.169596600923984,-0.003235464463758,0.1924415285845463,-0.0561544694476382,-0.0049855581799499,-0.0052557111230062,0.0022200224481681,-0.0048867592849134,-0.0056473667632123,-0.0001077409666431,0.2114430775545281
-2.2841822434992856,-2.329512465132737,0.2176995965001797,-0.1424621326154135,-0.1646136540114743,-0.0391085325464958,-0.1972666019909603,-1.0772693117939256,-0.0050775206993156,-0.0053608385614735,-0.0002762742546367,-0.0047474862230278,-0.0054786054492655,-0.0013023141337983,0.2186383751933733
-2.285484557633084,-2.330696876362178,0.2174900528305041,-0.1425390592905608,-0.1642697161888869,-0.0353596325277769,-0.0062926026929609,0.1125795801417064,-0.0051436907818911,-0.0054216186027102,-0.001184411229441,-0.00474969936787,-0.0054674472415396,-0.0011774757631749,0.2186383751933733
-2.286662033396259,-2.3319434982711305,0.2242167061986869,-0.1471468906355571,-0.1691771967934085,-0.0361710940996277,0.2020016026481317,-0.0243682153708939,-0.0051182399771195,-0.0053816381775657,-0.0012466219089524,-0.0049033102777107,-0.0056307116948577,-0.0012044974335176,0.219795232823577
-2.2878665308297763,-2.3329005542036607,0.194458566605754,-0.1277941267424193,-0.1465701036927618,-0.0166369510665491,-0.8936378256136001,0.5866109018942522,-0.0047074864838679,-0.00493563498571,-0.0009570559325302,-0.0042568330952768,-0.0048796604510824,-0.000554010470516,0.1959142632072733
-2.2884205413002925,-2.3343030209080733,0.2064320087130466,-0.1357490043197009,-0.1555197159446775,-0.0466240356739423,0.3595628260448225,-0.9005130512730706,-0.0048906852618,-0.0051200409545271,-0.0014024667044125,-0.0045243933490093,-0.0051753538027315,-0.0015525803879422,0.1959142632072733
-2.289973121688235,-2.3356596445133486,0.2128940908064468,-0.1402472945898249,-0.1601705037156919,-0.0477175767728728,0.1940565193213268,-0.0328390720399545,-0.0049095760809272,-0.0051231460030446,-0.0013566236052753,-0.0046744016030126,-0.0053300254958003,-0.0015889953065366,0.2090504692270421
-2.2915621169947715,-2.336652303237708,0.2059953285772258,-0.1359487190774224,-0.1547644053936411,-0.0255997196530751,-0.2071700369135437,0.6641999135074396,-0.0049455810181411,-0.0051487529002656,-0.0009926587243596,-0.0045292218367364,-0.0051517830475989,-0.0008524706644474,0.2090504692270421
-2.292414587659219,-2.3385169616182626,0.2181778294610103,-0.1441283670512012,-0.1637943194359069,-0.0547842874749546,0.3658408673809176,-0.87641344810449,-0.0052068917226612,-0.005406683006389,-0.0018646583805543,-0.0048043767038911,-0.0054500320694378,-0.0018243167729159,0.2081728283565421
-2.294238904432135,-2.3399532509692245,0.2251942853766987,-0.149071615439343,-0.1687901645138917,-0.0574663605372687,0.2107043818525042,-0.0805427346040257,-0.005222559157721,-0.0054012960407153,-0.0014362893509618,-0.0049693871102199,-0.0056160236106289,-0.001913629805891,0.2211351161912508
-2.296152534238026,-2.340646291801551,0.2185814677354758,-0.1450073875914724,-0.1635564599191708,-0.0201352581640914,-0.1985831123490377,1.1210541253206396,-0.005222199190793,-0.0053894462400383,-0.0006930408323264,-0.0048305011513087,-0.005444873335661,-0.0006705040968642,0.2211351161912508
-2.29682303833489,-2.3414373015753505,0.2184464128545407,-0.1450273568440385,-0.1633581986183992,-0.0201085548290807,-0.0040557021301822,0.0008019019522724,-0.0052167557529106,-0.0053770917917508,-0.0007910097737995,-0.0048311615817182,-0.0054382731687335,-0.0006696148758083,0.2203953954203709
-2.2974926532106985,-2.3428225505501863,0.2248263466626489,-0.149375566138586,-0.1680292426765368,-0.0204540511447776,0.1915896038470937,-0.0103752647356439,-0.0051703067792734,-0.0053210555416052,-0.0013852489748358,-0.004976039182106,-0.0055937436907775,-0.000681119903121,0.2203953954203709
-2.29817377311382,-2.3455276975253825,0.19423323940061,-0.1291482222405801,-0.1450768347468072,-0.037034703204869,-0.9187119297909586,-0.497917479282023,-0.0050473721867694,-0.0051766303445394,-0.0027051469751961,-0.0043035512269744,-0.0048284611412289,-0.0012332556167221,0.2186460111603263
-2.299407028730542,-2.346754473337059,0.206348053858658,-0.1373934928113533,-0.1539563167406658,-0.0339456930218498,0.3638082419834231,0.0927630685591365,-0.0049637128827891,-0.0050647797144885,-0.0012267758116766,-0.0045780336775346,-0.0051242175803658,-0.0011303915776275,0.2084925437837481
-2.300537420308169,-2.3475708378288247,0.2122238031338571,-0.1414846609504291,-0.1581803822613293,-0.0311499855158031,0.1764489271831561,0.0839551803617605,-0.0050022463746768,-0.0050949640196211,-0.0008163644917655,-0.0047141021961745,-0.0052650231798135,-0.0010372945176762,0.2084925437837481
-2.3015747148258456,-2.3487567863696324,0.2183917531569722,-0.1457654594070868,-0.162626531325048,-0.0524898339976346,0.1852237244178724,-0.6408362907456888,-0.0052164109942195,-0.0053041748611284,-0.0011859485408076,-0.0048586502147916,-0.0054112814038697,-0.0017479114721212,0.2193211868371297
-2.303322626297967,-2.350403827425288,0.2175388532124248,-0.1454791165003517,-0.1617373776195657,-0.0482001867989694,-0.0256126109473711,0.1288182341941498,-0.0052542915791518,-0.0053258364237886,-0.0016470410556554,-0.0048487052175189,-0.0053820272386411,-0.0016050662204056,0.2193211868371297
-2.3049276925183726,-2.3511221262946425,0.2242680162159935,-0.1502466806369785,-0.1664994836479288,-0.0495687254459483,0.2020769670741354,-0.0410972566660348,-0.0052599633233382,-0.0053161707709303,-0.0007182988693545,-0.0050077164640041,-0.0055403658067155,-0.00165063855735,0.2200271551443088
-2.306578331075723,-2.351079777804434,0.2178853054902066,-0.1462374410712084,-0.1615197114209454,0.0008480011785224,-0.1916729947683741,1.5140158145486746,-0.0052605264731395,-0.0053155763890364,4.234849020834376e-05,-0.004869561280172,-0.0053787381265997,2.8238439244798743e-05,0.2199395623487407
-2.3065500926364777,-2.351056524044476,0.2180343107815157,-0.1463328842732204,-0.1616343022326971,0.0010598900835868,0.0044746333726455,0.0063630301821135,-0.0052651075438594,-0.0053203312908769,2.32537599580418e-05,-0.0048727204460684,-0.0053825712772301,3.529433978344265e-05,0.2199395623487407
-2.3065147982966945,-2.351884210779157,0.2248268363364354,-0.1508857789307874,-0.1666750972806071,0.0006027492363003,0.2039797463939854,-0.0137279533719681,-0.0052756640210305,-0.0053288633568278,-0.0008276867346808,-0.0050243689514313,-0.0055503961465331,2.0071549568800866e-05,0.2203231993586335
-2.3064947267471254,-2.353252476521521,0.2183733160956083,-0.1465514432127259,-0.1618937295723946,-0.0386219117322852,-0.1937994066314443,-1.1779177468043702,-0.0052903608379923,-0.0053297839376988,-0.0013682657423639,-0.0048835587763983,-0.0053879846581507,-0.001286109660685,0.2208549568225837
-2.3077808364078107,-2.354647146691032,0.2185408821939835,-0.1468721491788747,-0.161829196950683,-0.0399584294489564,0.0050320149662223,-0.0401356671673052,-0.0053008949779629,-0.0053248328184551,-0.0013946701695113,-0.0048943567541235,-0.0053857200540171,-0.0013306157006502,0.2208549568225837
-2.309111452108461,-2.355517587766511,0.2252314058114151,-0.1515903598324985,-0.1665819587159426,-0.0419688123016317,0.2009166251480963,-0.0603718574376945,-0.0053036028743544,-0.0053133823142232,-0.0008704410754787,-0.0050517619016464,-0.005543715340655,-0.0013975614496443,0.2209919446316781
-2.310509013558105,-2.3561961941170466,0.218522027771868,-0.1473003914598251,-0.1614139749132997,-0.0182441222672854,-0.2014828240104235,0.7124531541845711,-0.0052984272137766,-0.0052994194925133,-0.0006786063505357,-0.0049066659952705,-0.0053736584976168,-0.0006075292715006,0.2205302712886443
-2.311116542829606,-2.3572997333523946,0.2182900563923605,-0.1472419576415227,-0.1611532023562423,-0.0177356083612709,-0.0069661074927179,0.0152706878683034,-0.0052712649386847,-0.0052654356041856,-0.001103539235348,-0.0049046722037683,-0.0053650168692756,-0.0005905957584303,0.2197892246103848
-2.3117071385880363,-2.357710613429891,0.2246041366947911,-0.1515988614964277,-0.1657250838388665,-0.0178654768622651,0.1896120210940105,-0.0038999549848109,-0.0052465706292992,-0.0052382219193327,-0.0004108800774962,-0.0050498120112884,-0.0055172086271208,-0.0005949203795134,0.2181215662794104
-2.31230205896755,-2.357422099276463,0.2176414046788702,-0.146994805076084,-0.1605001816548374,0.003661780885702,-0.2090910515291562,0.6464641966356539,-0.0052740377130668,-0.005262599188458,0.0002885141534276,-0.0048945320114519,-0.0053450177764785,0.0001219373034938,0.2181215662794104
-2.312180121664056,-2.357185025264924,0.2173855729429109,-0.1468024675106009,-0.160329419809705,0.0058348673488097,-0.0076826347134926,0.0652578517449745,-0.0052770959719006,-0.0052673370566984,0.0002370740115393,-0.0048879343958345,-0.0053395077868196,0.0001943010827153,0.2192102927389299
-2.3119858205813406,-2.3575462359440857,0.2239795477434764,-0.1512233390828542,-0.1652220915132244,0.0069943581985378,0.1980172612782425,0.0348195450368785,-0.0052834139418675,-0.0052732788582223,-0.0003612106791619,-0.0050350252504615,-0.0055025471603579,0.0002329121280113,0.2193623040067192
-2.3117529084533293,-2.358066711989073,0.2175053407590056,-0.1468148018282064,-0.1604804886048009,-0.0147871298175661,-0.1944206301642863,-0.6540987392223422,-0.0052914583082868,-0.0052756330102174,-0.0005204760449872,-0.004890179325608,-0.0053428596186176,-0.0004924114229249,0.2197040479776727
-2.3122453198762543,-2.3586011336424124,0.2176511543816615,-0.1469922827373774,-0.1605157120637252,-0.0151951964625733,0.0043787874671439,-0.0122542536038174,-0.0052987077422155,-0.005277429029286,-0.0005344216533393,-0.0048961260193987,-0.0053439979123954,-0.0005060000422036,0.2198809565773203
-2.312751319918458,-2.3583744484074485,0.2244331468605732,-0.1516562828423637,-0.1654406518488627,-0.0160567070243375,0.2036634378051562,-0.0258711880409665,-0.005300033805762,-0.0052760148782264,0.0002266852349639,-0.0050515555880222,-0.0055078886491724,-0.0005346883439104,0.2200765562422537
-2.3132860082623683,-2.358034600678598,0.21802715290569,-0.1474134717115839,-0.1606396830241493,0.0097135813327674,-0.1923721908373349,0.7738825332463961,-0.0053018082547984,-0.0052813571105128,0.0003398477288505,-0.0049079341783736,-0.0053501587451272,0.0003234622583811,0.2200765562422537
-2.312962546003987,-2.3577108138933154,0.2181970417899018,-0.1474763286466782,-0.160812566470289,0.0099295253886176,0.0051017682946509,0.0064848064819854,-0.0053046839743229,-0.0052875051014211,0.0003237867852825,-0.0049100070506994,-0.0053559337821242,0.0003306531954409,0.2202162725564024
-2.312306874957016,-2.3571394390482348,0.2185322887242588,-0.1475972834726286,-0.1611564554293849,0.0171565134933085,-0.1939637801955319,0.2221086381850838,-0.0053051523970404,-0.0052920967080634,0.0005713748450806,-0.0049133868708867,-0.0053679772171979,0.0005713118993271,0.2204011285905626
-2.311735563057689,-2.356568456243365,0.2185659167501146,-0.1475278870749221,-0.1612655651403209,0.0166040663737144,0.0010098506263002,-0.0165900035914148,-0.0053060531624169,-0.0052972851711021,0.0005709828048696,-0.0049111242995035,-0.0053715647114869,0.0005529154102446,0.2204747907621272
-2.311182647647444,-2.356036135503553,0.225134243098272,-0.151869514888487,-0.1661959020643032,0.0162008586448996,0.1972470374822043,-0.0121083402046486,-0.0053030036057488,-0.0052986828975927,0.0005323207398122,-0.005055690152476,-0.0055357528237543,0.0005394885928751,0.2205614511769371
-2.310643159054569,-2.35646239706577,0.2183437290580744,-0.1472018385935541,-0.1612625273696993,-0.0089502210681623,-0.2039193405464767,-0.7552876790709312,-0.0052975443823908,-0.0052930272586446,-0.0004262615622172,-0.00490255195861,-0.0053693750139624,-0.0002980423615698,0.2205614511769371
-2.3109412014161386,-2.3574163789414624,0.2180366956902705,-0.1470428333851411,-0.1609919433313396,-0.0094021290304366,-0.0092202212553701,-0.0135708096779082,-0.0052579061837374,-0.0052512989273885,-0.0009539818756922,-0.0048972961898385,-0.0053603284357021,-0.0003130908967135,0.2195303253511483
-2.311254292312852,-2.357470439751415,0.2242567993019262,-0.1512894751200786,-0.1655373273646627,-0.0098273572650106,0.1867898982479181,-0.0127696166538731,-0.0052461137260573,-0.0052370470479536,-5.406080995262741e-05,-0.005038770115743,-0.0055116337365129,-0.0003272509969248,0.218294030604543
-2.311581543309777,-2.3562132892278247,0.2174434738435542,-0.1467455469363289,-0.1604599911863083,0.0385918525627213,-0.2046043681192797,1.4540303251571174,-0.0052636942857879,-0.0052597025109411,0.0012571505235903,-0.0048831228479973,-0.0053465193144986,0.0012851086903386,0.218294030604543
-2.3102964346194383,-2.35483476181632,0.2173893414160284,-0.1465027364348148,-0.1606084492746435,0.039996909475605,-0.0016255984241991,0.0421939012877982,-0.0052613921268576,-0.005269875714422,0.0013785274115045,-0.0048749088008223,-0.0053515716861747,0.0013318970855376,0.2190292418608599
-2.308964537533901,-2.3534606606257977,0.2240691206765497,-0.150783743621636,-0.1657444825633932,0.0418244741742435,0.2005939717874279,0.0548818227819366,-0.0052568025608823,-0.0052793626829157,0.0013741011905223,-0.0050171821007401,-0.0055228509543588,0.0013927549900023,0.2190399731978252
-2.3075717825438984,-2.352334529189374,0.2176232742477443,-0.1462217712484926,-0.1611802813847352,0.0331525895207222,-0.1935689618259883,-0.2604169565621994,-0.0052557694776571,-0.0052913470877642,0.0011261314364237,-0.0048661518399416,-0.0053700529604579,0.00110398123104,0.2190399731978252
-2.3064678013128583,-2.351217779396239,0.2178008852797747,-0.1461629342951053,-0.161473286542692,0.0326477510683509,0.0053336646255383,-0.0151603138850259,-0.0052543539232094,-0.0053017157030172,0.0011167497931348,-0.004864232285403,-0.0053797680451754,0.001087170110576,0.2194144840307264
-2.3053806312022824,-2.35010790974947,0.2245912029032075,-0.1505387044392342,-0.1666712539320042,0.0332239932511381,0.2039134421451281,0.01730457005367,-0.0052381551902052,-0.0052974251442137,0.0011098696467692,-0.0050097957860629,-0.0055529894726257,0.0011063589752629,0.2198004509180367
-2.3042742722270195,-2.349680799615871,0.2067721432678129,-0.1384251150464306,-0.1536008032399161,0.0081058631483515,-0.5351068959577939,-0.7542982012848811,-0.0049933223078806,-0.0050576252159348,0.0004271101335988,-0.004608799792157,-0.005115588411571,0.0002699252428401,0.2198004509180367
-2.30400434698418,-2.349397201929931,0.2068567186827584,-0.1384402519359941,-0.1537010042520749,0.0084388038310707,0.0025398022506155,0.0099982187002759,-0.0049842455059687,-0.0050516416581241,0.0002835976859398,-0.004609274979278,-0.0051189507298985,0.0002810121675746,0.2086032600906385
-2.303723334816605,-2.349192861038586,0.2132854373221861,-0.1426981753663993,-0.1585178492183657,0.0081681388069195,0.1930546137966252,-0.0081280788033415,-0.0050022826403377,-0.0050720239848058,0.000204340891345,-0.0047510630083501,-0.0052793520110121,0.0002719990222704,0.2087806308892856
-2.3034513357943345,-2.3481158040403467,0.2181852689078839,-0.1459322848074839,-0.1621991979612508,0.0543276118973607,0.1471420896605967,1.386170363076314,-0.005210159237545,-0.005287037586896,0.0010770569982394,-0.0048545868098084,-0.0054056888560663,0.0018091094761821,0.2087806308892856
-2.3016422263181524,-2.3462775055599794,0.2184890366052256,-0.1458413749110312,-0.1626891283421841,0.0547578048846797,0.0091221530733224,0.0129187083278987,-0.0052485164242412,-0.0053390898179734,0.0018382984803673,-0.0048515056965403,-0.0054220354894768,0.0018234349026598,0.2201898489433458
-2.2998187914154924,-2.3446827531615617,0.2249489468231876,-0.1498476898767493,-0.1677727585618799,0.0557014016809623,0.1939912978366965,0.0283362401286055,-0.0052384847350093,-0.0053466338737886,0.0015947523984176,-0.0049846715088531,-0.0055915219252503,0.001854856675976,0.2198630663449167
-2.297963934739516,-2.345472285519404,0.2180167619772055,-0.1449280240547243,-0.162871656056598,-0.0492627016973482,-0.2081737190985598,-3.152075176525844,-0.0052409077119859,-0.0053624055387411,-0.0007895323578419,-0.004830479528466,-0.0054197277045208,-0.0016404479665216,0.2198630663449167
-2.299604382706038,-2.3469617309925748,0.2178287719801666,-0.1450698136484118,-0.162493455469451,-0.0514821781694112,-0.0056453452564249,-0.0666509451069971,-0.0052049301065992,-0.0053148098859721,-0.001489445473171,-0.0048353907161381,-0.0054069510782196,-0.0017143565330413,0.2187261582514825
-2.3013187392390795,-2.348118534100727,0.2240966986975428,-0.1495305015103519,-0.1669130297046936,-0.0507665032112243,0.1882260275488346,0.0214917404860938,-0.0052217546055792,-0.0053154607698191,-0.0011568031081523,-0.0049839896349665,-0.0055540568332525,-0.0016905245569337,0.2187261582514825
-2.3030092637960133,-2.348482678290144,0.217444751537134,-0.1453655183571386,-0.1617129742593536,-0.0127051152779225,-0.199758172985248,1.1429846226216736,-0.0052327711344666,-0.0053167185027813,-0.0003641441894162,-0.0048417411353731,-0.0053840805064228,-0.0004230803387548,0.219641545354099
-2.303432344134768,-2.3488605404655063,0.2174625618382185,-0.1454458350173562,-0.1616646989213941,-0.0115123191369729,0.0005348438764113,0.0358197039324226,-0.0052385373226133,-0.0053192926004985,-0.0003778621753629,-0.0048443084701204,-0.005382568623011,-0.0003833602272611,0.2195437505566679
-2.3038157043620293,-2.34953661402533,0.2241842624565483,-0.1500054013029938,-0.1666042109705343,-0.0116698875095607,0.2018528714213136,-0.0047317829605965,-0.0052463523616272,-0.0053226280530953,-0.0006760735598243,-0.0049961859772009,-0.0055470141223902,-0.0003886072540683,0.2195437505566679
-2.3042043116160977,-2.350694816286985,0.2177444344043144,-0.1457592785471786,-0.1617617737027533,-0.0329928453808043,-0.1933882297968127,-0.6403290652025098,-0.0052594011731263,-0.0053253518338822,-0.0011582022616543,-0.0048566724274299,-0.0053840624613586,-0.0010986617511807,0.2197577354088667
-2.3053029733672785,-2.351870917284835,0.2179287921389422,-0.1460604724568017,-0.161738359175658,-0.0339659859516808,0.0055362683071427,-0.0292234405668609,-0.0052702506386375,-0.0053237947740596,-0.0011761009978501,-0.0048667889732668,-0.0053831985067582,-0.0011310673321909,0.2203398364404208
-2.306434040699469,-2.3520212418170385,0.224722589877542,-0.1508023625197937,-0.16660999327687,-0.0355468130608682,0.2040179501081015,-0.0474722855611853,-0.0052733889613894,-0.0053158920908111,-0.0001503245322034,-0.0050249294559166,-0.0055452043443614,-0.0011837088749269,0.2203398364404208
-2.3076177495743964,-2.350682214615615,0.2183104458198676,-0.1466909162355991,-0.1616824846667993,0.0383683541640102,-0.1925568786088417,2.2196746914377945,-0.0052643620067096,-0.0053155968122708,0.0013390272014235,-0.0048812970129643,-0.0053872089831876,0.0012776661936615,0.220052084833095
-2.306340083380735,-2.349366903941156,0.2184615007998607,-0.1465855767619176,-0.1619817768056133,0.0387649459368738,0.0045361855853791,0.0119096628487551,-0.0052614224958,-0.0053266110079261,0.001315310674459,-0.0048777470677905,-0.0053972053238326,0.0012908726996978,0.2202181528790277
-2.305049210681037,-2.3487876485180768,0.2251880884105127,-0.150883390727675,-0.1671642233389089,0.0392471049432082,0.201999627947506,0.0144792494394737,-0.0052620040790531,-0.0053376310682182,0.0005792554230792,-0.0050207058898886,-0.005569915264499,0.0013069285946088,0.2203141160065785
-2.303742282086428,-2.348945031523572,0.2185738822834572,-0.1462394763233142,-0.162445552666564,-0.0026028320901317,-0.1986248086202857,-1.2567548658660663,-0.0052641233964392,-0.0053406250191063,-0.000157383005495,-0.0048699390248477,-0.0054092888402951,-8.667430860138658e-05,0.2205944175050606
-2.303828956395029,-2.349227357467824,0.2184328294030119,-0.1461591734234346,-0.162328053598827,-0.0043962306101632,-0.0042358222355921,-0.0538558114123565,-0.0052537943383828,-0.0053284541128464,-0.0002823259442519,-0.0048674262193289,-0.0054052308601617,-0.0001463944793184,0.2205944175050606
-2.303975350874348,-2.350051029681613,0.2248009153282714,-0.1504446829734309,-0.1670384653229685,-0.0041774548761418,0.1912338115693544,0.0065698418625027,-0.0052206876373808,-0.0052895626062074,-0.000823672213789,-0.0050101228796135,-0.0055620972205239,-0.0001391092473755,0.2184771287246041
-2.304114460121723,-2.350290120305745,0.2177904994528761,-0.1457755765344086,-0.1618090941140022,-0.0321628825680979,-0.2105229992611219,-0.8404032339926746,-0.0052012238116829,-0.0052709797980627,-0.0002390906241322,-0.0048571415837209,-0.0053857050738617,-0.0010710239895176,0.2184771287246041
-2.305185484111241,-2.3510541815688755,0.2175263102477403,-0.1457717521743934,-0.1614567803407569,-0.0301699733661772,-0.007933609763836,0.0598471231808008,-0.0052342904489508,-0.0052961491608247,-0.0007640612631303,-0.0048568298079985,-0.005374134286756,-0.0010046601130937,0.2185664790694118
-2.3061901442243347,-2.351570011874204,0.2239866018333624,-0.1502679633381108,-0.1661009843290322,-0.0289012280847053,0.1940027503189815,0.0381004589030596,-0.0052512023807691,-0.0053028498409593,-0.000515830305328,-0.0050065125260029,-0.0055288187612086,-0.0009624108952206,0.2195231771214064
-2.3071525551195555,-2.3518386636878232,0.2174482796503776,-0.1460366621249285,-0.1611119102931819,-0.0086543962261383,-0.1963460115010469,0.6080129687257374,-0.0052545279523834,-0.0053032978644174,-0.0002686518136196,-0.0048637244791779,-0.0053643887031888,-0.0002881913943304,0.2195231771214064
-2.307440746513886,-2.352115143344053,0.2175619936414978,-0.14615948088212,-0.1611540481202143,-0.0079715684484864,0.0034148345681758,0.0205053386682229,-0.0052601122516771,-0.0053058675897286,-0.0002764796562297,-0.0048677535259032,-0.0053658467014291,-0.0002654532293346,0.2197040040152738
-2.30770619974322,-2.351789340590688,0.224322269030664,-0.1507451781402745,-0.1661215568507666,-0.0083985500067569,0.2030112729479317,-0.0128222690171295,-0.0052616174963557,-0.0053062185535965,0.0003258027533652,-0.0050205163802388,-0.0055312107539038,-0.000279671715225,0.2197040040152738
-2.3079858714584454,-2.3511902905476254,0.2179182094726636,-0.1464867600320588,-0.161338077201514,0.0171842183099116,-0.1923141008408515,0.7682513008008561,-0.0052611432936244,-0.0053117523574579,0.0005990500430623,-0.0048764021574291,-0.0053740164290728,0.00057223446972,0.2198489409343445
-2.3074136369887253,-2.3506069509288863,0.2180891305427406,-0.1465092352346101,-0.1615484845235579,0.0173970745621673,0.0051327648671768,0.0063920796473189,-0.0052626884540276,-0.0053193983803607,0.0005833396187391,-0.0048771294139714,-0.0053810404993289,0.0005793225829201,0.2200382914650192
-2.306834314405805,-2.351033955097807,0.224884425288742,-0.1509776893414902,-0.1666695594838849,0.0174670626751701,0.2040629052853275,0.0021017451352183,-0.0052717387055798,-0.0053312713422772,-0.0004270041689209,-0.0050258708549381,-0.0055516231673001,0.0005816531870831,0.2200382914650192
-2.306252661218722,-2.3518465295112208,0.218423276964381,-0.1465457700545641,-0.1619662470978862,-0.0224003742670477,-0.1940284782090384,-1.1972203285951315,-0.0052824955464565,-0.0053334071805748,-0.0008125744134135,-0.0048819155416239,-0.0053917186030486,-0.0007459324630926,0.2207554918170625
-2.306998593681815,-2.3526940408532795,0.2185748908680289,-0.1467683506389267,-0.1619692383408028,-0.0237345937182652,0.0045529700795148,-0.0400666501867098,-0.0052888541020066,-0.0053299991580628,-0.0008475113420587,-0.0048894472730355,-0.0053917069110166,-0.0007903619708182,0.2208646400905441
-2.307788955652633,-2.3524822642967327,0.2252217909367695,-0.1513634614699222,-0.1667751709476243,-0.0254303159490056,0.1996066086708916,-0.0509225895117247,-0.0052832488082987,-0.0053177943322224,0.0002117765565468,-0.0050426823461275,-0.0055515435673904,-0.0008468295211018,0.2208094898526824
-2.3086357851737347,-2.352144278455006,0.2184315577958336,-0.1469369096350795,-0.161622677950859,0.0137333407263793,-0.2039109051332104,1.1760857860475962,-0.0052673892443231,-0.0053044017665055,0.0003379858417265,-0.0048916986404664,-0.0053832170887859,0.0004573202461884,0.2202916046034696
-2.3081784649275465,-2.352170236088203,0.2182291610924774,-0.1467268990412914,-0.1615400379127513,0.0149590079156186,-0.0060779790797674,0.0368068224996812,-0.005225372607128,-0.0052698634212391,-2.595763319668265e-05,-0.0048845961427953,-0.0053805631601544,0.0004981349635901,0.2202916046034696
-2.307680329963956,-2.352309905148299,0.2244886357552081,-0.1508526762683433,-0.1662486620875876,0.0151956131808768,0.1879722120940147,0.007105263220965,-0.0051905037318096,-0.0052380087648753,-0.0001396690600961,-0.0050219216211735,-0.0055374161160174,0.0005060139189231,0.2178367440226293
-2.307174316045033,-2.3534688580118046,0.2176309011655967,-0.1461628182428131,-0.1612440377361845,-0.0447281877237703,-0.2059379756640065,-1.799513540680095,-0.0052422376034559,-0.005280694936383,-0.0011589528635056,-0.0048711493910458,-0.0053658627345639,-0.0014894486512015,0.2175604228434823
-2.3086637646962345,-2.3548783787407483,0.2174024214027061,-0.1462491197652581,-0.1608571036654801,-0.0428265048737437,-0.0068612541408576,0.0571075930938924,-0.0052708250406345,-0.0052934682860243,-0.0014095207289437,-0.0048738443453319,-0.0053531300960932,-0.0014261226122956,0.2197596994083698
-2.311554313883924,-2.35547683483374,0.2175527056336508,-0.146814892445413,-0.1605445953147092,-0.0159148781836056,-0.1954419166158046,0.8426995751422335,-0.005276218556099,-0.0052875287355815,-0.0005984560929914,-0.0048902831954693,-0.0053449025387687,-0.000529965443514,0.219820764642021
-2.312084279327438,-2.3560092508601618,0.2177019708572235,-0.1470007445320041,-0.1605768639068401,-0.0154927931124469,0.0044824391463264,0.0126752273621245,-0.0052823198772515,-0.0052884173953045,-0.0005324160264219,-0.0048964347734,-0.0053460099370989,-0.0005159100106444,0.2197479028142629
-2.3126001893380823,-2.356556427636478,0.2244874698154847,-0.1516679795843438,-0.1655036195161943,-0.0163824732021226,0.2037687374853211,-0.0267171198100804,-0.0052897695341085,-0.0052901726534075,-0.0005471767763163,-0.0050519755066238,-0.0055099579687486,-0.0005455363576306,0.2197479028142629
-2.313145725695713,-2.3581104561667288,0.2073215774307376,-0.1401537414082296,-0.1527716113603716,-0.0587368178093779,-0.5154922638062195,-1.2719022404581184,-0.0050837478409249,-0.0050754692363699,-0.0015540285302506,-0.0046720260854915,-0.0050827875480608,-0.0019559360330522,0.2201337011952231
-2.3151016617287654,-2.358912182680491,0.2067993496783882,-0.1400984956861838,-0.1521130583936588,-0.0239286000154946,-0.0156825150855648,1.0452918256421415,-0.0050336728270317,-0.0050112186668007,-0.000801726513762,-0.0046672320217345,-0.0050635659725835,-0.0007968223805159,0.2201337011952231
-2.3158984841092813,-2.3597247188793715,0.213198192565286,-0.1445583738793733,-0.1567046452867816,-0.0241918376901477,0.1921574440509822,-0.0079050352748671,-0.0050427317727983,-0.0050122237740226,-0.0008125361988806,-0.0048158277502637,-0.0052163874415725,-0.0008055881950819,0.2089710812362892
-2.316704072304363,-2.361197732458385,0.218233151967091,-0.1481014851964154,-0.1602861775079417,-0.0478222889388539,0.1511999820361873,-0.70962316062181,-0.0052783173437618,-0.0052355262133543,-0.0014730135790133,-0.0049359583500948,-0.0053336644095894,-0.0015924822216638,0.2211667958348261
-2.318296554526027,-2.362885828459332,0.218620911438327,-0.1486201520104375,-0.1603345045039254,-0.0489387826439665,0.0116444285656459,-0.0335283394928691,-0.005346242471951,-0.0052837339152878,-0.0016880960009473,-0.0049533303633253,-0.0053351680626742,-0.001629661462044,0.2211667958348261
-2.319926215988071,-2.364560703033369,0.2251463153690422,-0.1533250576651882,-0.1648705250074219,-0.051106946383696,0.1959580759974529,-0.0651100222141012,-0.0053513766124142,-0.0052704828856606,-0.0016748745740366,-0.0051103227730293,-0.0054859073105603,-0.001701861314577,0.2210804130329109
-2.3216280773026483,-2.364821061409573,0.2182728282218099,-0.1489160055385424,-0.1595839930393789,-0.0033207685435939,-0.2064110254424112,1.435020355558622,-0.0053271408266382,-0.0052332761810753,-0.0002603583762046,-0.0049591280707479,-0.0053139369146325,-0.0001105815925016,0.2210804130329109
-2.32173865889515,-2.365570018866827,0.217990062965259,-0.1487407130419316,-0.159360810224394,-0.0014104358997652,-0.0084914491456729,0.0573673466615243,-0.0052983390282292,-0.0052077002548007,-0.0007489574572536,-0.0049531217311664,-0.0053066627231985,-4.696751546218181e-05,0.2196953018650148
-2.321785626410612,-2.3654384247199647,0.2241933046342119,-0.1529810558241431,-0.163888481601786,-0.0014210577946723,0.1862835336021905,-0.0003189758230384,-0.0052907796912642,-0.0051963852744827,0.0001315941468624,-0.0050943277016343,-0.0054574317893281,-4.732122456259091e-05,0.2187211484228723
-2.321832947635175,-2.3665064512031946,0.217441535016928,-0.1483814245515292,-0.1589458209534833,-0.032637938050125,-0.2027558443628818,-0.9374438515150956,-0.0053211594372641,-0.0052218505283103,-0.0010680264832299,-0.0049439083178644,-0.0052902736365167,-0.0010868433370691,0.2187211484228723
-2.322919790972244,-2.367590733042332,0.2174363159588739,-0.1485505204746443,-0.1587806485831303,-0.0328385478989739,-0.0001567284700936,-0.0060243197852505,-0.0053370141757655,-0.0052230040958647,-0.0010842818391374,-0.0049495539421377,-0.005284753875057,-0.0010935236450358,0.2196573113108192
-2.32401331461728,-2.368275381421264,0.2240955993659989,-0.153278939033658,-0.1634760058966527,-0.0332371349324188,0.1999784806944449,-0.0119695805839319,-0.005342918515568,-0.005219195402593,-0.000684648378932,-0.0051071298197123,-0.0054409912890359,-0.0011067965932495,0.2196573113108192
-2.3251201112105293,-2.3667845655604163,0.2177152041708216,-0.1490905104145906,-0.1586566413090212,0.0423318042768603,-0.1916034593146311,2.269337513792169,-0.0053314754957547,-0.0052113604127945,0.0014908158608477,-0.004960920201163,-0.0052868278196694,0.0014096490824194,0.2198571369082944
-2.3237104621281097,-2.3653204740767886,0.2178325474664273,-0.1489469477728285,-0.158952274236236,0.0428087900890895,0.0035238226908593,0.0143238982651398,-0.0053286697747982,-0.005225205465146,0.0014640914836276,-0.0049560904261832,-0.0052967083120303,0.0014255327099666,0.2195444745513257
-2.322284929418143,-2.364082414664721,0.2246249889359683,-0.1533575893770636,-0.1641274974979507,0.0437252847374948,0.2039772213075391,0.0275223618139723,-0.0053270094675301,-0.0052383839152969,0.0012380594120675,-0.0051027562005637,-0.0054692276201488,0.0014560519817585,0.2195444745513257
-2.320828877436385,-2.3634531039255826,0.218190447369462,-0.1487322625443054,-0.1596426803888539,0.0192205644909669,-0.1932294764716624,-0.7358774848807164,-0.0053311151881358,-0.0052518505141239,0.0006293107391384,-0.0049510139568457,-0.0053177499298717,0.0006400447975491,0.220140617858452
-2.320188832638836,-2.362835357598044,0.2183749700733906,-0.1487557494037642,-0.1598729325867225,0.0182210038583245,0.0055412223401991,-0.0300168358150882,-0.0053324273565054,-0.005259201813601,0.0006177463275385,-0.0049518821534248,-0.0053253351852464,0.0006067594284822,0.220140617858452
-2.319582073210353,-2.362681365016224,0.2251532791525162,-0.1532730501806196,-0.1649283820373563,0.0182483222384031,0.2035528251989671,0.0008203717741321,-0.0053363432634951,-0.0052676108200306,0.0001539925818199,-0.0051022525101997,-0.0054937315432171,0.0006076691305388,0.2203208376896491
-2.3189744040798144,-2.363502541886072,0.2185989138911931,-0.1487138354990763,-0.1602176029204123,-0.0224840873062711,-0.1968277856253185,-1.2231954818220487,-0.0053460371619771,-0.0052730123528765,-0.0008211768698473,-0.0049540985829517,-0.0053334558578749,-0.0007487201072988,0.2203208376896491
-2.319723124187113,-2.364349935743098,0.2185499282216955,-0.1488003998998086,-0.1600703349011468,-0.024115421902236,-0.0014710411260531,-0.0489890269058553,-0.005347245750227,-0.0052635022693785,-0.0008473938570263,-0.0049571241181649,-0.0053284161306488,-0.0008030435493444,0.2208634135892558
-2.3205261677364577,-2.365170777064307,0.224939265922603,-0.1532828524300907,-0.1646269738065259,-0.0250042948545038,0.1918720030302558,-0.026692881449481,-0.0053287098555658,-0.0052383579219137,-0.0008208413212091,-0.0051065298280911,-0.0054800186020268,-0.0008326430186549,0.2201175778210112
-2.3213588107551124,-2.3660479652674145,0.1955651418797575,-0.1333852471483206,-0.1430178330196312,-0.0673584188186397,-0.8821058271124775,-1.271895614538617,-0.005223584911548,-0.0051279775365011,-0.0008771882031073,-0.0044470046930175,-0.0047575658862562,-0.0022430353466607,0.2201175778210112
-2.323601846101773,-2.367629443842074,0.2064776549634787,-0.1411664688233489,-0.1506819500775186,-0.0325771252933888,0.327703095607241,1.0444832890465734,-0.005085818629009,-0.0049806473053897,-0.0015814785746597,-0.0047034992771395,-0.0050152190060277,-0.0010848182722698,0.2089857977647367
-2.324686664374043,-2.36863033764408,0.212277581914462,-0.1452997829047233,-0.1547570511197838,-0.0334444177080274,0.1741719805100099,-0.0260448172564127,-0.005088596813408,-0.0049707076372482,-0.0010008938020051,-0.0048412848273859,-0.0051507770450981,-0.0011136991096773,0.2082678509300372
-2.3258003634837205,-2.3684444539045537,0.2176976583773816,-0.1491863784668608,-0.1585424073960583,0.023897883827123,0.1627650589465333,1.7219910370916056,-0.0052972041981602,-0.0051664162907905,0.0001858837395256,-0.0049657368744368,-0.0052815025621625,0.0007957995314431,0.2082678509300372
-2.325004563952277,-2.3676900633383697,0.2174276712271199,-0.1488752998697893,-0.1584643092432137,0.0215822865768563,-0.0081077222300791,-0.0695374549629652,-0.0053342815685677,-0.0052103777649052,0.0007543905661839,-0.0049555825734573,-0.0052787066068119,0.0007186901430093,0.2184321704870529
-2.324285873809268,-2.367294431310655,0.2241878277518543,-0.1533865917703845,-0.1635014849387018,0.022582376843265,0.2030077034454778,0.0300327407329943,-0.0053372496213053,-0.0052200142837706,0.0003956320277147,-0.0051056554313283,-0.0054465854746284,0.0007519931488807,0.2194837570471188
-2.323533880660387,-2.367258260346341,0.2177636941214995,-0.1488718065764636,-0.1589283224730633,0.0018336193119697,-0.1929169258364819,-0.62308581175061,-0.0053437047209079,-0.0052276419999892,3.617096431440814e-05,-0.0049572011327595,-0.0052925285983063,6.105952308859131e-05,0.2194837570471188
-2.323472821137299,-2.3672378082585825,0.2179536503780227,-0.1489919552972571,-0.1590760540427298,0.0009147398927051,0.0057043920877832,-0.0275939765544906,-0.0053482833929656,-0.0052323643518439,2.0452087758027204e-05,-0.0049612829188237,-0.0052973723303442,3.046083842708214e-05,0.2200492156303379
-2.323442360298872,-2.3671308554379964,0.2247481604348339,-0.1536316494887891,-0.1640397875339872,0.0004770836278186,0.2040393410453821,-0.013142830777374,-0.0052133599325765,-0.0051014093701373,0.0001069528205861,-0.0051158198863949,-0.0054626317283092,1.5886884806359802e-05,0.2200492156303379
-2.325949483499285,-2.3676495158086603,0.2062362379034856,-0.1413543587659139,-0.1501743356318263,-0.0028931160083198,0.6701497274071667,2.188376955462384,-0.0050750911474286,-0.0049626986511674,-0.0002826202538672,-0.0047072763553162,-0.0050006395076103,-9.634076307705188e-05,0.208778961479579
-2.326045824262362,-2.368264326544134,0.2133809238009665,-0.1462662963572864,-0.1553627664277266,-0.0084415793085882,0.2145551320564828,-0.166620519527579,-0.0051746800807512,-0.005055510998545,-0.0006148107354735,-0.0048713278594456,-0.0051729584737784,-0.0002811045909759,0.208778961479579
-2.326326928853338,-2.3694085051330207,0.218115139007716,-0.1495560967507491,-0.1587677164572062,-0.0314078729264286,0.1421686248273137,-0.689678487022234,-0.0053781828534378,-0.0052426864729357,-0.0011441785888868,-0.0049829135394992,-0.005284424080357,-0.00104588216845,0.2091587140966922
-2.327372811021788,-2.37057410513464,0.2185023557605283,-0.149987866736597,-0.1588927918588672,-0.0324860444232796,0.0116281307150843,-0.0323775224279565,-0.005375393096336,-0.0052252819681395,-0.0011656000016189,-0.0049973885232453,-0.0052884920307624,-0.0010817852792952,0.2206151758858394
-2.3284545963010834,-2.372075418755544,0.2248272861638149,-0.1545062993292847,-0.1633251728036907,-0.0332397814118828,0.1899378499485466,-0.0226347444025002,-0.0053326127662987,-0.0051765004071047,-0.0015013136209041,-0.0051479984343723,-0.0054359462317544,-0.0011068847210156,0.2206151758858394
-2.329561481022099,-2.373502065967146,0.2065552068546248,-0.1421153237108051,-0.1498942568790743,0.0394038447845465,-0.5487110903660695,2.1814902761690504,-0.005236323598138,-0.0050664788498286,-0.0014266472116029,-0.0047290995450808,-0.0049946433162667,0.0013121480313253,0.2152162436604969
-2.3282493329907736,-2.37247806534292,0.206310391060553,-0.1417503116342123,-0.1499027238283614,0.037015065782098,-0.0073518256478031,-0.0717351051786319,-0.0050938752970035,-0.0049254614879252,0.0010240006242265,-0.0047171431576423,-0.0049947295642164,0.0012326016905438,0.2101167262479828
-2.3270167313002297,-2.3708395739709003,0.2122676368377322,-0.1456531583510079,-0.1544108387097602,0.0408239476859573,0.1788962695849612,0.1143808379537323,-0.0051605438716728,-0.0050035045212748,0.0016384913720197,-0.0048466871017672,-0.0051452388353451,0.0013594374579423,0.2075884217141292
-2.3256572938422875,-2.367740974562064,0.2176656054537523,-0.1491417320750482,-0.1585404035292048,0.0933074241855324,0.1621011596402423,1.5760803753626151,-0.0053222414372529,-0.0051848912683136,0.0030985994088363,-0.0049581414096767,-0.005287166736428,0.0031071372253782,0.2184601932509562
-2.322550156616909,-2.364576847600845,0.2175058782185172,-0.1485393250708533,-0.1588863618033462,0.0921915005812393,-0.0047966136707214,-0.0335112193481417,-0.0053123582506828,-0.0052075176703876,0.0031641269612188,-0.0049381617384667,-0.0052985640038574,0.0030699769693552,0.2184601932509562
-2.3194801796475537,-2.364459811329526,0.2242601916845752,-0.1526483417896644,-0.1642897359035804,0.0949555150106504,0.2028322362179557,0.0830034363186507,-0.0053193684641645,-0.0052379253927836,0.0001170362713192,-0.0050744609951311,-0.0054789412833752,0.0031620186498546,0.218923424190837
-2.316318160997699,-2.3655778814583583,0.2178702672219779,-0.1477934531270125,-0.1600766958434912,-0.0316385866164551,-0.1918896235014199,-3.801624673486652,-0.0053424296403132,-0.0052502605500679,-0.0011180701288324,-0.0049242602115731,-0.0053280241021767,-0.0010535649343279,0.2202476583786138
-2.317371725932027,-2.3667132527140446,0.2180323082105096,-0.1480720690026984,-0.1600398381805693,-0.032586586979094,0.0048660957517044,-0.0284684793585272,-0.0053529838252508,-0.0052488350853892,-0.0011353712556863,-0.00493362155259,-0.0053267140871562,-0.0010851333464038,0.2204321165802272
-2.318456859278431,-2.367470850378078,0.224826176796157,-0.1528649683631107,-0.1648608844454076,-0.0340791162248982,0.204020077647069,-0.0448206980721974,-0.0050744939233464,-0.004965825303135,-0.0007575976640334,-0.0050934464333886,-0.0054870437672514,-0.0011348345702891,0.2206259903251907
-2.31959169384872,-2.367863010756443,0.1946475548607536,-0.1325076561401928,-0.1425811757473703,0.0063936565236731,-0.906264922985089,1.215398581038181,-0.0049779797665256,-0.0048665568670109,-0.0003921603783649,-0.004411938061978,-0.0047484799088618,0.0002129087622383,0.1966075966390801
-2.319378785086481,-2.3687377557981035,0.2067407947276856,-0.1407079660029643,-0.1514695497713771,-0.0243014536134569,0.3631603563643261,-0.9217750791930974,-0.0050924184921932,-0.0049704864950868,-0.0008747450416604,-0.0046875504185159,-0.0050421002097479,-0.0008092384053281,0.1966075966390801
-2.321058560106169,-2.367883107903926,0.2183174770689295,-0.1488555385153538,-0.1597014384626719,0.1405053249769987,0.1470000866199383,5.004431400853986,-0.0051369823410369,-0.0050103901682303,0.0008546478941773,-0.004944361301568,-0.0053296986391881,0.004678827321734,0.2093090939831572
-2.316379732784435,-2.365439678357045,0.2182125467596544,-0.1480355116815593,-0.1603190657548667,0.1418167688028385,-0.0031510603385918,0.0393826974726652,-0.0052099846708972,-0.0050943036895765,0.0024434295468811,-0.0049168892180368,-0.0053503085898606,0.0047224984011345,0.214709349478948
-2.3116572343833,-2.363102539108266,0.2246883133680763,-0.1516474037369291,-0.1657947619921681,0.1468459157687231,0.1944674657183742,0.1510254344109499,-0.0051916824521023,-0.005100389955895,0.0023371392487789,-0.0050362682061049,-0.0055333555095773,0.0048899689950984,0.214709349478948
-2.3064049731503533,-2.359113571828748,0.2057885031615147,-0.1380920175303181,-0.1525762194048045,0.1395031599073739,0.6873829178790352,3.8625679617157616,-0.0049673045111211,-0.0049217860299453,0.002828819388311,-0.0045865805285545,-0.0050915101132307,0.0046454552249155,0.204903916887871
-2.3017595179254378,-2.3539635717629976,0.212103449696067,-0.1415975207163044,-0.1579177491606557,0.154015528212191,0.1896380340706415,0.4358068560005139,-0.0049619422133682,-0.0049577507676199,0.0051500000657505,-0.0047016235368516,-0.0052707902322161,0.0051287170894659,0.204903916887871
-2.3000513661378688,-2.3551726676963955,0.2176768446236923,-0.1450411996624298,-0.162315307613947,-0.1009605945746295,-0.004921800329996,0.0528253501807077,-0.005229444276859,-0.0052592779508482,-0.0025100229061081,-0.0048388789795395,-0.0053970331673727,-0.0033619877993351,0.2120184329156365
-2.303413353937204,-2.3584056358145093,0.2243381761336375,-0.1500412960471709,-0.1667789757477008,-0.1017103846619605,0.2000399852836393,-0.022516218838768,-0.0053055816862908,-0.0053011835660996,-0.0032329681181137,-0.0050056990128262,-0.005545332772596,-0.0033869558092432,0.2206916505834821
-2.2899959400089784,-2.3416717586386686,0.2248817978804492,-0.1481482437134363,-0.1691860541018895,0.1368679460463478,0.2059880235752473,0.1182452958649714,-0.0051903982430847,-0.0053182141730832,0.0045838866519458,-0.004920407636699,-0.0056451820555278,0.0045577026033433,0.2190838117966814
-2.271665072106998,-2.3302875107869743,0.2015543662940867,-0.1299787621080161,-0.1540444220771353,0.0873000279504141,0.1830632954368484,0.0029229991425517,-0.0046215082115528,-0.0048527839409324,0.002766414383827,-0.0043207640389426,-0.0051360192784835,0.0029070909307487,0.1966713040946182
-2.272682962882589,-2.334520428554893,0.218009054848196,-0.1407596214344856,-0.1664772566131002,-0.1179374227546029,-0.0001528662458895,-0.0021052326098457,-0.0049772116609367,-0.0052295185664246,-0.0041372311196954,-0.0046980976672637,-0.0055345349236873,-0.0039273161777282,0.2078057538524652
-2.2766102790603173,-2.3406129916901763,0.2245756037501844,-0.1456717581801248,-0.1709208608346889,-0.1220721777848154,0.1971936607203733,-0.1241668177240991,-0.0050668088633163,-0.0052720646870771,-0.0060925631352835,-0.0048623510050244,-0.0056818524907341,-0.0040650035202343,0.2131019638700735
-2.2751775324432093,-2.3561638021585525,0.2121916445400267,-0.1374073358120709,-0.1616926655035095,-0.1390465909258813,0.1779471619026815,-0.0017233616090698,-0.0049733224059345,-0.0050002271813662,-0.0047663967447371,-0.0045880438928455,-0.0053738126421901,-0.0046302514778318,0.2090010683324661
-2.268619982272956,-2.362032898922704,0.1887811816292179,-0.1213016508319216,-0.1446521484208731,-0.0513442683305911,0.1644229211106079,-0.0008936525386954,-0.0044730209443233,-0.0044187576746859,-0.0001305568338283,-0.0040433986443667,-0.0048135133281933,-0.0017097641354086,0.1853076932402665
-2.258330193139173,-2.33941293900291,0.2246683531122444,-0.142582007724642,-0.1736267259478744,-0.0303436570758419,0.2009402684598484,0.0046658217886951,-0.0049020690579304,-0.0050595416859198,0.0028610345522457,-0.0047508263783431,-0.0057794316514836,-0.0010104437806255,0.1960562185295233
-2.2419656393539977,-2.3312750044909736,0.1896570108334968,-0.1179480923329847,-0.1485194575579471,0.0819927882204335,0.1715320571533705,0.0201410073565126,-0.0043059426705704,-0.0045167480324366,0.0023628957443904,-0.0039208507968983,-0.0049511044771216,0.0027303598477404,0.1850222887669551
-2.239235279506257,-2.331651735204564,0.1724971616836269,-0.1069071252377518,-0.1353740645851597,-0.0462174660392467,-0.5153107852813791,-3.8501577855759854,-0.0041503202134212,-0.0043605347784487,-0.0003767307135902,-0.0035634165623925,-0.00450526115948,-0.0015390416191069,0.1850959673275406
-2.240774321125364,-2.333481593979825,0.1726799231907743,-0.107228834044853,-0.1353526247346282,-0.0441487481216208,0.0054883335479702,0.0621236611899689,-0.0040821285777907,-0.0042818585616111,-0.0018298587752614,-0.0035739737950963,-0.0045046622515682,-0.0014701533124499,0.1739818579198446
-2.242244474437814,-2.3349648449585043,0.1777032502193648,-0.1105528215491407,-0.1391277067519264,-0.0474182835008651,0.1508506615192346,-0.0981842456229542,-0.0040288192598412,-0.0042139380164853,-0.001483250978679,-0.0036850053272735,-0.0046300918448634,-0.0015790288405788,0.1739818579198446
-2.2256059964958363,-2.33226447037054,0.1651920619386752,-0.1006033353689097,-0.1310243726953188,-0.0536584643782765,0.5170757607145582,-4.913178902838831,-0.0035920927749772,-0.003782225523609,-0.0003760678144821,-0.0033539309550807,-0.0043601596516512,-0.0017868268637966,0.1536780892394538
-2.227392823359633,-2.3336520914949057,0.1366995429197055,-0.0834447589912511,-0.1082762080576727,0.1019269082196665,-0.8556312017708628,4.672233411349642,-0.0035010407748494,-0.003667627724347,-0.0013876211243655,-0.002772539452445,-0.0036103423619333,0.0033941660437148,0.155733784756796
-2.223998657315918,-2.335119350620773,0.1488127800138951,-0.0904383809488774,-0.1181784360482472,-0.0598989644189782,0.3637608736993865,-4.859635814974319,-0.0035060555571029,-0.0036648061644719,-0.0014672591258673,-0.0030154700148774,-0.0039323747923315,-0.0019946355151519,0.1486611455376748
-2.22599329283107,-2.337565298536794,0.1531253352248464,-0.0933016302449488,-0.1214173549430082,-0.0590048116257617,0.129506162491031,0.0268514352317282,-0.0034399170280392,-0.0035840542362604,-0.002445947916021,-0.0031108621929737,-0.0040401831978178,-0.0019648602271378,0.1486611455376748
-2.227958153058208,-2.338965262894939,0.1257437820101825,-0.076813387088222,-0.0995550213613521,0.1074248952405304,-0.8222688653052214,4.997889095083849,-0.0032659458949217,-0.003385346147249,-0.001399964358145,-0.0025519077888453,-0.0033197832382802,0.0035772490115096,0.137159320377744
-2.224380904046698,-2.3406389163562484,0.1372163735091454,-0.0834325134655473,-0.1089373620748298,-0.0500809294529804,0.3445222672361215,-4.729904645450778,-0.0032833006306696,-0.0033935979181234,-0.0016736534613093,-0.0027812793990456,-0.003625331767186,-0.0016676949507842,0.137159320377744
-2.2260485989974823,-2.343801745795492,0.1414581005464593,-0.0861988074154094,-0.1121613115578333,-0.0515451434102923,0.1273791903097284,-0.0439703891084653,-0.0033695731285736,-0.003469034068211,-0.0031628294392431,-0.0028735760545199,-0.0037325435358189,-0.0017164532755627,0.1390126882482548
-2.227765052273045,-2.3504609137340124,0.1490841333119291,-0.0910485658068579,-0.1180518422977097,-0.2062479103205449,0.2290099929570511,-4.64572873604362,-0.0036031700365155,-0.0036744275062103,-0.0066591679385208,-0.0030453422410185,-0.0039207231834087,-0.0068680554136741,0.1501854701839937
-2.234633107686719,-2.357406304102532,0.1488832582332666,-0.0917334308012158,-0.1172655203186004,-0.2016852570156335,-0.0060322846445206,0.1370166157631051,-0.0036500969581816,-0.0036702372489143,-0.0069453903685188,-0.0030677628875541,-0.0038946942435191,-0.0067161190586205,0.1522009339325495
-2.24134922674534,-2.3629739573054227,0.1535767268063669,-0.0954355370091033,-0.1203240179363268,-0.2085798941122807,0.1409450021952024,-0.2070461590584752,-0.0034436411091889,-0.0034176081035497,-0.0055676532028914,-0.0031918410961504,-0.003995762161287,-0.0069457104739389,0.1522009339325495
-2.250510976261262,-2.377158071931047,0.1420972352117356,-0.0893182179493912,-0.1105164250107845,-0.1947797182278408,0.1314697626594846,-0.1752812866135081,-0.0034347616099819,-0.0033059056241699,-0.0037398776997874,-0.0029861634698905,-0.0036705639149703,-0.0064861646169871,0.1409639544266765
-2.256997140878249,-2.3801950400209315,0.1379977983876467,-0.0874357484587973,-0.1067632064490736,-0.0891267156539914,-0.1231062109335986,3.1727628400555363,-0.0034444321033024,-0.003294755835534,-0.0030369680898845,-0.0029168360157605,-0.0035509265706578,-0.0029679196312779,0.1401629804237958
-2.259965060509527,-2.3832575867608607,0.1381235976369861,-0.0878322227400497,-0.106600323042317,-0.0885068755070704,0.0037777552354171,0.0186138182258562,-0.0034569022959318,-0.003286032544288,-0.0030625467399292,-0.0029299940354928,-0.0035455133964788,-0.0029472789543854,0.1402565123350463
-2.2643855559071,-2.389690348260292,0.1305528704120903,-0.0834626138743481,-0.1003894618876779,-0.0861312545814843,0.1248978804410344,-0.1450774625302419,-0.0031898719145928,-0.002991504584684,-0.0028865164749323,-0.0027840521465666,-0.0033390147470158,-0.0028681707775634,0.1288514987484737
-2.267253726684664,-2.391111501586603,0.1151141926499928,-0.0738462289039506,-0.0883063521278338,-0.0600882169480938,-0.4636239568197461,0.782073202203919,-0.0030414606226962,-0.0028393867400535,-0.0014211533263108,-0.0024619817603017,-0.0029381711742722,-0.0020009376243715,0.1189560294882651
-2.269254664309035,-2.392736224546335,0.1151082187753897,-0.0740189350304215,-0.0881538387513851,-0.0611941629290387,-0.000179395633726,-0.0332115910193684,-0.002928516773452,-0.0027287891610041,-0.0016247229597321,-0.002467781849309,-0.0029330413433163,-0.0020377656255369,0.1189560294882651
-2.2712924299345723,-2.3950149295455803,0.1183826095121589,-0.0763090806918604,-0.090506167960374,-0.0638012425113423,0.0983300521552309,-0.0782906781472533,-0.0028986014967655,-0.0026852070403775,-0.0022787049992452,-0.0025442531199264,-0.0030111866541292,-0.0021245813756276,0.1168950780919237
-2.2734170113102,-2.3982213415092146,0.1146573446538731,-0.0740938558223202,-0.0875008983522927,-0.0882665415834172,-0.1118698155641388,-0.7346936658280762,-0.0029088821351008,-0.0026833816396907,-0.0032064119636343,-0.0024715664061609,-0.0029101816133217,-0.0029392758347277,0.1158565319046293
-2.276356287144928,-2.40127954650457,0.1146038439688323,-0.0743160316022423,-0.0872420110917153,-0.0888385092788778,-0.0016066271784015,-0.017176207070888,-0.0029064602599759,-0.0026629637450403,-0.0030582049953555,-0.0024789799114631,-0.0029015262810175,-0.0029583223589866,0.1158565319046293
-2.2793146095039143,-2.403766836879414,0.1179717725798398,-0.0767653387549038,-0.0895791375905925,-0.0902661919903175,0.1011389973275525,-0.0428733546978892,-0.0028765211213523,-0.0026222457587081,-0.0024872903748436,-0.0025607266213711,-0.0029791719879409,-0.0030058641932775,0.115524857372408
-2.282320473697192,-2.4062528629609963,0.1142980215121045,-0.0746353357236167,-0.0865656073911836,-0.0957550811212125,-0.1103228548869452,-0.1648315054322818,-0.0028697063474756,-0.0026039444333225,-0.0024860260815824,-0.0024899110810954,-0.0028786995888814,-0.0031886442013363,0.114326030776179
-2.285509117898528,-2.409311842071566,0.114128999272166,-0.0748002054886673,-0.086199522816076,-0.0944680061129991,-0.0050757429410958,0.0386509011475474,-0.0029169732624925,-0.0026333532771314,-0.0030589791105697,-0.0024953205561236,-0.0028665538181655,-0.0031457846035628,0.114326030776179
-2.288654902502091,-2.412428815132366,0.1176705161298082,-0.0774005150328729,-0.0886313186119978,-0.0971863850650712,0.1063518575868516,-0.0816330015637261,-0.0029303442200125,-0.002626696164349,-0.0031169730607998,-0.0025821703837594,-0.0029472804694726,-0.0032363066226668,0.1157792458553571
-2.291891209124758,-2.4157719529023685,0.1141735519659013,-0.0753782256494157,-0.0857538516129517,-0.0987290229122597,-0.1050139388560628,-0.0463254608765319,-0.0029450888113868,-0.0026229840647751,-0.0033431377700026,-0.0025147476583424,-0.0028515044527032,-0.0032876764629782,0.1157792458553571
-2.2951788855877364,-2.4191303236956467,0.1141668110885077,-0.0756552816882086,-0.085500521090791,-0.0979677856769465,-0.00020242875056,0.0228599770364344,-0.002956191249148,-0.0026164690738248,-0.0033583707932782,-0.0025239238325537,-0.0028430855242966,-0.0032623272630423,0.116062368818483
-2.2984412128507787,-2.422969154657547,0.1176969146087445,-0.0782817263787094,-0.0878893339580347,-0.1008912122561684,0.1060091147218263,-0.0877905879646224,-0.0029654559368814,-0.0026063042196731,-0.0038388309619001,-0.0026116551926255,-0.0029223641245815,-0.0033596773681304,0.1161268198466527
-2.301800890218909,-2.4304243529810554,0.1143777013505534,-0.0763605977333981,-0.0851546691616763,-0.2177321300149172,-0.0996760738195507,-3.508736269031496,-0.0030080803817971,-0.0026159994671999,-0.0074551983235084,-0.0025530289386562,-0.0028264404095702,-0.0072504799294967,0.1161268198466527
-2.309051370148406,-2.4379143259431406,0.1144118341720277,-0.076998968765185,-0.0846240309114712,-0.2181705985178804,0.0010250096538828,-0.0131672223112054,-0.0030338310071986,-0.0025976801659066,-0.0074899729620852,-0.0025742431607315,-0.0028086747026448,-0.0072650809306454,0.1173853942904075
-2.316316451079051,-2.444548775630946,0.1179784167991944,-0.0800311375328187,-0.0866828925200785,-0.2251514318454533,0.1071045833983995,-0.2096346344616488,-0.0030468041653159,-0.0025710645867391,-0.0066344496878052,-0.0026757956369846,-0.0028765573177764,-0.0074975426804535,0.1175981171207859
-2.3118436206919304,-2.4404492582130546,0.1181976437750799,-0.0797906119586875,-0.0872017272606388,-0.0140466971569285,0.2094900219306096,-1.2197700646224194,-0.0030144894726218,-0.0025504201302593,-0.0010567241486763,-0.0026576688704356,-0.0029032303659648,-0.0004677550153257,0.1120812596704065
-2.312311375707256,-2.44281120577294,0.1148711040734094,-0.0775846275551382,-0.0847112514260919,-0.0678349698600069,-0.0998960871372519,-1.6152634445368883,-0.003031171177704,-0.0025550589576288,-0.0023619475598852,-0.0025867155074474,-0.0028179977132631,-0.0022589044963382,0.1120812596704065
-2.3145702802035943,-2.4451785713101315,0.1149726102319582,-0.0778445108553949,-0.0846104794528082,-0.0688424324040428,0.0030482329894534,-0.0302541304515293,-0.0030399280077244,-0.0025496900713806,-0.0023673655371916,-0.0025954130638764,-0.0028145887932585,-0.0022924529990546,0.1166136121030684
-2.316862733202649,-2.4484980419815714,0.1185539854434733,-0.0804691491869616,-0.0870618371828771,-0.0712230979486058,0.1075488051506034,-0.0714914577946824,-0.0030335595136707,-0.002531469051052,-0.0033194706714398,-0.0026830207091589,-0.0028960134929478,-0.0023717291616885,0.1168145081428931
-2.3192344623643373,-2.4550422164312087,0.1113056647751286,-0.0757429628506973,-0.0815595156289638,-0.1612599567883594,-0.2176672873376787,-2.703809574767375,-0.0030107381230999,-0.0024881023374458,-0.0065441744496372,-0.002529485702678,-0.0027091793875144,-0.0053699565610523,0.1168145081428931
-2.32460441892539,-2.463854263618348,0.115111511884329,-0.0787846381734853,-0.0839264020208719,-0.2549417098674996,0.1142897029789897,-2.8132658582324392,-0.0031303805711044,-0.0025469536331781,-0.0088120471871389,-0.0026353239584859,-0.0027836134677802,-0.0084895589385877,0.118680438786949
-2.3330939778639777,-2.472555290008956,0.1188057668422247,-0.0820454858889704,-0.0859264131697106,-0.2644383885185016,0.1109385873241973,-0.2851855450751338,-0.003153496576119,-0.0025187165686122,-0.0087010263906082,-0.0027446406722239,-0.0028493189296458,-0.0088057983376661,0.1187508187233665
-2.341899776201644,-2.481121645420925,0.1153589608314351,-0.080396773660376,-0.0827287654272131,-0.2497496288454019,-0.1035076880117001,0.4411038940870758,-0.003175180422088,-0.0024909765915961,-0.0085663554119692,-0.0026886018022796,-0.0027437382316103,-0.0083166626405518,0.1187508187233665
-2.350216438842196,-2.489680146147398,0.1153604916371581,-0.0810830885337148,-0.082058368157066,-0.2495470421204448,4.5970141831468935e-05,0.0060836854341471,-0.0031954569155363,-0.0024628722667299,-0.008558500726473,-0.0027113541165072,-0.0027213286774207,-0.0083099165026108,0.1186798969711389
-2.3585263553448064,-2.498291385332676,0.1187885798499717,-0.0841918496291688,-0.0838001143125267,-0.2567448669591195,0.1029455919763842,-0.2161508960562957,-0.0031603855941184,-0.0023952039517989,-0.0086112391852779,-0.0028154474513152,-0.002778561510985,-0.0085496040697386,0.1186798969711389
-2.377809859427769,-2.5281018382868297,0.0122216241278941,-0.0088267598325725,-0.008453189172236,-0.1527712656366238,-0.9502236958190872,0.2521520647588529,-0.0023086324497301,-0.0016568705837418,-0.0108301506635406,-0.0002946422147699,-0.0002807461422478,-0.0050872831456995,0.0950988213140872
-2.0226048852976035,-2.4285776314330603,-2.488589556312368e-05,1.0865016091728986e-05,2.2388819158347063e-05,-0.0059067314480057,-0.000289388081818,-0.183489728506953,-2.329271688861212e-07,1.0815062621016835e-06,-0.0002542642607621,3.6186871390249813e-07,7.455167709618216e-07,-0.0001966941572185,-0.0064707290545645
-2.022801579454822,-2.4287958477888254,-1.293356405085433e-05,5.648996422180468e-06,1.1634686006925312e-05,-0.006055714350905,0.0003589288742423,-0.0044739610480278,-3.012376679212281e-07,-7.715213095060847e-07,-0.0002182163557651,1.881456331134764e-07,3.87418507956857e-07,-0.0002016552878851,2.3004016086335367e-05
-2.023003234742707,-2.429013713800119,-6.063526997978885e-06,2.649468291077652e-06,5.4540514693017775e-06,-0.0062295699106914,0.0002063074190052,-0.0052208876812729,-5.20788375979464e-07,-9.41282125577203e-07,-0.0002178660112934,8.824378264576452e-08,1.8161190279339733e-07,-0.000207444678026,3.622466767503336e-05
-2.0232106794207336,-2.429231315010504,9.092696274393832e-07,-3.974765438074164e-07,-8.177919371739155e-07,-0.006036473597242,0.0002093932920546,0.0057986880915733,-7.34953160774765e-07,-1.089413729005173e-06,-0.0002176012103847,-1.3238353688401253e-08,-2.7231312232739657e-08,-0.0002010145707881,3.622466767503336e-05
-2.023411693991521,-2.429448699037572,7.262346363438303e-06,-3.1759623661492195e-06,-6.53107477765715e-06,-0.0060271540794559,0.0001907830851651,0.0002798653989824,-9.352386300953696e-07,-1.2286382082837832e-06,-0.0002173840270685,-1.057785584467348e-07,-2.174755435390949e-07,-0.0002007042308458,4.339744503157532e-05
-2.0236123982223675,-2.429665902218186,1.3727317963742335e-05,-6.005695149380602e-06,-1.2343860184334128e-05,-0.0062011178525805,0.0001941432913004,-0.0052241373310684,-1.1220463456140806e-06,-1.3601847996813632e-06,-0.0002172031806138,-2.000267714102149e-07,-4.110324796289336e-07,-0.0002064972244909,4.339744503157532e-05
-2.0238188954468583,-2.4298829577600816,1.903074551055315e-05,-8.329475773829785e-06,-1.7111081439249288e-05,-0.0060109091074737,0.0001592620884928,0.0057119743275314,-1.296180171417305e-06,-1.4834842145816651e-06,-0.0002170555418956,-2.774211987168892e-07,-5.69774836378139e-07,-0.0002001632732788,5.6674508942404e-05
-2.024019058720137,-2.430099905534361,2.4319334219857863e-05,-1.0648589410944724e-05,-2.18640700797968e-05,-0.0060037963192614,0.0001588164777568,0.0002135972436117,-1.457798019632861e-06,-1.598807828795401e-06,-0.0002169477742794,-3.546613895331636e-07,-7.280426690981704e-07,-0.0001999264174314,6.809322663981787e-05
-2.0242189851375687,-2.430316775114731,3.0210397338262875e-05,-1.3233510576524992e-05,-2.7157730117900533e-05,-0.0061793720201224,0.0001769088023545,-0.0052725435693997,-1.608043356915445e-06,-1.7063119903681925e-06,-0.0002168695803699,-4.40757248957505e-07,-9.043127674998876e-07,-0.00020577308827,6.809322663981787e-05
-2.024424758225839,-2.430533583098931,3.401566256822686e-05,-1.4906679529491996e-05,-3.057541831865092e-05,-0.00599198493299,0.000114272229128,0.0056272398538275,-1.7485741778955344e-06,-1.806704326590136e-06,-0.0002168079841999,-4.964808357751269e-07,-1.0181183211779946e-06,-0.0001995330982685,7.337003638644834e-05
-2.024624291324108,-2.4307503593959674,3.8350337737261386e-05,-1.6813141593627654e-05,-3.4468343074691624e-05,-0.0059870048365186,0.0001301704254965,0.0001495524465869,-1.8797141327908664e-06,-1.899643911729143e-06,-0.0002167762970364,-5.599771835569884e-07,-1.1477472486695127e-06,-0.000199367261056,8.264594028716435e-05
-2.024823658585164,-2.43096713325576,4.3734320558715184e-05,-1.9181365508959465e-05,-3.930351144546957e-05,-0.0061641750364709,0.0001616811658094,-0.0053204264249949,-2.000165382431973e-06,-1.9870659708765004e-06,-0.0002167738597926,-6.38856867854963e-07,-1.308749628583543e-06,-0.0002052670287144,8.264594028716435e-05
-2.025028925613878,-2.431183916052796,4.624493846135776e-05,-2.029102381205088e-05,-4.155560956060625e-05,-0.0059795217096877,7.539393101028749e-05,0.0055451449484454,-2.111963454787258e-06,-2.0681850854131767e-06,-0.0002167827970356,-6.758109619666808e-07,-1.3837432587361006e-06,-0.0001991180729326,9.076577350920462e-05
-2.0252280436868104,-2.431400721416224,4.973387632005781e-05,-2.1830773353129764e-05,-4.468641615326839e-05,-0.0059765797170202,0.0001047729086696,8.834812815316849e-05,-2.216051725678625e-06,-2.1432584238478825e-06,-0.0002168053634279,-7.270935797488745e-07,-1.4879947117163652e-06,-0.0001990201045767,9.076577350920462e-05
-2.025427063791387,-2.43161757121142,5.464493072588333e-05,-2.3996260631188725e-05,-4.909427593677953e-05,-0.0061551878761777,0.000147479111286,-0.0053636083831079,-2.312972213980302e-06,-2.212484468522291e-06,-0.0002168497951964,-7.992218750220071e-07,-1.6347678217055823e-06,-0.0002049677562767,9.434725852054752e-05
-2.025632031547664,-2.431834484426907,5.609974158153057e-05,-2.464544270577323e-05,-5.039626136283284e-05,-0.0059725282490703,4.3688013683100015e-05,0.0054852740873096,-2.403137992823545e-06,-2.276581175131298e-06,-0.0002169132154867,-8.208384169801473e-07,-1.6781244968467848e-06,-0.000198885190694,9.777030850310828e-05
-2.025830916738358,-2.432051480995017,5.889955435602669e-05,-2.588596448011422e-05,-5.290627889270618e-05,-0.0059716230255065,8.407846169658041e-05,2.718389080407892e-05,-2.486792307854202e-06,-2.335907559158912e-06,-0.0002169965681102,-8.621549960361168e-07,-1.7617045194967e-06,-0.0001988550467493,9.777030850310828e-05
-2.0260297717851072,-2.4322685749682864,6.340289334334843e-05,-2.787647669166868e-05,-5.694584209199887e-05,-0.00615228682159,0.0001352354050246,-0.0054253392217249,-2.5646248011934603e-06,-2.390964179088684e-06,-0.0002170939732693,-9.284563911096234e-07,-1.896213447097936e-06,-0.0002048711511589,0.0001037334269116
-2.026234642936266,-2.432485739173728,6.399323909201039e-05,-2.8147809782805925e-05,-5.747030062491566e-05,-0.0059715278178369,1.772810056041899e-05,0.0054281983109013,-2.63590382565404e-06,-2.4393055009230835e-06,-0.0002171642054413,-9.37487586715582e-07,-1.913679929158526e-06,-0.0001988518763339,0.0001089790309585
-2.0264334948126,-2.432701733877787,6.498732290211379e-05,-2.859666854302681e-05,-5.835737045330146e-05,-0.0059570453110235,2.985236666977176e-05,0.0004349101145169,-2.616324445758877e-06,-2.426432986535332e-06,-0.0002159947040594,-9.524366697218896e-07,-1.943218291159453e-06,-0.000198369608857,0.0001089790309585
-2.026631864421457,-2.432917305073872,6.700296253761387e-05,-2.9495554457501296e-05,-6.016152637742382e-05,-0.0061111701785187,6.052971878378629e-05,-0.0046283743992546,-2.653247817008264e-06,-2.4447881823430606e-06,-0.0002155711960849,-9.823798930825102e-07,-2.003291580230749e-06,-0.0002035019669446,0.0001085364333789
