Time,yaw_world,delta_position_x_world,delta_position_y_world,delta_yaw,Theta_calculated,linear_velocity_x,world_velocity_x,world_velocity_y,angular_velocity_yaw,linear_acceleration_x,angular_acceleration_yaw,kinematic_delta_x,kinematic_delta_y,kinematic_delta_yaw,header.seq_x,header.stamp.secs_x,header.stamp.nsecs_x,header.frame_id_x,child_frame_id,pose.pose.position.x,pose.pose.position.y,pose.pose.position.z,pose.pose.orientation.x,pose.pose.orientation.y,pose.pose.orientation.z,pose.pose.orientation.w,pose.covariance,twist.twist.linear.x,twist.twist.linear.y,twist.twist.linear.z,twist.twist.angular.x,twist.twist.angular.y,twist.twist.angular.z,twist.covariance,linear.x,linear.y,linear.z,angular.x,angular.y,angular.z,header.seq_y,header.stamp.secs_y,header.stamp.nsecs_y,header.frame_id_y,orientation.x,orientation.y,orientation.z,orientation.w,orientation_covariance_0,orientation_covariance_1,orientation_covariance_2,orientation_covariance_3,orientation_covariance_4,orientation_covariance_5,orientation_covariance_6,orientation_covariance_7,orientation_covariance_8,angular_velocity.x,angular_velocity.y,angular_velocity.z,angular_velocity_covariance_0,angular_velocity_covariance_1,angular_velocity_covariance_2,angular_velocity_covariance_3,angular_velocity_covariance_4,angular_velocity_covariance_5,angular_velocity_covariance_6,angular_velocity_covariance_7,angular_velocity_covariance_8,linear_acceleration.x,linear_acceleration.y,linear_acceleration.z,linear_acceleration_covariance_0,linear_acceleration_covariance_1,linear_acceleration_covariance_2,linear_acceleration_covariance_3,linear_acceleration_covariance_4,linear_acceleration_covariance_5,linear_acceleration_covariance_6,linear_acceleration_covariance_7,linear_acceleration_covariance_8
0.40900000000000003,-2.3572347393658397,4.127334023310352e-06,-9.830264468017097e-06,-1.576390944491024e-05,-2.3562266246781336,0.00018403421278989955,-0.0001301360214866344,-0.00013012765804712025,0.00044877230630448753,0.005729343183872792,0.017069732493216194,-4.3334410925499415e-06,-4.333339439841003e-06,1.4944117799939436e-05,6.0,0.0,393000000.0,odom,base_footprint,1.2307841207979606e-05,7.751511697062612e-07,-0.0010028612692769,0.0036318449595522,0.0015106557654979,-0.9240699484114924,0.3822031633361102,"(1e-05, 0.0, 0.0, 0.0, 0.0, 0.0, 0.0, 1e-05, 0.0, 0.0, 0.0, 0.0, 0.0, 0.0, 1000000000000.0, 0.0, 0.0, 0.0, 0.0, 0.0, 0.0, 1000000000000.0, 0.0, 0.0, 0.0, 0.0, 0.0, 0.0, 1000000000000.0, 0.0, 0.0, 0.0, 0.0, 0.0, 0.0, 0.001)",0.0002241804681778,0.0005323033028882,0.0,0.0,0.0,-0.000673989392293,"(0.0, 0.0, 0.0, 0.0, 0.0, 0.0, 0.0, 0.0, 0.0, 0.0, 0.0, 0.0, 0.0, 0.0, 0.0, 0.0, 0.0, 0.0, 0.0, 0.0, 0.0, 0.0, 0.0, 0.0, 0.0, 0.0, 0.0, 0.0, 0.0, 0.0, 0.0, 0.0, 0.0, 0.0, 0.0, 0.0)",,,,,,,5,0,409000000,base_footprint,0.003573082274585,0.0014858890837574,-0.9240715206350212,0.382200013040253,0.0,0.0,0.0,0.0,0.0,0.0,0.0,0.0,0.0,-0.0034948683993414,-0.0002727677322376,-0.0005603654139808,0.0,0.0,0.0,0.0,0.0,0.0,0.0,0.0,0.0,-0.0014047131862818,0.0048698322369009,0.1277289217529955,0.0,0.0,0.0,0.0,0.0,0.0,0.0,0.0,0.0
0.443,-2.3572376676374525,-2.7229781093211256e-07,-5.606539407797088e-07,-2.928271612745448e-06,-2.3562116805603335,3.814002813970722e-05,-2.6969536136529038e-05,-2.6968608919966807e-05,-0.00042875088398293935,-0.004381206746252021,-0.026352047756379185,-8.980803493459424e-07,-8.980598811633373e-07,-1.4277404436631882e-05,7.0,0.0,426000000.0,odom,base_footprint,1.1883208801348032e-05,-7.668813915141619e-07,-0.0010024797521446,0.0035654543689885,0.0014825091883995,-0.9240723677651292,0.3821980492291877,"(1e-05, 0.0, 0.0, 0.0, 0.0, 0.0, 0.0, 1e-05, 0.0, 0.0, 0.0, 0.0, 0.0, 0.0, 1000000000000.0, 0.0, 0.0, 0.0, 0.0, 0.0, 0.0, 1000000000000.0, 0.0, 0.0, 0.0, 0.0, 0.0, 0.0, 1000000000000.0, 0.0, 0.0, 0.0, 0.0, 0.0, 0.0, 0.001)",1.0652494669248006e-06,1.7828089424898382e-06,0.0,0.0,0.0,2.724132349567256e-05,"(0.0, 0.0, 0.0, 0.0, 0.0, 0.0, 0.0, 0.0, 0.0, 0.0, 0.0, 0.0, 0.0, 0.0, 0.0, 0.0, 0.0, 0.0, 0.0, 0.0, 0.0, 0.0, 0.0, 0.0, 0.0, 0.0, 0.0, 0.0, 0.0, 0.0, 0.0, 0.0, 0.0, 0.0, 0.0, 0.0)",,,,,,,6,0,443000000,base_footprint,0.0035649179859614,0.0014822682727723,-0.9240721124685124,0.3821986724185495,0.0,0.0,0.0,0.0,0.0,0.0,0.0,0.0,0.0,0.0003072546120247,3.780464494360692e-05,0.0001728050885572,0.0,0.0,0.0,0.0,0.0,0.0,0.0,0.0,0.0,0.0004154059659147,-0.0043684291107865,0.0043686399714274,0.0,0.0,0.0,0.0,0.0,0.0,0.0,0.0,0.0
0.47700000000000004,-2.3572297984123853,4.165311896999098e-07,-3.149134985783869e-07,7.869225067125283e-06,-2.35622595796477,-7.678703963036062e-06,5.429834499718368e-06,5.4294927808787e-06,1.823179990326593e-05,-0.0013759379009832817,0.013422903420006163,1.8081109562635534e-07,1.8080450307018444e-07,6.071189367787556e-07,8.0,0.0,459000000.0,odom,base_footprint,1.2133842256388009e-05,-9.58991325919912e-07,-0.001002403502044,0.0035648442470168,0.0014822694304867,-0.924071457033422,0.3822002577955154,"(1e-05, 0.0, 0.0, 0.0, 0.0, 0.0, 0.0, 1e-05, 0.0, 0.0, 0.0, 0.0, 0.0, 0.0, 1000000000000.0, 0.0, 0.0, 0.0, 0.0, 0.0, 0.0, 1000000000000.0, 0.0, 0.0, 0.0, 0.0, 0.0, 0.0, 1000000000000.0, 0.0, 0.0, 0.0, 0.0, 0.0, 0.0, 0.001)",-2.0874147990433e-06,1.6747875205095057e-05,0.0,0.0,0.0,0.0002540679557542,"(0.0, 0.0, 0.0, 0.0, 0.0, 0.0, 0.0, 0.0, 0.0, 0.0, 0.0, 0.0, 0.0, 0.0, 0.0, 0.0, 0.0, 0.0, 0.0, 0.0, 0.0, 0.0, 0.0, 0.0, 0.0, 0.0, 0.0, 0.0, 0.0, 0.0, 0.0, 0.0, 0.0, 0.0, 0.0, 0.0)",,,,,,,7,0,477000000,base_footprint,0.0035647796212327,0.001482271121985,-0.9240706090504198,0.382202308611237,0.0,0.0,0.0,0.0,0.0,0.0,0.0,0.0,0.0,0.0001786225134673,3.018510289632153e-05,0.0002972171886123,0.0,0.0,0.0,0.0,0.0,0.0,0.0,0.0,0.0,-0.0002425347173,-3.534552905513262e-05,-0.0001552903655408,0.0,0.0,0.0,0.0,0.0,0.0,0.0,0.0,0.0
0.511,-2.357219692822325,5.35995249361515e-07,-4.0453604842945884e-07,1.0105590060316416e-05,-2.3562253508458335,-7.25603161586936e-06,5.1309474971483435e-06,5.130630818135609e-06,0.0001529939398829391,1.2692863278279336e-05,0.004046911110500696,1.708579067378164e-07,1.708526512750501e-07,5.094698198101873e-06,9.0,0.0,493000000.0,odom,base_footprint,1.2630516665247064e-05,-1.3340135327196204e-06,-0.0010023897555923,0.0035647359205847,0.0014822746729311,-0.9240696668203972,0.3822045870761504,"(1e-05, 0.0, 0.0, 0.0, 0.0, 0.0, 0.0, 1e-05, 0.0, 0.0, 0.0, 0.0, 0.0, 0.0, 1000000000000.0, 0.0, 0.0, 0.0, 0.0, 0.0, 0.0, 1000000000000.0, 0.0, 0.0, 0.0, 0.0, 0.0, 0.0, 1000000000000.0, 0.0, 0.0, 0.0, 0.0, 0.0, 0.0, 0.001)",-2.635874644914064e-06,2.0878995397421727e-05,0.0,0.0,0.0,0.0003164848636875,"(0.0, 0.0, 0.0, 0.0, 0.0, 0.0, 0.0, 0.0, 0.0, 0.0, 0.0, 0.0, 0.0, 0.0, 0.0, 0.0, 0.0, 0.0, 0.0, 0.0, 0.0, 0.0, 0.0, 0.0, 0.0, 0.0, 0.0, 0.0, 0.0, 0.0, 0.0, 0.0, 0.0, 0.0, 0.0, 0.0)",,,,,,,8,0,511000000,base_footprint,0.003564711655963,0.0014822825525256,-0.9240686780319562,0.3822069778922373,0.0,0.0,0.0,0.0,0.0,0.0,0.0,0.0,0.0,0.0001760697965274,3.073310954815022e-05,0.0003277262385889,0.0,0.0,0.0,0.0,0.0,0.0,0.0,0.0,0.0,-5.941798470564494e-05,-7.816147729767131e-06,-5.924102329559427e-06,0.0,0.0,0.0,0.0,0.0,0.0,0.0,0.0,0.0
0.545,-2.357209040991099,5.651807159314827e-07,-4.2643713560634386e-07,1.0651831225949593e-05,-2.356220256147635,-5.424770306900895e-06,3.835990704534176e-06,3.835793033697338e-06,0.00019290532931306306,5.499283210115512e-05,0.0011985402231268452,1.277364281721467e-07,1.277339703769901e-07,6.423747466125001e-06,10.0,0.0,526000000.0,odom,base_footprint,1.316934755455669e-05,-1.7406115164547362e-06,-0.0010023861602334,0.0035646979870963,0.0014822919424399,-0.9240677259607252,0.3822092798149106,"(1e-05, 0.0, 0.0, 0.0, 0.0, 0.0, 0.0, 1e-05, 0.0, 0.0, 0.0, 0.0, 0.0, 0.0, 1000000000000.0, 0.0, 0.0, 0.0, 0.0, 0.0, 0.0, 1000000000000.0, 0.0, 0.0, 0.0, 0.0, 0.0, 0.0, 1000000000000.0, 0.0, 0.0, 0.0, 0.0, 0.0, 0.0, 0.001)",-2.769455408811646e-06,2.186796837963636e-05,0.0,0.0,0.0,0.0003314201671715,"(0.0, 0.0, 0.0, 0.0, 0.0, 0.0, 0.0, 0.0, 0.0, 0.0, 0.0, 0.0, 0.0, 0.0, 0.0, 0.0, 0.0, 0.0, 0.0, 0.0, 0.0, 0.0, 0.0, 0.0, 0.0, 0.0, 0.0, 0.0, 0.0, 0.0, 0.0, 0.0, 0.0, 0.0, 0.0, 0.0)",,,,,,,9,0,545000000,base_footprint,0.0035646877942933,0.0014823035217976,-0.9240666424549472,0.3822118994474655,0.0,0.0,0.0,0.0,0.0,0.0,0.0,0.0,0.0,0.0001747193029078,3.088183150208727e-05,0.0003352794060461,0.0,0.0,0.0,0.0,0.0,0.0,0.0,0.0,0.0,-1.4720480763252611e-05,-1.919914127769308e-06,-2.1470179752391814e-06,0.0,0.0,0.0,0.0,0.0,0.0,0.0,0.0,0.0
0.5790000000000001,-2.3571982532919007,5.724455970725923e-07,-4.318777179672731e-07,1.0787699198377963e-05,-2.3562138324001687,-3.942944385491001e-06,2.788136639975829e-06,2.7880287846253132e-06,0.0002129829277317004,4.449927691921603e-05,0.0006029308834425625,9.284342011330903e-08,9.284288856448938e-08,7.092331493465624e-06,11.0,0.0,559000000.0,odom,base_footprint,1.3722333711075566e-05,-2.157825613152524e-06,-0.0010023853330672,0.0035646814361356,0.0014823135207276,-0.924065734388354,0.3822140948764154,"(1e-05, 0.0, 0.0, 0.0, 0.0, 0.0, 0.0, 1e-05, 0.0, 0.0, 0.0, 0.0, 0.0, 0.0, 1000000000000.0, 0.0, 0.0, 0.0, 0.0, 0.0, 0.0, 1000000000000.0, 0.0, 0.0, 0.0, 0.0, 0.0, 0.0, 1000000000000.0, 0.0, 0.0, 0.0, 0.0, 0.0, 0.0, 0.001)",-2.802814021954487e-06,2.212497251848052e-05,0.0,0.0,0.0,0.0003352976910163,"(0.0, 0.0, 0.0, 0.0, 0.0, 0.0, 0.0, 0.0, 0.0, 0.0, 0.0, 0.0, 0.0, 0.0, 0.0, 0.0, 0.0, 0.0, 0.0, 0.0, 0.0, 0.0, 0.0, 0.0, 0.0, 0.0, 0.0, 0.0, 0.0, 0.0, 0.0, 0.0, 0.0, 0.0, 0.0, 0.0)",,,,,,,10,0,579000000,base_footprint,0.003564674780163,0.0014823263545202,-0.9240645808518602,0.3822168837418968,0.0,0.0,0.0,0.0,0.0,0.0,0.0,0.0,0.0,0.0001743983602502,3.094134375629485e-05,0.0003371647200499,0.0,0.0,0.0,0.0,0.0,0.0,0.0,0.0,0.0,-3.674687580539221e-06,-4.813864075845245e-07,-4.971591213712505e-07,0.0,0.0,0.0,0.0,0.0,0.0,0.0,0.0,0.0
0.613,-2.357187431581412,5.74270888566937e-07,-4.3323112006296224e-07,1.0821710488606584e-05,-2.3562067400686755,-2.7155858493648583e-06,1.9202326911608972e-06,1.9201856465112006e-06,0.00023109915679397507,3.685761369748175e-05,0.0005440309027710111,6.394267557595787e-08,6.394325507273767e-08,7.69560192123937e-06,11.0,0.0,559000000.0,odom,base_footprint,1.3722333711075566e-05,-2.157825613152524e-06,-0.0010023853330672,0.0035646814361356,0.0014823135207276,-0.924065734388354,0.3822140948764154,"(1e-05, 0.0, 0.0, 0.0, 0.0, 0.0, 0.0, 1e-05, 0.0, 0.0, 0.0, 0.0, 0.0, 0.0, 1000000000000.0, 0.0, 0.0, 0.0, 0.0, 0.0, 0.0, 1000000000000.0, 0.0, 0.0, 0.0, 0.0, 0.0, 0.0, 1000000000000.0, 0.0, 0.0, 0.0, 0.0, 0.0, 0.0, 0.001)",-2.802814021954487e-06,2.212497251848052e-05,0.0,0.0,0.0,0.0003352976910163,"(0.0, 0.0, 0.0, 0.0, 0.0, 0.0, 0.0, 0.0, 0.0, 0.0, 0.0, 0.0, 0.0, 0.0, 0.0, 0.0, 0.0, 0.0, 0.0, 0.0, 0.0, 0.0, 0.0, 0.0, 0.0, 0.0, 0.0, 0.0, 0.0, 0.0, 0.0, 0.0, 0.0, 0.0, 0.0, 0.0)",,,,,,,11,0,613000000,base_footprint,0.0035646645684232,0.0014823493499566,-0.9240625127139522,0.3822218837320755,0.0,0.0,0.0,0.0,0.0,0.0,0.0,0.0,0.0,0.000174319546881,3.097920465976642e-05,0.0003376438396865,0.0,0.0,0.0,0.0,0.0,0.0,0.0,0.0,0.0,-9.318492245963416e-07,-1.3769031507840236e-07,-1.2919910123935522e-07,0.0,0.0,0.0,0.0,0.0,0.0,0.0,0.0,0.0
0.647,-2.3571766011120237,5.747476203689719e-07,-4.3357113600067665e-07,1.0830469388434238e-05,-2.3561990444667544,-1.480854644500002e-06,1.0471271299492588e-06,1.0471175921841134e-06,0.00023080703062640772,3.7079015161106794e-05,-8.772557584605108e-06,3.486874844721982e-08,3.486960079497023e-08,7.685874119859378e-06,13.0,0.0,626000000.0,odom,base_footprint,1.4853541587577738e-05,-3.0112150720758464e-06,-0.0010023852559824,0.0035646606408956,0.0014823587624582,-0.9240616605287608,0.3822239439750526,"(1e-05, 0.0, 0.0, 0.0, 0.0, 0.0, 0.0, 1e-05, 0.0, 0.0, 0.0, 0.0, 0.0, 0.0, 1000000000000.0, 0.0, 0.0, 0.0, 0.0, 0.0, 0.0, 1000000000000.0, 0.0, 0.0, 0.0, 0.0, 0.0, 0.0, 1000000000000.0, 0.0, 0.0, 0.0, 0.0, 0.0, 0.0, 0.001)",-2.814661356906057e-06,2.2210329757685434e-05,0.0,0.0,0.0,0.0003365867450951,"(0.0, 0.0, 0.0, 0.0, 0.0, 0.0, 0.0, 0.0, 0.0, 0.0, 0.0, 0.0, 0.0, 0.0, 0.0, 0.0, 0.0, 0.0, 0.0, 0.0, 0.0, 0.0, 0.0, 0.0, 0.0, 0.0, 0.0, 0.0, 0.0, 0.0, 0.0, 0.0, 0.0, 0.0, 0.0, 0.0)",,,,,,,12,0,647000000,base_footprint,0.0035646551608639,0.0014823721278317,-0.9240604428734686,0.3822268877550978,0.0,0.0,0.0,0.0,0.0,0.0,0.0,0.0,0.0,0.0001743010923656,3.1010067598474625e-05,0.0003377742433052,0.0,0.0,0.0,0.0,0.0,0.0,0.0,0.0,0.0,-2.5163736156157295e-07,-5.240301587703565e-08,-3.803398012506487e-08,0.0,0.0,0.0,0.0,0.0,0.0,0.0,0.0,0.0
0.681,-2.3571657681463836,5.748898787992663e-07,-4.336598257697476e-07,1.083296564008407e-05,-2.3561913585926346,-4.3268926800000904e-07,3.0595655741148254e-07,3.0595847368441664e-07,0.00023378094629504493,3.1476437732732516e-05,8.930677683595235e-05,1.0188181931409507e-08,1.0188588600374065e-08,7.784905511624998e-06,14.0,0.0,659000000.0,odom,base_footprint,1.5411458081301954e-05,-3.4320821135844226e-06,-0.0010023853451495,0.0035646516536309,0.0014823807613819,-0.9240596513057476,0.382228801419473,"(1e-05, 0.0, 0.0, 0.0, 0.0, 0.0, 0.0, 1e-05, 0.0, 0.0, 0.0, 0.0, 0.0, 0.0, 1000000000000.0, 0.0, 0.0, 0.0, 0.0, 0.0, 0.0, 1000000000000.0, 0.0, 0.0, 0.0, 0.0, 0.0, 0.0, 1000000000000.0, 0.0, 0.0, 0.0, 0.0, 0.0, 0.0, 0.001)",-2.8157755575609344e-06,2.2215498030860143e-05,0.0,0.0,0.0,0.0003366654716247,"(0.0, 0.0, 0.0, 0.0, 0.0, 0.0, 0.0, 0.0, 0.0, 0.0, 0.0, 0.0, 0.0, 0.0, 0.0, 0.0, 0.0, 0.0, 0.0, 0.0, 0.0, 0.0, 0.0, 0.0, 0.0, 0.0, 0.0, 0.0, 0.0, 0.0, 0.0, 0.0, 0.0, 0.0, 0.0, 0.0)",,,,,,,13,0,681000000,base_footprint,0.0035646460516605,0.0014823946177901,-0.924058372528792,0.3822318929186367,0.0,0.0,0.0,0.0,0.0,0.0,0.0,0.0,0.0,0.0001742976035693,3.10377248084072e-05,0.0003378181661057,0.0,0.0,0.0,0.0,0.0,0.0,0.0,0.0,0.0,-8.292182663703164e-08,-3.1217200156020615e-08,-1.5803231417911627e-08,0.0,0.0,0.0,0.0,0.0,0.0,0.0,0.0,0.0
0.7150000000000001,-2.3571549342377742,5.749491566106602e-07,-4.3368617473832665e-07,1.0833908609342302e-05,-2.356183573687123,6.197980759369472e-07,-4.382586381303363e-07,-4.38268206740216e-07,0.00024083053345529302,3.160622654465333e-05,0.0002116993141215644,-1.4593765372030598e-08,-1.4594578552339257e-08,8.019656764061259e-06,15.0,0.0,693000000.0,odom,base_footprint,1.5986375202134938e-05,-3.865755451660895e-06,-0.0010023854428741,0.0035646426151771,0.0014824031409417,-0.9240575808655412,0.3822338067843788,"(1e-05, 0.0, 0.0, 0.0, 0.0, 0.0, 0.0, 1e-05, 0.0, 0.0, 0.0, 0.0, 0.0, 0.0, 1000000000000.0, 0.0, 0.0, 0.0, 0.0, 0.0, 0.0, 1000000000000.0, 0.0, 0.0, 0.0, 0.0, 0.0, 0.0, 1000000000000.0, 0.0, 0.0, 0.0, 0.0, 0.0, 0.0, 0.001)",-2.816501262672166e-06,2.221756645581181e-05,0.0,0.0,0.0,0.0003366974784377,"(0.0, 0.0, 0.0, 0.0, 0.0, 0.0, 0.0, 0.0, 0.0, 0.0, 0.0, 0.0, 0.0, 0.0, 0.0, 0.0, 0.0, 0.0, 0.0, 0.0, 0.0, 0.0, 0.0, 0.0, 0.0, 0.0, 0.0, 0.0, 0.0, 0.0, 0.0, 0.0, 0.0, 0.0, 0.0, 0.0)",,,,,,,14,0,715000000,base_footprint,0.003564637106169,0.0014824168241597,-0.9240563019771164,0.3822368985054128,0.0,0.0,0.0,0.0,0.0,0.0,0.0,0.0,0.0,0.000174297827785,3.1063253010265066e-05,0.0003378406407926,0.0,0.0,0.0,0.0,0.0,0.0,0.0,0.0,0.0,-4.1056091293095886e-08,-2.593380328243952e-08,-1.062780551686386e-08,0.0,0.0,0.0,0.0,0.0,0.0,0.0,0.0,0.0
0.749,-2.3571440997715807,5.749878253962816e-07,-4.33697050188607e-07,1.0834466193543335e-05,-2.356175554030359,1.6646311814594398e-06,-1.1770497071475128e-06,-1.1770942855995033e-06,0.00023073868393930162,3.137636953520998e-05,-0.0003030585440237658,-3.919509769922954e-08,-3.919789722181871e-08,7.683598175178745e-06,16.0,0.0,726000000.0,odom,base_footprint,1.6544429007019426e-05,-4.286690871048784e-06,-0.0010023855351857,0.0035646339792151,0.0014824245977709,-0.9240555711608855,0.3822386652452046,"(1e-05, 0.0, 0.0, 0.0, 0.0, 0.0, 0.0, 1e-05, 0.0, 0.0, 0.0, 0.0, 0.0, 0.0, 1000000000000.0, 0.0, 0.0, 0.0, 0.0, 0.0, 0.0, 1000000000000.0, 0.0, 0.0, 0.0, 0.0, 0.0, 0.0, 1000000000000.0, 0.0, 0.0, 0.0, 0.0, 0.0, 0.0, 0.001)",-2.8171034775907694e-06,2.221876671129936e-05,0.0,0.0,0.0,0.0003367163920173,"(0.0, 0.0, 0.0, 0.0, 0.0, 0.0, 0.0, 0.0, 0.0, 0.0, 0.0, 0.0, 0.0, 0.0, 0.0, 0.0, 0.0, 0.0, 0.0, 0.0, 0.0, 0.0, 0.0, 0.0, 0.0, 0.0, 0.0, 0.0, 0.0, 0.0, 0.0, 0.0, 0.0, 0.0, 0.0, 0.0)",,,,,,,15,0,749000000,base_footprint,0.0035646282826425,0.0014824387677647,-0.924054231292146,0.3822419043375382,0.0,0.0,0.0,0.0,0.0,0.0,0.0,0.0,0.0,0.0001742989742946,3.108704311425172e-05,0.0003378577949606,0.0,0.0,0.0,0.0,0.0,0.0,0.0,0.0,0.0,-3.0650071447836066e-08,-2.4597559794132968e-08,-9.65062393895578e-09,0.0,0.0,0.0,0.0,0.0,0.0,0.0,0.0,0.0
0.783,-2.3571332648435432,5.750213556425694e-07,-4.337040757076624e-07,1.0834928037439795e-05,-2.356167870432184,2.79633944759461e-06,-1.9772579496594663e-06,-1.9773632207265754e-06,0.00022473286126227485,3.398523321727238e-05,-0.00018035503534614923,-6.584159171203134e-08,-6.584729318064308e-08,7.4836042800337535e-06,16.0,0.0,726000000.0,odom,base_footprint,1.6544429007019426e-05,-4.286690871048784e-06,-0.0010023855351857,0.0035646339792151,0.0014824245977709,-0.9240555711608855,0.3822386652452046,"(1e-05, 0.0, 0.0, 0.0, 0.0, 0.0, 0.0, 1e-05, 0.0, 0.0, 0.0, 0.0, 0.0, 0.0, 1000000000000.0, 0.0, 0.0, 0.0, 0.0, 0.0, 0.0, 1000000000000.0, 0.0, 0.0, 0.0, 0.0, 0.0, 0.0, 1000000000000.0, 0.0, 0.0, 0.0, 0.0, 0.0, 0.0, 0.001)",-2.8171034775907694e-06,2.221876671129936e-05,0.0,0.0,0.0,0.0003367163920173,"(0.0, 0.0, 0.0, 0.0, 0.0, 0.0, 0.0, 0.0, 0.0, 0.0, 0.0, 0.0, 0.0, 0.0, 0.0, 0.0, 0.0, 0.0, 0.0, 0.0, 0.0, 0.0, 0.0, 0.0, 0.0, 0.0, 0.0, 0.0, 0.0, 0.0, 0.0, 0.0, 0.0, 0.0, 0.0, 0.0)",,,,,,,16,0,783000000,base_footprint,0.0035646195631468,0.0014824604716864,-0.9240521604921608,0.3822469103708886,0.0,0.0,0.0,0.0,0.0,0.0,0.0,0.0,0.0,0.0001743003509858,3.110930430072304e-05,0.0003378736282149,0.0,0.0,0.0,0.0,0.0,0.0,0.0,0.0,0.0,-2.8047833701604193e-08,-2.4242893731854955e-08,-9.686397534998509e-09,0.0,0.0,0.0,0.0,0.0,0.0,0.0,0.0,0.0
0.8170000000000001,-2.3571224294775583,5.750535865692644e-07,-4.3371013490247495e-07,1.0835365984895871e-05,-2.3561603868279035,4.208550691707217e-06,-2.9757932433203653e-06,-2.9759962193655687e-06,0.00022185621691638526,4.2408746069447654e-05,-8.638571609278066e-05,-9.909226721261796e-08,-9.91023217598589e-08,7.38781202331563e-06,18.0,0.0,793000000.0,odom,base_footprint,1.7677548560974653e-05,-5.1413407245902085e-06,-0.0010023857095359,0.0035646167624482,0.0014824674459202,-0.9240514905037204,0.3822485300108573,"(1e-05, 0.0, 0.0, 0.0, 0.0, 0.0, 0.0, 1e-05, 0.0, 0.0, 0.0, 0.0, 0.0, 0.0, 1000000000000.0, 0.0, 0.0, 0.0, 0.0, 0.0, 0.0, 1000000000000.0, 0.0, 0.0, 0.0, 0.0, 0.0, 0.0, 1000000000000.0, 0.0, 0.0, 0.0, 0.0, 0.0, 0.0, 0.001)",-2.8182681883963216e-06,2.22207385329338e-05,0.0,0.0,0.0,0.0003367478306227,"(0.0, 0.0, 0.0, 0.0, 0.0, 0.0, 0.0, 0.0, 0.0, 0.0, 0.0, 0.0, 0.0, 0.0, 0.0, 0.0, 0.0, 0.0, 0.0, 0.0, 0.0, 0.0, 0.0, 0.0, 0.0, 0.0, 0.0, 0.0, 0.0, 0.0, 0.0, 0.0, 0.0, 0.0, 0.0, 0.0)",,,,,,,17,0,817000000,base_footprint,0.0035646109363568,0.0014824819579025,-0.924050089581695,0.382251916594513,0.0,0.0,0.0,0.0,0.0,0.0,0.0,0.0,0.0,0.000174301786123,3.1130190561232106e-05,0.0003378891326216,0.0,0.0,0.0,0.0,0.0,0.0,0.0,0.0,0.0,-2.7382957008148898e-08,-2.4134012028722828e-08,-9.947384160450412e-09,0.0,0.0,0.0,0.0,0.0,0.0,0.0,0.0,0.0
0.8510000000000001,-2.357111593679689,5.75085472718364e-07,-4.3371594391460044e-07,1.0835797869201969e-05,-2.3561529990158805,5.555761160409889e-06,-3.928353389030387e-06,-3.9286793865639526e-06,0.00020242960478124983,4.0456770831912074e-05,-0.0005833817457998626,-1.3081203488346122e-07,-1.3082715633577836e-07,6.74090583921562e-06,18.0,0.0,793000000.0,odom,base_footprint,1.7677548560974653e-05,-5.1413407245902085e-06,-0.0010023857095359,0.0035646167624482,0.0014824674459202,-0.9240514905037204,0.3822485300108573,"(1e-05, 0.0, 0.0, 0.0, 0.0, 0.0, 0.0, 1e-05, 0.0, 0.0, 0.0, 0.0, 0.0, 0.0, 1000000000000.0, 0.0, 0.0, 0.0, 0.0, 0.0, 0.0, 1000000000000.0, 0.0, 0.0, 0.0, 0.0, 0.0, 0.0, 1000000000000.0, 0.0, 0.0, 0.0, 0.0, 0.0, 0.0, 0.001)",-2.8182681883963216e-06,2.22207385329338e-05,0.0,0.0,0.0,0.0003367478306227,"(0.0, 0.0, 0.0, 0.0, 0.0, 0.0, 0.0, 0.0, 0.0, 0.0, 0.0, 0.0, 0.0, 0.0, 0.0, 0.0, 0.0, 0.0, 0.0, 0.0, 0.0, 0.0, 0.0, 0.0, 0.0, 0.0, 0.0, 0.0, 0.0, 0.0, 0.0, 0.0, 0.0, 0.0, 0.0, 0.0)",,,,,,,18,0,851000000,base_footprint,0.0035646023932246,0.0014825032466077,-0.924048018561874,0.3822569230056879,0.0,0.0,0.0,0.0,0.0,0.0,0.0,0.0,0.0,0.000174303237002,3.11498324701265e-05,0.0003379045543627,0.0,0.0,0.0,0.0,0.0,0.0,0.0,0.0,0.0,-2.7200379702527698e-08,-2.408819533673144e-08,-1.0240894354683592e-08,0.0,0.0,0.0,0.0,0.0,0.0,0.0,0.0,0.0
0.885,-2.357100757451565,5.751172530090095e-07,-4.337216812757075e-07,1.0836228124144755e-05,-2.356146258110041,7.204059003662169e-06,-5.09379327152537e-06,-5.094284663739242e-06,0.00018628745750219595,4.9498433731299675e-05,-0.00048474916753915565,-1.696205957298375e-07,-1.6964239921007812e-07,6.203372334823126e-06,20.0,0.0,859000000.0,odom,base_footprint,1.879387820282602e-05,-5.983257586529567e-06,-0.0010023858650261,0.0035646001447916,0.0014825088511558,-0.9240474703324828,0.3822582482634662,"(1e-05, 0.0, 0.0, 0.0, 0.0, 0.0, 0.0, 1e-05, 0.0, 0.0, 0.0, 0.0, 0.0, 0.0, 1000000000000.0, 0.0, 0.0, 0.0, 0.0, 0.0, 0.0, 1000000000000.0, 0.0, 0.0, 0.0, 0.0, 0.0, 0.0, 1000000000000.0, 0.0, 0.0, 0.0, 0.0, 0.0, 0.0, 0.001)",-2.8193991176702247e-06,2.2222595710126703e-05,0.0,0.0,0.0,0.0003367775906839,"(0.0, 0.0, 0.0, 0.0, 0.0, 0.0, 0.0, 0.0, 0.0, 0.0, 0.0, 0.0, 0.0, 0.0, 0.0, 0.0, 0.0, 0.0, 0.0, 0.0, 0.0, 0.0, 0.0, 0.0, 0.0, 0.0, 0.0, 0.0, 0.0, 0.0, 0.0, 0.0, 0.0, 0.0, 0.0, 0.0)",,,,,,,19,0,885000000,base_footprint,0.0035645939258462,0.0014825243561859,-0.9240459474329776,0.3822619296037316,0.0,0.0,0.0,0.0,0.0,0.0,0.0,0.0,0.0,0.0001743046929478,3.1168346379628244e-05,0.0003379199546086,0.0,0.0,0.0,0.0,0.0,0.0,0.0,0.0,0.0,-2.7139044686953884e-08,-2.4059912122568265e-08,-1.0521495183602788e-08,0.0,0.0,0.0,0.0,0.0,0.0,0.0,0.0,0.0
0.919,-2.3570899207936997,5.751489886578372e-07,-4.337273920808002e-07,1.0836657865276324e-05,-2.3561400547377063,9.333777797369384e-06,-6.599618292050038e-06,-6.600336837609441e-06,0.00017192687119121618,6.395551933054698e-05,-0.0004312488381675605,-2.197638172741415e-07,-2.1979468811145325e-07,5.725164810667499e-06,21.0,0.0,893000000.0,odom,base_footprint,1.9369003859725457e-05,-6.416980781302935e-06,-0.0010023859396752,0.0035645916962487,0.0014825299161783,-0.924045399174728,0.3822632549109376,"(1e-05, 0.0, 0.0, 0.0, 0.0, 0.0, 0.0, 1e-05, 0.0, 0.0, 0.0, 0.0, 0.0, 0.0, 1000000000000.0, 0.0, 0.0, 0.0, 0.0, 0.0, 0.0, 1000000000000.0, 0.0, 0.0, 0.0, 0.0, 0.0, 0.0, 1000000000000.0, 0.0, 0.0, 0.0, 0.0, 0.0, 0.0, 0.001)",-2.819977004559252e-06,2.222354924292542e-05,0.0,0.0,0.0,0.0003367928892417,"(0.0, 0.0, 0.0, 0.0, 0.0, 0.0, 0.0, 0.0, 0.0, 0.0, 0.0, 0.0, 0.0, 0.0, 0.0, 0.0, 0.0, 0.0, 0.0, 0.0, 0.0, 0.0, 0.0, 0.0, 0.0, 0.0, 0.0, 0.0, 0.0, 0.0, 0.0, 0.0, 0.0, 0.0, 0.0, 0.0)",,,,,,,20,0,919000000,base_footprint,0.0035645855271269,0.0014825453033301,-0.924043876195074,0.3822669363884693,0.0,0.0,0.0,0.0,0.0,0.0,0.0,0.0,0.0,0.0001743061510965,3.118583718508044e-05,0.0003379353487229,0.0,0.0,0.0,0.0,0.0,0.0,0.0,0.0,0.0,-2.7109427927645346e-08,-2.4037716479693352e-08,-1.077963806074504e-08,0.0,0.0,0.0,0.0,0.0,0.0,0.0,0.0,0.0
0.9530000000000001,-2.357079083706322,5.751806967514532e-07,-4.3373308836712476e-07,1.0837087377701948e-05,-2.3561343295728956,-0.00015259650885604954,0.0001078955345495088,0.00010790851745497275,0.0021907357589475785,-0.004862771370973541,0.06062489152421508,3.5927437506866075e-06,3.5935311493571974e-06,7.295150077295437e-05,22.0,0.0,926000000.0,odom,base_footprint,1.9927244397800054e-05,-6.837952868723584e-06,-0.001002386009005,0.003564583560228,0.0014825502101339,-0.9240433888291396,0.3822681144825923,"(1e-05, 0.0, 0.0, 0.0, 0.0, 0.0, 0.0, 1e-05, 0.0, 0.0, 0.0, 0.0, 0.0, 0.0, 1000000000000.0, 0.0, 0.0, 0.0, 0.0, 0.0, 0.0, 1000000000000.0, 0.0, 0.0, 0.0, 0.0, 0.0, 0.0, 1000000000000.0, 0.0, 0.0, 0.0, 0.0, 0.0, 0.0, 0.001)",-2.8205404772340857e-06,2.222447449345843e-05,0.0,0.0,0.0,0.0003368077386487,"(0.0, 0.0, 0.0, 0.0, 0.0, 0.0, 0.0, 0.0, 0.0, 0.0, 0.0, 0.0, 0.0, 0.0, 0.0, 0.0, 0.0, 0.0, 0.0, 0.0, 0.0, 0.0, 0.0, 0.0, 0.0, 0.0, 0.0, 0.0, 0.0, 0.0, 0.0, 0.0, 0.0, 0.0, 0.0, 0.0)",,,,,,,21,0,953000000,base_footprint,0.0035645771906491,0.0014825661031873,-0.9240418048481804,0.3822719433598533,0.0,0.0,0.0,0.0,0.0,0.0,0.0,0.0,0.0,0.0001743076107436,3.1202400070732894e-05,0.000337950740589,0.0,0.0,0.0,0.0,0.0,0.0,0.0,0.0,0.0,-2.70889790548107e-08,-2.4018571655200807e-08,-1.1014526526925292e-08,0.0,0.0,0.0,0.0,0.0,0.0,0.0,0.0,0.0
0.9870000000000001,-2.357068246189576,5.752123831445459e-07,-4.337387738096929e-07,1.0837516745798581e-05,-2.356061378072123,9.907283248499993e-06,-7.004574588175885e-06,-7.006439623995143e-06,0.00016208030681469588,0.004879993756893379,-0.06092058414813461,-2.3324868656663277e-07,-2.3331808566215804e-07,5.3972742169293735e-06,23.0,0.0,959000000.0,odom,base_footprint,2.0485514801037944e-05,-7.258930319665926e-06,-0.0010023860755377,0.0035645754815006,0.0014825703685056,-0.9240413783808792,0.3822729742300707,"(1e-05, 0.0, 0.0, 0.0, 0.0, 0.0, 0.0, 1e-05, 0.0, 0.0, 0.0, 0.0, 0.0, 0.0, 1000000000000.0, 0.0, 0.0, 0.0, 0.0, 0.0, 0.0, 1000000000000.0, 0.0, 0.0, 0.0, 0.0, 0.0, 0.0, 1000000000000.0, 0.0, 0.0, 0.0, 0.0, 0.0, 0.0, 0.001)",-2.821104184716805e-06,2.2225398137518388e-05,0.0,0.0,0.0,0.0003368225909578,"(0.0, 0.0, 0.0, 0.0, 0.0, 0.0, 0.0, 0.0, 0.0, 0.0, 0.0, 0.0, 0.0, 0.0, 0.0, 0.0, 0.0, 0.0, 0.0, 0.0, 0.0, 0.0, 0.0, 0.0, 0.0, 0.0, 0.0, 0.0, 0.0, 0.0, 0.0, 0.0, 0.0, 0.0, 0.0, 0.0)",,,,,,,22,0,987000000,base_footprint,0.0035645689105956,0.0014825867694993,-0.9240397333922994,0.3822769505178687,0.0,0.0,0.0,0.0,0.0,0.0,0.0,0.0,0.0,0.0001743090717394,3.121812112181462e-05,0.000337966131317,0.0,0.0,0.0,0.0,0.0,0.0,0.0,0.0,0.0,-2.7072134234150326e-08,-2.4001593679473923e-08,-1.1228127356439113e-08,0.0,0.0,0.0,0.0,0.0,0.0,0.0,0.0,0.0
1.021,-2.357057408243578,5.7524405080046e-07,-4.3374444997495987e-07,1.083794599843202e-05,-2.356055980797906,8.486071096621616e-06,-5.999727226782271e-06,-6.0013894942025155e-06,0.00019086659512027049,-4.2679043599951234e-05,0.0008644531022695077,-1.9978769683257192e-07,-1.99849489035424e-07,6.355857617505008e-06,23.0,0.0,959000000.0,odom,base_footprint,2.0485514801037944e-05,-7.258930319665926e-06,-0.0010023860755377,0.0035645754815006,0.0014825703685056,-0.9240413783808792,0.3822729742300707,"(1e-05, 0.0, 0.0, 0.0, 0.0, 0.0, 0.0, 1e-05, 0.0, 0.0, 0.0, 0.0, 0.0, 0.0, 1000000000000.0, 0.0, 0.0, 0.0, 0.0, 0.0, 0.0, 1000000000000.0, 0.0, 0.0, 0.0, 0.0, 0.0, 0.0, 1000000000000.0, 0.0, 0.0, 0.0, 0.0, 0.0, 0.0, 0.001)",-2.821104184716805e-06,2.2225398137518388e-05,0.0,0.0,0.0,0.0003368225909578,"(0.0, 0.0, 0.0, 0.0, 0.0, 0.0, 0.0, 0.0, 0.0, 0.0, 0.0, 0.0, 0.0, 0.0, 0.0, 0.0, 0.0, 0.0, 0.0, 0.0, 0.0, 0.0, 0.0, 0.0, 0.0, 0.0, 0.0, 0.0, 0.0, 0.0, 0.0, 0.0, 0.0, 0.0, 0.0, 0.0)",,,,,,,23,1,21000000,base_footprint,0.0035645606816905,0.0014826073147321,-0.92403766182743,0.3822819578625088,0.0,0.0,0.0,0.0,0.0,0.0,0.0,0.0,0.0,0.0001743105337638,3.1233078642992974e-05,0.000337981521294,0.0,0.0,0.0,0.0,0.0,0.0,0.0,0.0,0.0,-2.7057357418866385e-08,-2.3986442624606733e-08,-1.1422063077074158e-08,0.0,0.0,0.0,0.0,0.0,0.0,0.0,0.0,0.0
1.055,-2.3570465698684266,5.752757018173301e-07,-4.3375011784521286e-07,1.0838375151145383e-05,-2.3560496249402885,6.7440496780720615e-06,-4.76807238189597e-06,-4.7694540380744594e-06,0.00020587291477747725,-5.231295551199864e-05,0.00045064022994614896,-1.5877421176542782e-07,-1.588254172281314e-07,6.855568062089993e-06,25.0,1.0,26000000.0,odom,base_footprint,2.1619064687771264e-05,-8.113658575399207e-06,-0.0010023862030342,0.0035645592344727,0.0014826109286612,-0.9240372962458452,0.3822828415309354,"(1e-05, 0.0, 0.0, 0.0, 0.0, 0.0, 0.0, 1e-05, 0.0, 0.0, 0.0, 0.0, 0.0, 0.0, 1000000000000.0, 0.0, 0.0, 0.0, 0.0, 0.0, 0.0, 1000000000000.0, 0.0, 0.0, 0.0, 0.0, 0.0, 0.0, 1000000000000.0, 0.0, 0.0, 0.0, 0.0, 0.0, 0.0, 0.001)",-2.822241050715251e-06,2.222727281904036e-05,0.0,0.0,0.0,0.0003368527554963,"(0.0, 0.0, 0.0, 0.0, 0.0, 0.0, 0.0, 0.0, 0.0, 0.0, 0.0, 0.0, 0.0, 0.0, 0.0, 0.0, 0.0, 0.0, 0.0, 0.0, 0.0, 0.0, 0.0, 0.0, 0.0, 0.0, 0.0, 0.0, 0.0, 0.0, 0.0, 0.0, 0.0, 0.0, 0.0, 0.0)",,,,,,,24,1,55000000,base_footprint,0.0035645524991479,0.0014826277501947,-0.9240355901535708,0.3822869653937701,0.0,0.0,0.0,0.0,0.0,0.0,0.0,0.0,0.0,0.0001743119967975,3.124734341604244e-05,0.0003379969106686,0.0,0.0,0.0,0.0,0.0,0.0,0.0,0.0,0.0,-2.704405613197748e-08,-2.3972879221360037e-08,-1.1598036801336333e-08,0.0,0.0,0.0,0.0,0.0,0.0,0.0,0.0,0.0
1.089,-2.3570357310642094,5.753073379472472e-07,-4.337557782088837e-07,1.0838804217261357e-05,-2.3560427693722263,5.495408193743264e-06,-3.885250791569544e-06,-3.886429917349448e-06,0.00022315392577685838,-3.749674127113505e-05,0.0005189492792606946,-1.293766966689801e-07,-1.2942027025112195e-07,7.431025728369385e-06,26.0,1.0,59000000.0,odom,base_footprint,2.2177425484068945e-05,-8.534652226046754e-06,-0.001002386262541,0.0035645512994757,0.0014826307467835,-0.9240352854864576,0.3822877018111661,"(1e-05, 0.0, 0.0, 0.0, 0.0, 0.0, 0.0, 1e-05, 0.0, 0.0, 0.0, 0.0, 0.0, 0.0, 1000000000000.0, 0.0, 0.0, 0.0, 0.0, 0.0, 0.0, 1000000000000.0, 0.0, 0.0, 0.0, 0.0, 0.0, 0.0, 1000000000000.0, 0.0, 0.0, 0.0, 0.0, 0.0, 0.0, 0.001)",-2.822802506597985e-06,2.222819627753652e-05,0.0,0.0,0.0,0.0003368676172192,"(0.0, 0.0, 0.0, 0.0, 0.0, 0.0, 0.0, 0.0, 0.0, 0.0, 0.0, 0.0, 0.0, 0.0, 0.0, 0.0, 0.0, 0.0, 0.0, 0.0, 0.0, 0.0, 0.0, 0.0, 0.0, 0.0, 0.0, 0.0, 0.0, 0.0, 0.0, 0.0, 0.0, 0.0, 0.0, 0.0)",,,,,,,25,1,89000000,base_footprint,0.003564544358626,0.0014826480861461,-0.9240335183707185,0.3822919731116508,0.0,0.0,0.0,0.0,0.0,0.0,0.0,0.0,0.0,0.0001743134607745,3.1260980030336515e-05,0.0003380122996162,0.0,0.0,0.0,0.0,0.0,0.0,0.0,0.0,0.0,-2.7032180740744273e-08,-2.396076903736816e-08,-1.1757651735571564e-08,0.0,0.0,0.0,0.0,0.0,0.0,0.0,0.0,0.0
1.123,-2.3570248918310033,5.753389607648895e-07,-4.3376143176680065e-07,1.0839233206105803e-05,-2.356035338346498,4.591308673441446e-06,-3.246028762688305e-06,-3.247062150101054e-06,0.0002448211428171171,-2.7150135744799352e-05,0.0006506671783861483,-1.0809091857162514e-07,-1.0812900820839107e-07,8.15254405581e-06,27.0,1.0,93000000.0,odom,base_footprint,2.275273747323137e-05,-8.968408836072458e-06,-0.0010023863218551,0.003564543164792,0.0014826510689074,-0.9240332136875768,0.3822927095564909,"(1e-05, 0.0, 0.0, 0.0, 0.0, 0.0, 0.0, 1e-05, 0.0, 0.0, 0.0, 0.0, 0.0, 0.0, 1000000000000.0, 0.0, 0.0, 0.0, 0.0, 0.0, 0.0, 1000000000000.0, 0.0, 0.0, 0.0, 0.0, 0.0, 0.0, 1000000000000.0, 0.0, 0.0, 0.0, 0.0, 0.0, 0.0, 0.001)",-2.8233828402343134e-06,2.222914611984808e-05,0.0,0.0,0.0,0.0003368829322334,"(0.0, 0.0, 0.0, 0.0, 0.0, 0.0, 0.0, 0.0, 0.0, 0.0, 0.0, 0.0, 0.0, 0.0, 0.0, 0.0, 0.0, 0.0, 0.0, 0.0, 0.0, 0.0, 0.0, 0.0, 0.0, 0.0, 0.0, 0.0, 0.0, 0.0, 0.0, 0.0, 0.0, 0.0, 0.0, 0.0)",,,,,,,26,1,123000000,base_footprint,0.0035645362561865,0.0014826683318926,-0.92403144647887,0.3822969810161502,0.0,0.0,0.0,0.0,0.0,0.0,0.0,0.0,0.0,0.0001743149255098,3.1274046701717545e-05,0.0003380276882269,0.0,0.0,0.0,0.0,0.0,0.0,0.0,0.0,0.0,-2.7021456956460006e-08,-2.3949961115133966e-08,-1.1902668860000917e-08,0.0,0.0,0.0,0.0,0.0,0.0,0.0,0.0,0.0
1.157,-2.3570140521688767,5.753705715973375e-07,-4.337670790801468e-07,1.0839662126560514e-05,-2.356027185802442,3.622692977378385e-06,-2.5612021625389363e-06,-2.5620593066813554e-06,0.0002493327159670045,-2.9087558440332142e-05,0.00013548267717379493,-8.528657438148848e-08,-8.531803202995849e-08,8.30277944170125e-06,28.0,1.0,126000000.0,odom,base_footprint,2.3311158761253527e-05,-9.389413304471649e-06,-0.0010023863776642,0.0035645353052927,0.0014826707082149,-0.924031202719722,0.3822975701936544,"(1e-05, 0.0, 0.0, 0.0, 0.0, 0.0, 0.0, 1e-05, 0.0, 0.0, 0.0, 0.0, 0.0, 0.0, 1000000000000.0, 0.0, 0.0, 0.0, 0.0, 0.0, 0.0, 1000000000000.0, 0.0, 0.0, 0.0, 0.0, 0.0, 0.0, 1000000000000.0, 0.0, 0.0, 0.0, 0.0, 0.0, 0.0, 0.001)",-2.823942503142746e-06,2.223006813936284e-05,0.0,0.0,0.0,0.0003368977993503,"(0.0, 0.0, 0.0, 0.0, 0.0, 0.0, 0.0, 0.0, 0.0, 0.0, 0.0, 0.0, 0.0, 0.0, 0.0, 0.0, 0.0, 0.0, 0.0, 0.0, 0.0, 0.0, 0.0, 0.0, 0.0, 0.0, 0.0, 0.0, 0.0, 0.0, 0.0, 0.0, 0.0, 0.0, 0.0, 0.0)",0.0,0.0,0.0,0.0,0.0,0.0,27,1,157000000,base_footprint,0.0035645281882563,0.0014826884958768,-0.9240293744780228,0.3823019891072677,0.0,0.0,0.0,0.0,0.0,0.0,0.0,0.0,0.0,0.0001743163910541,3.1286596325821234e-05,0.0003380430766279,0.0,0.0,0.0,0.0,0.0,0.0,0.0,0.0,0.0,-2.701186838660028e-08,-2.39403369421399e-08,-1.203413233615409e-08,0.0,0.0,0.0,0.0,0.0,0.0,0.0,0.0,0.0
1.191,-2.35700321207789,5.754021717967878e-07,-4.3377272076865203e-07,1.0840090986619089e-05,-2.356018883023,2.9712286649188946e-06,-2.1006069585898474e-06,-2.1013448514605185e-06,0.00025859582573569805,-1.9563492866651367e-05,0.0002781714645253321,-6.994900541422057e-08,-6.997598941960165e-08,8.611240996998746e-06,29.0,1.0,159000000.0,odom,base_footprint,2.3869609826754346e-05,-9.810423092224303e-06,-0.0010023864318973,0.0035645274779262,0.0014826902713881,-0.9240291916491854,0.3823024310066201,"(1e-05, 0.0, 0.0, 0.0, 0.0, 0.0, 0.0, 1e-05, 0.0, 0.0, 0.0, 0.0, 0.0, 0.0, 1000000000000.0, 0.0, 0.0, 0.0, 0.0, 0.0, 0.0, 1000000000000.0, 0.0, 0.0, 0.0, 0.0, 0.0, 0.0, 1000000000000.0, 0.0, 0.0, 0.0, 0.0, 0.0, 0.0, 0.001)",-2.8244981081967625e-06,2.2230990379476287e-05,0.0,0.0,0.0,0.0003369126689262,"(0.0, 0.0, 0.0, 0.0, 0.0, 0.0, 0.0, 0.0, 0.0, 0.0, 0.0, 0.0, 0.0, 0.0, 0.0, 0.0, 0.0, 0.0, 0.0, 0.0, 0.0, 0.0, 0.0, 0.0, 0.0, 0.0, 0.0, 0.0, 0.0, 0.0, 0.0, 0.0, 0.0, 0.0, 0.0, 0.0)",0.0,0.0,0.0,0.0,0.0,0.0,28,1,191000000,base_footprint,0.0035645201515943,0.0014827085857574,-0.924027302368172,0.3823069973850038,0.0,0.0,0.0,0.0,0.0,0.0,0.0,0.0,0.0,0.0001743178572591,3.129867710644007e-05,0.0003380584648564,0.0,0.0,0.0,0.0,0.0,0.0,0.0,0.0,0.0,-2.7003162113321152e-08,-2.3931762100100692e-08,-1.2153702113029278e-08,0.0,0.0,0.0,0.0,0.0,0.0,0.0,0.0,0.0
1.225,-2.356992371558096,5.754337624522232e-07,-4.337783573067633e-07,1.0840519794275139e-05,-2.3560102717820035,2.52227294827478e-06,-1.7831877189286006e-06,-1.7838448320022025e-06,0.0002742049173348534,-1.348215365297641e-05,0.00046874148946412375,-5.9379111559005625e-08,-5.9403071986672005e-08,9.131023747250619e-06,29.0,1.0,159000000.0,odom,base_footprint,2.3869609826754346e-05,-9.810423092224303e-06,-0.0010023864318973,0.0035645274779262,0.0014826902713881,-0.9240291916491854,0.3823024310066201,"(1e-05, 0.0, 0.0, 0.0, 0.0, 0.0, 0.0, 1e-05, 0.0, 0.0, 0.0, 0.0, 0.0, 0.0, 1000000000000.0, 0.0, 0.0, 0.0, 0.0, 0.0, 0.0, 1000000000000.0, 0.0, 0.0, 0.0, 0.0, 0.0, 0.0, 1000000000000.0, 0.0, 0.0, 0.0, 0.0, 0.0, 0.0, 0.001)",-2.8244981081967625e-06,2.2230990379476287e-05,0.0,0.0,0.0,0.0003369126689262,"(0.0, 0.0, 0.0, 0.0, 0.0, 0.0, 0.0, 0.0, 0.0, 0.0, 0.0, 0.0, 0.0, 0.0, 0.0, 0.0, 0.0, 0.0, 0.0, 0.0, 0.0, 0.0, 0.0, 0.0, 0.0, 0.0, 0.0, 0.0, 0.0, 0.0, 0.0, 0.0, 0.0, 0.0, 0.0, 0.0)",0.0,0.0,0.0,0.0,0.0,0.0,29,1,225000000,base_footprint,0.00356451214326,0.001482728608482,-0.9240252301493144,0.3823120058493597,0.0,0.0,0.0,0.0,0.0,0.0,0.0,0.0,0.0,0.0001743193240931,3.131033253150628e-05,0.0003380738530291,0.0,0.0,0.0,0.0,0.0,0.0,0.0,0.0,0.0,-2.6995413793492386e-08,-2.3924166185890376e-08,-1.2262066414349812e-08,0.0,0.0,0.0,0.0,0.0,0.0,0.0,0.0,0.0
1.259,-2.3569815306095405,5.754653446192331e-07,-4.337839891598201e-07,1.0840948555301821e-05,-2.3559920760069994,1.7083126099639704e-06,-1.2077148980235921e-06,-1.2082039142685217e-06,0.0002770644152275902,-9.766169160511639e-06,0.00014563551870451095,-4.021620014444175e-08,-4.023389600703546e-08,9.226245027078755e-06,31.0,1.0,226000000.0,odom,base_footprint,2.500352628056124e-05,-1.0665216882949514e-05,-0.0010023865377335,0.0035645116730054,0.0014827297843357,-0.9240251082506926,0.3823123004707217,"(1e-05, 0.0, 0.0, 0.0, 0.0, 0.0, 0.0, 1e-05, 0.0, 0.0, 0.0, 0.0, 0.0, 0.0, 1000000000000.0, 0.0, 0.0, 0.0, 0.0, 0.0, 0.0, 1000000000000.0, 0.0, 0.0, 0.0, 0.0, 0.0, 0.0, 1000000000000.0, 0.0, 0.0, 0.0, 0.0, 0.0, 0.0, 0.001)",-2.825637341057667e-06,2.2232861562841245e-05,0.0,0.0,0.0,0.0003369428653771,"(0.0, 0.0, 0.0, 0.0, 0.0, 0.0, 0.0, 0.0, 0.0, 0.0, 0.0, 0.0, 0.0, 0.0, 0.0, 0.0, 0.0, 0.0, 0.0, 0.0, 0.0, 0.0, 0.0, 0.0, 0.0, 0.0, 0.0, 0.0, 0.0, 0.0, 0.0, 0.0, 0.0, 0.0, 0.0, 0.0)",0.2084210515022277,2.2232861738302745e-05,0.0,0.0,0.0,0.0413625836372375,30,1,259000000,base_footprint,0.003564504160586,0.0014827485703531,-0.9240231578214452,0.3823170145003371,0.0,0.0,0.0,0.0,0.0,0.0,0.0,0.0,0.0,0.0001743207914645,3.132160212231793e-05,0.0003380892412208,0.0,0.0,0.0,0.0,0.0,0.0,0.0,0.0,0.0,-2.698847504311016e-08,-2.39174405295193e-08,-1.2360567905155504e-08,0.0,0.0,0.0,0.0,0.0,0.0,0.0,0.0,0.0
1.2930000000000001,-2.3572585956691814,-0.00029424414998052446,-0.00029545077965387927,-0.0002770650596408686,-2.3559828497619724,0.03404598357702111,-0.02406905025776433,-0.02407924038286936,-0.0003788059583965938,1.0223506085408753,-0.01969580701574126,-0.0008014940603344113,-0.000801844015715822,-1.2614238414606576e-05,31.0,1.0,226000000.0,odom,base_footprint,2.500352628056124e-05,-1.0665216882949514e-05,-0.0010023865377335,0.0035645116730054,0.0014827297843357,-0.9240251082506926,0.3823123004707217,"(1e-05, 0.0, 0.0, 0.0, 0.0, 0.0, 0.0, 1e-05, 0.0, 0.0, 0.0, 0.0, 0.0, 0.0, 1000000000000.0, 0.0, 0.0, 0.0, 0.0, 0.0, 0.0, 1000000000000.0, 0.0, 0.0, 0.0, 0.0, 0.0, 0.0, 1000000000000.0, 0.0, 0.0, 0.0, 0.0, 0.0, 0.0, 0.001)",-2.825637341057667e-06,2.2232861562841245e-05,0.0,0.0,0.0,0.0003369428653771,"(0.0, 0.0, 0.0, 0.0, 0.0, 0.0, 0.0, 0.0, 0.0, 0.0, 0.0, 0.0, 0.0, 0.0, 0.0, 0.0, 0.0, 0.0, 0.0, 0.0, 0.0, 0.0, 0.0, 0.0, 0.0, 0.0, 0.0, 0.0, 0.0, 0.0, 0.0, 0.0, 0.0, 0.0, 0.0, 0.0)",0.2084210515022277,2.2232861738302745e-05,0.0,0.0,0.0,0.0413625836372375,31,1,293000000,base_footprint,0.0035602388903065,0.0014808648688251,-0.924076128306154,0.3821890119207938,0.0,0.0,0.0,0.0,0.0,0.0,0.0,0.0,0.0,0.0001943173138673,0.0001317081892025,-0.0164442156582321,0.0,0.0,0.0,0.0,0.0,0.0,0.0,0.0,0.0,0.0013426542070543,0.7253486890333395,0.0038708598925222,0.0,0.0,0.0,0.0,0.0,0.0,0.0,0.0,0.0
1.327,-2.3581255711072395,-0.0009069638539952001,-0.0009055919834064,-0.0008669754380581374,-2.355995464000387,0.06672397294194628,-0.04717158255103178,-0.047190363049978465,4.3558200826023575e-05,0.9813210019497045,0.012683608385063584,-0.0015707922349755912,-0.0015714605446119623,1.4504880875065852e-06,33.0,1.0,293000000.0,odom,base_footprint,-0.0002866602050216,-0.0003244833757434,-0.0010021329920044,0.0035602855821034,0.001480850237289,-0.924079365713164,0.3821811838805062,"(1e-05, 0.0, 0.0, 0.0, 0.0, 0.0, 0.0, 1e-05, 0.0, 0.0, 0.0, 0.0, 0.0, 0.0, 1000000000000.0, 0.0, 0.0, 0.0, 0.0, 0.0, 0.0, 1000000000000.0, 0.0, 0.0, 0.0, 0.0, 0.0, 0.0, 1000000000000.0, 0.0, 0.0, 0.0, 0.0, 0.0, 0.0, 0.001)",0.0254128544950118,2.9429789884610064e-05,0.0,0.0,0.0,-0.0169436687569113,"(0.0, 0.0, 0.0, 0.0, 0.0, 0.0, 0.0, 0.0, 0.0, 0.0, 0.0, 0.0, 0.0, 0.0, 0.0, 0.0, 0.0, 0.0, 0.0, 0.0, 0.0, 0.0, 0.0, 0.0, 0.0, 0.0, 0.0, 0.0, 0.0, 0.0, 0.0, 0.0, 0.0, 0.0, 0.0, 0.0)",0.2084210515022277,2.2232861738302745e-05,0.0,0.0,0.0,0.0413625836372375,32,1,327000000,base_footprint,0.0035613555339361,0.0014795769974168,-0.9242417137262768,0.3817883997805393,0.0,0.0,0.0,0.0,0.0,0.0,0.0,0.0,0.0,0.0003120154728945,0.0002246997689738,-0.0337774731561087,0.0,0.0,0.0,0.0,0.0,0.0,0.0,0.0,0.0,0.0033554838722099,0.7494367149974598,0.0041185686829455,0.0,0.0,0.0,0.0,0.0,0.0,0.0,0.0,0.0
1.361,-2.3595828991227,-0.0015220146535083001,-0.0015153624070981002,-0.0014573280154603905,-2.355994013512299,0.10008737259851713,-0.07075827022565223,-0.0707866466810512,4.356292262212115e-05,1.0019038935907163,1.4179567860592664e-07,-0.0023562182018674878,-0.00235722751783878,1.4506453233166346e-06,35.0,1.0,359000000.0,odom,base_footprint,-0.0026440232388441,-0.0026741486798592,-0.0010023040539684,0.0035630994984045,0.0014774413288746,-0.924509900418522,0.3811385122461634,"(1e-05, 0.0, 0.0, 0.0, 0.0, 0.0, 0.0, 1e-05, 0.0, 0.0, 0.0, 0.0, 0.0, 0.0, 1000000000000.0, 0.0, 0.0, 0.0, 0.0, 0.0, 0.0, 1000000000000.0, 0.0, 0.0, 0.0, 0.0, 0.0, 0.0, 1000000000000.0, 0.0, 0.0, 0.0, 0.0, 0.0, 0.0, 0.001)",0.0748247805542434,3.727085397964292e-05,0.0,0.0,0.0,-0.0506295211719946,"(0.0, 0.0, 0.0, 0.0, 0.0, 0.0, 0.0, 0.0, 0.0, 0.0, 0.0, 0.0, 0.0, 0.0, 0.0, 0.0, 0.0, 0.0, 0.0, 0.0, 0.0, 0.0, 0.0, 0.0, 0.0, 0.0, 0.0, 0.0, 0.0, 0.0, 0.0, 0.0, 0.0, 0.0, 0.0, 0.0)",0.2084210515022277,3.404388917260803e-05,0.0,0.0,0.0,0.0564770139753818,33,1,361000000,base_footprint,0.0035613035411169,0.0014766373796349,-0.9245196678306132,0.3811148389311412,0.0,0.0,0.0,0.0,0.0,0.0,0.0,0.0,0.0,0.0043988997121845,0.0002159087787405,-0.0511967700434984,0.0,0.0,0.0,0.0,0.0,0.0,0.0,0.0,0.0,0.0073146124167885,0.7505802168549551,0.006995864336145,0.0,0.0,0.0,0.0,0.0,0.0,0.0,0.0,0.0
1.395,-2.361628314930939,-0.0021345273546906,-0.0021172074283745995,-0.0020454158082392477,-2.355992562866976,0.13715414009524673,-0.09696303711050122,-0.09700220399338426,4.4506758382349125e-05,1.1131161410429309,2.834341622306223e-05,-0.003228824965030667,-0.003230217546016408,1.482075054132226e-06,35.0,1.0,359000000.0,odom,base_footprint,-0.0026440232388441,-0.0026741486798592,-0.0010023040539684,0.0035630994984045,0.0014774413288746,-0.924509900418522,0.3811385122461634,"(1e-05, 0.0, 0.0, 0.0, 0.0, 0.0, 0.0, 1e-05, 0.0, 0.0, 0.0, 0.0, 0.0, 0.0, 1000000000000.0, 0.0, 0.0, 0.0, 0.0, 0.0, 0.0, 1000000000000.0, 0.0, 0.0, 0.0, 0.0, 0.0, 0.0, 1000000000000.0, 0.0, 0.0, 0.0, 0.0, 0.0, 0.0, 0.001)",0.0748247805542434,3.727085397964292e-05,0.0,0.0,0.0,-0.0506295211719946,"(0.0, 0.0, 0.0, 0.0, 0.0, 0.0, 0.0, 0.0, 0.0, 0.0, 0.0, 0.0, 0.0, 0.0, 0.0, 0.0, 0.0, 0.0, 0.0, 0.0, 0.0, 0.0, 0.0, 0.0, 0.0, 0.0, 0.0, 0.0, 0.0, 0.0, 0.0, 0.0, 0.0, 0.0, 0.0, 0.0)",0.2084210515022277,3.404388917260803e-05,0.0,0.0,0.0,0.0564770139753818,34,1,395000000,base_footprint,0.0035638542421116,0.0014735191776133,-0.9249089491441216,0.3801691248343175,0.0,0.0,0.0,0.0,0.0,0.0,0.0,0.0,0.0,0.0045751108639536,0.0002870258755727,-0.0683900923614202,0.0,0.0,0.0,0.0,0.0,0.0,0.0,0.0,0.0,0.0125007175059306,0.7357035239455093,0.0041297569843566,0.0,0.0,0.0,0.0,0.0,0.0,0.0,0.0,0.0
1.429,-2.3642512725774645,-0.0027323659530139,-0.0026969939000461,-0.0026229576465253146,-2.355991080791922,0.16681359231391682,-0.11793102671884018,-0.11797901303924294,4.180759519844064e-05,0.8906742408009034,-8.105595146872331e-05,-0.003927049642838868,-0.003928754658197651,1.3921929201080735e-06,36.0,1.0,393000000.0,odom,base_footprint,-0.0047606567111785,-0.0047738716243055,-0.0010024551391891,0.0035656764231389,0.0014743652446021,-0.9248959371973452,0.3802007595397669,"(1e-05, 0.0, 0.0, 0.0, 0.0, 0.0, 0.0, 1e-05, 0.0, 0.0, 0.0, 0.0, 0.0, 0.0, 1000000000000.0, 0.0, 0.0, 0.0, 0.0, 0.0, 0.0, 1000000000000.0, 0.0, 0.0, 0.0, 0.0, 0.0, 0.0, 1000000000000.0, 0.0, 0.0, 0.0, 0.0, 0.0, 0.0, 0.001)",0.0998603661752119,3.9424141084085096e-05,0.0,0.0,0.0,-0.067831077373335,"(0.0, 0.0, 0.0, 0.0, 0.0, 0.0, 0.0, 0.0, 0.0, 0.0, 0.0, 0.0, 0.0, 0.0, 0.0, 0.0, 0.0, 0.0, 0.0, 0.0, 0.0, 0.0, 0.0, 0.0, 0.0, 0.0, 0.0, 0.0, 0.0, 0.0, 0.0, 0.0, 0.0, 0.0, 0.0, 0.0)",0.2084210515022277,3.404388917260803e-05,0.0,0.0,0.0,0.0564770139753818,35,1,429000000,base_footprint,0.0035663734288286,0.0014692021223901,-0.9254067347538928,0.3789557991347118,0.0,0.0,0.0,0.0,0.0,0.0,0.0,0.0,0.0,0.0025562766396662,0.0004270990611577,-0.0852187337855861,0.0,0.0,0.0,0.0,0.0,0.0,0.0,0.0,0.0,0.0193373707653404,0.697982475581532,0.0038173019421195,0.0,0.0,0.0,0.0,0.0,0.0,0.0,0.0,0.0
1.463,-2.367425046882952,-0.0032923082128706004,-0.003230208952591,-0.0031737743054875978,-2.355989688599002,0.20017664890687473,-0.14151727400818254,-0.14157525180934405,3.865724545275921e-05,1.0018935913801172,-9.46050974679107e-05,-0.004712461215626738,-0.004714519867305972,1.287286273576882e-06,36.0,1.0,393000000.0,odom,base_footprint,-0.0047606567111785,-0.0047738716243055,-0.0010024551391891,0.0035656764231389,0.0014743652446021,-0.9248959371973452,0.3802007595397669,"(1e-05, 0.0, 0.0, 0.0, 0.0, 0.0, 0.0, 1e-05, 0.0, 0.0, 0.0, 0.0, 0.0, 0.0, 1000000000000.0, 0.0, 0.0, 0.0, 0.0, 0.0, 0.0, 1000000000000.0, 0.0, 0.0, 0.0, 0.0, 0.0, 0.0, 1000000000000.0, 0.0, 0.0, 0.0, 0.0, 0.0, 0.0, 0.001)",0.0998603661752119,3.9424141084085096e-05,0.0,0.0,0.0,-0.067831077373335,"(0.0, 0.0, 0.0, 0.0, 0.0, 0.0, 0.0, 0.0, 0.0, 0.0, 0.0, 0.0, 0.0, 0.0, 0.0, 0.0, 0.0, 0.0, 0.0, 0.0, 0.0, 0.0, 0.0, 0.0, 0.0, 0.0, 0.0, 0.0, 0.0, 0.0, 0.0, 0.0, 0.0, 0.0, 0.0, 0.0)",0.2199999988079071,3.720856329891831e-05,0.0,0.0,0.0,0.0,36,1,463000000,base_footprint,0.0035719362954945,0.0014648855445972,-0.926006916839189,0.3774868015539372,0.0,0.0,0.0,0.0,0.0,0.0,0.0,0.0,0.0,0.0007544078616292,0.0006057889566856,-0.1008051323914539,0.0,0.0,0.0,0.0,0.0,0.0,0.0,0.0,0.0,0.0259467934000504,0.6295414619191035,0.0012144489018538,0.0,0.0,0.0,0.0,0.0,0.0,0.0,0.0,0.0
1.497,-2.3710955415331885,-0.0037814128968502985,-0.0036841981493911,-0.003670494650236389,-2.3559884013127284,0.22462405866546298,-0.15880045797196993,-0.15886592548195466,-4.5893057789324925e-06,0.7341564492068543,-0.001298695232182934,-0.005287987232199734,-0.005290303310990509,-1.52823882438452e-07,38.0,1.0,459000000.0,odom,base_footprint,-0.0105452940291123,-0.0104671016782255,-0.001002881017776,0.0035730984088698,0.0014659557458294,-0.9259500975970044,0.3776261387955155,"(1e-05, 0.0, 0.0, 0.0, 0.0, 0.0, 0.0, 1e-05, 0.0, 0.0, 0.0, 0.0, 0.0, 0.0, 1000000000000.0, 0.0, 0.0, 0.0, 0.0, 0.0, 0.0, 1000000000000.0, 0.0, 0.0, 0.0, 0.0, 0.0, 0.0, 1000000000000.0, 0.0, 0.0, 0.0, 0.0, 0.0, 0.0, 0.001)",0.1441230340985838,2.828501145615836e-05,0.0,0.0,0.0,-0.0993529551863473,"(0.0, 0.0, 0.0, 0.0, 0.0, 0.0, 0.0, 0.0, 0.0, 0.0, 0.0, 0.0, 0.0, 0.0, 0.0, 0.0, 0.0, 0.0, 0.0, 0.0, 0.0, 0.0, 0.0, 0.0, 0.0, 0.0, 0.0, 0.0, 0.0, 0.0, 0.0, 0.0, 0.0, 0.0, 0.0, 0.0)",0.2199999988079071,3.720856329891831e-05,0.0,0.0,0.0,0.0,37,1,497000000,base_footprint,0.0035784551505278,0.0014598391257776,-0.9266981239241768,0.375786708977145,0.0,0.0,0.0,0.0,0.0,0.0,0.0,0.0,0.0,0.0007093970754852,0.0006649148019369,-0.1143514247580589,0.0,0.0,0.0,0.0,0.0,0.0,0.0,0.0,0.0,0.0310772965599761,0.5174009621376859,0.0023694099367779,0.0,0.0,0.0,0.0,0.0,0.0,0.0,0.0,0.0
1.5310000000000001,-2.375187988686883,-0.0041614336097738,-0.0040227199150040995,-0.004092447153694501,-2.355988554136611,0.21801460615112403,-0.15412785611717342,-0.15419135015931865,2.4656755627416767e-05,-0.19848205748765607,0.0008782601022927705,-0.005132389091257409,-0.005134640446630551,8.210699623929784e-07,40.0,1.0,526000000.0,odom,base_footprint,-0.0182947928479953,-0.0179925057220314,-0.0010033680113452,0.0035830903682544,0.00145407604391,-0.927371473628354,0.3741219012924081,"(1e-05, 0.0, 0.0, 0.0, 0.0, 0.0, 0.0, 1e-05, 0.0, 0.0, 0.0, 0.0, 0.0, 0.0, 1000000000000.0, 0.0, 0.0, 0.0, 0.0, 0.0, 0.0, 1000000000000.0, 0.0, 0.0, 0.0, 0.0, 0.0, 0.0, 1000000000000.0, 0.0, 0.0, 0.0, 0.0, 0.0, 0.0, 0.001)",0.1745611450057276,8.09361910950046e-06,0.0,0.0,0.0,-0.1244396250313399,"(0.0, 0.0, 0.0, 0.0, 0.0, 0.0, 0.0, 0.0, 0.0, 0.0, 0.0, 0.0, 0.0, 0.0, 0.0, 0.0, 0.0, 0.0, 0.0, 0.0, 0.0, 0.0, 0.0, 0.0, 0.0, 0.0, 0.0, 0.0, 0.0, 0.0, 0.0, 0.0, 0.0, 0.0, 0.0, 0.0)",0.2199999988079071,3.720856329891831e-05,0.0,0.0,0.0,0.0,38,1,531000000,base_footprint,0.0035837232871544,0.0014532559852333,-0.927465118585505,0.3738896879851298,0.0,0.0,0.0,0.0,0.0,0.0,0.0,0.0,0.0,0.0007705980380398,0.0007315418827022,-0.1256373309930104,0.0,0.0,0.0,0.0,0.0,0.0,0.0,0.0,0.0,0.0337385846042033,0.358781352338711,0.0021324850813404,0.0,0.0,0.0,0.0,0.0,0.0,0.0,0.0,0.0
1.565,-2.379623946327274,-0.004402026514515,-0.004213840280569502,-0.004435957640390953,-2.355987733066648,0.21801488977924174,-0.15412793002913017,-0.1541916773058471,1.2610166063630801e-05,8.517360892321876e-06,-0.0003617594463599389,-0.005132392582751581,-0.005134650308337103,4.1991852991890573e-07,40.0,1.0,526000000.0,odom,base_footprint,-0.0182947928479953,-0.0179925057220314,-0.0010033680113452,0.0035830903682544,0.00145407604391,-0.927371473628354,0.3741219012924081,"(1e-05, 0.0, 0.0, 0.0, 0.0, 0.0, 0.0, 1e-05, 0.0, 0.0, 0.0, 0.0, 0.0, 0.0, 1000000000000.0, 0.0, 0.0, 0.0, 0.0, 0.0, 0.0, 1000000000000.0, 0.0, 0.0, 0.0, 0.0, 0.0, 0.0, 1000000000000.0, 0.0, 0.0, 0.0, 0.0, 0.0, 0.0, 0.001)",0.1745611450057276,8.09361910950046e-06,0.0,0.0,0.0,-0.1244396250313399,"(0.0, 0.0, 0.0, 0.0, 0.0, 0.0, 0.0, 0.0, 0.0, 0.0, 0.0, 0.0, 0.0, 0.0, 0.0, 0.0, 0.0, 0.0, 0.0, 0.0, 0.0, 0.0, 0.0, 0.0, 0.0, 0.0, 0.0, 0.0, 0.0, 0.0, 0.0, 0.0, 0.0, 0.0, 0.0, 0.0)",0.2199999988079071,1.732763666950632e-05,0.0,0.0,0.0,-0.0065807998180389,39,1,565000000,base_footprint,0.0035868125932088,0.0014444583843726,-0.9282921186291038,0.3718316699885677,0.0,0.0,0.0,0.0,0.0,0.0,0.0,0.0,0.0,0.0011066862208332,0.000819548049584,-0.1345963209404361,0.0,0.0,0.0,0.0,0.0,0.0,0.0,0.0,0.0,0.0370197204966273,0.1689745862139527,0.001677104689138,0.0,0.0,0.0,0.0,0.0,0.0,0.0,0.0,0.0
1.5990000000000002,-2.3843063460826652,-0.004479103965426803,-0.004243273664407098,-0.004682399755391308,-2.3559873131481184,0.2246184209757556,-0.15879629947696194,-0.15886211100846162,-0.006711310633101033,0.19830424013555123,-0.20191954351845834,-0.005288439450825572,-0.005289585761239625,-0.00022348664408226442,41.0,1.0,559000000.0,odom,base_footprint,-0.0225453670756953,-0.0220673142359778,-0.0010032885204086,0.0035865634340544,0.0014459385058769,-0.9281673675687498,0.3721429612461695,"(1e-05, 0.0, 0.0, 0.0, 0.0, 0.0, 0.0, 1e-05, 0.0, 0.0, 0.0, 0.0, 0.0, 0.0, 1000000000000.0, 0.0, 0.0, 0.0, 0.0, 0.0, 0.0, 1000000000000.0, 0.0, 0.0, 0.0, 0.0, 0.0, 0.0, 1000000000000.0, 0.0, 0.0, 0.0, 0.0, 0.0, 0.0, 0.001)",0.181064099176796,-0.0001665192902206,0.0,0.0,0.0,-0.133445067651343,"(0.0, 0.0, 0.0, 0.0, 0.0, 0.0, 0.0, 0.0, 0.0, 0.0, 0.0, 0.0, 0.0, 0.0, 0.0, 0.0, 0.0, 0.0, 0.0, 0.0, 0.0, 0.0, 0.0, 0.0, 0.0, 0.0, 0.0, 0.0, 0.0, 0.0, 0.0, 0.0, 0.0, 0.0, 0.0, 0.0)",0.2199999988079071,1.732763666950632e-05,0.0,0.0,0.0,-0.0065807998180389,40,1,599000000,base_footprint,0.0035757072834996,0.0014361930956098,-0.9291601462582066,0.3696573741618623,0.0,0.0,0.0,0.0,0.0,0.0,0.0,0.0,0.0,0.0056540334825457,-0.0007666007011208,-0.1390842659358427,0.0,0.0,0.0,0.0,0.0,0.0,0.0,0.0,0.0,0.0119641003339135,-0.0182330816133215,0.0091314398444097,0.0,0.0,0.0,0.0,0.0,0.0,0.0,0.0,0.0
1.633,-2.389163099983323,-0.0044807858767178,-0.0042325458991514,-0.004856753900657651,-2.3562107997922004,0.21800930956311465,-0.15415837535378332,-0.15415334691296198,-0.006413015872512547,-0.1984718141934219,0.008957800618272865,-0.005133955593279982,-0.00513282467776483,-0.00021355342855466783,42.0,1.0,593000000.0,odom,base_footprint,-0.0270241899954126,-0.0263144730892627,-0.0010021384521978,0.0035817522959621,0.0014347393555395,-0.9290316207981438,0.3699802158638297,"(1e-05, 0.0, 0.0, 0.0, 0.0, 0.0, 0.0, 1e-05, 0.0, 0.0, 0.0, 0.0, 0.0, 0.0, 1000000000000.0, 0.0, 0.0, 0.0, 0.0, 0.0, 0.0, 1000000000000.0, 0.0, 0.0, 0.0, 0.0, 0.0, 0.0, 1000000000000.0, 0.0, 0.0, 0.0, 0.0, 0.0, 0.0, 0.001)",0.180904246180785,6.757500530404914e-06,0.0,0.0,0.0,-0.139396218396799,"(0.0, 0.0, 0.0, 0.0, 0.0, 0.0, 0.0, 0.0, 0.0, 0.0, 0.0, 0.0, 0.0, 0.0, 0.0, 0.0, 0.0, 0.0, 0.0, 0.0, 0.0, 0.0, 0.0, 0.0, 0.0, 0.0, 0.0, 0.0, 0.0, 0.0, 0.0, 0.0, 0.0, 0.0, 0.0, 0.0)",0.2199999988079071,1.732763666950632e-05,0.0,0.0,0.0,-0.0065807998180389,41,1,633000000,base_footprint,0.0035791109147719,0.0014242089507849,-0.9300550821124278,0.3673999262802994,0.0,0.0,0.0,0.0,0.0,0.0,0.0,0.0,0.0,0.0009733127925495,0.0007297518774955,-0.1466055107972572,0.0,0.0,0.0,0.0,0.0,0.0,0.0,0.0,0.0,0.0294386294230439,0.0556992087576974,-0.009383400092543,0.0,0.0,0.0,0.0,0.0,0.0,0.0,0.0,0.0
1.667,-2.3943035450416987,-0.004634586282149002,-0.004323904179206899,-0.005140445058375853,-2.3564243532207554,0.21801800618089512,-0.1541974426648599,-0.1541265703722433,-0.006512076935241144,0.0002611596931071517,-0.002974806688546474,-0.005135264915190041,-0.005131924426657814,-0.00021685216194353014,42.0,1.0,593000000.0,odom,base_footprint,-0.0270241899954126,-0.0263144730892627,-0.0010021384521978,0.0035817522959621,0.0014347393555395,-0.9290316207981438,0.3699802158638297,"(1e-05, 0.0, 0.0, 0.0, 0.0, 0.0, 0.0, 1e-05, 0.0, 0.0, 0.0, 0.0, 0.0, 0.0, 1000000000000.0, 0.0, 0.0, 0.0, 0.0, 0.0, 0.0, 1000000000000.0, 0.0, 0.0, 0.0, 0.0, 0.0, 0.0, 1000000000000.0, 0.0, 0.0, 0.0, 0.0, 0.0, 0.0, 0.001)",0.180904246180785,6.757500530404914e-06,0.0,0.0,0.0,-0.139396218396799,"(0.0, 0.0, 0.0, 0.0, 0.0, 0.0, 0.0, 0.0, 0.0, 0.0, 0.0, 0.0, 0.0, 0.0, 0.0, 0.0, 0.0, 0.0, 0.0, 0.0, 0.0, 0.0, 0.0, 0.0, 0.0, 0.0, 0.0, 0.0, 0.0, 0.0, 0.0, 0.0, 0.0, 0.0, 0.0, 0.0)",0.2199999988079071,6.757500614185119e-06,0.0,0.0,0.0,-0.0163192898035049,42,1,667000000,base_footprint,0.0035840701103628,0.0014163230476356,-0.9309963014817688,0.3650082671635479,0.0,0.0,0.0,0.0,0.0,0.0,0.0,0.0,0.0,0.001057841308471,0.0008310101678113,-0.1558597590458913,0.0,0.0,0.0,0.0,0.0,0.0,0.0,0.0,0.0,0.0476048124789485,0.2292732414613293,0.0016137061207843,0.0,0.0,0.0,0.0,0.0,0.0,0.0,0.0,0.0
1.701,-2.3997966278019107,-0.004925221704934597,-0.004542442876999904,-0.005493082760211987,-2.356641205382698,0.22462413765742195,-0.1589041883313772,-0.15876228188422667,-0.016641638893309798,0.1983823266224274,-0.30419104979185146,-0.005292905722345326,-0.005285385983186968,-0.0005541665751472163,44.0,1.0,659000000.0,odom,base_footprint,-0.0358226259129425,-0.0345882285265347,-0.001001663466602,0.0035832732292822,0.0014181798500194,-0.930798184906552,0.3655131842951029,"(1e-05, 0.0, 0.0, 0.0, 0.0, 0.0, 0.0, 1e-05, 0.0, 0.0, 0.0, 0.0, 0.0, 0.0, 1000000000000.0, 0.0, 0.0, 0.0, 0.0, 0.0, 0.0, 1000000000000.0, 0.0, 0.0, 0.0, 0.0, 0.0, 0.0, 1000000000000.0, 0.0, 0.0, 0.0, 0.0, 0.0, 0.0, 0.001)",0.1886556081261482,0.0001383119236629,0.0,0.0,0.0,-0.1537960936202381,"(0.0, 0.0, 0.0, 0.0, 0.0, 0.0, 0.0, 0.0, 0.0, 0.0, 0.0, 0.0, 0.0, 0.0, 0.0, 0.0, 0.0, 0.0, 0.0, 0.0, 0.0, 0.0, 0.0, 0.0, 0.0, 0.0, 0.0, 0.0, 0.0, 0.0, 0.0, 0.0, 0.0, 0.0, 0.0, 0.0)",0.2199999988079071,6.757500614185119e-06,0.0,0.0,0.0,-0.0163192898035049,43,1,701000000,base_footprint,0.003587629701171,0.0014062653073488,-0.9319953004985448,0.3624498740234843,0.0,0.0,0.0,0.0,0.0,0.0,0.0,0.0,0.0,0.001296170946717,0.0010113593618249,-0.1672982105509486,0.0,0.0,0.0,0.0,0.0,0.0,0.0,0.0,0.0,0.0649767340250345,0.382098731946469,0.0027650233636795,0.0,0.0,0.0,0.0,0.0,0.0,0.0,0.0,0.0
1.735,-2.4043935728131687,-0.005283703797082498,-0.0048197201671371995,-0.004596945011257958,-2.357195371957846,0.2177573775890411,-0.1541317546867813,-0.15382352775707,-0.012897005266670184,-0.20620901106248815,0.11245146025944786,-0.0051336209807503,-0.0051212875657215785,-0.00042947027538011714,46.0,1.0,726000000.0,odom,base_footprint,-0.0457361006069866,-0.0437011947500711,-0.0010028641140409,0.003596439371932,0.0014071842562924,-0.9326972078919524,0.3606397147387803,"(1e-05, 0.0, 0.0, 0.0, 0.0, 0.0, 0.0, 1e-05, 0.0, 0.0, 0.0, 0.0, 0.0, 0.0, 1000000000000.0, 0.0, 0.0, 0.0, 0.0, 0.0, 0.0, 1000000000000.0, 0.0, 0.0, 0.0, 0.0, 0.0, 0.0, 1000000000000.0, 0.0, 0.0, 0.0, 0.0, 0.0, 0.0, 0.001)",0.213000572928494,4.962165406820207e-05,0.0,0.0,0.0,-0.1078749421255985,"(0.0, 0.0, 0.0, 0.0, 0.0, 0.0, 0.0, 0.0, 0.0, 0.0, 0.0, 0.0, 0.0, 0.0, 0.0, 0.0, 0.0, 0.0, 0.0, 0.0, 0.0, 0.0, 0.0, 0.0, 0.0, 0.0, 0.0, 0.0, 0.0, 0.0, 0.0, 0.0, 0.0, 0.0, 0.0, 0.0)",0.2199999988079071,6.757500614185119e-06,0.0,0.0,0.0,-0.0163192898035049,44,1,735000000,base_footprint,0.0035967068914448,0.0014053841066355,-0.9328258830617489,0.3603067588668279,0.0,0.0,0.0,0.0,0.0,0.0,0.0,0.0,0.0,0.0007929923453077,0.0003711070868008,-0.0742868594574097,0.0,0.0,0.0,0.0,0.0,0.0,0.0,0.0,0.0,0.0621602823037546,0.3358684333243825,0.0019393998752698,0.0,0.0,0.0,0.0,0.0,0.0,0.0,0.0,0.0
1.7690000000000001,-2.405058208619981,-0.005513023594264699,-0.005000784612782798,-0.0006646358068125302,-2.357624842233226,0.21765266812715614,-0.1541236565040384,-0.1536833837755245,-0.01395839842330621,-0.003144428284833493,-0.031873668367448225,-0.005133440783869854,-0.005116530100580463,-0.00046481466749609683,46.0,1.0,726000000.0,odom,base_footprint,-0.0457361006069866,-0.0437011947500711,-0.0010028641140409,0.003596439371932,0.0014071842562924,-0.9326972078919524,0.3606397147387803,"(1e-05, 0.0, 0.0, 0.0, 0.0, 0.0, 0.0, 1e-05, 0.0, 0.0, 0.0, 0.0, 0.0, 0.0, 1000000000000.0, 0.0, 0.0, 0.0, 0.0, 0.0, 0.0, 1000000000000.0, 0.0, 0.0, 0.0, 0.0, 0.0, 0.0, 1000000000000.0, 0.0, 0.0, 0.0, 0.0, 0.0, 0.0, 0.001)",0.213000572928494,4.962165406820207e-05,0.0,0.0,0.0,-0.1078749421255985,"(0.0, 0.0, 0.0, 0.0, 0.0, 0.0, 0.0, 0.0, 0.0, 0.0, 0.0, 0.0, 0.0, 0.0, 0.0, 0.0, 0.0, 0.0, 0.0, 0.0, 0.0, 0.0, 0.0, 0.0, 0.0, 0.0, 0.0, 0.0, 0.0, 0.0, 0.0, 0.0, 0.0, 0.0, 0.0, 0.0)",0.2199999988079071,4.962165257893503e-05,0.0,0.0,0.0,0.0152019811794161,45,1,769000000,base_footprint,0.0036008659658884,0.0013999445031477,-0.9329455684376988,0.3599967225575016,0.0,0.0,0.0,0.0,0.0,0.0,0.0,0.0,0.0,-0.0001304918869732,-0.0005654211705748,0.0167653880516179,0.0,0.0,0.0,0.0,0.0,0.0,0.0,0.0,0.0,0.0182285314277306,0.1206098968168991,0.0003302599571113,0.0,0.0,0.0,0.0,0.0,0.0,0.0,0.0,0.0
1.803,-2.4045295006116745,-0.005531716248659405,-0.0050192024212232025,0.000528708008306733,-2.358089656900722,0.22440563645669753,-0.15897918481444143,-0.15837773981614708,0.015225258450226776,0.2027918417279697,0.8763860922982877,-0.005292601442613969,-0.005275388995475194,0.0005070011063925516,47.0,1.0,759000000.0,odom,base_footprint,-0.0510539673621009,-0.0485273479255513,-0.0010028977272811,0.0036009976561763,0.0014009645459574,-0.9329640786620884,0.3599487436294531,"(1e-05, 0.0, 0.0, 0.0, 0.0, 0.0, 0.0, 1e-05, 0.0, 0.0, 0.0, 0.0, 0.0, 0.0, 1000000000000.0, 0.0, 0.0, 0.0, 0.0, 0.0, 0.0, 1000000000000.0, 0.0, 0.0, 0.0, 0.0, 0.0, 0.0, 1000000000000.0, 0.0, 0.0, 0.0, 0.0, 0.0, 0.0, 0.001)",0.219859748557583,3.8282801470279626e-05,0.0,0.0,0.0,-0.0161108548099851,"(0.0, 0.0, 0.0, 0.0, 0.0, 0.0, 0.0, 0.0, 0.0, 0.0, 0.0, 0.0, 0.0, 0.0, 0.0, 0.0, 0.0, 0.0, 0.0, 0.0, 0.0, 0.0, 0.0, 0.0, 0.0, 0.0, 0.0, 0.0, 0.0, 0.0, 0.0, 0.0, 0.0, 0.0, 0.0, 0.0)",0.2199999988079071,4.962165257893503e-05,0.0,0.0,0.0,0.0152019811794161,46,1,803000000,base_footprint,0.003598460199467,0.0014005924186401,-0.9328503758788014,0.3602433422672081,0.0,0.0,0.0,0.0,0.0,0.0,0.0,0.0,0.0,0.0001644670584178,-3.9324694985998985e-05,0.0152803080172228,0.0,0.0,0.0,0.0,0.0,0.0,0.0,0.0,0.0,-0.0044343640731669,0.0071652197257274,0.0004011649519042,0.0,0.0,0.0,0.0,0.0,0.0,0.0,0.0,0.0
1.8370000000000002,-2.4040144421318153,-0.005534022509968192,-0.005026785741340099,0.0005150584798592206,-2.35758265579433,0.21796674790394835,-0.15433956903297583,-0.1539116649982667,0.01511843965906481,-0.19336001659907456,-0.0032077715063653345,-0.005138150987005235,-0.005126618409480344,0.0005034440406468582,48.0,1.0,793000000.0,odom,base_footprint,-0.0565853870042022,-0.0535451056918544,-0.0010025923273941,0.0035987667726898,0.0014005229364437,-0.9328751931580194,0.3601790685250996,"(1e-05, 0.0, 0.0, 0.0, 0.0, 0.0, 0.0, 1e-05, 0.0, 0.0, 0.0, 0.0, 0.0, 0.0, 1000000000000.0, 0.0, 0.0, 0.0, 0.0, 0.0, 0.0, 1000000000000.0, 0.0, 0.0, 0.0, 0.0, 0.0, 0.0, 1000000000000.0, 0.0, 0.0, 0.0, 0.0, 0.0, 0.0, 0.001)",0.2197431182717077,2.321602494806396e-05,0.0,0.0,0.0,0.015343996214107,"(0.0, 0.0, 0.0, 0.0, 0.0, 0.0, 0.0, 0.0, 0.0, 0.0, 0.0, 0.0, 0.0, 0.0, 0.0, 0.0, 0.0, 0.0, 0.0, 0.0, 0.0, 0.0, 0.0, 0.0, 0.0, 0.0, 0.0, 0.0, 0.0, 0.0, 0.0, 0.0, 0.0, 0.0, 0.0, 0.0)",0.2199999988079071,4.962165257893503e-05,0.0,0.0,0.0,0.0152019811794161,47,1,837000000,base_footprint,0.0035981467863507,0.0014012793126989,-0.932757572241364,0.3604835657590903,0.0,0.0,0.0,0.0,0.0,0.0,0.0,0.0,0.0,7.917088244805064e-05,-3.944287247505486e-05,0.0150157443909961,0.0,0.0,0.0,0.0,0.0,0.0,0.0,0.0,0.0,-0.0027077670023766,0.0060336838735269,-0.0001547126054922,0.0,0.0,0.0,0.0,0.0,0.0,0.0,0.0,0.0
1.871,-2.4032626720719854,-0.0055348279401759015,-0.0050329319792838945,0.0007517700598298482,-2.3570792117536827,0.21814855466481847,-0.15439073404669892,-0.15411778983255237,0.014853521517554473,0.0054596624885922965,-0.007955499745055182,-0.005139875610347562,-0.005133460147587182,0.000494622266534564,48.0,1.0,793000000.0,odom,base_footprint,-0.0565853870042022,-0.0535451056918544,-0.0010025923273941,0.0035987667726898,0.0014005229364437,-0.9328751931580194,0.3601790685250996,"(1e-05, 0.0, 0.0, 0.0, 0.0, 0.0, 0.0, 1e-05, 0.0, 0.0, 0.0, 0.0, 0.0, 0.0, 1000000000000.0, 0.0, 0.0, 0.0, 0.0, 0.0, 0.0, 1000000000000.0, 0.0, 0.0, 0.0, 0.0, 0.0, 0.0, 1000000000000.0, 0.0, 0.0, 0.0, 0.0, 0.0, 0.0, 0.001)",0.2197431182717077,2.321602494806396e-05,0.0,0.0,0.0,0.015343996214107,"(0.0, 0.0, 0.0, 0.0, 0.0, 0.0, 0.0, 0.0, 0.0, 0.0, 0.0, 0.0, 0.0, 0.0, 0.0, 0.0, 0.0, 0.0, 0.0, 0.0, 0.0, 0.0, 0.0, 0.0, 0.0, 0.0, 0.0, 0.0, 0.0, 0.0, 0.0, 0.0, 0.0, 0.0, 0.0, 0.0)",0.2199999988079071,2.008139927056618e-05,0.0,0.0,0.0,0.0397110059857368,48,1,871000000,base_footprint,0.0035993266388117,0.0014034884805961,-0.9326219988626632,0.3608341479201248,0.0,0.0,0.0,0.0,0.0,0.0,0.0,0.0,0.0,8.856710888360998e-05,-9.107225210368832e-06,0.0400235627148744,0.0,0.0,0.0,0.0,0.0,0.0,0.0,0.0,0.0,-0.0036683015221335,-0.0008240980532337,0.0001471633705989,0.0,0.0,0.0,0.0,0.0,0.0,0.0,0.0,0.0
1.905,-2.401929218203839,-0.005529910793423798,-0.005039095366392202,0.0013334538681464283,-2.356584589487148,0.22495491966259407,-0.1591291890326159,-0.15900508507034028,0.03945785873045261,0.20439534527854633,0.7388689853723163,-0.005295453356262056,-0.005298417600655427,0.001313946695724072,50.0,1.0,859000000.0,odom,base_footprint,-0.0673288319661021,-0.0633058265456336,-0.0010026548673127,0.0035987141214619,0.00140213950384,-0.9326957079051976,0.3606435909824357,"(1e-05, 0.0, 0.0, 0.0, 0.0, 0.0, 0.0, 1e-05, 0.0, 0.0, 0.0, 0.0, 0.0, 0.0, 1000000000000.0, 0.0, 0.0, 0.0, 0.0, 0.0, 0.0, 1000000000000.0, 0.0, 0.0, 0.0, 0.0, 0.0, 0.0, 1000000000000.0, 0.0, 0.0, 0.0, 0.0, 0.0, 0.0, 0.001)",0.2201218616266653,1.672982805556167e-05,0.0,0.0,0.0,0.0148238135189635,"(0.0, 0.0, 0.0, 0.0, 0.0, 0.0, 0.0, 0.0, 0.0, 0.0, 0.0, 0.0, 0.0, 0.0, 0.0, 0.0, 0.0, 0.0, 0.0, 0.0, 0.0, 0.0, 0.0, 0.0, 0.0, 0.0, 0.0, 0.0, 0.0, 0.0, 0.0, 0.0, 0.0, 0.0, 0.0, 0.0)",0.2199999988079071,2.008139927056618e-05,0.0,0.0,0.0,0.0397110059857368,49,1,905000000,base_footprint,0.0036009878398186,0.0014067544615447,-0.9323812040664798,0.3614558676131896,0.0,0.0,0.0,0.0,0.0,0.0,0.0,0.0,0.0,-0.0002547511211244,-0.0001705097922907,0.0389929805884364,0.0,0.0,0.0,0.0,0.0,0.0,0.0,0.0,0.0,-0.0087816466670014,0.0066503970101749,-0.000617220631088,0.0,0.0,0.0,0.0,0.0,0.0,0.0,0.0,0.0
1.939,-2.4006078767409202,-0.005527621391432605,-0.005050339228796399,0.0013213414629187348,-2.355270642791424,0.2184970510860716,-0.15435794546671455,-0.15464341565228104,0.03862163719979037,-0.19392998728295716,-0.025111757677544578,-0.005136740053864758,-0.005152996112444266,0.0012861005187530196,52.0,1.0,926000000.0,odom,base_footprint,-0.0782256411090955,-0.0732400146180377,-0.0010035850391251,0.0036033155539773,0.0014096449085663,-0.9322263906037268,0.3618549235262638,"(1e-05, 0.0, 0.0, 0.0, 0.0, 0.0, 0.0, 1e-05, 0.0, 0.0, 0.0, 0.0, 0.0, 0.0, 1000000000000.0, 0.0, 0.0, 0.0, 0.0, 0.0, 0.0, 1000000000000.0, 0.0, 0.0, 0.0, 0.0, 0.0, 0.0, 1000000000000.0, 0.0, 0.0, 0.0, 0.0, 0.0, 0.0, 0.001)",0.2202550186422167,-4.060982366771437e-06,0.0,0.0,0.0,0.0388404266436047,"(0.0, 0.0, 0.0, 0.0, 0.0, 0.0, 0.0, 0.0, 0.0, 0.0, 0.0, 0.0, 0.0, 0.0, 0.0, 0.0, 0.0, 0.0, 0.0, 0.0, 0.0, 0.0, 0.0, 0.0, 0.0, 0.0, 0.0, 0.0, 0.0, 0.0, 0.0, 0.0, 0.0, 0.0, 0.0, 0.0)",0.2199999988079071,2.008139927056618e-05,0.0,0.0,0.0,0.0397110059857368,50,1,939000000,base_footprint,0.0036046027445559,0.0014115312508611,-0.9321421780261034,0.3620717806779948,0.0,0.0,0.0,0.0,0.0,0.0,0.0,0.0,0.0,-0.0003619387618963,-0.0001519743919753,0.0386757997003693,0.0,0.0,0.0,0.0,0.0,0.0,0.0,0.0,0.0,-0.0077799251088223,0.0051771359038143,-0.0003701211130456,0.0,0.0,0.0,0.0,0.0,0.0,0.0,0.0,0.0
1.973,-2.399292990960421,-0.005487373638180207,-0.005025972500016199,0.001314885780499431,-2.3539845422726713,0.21858397652309672,-0.1542202604665319,-0.15490340878846004,0.03829269197166073,0.0026103734842380178,-0.009878235078968296,-0.0051321777412690174,-0.005161622771284824,0.0012751466426563023,52.0,1.0,926000000.0,odom,base_footprint,-0.0782256411090955,-0.0732400146180377,-0.0010035850391251,0.0036033155539773,0.0014096449085663,-0.9322263906037268,0.3618549235262638,"(1e-05, 0.0, 0.0, 0.0, 0.0, 0.0, 0.0, 1e-05, 0.0, 0.0, 0.0, 0.0, 0.0, 0.0, 1000000000000.0, 0.0, 0.0, 0.0, 0.0, 0.0, 0.0, 1000000000000.0, 0.0, 0.0, 0.0, 0.0, 0.0, 0.0, 1000000000000.0, 0.0, 0.0, 0.0, 0.0, 0.0, 0.0, 0.001)",0.2202550186422167,-4.060982366771437e-06,0.0,0.0,0.0,0.0388404266436047,"(0.0, 0.0, 0.0, 0.0, 0.0, 0.0, 0.0, 0.0, 0.0, 0.0, 0.0, 0.0, 0.0, 0.0, 0.0, 0.0, 0.0, 0.0, 0.0, 0.0, 0.0, 0.0, 0.0, 0.0, 0.0, 0.0, 0.0, 0.0, 0.0, 0.0, 0.0, 0.0, 0.0, 0.0, 0.0, 0.0)",0.2084210515022277,0.0,0.0,0.0,0.0,0.0306352991610765,51,1,973000000,base_footprint,0.0035962665504244,0.0014121556235432,-0.9319039607671784,0.3626845469410547,0.0,0.0,0.0,0.0,0.0,0.0,0.0,0.0,0.0,-0.0054664775838332,-0.0021027732555007,0.0376225783835791,0.0,0.0,0.0,0.0,0.0,0.0,0.0,0.0,0.0,-0.0233685528887353,-0.2116366152247713,-0.0091039124590328,0.0,0.0,0.0,0.0,0.0,0.0,0.0,0.0,0.0
2.007,-2.3987955689296285,-0.005244838274236094,-0.0048116821509093105,0.0004974220307922828,-2.352709395630015,0.2127192916068678,-0.14989012980102961,-0.15093855044341112,-0.010695620887934163,-0.1761166641510182,-1.4711205062941406,-0.004992171306999617,-0.005025429321321189,-0.00035616417556820766,54.0,1.0,993000000.0,odom,base_footprint,-0.0889129933585922,-0.0830291666593874,-0.0010047371933268,0.0036111333656947,0.001415823585601,-0.931866288246741,0.3627811681835644,"(1e-05, 0.0, 0.0, 0.0, 0.0, 0.0, 0.0, 1e-05, 0.0, 0.0, 0.0, 0.0, 0.0, 0.0, 1000000000000.0, 0.0, 0.0, 0.0, 0.0, 0.0, 0.0, 1000000000000.0, 0.0, 0.0, 0.0, 0.0, 0.0, 0.0, 1000000000000.0, 0.0, 0.0, 0.0, 0.0, 0.0, 0.0, 0.001)",0.2083859446187876,-8.812929721162266e-05,0.0,0.0,0.0,-0.0116765854051011,"(0.0, 0.0, 0.0, 0.0, 0.0, 0.0, 0.0, 0.0, 0.0, 0.0, 0.0, 0.0, 0.0, 0.0, 0.0, 0.0, 0.0, 0.0, 0.0, 0.0, 0.0, 0.0, 0.0, 0.0, 0.0, 0.0, 0.0, 0.0, 0.0, 0.0, 0.0, 0.0, 0.0, 0.0, 0.0, 0.0)",0.2084210515022277,0.0,0.0,0.0,0.0,0.0306352991610765,52,2,7000000,base_footprint,0.0036047527373819,0.0014206633849992,-0.9318136830907204,0.3629163091928434,0.0,0.0,0.0,0.0,0.0,0.0,0.0,0.0,0.0,-0.0008247103146543,-0.0001416805220513,0.0394117433507749,0.0,0.0,0.0,0.0,0.0,0.0,0.0,0.0,0.0,-0.0194339289104042,-0.1339112380649591,0.0063589929723283,0.0,0.0,0.0,0.0,0.0,0.0,0.0,0.0,0.0
2.041,-2.397759798014882,-0.0052263806878418,-0.004797969588716089,0.0010357709147466032,-2.353065559805583,0.2068912022350729,-0.14583571241035842,-0.1467511994773367,0.028627057856392635,-0.17501769885269994,1.180861223553357,-0.004853936000343673,-0.004889191703956172,0.0009532810266178748,54.0,1.0,993000000.0,odom,base_footprint,-0.0889129933585922,-0.0830291666593874,-0.0010047371933268,0.0036111333656947,0.001415823585601,-0.931866288246741,0.3627811681835644,"(1e-05, 0.0, 0.0, 0.0, 0.0, 0.0, 0.0, 1e-05, 0.0, 0.0, 0.0, 0.0, 0.0, 0.0, 1000000000000.0, 0.0, 0.0, 0.0, 0.0, 0.0, 0.0, 1000000000000.0, 0.0, 0.0, 0.0, 0.0, 0.0, 0.0, 1000000000000.0, 0.0, 0.0, 0.0, 0.0, 0.0, 0.0, 0.001)",0.2083859446187876,-8.812929721162266e-05,0.0,0.0,0.0,-0.0116765854051011,"(0.0, 0.0, 0.0, 0.0, 0.0, 0.0, 0.0, 0.0, 0.0, 0.0, 0.0, 0.0, 0.0, 0.0, 0.0, 0.0, 0.0, 0.0, 0.0, 0.0, 0.0, 0.0, 0.0, 0.0, 0.0, 0.0, 0.0, 0.0, 0.0, 0.0, 0.0, 0.0, 0.0, 0.0, 0.0, 0.0)",0.2084210515022277,0.0,0.0,0.0,0.0,0.0306352991610765,53,2,41000000,base_footprint,0.003605932054116,0.0014180778731501,-0.9316256153391188,0.3633988155638032,0.0,0.0,0.0,0.0,0.0,0.0,0.0,0.0,0.0,0.0001804565638516,-0.0002309282514864,0.0300871372704519,0.0,0.0,0.0,0.0,0.0,0.0,0.0,0.0,0.0,0.00019021948464,0.0019803603667475,0.0015392807695534,0.0,0.0,0.0,0.0,0.0,0.0,0.0,0.0,0.0
2.075,-2.39677203559603,-0.005202848433913998,-0.00478018771849241,0.0009877624188519007,-2.3521122787789652,0.20668291083876142,-0.1455490692459615,-0.1467422709188382,0.02985459534611408,-0.0062549968862307195,0.03686298767932266,-0.004844290991385114,-0.004888988704757278,0.000994158025025599,55.0,2.0,26000000.0,odom,base_footprint,-0.0939833597427944,-0.0876836239381587,-0.0010044748060603,0.0036077071741173,0.0014172464679435,-0.9316988085782998,0.3632111038434422,"(1e-05, 0.0, 0.0, 0.0, 0.0, 0.0, 0.0, 1e-05, 0.0, 0.0, 0.0, 0.0, 0.0, 0.0, 1000000000000.0, 0.0, 0.0, 0.0, 0.0, 0.0, 0.0, 1000000000000.0, 0.0, 0.0, 0.0, 0.0, 0.0, 0.0, 1000000000000.0, 0.0, 0.0, 0.0, 0.0, 0.0, 0.0, 0.001)",0.2087496122574047,-0.0001603541984941,0.0,0.0,0.0,0.0274043234846258,"(0.0, 0.0, 0.0, 0.0, 0.0, 0.0, 0.0, 0.0, 0.0, 0.0, 0.0, 0.0, 0.0, 0.0, 0.0, 0.0, 0.0, 0.0, 0.0, 0.0, 0.0, 0.0, 0.0, 0.0, 0.0, 0.0, 0.0, 0.0, 0.0, 0.0, 0.0, 0.0, 0.0, 0.0, 0.0, 0.0)",0.2199999988079071,0.0,0.0,0.0,0.0,0.0356094501912593,54,2,75000000,base_footprint,0.0035963834510994,0.0014105097572688,-0.9314460756390752,0.3638588801511698,0.0,0.0,0.0,0.0,0.0,0.0,0.0,0.0,0.0,-0.0004060065651244,0.0010976987095369,0.0280730019843861,0.0,0.0,0.0,0.0,0.0,0.0,0.0,0.0,0.0,-0.0115297786674782,-0.0549139058778253,-0.0012704727591055,0.0,0.0,0.0,0.0,0.0,0.0,0.0,0.0,0.0
2.109,-2.3957905100950447,-0.005170706373846798,-0.004781315058811492,0.0009815255009852921,-2.3511181207539398,0.2239158520521606,-0.157526626937151,-0.15913412772265018,-0.0031014394007783733,0.5175057421441197,-0.9896707131198934,-0.005245841777854362,-0.0052989634116389,-0.00010327793204591983,57.0,2.0,93000000.0,odom,base_footprint,-0.1042216482360889,-0.0971046485360655,-0.0010013130220618,0.0035857130460729,0.0014075515830686,-0.9313467593798288,0.3641131352384636,"(1e-05, 0.0, 0.0, 0.0, 0.0, 0.0, 0.0, 1e-05, 0.0, 0.0, 0.0, 0.0, 0.0, 0.0, 1000000000000.0, 0.0, 0.0, 0.0, 0.0, 0.0, 0.0, 1000000000000.0, 0.0, 0.0, 0.0, 0.0, 0.0, 0.0, 1000000000000.0, 0.0, 0.0, 0.0, 0.0, 0.0, 0.0, 0.001)",0.2069936877967353,0.0003704498556916,0.0,0.0,0.0,0.0287526565368043,"(0.0, 0.0, 0.0, 0.0, 0.0, 0.0, 0.0, 0.0, 0.0, 0.0, 0.0, 0.0, 0.0, 0.0, 0.0, 0.0, 0.0, 0.0, 0.0, 0.0, 0.0, 0.0, 0.0, 0.0, 0.0, 0.0, 0.0, 0.0, 0.0, 0.0, 0.0, 0.0, 0.0, 0.0, 0.0, 0.0)",0.2199999988079071,0.0,0.0,0.0,0.0,0.0356094501912593,55,2,109000000,base_footprint,0.0035841955191781,0.0014106638310751,-0.9312674318913472,0.3643159808031085,0.0,0.0,0.0,0.0,0.0,0.0,0.0,0.0,0.0,-0.0011268851571761,-0.002444222421326,0.0292983053786398,0.0,0.0,0.0,0.0,0.0,0.0,0.0,0.0,0.0,-0.0069357211585642,0.0559577469202804,-0.0033692282638609,0.0,0.0,0.0,0.0,0.0,0.0,0.0,0.0,0.0
2.143,-2.3948028305671096,-0.005292878024500708,-0.004896845957566398,0.0009876795279351034,-2.3512213986859853,0.21796337503445556,-0.15335500816384073,-0.15488794119452642,0.035993585460122254,-0.17875306359474602,1.1740247705976163,-0.005103562786351662,-0.005160893637062125,0.0011985863958220713,57.0,2.0,93000000.0,odom,base_footprint,-0.1042216482360889,-0.0971046485360655,-0.0010013130220618,0.0035857130460729,0.0014075515830686,-0.9313467593798288,0.3641131352384636,"(1e-05, 0.0, 0.0, 0.0, 0.0, 0.0, 0.0, 1e-05, 0.0, 0.0, 0.0, 0.0, 0.0, 0.0, 1000000000000.0, 0.0, 0.0, 0.0, 0.0, 0.0, 0.0, 1000000000000.0, 0.0, 0.0, 0.0, 0.0, 0.0, 0.0, 1000000000000.0, 0.0, 0.0, 0.0, 0.0, 0.0, 0.0, 0.001)",0.2069936877967353,0.0003704498556916,0.0,0.0,0.0,0.0287526565368043,"(0.0, 0.0, 0.0, 0.0, 0.0, 0.0, 0.0, 0.0, 0.0, 0.0, 0.0, 0.0, 0.0, 0.0, 0.0, 0.0, 0.0, 0.0, 0.0, 0.0, 0.0, 0.0, 0.0, 0.0, 0.0, 0.0, 0.0, 0.0, 0.0, 0.0, 0.0, 0.0, 0.0, 0.0, 0.0, 0.0)",0.2199999988079071,0.0,0.0,0.0,0.0,0.0356094501912593,56,2,143000000,base_footprint,0.0035839595459909,0.0014163804970442,-0.931087392951716,0.3647758432059848,0.0,0.0,0.0,0.0,0.0,0.0,0.0,0.0,0.0,0.0003108440909898,-0.0020364288236603,0.0304773685965685,0.0,0.0,0.0,0.0,0.0,0.0,0.0,0.0,0.0,0.0138394597254657,0.2262783960625191,0.0053048888403928,0.0,0.0,0.0,0.0,0.0,0.0,0.0,0.0,0.0
2.177,-2.393667792923917,-0.005381392701618193,-0.0049878977825924126,0.0011350376431926712,-2.3500228122901636,0.21752563289563673,-0.15286163724366741,-0.15476020427045434,0.037371760224849795,-0.013145409574139226,0.041386629571397625,-0.005087017790683207,-0.005156746647197435,0.0012444796154874984,59.0,2.0,159000000.0,odom,base_footprint,-0.1145251138605424,-0.1066385122411967,-0.001004106113922,0.003603664218431,0.0014221948369058,-0.9309845369539028,0.3650380568088396,"(1e-05, 0.0, 0.0, 0.0, 0.0, 0.0, 0.0, 1e-05, 0.0, 0.0, 0.0, 0.0, 0.0, 0.0, 1000000000000.0, 0.0, 0.0, 0.0, 0.0, 0.0, 0.0, 1000000000000.0, 0.0, 0.0, 0.0, 0.0, 0.0, 0.0, 1000000000000.0, 0.0, 0.0, 0.0, 0.0, 0.0, 0.0, 0.001)",0.2193567779590266,2.3435743837355028e-05,0.0,0.0,0.0,0.0365322240291539,"(0.0, 0.0, 0.0, 0.0, 0.0, 0.0, 0.0, 0.0, 0.0, 0.0, 0.0, 0.0, 0.0, 0.0, 0.0, 0.0, 0.0, 0.0, 0.0, 0.0, 0.0, 0.0, 0.0, 0.0, 0.0, 0.0, 0.0, 0.0, 0.0, 0.0, 0.0, 0.0, 0.0, 0.0, 0.0, 0.0)",0.2084210515022277,0.0003704498521983,0.0,0.0,0.0,0.0205475259572267,57,2,177000000,base_footprint,0.0036020338761766,0.0014209800266502,-0.9308801656369678,0.3653041518945689,0.0,0.0,0.0,0.0,0.0,0.0,0.0,0.0,0.0,0.00134533278564,0.0007318802198794,0.027285046180646,0.0,0.0,0.0,0.0,0.0,0.0,0.0,0.0,0.0,-0.0272474850323633,-0.2389348779150306,0.0022009972843053,0.0,0.0,0.0,0.0,0.0,0.0,0.0,0.0,0.0
2.211,-2.392917094773688,-0.0051719360373780054,-0.004802072818033798,0.0007506981502287681,-2.348778332674676,0.21251522242217968,-0.14915239963720353,-0.151381245349655,0.021769701286159585,-0.150462776980692,-0.46853029845916544,-0.004964882064863467,-0.005042859526569927,0.0007249310528291142,59.0,2.0,159000000.0,odom,base_footprint,-0.1145251138605424,-0.1066385122411967,-0.001004106113922,0.003603664218431,0.0014221948369058,-0.9309845369539028,0.3650380568088396,"(1e-05, 0.0, 0.0, 0.0, 0.0, 0.0, 0.0, 1e-05, 0.0, 0.0, 0.0, 0.0, 0.0, 0.0, 1000000000000.0, 0.0, 0.0, 0.0, 0.0, 0.0, 0.0, 1000000000000.0, 0.0, 0.0, 0.0, 0.0, 0.0, 0.0, 1000000000000.0, 0.0, 0.0, 0.0, 0.0, 0.0, 0.0, 0.001)",0.2193567779590266,2.3435743837355028e-05,0.0,0.0,0.0,0.0365322240291539,"(0.0, 0.0, 0.0, 0.0, 0.0, 0.0, 0.0, 0.0, 0.0, 0.0, 0.0, 0.0, 0.0, 0.0, 0.0, 0.0, 0.0, 0.0, 0.0, 0.0, 0.0, 0.0, 0.0, 0.0, 0.0, 0.0, 0.0, 0.0, 0.0, 0.0, 0.0, 0.0, 0.0, 0.0, 0.0, 0.0)",0.2084210515022277,0.0003704498521983,0.0,0.0,0.0,0.0205475259572267,58,2,211000000,base_footprint,0.0035963499106102,0.0014227807522845,-0.930742996905881,0.3656535459597112,0.0,0.0,0.0,0.0,0.0,0.0,0.0,0.0,0.0,0.0003882013933602,-6.38416512248988e-05,0.0218445905851012,0.0,0.0,0.0,0.0,0.0,0.0,0.0,0.0,0.0,-0.0050049519543641,-0.0084381160618921,-0.0026233994807155,0.0,0.0,0.0,0.0,0.0,0.0,0.0,0.0,0.0
2.245,-2.3921811289146557,-0.005174867985317785,-0.004812407047882189,0.0007359658590324615,-2.348053401621847,0.2060644169146824,-0.144518496748181,-0.1468909391897065,0.021580947569015265,-0.19371788310802612,-0.005668279794123707,-0.004810644625390239,-0.004893259301053371,0.0007186455540482084,60.0,2.0,193000000.0,odom,base_footprint,-0.1197676128429439,-0.1115039194500814,-0.0010036157850646,0.0035991970287056,0.0014226307822592,-0.9308106492483016,0.3654812678487928,"(1e-05, 0.0, 0.0, 0.0, 0.0, 0.0, 0.0, 1e-05, 0.0, 0.0, 0.0, 0.0, 0.0, 0.0, 1000000000000.0, 0.0, 0.0, 0.0, 0.0, 0.0, 0.0, 1000000000000.0, 0.0, 0.0, 0.0, 0.0, 0.0, 0.0, 1000000000000.0, 0.0, 0.0, 0.0, 0.0, 0.0, 0.0, 0.001)",0.2077751369738802,1.897937495641544e-05,0.0,0.0,0.0,0.0213669414163281,"(0.0, 0.0, 0.0, 0.0, 0.0, 0.0, 0.0, 0.0, 0.0, 0.0, 0.0, 0.0, 0.0, 0.0, 0.0, 0.0, 0.0, 0.0, 0.0, 0.0, 0.0, 0.0, 0.0, 0.0, 0.0, 0.0, 0.0, 0.0, 0.0, 0.0, 0.0, 0.0, 0.0, 0.0, 0.0, 0.0)",0.2084210515022277,0.0003704498521983,0.0,0.0,0.0,0.0205475259572267,59,2,245000000,base_footprint,0.0035923768137124,0.0014219408612155,-0.9306083951059956,0.3659960216604261,0.0,0.0,0.0,0.0,0.0,0.0,0.0,0.0,0.0,0.00022335421195,-5.99863199266208e-05,0.0214708432510352,0.0,0.0,0.0,0.0,0.0,0.0,0.0,0.0,0.0,-0.0042231896482823,0.0054258631041159,-0.0002650912563152,0.0,0.0,0.0,0.0,0.0,0.0,0.0,0.0,0.0
2.279,-2.390995949779543,-0.005172616178421602,-0.0048183018509572045,0.001185179135112513,-2.3473347560677986,0.206223056620201,-0.14452407389792624,-0.1471079234634402,0.02130418039381577,0.0047639551206779636,-0.008311326582567401,-0.004810850239567116,-0.00490046277935705,0.0007094292071140652,62.0,2.0,259000000.0,odom,base_footprint,-0.1298128132197833,-0.1208457051372493,-0.0010026605943751,0.003591266940041,0.0014219099862978,-0.9305497115390774,0.3661452107133123,"(1e-05, 0.0, 0.0, 0.0, 0.0, 0.0, 0.0, 1e-05, 0.0, 0.0, 0.0, 0.0, 0.0, 0.0, 1000000000000.0, 0.0, 0.0, 0.0, 0.0, 0.0, 0.0, 1000000000000.0, 0.0, 0.0, 0.0, 0.0, 0.0, 0.0, 1000000000000.0, 0.0, 0.0, 0.0, 0.0, 0.0, 0.0, 0.001)",0.2080152264537991,1.989817257186388e-05,0.0,0.0,0.0,0.0212997170692897,"(0.0, 0.0, 0.0, 0.0, 0.0, 0.0, 0.0, 0.0, 0.0, 0.0, 0.0, 0.0, 0.0, 0.0, 0.0, 0.0, 0.0, 0.0, 0.0, 0.0, 0.0, 0.0, 0.0, 0.0, 0.0, 0.0, 0.0, 0.0, 0.0, 0.0, 0.0, 0.0, 0.0, 0.0, 0.0, 0.0)",0.2084210515022277,1.8979375454364344e-05,0.0,0.0,0.0,0.0459823235869407,60,2,279000000,base_footprint,0.0035897931388479,0.0014228173169235,-0.9303913545221356,0.3665474272267759,0.0,0.0,0.0,0.0,0.0,0.0,0.0,0.0,0.0,-6.144461391074086e-05,-0.0002362300621398,0.0466632722646661,0.0,0.0,0.0,0.0,0.0,0.0,0.0,0.0,0.0,-0.0068345195774416,-0.0010630044316536,-0.0002694258549298,0.0,0.0,0.0,0.0,0.0,0.0,0.0,0.0,0.0
2.313,-2.3894203082742744,-0.005167051173412512,-0.004827538715997393,0.0015756415052687878,-2.3466253268606847,0.21266187398238387,-0.14892883076872676,-0.15180670608230473,0.046943854531416085,0.19335787874423063,0.7699601843123217,-0.004955311422090562,-0.005059101630099604,0.0015632303558961557,62.0,2.0,259000000.0,odom,base_footprint,-0.1298128132197833,-0.1208457051372493,-0.0010026605943751,0.003591266940041,0.0014219099862978,-0.9305497115390774,0.3661452107133123,"(1e-05, 0.0, 0.0, 0.0, 0.0, 0.0, 0.0, 1e-05, 0.0, 0.0, 0.0, 0.0, 0.0, 0.0, 1000000000000.0, 0.0, 0.0, 0.0, 0.0, 0.0, 0.0, 1000000000000.0, 0.0, 0.0, 0.0, 0.0, 0.0, 0.0, 1000000000000.0, 0.0, 0.0, 0.0, 0.0, 0.0, 0.0, 0.001)",0.2080152264537991,1.989817257186388e-05,0.0,0.0,0.0,0.0212997170692897,"(0.0, 0.0, 0.0, 0.0, 0.0, 0.0, 0.0, 0.0, 0.0, 0.0, 0.0, 0.0, 0.0, 0.0, 0.0, 0.0, 0.0, 0.0, 0.0, 0.0, 0.0, 0.0, 0.0, 0.0, 0.0, 0.0, 0.0, 0.0, 0.0, 0.0, 0.0, 0.0, 0.0, 0.0, 0.0, 0.0)",0.2084210515022277,1.8979375454364344e-05,0.0,0.0,0.0,0.0459823235869407,61,2,313000000,base_footprint,0.0035884373418444,0.0014253361141603,-0.9301022936293474,0.3672802947611437,0.0,0.0,0.0,0.0,0.0,0.0,0.0,0.0,0.0,-7.337328231964436e-05,-0.0002032333694593,0.0461529555638008,0.0,0.0,0.0,0.0,0.0,0.0,0.0,0.0,0.0,-0.0094054943655493,0.0064084681162039,-9.911185410780032e-05,0.0,0.0,0.0,0.0,0.0,0.0,0.0,0.0,0.0
2.347,-2.38785789768027,-0.0051640960404024105,-0.004839817784195899,0.0015624105940044155,-2.3450620965047886,0.20657310549114588,-0.14443412586291776,-0.14768625934213012,0.04579757779192099,-0.18284590063777745,-0.03442272490976251,-0.004805840789144537,-0.004921680191109722,0.0015250593404709692,64.0,2.0,326000000.0,odom,base_footprint,-0.1399959179331856,-0.1303572497653654,-0.0010025009761389,0.0035882143845784,0.0014265374604039,-0.9299838135922616,0.3675801901147531,"(1e-05, 0.0, 0.0, 0.0, 0.0, 0.0, 0.0, 1e-05, 0.0, 0.0, 0.0, 0.0, 0.0, 0.0, 1000000000000.0, 0.0, 0.0, 0.0, 0.0, 0.0, 0.0, 1000000000000.0, 0.0, 0.0, 0.0, 0.0, 0.0, 0.0, 1000000000000.0, 0.0, 0.0, 0.0, 0.0, 0.0, 0.0, 0.001)",0.208153534376406,7.50931883865269e-06,0.0,0.0,0.0,0.0459967477179343,"(0.0, 0.0, 0.0, 0.0, 0.0, 0.0, 0.0, 0.0, 0.0, 0.0, 0.0, 0.0, 0.0, 0.0, 0.0, 0.0, 0.0, 0.0, 0.0, 0.0, 0.0, 0.0, 0.0, 0.0, 0.0, 0.0, 0.0, 0.0, 0.0, 0.0, 0.0, 0.0, 0.0, 0.0, 0.0, 0.0)",0.2084210515022277,1.8979375454364344e-05,0.0,0.0,0.0,0.0459823235869407,62,2,347000000,base_footprint,0.0035882542130294,0.0014284454366809,-0.9298150850996734,0.3680067818619984,0.0,0.0,0.0,0.0,0.0,0.0,0.0,0.0,0.0,-0.0001454631502399,-0.0002067456541874,0.0457737640882354,0.0,0.0,0.0,0.0,0.0,0.0,0.0,0.0,0.0,-0.0091086565397586,0.0060436071076312,-0.0001772173029981,0.0,0.0,0.0,0.0,0.0,0.0,0.0,0.0,0.0
2.3810000000000002,-2.386108799705414,-0.005266614356282284,-0.004951308587339914,0.0017490979748560063,-2.3435370371643174,0.20674371899293556,-0.14432783299900565,-0.1480285174040497,0.04544269495953301,0.00512352858227265,-0.010657142113753324,-0.004802321555731578,-0.004933046266762501,0.0015132417421524493,65.0,2.0,359000000.0,odom,base_footprint,-0.145006982295626,-0.1350594181543416,-0.0010026982476841,0.003588518773132,0.0014298115462187,-0.9297057445540808,0.3682829166756173,"(1e-05, 0.0, 0.0, 0.0, 0.0, 0.0, 0.0, 1e-05, 0.0, 0.0, 0.0, 0.0, 0.0, 0.0, 1000000000000.0, 0.0, 0.0, 0.0, 0.0, 0.0, 0.0, 1000000000000.0, 0.0, 0.0, 0.0, 0.0, 0.0, 0.0, 1000000000000.0, 0.0, 0.0, 0.0, 0.0, 0.0, 0.0, 0.001)",0.2083319506311526,4.047544821500493e-06,0.0,0.0,0.0,0.0456304444979725,"(0.0, 0.0, 0.0, 0.0, 0.0, 0.0, 0.0, 0.0, 0.0, 0.0, 0.0, 0.0, 0.0, 0.0, 0.0, 0.0, 0.0, 0.0, 0.0, 0.0, 0.0, 0.0, 0.0, 0.0, 0.0, 0.0, 0.0, 0.0, 0.0, 0.0, 0.0, 0.0, 0.0, 0.0, 0.0, 0.0)",0.2199999988079071,7.50931894799578e-06,0.0,0.0,0.0,0.087022379040718,63,2,381000000,base_footprint,0.0035861721618891,0.0014317232672404,-0.929492891569044,0.368819812456339,0.0,0.0,0.0,0.0,0.0,0.0,0.0,0.0,0.0,-0.0010771910766551,-0.0012184589837734,0.0855928023752495,0.0,0.0,0.0,0.0,0.0,0.0,0.0,0.0,0.0,0.0091705920736228,0.3329364096557093,0.0017311130334553,0.0,0.0,0.0,0.0,0.0,0.0,0.0,0.0,0.0
2.415,-2.383172381171032,-0.0054321005392471144,-0.0051308766492113855,0.002936418534381868,-2.3420237954221648,0.2247870831573134,-0.15668017710046575,-0.16118484686266144,0.08849511799640518,0.5418427676990345,1.2928655566628278,-0.005209464188888659,-0.005375202621761272,0.0029468874292802928,65.0,2.0,359000000.0,odom,base_footprint,-0.145006982295626,-0.1350594181543416,-0.0010026982476841,0.003588518773132,0.0014298115462187,-0.9297057445540808,0.3682829166756173,"(1e-05, 0.0, 0.0, 0.0, 0.0, 0.0, 0.0, 1e-05, 0.0, 0.0, 0.0, 0.0, 0.0, 0.0, 1000000000000.0, 0.0, 0.0, 0.0, 0.0, 0.0, 0.0, 1000000000000.0, 0.0, 0.0, 0.0, 0.0, 0.0, 0.0, 1000000000000.0, 0.0, 0.0, 0.0, 0.0, 0.0, 0.0, 0.001)",0.2083319506311526,4.047544821500493e-06,0.0,0.0,0.0,0.0456304444979725,"(0.0, 0.0, 0.0, 0.0, 0.0, 0.0, 0.0, 0.0, 0.0, 0.0, 0.0, 0.0, 0.0, 0.0, 0.0, 0.0, 0.0, 0.0, 0.0, 0.0, 0.0, 0.0, 0.0, 0.0, 0.0, 0.0, 0.0, 0.0, 0.0, 0.0, 0.0, 0.0, 0.0, 0.0, 0.0, 0.0)",0.2199999988079071,7.50931894799578e-06,0.0,0.0,0.0,0.087022379040718,64,2,415000000,base_footprint,0.0035912209862608,0.0014396961895356,-0.9289503579724356,0.370184093161218,0.0,0.0,0.0,0.0,0.0,0.0,0.0,0.0,0.0,-0.0006142045258091,-0.0004264225977352,0.0860830381657234,0.0,0.0,0.0,0.0,0.0,0.0,0.0,0.0,0.0,-0.0177110173101131,0.008356252865855,-0.0004947465672844,0.0,0.0,0.0,0.0,0.0,0.0,0.0,0.0,0.0
2.449,-2.3802524870147295,-0.005420296337541597,-0.005148971874603503,0.0029198941563026715,-2.339076907992885,0.21855097299207216,-0.15187103203448785,-0.15716143746021485,0.0854289538983257,-0.18727057553277038,-0.09207699994232688,-0.00504978671570804,-0.00524072758625489,0.002844784164814246,66.0,2.0,393000000.0,odom,base_footprint,-0.150378594618866,-0.1401169007200011,-0.0010031112962526,0.0035898267947191,0.0014352438066506,-0.9292850434907768,0.369343148255311,"(1e-05, 0.0, 0.0, 0.0, 0.0, 0.0, 0.0, 1e-05, 0.0, 0.0, 0.0, 0.0, 0.0, 0.0, 1000000000000.0, 0.0, 0.0, 0.0, 0.0, 0.0, 0.0, 1000000000000.0, 0.0, 0.0, 0.0, 0.0, 0.0, 0.0, 1000000000000.0, 0.0, 0.0, 0.0, 0.0, 0.0, 0.0, 0.001)",0.219776470726969,-2.6846132770250164e-05,0.0,0.0,0.0,0.0863660875836944,"(0.0, 0.0, 0.0, 0.0, 0.0, 0.0, 0.0, 0.0, 0.0, 0.0, 0.0, 0.0, 0.0, 0.0, 0.0, 0.0, 0.0, 0.0, 0.0, 0.0, 0.0, 0.0, 0.0, 0.0, 0.0, 0.0, 0.0, 0.0, 0.0, 0.0, 0.0, 0.0, 0.0, 0.0, 0.0, 0.0)",0.2199999988079071,7.50931894799578e-06,0.0,0.0,0.0,0.087022379040718,65,2,449000000,base_footprint,0.0035932879746104,0.0014465384645585,-0.928408902993773,0.3715399099018857,0.0,0.0,0.0,0.0,0.0,0.0,0.0,0.0,0.0,-0.0005725511903236,-0.0004337768367593,0.0856757045622854,0.0,0.0,0.0,0.0,0.0,0.0,0.0,0.0,0.0,-0.017731610312208,0.0042938337365801,-0.0002117188160816,0.0,0.0,0.0,0.0,0.0,0.0,0.0,0.0,0.0
2.483,-2.3777430049324897,-0.005334537786049004,-0.00509642083032491,0.002509482082239778,-2.3362321238280703,0.21864092410423083,-0.1514856504844315,-0.157657703238569,0.0851670643469438,0.00270123459935964,-0.00786455109254954,-0.005036952742283388,-0.005257212841730469,0.0028360632427532288,68.0,2.0,459000000.0,odom,base_footprint,-0.1609031856979059,-0.150106263103445,-0.0010042701986241,0.0035938277990402,0.0014487225162432,-0.9282338968212794,0.3719769057304558,"(1e-05, 0.0, 0.0, 0.0, 0.0, 0.0, 0.0, 1e-05, 0.0, 0.0, 0.0, 0.0, 0.0, 0.0, 1000000000000.0, 0.0, 0.0, 0.0, 0.0, 0.0, 0.0, 1000000000000.0, 0.0, 0.0, 0.0, 0.0, 0.0, 0.0, 1000000000000.0, 0.0, 0.0, 0.0, 0.0, 0.0, 0.0, 0.001)",0.219935103345385,-5.7781695211547857e-05,0.0,0.0,0.0,0.0854756254244645,"(0.0, 0.0, 0.0, 0.0, 0.0, 0.0, 0.0, 0.0, 0.0, 0.0, 0.0, 0.0, 0.0, 0.0, 0.0, 0.0, 0.0, 0.0, 0.0, 0.0, 0.0, 0.0, 0.0, 0.0, 0.0, 0.0, 0.0, 0.0, 0.0, 0.0, 0.0, 0.0, 0.0, 0.0, 0.0, 0.0)",0.2084210515022277,0.0,0.0,0.0,0.0,0.0617506951093673,66,2,483000000,base_footprint,0.003582581692608,0.001458135628108,-0.9279419916840472,0.372704573379976,0.0,0.0,0.0,0.0,0.0,0.0,0.0,0.0,0.0,-0.0001906422634979,-0.0004639004033475,0.0353019076574505,0.0,0.0,0.0,0.0,0.0,0.0,0.0,0.0,0.0,-0.0250454939692969,-0.2052245608321396,-0.0006989752913776,0.0,0.0,0.0,0.0,0.0,0.0,0.0,0.0,0.0
2.517,-2.3763579430185997,-0.005154941265899188,-0.004936828489433109,0.0013850619138899847,-2.3333960605853172,0.2119564156718396,-0.14642023285696662,-0.15325350747883495,-0.03203792576485344,-0.20073598896069786,-3.5196693727266433,-0.004878449141586086,-0.00510080302487405,-0.0010668629279696196,68.0,2.0,459000000.0,odom,base_footprint,-0.1609031856979059,-0.150106263103445,-0.0010042701986241,0.0035938277990402,0.0014487225162432,-0.9282338968212794,0.3719769057304558,"(1e-05, 0.0, 0.0, 0.0, 0.0, 0.0, 0.0, 1e-05, 0.0, 0.0, 0.0, 0.0, 0.0, 0.0, 1000000000000.0, 0.0, 0.0, 0.0, 0.0, 0.0, 0.0, 1000000000000.0, 0.0, 0.0, 0.0, 0.0, 0.0, 0.0, 1000000000000.0, 0.0, 0.0, 0.0, 0.0, 0.0, 0.0, 0.001)",0.219935103345385,-5.7781695211547857e-05,0.0,0.0,0.0,0.0854756254244645,"(0.0, 0.0, 0.0, 0.0, 0.0, 0.0, 0.0, 0.0, 0.0, 0.0, 0.0, 0.0, 0.0, 0.0, 0.0, 0.0, 0.0, 0.0, 0.0, 0.0, 0.0, 0.0, 0.0, 0.0, 0.0, 0.0, 0.0, 0.0, 0.0, 0.0, 0.0, 0.0, 0.0, 0.0, 0.0, 0.0)",0.2084210515022277,0.0,0.0,0.0,0.0,0.0617506951093673,67,2,517000000,base_footprint,0.0035919831164226,0.0014607409404881,-0.927683630311094,0.3733470850911064,0.0,0.0,0.0,0.0,0.0,0.0,0.0,0.0,0.0,7.961052620830401e-05,-0.0001278770318501,0.0710209285203875,0.0,0.0,0.0,0.0,0.0,0.0,0.0,0.0,0.0,-0.0105267350933781,-0.1365388600100444,-0.0004601833646884,0.0,0.0,0.0,0.0,0.0,0.0,0.0,0.0,0.0
2.551,-2.3743918465885305,-0.00510099813910711,-0.004900560963008782,0.0019660964300691752,-2.334462923513287,0.2068707563455462,-0.14306653773134612,-0.14942381206669728,0.0587972168457974,-0.15272250229109313,2.727782060379905,-0.0047591770593012955,-0.004980535257822698,0.0019579473209650534,70.0,2.0,526000000.0,odom,base_footprint,-0.1711445580405062,-0.1599121302535334,-0.0010043796266849,0.0035903561676498,0.0014583061241934,-0.9275587235254354,0.3736573257648006,"(1e-05, 0.0, 0.0, 0.0, 0.0, 0.0, 0.0, 1e-05, 0.0, 0.0, 0.0, 0.0, 0.0, 0.0, 1000000000000.0, 0.0, 0.0, 0.0, 0.0, 0.0, 0.0, 1000000000000.0, 0.0, 0.0, 0.0, 0.0, 0.0, 0.0, 1000000000000.0, 0.0, 0.0, 0.0, 0.0, 0.0, 0.0, 0.001)",0.2082713443309639,-0.0001746977600847,0.0,0.0,0.0,0.063316536040604,"(0.0, 0.0, 0.0, 0.0, 0.0, 0.0, 0.0, 0.0, 0.0, 0.0, 0.0, 0.0, 0.0, 0.0, 0.0, 0.0, 0.0, 0.0, 0.0, 0.0, 0.0, 0.0, 0.0, 0.0, 0.0, 0.0, 0.0, 0.0, 0.0, 0.0, 0.0, 0.0, 0.0, 0.0, 0.0, 0.0)",0.2199999988079071,0.0,0.0,0.0,0.0,0.0058806398883461,68,2,551000000,base_footprint,0.0035852906394408,0.0014572007845942,-0.927316197684563,0.3742588566336789,0.0,0.0,0.0,0.0,0.0,0.0,0.0,0.0,0.0,0.0001020418179805,-0.0001034271347643,0.0452608093717476,0.0,0.0,0.0,0.0,0.0,0.0,0.0,0.0,0.0,-0.0117227932828617,-0.0257652568442879,-0.0001569157423659,0.0,0.0,0.0,0.0,0.0,0.0,0.0,0.0,0.0
2.585,-2.372712831129557,-0.005053085737518698,-0.004886359528797901,0.001679015458973421,-2.3325049761923218,0.20657695995165085,-0.14257093353422742,-0.1494910341593932,0.06051705310662087,-0.008822714531391766,0.051646734559263545,-0.004742528500382975,-0.0049828931404013845,0.0020152178684504753,71.0,2.0,559000000.0,odom,base_footprint,-0.1760846605462789,-0.1646631408566174,-0.0010034597887106,0.0035842674437861,0.001456408550076,-0.9272451662351012,0.3744348188866332,"(1e-05, 0.0, 0.0, 0.0, 0.0, 0.0, 0.0, 1e-05, 0.0, 0.0, 0.0, 0.0, 0.0, 0.0, 1000000000000.0, 0.0, 0.0, 0.0, 0.0, 0.0, 0.0, 1000000000000.0, 0.0, 0.0, 0.0, 0.0, 0.0, 0.0, 1000000000000.0, 0.0, 0.0, 0.0, 0.0, 0.0, 0.0, 0.001)",0.2067156628348856,-8.338339212804469e-05,0.0,0.0,0.0,0.0405714757267024,"(0.0, 0.0, 0.0, 0.0, 0.0, 0.0, 0.0, 0.0, 0.0, 0.0, 0.0, 0.0, 0.0, 0.0, 0.0, 0.0, 0.0, 0.0, 0.0, 0.0, 0.0, 0.0, 0.0, 0.0, 0.0, 0.0, 0.0, 0.0, 0.0, 0.0, 0.0, 0.0, 0.0, 0.0, 0.0, 0.0)",0.2199999988079071,0.0,0.0,0.0,0.0,0.0058806398883461,69,2,585000000,base_footprint,0.0035691083046142,0.001454265711673,-0.9270017352818096,0.3750372373000631,0.0,0.0,0.0,0.0,0.0,0.0,0.0,0.0,0.0,0.0009222735778572,-0.0026861367758928,0.0612923087030876,0.0,0.0,0.0,0.0,0.0,0.0,0.0,0.0,0.0,-0.0225967388336018,-0.0073803557546651,0.0033458310209811,0.0,0.0,0.0,0.0,0.0,0.0,0.0,0.0,0.0
2.6189999999999998,-2.3702888815070327,-0.0051112454319235945,-0.004960675164433714,0.002423949622524457,-2.3304897583238713,0.2245060528859249,-0.15461713921359826,-0.16277748014949883,0.005616048409873786,0.5384111992274491,-1.6486788197221345,-0.0051481737387604545,-0.0054210380866498075,0.0001870144120487971,71.0,2.0,559000000.0,odom,base_footprint,-0.1760846605462789,-0.1646631408566174,-0.0010034597887106,0.0035842674437861,0.001456408550076,-0.9272451662351012,0.3744348188866332,"(1e-05, 0.0, 0.0, 0.0, 0.0, 0.0, 0.0, 1e-05, 0.0, 0.0, 0.0, 0.0, 0.0, 0.0, 1000000000000.0, 0.0, 0.0, 0.0, 0.0, 0.0, 0.0, 1000000000000.0, 0.0, 0.0, 0.0, 0.0, 0.0, 0.0, 1000000000000.0, 0.0, 0.0, 0.0, 0.0, 0.0, 0.0, 0.001)",0.2067156628348856,-8.338339212804469e-05,0.0,0.0,0.0,0.0405714757267024,"(0.0, 0.0, 0.0, 0.0, 0.0, 0.0, 0.0, 0.0, 0.0, 0.0, 0.0, 0.0, 0.0, 0.0, 0.0, 0.0, 0.0, 0.0, 0.0, 0.0, 0.0, 0.0, 0.0, 0.0, 0.0, 0.0, 0.0, 0.0, 0.0, 0.0, 0.0, 0.0, 0.0, 0.0, 0.0, 0.0)",0.2199999988079071,0.0,0.0,0.0,0.0,0.0058806398883461,69,2,585000000,base_footprint,0.0035691083046142,0.001454265711673,-0.9270017352818096,0.3750372373000631,0.0,0.0,0.0,0.0,0.0,0.0,0.0,0.0,0.0,0.0009222735778572,-0.0026861367758928,0.0612923087030876,0.0,0.0,0.0,0.0,0.0,0.0,0.0,0.0,0.0,-0.0225967388336018,-0.0073803557546651,0.0033458310209811,0.0,0.0,0.0,0.0,0.0,0.0,0.0,0.0,0.0
2.653,-2.368745171439126,-0.005256675941380101,-0.005121215750665681,0.001543710067906545,-2.3303027439118225,0.21780179151946305,-0.14997038446986188,-0.15794462374848173,0.0031076415318863635,-0.2013291701640195,-0.07532753387349617,-0.004993673624927153,-0.0052598789485884916,0.00010348446301181591,72.0,2.0,593000000.0,odom,base_footprint,-0.1811369640582684,-0.1695578873010197,-0.0010008528078183,0.0035680429866649,0.0014476678770257,-0.9268932205532864,0.3753053836801711,"(1e-05, 0.0, 0.0, 0.0, 0.0, 0.0, 0.0, 1e-05, 0.0, 0.0, 0.0, 0.0, 0.0, 0.0, 1000000000000.0, 0.0, 0.0, 0.0, 0.0, 0.0, 0.0, 1000000000000.0, 0.0, 0.0, 0.0, 0.0, 0.0, 0.0, 1000000000000.0, 0.0, 0.0, 0.0, 0.0, 0.0, 0.0, 0.001)",0.2081846513616885,0.0001649642626316,0.0,0.0,0.0,0.0670005153609499,"(0.0, 0.0, 0.0, 0.0, 0.0, 0.0, 0.0, 0.0, 0.0, 0.0, 0.0, 0.0, 0.0, 0.0, 0.0, 0.0, 0.0, 0.0, 0.0, 0.0, 0.0, 0.0, 0.0, 0.0, 0.0, 0.0, 0.0, 0.0, 0.0, 0.0, 0.0, 0.0, 0.0, 0.0, 0.0, 0.0)",0.2199999988079071,0.0001649642654228,0.0,0.0,0.0,-0.0232558883726596,71,2,653000000,base_footprint,0.0035800199645383,0.0014614690875429,-0.9262558630705212,0.376875475047984,0.0,0.0,0.0,0.0,0.0,0.0,0.0,0.0,0.0,-0.0019998373892056,-0.0016675039527321,0.0098171237232256,0.0,0.0,0.0,0.0,0.0,0.0,0.0,0.0,0.0,-0.0039607416295276,0.1922812466203577,-0.0011766513106256,0.0,0.0,0.0,0.0,0.0,0.0,0.0,0.0,0.0
2.6870000000000003,-2.369255177779517,-0.00534443352665151,-0.005212609358166698,-0.0005100063403911115,-2.3301992594488103,0.21748924200369335,-0.14973885209049925,-0.15773346684188702,0.005024648969747929,-0.009385871344435436,0.057567790926773735,-0.004985796384077645,-0.005253006061379404,0.00016732081069260605,74.0,2.0,659000000.0,odom,base_footprint,-0.1912632910165711,-0.179411338940512,-0.0010038186847598,0.003583223083834,0.0014664893387189,-0.926247441404034,0.3768961225773375,"(1e-05, 0.0, 0.0, 0.0, 0.0, 0.0, 0.0, 1e-05, 0.0, 0.0, 0.0, 0.0, 0.0, 0.0, 1000000000000.0, 0.0, 0.0, 0.0, 0.0, 0.0, 0.0, 1000000000000.0, 0.0, 0.0, 0.0, 0.0, 0.0, 0.0, 1000000000000.0, 0.0, 0.0, 0.0, 0.0, 0.0, 0.0, 0.001)",0.2195356518584917,8.439779592636643e-05,0.0,0.0,0.0,0.0058127233297951,"(0.0, 0.0, 0.0, 0.0, 0.0, 0.0, 0.0, 0.0, 0.0, 0.0, 0.0, 0.0, 0.0, 0.0, 0.0, 0.0, 0.0, 0.0, 0.0, 0.0, 0.0, 0.0, 0.0, 0.0, 0.0, 0.0, 0.0, 0.0, 0.0, 0.0, 0.0, 0.0, 0.0, 0.0, 0.0, 0.0)",0.2199999988079071,0.0001649642654228,0.0,0.0,0.0,-0.0232558883726596,72,2,687000000,base_footprint,0.0035801546950438,0.0014653683448457,-0.9263519250334604,0.3766392785873187,0.0,0.0,0.0,0.0,0.0,0.0,0.0,0.0,0.0,0.0002582030841987,2.745912421093132e-05,-0.0212658911686061,0.0,0.0,0.0,0.0,0.0,0.0,0.0,0.0,0.0,0.0017301510660224,0.0184804485214502,0.0045351907779243,0.0,0.0,0.0,0.0,0.0,0.0,0.0,0.0,0.0
2.721,-2.3699903988788376,-0.005353559766625299,-0.005212887303624819,-0.0007352210993203379,-2.3300319386381183,0.2240776562965734,-0.15424770612211264,-0.1625375070789252,-0.021768034236085025,0.19785027906546665,-0.8045850812562447,-0.005138339879527594,-0.005410703325619925,-0.0007248755400616314,74.0,2.0,659000000.0,odom,base_footprint,-0.1912632910165711,-0.179411338940512,-0.0010038186847598,0.003583223083834,0.0014664893387189,-0.926247441404034,0.3768961225773375,"(1e-05, 0.0, 0.0, 0.0, 0.0, 0.0, 0.0, 1e-05, 0.0, 0.0, 0.0, 0.0, 0.0, 0.0, 1000000000000.0, 0.0, 0.0, 0.0, 0.0, 0.0, 0.0, 1000000000000.0, 0.0, 0.0, 0.0, 0.0, 0.0, 0.0, 1000000000000.0, 0.0, 0.0, 0.0, 0.0, 0.0, 0.0, 0.001)",0.2195356518584917,8.439779592636643e-05,0.0,0.0,0.0,0.0058127233297951,"(0.0, 0.0, 0.0, 0.0, 0.0, 0.0, 0.0, 0.0, 0.0, 0.0, 0.0, 0.0, 0.0, 0.0, 0.0, 0.0, 0.0, 0.0, 0.0, 0.0, 0.0, 0.0, 0.0, 0.0, 0.0, 0.0, 0.0, 0.0, 0.0, 0.0, 0.0, 0.0, 0.0, 0.0, 0.0, 0.0)",0.2199999988079071,0.0001649642654228,0.0,0.0,0.0,-0.0232558883726596,73,2,721000000,base_footprint,0.0035773528752867,0.0014621730476217,-0.9264903333504458,0.3762987201739654,0.0,0.0,0.0,0.0,0.0,0.0,0.0,0.0,0.0,0.0004981962324679,0.0002069950201564,-0.0218062890303628,0.0,0.0,0.0,0.0,0.0,0.0,0.0,0.0,0.0,0.0044471074706732,0.0058806645509349,0.0005698896334157,0.0,0.0,0.0,0.0,0.0,0.0,0.0,0.0,0.0
2.755,-2.3707407901762503,-0.005361863046724397,-0.005213438879546284,-0.0007503912974127225,-2.3307568141781796,0.2176104615140362,-0.14991028110033502,-0.15773782228993266,-0.021493346335603392,-0.19421005352964513,0.008248885900349334,-0.004993823764490095,-0.005250947158962717,-0.000715728432975593,76.0,2.0,726000000.0,odom,base_footprint,-0.2018073386710238,-0.1896843754954764,-0.001002867423007,0.0035769865636814,0.0014615594981177,-0.9265150225577458,0.3762379326779484,"(1e-05, 0.0, 0.0, 0.0, 0.0, 0.0, 0.0, 1e-05, 0.0, 0.0, 0.0, 0.0, 0.0, 0.0, 1000000000000.0, 0.0, 0.0, 0.0, 0.0, 0.0, 0.0, 1000000000000.0, 0.0, 0.0, 0.0, 0.0, 0.0, 0.0, 1000000000000.0, 0.0, 0.0, 0.0, 0.0, 0.0, 0.0, 0.001)",0.2198952115034201,3.5610936075000654e-05,0.0,0.0,0.0,-0.0218931947042764,"(0.0, 0.0, 0.0, 0.0, 0.0, 0.0, 0.0, 0.0, 0.0, 0.0, 0.0, 0.0, 0.0, 0.0, 0.0, 0.0, 0.0, 0.0, 0.0, 0.0, 0.0, 0.0, 0.0, 0.0, 0.0, 0.0, 0.0, 0.0, 0.0, 0.0, 0.0, 0.0, 0.0, 0.0, 0.0, 0.0)",0.2199999988079071,3.561093762982637e-05,0.0,0.0,0.0,-0.0136880595237016,74,2,755000000,base_footprint,0.0035759536854314,0.0014591538218376,-0.926631463702556,0.3759510791337381,0.0,0.0,0.0,0.0,0.0,0.0,0.0,0.0,0.0,0.00040042711527,0.0001898974977925,-0.0222958123045769,0.0,0.0,0.0,0.0,0.0,0.0,0.0,0.0,0.0,0.0050044180150504,0.0056150168509467,-0.0001327924405997,0.0,0.0,0.0,0.0,0.0,0.0,0.0,0.0,0.0
2.789,-2.3712383947656948,-0.005368409751209002,-0.0052128469010408185,-0.000497604589444478,-2.331472542611155,0.21778747291026035,-0.1501451738183595,-0.15775870858907284,-0.021913000797053647,0.005315657544268514,-0.012602236079587235,-0.0050016826214447,-0.00525160502236262,-0.0007297029265418866,76.0,2.0,726000000.0,odom,base_footprint,-0.2018073386710238,-0.1896843754954764,-0.001002867423007,0.0035769865636814,0.0014615594981177,-0.9265150225577458,0.3762379326779484,"(1e-05, 0.0, 0.0, 0.0, 0.0, 0.0, 0.0, 1e-05, 0.0, 0.0, 0.0, 0.0, 0.0, 0.0, 1000000000000.0, 0.0, 0.0, 0.0, 0.0, 0.0, 0.0, 1000000000000.0, 0.0, 0.0, 0.0, 0.0, 0.0, 0.0, 1000000000000.0, 0.0, 0.0, 0.0, 0.0, 0.0, 0.0, 0.001)",0.2198952115034201,3.5610936075000654e-05,0.0,0.0,0.0,-0.0218931947042764,"(0.0, 0.0, 0.0, 0.0, 0.0, 0.0, 0.0, 0.0, 0.0, 0.0, 0.0, 0.0, 0.0, 0.0, 0.0, 0.0, 0.0, 0.0, 0.0, 0.0, 0.0, 0.0, 0.0, 0.0, 0.0, 0.0, 0.0, 0.0, 0.0, 0.0, 0.0, 0.0, 0.0, 0.0, 0.0, 0.0)",0.2199999988079071,3.561093762982637e-05,0.0,0.0,0.0,-0.0136880595237016,75,2,789000000,base_footprint,0.003575799285702,0.0014575753116052,-0.926724975803606,0.3757205189439157,0.0,0.0,0.0,0.0,0.0,0.0,0.0,0.0,0.0,0.0002607334740221,0.0001251964068802,-0.0132219376387677,0.0,0.0,0.0,0.0,0.0,0.0,0.0,0.0,0.0,0.0034263389907084,0.0031667840967495,-0.0001410039165038,0.0,0.0,0.0,0.0,0.0,0.0,0.0,0.0,0.0
2.823,-2.3716970512214863,-0.0053750796521876976,-0.00521450537264348,-0.00045865645579157294,-2.3322022455376974,0.2245813360730891,-0.1549476075837235,-0.16256695671769902,-0.013519203484814958,0.2040199147996625,0.2520659853525132,-0.005160903703774518,-0.005412384790700727,-0.00045018947604433815,78.0,2.0,793000000.0,odom,base_footprint,-0.2123820246911731,-0.1999573975698991,-0.0010025071087017,0.0035759007349426,0.0014574371871692,-0.9267374489038238,0.3756897518032823,"(1e-05, 0.0, 0.0, 0.0, 0.0, 0.0, 0.0, 1e-05, 0.0, 0.0, 0.0, 0.0, 0.0, 0.0, 1000000000000.0, 0.0, 0.0, 0.0, 0.0, 0.0, 0.0, 1000000000000.0, 0.0, 0.0, 0.0, 0.0, 0.0, 0.0, 1000000000000.0, 0.0, 0.0, 0.0, 0.0, 0.0, 0.0, 0.001)",0.2201967165313526,3.090295394958531e-05,0.0,0.0,0.0,-0.0132981351524147,"(0.0, 0.0, 0.0, 0.0, 0.0, 0.0, 0.0, 0.0, 0.0, 0.0, 0.0, 0.0, 0.0, 0.0, 0.0, 0.0, 0.0, 0.0, 0.0, 0.0, 0.0, 0.0, 0.0, 0.0, 0.0, 0.0, 0.0, 0.0, 0.0, 0.0, 0.0, 0.0, 0.0, 0.0, 0.0, 0.0)",0.2199999988079071,3.561093762982637e-05,0.0,0.0,0.0,-0.0136880595237016,76,2,823000000,base_footprint,0.0035769982842589,0.0014569469137305,-0.9268111118401342,0.3755079830824097,0.0,0.0,0.0,0.0,0.0,0.0,0.0,0.0,0.0,0.0001883514287693,0.0001164701967818,-0.0137164471609223,0.0,0.0,0.0,0.0,0.0,0.0,0.0,0.0,0.0,0.0032828721112941,0.0056608080292343,-0.0001151079969513,0.0,0.0,0.0,0.0,0.0,0.0,0.0,0.0,0.0
2.857,-2.372172344822819,-0.005382253333854198,-0.005216394196275398,-0.0004752936013328046,-2.3326524350137414,0.21815638034368476,-0.15058585168745314,-0.1578483688741281,-0.013366936510576436,-0.1929416134956262,0.004572581808964604,-0.005015610577726107,-0.005255299352863958,-0.0004451189858021954,79.0,2.0,826000000.0,odom,base_footprint,-0.2175999372254877,-0.2050187883346407,-0.0010026418130036,0.0035772283668981,0.0014569254020398,-0.9268214478960454,0.3754824689988363,"(1e-05, 0.0, 0.0, 0.0, 0.0, 0.0, 0.0, 1e-05, 0.0, 0.0, 0.0, 0.0, 0.0, 0.0, 1000000000000.0, 0.0, 0.0, 0.0, 0.0, 0.0, 0.0, 1000000000000.0, 0.0, 0.0, 0.0, 0.0, 0.0, 0.0, 1000000000000.0, 0.0, 0.0, 0.0, 0.0, 0.0, 0.0, 0.001)",0.220386153377893,2.7049034687809392e-05,0.0,0.0,0.0,-0.0137753257057019,"(0.0, 0.0, 0.0, 0.0, 0.0, 0.0, 0.0, 0.0, 0.0, 0.0, 0.0, 0.0, 0.0, 0.0, 0.0, 0.0, 0.0, 0.0, 0.0, 0.0, 0.0, 0.0, 0.0, 0.0, 0.0, 0.0, 0.0, 0.0, 0.0, 0.0, 0.0, 0.0, 0.0, 0.0, 0.0, 0.0)",0.2199999988079071,3.090295285801403e-05,0.0,0.0,0.0,0.0277275033295154,77,2,857000000,base_footprint,0.0035796239308404,0.0014571412363283,-0.926900314797623,0.3752877155729968,0.0,0.0,0.0,0.0,0.0,0.0,0.0,0.0,0.0,9.106910203592943e-05,0.000108011171397,-0.0142048795698969,0.0,0.0,0.0,0.0,0.0,0.0,0.0,0.0,0.0,0.0033960614135569,0.0054865560390126,-0.0001720042697706,0.0,0.0,0.0,0.0,0.0,0.0,0.0,0.0,0.0
2.891,-2.371420658747199,-0.005378830533689705,-0.005212652239727611,0.0007516860756200394,-2.3330975539995435,0.21833337490612598,-0.15077832832886648,-0.15790933570961377,-0.013823638630881305,0.005315152025261812,-0.013714778387533582,-0.00502206044944821,-0.005257290013770447,-0.0004603271664083475,79.0,2.0,826000000.0,odom,base_footprint,-0.2175999372254877,-0.2050187883346407,-0.0010026418130036,0.0035772283668981,0.0014569254020398,-0.9268214478960454,0.3754824689988363,"(1e-05, 0.0, 0.0, 0.0, 0.0, 0.0, 0.0, 1e-05, 0.0, 0.0, 0.0, 0.0, 0.0, 0.0, 1000000000000.0, 0.0, 0.0, 0.0, 0.0, 0.0, 0.0, 1000000000000.0, 0.0, 0.0, 0.0, 0.0, 0.0, 0.0, 1000000000000.0, 0.0, 0.0, 0.0, 0.0, 0.0, 0.0, 0.001)",0.220386153377893,2.7049034687809392e-05,0.0,0.0,0.0,-0.0137753257057019,"(0.0, 0.0, 0.0, 0.0, 0.0, 0.0, 0.0, 0.0, 0.0, 0.0, 0.0, 0.0, 0.0, 0.0, 0.0, 0.0, 0.0, 0.0, 0.0, 0.0, 0.0, 0.0, 0.0, 0.0, 0.0, 0.0, 0.0, 0.0, 0.0, 0.0, 0.0, 0.0, 0.0, 0.0, 0.0, 0.0)",0.2199999988079071,3.090295285801403e-05,0.0,0.0,0.0,0.0277275033295154,78,2,891000000,base_footprint,0.0035829086098012,0.0014604276474393,-0.9267591841809516,0.375636053186109,0.0,0.0,0.0,0.0,0.0,0.0,0.0,0.0,0.0,-0.0002876419341689,-0.0001220547284619,0.026780621646597,0.0,0.0,0.0,0.0,0.0,0.0,0.0,0.0,0.0,-0.0046471607549973,-0.0056684731961662,-0.0003961189755174,0.0,0.0,0.0,0.0,0.0,0.0,0.0,0.0,0.0
2.925,-2.370519044261079,-0.005377104766407292,-0.005219596591691494,0.0009016144861200283,-2.333557881165952,0.22513750464706253,-0.15555211496090945,-0.16275882627339788,0.026718783993574913,0.20432822044854515,1.217490168902589,-0.005177403492328383,-0.005422239525671192,0.0008897355069860447,81.0,2.0,893000000.0,odom,base_footprint,-0.2282026456703907,-0.2152945233977176,-0.0010035911379056,0.0035833363154841,0.0014608154347318,-0.9267441130370596,0.3756732285780686,"(1e-05, 0.0, 0.0, 0.0, 0.0, 0.0, 0.0, 1e-05, 0.0, 0.0, 0.0, 0.0, 0.0, 0.0, 1000000000000.0, 0.0, 0.0, 0.0, 0.0, 0.0, 0.0, 1000000000000.0, 0.0, 0.0, 0.0, 0.0, 0.0, 0.0, 1000000000000.0, 0.0, 0.0, 0.0, 0.0, 0.0, 0.0, 0.001)",0.2203679939814668,5.469469570834606e-06,0.0,0.0,0.0,0.0267364489283122,"(0.0, 0.0, 0.0, 0.0, 0.0, 0.0, 0.0, 0.0, 0.0, 0.0, 0.0, 0.0, 0.0, 0.0, 0.0, 0.0, 0.0, 0.0, 0.0, 0.0, 0.0, 0.0, 0.0, 0.0, 0.0, 0.0, 0.0, 0.0, 0.0, 0.0, 0.0, 0.0, 0.0, 0.0, 0.0, 0.0)",0.2199999988079071,3.090295285801403e-05,0.0,0.0,0.0,0.0277275033295154,79,2,925000000,base_footprint,0.0035863717640973,0.0014640480697429,-0.926589733691572,0.3760537992338341,0.0,0.0,0.0,0.0,0.0,0.0,0.0,0.0,0.0,-0.0001924105729712,-0.0001570212771558,0.0261370495308627,0.0,0.0,0.0,0.0,0.0,0.0,0.0,0.0,0.0,-0.0038958174748726,0.004326344334153,-4.927046433594765e-05,0.0,0.0,0.0,0.0,0.0,0.0,0.0,0.0,0.0
2.959,-2.3696322745885334,-0.005375887307857208,-0.005225077194161404,0.0008867696725456398,-2.3317831115428884,0.21852888254612604,-0.15070546457770265,-0.15824896667364804,0.02597205871724351,-0.0013380254113640813,-0.018184455440566516,-0.005016144363835896,-0.005271924979971311,0.000864869555284209,81.0,2.0,893000000.0,odom,base_footprint,-0.2282026456703907,-0.2152945233977176,-0.0010035911379056,0.0035833363154841,0.0014608154347318,-0.9267441130370596,0.3756732285780686,"(1e-05, 0.0, 0.0, 0.0, 0.0, 0.0, 0.0, 1e-05, 0.0, 0.0, 0.0, 0.0, 0.0, 0.0, 1000000000000.0, 0.0, 0.0, 0.0, 0.0, 0.0, 0.0, 1000000000000.0, 0.0, 0.0, 0.0, 0.0, 0.0, 0.0, 1000000000000.0, 0.0, 0.0, 0.0, 0.0, 0.0, 0.0, 0.001)",0.2203679939814668,5.469469570834606e-06,0.0,0.0,0.0,0.0267364489283122,"(0.0, 0.0, 0.0, 0.0, 0.0, 0.0, 0.0, 0.0, 0.0, 0.0, 0.0, 0.0, 0.0, 0.0, 0.0, 0.0, 0.0, 0.0, 0.0, 0.0, 0.0, 0.0, 0.0, 0.0, 0.0, 0.0, 0.0, 0.0, 0.0, 0.0, 0.0, 0.0, 0.0, 0.0, 0.0, 0.0)",0.2199999988079071,5.469469670060789e-06,0.0,0.0,0.0,-0.0142891891300678,80,2,959000000,base_footprint,0.0035881673234158,0.0014669276339186,-0.9264228957804304,0.3764645950848203,0.0,0.0,0.0,0.0,0.0,0.0,0.0,0.0,0.0,-0.0001499523094521,-0.0001416799810641,0.0259751079766267,0.0,0.0,0.0,0.0,0.0,0.0,0.0,0.0,0.0,-0.0050180549812133,-0.0014035297198148,3.802386060427839e-05,0.0,0.0,0.0,0.0,0.0,0.0,0.0,0.0,0.0
2.9930000000000003,-2.3701185272303635,-0.005374008656568091,-0.005226599938427612,-0.0004862526418301094,-2.3309182419876042,0.22499329918451189,-0.1550225899877016,-0.1630643470272893,-0.015182698848540567,0.19412662577735268,-1.2358786055791013,-0.005163554485053928,-0.005428804331863971,-0.0005055838716564009,83.0,2.0,959000000.0,odom,base_footprint,-0.238639180892839,-0.2254326093337265,-0.0010044909368126,0.0035881986230745,0.0014670036517303,-0.9264180057091392,0.3764766279981121,"(1e-05, 0.0, 0.0, 0.0, 0.0, 0.0, 0.0, 1e-05, 0.0, 0.0, 0.0, 0.0, 0.0, 0.0, 1000000000000.0, 0.0, 0.0, 0.0, 0.0, 0.0, 0.0, 1000000000000.0, 0.0, 0.0, 0.0, 0.0, 0.0, 0.0, 1000000000000.0, 0.0, 0.0, 0.0, 0.0, 0.0, 0.0, 0.001)",0.2204403918270047,-8.03613307519685e-05,0.0,0.0,0.0,0.0259694526877015,"(0.0, 0.0, 0.0, 0.0, 0.0, 0.0, 0.0, 0.0, 0.0, 0.0, 0.0, 0.0, 0.0, 0.0, 0.0, 0.0, 0.0, 0.0, 0.0, 0.0, 0.0, 0.0, 0.0, 0.0, 0.0, 0.0, 0.0, 0.0, 0.0, 0.0, 0.0, 0.0, 0.0, 0.0, 0.0, 0.0)",0.2199999988079071,5.469469670060789e-06,0.0,0.0,0.0,-0.0142891891300678,81,2,993000000,base_footprint,0.0035877604550245,0.0014674817384819,-0.9265143951042032,0.3762393521908061,0.0,0.0,0.0,0.0,0.0,0.0,0.0,0.0,0.0,0.0004399309417907,-5.815190891375729e-07,-0.0143149642591306,0.0,0.0,0.0,0.0,0.0,0.0,0.0,0.0,0.0,0.002560230947065,-0.0063507846626735,0.0006448798253087,0.0,0.0,0.0,0.0,0.0,0.0,0.0,0.0,0.0
3.027,-2.370833593621481,-0.0053611633972038,-0.005205856992107405,-0.0007150663911175137,-2.3314238258592606,0.21811059105025124,-0.15036023808552415,-0.15800009092134862,-0.01517962387968445,-0.20668793195977914,9.234140709061083e-05,-0.005008257453865835,-0.005260202106167987,-0.0005054814751934922,85.0,3.0,26000000.0,odom,base_footprint,-0.2492163509848338,-0.2357113651965813,-0.00100353683831,0.0035816784141302,0.0014638083935916,-0.9266488787691546,0.375908079616006,"(1e-05, 0.0, 0.0, 0.0, 0.0, 0.0, 0.0, 1e-05, 0.0, 0.0, 0.0, 0.0, 0.0, 0.0, 1000000000000.0, 0.0, 0.0, 0.0, 0.0, 0.0, 0.0, 1000000000000.0, 0.0, 0.0, 0.0, 0.0, 0.0, 0.0, 1000000000000.0, 0.0, 0.0, 0.0, 0.0, 0.0, 0.0, 0.001)",0.2188303623525186,-1.127402240488906e-05,0.0,0.0,0.0,-0.031756565332141,"(0.0, 0.0, 0.0, 0.0, 0.0, 0.0, 0.0, 0.0, 0.0, 0.0, 0.0, 0.0, 0.0, 0.0, 0.0, 0.0, 0.0, 0.0, 0.0, 0.0, 0.0, 0.0, 0.0, 0.0, 0.0, 0.0, 0.0, 0.0, 0.0, 0.0, 0.0, 0.0, 0.0, 0.0, 0.0, 0.0)",0.2199999988079071,5.469469670060789e-06,0.0,0.0,0.0,-0.0142891891300678,82,3,27000000,base_footprint,0.0035816784141302,0.0014638083935916,-0.9266488787691546,0.375908079616006,0.0,0.0,0.0,0.0,0.0,0.0,0.0,0.0,0.0,0.0004848494024072,0.0002305189228065,-0.0317535852004035,0.0,0.0,0.0,0.0,0.0,0.0,0.0,0.0,0.0,0.0018413792002595,-0.0413336270573883,-0.0002333884528238,0.0,0.0,0.0,0.0,0.0,0.0,0.0,0.0,0.0
3.061,-2.3715934793249476,-0.005315434073088876,-0.005161597770705295,-0.0007598857034665231,-2.3319293073344536,0.21777114292274444,-0.15020595328406552,-0.1576782873064758,-0.015406636076872943,-0.010193637462666752,-0.006817183098753554,-0.005003137040516111,-0.005249468365997938,-0.0005130409813598691,85.0,3.0,26000000.0,odom,base_footprint,-0.2492163509848338,-0.2357113651965813,-0.00100353683831,0.0035816784141302,0.0014638083935916,-0.9266488787691546,0.375908079616006,"(1e-05, 0.0, 0.0, 0.0, 0.0, 0.0, 0.0, 1e-05, 0.0, 0.0, 0.0, 0.0, 0.0, 0.0, 1000000000000.0, 0.0, 0.0, 0.0, 0.0, 0.0, 0.0, 1000000000000.0, 0.0, 0.0, 0.0, 0.0, 0.0, 0.0, 1000000000000.0, 0.0, 0.0, 0.0, 0.0, 0.0, 0.0, 0.001)",0.2188303623525186,-1.127402240488906e-05,0.0,0.0,0.0,-0.031756565332141,"(0.0, 0.0, 0.0, 0.0, 0.0, 0.0, 0.0, 0.0, 0.0, 0.0, 0.0, 0.0, 0.0, 0.0, 0.0, 0.0, 0.0, 0.0, 0.0, 0.0, 0.0, 0.0, 0.0, 0.0, 0.0, 0.0, 0.0, 0.0, 0.0, 0.0, 0.0, 0.0, 0.0, 0.0, 0.0, 0.0)",0.2199999988079071,0.0,0.0,0.0,0.0,-0.0399616919457912,83,3,61000000,base_footprint,0.0035864572122946,0.0014607623977612,-0.9267916282892223,0.3755559628482736,0.0,0.0,0.0,0.0,0.0,0.0,0.0,0.0,0.0,-0.0009569317658734,0.0020029543702908,-0.0092790877042641,0.0,0.0,0.0,0.0,0.0,0.0,0.0,0.0,0.0,0.0017096447894785,-0.0281279412178986,-0.0020436433049169,0.0,0.0,0.0,0.0,0.0,0.0,0.0,0.0,0.0
3.095,-2.372582984354074,-0.005340342937251996,-0.0051775759649733966,-0.0009895050291266472,-2.332442348315814,0.22401895294621446,-0.15459852764678728,-0.16212275142176624,-0.0402614829126397,0.18762192262672742,-0.7463917968698726,-0.005151678678679834,-0.005395301566215065,-0.0013407073809909022,86.0,3.0,59000000.0,odom,base_footprint,-0.254375414127356,-0.2407212437180355,-0.0010039529343198,0.0035855650373582,0.0014614513237542,-0.9267898911959154,0.3755602554324069,"(1e-05, 0.0, 0.0, 0.0, 0.0, 0.0, 0.0, 1e-05, 0.0, 0.0, 0.0, 0.0, 0.0, 0.0, 1000000000000.0, 0.0, 0.0, 0.0, 0.0, 0.0, 0.0, 1000000000000.0, 0.0, 0.0, 0.0, 0.0, 0.0, 0.0, 1000000000000.0, 0.0, 0.0, 0.0, 0.0, 0.0, 0.0, 0.001)",0.2178553033908973,2.199972779821924e-05,0.0,0.0,0.0,-0.0085954175323038,"(0.0, 0.0, 0.0, 0.0, 0.0, 0.0, 0.0, 0.0, 0.0, 0.0, 0.0, 0.0, 0.0, 0.0, 0.0, 0.0, 0.0, 0.0, 0.0, 0.0, 0.0, 0.0, 0.0, 0.0, 0.0, 0.0, 0.0, 0.0, 0.0, 0.0, 0.0, 0.0, 0.0, 0.0, 0.0, 0.0)",0.2199999988079071,0.0,0.0,0.0,0.0,-0.0399616919457912,84,3,95000000,base_footprint,0.0035899153661872,0.0014634123604765,-0.9269773025315724,0.3750973893846995,0.0,0.0,0.0,0.0,0.0,0.0,0.0,0.0,0.0,0.0003666561605259,7.676593734429357e-05,-0.0424052996132263,0.0,0.0,0.0,0.0,0.0,0.0,0.0,0.0,0.0,0.0066994564180787,0.0595310029461009,0.0020747765370223,0.0,0.0,0.0,0.0,0.0,0.0,0.0,0.0,0.0
3.129,-2.3738857415580976,-0.005368473177322808,-0.005190249754848192,-0.001302757204023397,-2.333783055696805,0.21744956463681644,-0.15027575353154426,-0.15716714370779786,-0.03879309128875976,-0.19727892821015064,0.04409584456095916,-0.005007494003307579,-0.005230496968364914,-0.0012918099399157,86.0,3.0,59000000.0,odom,base_footprint,-0.254375414127356,-0.2407212437180355,-0.0010039529343198,0.0035855650373582,0.0014614513237542,-0.9267898911959154,0.3755602554324069,"(1e-05, 0.0, 0.0, 0.0, 0.0, 0.0, 0.0, 1e-05, 0.0, 0.0, 0.0, 0.0, 0.0, 0.0, 1000000000000.0, 0.0, 0.0, 0.0, 0.0, 0.0, 0.0, 1000000000000.0, 0.0, 0.0, 0.0, 0.0, 0.0, 0.0, 1000000000000.0, 0.0, 0.0, 0.0, 0.0, 0.0, 0.0, 0.001)",0.2178553033908973,2.199972779821924e-05,0.0,0.0,0.0,-0.0085954175323038,"(0.0, 0.0, 0.0, 0.0, 0.0, 0.0, 0.0, 0.0, 0.0, 0.0, 0.0, 0.0, 0.0, 0.0, 0.0, 0.0, 0.0, 0.0, 0.0, 0.0, 0.0, 0.0, 0.0, 0.0, 0.0, 0.0, 0.0, 0.0, 0.0, 0.0, 0.0, 0.0, 0.0, 0.0, 0.0, 0.0)",0.2199999988079071,0.0,0.0,0.0,0.0,-0.0399616919457912,85,3,129000000,base_footprint,0.0035870409013706,0.0014588953839731,-0.927221452823039,0.3744935008602467,0.0,0.0,0.0,0.0,0.0,0.0,0.0,0.0,0.0,0.0005194644153297,9.696786448105938e-05,-0.0377355978890439,0.0,0.0,0.0,0.0,0.0,0.0,0.0,0.0,0.0,0.0107625419045001,-0.0076870329732329,0.0002486277933059,0.0,0.0,0.0,0.0,0.0,0.0,0.0,0.0,0.0
3.163,-2.375112299188685,-0.005378366883561303,-0.005185836483641126,-0.0012265576305874326,-2.3350748656367206,0.217464318506586,-0.15048886808489598,-0.15698353546171862,-0.03849149600042477,0.0004430591522392841,0.009056915565615302,-0.00501456061673451,-0.005224403510018687,-0.001281766816814145,88.0,3.0,126000000.0,odom,base_footprint,-0.2649245520090293,-0.250935634678994,-0.001004003586662,0.003587222467846,0.0014590570273948,-0.9272073159958598,0.3745284984501325,"(1e-05, 0.0, 0.0, 0.0, 0.0, 0.0, 0.0, 1e-05, 0.0, 0.0, 0.0, 0.0, 0.0, 0.0, 1000000000000.0, 0.0, 0.0, 0.0, 0.0, 0.0, 0.0, 1000000000000.0, 0.0, 0.0, 0.0, 0.0, 0.0, 0.0, 1000000000000.0, 0.0, 0.0, 0.0, 0.0, 0.0, 0.0, 0.001)",0.2196536709565874,3.4230055973319407e-05,0.0,0.0,0.0,-0.0377380797106896,"(0.0, 0.0, 0.0, 0.0, 0.0, 0.0, 0.0, 0.0, 0.0, 0.0, 0.0, 0.0, 0.0, 0.0, 0.0, 0.0, 0.0, 0.0, 0.0, 0.0, 0.0, 0.0, 0.0, 0.0, 0.0, 0.0, 0.0, 0.0, 0.0, 0.0, 0.0, 0.0, 0.0, 0.0, 0.0, 0.0)",0.2199999988079071,3.423005546210334e-05,0.0,0.0,0.0,0.0361080840229988,86,3,163000000,base_footprint,0.003583644912212,0.0014600973412013,-0.9274509501584256,0.3739248061510913,0.0,0.0,0.0,0.0,0.0,0.0,0.0,0.0,0.0,-0.0001748302798949,-0.001491342308046,0.0001293243361601,0.0,0.0,0.0,0.0,0.0,0.0,0.0,0.0,0.0,0.0055810047702969,-0.0111427402477316,0.0012199103025774,0.0,0.0,0.0,0.0,0.0,0.0,0.0,0.0,0.0
3.197,-2.37387220669564,-0.005365752942248003,-0.005172915245616194,0.0012400924930449084,-2.3363566324535348,0.224247878954737,-0.15539056842868587,-0.16168142273962174,0.037409258053419235,0.20371052396849795,2.2793019235388585,-0.005171081420034421,-0.005387279878762208,0.0012457282931788607,90.0,3.0,193000000.0,odom,base_footprint,-0.2755112572368688,-0.2611425112392871,-0.001002905059598,0.0035796227466814,0.0014556145436553,-0.92723988816795,0.3744479366715477,"(1e-05, 0.0, 0.0, 0.0, 0.0, 0.0, 0.0, 1e-05, 0.0, 0.0, 0.0, 0.0, 0.0, 0.0, 1000000000000.0, 0.0, 0.0, 0.0, 0.0, 0.0, 0.0, 1000000000000.0, 0.0, 0.0, 0.0, 0.0, 0.0, 0.0, 1000000000000.0, 0.0, 0.0, 0.0, 0.0, 0.0, 0.0, 0.001)",0.2193457839672363,1.690865610110004e-05,0.0,0.0,0.0,0.0373107925815726,"(0.0, 0.0, 0.0, 0.0, 0.0, 0.0, 0.0, 0.0, 0.0, 0.0, 0.0, 0.0, 0.0, 0.0, 0.0, 0.0, 0.0, 0.0, 0.0, 0.0, 0.0, 0.0, 0.0, 0.0, 0.0, 0.0, 0.0, 0.0, 0.0, 0.0, 0.0, 0.0, 0.0, 0.0, 0.0, 0.0)",0.2199999988079071,3.423005546210334e-05,0.0,0.0,0.0,0.0361080840229988,87,3,197000000,base_footprint,0.0035791989266246,0.001455588487213,-0.927218949220263,0.3744997874553081,0.0,0.0,0.0,0.0,0.0,0.0,0.0,0.0,0.0,0.0002437138052397,-0.000122096100613,0.037282645256202,0.0,0.0,0.0,0.0,0.0,0.0,0.0,0.0,0.0,-0.0054479465395259,0.0023146958072524,-0.0008110523399239,0.0,0.0,0.0,0.0,0.0,0.0,0.0,0.0,0.0
3.231,-2.3726110016399033,-0.0053648425844715075,-0.005185648797314202,0.0012612050557367915,-2.3351109041603557,0.21776411992608918,-0.15070200073114007,-0.15719452567699554,0.03682711816674019,-0.1947074783377721,-0.01748167827865,-0.005015097931705191,-0.005237718381037334,0.0012263430349524485,90.0,3.0,193000000.0,odom,base_footprint,-0.2755112572368688,-0.2611425112392871,-0.001002905059598,0.0035796227466814,0.0014556145436553,-0.92723988816795,0.3744479366715477,"(1e-05, 0.0, 0.0, 0.0, 0.0, 0.0, 0.0, 1e-05, 0.0, 0.0, 0.0, 0.0, 0.0, 0.0, 1000000000000.0, 0.0, 0.0, 0.0, 0.0, 0.0, 0.0, 1000000000000.0, 0.0, 0.0, 0.0, 0.0, 0.0, 0.0, 1000000000000.0, 0.0, 0.0, 0.0, 0.0, 0.0, 0.0, 0.001)",0.2193457839672363,1.690865610110004e-05,0.0,0.0,0.0,0.0373107925815726,"(0.0, 0.0, 0.0, 0.0, 0.0, 0.0, 0.0, 0.0, 0.0, 0.0, 0.0, 0.0, 0.0, 0.0, 0.0, 0.0, 0.0, 0.0, 0.0, 0.0, 0.0, 0.0, 0.0, 0.0, 0.0, 0.0, 0.0, 0.0, 0.0, 0.0, 0.0, 0.0, 0.0, 0.0, 0.0, 0.0)",0.2199999988079071,3.423005546210334e-05,0.0,0.0,0.0,0.0361080840229988,88,3,231000000,base_footprint,0.0035765314802118,0.0014563660313969,-0.926982613205694,0.3750844201441803,0.0,0.0,0.0,0.0,0.0,0.0,0.0,0.0,0.0,5.873997980345366e-05,-0.0001321254104326,0.0369264417114666,0.0,0.0,0.0,0.0,0.0,0.0,0.0,0.0,0.0,-0.0079122386894804,0.0059371425589382,-0.0003059411019243,0.0,0.0,0.0,0.0,0.0,0.0,0.0,0.0,0.0
3.265,-2.3715126909630007,-0.005363722099474499,-0.005197145781429657,0.001098310676902692,-2.3338845611254033,0.21794609139871682,-0.15063488383403356,-0.1575107314702241,0.036480780291570494,0.00546460878761665,-0.010400536791882756,-0.0050128866168892726,-0.005248217731194642,0.0012148099837092977,91.0,3.0,226000000.0,odom,base_footprint,-0.2807184999700416,-0.266174524675301,-0.0010025786059133,0.0035767592095343,0.0014562247278983,-0.9270103149456096,0.3750159492442163,"(1e-05, 0.0, 0.0, 0.0, 0.0, 0.0, 0.0, 1e-05, 0.0, 0.0, 0.0, 0.0, 0.0, 0.0, 1000000000000.0, 0.0, 0.0, 0.0, 0.0, 0.0, 0.0, 1000000000000.0, 0.0, 0.0, 0.0, 0.0, 0.0, 0.0, 1000000000000.0, 0.0, 0.0, 0.0, 0.0, 0.0, 0.0, 0.001)",0.2195280632665808,1.3622607678023813e-05,0.0,0.0,0.0,0.03696988488964,"(0.0, 0.0, 0.0, 0.0, 0.0, 0.0, 0.0, 0.0, 0.0, 0.0, 0.0, 0.0, 0.0, 0.0, 0.0, 0.0, 0.0, 0.0, 0.0, 0.0, 0.0, 0.0, 0.0, 0.0, 0.0, 0.0, 0.0, 0.0, 0.0, 0.0, 0.0, 0.0, 0.0, 0.0, 0.0, 0.0)",0.2199999988079071,1.3622608094010502e-05,0.0,0.0,0.0,-0.0040557566098868,89,3,265000000,base_footprint,0.0035749929876708,0.0014570610056532,-0.9267764992956828,0.3755934194732426,0.0,0.0,0.0,0.0,0.0,0.0,0.0,0.0,0.0,0.0003446595366504,-0.0002945775290476,-0.00237094161633,0.0,0.0,0.0,0.0,0.0,0.0,0.0,0.0,0.0,-0.0057824003098508,0.0125721239627391,-0.0001114390495368,0.0,0.0,0.0,0.0,0.0,0.0,0.0,0.0,0.0
3.299,-2.3716537139137146,-0.005374009466366403,-0.0052126665585174314,-0.00014102295071394266,-2.332669751141694,0.22473418054026886,-0.15512909680914672,-0.162605089792062,-0.003154602742663295,0.20384652076732865,-1.1902517427697834,-0.005166013291093117,-0.0054145449656847824,-0.00010504827133068772,91.0,3.0,226000000.0,odom,base_footprint,-0.2807184999700416,-0.266174524675301,-0.0010025786059133,0.0035767592095343,0.0014562247278983,-0.9270103149456096,0.3750159492442163,"(1e-05, 0.0, 0.0, 0.0, 0.0, 0.0, 0.0, 1e-05, 0.0, 0.0, 0.0, 0.0, 0.0, 0.0, 1000000000000.0, 0.0, 0.0, 0.0, 0.0, 0.0, 0.0, 1000000000000.0, 0.0, 0.0, 0.0, 0.0, 0.0, 0.0, 1000000000000.0, 0.0, 0.0, 0.0, 0.0, 0.0, 0.0, 0.001)",0.2195280632665808,1.3622607678023813e-05,0.0,0.0,0.0,0.03696988488964,"(0.0, 0.0, 0.0, 0.0, 0.0, 0.0, 0.0, 0.0, 0.0, 0.0, 0.0, 0.0, 0.0, 0.0, 0.0, 0.0, 0.0, 0.0, 0.0, 0.0, 0.0, 0.0, 0.0, 0.0, 0.0, 0.0, 0.0, 0.0, 0.0, 0.0, 0.0, 0.0, 0.0, 0.0, 0.0, 0.0)",0.2199999988079071,1.3622608094010502e-05,0.0,0.0,0.0,-0.0040557566098868,90,3,299000000,base_footprint,0.0035768625831565,0.0014577822317943,-0.9268029731156546,0.3755280681240872,0.0,0.0,0.0,0.0,0.0,0.0,0.0,0.0,0.0,0.0001227272848314,6.971869715499274e-05,-0.0040710332869761,0.0,0.0,0.0,0.0,0.0,0.0,0.0,0.0,0.0,7.818696296445996e-06,0.0097379777422387,-0.0001375266004484,0.0,0.0,0.0,0.0,0.0,0.0,0.0,0.0,0.0
3.333,-2.3718002320862155,-0.005379749187257421,-0.00521598641938209,-0.00014651817250088683,-2.332774799413025,0.2183108707413645,-0.15071181867021713,-0.15794171075738148,-0.004139482302671874,-0.19289218615328452,-0.029575962763020405,-0.005018998021481551,-0.005259177963839891,-0.00013784476067897343,93.0,3.0,293000000.0,odom,base_footprint,-0.2912966092060849,-0.2764282509112931,-0.0010026221142786,0.0035766089964519,0.001457740603046,-0.926799165661518,0.3755374673578321,"(1e-05, 0.0, 0.0, 0.0, 0.0, 0.0, 0.0, 1e-05, 0.0, 0.0, 0.0, 0.0, 0.0, 0.0, 1000000000000.0, 0.0, 0.0, 0.0, 0.0, 0.0, 0.0, 1000000000000.0, 0.0, 0.0, 0.0, 0.0, 0.0, 0.0, 1000000000000.0, 0.0, 0.0, 0.0, 0.0, 0.0, 0.0, 0.001)",0.2202743802833035,2.051135020343653e-05,0.0,0.0,0.0,-0.0040073998140777,"(0.0, 0.0, 0.0, 0.0, 0.0, 0.0, 0.0, 0.0, 0.0, 0.0, 0.0, 0.0, 0.0, 0.0, 0.0, 0.0, 0.0, 0.0, 0.0, 0.0, 0.0, 0.0, 0.0, 0.0, 0.0, 0.0, 0.0, 0.0, 0.0, 0.0, 0.0, 0.0, 0.0, 0.0, 0.0, 0.0)",0.2199999988079071,1.3622608094010502e-05,0.0,0.0,0.0,-0.0040557566098868,91,3,333000000,base_footprint,0.0035795378943553,0.0014585724711318,-0.9268304715072035,0.3754601664098924,0.0,0.0,0.0,0.0,0.0,0.0,0.0,0.0,0.0,2.0692596770508757e-05,6.355496675399125e-05,-0.0045132166430324,0.0,0.0,0.0,0.0,0.0,0.0,0.0,0.0,0.0,0.0012592422693169,0.0055069550323721,-0.0001947108521851,0.0,0.0,0.0,0.0,0.0,0.0,0.0,0.0,0.0
