Time,Theta_calculated,linear_velocity_x,world_velocity_x,world_velocity_y,angular_velocity_yaw,linear_acceleration_x,angular_acceleration_yaw,kinematic_delta_x,kinematic_delta_y,kinematic_delta_yaw
0.326,-2.3562074236173673,-3.5787646167564816e-05,2.5306014574882525e-05,2.530535999646419e-05,-0.0004569586456968125,-0.0008101590758923477,-0.007890783026691855,8.42685798065503e-07,8.426729752411632e-07,-1.5216722901703858e-05
0.36000000000000004,-2.356222640340269,-6.752915233064445e-06,4.775166570047325e-06,4.7748977343244e-06,-0.00011964978571961176,0.000871913841876888,0.010129395194510532,1.5901130707194745e-07,1.590058343512076e-07,-3.984337864463072e-06
0.394,-2.3562266246781336,0.00018403421278989955,-0.0001301360214866344,-0.00013012765804712025,0.00044877230630448753,0.005729343183872792,0.017069732493216194,-4.3334410925499415e-06,-4.333339439841003e-06,1.4944117799939436e-05
0.42600000000000005,-2.3562116805603335,3.814002813970722e-05,-2.6969536136529038e-05,-2.6968608919966807e-05,-0.00042875088398293935,-0.004381206746252021,-0.026352047756379185,-8.980803493459424e-07,-8.980598811633373e-07,-1.4277404436631882e-05
0.459,-2.35622595796477,-7.678703963036062e-06,5.429834499718368e-06,5.4294927808787e-06,1.823179990326593e-05,-0.0013759379009832817,0.013422903420006163,1.8081109562635534e-07,1.8080450307018444e-07,6.071189367787556e-07
0.49400000000000005,-2.3562253508458335,-7.25603161586936e-06,5.1309474971483435e-06,5.130630818135609e-06,0.0001529939398829391,1.2692863278279336e-05,0.004046911110500696,1.708579067378164e-07,1.708526512750501e-07,5.094698198101873e-06
0.526,-2.356220256147635,-5.424770306900895e-06,3.835990704534176e-06,3.835793033697338e-06,0.00019290532931306306,5.499283210115512e-05,0.0011985402231268452,1.277364281721467e-07,1.277339703769901e-07,6.423747466125001e-06
0.56,-2.356213832400169,-3.942944385491001e-06,2.7881366399758303e-06,2.7880287846253124e-06,0.0002129829277317004,4.449927691921603e-05,0.0006029308834425625,9.284342011330903e-08,9.284288856448938e-08,7.092331493465624e-06
0.5940000000000001,-2.3562067400686755,-2.7155858493648583e-06,1.9202326911608972e-06,1.9201856465112006e-06,0.00023109915679397507,3.685761369748175e-05,0.0005440309027710111,6.394267557595787e-08,6.394325507273767e-08,7.69560192123937e-06
0.626,-2.3561990444667544,-1.480854644500002e-06,1.0471271299492588e-06,1.0471175921841134e-06,0.00023080703062640772,3.7079015161106794e-05,-8.772557584605108e-06,3.486874844721982e-08,3.486960079497023e-08,7.685874119859378e-06
0.659,-2.3561913585926346,-4.3268926800000904e-07,3.0595655741148254e-07,3.0595847368441664e-07,0.00023378094629504493,3.1476437732732516e-05,8.930677683595235e-05,1.0188181931409507e-08,1.0188588600374065e-08,7.784905511624998e-06
0.6930000000000001,-2.356183573687123,6.197980759369472e-07,-4.382586381303363e-07,-4.38268206740216e-07,0.00024083053345529302,3.160622654465333e-05,0.0002116993141215644,-1.4593765372030598e-08,-1.4594578552339257e-08,8.019656764061259e-06
0.7270000000000001,-2.356175554030359,1.6646311814594398e-06,-1.1770497071475128e-06,-1.1770942855995033e-06,0.00023073868393930162,3.137636953520998e-05,-0.0003030585440237658,-3.919509769922954e-08,-3.919789722181871e-08,7.683598175178745e-06
0.759,-2.356167870432184,2.79633944759461e-06,-1.9772579496594663e-06,-1.9773632207265754e-06,0.00022473286126227485,3.398523321727238e-05,-0.00018035503534614923,-6.584159171203134e-08,-6.584729318064308e-08,7.4836042800337535e-06
0.793,-2.3561603868279035,4.208550691707217e-06,-2.9757932433203653e-06,-2.9759962193655687e-06,0.00022185621691638526,4.2408746069447654e-05,-8.638571609278066e-05,-9.909226721261796e-08,-9.91023217598589e-08,7.38781202331563e-06
0.8260000000000001,-2.3561529990158805,5.555761160409889e-06,-3.928353389030387e-06,-3.9286793865639526e-06,0.00020242960478124983,4.0456770831912074e-05,-0.0005833817457998626,-1.3081203488346122e-07,-1.3082715633577836e-07,6.74090583921562e-06
0.8600000000000001,-2.356146258110041,7.204059003662169e-06,-5.09379327152537e-06,-5.094284663739242e-06,0.00018628745750219595,4.9498433731299675e-05,-0.00048474916753915565,-1.696205957298375e-07,-1.6964239921007812e-07,6.203372334823126e-06
0.893,-2.3561400547377063,9.333777797369384e-06,-6.599618292050038e-06,-6.600336837609441e-06,0.00017192687119121618,6.395551933054698e-05,-0.0004312488381675605,-2.197638172741415e-07,-2.1979468811145325e-07,5.725164810667499e-06
0.926,-2.3561343295728956,-0.00015259650885604954,0.0001078955345495088,0.00010790851745497275,0.0021907357589475785,-0.004862771370973541,0.06062489152421508,3.5927437506866075e-06,3.5935311493571974e-06,7.295150077295437e-05
0.9600000000000001,-2.356061378072123,9.907283248499993e-06,-7.004574588175885e-06,-7.006439623995143e-06,0.00016208030681469588,0.004879993756893379,-0.06092058414813461,-2.3324868656663277e-07,-2.3331808566215804e-07,5.3972742169293735e-06
0.9930000000000001,-2.356055980797906,8.486071096621616e-06,-5.999727226782271e-06,-6.0013894942025155e-06,0.00019086659512027049,-4.2679043599951234e-05,0.0008644531022695077,-1.9978769683257192e-07,-1.99849489035424e-07,6.355857617505008e-06
1.027,-2.3560496249402885,6.7440496780720615e-06,-4.76807238189597e-06,-4.7694540380744594e-06,0.00020587291477747725,-5.231295551199864e-05,0.00045064022994614896,-1.5877421176542782e-07,-1.588254172281314e-07,6.855568062089993e-06
1.059,-2.3560427693722263,5.495408193743264e-06,-3.885250791569544e-06,-3.886429917349448e-06,0.00022315392577685838,-3.749674127113505e-05,0.0005189492792606946,-1.293766966689801e-07,-1.2942027025112195e-07,7.431025728369385e-06
1.093,-2.356035338346498,4.591308673441446e-06,-3.246028762688305e-06,-3.247062150101054e-06,0.0002448211428171171,-2.7150135744799352e-05,0.0006506671783861483,-1.0809091857162514e-07,-1.0812900820839107e-07,8.15254405581e-06
1.126,-2.356027185802442,3.622692977378385e-06,-2.5612021625389363e-06,-2.5620593066813554e-06,0.0002493327159670045,-2.9087558440332142e-05,0.00013548267717379493,-8.528657438148848e-08,-8.531803202995849e-08,8.30277944170125e-06
1.16,-2.356018883023,2.9712286649188946e-06,-2.1006069585898474e-06,-2.1013448514605185e-06,0.00025859582573569805,-1.9563492866651367e-05,0.0002781714645253321,-6.994900541422057e-08,-6.997598941960165e-08,8.611240996998746e-06
1.193,-2.3560102717820035,2.52227294827478e-06,-1.7831877189286006e-06,-1.7838448320022025e-06,0.0002742049173348534,-1.348215365297641e-05,0.00046874148946412375,-5.9379111559005625e-08,-5.9403071986672005e-08,9.131023747250619e-06
1.227,-2.356001140758256,2.033526043009008e-06,-1.4376420068263972e-06,-1.4381980488806273e-06,0.00027221475245473,-1.4677084242215378e-05,-5.976471111481647e-05,-4.7872642347346116e-08,-4.789283116827915e-08,9.06475125674251e-06
1.259,-2.3559920760069994,1.7083126099639704e-06,-1.2077148980235921e-06,-1.2082039142685217e-06,0.0002770644152275902,-9.766169160511639e-06,0.00014563551870451095,-4.021620014444175e-08,-4.023389600703546e-08,9.226245027078755e-06
1.2930000000000001,-2.3559828497619724,0.03404598357702111,-0.02406905025776433,-0.02407924038286936,-0.0003788059583965938,1.0223506085408753,-0.01969580701574126,-0.0008014940603344113,-0.000801844015715822,-1.2614238414606576e-05
1.326,-2.355995464000387,0.06672397294194628,-0.04717158255103178,-0.047190363049978465,4.3558200826023575e-05,0.9813210019497045,0.012683608385063584,-0.0015707922349755912,-0.0015714605446119623,1.4504880875065852e-06
1.359,-2.355994013512299,0.10008737259851713,-0.07075827022565223,-0.0707866466810512,4.356292262212115e-05,1.0019038935907163,1.4179567860592664e-07,-0.0023562182018674878,-0.00235722751783878,1.4506453233166346e-06
1.393,-2.3559925628669762,0.13715414009524673,-0.09696303711050126,-0.09700220399338422,4.4506758382349125e-05,1.1131161410429309,2.834341622306223e-05,-0.003228824965030667,-0.003230217546016408,1.482075054132226e-06
1.427,-2.355991080791922,0.16681359231391682,-0.11793102671884018,-0.11797901303924294,4.180759519844064e-05,0.8906742408009034,-8.105595146872331e-05,-0.003927049642838868,-0.003928754658197651,1.3921929201080735e-06
1.459,-2.355989688599002,0.20017664890687473,-0.14151727400818254,-0.14157525180934405,3.865724545275921e-05,1.0018935913801172,-9.46050974679107e-05,-0.004712461215626738,-0.004714519867305972,1.287286273576882e-06
1.493,-2.3559884013127284,0.22462405866546298,-0.15880045797196993,-0.15886592548195466,-4.5893057789324925e-06,0.7341564492068543,-0.001298695232182934,-0.005287987232199734,-0.005290303310990509,-1.52823882438452e-07
1.526,-2.355988554136611,0.21801460615112403,-0.15412785611717342,-0.15419135015931865,2.4656755627416767e-05,-0.19848205748765607,0.0008782601022927705,-0.005132389091257409,-0.005134640446630551,8.210699623929784e-07
1.5590000000000002,-2.355987733066648,0.21801488977924174,-0.15412793002913017,-0.1541916773058471,1.2610166063630801e-05,8.517360892321876e-06,-0.0003617594463599389,-0.005132392582751581,-0.005134650308337103,4.1991852991890573e-07
1.593,-2.3559873131481184,0.2246184209757556,-0.15879629947696194,-0.15886211100846162,-0.006711310633101033,0.19830424013555123,-0.20191954351845834,-0.005288439450825572,-0.005289585761239625,-0.00022348664408226442
1.627,-2.3562107997922004,0.21800930956311465,-0.15415837535378332,-0.15415334691296198,-0.006413015872512547,-0.1984718141934219,0.008957800618272865,-0.005133955593279982,-0.00513282467776483,-0.00021355342855466783
1.6600000000000001,-2.3564243532207554,0.21801800618089512,-0.1541974426648599,-0.1541265703722433,-0.006512076935241144,0.0002611596931071517,-0.002974806688546474,-0.005135264915190041,-0.005131924426657814,-0.00021685216194353014
1.693,-2.3566412053826986,0.22462413765742195,-0.1589041883313773,-0.15876228188422659,-0.016641638893309798,0.1983823266224274,-0.30419104979185146,-0.005292905722345326,-0.005285385983186968,-0.0005541665751472163
1.727,-2.3571953719578462,0.2177573775890411,-0.15413175468678136,-0.15382352775706992,-0.012897005266670184,-0.20620901106248815,0.11245146025944786,-0.0051336209807503,-0.0051212875657215785,-0.00042947027538011714
1.76,-2.357624842233226,0.21765266812715614,-0.1541236565040384,-0.1536833837755245,-0.01395839842330621,-0.003144428284833493,-0.031873668367448225,-0.005133440783869854,-0.005116530100580463,-0.00046481466749609683
1.794,-2.3580896569007224,0.22440563645669753,-0.15897918481444148,-0.15837773981614703,0.015225258450226776,0.2027918417279697,0.8763860922982877,-0.005292601442613969,-0.005275388995475194,0.0005070011063925516
1.827,-2.35758265579433,0.21796674790394835,-0.15433956903297583,-0.1539116649982667,0.01511843965906481,-0.19336001659907456,-0.0032077715063653345,-0.005138150987005235,-0.005126618409480344,0.0005034440406468582
1.86,-2.3570792117536827,0.21814855466481847,-0.15439073404669892,-0.15411778983255237,0.014853521517554473,0.0054596624885922965,-0.007955499745055182,-0.005139875610347562,-0.005133460147587182,0.000494622266534564
1.8940000000000001,-2.356584589487148,0.22495491966259407,-0.1591291890326159,-0.15900508507034028,0.03945785873045261,0.20439534527854633,0.7388689853723163,-0.005295453356262056,-0.005298417600655427,0.001313946695724072
1.9260000000000002,-2.355270642791424,0.2184970510860716,-0.15435794546671455,-0.15464341565228104,0.03862163719979037,-0.19392998728295716,-0.025111757677544578,-0.005136740053864758,-0.005152996112444266,0.0012861005187530196
1.96,-2.3539845422726713,0.21858397652309672,-0.1542202604665319,-0.15490340878846004,0.03829269197166073,0.0026103734842380178,-0.009878235078968296,-0.0051321777412690174,-0.005161622771284824,0.0012751466426563023
1.993,-2.352709395630015,0.2127192916068678,-0.14989012980102961,-0.15093855044341112,-0.010695620887934163,-0.1761166641510182,-1.4711205062941406,-0.004992171306999617,-0.005025429321321189,-0.00035616417556820766
2.027,-2.353065559805583,0.2068912022350729,-0.14583571241035842,-0.1467511994773367,0.028627057856392635,-0.17501769885269994,1.180861223553357,-0.004853936000343673,-0.004889191703956172,0.0009532810266178748
2.06,-2.3521122787789652,0.20668291083876142,-0.1455490692459615,-0.1467422709188382,0.02985459534611408,-0.0062549968862307195,0.03686298767932266,-0.004844290991385114,-0.004888988704757278,0.000994158025025599
2.093,-2.3511181207539398,0.2239158520521606,-0.157526626937151,-0.15913412772265018,-0.0031014394007783733,0.5175057421441197,-0.9896707131198934,-0.005245841777854362,-0.0052989634116389,-0.00010327793204591983
2.126,-2.3512213986859853,0.21796337503445556,-0.15335500816384073,-0.15488794119452642,0.035993585460122254,-0.17875306359474602,1.1740247705976163,-0.005103562786351662,-0.005160893637062125,0.0011985863958220713
2.16,-2.3500228122901636,0.21752563289563673,-0.15286163724366741,-0.15476020427045434,0.037371760224849795,-0.013145409574139226,0.041386629571397625,-0.005087017790683207,-0.005156746647197435,0.0012444796154874984
2.193,-2.348778332674676,0.21251522242217968,-0.14915239963720353,-0.151381245349655,0.021769701286159585,-0.150462776980692,-0.46853029845916544,-0.004964882064863467,-0.005042859526569927,0.0007249310528291142
2.226,-2.348053401621847,0.2060644169146824,-0.144518496748181,-0.1468909391897065,0.021580947569015265,-0.19371788310802612,-0.005668279794123707,-0.004810644625390239,-0.004893259301053371,0.0007186455540482084
2.259,-2.3473347560677986,0.206223056620201,-0.14452407389792624,-0.1471079234634402,0.02130418039381577,0.0047639551206779636,-0.008311326582567401,-0.004810850239567116,-0.00490046277935705,0.0007094292071140652
2.293,-2.3466253268606847,0.21266187398238387,-0.14892883076872676,-0.15180670608230473,0.046943854531416085,0.19335787874423063,0.7699601843123217,-0.004955311422090562,-0.005059101630099604,0.0015632303558961557
2.327,-2.3450620965047886,0.20657310549114588,-0.14443412586291776,-0.14768625934213012,0.04579757779192099,-0.18284590063777745,-0.03442272490976251,-0.004805840789144537,-0.004921680191109722,0.0015250593404709692
2.359,-2.3435370371643174,0.20674371899293556,-0.14432783299900565,-0.1480285174040497,0.04544269495953301,0.00512352858227265,-0.010657142113753324,-0.004802321555731578,-0.004933046266762501,0.0015132417421524493
2.393,-2.3420237954221648,0.2247870831573134,-0.15668017710046575,-0.16118484686266144,0.08849511799640518,0.5418427676990345,1.2928655566628278,-0.005209464188888659,-0.005375202621761272,0.0029468874292802928
2.427,-2.339076907992885,0.21855097299207216,-0.15187103203448785,-0.15716143746021485,0.0854289538983257,-0.18727057553277038,-0.09207699994232688,-0.00504978671570804,-0.00524072758625489,0.002844784164814246
2.459,-2.3362321238280703,0.21864092410423083,-0.1514856504844315,-0.157657703238569,0.0851670643469438,0.00270123459935964,-0.00786455109254954,-0.005036952742283388,-0.005257212841730469,0.0028360632427532288
2.493,-2.3333960605853172,0.2119564156718396,-0.14642023285696662,-0.15325350747883495,-0.03203792576485344,-0.20073598896069786,-3.5196693727266433,-0.004878449141586086,-0.00510080302487405,-0.0010668629279696196
2.526,-2.334462923513287,0.2068707563455462,-0.14306653773134612,-0.14942381206669728,0.0587972168457974,-0.15272250229109313,2.727782060379905,-0.0047591770593012955,-0.004980535257822698,0.0019579473209650534
2.559,-2.3325049761923218,0.20657695995165085,-0.14257093353422742,-0.1494910341593932,0.06051705310662087,-0.008822714531391766,0.051646734559263545,-0.004742528500382975,-0.0049828931404013845,0.0020152178684504753
2.593,-2.3304897583238713,0.2245060528859249,-0.15461713921359826,-0.16277748014949883,0.005616048409873786,0.5384111992274491,-1.6486788197221345,-0.0051481737387604545,-0.0054210380866498075,0.0001870144120487971
2.626,-2.3303027439118225,0.21780179151946305,-0.14997038446986188,-0.15794462374848173,0.0031076415318863635,-0.2013291701640195,-0.07532753387349617,-0.004993673624927153,-0.0052598789485884916,0.00010348446301181591
2.659,-2.330199259448811,0.21748924200369335,-0.14973885209049934,-0.157733466841887,0.005024648969747929,-0.009385871344435436,0.057567790926773735,-0.004985796384077645,-0.005253006061379404,0.00016732081069260605
2.693,-2.3300319386381183,0.2240776562965734,-0.15424770612211264,-0.1625375070789252,-0.021768034236085025,0.19785027906546665,-0.8045850812562447,-0.005138339879527594,-0.005410703325619925,-0.0007248755400616314
2.726,-2.3307568141781796,0.2176104615140362,-0.14991028110033502,-0.15773782228993266,-0.021493346335603392,-0.19421005352964513,0.008248885900349334,-0.004993823764490095,-0.005250947158962717,-0.000715728432975593
2.759,-2.3314725426111553,0.21778747291026035,-0.15014517381835954,-0.1577587085890728,-0.021913000797053647,0.005315657544268514,-0.012602236079587235,-0.0050016826214447,-0.00525160502236262,-0.0007297029265418866
2.793,-2.3322022455376974,0.2245813360730891,-0.1549476075837235,-0.16256695671769902,-0.013519203484814958,0.2040199147996625,0.2520659853525132,-0.005160903703774518,-0.005412384790700727,-0.00045018947604433815
2.826,-2.3326524350137414,0.21815638034368476,-0.15058585168745314,-0.1578483688741281,-0.013366936510576436,-0.1929416134956262,0.004572581808964604,-0.005015610577726107,-0.005255299352863958,-0.0004451189858021954
2.859,-2.3330975539995435,0.21833337490612598,-0.15077832832886648,-0.15790933570961377,-0.013823638630881305,0.005315152025261812,-0.013714778387533582,-0.00502206044944821,-0.005257290013770447,-0.0004603271664083475
2.893,-2.333557881165952,0.22513750464706253,-0.15555211496090945,-0.16275882627339788,0.026718783993574913,0.20432822044854515,1.217490168902589,-0.005177403492328383,-0.005422239525671192,0.0008897355069860447
2.927,-2.332668145658966,0.21857343879232446,-0.15087621742298787,-0.15814776369469566,0.026577601083414375,-0.19711909473687883,-0.004239727031847967,-0.005021778807047573,-0.0052686080771082435,0.0008850341160776988
2.959,-2.3317831115428884,0.21852888254612604,-0.15070546457770265,-0.15824896667364804,0.02597205871724351,-0.0013380254113640813,-0.018184455440566516,-0.005016144363835896,-0.005271924979971311,0.000864869555284209
2.9930000000000003,-2.3309182419876042,0.22499329918451189,-0.1550225899877016,-0.1630643470272893,-0.015182698848540567,0.19412662577735268,-1.2358786055791013,-0.005163554485053928,-0.005428804331863971,-0.0005055838716564009
3.026,-2.3314238258592606,0.21811059105025124,-0.15036023808552415,-0.15800009092134862,-0.01517962387968445,-0.20668793195977914,9.234140709061083e-05,-0.005008257453865835,-0.005260202106167987,-0.0005054814751934922
3.059,-2.331929307334454,0.21777114292274444,-0.15020595328406558,-0.1576782873064757,-0.015406636076872943,-0.010193637462666752,-0.006817183098753554,-0.005003137040516111,-0.005249468365997938,-0.0005130409813598691
3.094,-2.332442348315814,0.22401895294621446,-0.15459852764678728,-0.16212275142176624,-0.0402614829126397,0.18762192262672742,-0.7463917968698726,-0.005151678678679834,-0.005395301566215065,-0.0013407073809909022
3.127,-2.333783055696805,0.21744956463681644,-0.15027575353154426,-0.15716714370779786,-0.03879309128875976,-0.19727892821015064,0.04409584456095916,-0.005007494003307579,-0.005230496968364914,-0.0012918099399157
3.159,-2.3350748656367206,0.217464318506586,-0.15048886808489598,-0.15698353546171862,-0.03849149600042477,0.0004430591522392841,0.009056915565615302,-0.00501456061673451,-0.005224403510018687,-0.001281766816814145
3.194,-2.3363566324535348,0.224247878954737,-0.15539056842868587,-0.16168142273962174,0.037409258053419235,0.20371052396849795,2.2793019235388585,-0.005171081420034421,-0.005387279878762208,0.0012457282931788607
3.226,-2.3351109041603557,0.21776411992608918,-0.15070200073114007,-0.15719452567699554,0.03682711816674019,-0.1947074783377721,-0.01748167827865,-0.005015097931705191,-0.005237718381037334,0.0012263430349524485
3.26,-2.3338845611254033,0.21794609139871682,-0.15063488383403356,-0.1575107314702241,0.036480780291570494,0.00546460878761665,-0.010400536791882756,-0.0050128866168892726,-0.005248217731194642,0.0012148099837092977
3.293,-2.332669751141694,0.22473418054026886,-0.15512909680914672,-0.162605089792062,-0.003154602742663295,0.20384652076732865,-1.1902517427697834,-0.005166013291093117,-0.0054145449656847824,-0.00010504827133068772
3.326,-2.332774799413025,0.2183108707413645,-0.15071181867021713,-0.15794171075738148,-0.004139482302671874,-0.19289218615328452,-0.029575962763020405,-0.005018998021481551,-0.005259177963839891,-0.00013784476067897343
3.36,-2.3329126441737036,0.21847733121798227,-0.1508485219582712,-0.1580413480046817,-0.004557196605216719,0.00499881311164505,-0.012543973049394733,-0.005023587026126777,-0.005262460689774683,-0.00015175464695371677
3.393,-2.333064398820657,0.22521853744433956,-0.15552773572088344,-0.16289417739778922,-0.029596360125760144,0.20243862541613492,-0.7519268324487514,-0.005181675658466695,-0.005421890105918624,-0.0009855587921878128
3.426,-2.3340499576128453,0.2186085400806815,-0.15111886846521025,-0.15796449408016164,-0.029733761979972868,-0.1984984193290707,-0.004126181808189899,-0.005034793657510071,-0.005257790605430256,-0.0009901342739330966
3.46,-2.3350400918867784,0.2184272975746557,-0.15114978219221256,-0.1576839486726975,-0.029837280835513524,-0.005442717898672754,-0.003108674340560241,-0.005035827625011482,-0.005248439267323018,-0.0009935814518226005
3.494,-2.336033673338601,0.224727461069174,-0.15567055429822926,-0.16207748234433791,-0.055513169591358505,0.18919409893448302,-0.771047710385735,-0.005188745344546609,-0.005392452814302493,-0.0018485885473922385
3.527,-2.3378822618859934,0.2178243150644109,-0.1511788415581204,-0.1568196100569839,-0.05518517100915392,-0.20730168182471703,0.009849807273410994,-0.00503898334086722,-0.005217529608262978,-0.0018376661946048257
3.559,-2.339719928080598,0.21744299047069032,-0.15120160956364098,-0.15626748660614273,-0.053651436769978446,-0.011451189000618284,0.04605808526052471,-0.005039592127822617,-0.005199271956871931,-0.0017865928444402825
3.593,-2.341506520925038,0.21262817520423627,-0.1481263378861446,-0.15254287566164185,0.0326635477870878,-0.14458904704066225,2.592041578290277,-0.004929777773592179,-0.005082423105819058,0.0010876961413100238
3.627,-2.340418824783728,0.20592305944967051,-0.1432944801471466,-0.14788846598863467,0.034816317697298975,-0.20135482746443706,0.06464774505138667,-0.004768786591506619,-0.004927512609422712,0.001159383379320056
3.659,-2.3392594414044083,0.20606780473774838,-0.14322352692257367,-0.1481585687204544,0.03479127692046852,0.004346705347683747,-0.0007519752801939362,-0.004766420577911652,-0.004936503641227616,0.0011585495214516018
3.693,-2.3381008918829567,0.22433858816384208,-0.15573531636664376,-0.1614754265376851,0.1016975812780569,0.5486721749577688,2.009198329056708,-0.005176801565011496,-0.0053859696187658875,0.0033865294565592952
3.726,-2.3347143624263973,0.21789318357311638,-0.15072893525736944,-0.15734747383993022,0.09738554547521792,-0.19355569341518636,-0.12949056464981926,-0.005010700915771231,-0.005247865091861679,0.003242938664324757
3.76,-2.3314714237620726,0.2180756400035238,-0.15034366276528066,-0.157967616394203,0.09704904093713376,0.00547917208430719,-0.010105241383908765,-0.004997867146290144,-0.005268466847572227,0.0032317330632065547
3.793,-2.328239690698866,0.22482060919176972,-0.15446660874621077,-0.16335352184695467,-0.024310073905404676,0.2025516272746519,-3.6444178631392923,-0.005145868958835405,-0.005437656244184578,-0.0008095254610499758
3.826,-2.329049216159916,0.2184298687014188,-0.15020417852854903,-0.15858849987777435,-0.024903559356978695,-0.19191412883936648,-0.01782238593315372,-0.0050039200317321285,-0.0052789871916857686,-0.0008292885265873906
3.859,-2.329878504686503,0.21857479120442372,-0.15043538625319855,-0.15856901939820525,-0.025353419386800795,0.0043520271172644825,-0.013509310204867852,-0.005011658517781813,-0.0052782978553901905,-0.0008442688655804666
3.893,-2.330722773552084,0.22522228108958003,-0.15514845143012426,-0.16326063186827428,0.013691965258074531,0.19962432087556503,1.1725340734196792,-0.005165133540827243,-0.005437823456573815,0.00045594244309388193
3.926,-2.33026683110899,0.2184757299268763,-0.15042874403959522,-0.15843875010158137,0.013804520974181356,-0.20259913401512697,0.0033800515347394942,-0.005007996081874307,-0.005277226322216841,0.0004596905484402392
3.959,-2.3298071405605496,0.21823103254369866,-0.15018749360737685,-0.15833035188814243,0.013914938647204262,-0.007348269765094427,0.003315846036723913,-0.0049999536231200535,-0.005273623902896883,0.000463367456951902
3.994,-2.3293437731035977,0.1878363192456084,-0.12920656609998996,-0.13633835155372476,-0.0031849427985203545,-0.9127541530958037,-0.5135099533250636,-0.004302760683601532,-0.004539894585309227,-0.00010605859519072782
4.027,-2.3294498316987884,0.19507062833207572,-0.13419783078184705,-0.14157504106062474,0.03815081767735231,0.21724651911313295,1.2413141284045845,-0.004465730881995906,-0.004717343980018036,0.0012704222286558321
4.06,-2.3281794094701325,0.19487043551272923,-0.13388032553358006,-0.1415999472879259,0.03560095582572837,-0.0060117963767716285,-0.07657242797669485,-0.004455357768002638,-0.00471797739651858,0.001185511828996755
4.094,-2.326993897641136,0.21254711899450865,-0.145841402118573,-0.15461747385387759,-0.031026732031633572,0.5308313357891717,-2.0008314671880463,-0.004859111092297474,-0.0051463149552001325,-0.001033190176653398
4.126,-2.328027087817789,0.20597846794268407,-0.14148899114961386,-0.14969300130426882,-0.026065693897198497,-0.1972567883430805,0.14898012415720946,-0.004713681731652825,-0.004982792484101113,-0.00086798760677671
4.159,-2.328895075424566,0.20612130623115762,-0.14171707684175694,-0.14967385547872486,-0.025996666328390462,0.004289438092299004,0.0020728999642052456,-0.004721270990588835,-0.004982157157157444,-0.0008656889887354025
4.193,-2.3297607644133014,0.22441369555845422,-0.1544348767632446,-0.16282314206931403,-0.08182800403029462,0.5493210008197176,-1.6766167478049296,-0.0051499921366700025,-0.00541506395741587,-0.0027248725342088114
4.227,-2.3324856369475104,0.217956013003878,-0.1504212382855434,-0.15772848403883938,-0.07878333985268972,-0.19392440103832462,0.09143135668483199,-0.005015843381158832,-0.005245846815240399,-0.002623485217094568
4.26,-2.3351091221646048,0.21813691718165495,-0.15095971163291536,-0.15746390094629065,-0.07926479730315973,0.005432557891199446,-0.014458181695796187,-0.005033805043488199,-0.005236972548504164,-0.0026395177501952194
4.293,-2.3377486399148,0.213195656739336,-0.1479458557955336,-0.1535070415500343,0.028382288256361188,-0.1483861994690379,3.232645211997625,-0.004924114470368542,-0.005114175546301215,0.0009451301989368276
4.326,-2.336803509715863,0.2069990743160458,-0.14350484296949406,-0.1491810202807338,0.026029711256533635,-0.18608355625496054,-0.07064795795277935,-0.004776493408773643,-0.004969860198093343,0.0008667893848425701
4.359,-2.335936720331021,0.207102712326073,-0.14344726420346982,-0.14938010525286183,0.025761772403319002,0.0031122525533690847,-0.008046211808247241,-0.0047745952812058194,-0.004976467573921508,0.0008578670210305228
4.393,-2.33507885330999,0.2247700568502541,-0.15554520563483026,-0.16225679480528646,0.06655674373116063,0.5305508866120455,1.225074214049298,-0.005173593544709715,-0.005408953691422707,0.0022163395662476494
4.426,-2.3328625137437426,0.21834569948357982,-0.15074971821919228,-0.15795368605957846,0.06489151891802852,-0.19292364464487366,-0.050006751145108407,-0.005014210633049221,-0.005265342292281274,0.00216088757997035
4.459,-2.3307016261637723,0.21816270655766562,-0.1502819911792041,-0.1581464184222322,0.06521492134115614,-0.005495283060486467,0.009711784478306807,-0.0049985999213956024,-0.005271770150730484,0.0021716568806604995
4.494,-2.3285299692831116,0.22450581597831348,-0.1542976701504095,-0.16308001224627067,0.03985387825574001,0.1904837663858217,-0.7615928854479318,-0.005134437084225613,-0.005434038701699721,0.0013271341459161424
4.527,-2.3272028351371956,0.21745674789280026,-0.14924324307561,-0.15815780600522786,0.039133867131814305,-0.21168372629168847,-0.02162195567344452,-0.004966298788936636,-0.005269955897306359,0.0013031577754894165
4.559,-2.325899677361706,0.21736007354617864,-0.1489707547250182,-0.15828176082119716,0.04067236102702444,-0.0029031335321805206,0.04620101787417829,-0.004957087056487845,-0.0052742045139546265,0.001354389622199914
4.593,-2.324545287739506,0.22400885482386526,-0.15330651620952895,-0.16333119459306292,0.0021173369475131127,0.1996631014320305,-1.157808530916256,-0.005104844896686764,-0.00543917477275696,7.050732035218667e-05
4.626,-2.324474780419154,0.21754466868437602,-0.14887139155779794,-0.15862847048572257,0.00164143806089854,-0.19411970388856564,-0.014291257856293475,-0.00495720464991486,-0.005282527664537104,5.465988742792138e-05
4.66,-2.324420120531726,0.21771327266264562,-0.14897809402385684,-0.15875955591553648,0.0013892851102910203,0.005063182530618426,-0.007572160678904493,-0.00496077986262593,-0.005286872125623252,4.626319417269098e-05
4.694,-2.3243738573375534,0.2244910850597458,-0.1536084810432428,-0.16370913787229394,-0.021910977893177204,0.2035379098228282,-0.6997075977017484,-0.005117080291105958,-0.005449713887149912,-0.000729635563842801
4.726,-2.325103492901396,0.21808195448562354,-0.14933901851189632,-0.15892638680273666,-0.022234369324282723,-0.19246638360727514,-0.00971145438755311,-0.004974879640857,-0.005290471527926124,-0.0007404044984986147
4.759,-2.3258438973998947,0.2182611350345407,-0.14957944398639475,-0.15894625822361158,-0.02266897067613203,0.005380797264779661,-0.013051091647126317,-0.004982924327466467,-0.00529109432419656,-0.0007548767235151967
4.793,-2.32659877412341,0.22505035146786934,-0.15435592539504214,-0.1637739569994317,-0.03125385035838566,0.20388037337323234,-0.2578041946622712,-0.005142818850723622,-0.005451063535509696,-0.0010407532169342427
4.8260000000000005,-2.3276395273403443,0.21857895018383594,-0.15008283271941278,-0.15890846669194375,-0.03099052808982913,-0.19433637489589775,0.00790757563232826,-0.005000419487597936,-0.0052891368700226605,-0.0010319845853913102
4.86,-2.3286715119257355,0.2186226411251287,-0.15027677612815254,-0.15878523158359514,-0.03148591985561036,0.001312040279061594,-0.01487662960303998,-0.005006919322627396,-0.005284988586889203,-0.0010484811311918252
4.893,-2.3297199930569272,0.21317587465104917,-0.1466950341375749,-0.15467553294757247,0.044891055845916336,-0.16356656078316867,2.2936028739197205,-0.004881026338946931,-0.00515440764083625,0.001494872159669014
4.927,-2.328225120897258,0.20678649651586983,-0.14207379298997144,-0.1502520964471065,0.04064603468512118,-0.19187321727265286,-0.12747811293679148,-0.004727605029869975,-0.0050066562017201995,0.0013535129550145354
4.96,-2.326871607942244,0.20650211867011728,-0.14167519125567676,-0.1502373628559641,0.0410528167711966,-0.008539875247824433,0.012215678260523092,-0.004714298021017287,-0.0050061883407347555,0.001367058798480847
4.993,-2.325504549143763,0.22457790888885978,-0.1538529683273936,-0.16359859809223012,-0.009393548154610973,0.5428165230853604,-1.5149058536278548,-0.005124085367703988,-0.00544709820214,-0.00031280515354854544
5.026,-2.3258173542973113,0.2177334135928065,-0.1492135754013333,-0.15856591156590613,-0.012977125766798478,-0.205540399280879,-0.10761494330893406,-0.004969884526004812,-0.005279235361920424,-0.00043213828803438935
5.059,-2.326249492585346,0.21743594895618695,-0.14907813657298116,-0.15828487323305762,-0.008978298579595308,-0.008932871970557353,0.12008490051661169,-0.004965021650270913,-0.005270208308413016,-0.0002989773427005238
5.093,-2.3265484699280465,0.17656794910991291,-0.12109669818178494,-0.12849836708048273,-0.011826384078587817,-1.2272672626508718,-0.0855280930628381,-0.004033307187084052,-0.00427825363733854,-0.00039381858981697433
5.127,-2.3269422885178632,0.20484371425167328,-0.14054794069883997,-0.14902088321351656,-0.0100656008672924,0.8491220763291399,0.05287637271157408,-0.00468101382564513,-0.004961671487002944,-0.00033518450888083697
5.159,-2.327277473026744,0.20625905441509715,-0.14156932450049395,-0.1500030795973331,-0.01500392670936232,0.042502707610326505,-0.148298073335433,-0.004715441574198196,-0.004993985635741498,-0.0004996307594217653
5.194,-2.327777103786166,0.22314880500373244,-0.15324294915317077,-0.16220970288312755,-0.030961157145565847,0.507199717376435,-0.4791961091953011,-0.005105704008868832,-0.005399017575854501,-0.0010310065329473428
5.226,-2.3288081103191134,0.21809670923300856,-0.14993689742678465,-0.1583827685333772,-0.034196464142919644,-0.1517145877094258,-0.0971563662869008,-0.004995832375066441,-0.005271366853915713,-0.0011387422559592242
5.259,-2.3299468525750724,0.2183263357941832,-0.15027521054228118,-0.1583785023220876,-0.034845744768622205,0.006895692527767119,-0.019497916687764603,-0.005007155094373303,-0.005271164379809196,-0.0011603633007951195
5.2940000000000005,-2.3311072158758677,0.22512567137637146,-0.15514462598972437,-0.1631309686698713,-0.0073803549574460925,0.20418425171736512,0.8247864808160994,-0.005166913275551801,-0.005431693176412832,-0.0002457658200829549
5.326,-2.3313529816959506,0.21861301139981604,-0.15069537514193643,-0.15837472230165756,-0.006864583747406588,-0.19557537467133404,0.015488624926111255,-0.005018690525807154,-0.0052733695642714845,-0.0002285906387886394
5.359,-2.331581572334739,0.21859713189934576,-0.1507206254201255,-0.15832876917220762,-0.007323038585307142,-0.0004768618759841668,-0.01376741254956619,-0.005019571444696263,-0.005271800922656927,-0.00024385718489072786
5.394,-2.33182542951963,0.21122103852424817,-0.14567218227622594,-0.15295078432667136,-0.042414908639447094,-0.22150430555848624,-1.0538099115357342,-0.004854413129869991,-0.005089896475854984,-0.0014124164576935884
5.426,-2.3332378459773238,0.20671307565470215,-0.1427744663304128,-0.1494849404143857,-0.015843739847777004,-0.1353742603467274,0.7979329967468495,-0.004755638291217137,-0.00497665559221982,-0.0005275965369309743
5.459,-2.3337654425142547,0.20631773726918437,-0.14258010748588373,-0.14912384672207873,-0.01713512164961276,-0.011872023589122505,-0.03878023428936202,-0.004749269862111646,-0.004964530671338404,-0.0005705995509321049
5.494,-2.334336042065187,0.2245345516898738,-0.15526178878530786,-0.16220216350517355,-0.05367831702881306,0.5470514841047875,-1.0973932546306395,-0.005174972421663353,-0.005396775249393305,-0.001787487957059475
5.526,-2.3361235300222463,0.21763256242527185,-0.15076996319570604,-0.15694696692117147,-0.053999000380928294,-0.2072669448829414,-0.009630130694151199,-0.005025268441036696,-0.005221882203927409,-0.0017981667126849123
5.559,-2.337921696734931,0.21743908083403848,-0.15091764660076137,-0.15653631469547,-0.049992627131347556,-0.0058102579949958905,0.12031150899641857,-0.005029826844620098,-0.0052085387661155716,-0.0016647544834738738
5.594,-2.339586451218405,0.22418345804556195,-0.15586716904111347,-0.161132394248876,-0.015876234579903302,0.20253385019589973,1.0245162928361637,-0.0051917254752907515,-0.005364403605223674,-0.00052867861151078
5.626,-2.3401151298299157,0.21773318223919927,-0.15146522569262622,-0.15641618859277376,-0.015130726828963718,-0.19370197616704732,0.02238762014833586,-0.0050450366521217664,-0.005207453444439176,-0.0005038532034044919
5.659,-2.34061898303332,0.2179149849123839,-0.15167055335961138,-0.15647039302358062,-0.015566048267325962,0.005459539735274108,-0.013072715866734076,-0.005051912248521479,-0.005209220197960791,-0.0005183494073019546
5.693,-2.341137332440622,0.22470584912831046,-0.15648066140440225,-0.16126537520160936,-0.02388028671669558,0.20392985633413097,-0.24967683031139987,-0.005212871250413416,-0.005368131997297658,-0.0007952135476659628
5.726,-2.3419325459882883,0.21828131205480095,-0.1521312680450498,-0.1565337295133883,-0.02380437279576637,-0.19292904124653187,0.002279697325201449,-0.005067969270275809,-0.005210630332393239,-0.0007926856140990202
5.76,-2.342725231602387,0.21845084788725866,-0.15237355668922564,-0.15653457178699395,-0.02423206903060896,0.00509116613987124,-0.012843730776053799,-0.005076074592945753,-0.005210619134410083,-0.0008069278987192785
5.7940000000000005,-2.3435321595011063,0.225217813384896,-0.15722381556167112,-0.1612567371805081,-0.017250648513055755,0.20321217710622622,0.20965226779439058,-0.005237025684525351,-0.005368413013134968,-0.0005744465954847567
5.827,-2.344106606096591,0.21862699298769342,-0.15271268285122336,-0.15644998740563268,-0.016724889870669637,-0.1979225344505277,0.01578854781940293,-0.005086715479219228,-0.005208433990875755,-0.000556938832693299
5.859,-2.3446635449292845,0.2184728290156729,-0.15269204605783648,-0.1562546514148714,-0.0166808637689284,-0.0046295487093252945,0.001322105157394476,-0.005086022733952456,-0.0052019332137575305,-0.0005554727635053158
5.893,-2.3452190176927896,0.21300431260207717,-0.14895466493903514,-0.15226077951981984,0.05879174261806912,-0.16421971211999156,2.266444636246171,-0.004955158323832215,-0.005075200248713846,0.001957765029181702
5.926,-2.343261252663608,0.2064693548497286,-0.14409552405875,-0.14787181759313484,0.05513975287399622,-0.1962449775480054,-0.1096693616838707,-0.004793793781607406,-0.004928596040918044,0.0018361537707040744
5.96,-2.341425098892904,0.2062757188859899,-0.14368888171086333,-0.14799722117193095,0.05424448927031304,-0.005814893805966892,-0.0268847929033988,-0.004780322260847319,-0.004932688137430181,0.0018063414927014245
5.993,-2.3396187574002028,0.1994935264540375,-0.1387057276361248,-0.14338196615335183,-0.04118576853026609,-0.20366944240097246,-2.865773507524899,-0.00462211173228062,-0.004771510377659327,-0.001371486092057861
6.026,-2.3409902434922603,0.1945849428546084,-0.13548452219711968,-0.13966833653605748,0.05408609588771092,-0.1474049128957691,2.861016949488799,-0.004507383604133247,-0.004655074265427268,0.0018010669930607738
6.059,-2.3391891764991994,0.19451853126956622,-0.1351865957971725,-0.1398643747494019,0.05442378907936305,-0.001994341893158253,0.0101409366862502,-0.004497430479397069,-0.004661618551265843,0.0018123121763427897
6.094,-2.3373768643228567,0.22373430863261792,-0.15519918850591796,-0.16115288624911464,-0.07034563602307424,0.877350671563114,-3.7468295826557743,-0.0051743443314778885,-0.005360399928666638,-0.0023425096795683725
6.127,-2.339719374002425,0.21773956302600492,-0.15140774816927605,-0.15648070520375557,0.03154694431302359,-0.18002239058897912,3.0598372473302646,-0.005039072647547875,-0.005213519977341808,0.0010505132456236856
6.159,-2.3386688607568016,0.21800152035914366,-0.15142523682367057,-0.1568281241735468,0.03020844167459183,0.00786658658074312,-0.04019527442738009,-0.005039765257977995,-0.00522497704495247,0.001005941107763908
6.193,-2.3376629196490377,0.22473711932676027,-0.1559411134063833,-0.16183059646700926,-0.029539460760017573,0.20227023926776597,-1.7942313043426246,-0.005195419036236525,-0.0053864711839745495,-0.0009836640433085852
6.226,-2.3386465836923462,0.21834670320707755,-0.15166150377644236,-0.15707982389112796,-0.029940601754021055,-0.19190438797846,-0.012046276096200643,-0.005052867209924657,-0.005228304976294067,-0.0009970220384089012
6.259,-2.339643605730755,0.21850893504845623,-0.15193084138845478,-0.15704513405708137,-0.030342853558711216,0.004871827068428644,-0.01207963377447931,-0.005061870593033978,-0.005227111542307872,-0.0010104170235050835
6.2940000000000005,-2.34065402275426,0.2133181494014636,-0.1484764864125027,-0.15316450583168104,0.045663213489488944,-0.1558794488586375,2.282464475921927,-0.004940321299384916,-0.00510419906281431,0.001520585009199982
6.326,-2.33913343774506,0.20702007518241675,-0.14386662853507753,-0.1488613607437588,0.04220065294998061,-0.18913135792933483,-0.10398079698223213,-0.004787209948658764,-0.004960509778982992,0.0014052817432343545
6.36,-2.337728156001826,0.20687935634278495,-0.14355964547142208,-0.14896206320041558,0.04207026024366661,-0.004225790979933713,-0.003915696886306316,-0.004776995795633673,-0.004963845486162909,0.0014009396661140983
6.393,-2.336327216335712,0.22461618064927685,-0.15564101588592857,-0.16195154455411875,0.06825492748756705,0.5326373665613182,0.7863263436606737,-0.005176642712851486,-0.005398938756764483,0.002272889085335983
6.426,-2.3340543272503758,0.21794078966322103,-0.1506579566697333,-0.15748132553140742,0.06678595516748628,-0.20046219177344812,-0.044113282885308296,-0.005011006528923871,-0.005249767359264165,0.0022239723070772936
6.459,-2.3318303549432984,0.2178201374615338,-0.1502241399970141,-0.1577286278578464,0.06880690209999463,-0.003623189239856497,0.06068909707232264,-0.004996374191103112,-0.005258154327371917,0.0022912698399298213
6.493,-2.329539085103369,0.22395014265972996,-0.15407984959957427,-0.1625209720149556,0.05045531428811785,0.1840842401860705,-0.5510987330893926,-0.00512624005263865,-0.005416322458172521,0.0016801619657943246
6.527,-2.3278589231375744,0.21743206507072116,-0.14933002448677926,-0.15804191440151638,0.04980006035777157,-0.1957380657359999,-0.01967729520559401,-0.004968255659852199,-0.005266980803638834,0.0016583420099137935
6.5600000000000005,-2.3262005811276607,0.2175671401162359,-0.14916033688243144,-0.15838767110945662,0.04995300464789316,0.004056307673115409,0.004592921625272929,-0.0049625819242386515,-0.00527850237184344,0.0016634350547748422
6.593,-2.3245371460728856,0.2243326903181507,-0.1535268100698004,-0.16356856218470203,0.0021908643276134974,0.20316967573317715,-1.434298508116506,-0.005112173632775352,-0.005447085725434763,7.295578210952947e-05
6.626,-2.3244641902907763,0.21792591834940153,-0.1491306076251719,-0.15890804812147508,0.0009632592120701978,-0.19239555461709218,-0.03686501848478376,-0.004965895923920304,-0.0052917818748240385,3.207653176193759e-05
6.659,-2.324432113759014,0.21810786056349613,-0.149250012388323,-0.1590455049401614,0.000510628018235126,0.0054637301529908,-0.013592528343395548,-0.004969911884970207,-0.005296321847669,1.7003913007229698e-05
6.693,-2.324415109846007,0.22491542356692187,-0.15390560157599917,-0.16401223601249296,0.09257284826176011,0.20443132142419662,2.7646312385442937,-0.005116559499535138,-0.00546956442187832,0.003082675847116612
6.726,-2.3213324339988906,0.21846136343629174,-0.14899740593916616,-0.15976589228569057,0.09030989867516744,-0.1938156195384423,-0.06795644404182213,-0.004953537462489779,-0.005327720833854313,0.003007319625883076
6.759,-2.3183251143730073,0.21859590434412443,-0.14860773054285042,-0.16031192038937456,0.08981652091392693,0.004040267502483076,-0.01481614898620133,-0.0049405776509764635,-0.005345843298928414,0.002990890146433767
6.793,-2.3153342242265738,0.2251175240050058,-0.15254684974922514,-0.16555167847452257,0.03383578721094316,0.19584443426070136,-1.6811031142037167,-0.0050766319211940775,-0.00551579717671413,0.0011267317141244074
6.827,-2.314207492512449,0.21840185105216545,-0.14781503287965056,-0.16077961499456359,0.03132982979884061,-0.20167186044565585,-0.0752539763394159,-0.004919377574325464,-0.005356591478475936,0.0010432833323013924
6.859,-2.313164209180148,0.21819965670533464,-0.14751052339397064,-0.16078474950803867,0.03152871487569656,-0.006071902307231319,0.005972524830509158,-0.004909219577535534,-0.005356773290566273,0.0010499062053606957
6.894,-2.3121143029747873,0.2119893017838304,-0.14314802516750208,-0.15635890432412256,-0.07946175943198866,-0.18649714478991697,-3.333047276507063,-0.0047736451431513605,-0.005200500484028997,-0.0026460765890852227
6.927,-2.3147603795638725,0.20630713623683355,-0.13971324222190737,-0.15179869699732618,0.019220556517753274,-0.17063560201191752,2.9634329114036615,-0.00465076757216013,-0.005056445303509225,0.0006400445320411841
6.96,-2.314120335031831,0.20593527546581525,-0.13936440305194997,-0.15161431608906478,0.02265279743792188,-0.011166990120669861,0.10307029790296118,-0.00463886462593961,-0.005050566623012307,0.0007543381546827987
6.993,-2.3133659968771485,0.2242140225009957,-0.15160977850928795,-0.16518596473805414,0.0982821549213206,0.5489113223777914,2.27115187637834,-0.005039524047946701,-0.0055090095048841254,0.0032727957588799764
7.026,-2.3100932011182684,0.21752081500865106,-0.1465586751584582,-0.16073537164490376,0.09372275741873562,-0.20099722199233164,-0.13691884392147086,-0.0048719741706716325,-0.00536015798383249,0.0031209678220438966
7.059,-2.3069722332962246,0.21767841087760342,-0.14616213144464935,-0.16130877810508573,0.09370734294999515,0.004732608677248194,-0.0004628969591732242,-0.004858740624449092,-0.005379230364479029,0.0031204545202348387
7.094,-2.30385177877599,0.22448592581309829,-0.1502132673876142,-0.16682297560258597,-0.026957672521266025,0.20442987794278866,-3.6235740381760113,-0.005004522740219965,-0.005553023898070634,-0.0008976904949581587
7.127,-2.3047494692709476,0.21804734039636461,-0.14605033207468165,-0.1619072053825997,-0.026985554714356923,-0.19335091341542557,-0.000837303095822743,-0.004865828157103709,-0.005389386940112663,-0.0008986189719880856
7.159,-2.3056480882429358,0.21822602565185675,-0.1463155703588417,-0.16190846840845502,-0.027445942568583057,0.005365923588352528,-0.013825461087871888,-0.004874701915802914,-0.0053893877717010935,-0.0009139498875338159
7.193,-2.3065620381304694,0.22502945215020467,-0.15102963908021527,-0.1668181718348489,-0.0034406837879668887,0.20430710205249006,0.7208786420605455,-0.005029533361927992,-0.005554822044807891,-0.0001145747701392974
7.226,-2.306676612900609,0.21855142926811238,-0.14670044368765053,-0.1619990958523572,-0.003339073523944291,-0.19453522168445309,0.0030513592799578937,-0.00488535491177859,-0.005394361474273871,-0.00011119114834734489
7.26,-2.3067878040489562,0.2186058266570807,-0.14675497382838748,-0.16202310052907556,-0.004215736608460519,0.001633555224273681,-0.02632621875424109,-0.004887249547699942,-0.0053950894150198905,-0.0001403840290617353
7.2940000000000005,-2.306928188078018,0.22497502605006942,-0.15105416630062257,-0.16672252754038153,0.0845578119339036,0.19126724903870018,2.665872328599523,-0.005022208804643126,-0.005558999601363088,0.00281577513739899
7.326,-2.304112412940619,0.21823595542293495,-0.14607340545597366,-0.16214034802557928,0.08352710386471529,-0.2023744933073414,-0.030952194269919308,-0.004856659303928623,-0.005406094269209354,0.0027814525586950193
7.359,-2.301330960381924,0.2179638638256725,-0.1454402973068724,-0.16234335789648086,0.08295049655840105,-0.00817091883670979,-0.01731553472415149,-0.004835619328186898,-0.005412778496269637,0.0027622515353947553
7.393,-2.2985687088465294,0.22425017791947016,-0.14917301636897312,-0.16743820795832742,0.044653770596739174,0.18877820101494447,-1.1500518306805365,-0.0049632420091489495,-0.005579447696265227,0.0014869705608714146
7.426,-2.297081738285658,0.21737323457134108,-0.14435691824405128,-0.16251831670026481,0.04565765492946226,-0.20651481525913143,0.03014667665835101,-0.004802899389089768,-0.005415574324870167,0.0015203999091510936
7.46,-2.2955613383765066,0.21741923689392975,-0.1441401563348843,-0.16277204890058325,0.046815376931243324,0.0013814511287888115,0.034766426479911745,-0.004795570109575152,-0.005424110437121879,0.001558952051810403
7.493,-2.2940023863246966,0.2240958305098829,-0.14830474112182634,-0.16800191966969377,0.002956926391279408,0.2004983067853801,-1.317070586785703,-0.00493820008097497,-0.005594770922935477,9.84656488296043e-05
7.526,-2.293903920675867,0.2176569492796893,-0.144027475719363,-0.1631889512425689,0.0022334440594219997,-0.19335979670251113,-0.021726196151874124,-0.0047958425711571015,-0.005434432450854268,7.43736871787526e-05
7.5600000000000005,-2.293829546988688,0.21783318382096137,-0.14413194606091465,-0.16333180369502548,0.0018636936293324954,0.00529232856672913,-0.01110361651920433,-0.0047993546808760374,-0.005439160065890954,6.20609978567721e-05
7.594,-2.293767485990831,0.22461496118657892,-0.14860873822203519,-0.16842601851526082,-0.020758013629833597,0.20365697794647303,-0.679330548323306,-0.004950536516941987,-0.0056069396335918995,-0.0006912418538734588
7.626,-2.2944587278447046,0.2181996509582448,-0.14447733299557924,-0.16351571156553849,-0.021156091363136925,-0.1926519588088321,-0.011954286285385222,-0.004812942409936681,-0.005443440289983937,-0.0007044978423924597
7.659,-2.295163225687097,0.21837256756725731,-0.14470707876684138,-0.16354338757859804,-0.021674913005365556,0.005192690961336404,-0.01558022949635527,-0.004820640281554157,-0.0054443176572899704,-0.000721774603078673
7.693,-2.2958850002901756,0.22514081148639128,-0.14931379415906607,-0.16850452774502772,0.03581721428014172,0.20325056814216125,1.7264903088740922,-0.004968729279519792,-0.005614228880500393,0.0011927132355287196
7.726,-2.294692287054647,0.21853604183706926,-0.14473831424909187,-0.1637339976002065,0.03462605609828974,-0.19834143091057124,-0.035770515971531004,-0.004816570837875892,-0.005455181928253321,0.0011530476680730484
7.759,-2.293539239386574,0.21844416722137708,-0.1444886550273725,-0.16383187346002578,0.033602791196961246,-0.0027589974682337374,-0.030728675715570385,-0.0048083482786612005,-0.0054583543899346465,0.0011189729468588097
7.793,-2.292420266439715,0.22494195532838174,-0.1485977104665511,-0.16887155980523996,-0.002030022001208875,0.1951287719821219,-1.070054450395499,-0.0049484210973495465,-0.005623319685751034,-6.759973264025554e-05
7.8260000000000005,-2.2924878661723556,0.2179769116392226,-0.1440076318170568,-0.163632930628943,-0.0031849672519006157,-0.20916047114592043,-0.034683040561313536,-0.004795672617090019,-0.005448784303132648,-0.00010605940948829052
7.859,-2.2925939255818437,0.21767749184491045,-0.14382714866602564,-0.16339290609598697,-0.0028702808559242653,-0.008991585414778949,0.009450041921211724,-0.004789633700876909,-0.005440816823168895,-9.558035250227805e-05
7.893,-2.292689505934346,0.21234903462504864,-0.14032168443676796,-0.15937985250030265,0.06582797874706965,-0.1600137303261803,2.063010798888706,-0.004666822598248464,-0.005312526654146128,0.0021920716922774197
7.926,-2.2904974342420688,0.21756654834641748,-0.14341115151538614,-0.16361064934901084,0.14605223736466358,0.15668209373479977,2.4091368954232406,-0.004762253077802893,-0.005459887852966421,0.004863539504243297
7.959,-2.2856338947378254,0.2174764756806541,-0.14255468951432193,-0.16423817452697592,0.14385882475596443,-0.002704884857759323,-0.06586824650748205,-0.004733882214027988,-0.005480541916893721,0.004790498864373616
7.993,-2.2808433958734518,0.22426495672542512,-0.14619147751452888,-0.17006711239147856,0.03932011336428277,0.20385828963276373,-3.1393006423928425,-0.0048643939181660725,-0.00566648323478021,0.0013093597750306162
8.027,-2.279534036098421,0.21779473858041257,-0.14175736365678043,-0.16534629721402766,0.037849582201381404,-0.19430084519557228,-0.04416009498202291,-0.004716977833066822,-0.005509066096972557,0.0012603910873060008
8.06,-2.278273645011115,0.21797411148775958,-0.1416654279033954,-0.16566115964771624,0.037454467497367465,0.005386573794204626,-0.011865306426845025,-0.004713945947775501,-0.00551951804049906,0.0012472337676623366
8.093,-2.277026411243453,0.22475700176465857,-0.14586059313944952,-0.17099823745070214,-0.000717267025129664,0.20369039870567535,-1.1462983340089226,-0.004857152108811582,-0.0056942461200420935,-2.3884991936817814e-05
8.126,-2.2770502962353896,0.21833282943215826,-0.14169546433964256,-0.16610725388562958,-0.00208364530765273,-0.19291808806307237,-0.04103238085654852,-0.00471857931905339,-0.005531268881756694,-6.938538874483591e-05
8.159,-2.2771196816241344,0.21848680869652748,-0.14180692829285088,-0.1662145621254024,-0.002763613523351963,0.004624001933009594,-0.02041946593691391,-0.004722353807982082,-0.005534788700897647,-9.202833032762038e-05
8.193,-2.277211709954462,0.20023445901872683,-0.1299744204106238,-0.15231706607417506,0.06034816187103795,-0.5481186089429624,1.895248510342039,-0.004322983142353715,-0.005076559706125126,0.0020095937903055637
8.227,-2.2752021161641567,0.2066363142970797,-0.13381378358902907,-0.15745614534806196,-0.010573769907907404,0.19224790625684324,-2.1297877411094697,-0.004456854195793568,-0.005242562681396918,-0.0003521065379333166
8.259,-2.2755542227020897,0.2069444646805034,-0.13406885167861352,-0.15764375811137607,-0.013557835386280548,0.00925376526797864,-0.08961157592712143,-0.004465609747182946,-0.0052485869173764625,-0.0004514759183631423
8.293,-2.276005698620453,0.22461107156759735,-0.14559138615514405,-0.17103590777426847,0.031487246880608756,0.5305287353481668,1.3527051731798587,-0.004845132639609811,-0.005698099076321742,0.0010485253211242717
8.327,-2.274957173299329,0.21806096696841373,-0.14117146903343875,-0.1661962744652854,0.030302745657480774,-0.19669983781332193,-0.03557060730114061,-0.00469814521446506,-0.005536767614754035,0.0010090814303941099
8.359,-2.2739480918689345,0.21776658184242254,-0.14081333480640829,-0.1661140840146641,0.031306734957978075,-0.008840394173909843,0.03014982884376279,-0.004686128239967598,-0.005534102822154421,0.00104251427410067
8.393,-2.272905577594834,0.18901989711425554,-0.12207462507530809,-0.1443132267597351,0.06787975099051043,-0.8632638056506604,1.0982887697457162,-0.00405958802944665,-0.00481027321197809,0.0022603957079839975
8.427,-2.27064518188685,0.20603931682053173,-0.1327103520885768,-0.15760762203776005,0.04191563477186868,0.5110936848731586,-0.7797031897490013,-0.004415522583419776,-0.0052514733946499685,0.0013957906379032273
8.459,-2.269249391248947,0.20607030595958223,-0.13251016270394003,-0.15781643697172731,0.040246035670889704,0.0009306047762913626,-0.05013811114050978,-0.004408997540563607,-0.0052582996614382324,0.0013401929878406273
8.493,-2.267909198261106,0.21245807062484448,-0.1363995276840281,-0.16289137675520293,0.0027420556229022022,0.19182476472259014,-1.1262456470867117,-0.004541786461096918,-0.005424548950534012,9.131045224264334e-05
8.527,-2.2678178878088633,0.20636657395117758,-0.1324742975643271,-0.1582331296827089,0.0016891998473542943,-0.18292782803804508,-0.03161729055699423,-0.004411177760125753,-0.005269344338987911,5.625035491689801e-05
8.559,-2.2677616374539467,0.2065378210026093,-0.13257531908267475,-0.15837189231247084,0.0012130493390712755,0.005142554097049046,-0.014298814062553115,-0.004414583398589976,-0.005273930274751988,4.039454299107348e-05
8.593,-2.2677212429109557,0.22463405644532491,-0.14418421999536124,-0.17225379537011862,0.044643798875680686,0.5434304937752432,1.3042267128110931,-0.004796994807319353,-0.005739680238736326,0.001486638502560167
8.626,-2.266234604408395,0.21836392031139926,-0.13991056747874603,-0.16765391376743455,0.043049406574716544,-0.18829237639416388,-0.047879648677601874,-0.004654946400544245,-0.005586273079897324,0.001433545238938061
8.659,-2.264801059169457,0.21849622414898456,-0.13975470860314856,-0.16795601028427753,0.04212015273660249,0.0039730882157749834,-0.02790552066408574,-0.00464983556438536,-0.005596257181645215,0.001402601086128863
8.693,-2.263398458083328,0.2006244328481101,-0.1281071082065889,-0.15439796592757032,0.03008993259752564,-0.5366904294556895,-0.3612678720443498,-0.004263323610984195,-0.005143643782817271,0.001001994755497604
8.726,-2.2623964633278306,0.20627798929363464,-0.1315580092982101,-0.1588807699393382,0.03892511036738086,0.16977646983557168,0.265320653749406,-0.004377383080815302,-0.005293624035006567,0.0012962061752337828
8.759,-2.261100257152597,0.20684938094796249,-0.1317158025560442,-0.15949173569678302,0.03176948497286148,0.017158908538373763,-0.21488364548106248,-0.004383257330118588,-0.005313450597825662,0.0010579238495962873
8.793,-2.2600423333030006,0.2245715657412083,-0.1428175194266383,-0.1733076578927764,-0.02475739358231176,0.532197741538913,-1.697503860515713,-0.004758127169497868,-0.005769245492726754,-0.0008244212062909817
8.827,-2.2608667545092915,0.21794440698308515,-0.1387415564648436,-0.16807898454274786,-0.024294564347114363,-0.19901377652021446,0.013898775831753684,-0.004622284985082015,-0.005595220508552722,-0.0008090089927589083
8.859,-2.2616757635020504,0.2176010751460915,-0.1386587121926336,-0.16770208537109896,-0.025553248104935974,-0.010310265375184483,-0.03779831104569402,-0.004619638338694232,-0.005582574018564717,-0.000850923161894368
8.893,-2.262526686663945,0.2241966087097459,-0.14300846158334374,-0.1726635435536877,-0.06331376819055698,0.1980640709806122,-1.1339495521207508,-0.004768165123127212,-0.005744733242339384,-0.0021083484807455474
8.926,-2.2646350351446904,0.21753624757205942,-0.13911292357263513,-0.1672411836325207,-0.059486023363234254,-0.20001084497556987,0.11494729211179354,-0.004637901257934166,-0.0055645995741177515,-0.001980884577995701
8.959,-2.2666159197226863,0.21762044810636408,-0.139497909686238,-0.16702991536603526,-0.058791424735193935,0.0025285445737135903,0.02085881765886843,-0.004650650154176923,-0.005557605620206814,-0.0019577544436819583
8.993,-2.268573674166368,0.22436439002244898,-0.14415773708826282,-0.17192418779141258,-0.04879268889817294,0.20252077826080797,0.3002623374480779,-0.00480502757847698,-0.0057212352018321064,-0.0016247965403091591
9.026,-2.2701984707066774,0.2179412421675386,-0.1403019208730593,-0.1667745665167789,-0.04765520470409382,-0.19288732297028174,0.03415868450688053,-0.004676386773085602,-0.005549944132997815,-0.0015869183166463243
9.059,-2.2717853890233237,0.21812254533077952,-0.1406833375134702,-0.16669026164611114,-0.04823943658187272,0.0054445394366641,-0.01754450083420128,-0.004689139697899519,-0.0055470812408443615,-0.0016063732381763618
9.093,-2.2733917622615,0.22492676567118475,-0.14534781402156066,-0.1716568171511224,-0.023379499388257022,0.20433094115331024,0.7465446604689399,-0.004842232938796095,-0.00571434996857741,-0.0007785373296289589
9.126,-2.274170299591129,0.21846294528485521,-0.14130064725682606,-0.16661388161655577,-0.022773530189241813,-0.19410872031019616,0.018197273243699952,-0.004707343145945282,-0.005546518452008689,-0.0007583585553017525
9.159,-2.2749286581464307,0.2185595632295196,-0.14148950750115508,-0.1665803168029133,-0.023914583221278832,0.002901439779711578,-0.03426585681792848,-0.004713737124136121,-0.005545308873740075,-0.0007963556212685852
9.193,-2.2757250137676994,0.1999798694739333,-0.12958285884399037,-0.15231622004445183,0.05166886742560953,-0.5579487614290178,2.26977329269935,-0.004310677937373364,-0.005075895607059432,0.0017205732852727973
9.226,-2.2740044404824267,0.20669131467475146,-0.13366067325284806,-0.15765825061687233,-0.01601269930616721,0.20154490092546995,-2.0324794814347364,-0.004452232037954339,-0.005248890418846952,-0.0005332228868953682
9.259,-2.2745376633693217,0.20671985944955412,-0.13376319183645832,-0.157608720572709,-0.01886838547335465,0.0008572004445242623,-0.08575634135698008,-0.004455894954135299,-0.005247028318992704,-0.0006283172362627099
9.293,-2.2751659806055846,0.22462345631543348,-0.1454557326972347,-0.1711675405928416,0.020801260400646712,0.5376455515279087,1.1912806568769176,-0.004841627668755571,-0.0057016188286571024,0.0006926819713415356
9.326,-2.274473298634243,0.21790099431792126,-0.14098752793853275,-0.16614259023658023,0.020937979289473486,-0.20187573566102773,0.004105672337140346,-0.00469288398134554,-0.005534245220354602,0.0006972347103394672
9.359,-2.2737760639239037,0.21756283670178564,-0.14065303647753302,-0.1659828643064627,0.01871124625909328,-0.010154883367436045,-0.06686885977117737,-0.004681952340944794,-0.00552874876265893,0.0006230845004278063
9.394,-2.2731529794234757,0.18872430768273918,-0.12191936849422934,-0.1440573909811556,0.053602643963823644,-0.8660218924638576,1.0477897208627736,-0.004055569380832857,-0.004800784433402644,0.0017849680439953276
9.426,-2.2713680113794803,0.20597603417608193,-0.1327834453842865,-0.15746327599407006,0.022585933744529035,0.5180698646649474,-0.9314327393181564,-0.004419648617127227,-0.005245246559483342,0.0007521115936928169
9.459,-2.2706158997857875,0.2061854169535308,-0.13279983707606527,-0.15772326853344076,0.02539955564652431,0.006287771094560457,0.08449315021006834,-0.004419944931575614,-0.005254111555799558,0.0008458052030292597
9.493,-2.2697700945827584,0.21259917882045914,-0.13679320889257665,-0.16274528821445325,-0.015740521078387467,0.19260546146931987,-1.23543773948684,-0.004556563890268233,-0.00541828295286863,-0.0005241593519103027
9.527,-2.2702942539346687,0.206520833355304,-0.1329650515218206,-0.15802262396115577,-0.016299339367035374,-0.18253289685150598,-0.01678132998942663,-0.004429096019983478,-0.005261008786621564,-0.000542768000922278
9.56,-2.270837021935591,0.2066918324368214,-0.13316096751088996,-0.15808121434140984,-0.01686626460765387,0.005135107553075343,-0.017024782000555457,-0.00443567020099264,-0.005262916286078526,-0.0005616466114348739
9.594,-2.2713986685470258,0.22475997412345428,-0.14489787054749562,-0.1718186633598837,-0.07438796799264458,0.5425868374364226,-1.7273784800297507,-0.004832106723915839,-0.005715641964623018,-0.0024771193341550646
9.626,-2.273875787881181,0.21849219731968336,-0.14127048487648322,-0.16667780413824385,-0.07302807136064111,-0.18822152563876615,0.04083773669680068,-0.004710979587136606,-0.005544706290681564,-0.002431834776309349
9.659,-2.27630762265749,0.21856480536070824,-0.1417224803685258,-0.16638904020564907,-0.07426005511113654,0.00218042165239879,-0.036996509023886535,-0.004726132952443816,-0.005534975364226485,-0.002472859835200847
9.693,-2.278780482492691,0.2132721688581108,-0.13869168226120795,-0.16201739190901285,-0.000630148582919704,-0.1589380331110346,2.211108304150655,-0.004618419847168689,-0.0053951904261565105,-2.0983947811226147e-05
9.726,-2.2788014664405023,0.20686993023202743,-0.13453158041898367,-0.1571509526034584,-0.004004731862788485,-0.1922594182007014,-0.10133883723329672,-0.004480182874444847,-0.005232885936338414,-0.00013335757103085657
9.759,-2.2789348240115332,0.20662271596555992,-0.1343917431539924,-0.1569452328840089,-0.0038958243851697437,-0.00742385184587118,0.0032704948233856185,-0.0044755164491017485,-0.005226043835675343,-0.00012973095202615248
9.793,-2.2790645549635595,0.22461272204756402,-0.1461149521602546,-0.17059101869917645,-0.02540818782354354,0.540240422883006,-0.6460169200712852,-0.00486795707302986,-0.005678684818849782,-0.000846092654524
9.827,-2.2799106476180833,0.21774069476042376,-0.14178443364859533,-0.1652518820761177,-0.027489632998811686,-0.20636718580000776,-0.06250586111916351,-0.004723868522140511,-0.005500786995041107,-0.0009154047788604293
9.86,-2.280826052396944,0.21773399801858453,-0.14193128127133212,-0.16511694428445248,-0.02761035289286081,-0.00020110335853541783,-0.003625222043517258,-0.004728767594792666,-0.005496281885812217,-0.0009194247513322651
9.893,-2.281745477148276,0.22412734227919792,-0.14625503161176207,-0.16983089025668804,-0.053168301448936216,0.19199232013854015,-0.767505962644907,-0.004875223346640104,-0.005651117308558113,-0.0017705044382495762
9.926,-2.2835159815865254,0.2176194783822042,-0.14230003645187517,-0.16464791828971798,-0.05127387403244884,-0.19543134825807001,0.05688971220682812,-0.004743198751650605,-0.0054787889796027054,-0.0017074200052805465
9.959,-2.2852234015918063,0.2177507149145105,-0.14266693621008208,-0.16450385757850425,-0.051283945320736664,0.003941037006195703,-0.000302441089724461,-0.004755413392094743,-0.005473980690110736,-0.001707755379180531
9.993,-2.2869311569709865,0.2245362520890631,-0.14740218841413813,-0.16937863901013675,-0.05778492181831854,0.20376988512169977,-0.1952245194469032,-0.004913843603468186,-0.00563564619907192,-0.0019242378965500075
10.027,-2.2888553948675368,0.21811778830654835,-0.14350497729329878,-0.1642610454970686,-0.056824215211642666,-0.19274666013557837,0.02885004824852477,-0.00478381739661923,-0.005465430170005599,-0.001892246366547701
10.059,-2.290747641234084,0.21829525615404846,-0.14393255564027585,-0.16412263185258924,-0.05744712487872924,0.005329364789793163,-0.018705996008605744,-0.0047981080664502036,-0.005460757930266987,-0.0019129892584616838
10.093,-2.292660630492546,0.22510232489897342,-0.14874426665193882,-0.16895620679069445,-0.018139845227449693,0.20441647882657518,1.1803987883267129,-0.004954810315501263,-0.005624809424783045,-0.0006040568460740748
10.126,-2.29326468733862,0.21857808347289445,-0.14453221977227199,-0.16397199767760132,-0.01749843382379188,-0.1959231659483172,0.01926160371344785,-0.004814442886851574,-0.005458927241494682,-0.0005826978463322696
10.16,-2.2938473851849523,0.2185635691548011,-0.1446181375925026,-0.1638768685353778,-0.01874641072425082,-0.0004358654082087226,-0.037476783797565805,-0.004817416421240262,-0.005455658534228889,-0.0006242554771175524
10.194,-2.2944716406620698,0.2002484416579578,-0.13259317085095954,-0.1500616187775168,0.0299331373940781,-0.5500038287340331,1.461848291841709,-0.0044127967361798715,-0.004999308703799466,0.0009967734752228008
10.227,-2.293474867186847,0.20661085232997906,-0.13665160082763558,-0.15496575199625548,-0.011310525202585736,0.19106338354418187,-1.2385484263262412,-0.004551403269715534,-0.0051595613341921046,-0.0003766404892461051
10.26,-2.2938515076760932,0.2064028750418754,-0.1365723434116641,-0.15475833367091582,-0.0137441803265077,-0.00624556420731682,-0.07308273645411299,-0.004548971557282453,-0.0051524704307561,-0.00045768120487270646
10.294,-2.294309188880966,0.21189665686960305,-0.1402801612550227,-0.15881331666701984,0.017627947176566947,0.16497843326509426,0.9421059310232625,-0.004669708487209267,-0.005289914597043571,0.0005870106409796794
10.326,-2.293722178239986,0.21784615270284263,-0.1441229884713487,-0.16335700303787937,-0.02494412537318652,0.17866353853572334,-1.2784406171097136,-0.00480148388550482,-0.0054378564339063115,-0.0008306393749271113
10.359,-2.2945528176149135,0.21752296438711846,-0.1440446128464419,-0.16299505988120708,-0.023032418624295795,-0.009705354826551682,0.057408611077799584,-0.004798696442626286,-0.005425957546156663,-0.0007669795401890501
10.394,-2.2953197971551025,0.2241387757999237,-0.14855440313246912,-0.16783855375641293,0.001351754088455129,0.19867301539955654,0.732257438821349,-0.004946663545068025,-0.005589199153528513,4.50134111455558e-05
10.426,-2.295274783743957,0.21768974796865734,-0.14427278718915054,-0.16301591715943456,0.0017347535753232458,-0.19366449943742814,0.011501486092135638,-0.004804056807500059,-0.005428630937011567,5.776729405826409e-05
10.46,-2.2952170164498984,0.21786812374240971,-0.14438157989171674,-0.1631578338021493,0.0013194362041825105,0.005356629842413697,-0.012471993127349406,-0.004807716978854228,-0.005433323667584411,4.3937225599277604e-05
10.493,-2.2951730792242993,0.20072749970868226,-0.13301585405951505,-0.15032734850358012,0.01213849530871984,-0.51473345446629,0.32489666980592574,-0.004428351341888131,-0.005006853056736944,0.0004042118937803707
10.526,-2.294768867330519,0.20650790397511726,-0.13678382257570246,-0.15471166822762591,-0.007048770005525796,0.1735857137067568,-0.57619415358095,-0.004555439262012378,-0.005151422850121644,-0.00023472404118400904
10.559,-2.295003591371703,0.20689807411019065,-0.1370786374071033,-0.15497180465206514,-0.006222787901242919,0.01171682087307484,0.024804267395882186,-0.00456518653772899,-0.005160147154074697,-0.00020721883711138922
10.593,-2.2952108102088142,0.22484448205375077,-0.14900377950561253,-0.1683832378922031,-0.06161460406821999,0.5389311694762797,-1.663417902912224,-0.004967502212721294,-0.005602131883184184,-0.002051766315471726
10.626,-2.297262576524286,0.21859852311929448,-0.14520018153768752,-0.16340814420144215,-0.061369805197320035,-0.18756633436805661,0.007351317444443056,-0.004840652519325804,-0.005436609414942909,-0.0020436145130707573
10.66,-2.2993061910373567,0.21852715416030583,-0.14548630686631642,-0.16305781680067374,-0.06250970099906948,-0.0021432119816412786,-0.03423110515764103,-0.004850271645581878,-0.005424841818935497,-0.002081573043269014
10.693,-2.301387764080626,0.21297632296294924,-0.14212128167398172,-0.15862047609991345,0.04577426567097364,-0.16669162754824568,3.2517707708721653,-0.004728542807019192,-0.005285727905153888,0.0015242830468434223
10.726,-2.2998634810337824,0.20663321974165777,-0.13765372236885406,-0.1541062627500994,0.03940008856733139,-0.19048358021896317,-0.19141672983910657,-0.004580434750665697,-0.005134803388619763,0.0013120229492921355
10.76,-2.29855145808449,0.20623268361783956,-0.13718497831276122,-0.15398766677089157,0.040678657666490536,-0.012028111826372749,0.038395468443217604,-0.004564718971109033,-0.005130940853430733,0.001354599300294135
10.793,-2.297196858784196,0.22442120150516284,-0.1490567669287496,-0.16777054544159212,-0.018251795834408543,0.5462017383580565,-1.7696832883152875,-0.004965215569902486,-0.0055853146396176384,-0.0006077848012858045
10.827,-2.297804643585482,0.21769599277518162,-0.14468888301667365,-0.16265507185993083,-0.01846468778276299,-0.20195822011955628,-0.0063931516022356395,-0.004819734673096926,-0.005414994613119236,-0.0006148741031660076
10.859,-2.298419517688648,0.2174414488208607,-0.14461957172796228,-0.1623759931102371,-0.013291696412746648,-0.0076439625922199335,0.15534508618667692,-0.0048169582943302725,-0.005406116918214252,-0.0004426134905444634
10.893,-2.2988621311791926,0.18957257956289697,-0.12614672719904593,-0.1415088906715772,0.0011689074819107778,-0.8369029807196313,0.4342523692089316,-0.004200533356566441,-0.004712382140873771,3.892461914762891e-05
10.927,-2.2988232065600447,0.19451597652880837,-0.1294305454727322,-0.1452039910732034,-0.004336598249616191,0.14845035933667852,-0.1653305024482573,-0.004310323745263428,-0.004835037430105297,-0.00014440872171221918
10.96,-2.298967615281757,0.19494761030376842,-0.12973876763158942,-0.14550746694443692,-0.0032991967603794117,0.012961975224025679,0.031153197874978358,-0.004320504454170159,-0.004845217197670248,-0.00010986325212063442
10.994,-2.2990774785338774,0.22437493030002847,-0.14934121820716578,-0.1674553967226567,0.01605367991254304,0.8837033031909926,0.5811674676553288,-0.004971499690838495,-0.005577658012862978,0.0005345875410876832
11.027,-2.29854289099279,0.21824405192001398,-0.14517348603477737,-0.1629574335554413,0.01941808158997979,-0.18411046186229724,0.10103308340650906,-0.004832452102701156,-0.005428107635038117,0.0006466221169463271
11.06,-2.2978962688758435,0.21842670096986763,-0.14518949169151057,-0.16318772992765346,0.01905324966814562,0.005484956452061739,-0.010955913568593722,-0.0048330155348229546,-0.005435747328588723,0.0006344732139492492
11.093,-2.2972617956618944,0.22517406280342625,-0.1495677353992761,-0.16832364981467543,-0.01126786850371588,0.20262347848524379,-0.91054408924509,-0.00498158457685581,-0.005604307425266092,-0.0003752200211737388
11.126,-2.297637015683068,0.21858817967770805,-0.1452544844236269,-0.1633460346921232,-0.012787033087219239,-0.1977742680395856,-0.04562055806316391,-0.004838061923124427,-0.005438455552387225,-0.0004258082018044007
11.159,-2.2980628238848726,0.2184699526495483,-0.14524542443466903,-0.1631958543943097,-0.013858905903694126,-0.003550361205998523,-0.032188372867113735,-0.004837856187431515,-0.0054333682629511765,-0.00046150156659301443
11.193,-2.2985243254514653,0.2124502704592869,-0.1413165827403167,-0.158633983940464,0.007395982707287047,-0.18077123694478642,0.6382849432727079,-0.004705123323898109,-0.005283151957665636,0.0002462862241526587
11.227,-2.2982780392273128,0.20662934341319822,-0.13740664523129678,-0.15432141590087214,-0.0214409398697848,-0.1748026139966574,-0.8659736509631184,-0.0045774090000079365,-0.0051373284492363756,-0.0007139832976638339
11.259,-2.2989920225249767,0.20616800102598976,-0.13720975866809537,-0.15387893544372974,-0.022261994079166725,-0.01385412574199589,-0.024656282564021817,-0.004570917629134395,-0.005122533611970114,-0.000741324402836252
11.294,-2.299733346927813,0.2245349763631995,-0.1495576178069451,-0.16747678814192224,0.023387316039123137,0.5515608209372294,1.370850153702398,-0.004978024346494769,-0.005578980175340589,0.0007787976241028005
11.327,-2.2989545493037102,0.21739440602212362,-0.14467512051716738,-0.16226348102100804,0.023227364929500567,-0.21443154177405027,-0.0048033366253023985,-0.004815521447138515,-0.00540529882985329,0.0007734712521523689
11.359,-2.2981810780515577,0.21750881927337043,-0.1446256466073384,-0.1624607915932487,0.0242171908160607,0.0034358333707750384,0.02972450109790192,-0.004813782138165316,-0.005411947935788332,0.0008064324541748214
11.393,-2.297374645597383,0.20087643410245679,-0.13344542656959565,-0.15014546248680752,0.001269640337761232,-0.4994710261535628,-0.689115629978963,-0.004443562342473429,-0.004999995308543568,4.227902324744903e-05
11.427,-2.2973323665741354,0.20673832304978396,-0.13733303973992106,-0.1545327486755804,0.015567140189066176,0.17603270112093605,0.42935434988903737,-0.004571789657035514,-0.005147184768091719,0.0005183857682959037
11.459,-2.2968139808058394,0.2065260928409846,-0.1371120147543739,-0.1544452085179704,0.017760054388403487,-0.006373279543523922,0.06585327925937871,-0.0045642424725763665,-0.005144434313873953,0.0005914098111338362
11.493,-2.296222570994706,0.21293730784602263,-0.1412741993403798,-0.15932324900480296,-0.007399321007045795,0.19252897913027095,-0.7555367986621405,-0.004705015805973673,-0.005304945410856109,-0.00024639738953462497
11.527,-2.2964689683842403,0.2068531686295024,-0.13727578125174286,-0.15473717476349697,-0.008298514146508828,-0.182706883378986,-0.027002796980871848,-0.004571928779132886,-0.005152175369743659,-0.000276340521078744
11.56,-2.296745308905319,0.20700610938226383,-0.13742006518507072,-0.1548136137622034,-0.008870712564741607,0.004592815398241045,-0.017183135682666047,-0.004576782860104491,-0.005154676581061272,-0.00029539472840589553
11.593,-2.297040703633725,0.22467219278714193,-0.1491972417398418,-0.1679814789463585,0.005062084045654941,0.5305130151615045,0.41840230061250894,-0.004967724309057757,-0.005594266216603128,0.00016856739872030956
11.626,-2.2968721362350046,0.21856532472118984,-0.14511432759434797,-0.16343999846218618,-0.018303975688595774,-0.18338943140997271,-0.7016834755030245,-0.004833895116071818,-0.0054411414314221316,-0.0006095223904302394
11.659,-2.297481658625435,0.21839993494786694,-0.1451040366715674,-0.163227908541551,-0.019716500164583876,-0.004966659859546358,-0.04241815243207511,-0.004833678155535623,-0.005433965244483044,-0.0006565594554806431
11.693,-2.298138218080916,0.22478516293409595,-0.1494566262746203,-0.16790201409726013,-0.0031234154375845043,0.19174858817504528,0.4982908326426237,-0.004977124102687492,-0.005590942607774899,-0.000104009734071564
11.726,-2.298242227814987,0.2178036186080769,-0.14483161178343026,-0.16267212578369525,-0.0027062136685327837,-0.20965598576633784,0.012528581653204822,-0.004823066688975755,-0.0054168268483830604,-9.011691516214171e-05
11.76,-2.298332344730149,0.2174621980351416,-0.14461921526421262,-0.1624040952397398,-0.0007081938622319881,-0.010252870058116861,0.06000059478380766,-0.004815813692221623,-0.005408061871002775,-2.3582855612325208e-05
11.793,-2.2983559275857615,0.22402049490294676,-0.1489846347894278,-0.16729841820298844,-0.03397749340053249,0.19694585188604058,-0.999078064213228,-0.0049642669394894005,-0.005568293673654696,-0.001131450530237732
11.827,-2.2994873781159995,0.21748813233633082,-0.14482397039308448,-0.16225629512203324,-0.0330385458132557,-0.19616704404252053,0.0281966242425461,-0.004825539613771917,-0.005400543055365339,-0.001100183575581415
11.859,-2.300587561691581,0.2175814738775478,-0.14506462653761726,-0.16216643272338346,-0.03242913022313606,0.0028030492857953355,0.01830076847206134,-0.004833497095425199,-0.005397595387976411,-0.001079890036430431
11.893,-2.301667451728011,0.22440036237233213,-0.14979139820305945,-0.16708698230923455,0.04447857759222324,0.20477142626979938,2.3095407752360146,-0.004983859207915955,-0.005567752929136782,0.0014811366338210342
11.926,-2.3001863150941904,0.21793076977784875,-0.14523232214088969,-0.16248505476360145,0.043598311682337645,-0.19428205989439565,-0.02643441170827614,-0.004832236874230272,-0.005414323601497368,0.0014518237790218437
11.959,-2.298734491315168,0.21811187658387404,-0.14511676561348322,-0.16283094007227397,0.04319155520652488,0.005438642823582237,-0.012214909183566526,-0.004828417087483609,-0.005425806043563067,0.0014382787883772787
11.993,-2.297296212526791,0.22489737237188273,-0.1493897348274309,-0.16811167487110215,0.020813415112558346,0.20376864228254318,-0.672016219038034,-0.004972665355096775,-0.005599906580703844,0.000693086723248193
12.026,-2.296603125803543,0.21845879099785043,-0.14499964468037205,-0.16339934640875514,0.01911556122393267,-0.19335079201298208,-0.0509866032620323,-0.004826685655791531,-0.005442797076635541,0.000636548188756958
12.06,-2.2959665776147857,0.21855197369112878,-0.14495740837310953,-0.1635613492303099,0.01812861558361225,0.0027982790774278856,-0.02963800721682946,-0.004825366935833161,-0.0054481120208182314,0.0006036828989342879
12.094,-2.2953628947158515,0.21256088522565786,-0.14088768369840238,-0.1591627799141942,-0.01440600218718971,-0.17991256653065815,-0.9770155486727314,-0.004692762439219248,-0.005299055744558209,-0.00047971987283341734
12.127,-2.295842614588685,0.20694350798850195,-0.13723874447408882,-0.1548907437962738,-0.0031889851303229773,-0.16869000712179916,0.336847359065067,-0.004570257341274713,-0.005157678214100785,-0.00010619320483975516
12.159,-2.2959488077935246,0.20675977121907638,-0.1371333287119773,-0.1547386608153812,-0.002731723058616545,-0.005517620703470532,0.013731593744937909,-0.004566707564464372,-0.005152648760861549,-9.096637785193096e-05
12.193,-2.2960397741713767,0.22461416717190485,-0.14899054000481218,-0.16808730791883986,0.03014023656220708,0.5361680466314858,0.987145934559268,-0.004958502800064825,-0.005599860340964465,0.0010036698775214958
12.226,-2.2950361042938554,0.2179251630548004,-0.14438985261552864,-0.16322667415017453,0.030520839014272317,-0.20087099450764154,0.01142950306502212,-0.004805348791166204,-0.005437952846665686,0.0010163439391752682
12.259,-2.29401976035468,0.2175596254294085,-0.14398196913318234,-0.16309930466288278,0.028140584638234042,-0.010977105867624746,-0.07147911039153979,-0.004791983855420494,-0.005433514492655842,0.0009370814684531936
12.293,-2.293082678886227,0.22409377106594935,-0.1481488043035874,-0.16813670037792314,-0.025326037068676144,0.19622058968591188,-1.6056042554627683,-0.0049356431690631055,-0.005596935004339982,-0.0008433570343869157
12.326,-2.2939260359206135,0.21757155330042693,-0.14397457519302828,-0.1631217413576362,-0.024515718131184878,-0.19586239536103361,0.024333902026764744,-0.004796499843815376,-0.0054300584282661315,-0.0008163734137684565
12.359,-2.2947424093343822,0.21769071839352244,-0.14418662400276278,-0.16309342823478146,-0.024288235202410535,0.0035785313241894273,0.006831319182412709,-0.004803540134950856,-0.005429131007073115,-0.0008087982322402709
12.394,-2.2955512075666222,0.20061236062997803,-0.13299635590300352,-0.1501908404465931,-0.018849370221695104,-0.5128635965028351,0.16332927870016306,-0.004430283328989188,-0.005000022020849632,-0.000627684028382447
12.426,-2.2961788915950048,0.20662097881195607,-0.13707685004042067,-0.15460325374391973,-0.03313399228413074,0.18043898444378487,-0.4289676295025716,-0.004567431839799517,-0.005145828142730098,-0.0011033619430615537
12.46,-2.2972822535380666,0.20673417414916198,-0.13732253956779053,-0.15453652929902575,-0.03150150483059659,0.0033992593755529264,0.04902364725327776,-0.004575472315211819,-0.005143726203915289,-0.0010490001108588666
12.493,-2.298331253648925,0.2129495128426468,-0.14161796386970432,-0.15903410744025862,0.17243070896744347,0.1866468076121565,6.124090504445647,-0.004700579464032222,-0.0053094065860903724,0.0057419426086158685
12.526,-2.2925893110403095,0.20704064624146104,-0.13679829480293357,-0.15540931675768832,0.17017854718182568,-0.1774434414770496,-0.06763248605458845,-0.004540628184114904,-0.005188068795070423,0.005666945621154796
12.56,-2.2869223654191546,0.20712353077911605,-0.135969817772414,-0.15624457000914935,0.1692379417976301,0.002489025154805079,-0.028246407933801055,-0.0045130426292747175,-0.005215733449653474,0.005635623461861083
12.593,-2.2812867419572935,0.20068630781112376,-0.1308887347578013,-0.1521286733537207,0.16297479047443708,-0.1933099990388075,-0.18808262231810877,-0.004344761401584287,-0.005077743298254898,0.005427060522798756
12.626,-2.2758596814344947,0.19550139156123433,-0.12670094845860877,-0.14888809140447748,0.157826131591561,-0.15570319068737015,-0.1546143808671495,-0.004206029335676359,-0.004969092074401762,0.005255610181998982
12.659,-2.270604071252496,0.19522100979899762,-0.12573611880623717,-0.14933744036404312,0.15765886667120024,-0.008419872739841273,-0.005022970581404208,-0.004173875033452527,-0.0049839588698168775,0.0052500402601509686
12.693,-2.265354030992345,0.18928049898627103,-0.12114816378704077,-0.1454311854710677,0.11357755564049392,-0.1783937180998976,-1.3237630940152048,-0.004025003346994186,-0.004850527982479035,0.003782132602828448
12.726,-2.2615718983895166,0.1832490326886286,-0.11675439942027661,-0.14123957730511866,0.10899888928350097,-0.18112511404331602,-0.1374974881979863,-0.003879316395296567,-0.004710373685010849,0.003629663013140583
12.759,-2.257942235376376,0.18311159800063015,-0.11615379997833387,-0.14155617991786013,0.11161444534275829,-0.004127167807761429,0.07854522700472409,-0.0038590915122171227,-0.004721047911652985,0.003716761029913851
12.793,-2.254225474346462,0.2341513645290917,-0.14785622160965986,-0.18156376081737988,0.16470039608763276,1.5327257215754215,1.5941726950412753,-0.0049069292519839675,-0.006059608186941517,0.0054845231897181716
12.826,-2.2487409511567438,0.21791415960757554,-0.13667434292349623,-0.1697253809655659,0.08372440521285149,-0.4876037513968812,-2.431711437681119,-0.004543297797806591,-0.0056582511228522045,0.0027880226935879547
12.86,-2.245952928463156,0.2177624426859458,-0.13610578808843132,-0.16998734039150346,0.08531938928353194,-0.004556063712604833,0.047897419539953606,-0.004524202121381235,-0.0056670678010899474,0.002841135663141614
12.893,-2.2431117928000144,0.22250464259826044,-0.13857572078588998,-0.17408355920778584,0.15559355222215232,0.1424084057752145,2.110335223381993,-0.004599457907377881,-0.0058089707045553655,0.005181265288997673
12.926,-2.2379305275110166,0.20661118338615517,-0.12783801776764095,-0.16231334607316725,0.07884921114551643,-0.4772810574205788,-2.3046348671662424,-0.004249835184177855,-0.005410671940895614,0.0026256787311456976
12.96,-2.235304848779871,0.20667070439151122,-0.12744809984293431,-0.16269530386618067,0.07961792935809278,0.0017874175782599325,0.023084631008298707,-0.0042367646308603645,-0.005423428103334148,0.00265127704762449
12.993,-2.2326535717322464,0.20132199732485911,-0.12372907764011991,-0.15881329274716197,-0.027289535259100717,-0.16062183383339665,-3.2104343728886935,-0.004122512275744621,-0.0052866631508272305,-0.0009087415241280539
13.026,-2.2335623132563747,0.19548079483358663,-0.12027925714123393,-0.15409620842293206,-0.02496364749028658,-0.17541148622439892,0.06984647954396804,-0.0040073652968794695,-0.005129790197432142,-0.0008312894614265433
13.059,-2.234393602717801,0.19554113781097915,-0.12044448266204139,-0.1540437053978044,-0.026535041153141658,0.0018121014231987696,-0.04718899888453685,-0.004013000754171947,-0.005127934618779873,-0.0008836168703996173
13.093,-2.2352772195882005,0.21312551596921855,-0.13142396779915766,-0.16778029158715754,0.19702503916300199,0.5280594041513335,6.713515925409718,-0.004357986106906665,-0.005601456633948356,0.006560933804127967
13.127,-2.2287162857840728,0.20683411173810023,-0.12647333220968712,-0.16366076505463076,0.19138721820111512,-0.1889310579915411,-0.1693039327893953,-0.00419409620439825,-0.0054633413332677815,0.006373194366097134
13.16,-2.2223430914179754,0.20678237084396242,-0.1253963523318911,-0.16442233337873002,0.19204927106613795,-0.0015537806047391564,0.019881467418102924,-0.0041580913274854745,-0.005488632411330311,0.006395240726502395
13.193,-2.215947850691473,0.2246228136352799,-0.1350700812009004,-0.1794755737414199,-0.04528948309864208,0.5357490327722962,-7.127289914858259,-0.0045022614708458445,-0.0059732008898192345,-0.0015081397871847815
13.227,-2.217455990478658,0.21777686106506589,-0.13121575206700214,-0.1738079043796456,-0.04673572774462977,-0.20558416126768778,-0.04343077014978057,-0.004373911744879929,-0.005784457336446764,-0.0015562997338961716
13.26,-2.219012290212554,0.21777977301257045,-0.1314878483789517,-0.17360580422923802,-0.046774465653974515,8.744587100808211e-05,-0.0011633005809231938,-0.004382971124459482,-0.005777717642687667,-0.0015575897062773516
13.293,-2.2205698799188314,0.1991615300510593,-0.1204939444562236,-0.15857655691072214,0.19298132847001592,-0.5591063952405751,7.19987369741713,-0.003995385028620844,-0.005293507184515821,0.00642627823805153
13.326,-2.21414360168078,0.19479842766992164,-0.11685508193645636,-0.155856720253885,-0.004438691575005473,-0.13102409552965935,-5.928529130481123,-0.003891590657859652,-0.005189791516016283,-0.00014780842944768225
13.36,-2.214291410110228,0.19470520661841106,-0.11682218541538203,-0.15576486920705918,-0.0036348595850698973,-0.002799430976293634,0.024139098796864124,-0.0038904255998282147,-0.005186785013662208,-0.0001210408241828276
13.393,-2.2144124509344105,0.22492336171690755,-0.13497471184813561,-0.17992316640040434,0.03443816990297907,0.9074521050599544,1.1433342188603293,-0.0044911439304608156,-0.00599407543071974,0.0011467910577692031
13.426,-2.213265659876641,0.21792415546225485,-0.13057454463074858,-0.17447414085878077,0.03931359083166265,-0.21018637401359444,0.14640903689740478,-0.004344252862619724,-0.005812889579747347,0.0013091425746943664
13.459,-2.211956517301947,0.21813211306396127,-0.13047040604725765,-0.17481158970621055,0.038850204747587935,0.006244973024216682,-0.013915498020261728,-0.004340822490487721,-0.005824090827111201,0.0012937118180946783
13.493,-2.210662805483852,0.21325487268084314,-0.1273319977472408,-0.17106783178557938,0.021072338982738633,-0.14646367516871248,-0.5338698427882673,-0.004238082818518181,-0.005698100821719853,0.0007017088881251965
13.526,-2.209961096595727,0.20693746723025574,-0.12344343441782916,-0.16608682621690463,0.026252740558565302,-0.18971187539301496,0.15556761488968973,-0.0041081767781744214,-0.00553254054738095,0.0008742162606002246
13.559,-2.2090868803351267,0.20695158674064257,-0.12330660419620723,-0.16620601859159492,0.024256642388255978,0.00042400932092561615,-0.05994288799727699,-0.004103802569010422,-0.005536371241169714,0.0008077461915289242
13.593,-2.2082791341435977,0.20107432209764506,-0.11967431353204033,-0.16158261567279575,-0.0065155167469427636,-0.17649443372364892,-0.924088862918881,-0.003985668740206969,-0.005380320285542543,-0.00021696670767319405
13.626,-2.208496100851271,0.19540279071869157,-0.11633282901296037,-0.15699975641539735,-0.004221205100170028,-0.17031625762623082,0.06889824765083288,-0.003874183025757142,-0.005227869709919555,-0.00014056612983566195
13.659,-2.2086366669811066,0.1952214377360207,-0.1162469079389538,-0.1568377063921537,-0.00601128554959044,-0.005446035515642187,-0.05375616965226461,-0.0038714771945159297,-0.005222358217390742,-0.00020017580880136166
13.693,-2.208836842789908,0.18905808340675445,-0.11260726758135886,-0.15186363023876245,-0.0015204766933555594,-0.1850857155935806,0.13485912481185827,-0.003749884628850697,-0.005057012453802957,-5.063187388874013e-05
13.726,-2.2088874746637965,0.1834572933727,-0.10927877165921517,-0.14735918212412158,-0.007711056038804063,-0.16819189291454797,-0.1859032836471022,-0.003639549609929069,-0.0049066405773618834,-0.0002567781660921753
13.759,-2.209144252829889,0.18322154572796828,-0.10917613184421089,-0.14714179234494004,-0.004348608820736432,-0.007079508850802427,0.10097439093296189,-0.003635856577662892,-0.004899605461759146,-0.0001448086737305232
13.793,-2.2092890615036196,0.17761046938121738,-0.10585331632476448,-0.14262031502161854,0.00017824114963162232,-0.16850079119372066,0.1359414405515932,-0.003524839914602131,-0.004749312539931145,5.9354302827330235e-06
13.826,-2.2092831260733368,0.1716249286992544,-0.10228520113182074,-0.13781456302019437,0.0002572819082585025,-0.17974596642531523,0.0023735963551615676,-0.003406018183805974,-0.0045892835912976545,8.567487545008135e-06
13.859,-2.2092745585857916,0.17167621355061247,-0.10231458484903223,-0.1378566212637089,0.000878438962699475,0.0015400856263687662,0.0186533649982274,-0.0034069491590426318,-0.004590719383275902,2.925201745789252e-05
13.893,-2.209245306568334,0.16613200947622514,-0.09900648016144938,-0.13340750150815767,-0.004619945320247507,-0.16649261484646624,-0.165116645133543,-0.003297200047090433,-0.004442258821512492,-0.000153844179164242
13.926,-2.209399150747498,0.1604316719677904,-0.0956291788950558,-0.12881530000057492,-0.0031425254929124693,-0.17118130655960173,0.044366961781832956,-0.0031846206170196116,-0.004289424050372062,-0.00010464609891398524
13.959,-2.209503796846412,0.16053084735740095,-0.0957017826127962,-0.12888491672037602,-0.0033712695504657924,0.0029782399282445994,-0.0068691909175172105,-0.0031870547573740375,-0.00429173005346527,-0.0001122632760305109
13.994,-2.2096160601224426,0.15462022643835022,-0.09219205314880057,-0.12412912534959483,-0.0011970903402321205,-0.17749612369521708,0.06529066697398413,-0.003070024296351692,-0.004133478389553339,-3.9863108329729614e-05
14.026,-2.2096559232307724,0.14933792688625705,-0.0890472698734764,-0.11988494540502288,0.00271645560695327,-0.15862761417697196,0.1175239023178796,-0.002965041886601779,-0.0039923411413562305,9.04579717115439e-05
14.059,-2.2095654652590606,0.14941946073558626,-0.0890850360706151,-0.11995845778773004,0.00238432041003426,0.0024484639438202044,-0.00997402993750781,-0.002966321450153856,-0.003994772773307613,7.939786965414087e-05
14.093,-2.2094860673894066,0.14273406487175022,-0.08509005287560187,-0.11459797631913175,-0.013994179315065454,-0.20076263855363485,-0.49184683859158296,-0.002834338477098529,-0.0038154889173904697,-0.00046600617119167963
14.126,-2.2099520735605984,0.13812231570055272,-0.08239245534521006,-0.11085692308859525,-0.0078112739659582375,-0.138490966102027,0.18567283330652298,-0.0027441011049070107,-0.003691214152880552,-0.0002601154230664093
14.159,-2.2102121889836646,0.13811908798963785,-0.08241936209137395,-0.11083289773140606,-0.00904188220636544,-9.692825570201374e-05,-0.03695520241463069,-0.002745072617840324,-0.003690357755272778,-0.00030109467747196916
14.194,-2.2105132836611365,0.13052215010481347,-0.07791759777436752,-0.1047133211442333,-0.011272612049500278,-0.2281362728175489,-0.06698888417822338,-0.0025952653155744605,-0.0034865000898148648,-0.0003753779812483593
14.227,-2.210888661642385,0.12665310474751193,-0.07564603657208466,-0.10158093370863974,-0.007700661848190741,-0.11618754826731341,0.10726577181109721,-0.0025194029543123752,-0.0033823546623964903,-0.0002564320395447517
14.259,-2.21114509368193,0.12657245870323394,-0.0756238986833063,-0.10149686325260937,-0.008854744401853553,-0.0024218031314711024,-0.034657133743628,-0.0025187303769504316,-0.0033795068002638704,-0.00029486298858172333
14.293,-2.2114399566705116,0.11845515530117542,-0.07080201689973194,-0.09496682694686423,0.03960235391843404,-0.2437628649266822,1.455168117726354,-0.002355580341092581,-0.0031639795095042343,0.0013187583854838536
14.326,-2.2101211982850275,0.11485886511771198,-0.06853097691069676,-0.09217409668553471,0.03548987277809319,-0.10799670220610932,-0.12349793214236768,-0.0022802275581472707,-0.003070774692926143,0.0011818127635105035
14.359,-2.208939385521517,0.11466651967405649,-0.06830741541782887,-0.09210053057988829,0.0347360764352947,-0.005776139449114047,-0.022636526810765525,-0.002272822956459912,-0.0030682919290602262,0.0011567113452953135
14.393,-2.207782674176222,0.11821926154541701,-0.07031391982161324,-0.09503550115437628,0.12417986641626459,0.1066889450859016,2.6859996991282244,-0.0023348625930964565,-0.0031695445374370903,0.004135189551661611
14.426,-2.20364748462456,0.11452339787581357,-0.06773442552669785,-0.0923453098949271,0.12147643895966564,-0.11098689698508815,-0.08118400770567409,-0.002249290754768118,-0.00307968156739732,0.004045165417356866
14.459,-2.1996023192072034,0.11449991828073848,-0.06734651009306657,-0.09259956190274485,0.12279908074751053,-0.0007050929451979948,0.03971897260795453,-0.0022362879320349284,-0.0030881710441812904,0.004089209388892101
14.494,-2.1955131098183114,0.1180032255808405,-0.06901625991030166,-0.09571581434369358,0.014910737917734035,0.10520442342648718,-3.239890175068363,-0.002297408829589975,-0.0031879367704234877,0.0004965275726605434
14.527,-2.1950165822456507,0.11440856702992401,-0.06686777464855582,-0.0928332964156211,0.014902855624205442,-0.10794770423172652,-0.0002367055113691525,-0.0022258897511145603,-0.0030919299483458712,0.0004962650922860413
14.56,-2.1945203171533647,0.11432173447099986,-0.06677098089392636,-0.0927959863513542,0.01672148413992717,-0.0026075843520766357,0.05461346894059239,-0.002222573250157197,-0.00309075397487473,0.0005568254218595748
14.593,-2.193963491731505,0.11787455090602504,-0.06879275832976572,-0.0957181599942223,0.13768984280744784,0.10669118423499047,3.632683443469089,-0.0022834422838628704,-0.003192684822076741,0.004585071765488014
14.626,-2.189378419966017,0.11429772388565289,-0.06627902962267637,-0.09311852617882939,0.13562586509225466,-0.10741222283399858,-0.06198131276856387,-0.00220004178461282,-0.0031058488158017734,0.004516341307572081
14.66,-2.184862078658445,0.11433429906336075,-0.06587887449122191,-0.09344680753284108,0.13613769877607115,0.001098353684920701,0.015370380895390171,-0.0021866652621074416,-0.00311676889953122,0.00453338536924317
14.693,-2.180328693289202,0.11789768221889561,-0.0674945488037975,-0.09666617482014839,0.18613663716413517,0.10700850316921519,1.5014696212631835,-0.002237536199288784,-0.003225957534594561,0.0061983500175657015
14.727,-2.174130343271636,0.11446437971287914,-0.06494606031770894,-0.09425552223749381,0.1815385243795709,-0.10310217735785218,-0.13808146500192978,-0.0021531628730857757,-0.003145254625467237,0.006045232861839712
14.759,-2.1680851104097965,0.11453832488546842,-0.06441666745717914,-0.09470755419331824,0.1816286275136299,0.002220575753431892,0.0027057998215914165,-0.002135483761623438,-0.003160256883354944,0.006048233296203877
14.793,-2.1620368771135925,0.13036125624515144,-0.07266224550498135,-0.10823241292694094,-0.16689398948368095,0.4751631038943849,-10.466144654573899,-0.0024296088949814915,-0.0035974285433536006,-0.005557569849806576
14.826,-2.167594446963399,0.11486017975721347,-0.06455107162879324,-0.09500536850848901,0.030261270911964927,-0.46549779243056966,5.920578390259635,-0.0021479153701366837,-0.0031647890674351333,0.0010077003213684321
14.859,-2.1665867466420305,0.11481491656120175,-0.06442990189180511,-0.09503290381319561,0.031142426332849922,-0.0013592551354868043,0.026461123750300148,-0.0021438334943677476,-0.0031657353528413367,0.0010370427968839026
14.893,-2.1655497038451466,0.11838976225916623,-0.06633431619604307,-0.09806066643963458,0.04813208480154269,0.10735272366259672,0.5101999540147979,-0.002206272622812968,-0.003267217565820924,0.0016027984238913718
14.926,-2.1639469054212555,0.11497731289249112,-0.06426958159254542,-0.09533731358653312,0.046608547785341146,-0.10247595695721035,-0.045751862348394755,-0.002137671431408748,-0.00317641976174813,0.0015520646412518603
14.959,-2.1623948407800033,0.11502307507820043,-0.06414705561736118,-0.09547493417682205,0.04576314351437252,0.001374239811090504,-0.025387515644703408,-0.0021336324856434013,-0.003180969285270305,0.0015239126790286051
14.993,-2.160870928100975,0.1185414293510222,-0.06595917900322573,-0.09849597543962804,0.057614461911404145,0.1056562844691221,0.35589544735830697,-0.0021932505059481444,-0.0032820493391815266,0.0019185615816497581
15.027,-2.158952366519325,0.11505264014274344,-0.06383440969335237,-0.09571978971412787,0.054844788927543256,-0.10476844469305589,-0.08317336287870537,-0.002122732724275206,-0.0031894357829288685,0.0018263314712871905
15.059,-2.157126035048038,0.11503632016167432,-0.0636504572990503,-0.09582261863443835,0.05334579812094715,-0.0004900895215950626,-0.04501473893682006,-0.0021166836449608723,-0.003192801507417793,0.0017764150774275402
15.093,-2.15534961997061,0.11849572621305167,-0.06538912954017233,-0.09882053869888113,0.17928127005401379,0.10388606760892927,3.781846003995995,-0.0021675795438150765,-0.0032972321904235864,0.00597006629279866
15.126,-2.1493795536778117,0.11500972011645998,-0.06289172091111213,-0.09629053516366622,0.17327270451033755,-0.10468486776551629,-0.18043740371400108,-0.0020849905129621676,-0.0032125259977709222,0.005769981060194241
15.159,-2.1436095726176174,0.11500177920876065,-0.062330778556553515,-0.09664514093173242,0.17280779527756054,-0.00023846569667658596,-0.013961238221531695,-0.002066301990841903,-0.003224264201972971,0.005754499582742767
15.193,-2.1378550730348747,0.11852368310958279,-0.06366540810109822,-0.09997289267187089,0.17605701987307137,0.10576287990456894,0.0975743121775024,-0.0021102440885804345,-0.0033353201612719595,0.005862698761773278
15.227,-2.1319923742731013,0.11478669551615242,-0.061089384663793954,-0.09718061817521487,0.16719786215914767,-0.1122218496525637,-0.266040772189901,-0.0020252152557257096,-0.0032417871536789965,0.005567688809899618
15.259,-2.126424685463202,0.11478078346656986,-0.06054425068999033,-0.09751421415151332,0.16680938546153856,-0.00017753902650321585,-0.01166596689516841,-0.0020070523720649327,-0.0032528321099069093,0.005554752535869235
15.294,-2.1208699329273326,0.09653709261319951,-0.0504647630925933,-0.0822965244479856,-0.17121956829311,-0.5478585841852959,-10.151019632271728,-0.0016882446631587586,-0.0027356905515842247,-0.005701611624160563
15.326,-2.126571544551493,0.05973511484325226,-0.031516366044406746,-0.050744483608482036,-0.16285413870655732,-1.1051644975960135,0.2512141016982785,-0.0010540499212219933,-0.0016869509330101854,-0.0054230428189283595
15.359,-2.1319945873704214,0.026371505177523846,-0.014034942712035224,-0.022326591060841696,-0.16285113434394477,-1.0019102001720244,9.022109947603578e-05,-0.0004693676098552862,-0.0007422106689626932,-0.005422942773653361
15.394,-2.137417530144075,0.0032797214885601626,-0.001760503205667377,-0.0027671648858277635,-0.0409968925777583,-0.693446957626537,3.659286539525119,-5.8686446373123075e-05,-9.2107303948487e-05,-0.0013651965228393514
15.427,-2.138782726666914,-7.255682589857315e-05,3.9030907218046425e-05,6.116437906340673e-05,-0.0009228847804724086,-0.10066901845221428,1.2034236575761528,1.2997341649776635e-06,2.036770660993304e-06,-3.073206318973121e-05
15.459,-2.138813458730104,-0.00015753705103126268,8.474888567319831e-05,0.0001327989037032227,-0.0019942247956447187,-0.0025519587126933787,-0.03217237282799729,2.822227531727431e-06,4.422146285676342e-06,-6.640768569496914e-05
15.493,-2.138879866415799,-0.00016242667018135566,8.738840545982486e-05,0.00013691489976402183,-0.0020566888007842073,-0.00014683540991270222,-0.0018757959501347922,2.9101310605637736e-06,4.559204146092159e-06,-6.848773706611411e-05
15.527,-2.138948354152865,-0.0001579296404070458,8.497804151963038e-05,0.0001331183825720053,-0.001999054465938042,0.00013504593916846455,0.001730760806191144,2.8298589935088762e-06,4.432784549748056e-06,-6.656851371573681e-05
15.559,-2.139014922666581,-0.00015823625630168186,8.515190247326575e-05,0.00013337115997679182,-0.0020007608188668657,-9.207684523605581e-06,-5.1241829694399664e-05,2.835648860758682e-06,4.441201838962987e-06,-6.662533526826663e-05
15.593,-2.1390815480018492,-0.00016373718071708155,8.812131739305751e-05,0.00013800180350303487,-0.002055325040220271,-0.0001651929253873782,-0.0016385652058079645,2.9345376949075943e-06,4.595397587141419e-06,-6.844232383933503e-05
15.626,-2.1391499903256883,-0.00011638751926267997,6.264503123734334e-05,9.809003364966788e-05,-0.0026126265282211303,0.0014219117553874348,-0.016735780420446225,2.08617938193381e-06,3.2663343531946617e-06,-8.700046338976364e-05
15.66,-2.1392369907890783,0.0001312582863374342,-7.065877519341024e-05,-0.00011061679447718133,-0.006220555643768957,0.007436810978982408,-0.10834621968612092,-2.3532710717439378e-06,-3.683325966908948e-06,-0.0002071445029375063
15.693,-2.1394441352920155,-1.877880775565073e-06,1.0112259236396453e-06,1.5823584734806543e-06,-0.005325604037284623,-0.003998083096486463,0.026875423618148188,3.3677813937666646e-08,5.268998656263833e-08,-0.00017734261444157795
15.726,-2.139621477906457,-8.46077882429527e-07,4.5573356511163707e-07,7.128497041923141e-07,-0.005282814851252386,3.09850718659323e-05,0.0012849605415086196,1.5177708601995532e-08,2.3736756471492047e-08,-0.00017591773454670446
15.759,-2.1397973956410037,-1.068587815646973e-05,5.757452611112647e-06,9.002207029707164e-06,-0.005226977051899164,-0.000295489497718925,0.0016768107913880496,1.9174538312119137e-07,2.997592870168526e-07,-0.00017405833582824216
15.793,-2.139971453976832,-1.626438080687659e-05,8.76548316965889e-06,1.3700233130626731e-05,-0.0053814695588627615,-0.00016752260211432013,-0.004639414623531466,2.919255656244837e-07,4.561953826184163e-07,-0.00017920293631012998
15.826,-2.1401506569131423,-2.0333317886519913e-05,1.09614547119013e-05,1.7125721207388826e-05,-0.005222815028724612,-0.00012219030269199164,0.004764400304448942,3.650586567295099e-07,5.702594930545815e-07,-0.0001739197404565296
15.859,-2.1403245766535988,-2.3202730107302387e-05,1.2511720034629955e-05,1.9540305683569948e-05,-0.0052013659832619375,-8.616853515863285e-05,0.0006441154793595855,4.166882115506638e-07,6.506614830781526e-07,-0.00017320548724262253
15.894,-2.1404977821408413,-2.3144794940168214e-05,1.2483855225278447e-05,1.9489353286774912e-05,-0.005302271265133801,1.739794808834039e-06,-0.003030188644800709,4.157612786950578e-07,6.489641380896225e-07,-0.0001765656331289556
15.926,-2.1406743477739703,-2.1713913014949713e-05,1.171529338496581e-05,1.828239369789905e-05,-0.005102128930956573,4.296942718373877e-05,0.006010280305622459,3.9016311246814167e-07,6.087756126013967e-07,-0.0001699008934008539
15.959,-2.140844248667371,-2.106819086468538e-05,1.136992099246066e-05,1.77367855863461e-05,-0.005068628849344933,1.9391055563493464e-05,0.001006008456806002,3.7866057396117746e-07,5.906079020329668e-07,-0.0001687853406831863
15.993,-2.141013034008054,-2.1509994848112934e-05,1.161140672838116e-05,1.810676978795361e-05,-0.005198977679284929,-1.3267386889716328e-05,-0.003914379277477352,3.8670423786344215e-07,6.029269619604061e-07,-0.00017312595672018815
16.026,-2.1411861599647746,-2.173639366020296e-05,1.1736787656009852e-05,1.8295317020184325e-05,-0.005039191120301743,-6.798763125826595e-06,0.004798395164660253,3.908782642995305e-07,6.092063173103676e-07,-0.00016780506430604805
16.059,-2.1413539650290807,-2.2712796034891465e-05,1.2267213867145345e-05,1.9115087435329677e-05,-0.005034365020885747,-2.9321392633288457e-05,0.00014492791039026157,4.085433432601016e-07,6.365034513232645e-07,-0.00016764435519549538
16.093,-2.141521609384276,-2.4441410575208636e-05,1.3204289311580844e-05,2.0567675966963124e-05,-0.005182692538673527,-5.19103465560712e-05,-0.004454279813446842,4.3975307578375724e-07,6.848713511077727e-07,-0.00017258366153782845
16.127,-2.1416941930458138,-2.4741550375309186e-05,1.3370030629683037e-05,2.0817939281670015e-05,-0.005026761675368989,-9.013207210226721e-06,0.0046826085076437695,4.4527107330562737e-07,6.932058706637574e-07,-0.00016739116378978737
16.159,-2.141861584209604,-2.577878341014639e-05,1.3934169284663807e-05,2.1688351722838927e-05,-0.005024258756263783,-3.114813918430037e-05,7.516273589208965e-05,4.6405891137457873e-07,7.221892948638153e-07,-0.00016730781658358398
16.194,-2.1420288920261874,-2.7567994934230708e-05,1.490516952786072e-05,2.3191167845529087e-05,-0.005173792623354296,-5.3730075798327896e-05,-0.004490506519234636,4.963986810910391e-07,7.722295489126263e-07,-0.00017228729435769807
16.226,-2.142201179320545,-2.761014748899072e-05,1.4931961553004547e-05,2.3224055815972683e-05,-0.005018635911115334,-1.2658424852856965e-06,0.004659360727896765,4.97288937961636e-07,7.733259377437698e-07,-0.00016712057584014064
16.26,-2.1423682998963853,-2.843159285581342e-05,1.538020739845778e-05,2.3912438033357562e-05,-0.005015765043775683,-2.4668029033714718e-05,8.621223242194968e-05,5.122171054888336e-07,7.962480357639596e-07,-0.00016702497595773026
16.293,-2.142535324872343,-3.0134501818244093e-05,1.6305637187753716e-05,2.5341949327845708e-05,-0.005164887935012247,-5.1138407280200346e-05,-0.00447816490199893,5.430393722642549e-07,8.438472383089417e-07,-0.00017199076823590784
16.326,-2.1427073156405787,-3.005056167227894e-05,1.6264563769525437e-05,2.5268561933882987e-05,-0.005010396020759715,2.520725104058647e-06,0.004639396824400355,5.416692845978175e-07,8.414049314241784e-07,-0.00016684618749129854
16.359,-2.14287416182807,-3.081946995410891e-05,1.6685051236440902e-05,2.5912328986209702e-05,-0.005007914106810081,-2.309033879369278e-05,7.453195043946587e-05,5.556729926578607e-07,8.628414101396996e-07,-0.0001667635397567757
16.394,-2.143040925367827,-3.253625155227243e-05,1.761904452388241e-05,2.7352823165775765e-05,-0.005157173952590448,-5.1555002947853404e-05,-0.004482277651062055,5.867806117894861e-07,9.108062167470613e-07,-0.00017173389262126193
16.426,-2.143212659260448,-3.2324657736650414e-05,1.7509128752395563e-05,2.7171932359028654e-05,-0.005003190741191531,6.354168637297752e-06,0.004624120462429925,5.83117657625855e-07,9.047843149356815e-07,-0.000166606251681678
16.46,-2.14337926551213,-3.304404465865474e-05,1.7903422828441935e-05,2.7773662675801206e-05,-0.005001005748816311,-2.160321087100085e-05,6.561538664323983e-05,5.9624902670699e-07,9.248210321486372e-07,-0.00016653349143558319
16.493,-2.1435457990035656,-3.477898356510781e-05,1.884828892554414e-05,2.922874787604233e-05,-0.005150307263135167,-5.210026746105307e-05,-0.0044835289585242,6.277188949658716e-07,9.73271595678495e-07,-0.00017150523186240107
16.527,-2.1437173042354276,-3.4447524644737076e-05,1.8673621324360104e-05,2.8946982930595228e-05,-0.004996632603438957,9.953721332454467e-06,0.004614854645531841,6.218993143781972e-07,9.638908378935258e-07,-0.00016638786569451728
16.559,-2.1438836921011224,-3.51082395859941e-05,1.90366961151416e-05,2.949902859158782e-05,-0.00499444440493168,-1.9841289527237978e-05,6.571166688518853e-05,6.339909606878569e-07,9.822731319609645e-07,-0.00016631499868422495
16.594,-2.1440500070998065,-3.684842252252221e-05,1.998542232933495e-05,3.09578606611704e-05,-0.005143559559150012,-5.225774584168494e-05,-0.00447793255910906,6.655895142411145e-07,1.0308483685689438e-06,-0.0001712805333196954
16.627,-2.144221287633126,-3.6410703404473535e-05,1.9753256485068466e-05,3.058673210141353e-05,-0.004990202891492908,1.3144718259719942e-05,0.004605305335048154,6.578548925479855e-07,1.0184920295198826e-06,-0.00016617375628671385
16.659,-2.144387461389413,-3.703240221302355e-05,2.009570499049194e-05,3.110564988233277e-05,-0.0049881738241123255,-1.8669633890390794e-05,6.093295437185076e-05,6.692596049945475e-07,1.0357712141762323e-06,-0.00016610618834294046
16.693,-2.144553567577756,-3.878982091976013e-05,2.105478341459758e-05,3.257831030534652e-05,-0.005137223798861228,-5.277533653863613e-05,-0.004475975217684754,7.012030471400923e-07,1.0848068264140837e-06,-0.0001710695525020789
16.726,-2.144724637130258,-3.8251679098605336e-05,2.076818016660528e-05,3.212279014080351e-05,-0.004984098230692019,1.6160415049693573e-05,0.004598365410486763,6.916553307020954e-07,1.0696404613779857e-06,-0.00016597047108204423
16.76,-2.14489060760134,-3.883250551675824e-05,2.1088943328959467e-05,3.260705374573107e-05,-0.0049821109402877085,-1.744223477936644e-05,5.967839051982413e-05,7.023378376972239e-07,1.0857657143504006e-06,-0.0001659042943115807
16.793,-2.1450565118956515,-4.060417216662044e-05,2.2056746453195008e-05,3.4091035966013455e-05,-0.005131021866376137,-5.320320269856453e-05,-0.00447179958223509,7.345719561829159e-07,1.1351782442083155e-06,-0.00017086302815032538
16.826,-2.145227374923802,-3.997634663035667e-05,2.1721437476586188e-05,3.3560206254747396e-05,-0.004978132628057513,1.8853619707620564e-05,0.004591268417976702,7.234020411097633e-07,1.1175042659684422e-06,-0.0001657718165143152
16.857,-2.1453931467403162,-4.052499524182413e-05,2.202518906014601e-05,3.401714694407355e-05,-0.004976219012589224,-1.647593427830195e-05,5.746592997863067e-05,7.335179971228387e-07,1.1327197066763637e-06,-0.0001657080931192212
16.894,-2.1455588548334354,-4.231859921435546e-05,2.3005892450021985e-05,3.551890696577342e-05,-0.005125056665454329,-5.386198115709704e-05,-0.0044695991851382766,7.661818474335752e-07,1.1827241330009833e-06,-0.00017066438695962917
16.927,-2.1457295192203953,-4.161246969153359e-05,2.2627975715783917e-05,3.492237604795377e-05,-0.004972428283113162,2.1205090775431433e-05,0.00458343490514014,7.535928269856138e-07,1.1628624797899906e-06,-0.00016558186182766833
16.96,-2.145895101082223,-4.213329429443842e-05,2.29170436266003e-05,3.535567280533996e-05,-0.004970572137909659,-1.5640378465610423e-05,5.574009620130533e-05,7.632197599568447e-07,1.1772906129021474e-06,-0.00016552005219239166
16.994,-2.1460606211344153,-4.3945192453315735e-05,2.3908670474740437e-05,3.687214959680589e-05,-0.005119261289983519,-5.441135612244191e-05,-0.004465139701917718,7.962474995760751e-07,1.227785012788532e-06,-0.0001704714009564512
17.027,-2.1462310925353716,-4.316322626965888e-05,2.348941009672387e-05,3.62120382651087e-05,-0.004966823933736195,2.348246797768335e-05,0.004577698385805532,7.822814793362398e-07,1.205806300551284e-06,-0.0001653952369934153
