Time,header.seq,header.stamp.secs,header.stamp.nsecs,header.frame_id,orientation.x,orientation.y,orientation.z,orientation.w,orientation_covariance_0,orientation_covariance_1,orientation_covariance_2,orientation_covariance_3,orientation_covariance_4,orientation_covariance_5,orientation_covariance_6,orientation_covariance_7,orientation_covariance_8,angular_velocity.x,angular_velocity.y,angular_velocity.z,angular_velocity_covariance_0,angular_velocity_covariance_1,angular_velocity_covariance_2,angular_velocity_covariance_3,angular_velocity_covariance_4,angular_velocity_covariance_5,angular_velocity_covariance_6,angular_velocity_covariance_7,angular_velocity_covariance_8,linear_acceleration.x,linear_acceleration.y,linear_acceleration.z,linear_acceleration_covariance_0,linear_acceleration_covariance_1,linear_acceleration_covariance_2,linear_acceleration_covariance_3,linear_acceleration_covariance_4,linear_acceleration_covariance_5,linear_acceleration_covariance_6,linear_acceleration_covariance_7,linear_acceleration_covariance_8
0.45,0,0,450000000,base_footprint,0.00016599354689668096,-0.00020506388797494684,0.7068234961161327,0.7073899036126482,0.0,0.0,0.0,0.0,0.0,0.0,0.0,0.0,0.0,0.00036723001770412947,-0.04764574476622621,-3.38840638414053e-05,0.0,0.0,0.0,0.0,0.0,0.0,0.0,0.0,0.0,-0.0003441262170312692,3.557804998751226e-05,-0.0470553840422344,0.0,0.0,0.0,0.0,0.0,0.0,0.0,0.0,0.0
0.48400000000000004,1,0,484000000,base_footprint,-0.000572684490238764,0.0005194539423922923,0.7068230268753286,0.7073899991368799,0.0,0.0,0.0,0.0,0.0,0.0,0.0,0.0,0.0,0.0004986900004520442,-0.06781380448234986,7.507809443947206e-05,0.0,0.0,0.0,0.0,0.0,0.0,0.0,0.0,0.0,0.0011920835454522203,4.063616168932429e-05,0.002973660606240562,0.0,0.0,0.0,0.0,0.0,0.0,0.0,0.0,0.0
0.518,2,0,518000000,base_footprint,-0.0013962522747529385,0.0013288294381983614,0.7068218053227581,0.7073890161800552,0.0,0.0,0.0,0.0,0.0,0.0,0.0,0.0,0.0,0.0004955390717562291,-0.067740542107253,0.0002586072858938323,0.0,0.0,0.0,0.0,0.0,0.0,0.0,0.0,0.0,0.00021833836540631943,-5.0183467588114214e-05,0.0001456527830791262,0.0,0.0,0.0,0.0,0.0,0.0,0.0,0.0,0.0
0.552,3,0,552000000,base_footprint,-0.0022188845897804775,0.002137314594981103,0.7068198188682847,0.7073869182367628,0.0,0.0,0.0,0.0,0.0,0.0,0.0,0.0,0.0,0.0004948814094717022,-0.06766361349230342,0.0004221958638828677,0.0,0.0,0.0,0.0,0.0,0.0,0.0,0.0,0.0,0.00023318983456574186,-1.197823445100299e-05,0.00015154780472307822,0.0,0.0,0.0,0.0,0.0,0.0,0.0,0.0,0.0
0.5860000000000001,4,0,586000000,base_footprint,-0.0027907414109602084,0.002781693094074895,0.7068147155831533,0.7073877520716721,0.0,0.0,0.0,0.0,0.0,0.0,0.0,0.0,0.0,-0.0004221422620488543,0.00573386692419859,-0.0007480445919437442,0.0,0.0,0.0,0.0,0.0,0.0,0.0,0.0,0.0,-0.007372378079298254,-0.017110794484537464,0.12852782375828264,0.0,0.0,0.0,0.0,0.0,0.0,0.0,0.0,0.0
0.62,5,0,620000000,base_footprint,-0.0027344893560447333,0.002726431146661759,0.7068099345230964,0.707392964059313,0.0,0.0,0.0,0.0,0.0,0.0,0.0,0.0,0.0,-4.15055676623047e-05,0.0013770057523420625,6.956673965744748e-05,0.0,0.0,0.0,0.0,0.0,0.0,0.0,0.0,0.0,0.006704079898218854,0.018012001598409922,0.004841426354977193,0.0,0.0,0.0,0.0,0.0,0.0,0.0,0.0,0.0
0.654,6,0,654000000,base_footprint,-0.002734025777656089,0.0027258769963784714,0.7068119197946305,0.7073909843459107,0.0,0.0,0.0,0.0,0.0,0.0,0.0,0.0,0.0,-2.9161852162989805e-05,0.00017129177796031063,0.0002676877203325326,0.0,0.0,0.0,0.0,0.0,0.0,0.0,0.0,0.0,8.925178909052625e-05,-0.000378943222645294,-0.0013398772768864601,0.0,0.0,0.0,0.0,0.0,0.0,0.0,0.0,0.0
0.6880000000000001,7,0,688000000,base_footprint,-0.0027339993876463087,0.0027257572721952703,0.7068153508113751,0.707387556684477,0.0,0.0,0.0,0.0,0.0,0.0,0.0,0.0,0.0,-3.136720497095376e-05,0.0001844867595374204,0.0003235885975523612,0.0,0.0,0.0,0.0,0.0,0.0,0.0,0.0,0.0,1.5444523973357565e-05,-0.00010981712646915123,7.644660970213881e-06,0.0,0.0,0.0,0.0,0.0,0.0,0.0,0.0,0.0
0.7220000000000001,8,0,722000000,base_footprint,-0.0027340055562587967,0.0027257096782886507,0.706819132080819,0.7073837786130566,0.0,0.0,0.0,0.0,0.0,0.0,0.0,0.0,0.0,-3.2152915358174065e-05,0.00018185340141777803,0.0003375198041178552,0.0,0.0,0.0,0.0,0.0,0.0,0.0,0.0,0.0,3.992373625882203e-06,-2.7398098751270247e-05,-4.426422957794655e-06,0.0,0.0,0.0,0.0,0.0,0.0,0.0,0.0,0.0
0.756,9,0,756000000,base_footprint,-0.0027340212295764053,0.002725683457274756,0.7068230042178909,0.7073799095860742,0.0,0.0,0.0,0.0,0.0,0.0,0.0,0.0,0.0,-3.2388644723449516e-05,0.000181268065765755,0.0003412228098544929,0.0,0.0,0.0,0.0,0.0,0.0,0.0,0.0,0.0,1.0654480843692682e-06,-7.2792568561896745e-06,-1.043783709906663e-06,0.0,0.0,0.0,0.0,0.0,0.0,0.0,0.0,0.0
0.789,10,0,790000000,base_footprint,-0.0027340390862044305,0.00272566309970942,0.7068269004929644,0.7073760163664379,0.0,0.0,0.0,0.0,0.0,0.0,0.0,0.0,0.0,-3.2477118582743906e-05,0.0001811108529066345,0.00034221446247808217,0.0,0.0,0.0,0.0,0.0,0.0,0.0,0.0,0.0,2.9257291952258934e-07,-1.9452395926913263e-06,-2.735130431236058e-07,0.0,0.0,0.0,0.0,0.0,0.0,0.0,0.0,0.0
0.8240000000000001,11,0,824000000,base_footprint,-0.002734057285579247,0.002725644533622514,0.7068308032593009,0.707372116609389,0.0,0.0,0.0,0.0,0.0,0.0,0.0,0.0,0.0,-3.2524636311406224e-05,0.0001810687215729455,0.00034248932117015977,0.0,0.0,0.0,0.0,0.0,0.0,0.0,0.0,0.0,8.816061916539595e-08,-5.350784214805009e-07,-6.836522901624882e-08,0.0,0.0,0.0,0.0,0.0,0.0,0.0,0.0,0.0
0.8580000000000001,12,0,858000000,base_footprint,-0.00273407536138047,0.0027256266586186085,0.7068347078508279,0.7073682149833077,0.0,0.0,0.0,0.0,0.0,0.0,0.0,0.0,0.0,-3.255956308446303e-05,0.00018105700113430956,0.0003425746506630309,0.0,0.0,0.0,0.0,0.0,0.0,0.0,0.0,0.0,3.409868349911534e-08,-1.6218212668116192e-07,-1.463697451839531e-08,0.0,0.0,0.0,0.0,0.0,0.0,0.0,0.0,0.0
0.892,13,0,892000000,base_footprint,-0.0027340932102829503,0.0027256091635323213,0.7068386130337381,0.7073643127226216,0.0,0.0,0.0,0.0,0.0,0.0,0.0,0.0,0.0,-3.2589560262555786e-05,0.00018105333151554866,0.0003426098694180198,0.0,0.0,0.0,0.0,0.0,0.0,0.0,0.0,0.0,1.9797863596908223e-08,-6.356001388632364e-08,-8.693578048321696e-10,0.0,0.0,0.0,0.0,0.0,0.0,0.0,0.0,0.0
0.926,14,0,926000000,base_footprint,-0.0027341108230494117,0.0027255919477235328,0.7068425184817605,0.7073604101537659,0.0,0.0,0.0,0.0,0.0,0.0,0.0,0.0,0.0,-3.2616802257499013e-05,0.00018105179927946615,0.0003426318409442009,0.0,0.0,0.0,0.0,0.0,0.0,0.0,0.0,0.0,1.6012398269796034e-08,-3.7461007611305543e-08,2.372811949326706e-09,0.0,0.0,0.0,0.0,0.0,0.0,0.0,0.0,0.0
0.9600000000000001,15,0,960000000,base_footprint,-0.0027341282136409,0.0027255749679224468,0.7068464241085893,0.7073565073630877,0.0,0.0,0.0,0.0,0.0,0.0,0.0,0.0,0.0,-3.264199891053132e-05,0.00018105084020143575,0.0003426503123062309,0.0,0.0,0.0,0.0,0.0,0.0,0.0,0.0,0.0,1.5008231926061097e-08,-3.0540233589808714e-08,2.869276166297295e-09,0.0,0.0,0.0,0.0,0.0,0.0,0.0,0.0,0.0
0.9940000000000001,16,0,994000000,base_footprint,-0.002734145400628046,0.0027255581975759967,0.7068503298913708,0.7073526043734484,0.0,0.0,0.0,0.0,0.0,0.0,0.0,0.0,0.0,-3.2665460203873314e-05,0.0001810500397852992,0.00034266786044347467,0.0,0.0,0.0,0.0,0.0,0.0,0.0,0.0,0.0,1.4739980055268498e-08,-2.8692069308900563e-08,2.6729185722793884e-09,0.0,0.0,0.0,0.0,0.0,0.0,0.0,0.0,0.0
1.028,17,1,28000000,base_footprint,-0.0027341624024180555,0.0027255416159545445,0.7068542358240317,0.7073487011909197,0.0,0.0,0.0,0.0,0.0,0.0,0.0,0.0,0.0,-3.268737911044057e-05,0.00018104928802542905,0.00034268516649832805,0.0,0.0,0.0,0.0,0.0,0.0,0.0,0.0,0.0,1.4666702917630216e-08,-2.8186760692688588e-08,2.3238876687175248e-09,0.0,0.0,0.0,0.0,0.0,0.0,0.0,0.0,0.0
1.062,18,1,62000000,base_footprint,-0.002734179236121015,0.0027255252051416306,0.7068581419049391,0.707344797817131,0.0,0.0,0.0,0.0,0.0,0.0,0.0,0.0,0.0,-3.270790724678445e-05,0.0001810485550514092,0.0003427024105398271,0.0,0.0,0.0,0.0,0.0,0.0,0.0,0.0,0.0,1.4645375889369016e-08,-2.8038307186278968e-08,1.962194928033314e-09,0.0,0.0,0.0,0.0,0.0,0.0,0.0,0.0,0.0
1.096,19,1,96000000,base_footprint,-0.0027341959173667473,0.002725508949119777,0.7068620481336367,0.7073408942525338,0.0,0.0,0.0,0.0,0.0,0.0,0.0,0.0,0.0,-3.2727176107514e-05,0.00018104783242304173,0.0003427196400259051,0.0,0.0,0.0,0.0,0.0,0.0,0.0,0.0,0.0,1.463809917876098e-08,-2.7985598738412742e-08,1.6221452733840582e-09,0.0,0.0,0.0,0.0,0.0,0.0,0.0,0.0,0.0
1.13,20,1,130000000,base_footprint,-0.002734212460361874,0.002725492833421511,0.7068659545099824,0.7073369904972652,0.0,0.0,0.0,0.0,0.0,0.0,0.0,0.0,0.0,-3.274530332689713e-05,0.00018104711748934604,0.0003427368673906976,0.0,0.0,0.0,0.0,0.0,0.0,0.0,0.0,0.0,1.46348264984736e-08,-2.7959517602881975e-08,1.31029675139607e-09,0.0,0.0,0.0,0.0,0.0,0.0,0.0,0.0,0.0
1.164,21,1,164000000,base_footprint,-0.0027342288780007906,0.0027254768449392,0.7068698610339191,0.7073330865513774,0.0,0.0,0.0,0.0,0.0,0.0,0.0,0.0,0.0,-3.2762395040377914e-05,0.00018104640908567514,0.0003427540958546679,0.0,0.0,0.0,0.0,0.0,0.0,0.0,0.0,0.0,1.4632886812165087e-08,-2.7941729413346737e-08,1.0266773267940127e-09,0.0,0.0,0.0,0.0,0.0,0.0,0.0,0.0,0.0
1.198,22,1,198000000,base_footprint,-0.0027342451819823113,0.002725460971787639,0.7068737677054152,0.7073291824148972,0.0,0.0,0.0,0.0,0.0,0.0,0.0,0.0,0.0,-3.277854754962e-05,0.0001810457063772633,0.0003427713261012705,0.0,0.0,0.0,0.0,0.0,0.0,0.0,0.0,0.0,1.4631520172879586e-08,-2.792706692585003e-08,7.691198417670442e-10,0.0,0.0,0.0,0.0,0.0,0.0,0.0,0.0,0.0
1.232,23,1,232000000,base_footprint,-0.002734261382918714,0.0027254452031864437,0.7068776745244472,0.7073252780878426,0.0,0.0,0.0,0.0,0.0,0.0,0.0,0.0,0.0,-3.279384815267306e-05,0.00018104500885171806,0.00034278855833099533,0.0,0.0,0.0,0.0,0.0,0.0,0.0,0.0,0.0,1.4630549519964246e-08,-2.7914412722291576e-08,5.355048648814069e-10,0.0,0.0,0.0,0.0,0.0,0.0,0.0,0.0,0.0
1.266,24,1,266000000,base_footprint,-0.002734277490436666,0.002725429529357072,0.7068815814909959,0.7073213735702283,0.0,0.0,0.0,0.0,0.0,0.0,0.0,0.0,0.0,-3.280837607822095e-05,0.00018104431608798375,0.00034280579252448566,0.0,0.0,0.0,0.0,0.0,0.0,0.0,0.0,0.0,1.4629880394678657e-08,-2.7903186474519856e-08,3.235211915280543e-10,0.0,0.0,0.0,0.0,0.0,0.0,0.0,0.0,0.0
1.3,25,1,300000000,base_footprint,-0.0027342935132685345,0.002725413941429153,0.7068854886050445,0.7073174688620654,0.0,0.0,0.0,0.0,0.0,0.0,0.0,0.0,0.0,-3.28222029744539e-05,0.00018104362755117951,0.00034282302858207173,0.0,0.0,0.0,0.0,0.0,0.0,0.0,0.0,0.0,1.4629464528952224e-08,-2.789308866232233e-08,1.3112716531883576e-10,0.0,0.0,0.0,0.0,0.0,0.0,0.0,0.0,0.0
1.334,26,1,334000000,base_footprint,-0.0027343094593355465,0.002725398431356521,0.706889395866579,0.7073135639633626,0.0,0.0,0.0,0.0,0.0,0.0,0.0,0.0,0.0,-3.2835394076204265e-05,0.0001810429428791049,0.0003428402663613049,0.0,0.0,0.0,0.0,0.0,0.0,0.0,0.0,0.0,1.4629259806799297e-08,-2.7883921649295734e-08,-4.3424590929135835e-11,0.0,0.0,0.0,0.0,0.0,0.0,0.0,0.0,0.0
1.368,27,1,368000000,base_footprint,-0.002734325335822747,0.0027253829918402485,0.706893303275587,0.7073096588741277,0.0,0.0,0.0,0.0,0.0,0.0,0.0,0.0,0.0,-3.2848008583233416e-05,0.00018104226166596263,0.00034285750584959264,0.0,0.0,0.0,0.0,0.0,0.0,0.0,0.0,0.0,1.4629283158455819e-08,-2.7875823675590912e-08,-2.017942357035978e-10,0.0,0.0,0.0,0.0,0.0,0.0,0.0,0.0,0.0
1.4020000000000001,28,1,402000000,base_footprint,-0.002734341149248255,0.0027253676162597,0.7068972108320577,0.7073057535943655,0.0,0.0,0.0,0.0,0.0,0.0,0.0,0.0,0.0,-3.2860099960890484e-05,0.00018104158366154472,0.0003428747470633753,0.0,0.0,0.0,0.0,0.0,0.0,0.0,0.0,0.0,1.4629518239580106e-08,-2.786874359904501e-08,-3.453865828355357e-10,0.0,0.0,0.0,0.0,0.0,0.0,0.0,0.0,0.0
1.436,29,1,436000000,base_footprint,-0.0027343569055241984,0.00272535229860874,0.7069011185359821,0.7073018481240799,0.0,0.0,0.0,0.0,0.0,0.0,0.0,0.0,0.0,-3.287171678814257e-05,0.0001810409084671519,0.00034289198976156715,0.0,0.0,0.0,0.0,0.0,0.0,0.0,0.0,0.0,1.4629874501059996e-08,-2.786209298522915e-08,-4.757356632467984e-10,0.0,0.0,0.0,0.0,0.0,0.0,0.0,0.0,0.0
1.47,30,1,470000000,base_footprint,-0.002734372610013578,0.0027253370334395046,0.706905026387353,0.7072979424632732,0.0,0.0,0.0,0.0,0.0,0.0,0.0,0.0,0.0,-3.2882903281693056e-05,0.0001810402358199684,0.0003429092340246205,0.0,0.0,0.0,0.0,0.0,0.0,0.0,0.0,0.0,1.4630426011394326e-08,-2.7856416586908757e-08,-5.940804196426337e-10,0.0,0.0,0.0,0.0,0.0,0.0,0.0,0.0,0.0
1.504,31,1,504000000,base_footprint,-0.002730055967935501,0.0027212935658771638,0.70690962953567,0.7072933740856634,0.0,0.0,0.0,0.0,0.0,0.0,0.0,0.0,0.0,-4.655007283749604e-05,0.00035365224342938546,0.00047750056563657215,0.0,0.0,0.0,0.0,0.0,0.0,0.0,0.0,0.0,-0.39049392261376226,-4.807988547286812e-05,0.00011928911324919221,0.0,0.0,0.0,0.0,0.0,0.0,0.0,0.0,0.0
1.538,32,1,538000000,base_footprint,-0.0027306571649060134,0.002721843101845647,0.7069107044505148,0.7072922953170447,0.0,0.0,0.0,0.0,0.0,0.0,0.0,0.0,0.0,-3.1744584959272426e-05,-0.00024420576692195243,0.00010983766127215438,0.0,0.0,0.0,0.0,0.0,0.0,0.0,0.0,0.0,-0.7846403936329501,0.0011413656417405549,-0.0006606943406762351,0.0,0.0,0.0,0.0,0.0,0.0,0.0,0.0,0.0
1.572,33,1,572000000,base_footprint,-0.002731284608210221,0.002722390315736077,0.706908994554674,0.7072939997575673,0.0,0.0,0.0,0.0,0.0,0.0,0.0,0.0,0.0,-2.979367351031374e-05,-0.0002589494771195137,-0.00016976757002945333,0.0,0.0,0.0,0.0,0.0,0.0,0.0,0.0,0.0,-0.7864369175774475,0.0009710229737399101,-3.330131089521833e-05,0.0,0.0,0.0,0.0,0.0,0.0,0.0,0.0,0.0
1.6059999999999999,34,1,606000000,base_footprint,-0.002732011722018132,0.0027230298723542605,0.7069039362858026,0.7072990499667754,0.0,0.0,0.0,0.0,0.0,0.0,0.0,0.0,0.0,-2.8156979834303693e-05,-0.00029709435281073313,-0.0004708223690215222,0.0,0.0,0.0,0.0,0.0,0.0,0.0,0.0,0.0,-0.7799072452960476,0.0010203498965348223,-6.76036012593798e-05,0.0,0.0,0.0,0.0,0.0,0.0,0.0,0.0,0.0
1.6400000000000001,35,1,640000000,base_footprint,-0.002733166446458131,0.0027240888114136875,0.7068949387666483,0.7073080338066435,0.0,0.0,0.0,0.0,0.0,0.0,0.0,0.0,0.0,-2.7428938970228158e-05,-0.0002489148310671117,-0.0008397153557598546,0.0,0.0,0.0,0.0,0.0,0.0,0.0,0.0,0.0,-0.7567534840178811,0.001157862561663281,3.71518535283266e-05,0.0,0.0,0.0,0.0,0.0,0.0,0.0,0.0,0.0
1.674,36,1,674000000,base_footprint,-0.002734627155253201,0.0027254671817771733,0.7068809440170891,0.7073220091503386,0.0,0.0,0.0,0.0,0.0,0.0,0.0,0.0,0.0,-2.769412755974209e-05,-0.00016615933837442227,-0.0013156687422782522,0.0,0.0,0.0,0.0,0.0,0.0,0.0,0.0,0.0,-0.7034665714596835,0.0013622272666522495,8.038214179348943e-05,0.0,0.0,0.0,0.0,0.0,0.0,0.0,0.0,0.0
1.7080000000000002,37,1,708000000,base_footprint,-0.002736198483405339,0.0027270180226015885,0.7068611435016973,0.7073417847109251,0.0,0.0,0.0,0.0,0.0,0.0,0.0,0.0,0.0,-3.062637838090521e-05,-9.412839730980573e-05,-0.0018589884187567057,0.0,0.0,0.0,0.0,0.0,0.0,0.0,0.0,0.0,-0.6078250288196891,0.0014674961877878534,7.983548926037104e-05,0.0,0.0,0.0,0.0,0.0,0.0,0.0,0.0,0.0
1.742,38,1,742000000,base_footprint,-0.0027378070794872537,0.002728695794097282,0.7068357272856178,0.7073671700498055,0.0,0.0,0.0,0.0,0.0,0.0,0.0,0.0,0.0,-3.531328328853015e-05,4.4195496286018154e-05,-0.0023100004610771144,0.0,0.0,0.0,0.0,0.0,0.0,0.0,0.0,0.0,-0.4658530306591798,0.0012249465292071549,0.0001661850842642513,0.0,0.0,0.0,0.0,0.0,0.0,0.0,0.0,0.0
1.776,39,1,776000000,base_footprint,-0.002738746659143609,0.002729909846261108,0.7067990593688632,0.7074038001977786,0.0,0.0,0.0,0.0,0.0,0.0,0.0,0.0,0.0,-4.686241608270838e-05,0.00023719071316735785,-0.004485701057214936,0.0,0.0,0.0,0.0,0.0,0.0,0.0,0.0,0.0,-0.2860288840491634,0.0044665694713852955,0.00038228626671524843,0.0,0.0,0.0,0.0,0.0,0.0,0.0,0.0,0.0
1.81,40,1,810000000,base_footprint,-0.0027366437957772466,0.002727557804747083,0.7067174707345715,0.7074853268921463,0.0,0.0,0.0,0.0,0.0,0.0,0.0,0.0,0.0,0.0005412117985998252,0.0008022283540358437,-0.010542131905848955,0.0,0.0,0.0,0.0,0.0,0.0,0.0,0.0,0.0,-0.0805008260898619,0.011853700415455824,0.0009081625076751536,0.0,0.0,0.0,0.0,0.0,0.0,0.0,0.0,0.0
1.844,41,1,844000000,base_footprint,-0.0027202763035208896,0.002716170786438957,0.7066396901757426,0.7075631214113847,0.0,0.0,0.0,0.0,0.0,0.0,0.0,0.0,0.0,5.0813986431192944e-05,-0.001282736814657071,0.00307289874179885,0.0,0.0,0.0,0.0,0.0,0.0,0.0,0.0,0.0,-0.005902279290169066,-0.026434821788479175,-0.0039536327212056415,0.0,0.0,0.0,0.0,0.0,0.0,0.0,0.0,0.0
1.8780000000000001,42,1,878000000,base_footprint,-0.0027274453387562897,0.0027213499718821855,0.7066404730921816,0.7075622920169734,0.0,0.0,0.0,0.0,0.0,0.0,0.0,0.0,0.0,-2.7593180535504967e-05,0.000211639289924725,-0.00310321840466286,0.0,0.0,0.0,0.0,0.0,0.0,0.0,0.0,0.0,-0.18710855435013474,0.01223725723387209,0.002799809193308079,0.0,0.0,0.0,0.0,0.0,0.0,0.0,0.0,0.0
1.912,43,1,912000000,base_footprint,-0.00272657477574942,0.0027202831194811554,0.7065978246323424,0.7076048898040371,0.0,0.0,0.0,0.0,0.0,0.0,0.0,0.0,0.0,0.0013712168877211227,-0.0017999921527613355,-0.004295031453850927,0.0,0.0,0.0,0.0,0.0,0.0,0.0,0.0,0.0,-0.34420060447638645,0.002833895692363142,-0.0034287709174871815,0.0,0.0,0.0,0.0,0.0,0.0,0.0,0.0,0.0
1.9460000000000002,44,1,946000000,base_footprint,-0.0027421304019592464,0.0027276489133365076,0.7069888009203263,0.7072141656001409,0.0,0.0,0.0,0.0,0.0,0.0,0.0,0.0,0.0,-0.0016585977060352287,-0.0020915562694281734,0.08055989892111698,0.0,0.0,0.0,0.0,0.0,0.0,0.0,0.0,0.0,-0.25397824286018617,-0.004121772483830513,-0.00011879662064899726,0.0,0.0,0.0,0.0,0.0,0.0,0.0,0.0,0.0
1.98,45,1,980000000,base_footprint,-0.0027425944435045726,0.0027232294413864944,0.7079549385777874,0.7062470298277009,0.0,0.0,0.0,0.0,0.0,0.0,0.0,0.0,0.0,-8.036989787140033e-05,0.0008972569958256447,0.08026025667666363,0.0,0.0,0.0,0.0,0.0,0.0,0.0,0.0,0.0,-0.006823617600225129,-0.019649262001804266,0.003944170967576939,0.0,0.0,0.0,0.0,0.0,0.0,0.0,0.0,0.0
2.014,46,2,14000000,base_footprint,-0.0027420695755943653,0.00272000998494977,0.7085239602342264,0.7056761866282105,0.0,0.0,0.0,0.0,0.0,0.0,0.0,0.0,0.0,-6.810392217625072e-05,-0.00029652144704004946,0.01408215964360078,0.0,0.0,0.0,0.0,0.0,0.0,0.0,0.0,0.0,0.3111553077043105,-0.01059172927331023,-0.0010086422398190675,0.0,0.0,0.0,0.0,0.0,0.0,0.0,0.0,0.0
2.048,47,2,48000000,base_footprint,-0.0027451053977978032,0.002716037470983675,0.7093642969952278,0.7048314562257261,0.0,0.0,0.0,0.0,0.0,0.0,0.0,0.0,0.0,-4.7639542256970916e-05,0.0008123089115964511,0.08743441489774154,0.0,0.0,0.0,0.0,0.0,0.0,0.0,0.0,0.0,0.020960640950411596,-0.011938146930941165,0.0008813183581398017,0.0,0.0,0.0,0.0,0.0,0.0,0.0,0.0,0.0
2.082,48,2,82000000,base_footprint,-0.0027495470946106186,0.002712548390261641,0.7104085921601841,0.7037788816503308,0.0,0.0,0.0,0.0,0.0,0.0,0.0,0.0,0.0,-5.224134770722482e-05,0.0008010777452022804,0.08707345191074582,0.0,0.0,0.0,0.0,0.0,0.0,0.0,0.0,0.0,-0.0050939858813246796,-0.017733989306964185,8.958583130252637e-05,0.0,0.0,0.0,0.0,0.0,0.0,0.0,0.0,0.0
2.116,49,2,116000000,base_footprint,-0.0027509465485075746,0.002712471622815709,0.7106332949013415,0.7035519845529865,0.0,0.0,0.0,0.0,0.0,0.0,0.0,0.0,0.0,-4.949363566521249e-05,5.373400474278046e-05,-9.950136827694564e-05,0.0,0.0,0.0,0.0,0.0,0.0,0.0,0.0,0.0,-0.028220179142292877,-0.00528977382962444,-0.00014879077336825286,0.0,0.0,0.0,0.0,0.0,0.0,0.0,0.0,0.0
2.15,50,2,150000000,base_footprint,-0.0027536224609993297,0.002714964258656427,0.7106305487536092,0.7035547382475374,0.0,0.0,0.0,0.0,0.0,0.0,0.0,0.0,0.0,-3.623750869112259e-05,-7.490716086871718e-05,-0.0004135986871002116,0.0,0.0,0.0,0.0,0.0,0.0,0.0,0.0,0.0,-0.005075819969076284,0.00012766918336330844,-0.0002553572601115772,0.0,0.0,0.0,0.0,0.0,0.0,0.0,0.0,0.0
2.184,51,2,184000000,base_footprint,-0.0027569843504795864,0.0027179043906638296,0.7106241106799922,0.7035612164931241,0.0,0.0,0.0,0.0,0.0,0.0,0.0,0.0,0.0,-4.1044242053569356e-05,-3.2585515192835774e-05,-0.0006177736887411961,0.0,0.0,0.0,0.0,0.0,0.0,0.0,0.0,0.0,-0.003726553614166666,0.0008715713087663125,-0.0001512055640736516,0.0,0.0,0.0,0.0,0.0,0.0,0.0,0.0,0.0
2.218,52,2,218000000,base_footprint,-0.002756538481025978,0.0027177734791710645,0.7106777082911977,0.703507078955777,0.0,0.0,0.0,0.0,0.0,0.0,0.0,0.0,0.0,-0.00029738315911824703,-0.002501406640310721,0.0055657991522227515,0.0,0.0,0.0,0.0,0.0,0.0,0.0,0.0,0.0,-0.33972532952127044,-0.0073631363484045476,-0.004105786849784944,0.0,0.0,0.0,0.0,0.0,0.0,0.0,0.0,0.0
2.252,53,2,252000000,base_footprint,-0.0027595758087887706,0.0027224765764906358,0.7105891473605829,0.7035965012107478,0.0,0.0,0.0,0.0,0.0,0.0,0.0,0.0,0.0,-0.00017955618913089892,6.515467658906149e-05,-0.007899277829989818,0.0,0.0,0.0,0.0,0.0,0.0,0.0,0.0,0.0,0.0034283400783341068,0.004089398717267988,0.004415147615685778,0.0,0.0,0.0,0.0,0.0,0.0,0.0,0.0,0.0
2.286,54,2,286000000,base_footprint,-0.0027548699896750143,0.0027212127514981495,0.7105039539147671,0.703682554255812,0.0,0.0,0.0,0.0,0.0,0.0,0.0,0.0,0.0,-0.00013899146904826446,0.0005002604566180257,-0.004869020147380432,0.0,0.0,0.0,0.0,0.0,0.0,0.0,0.0,0.0,0.010746615350441309,0.0037070735685485394,0.0007997417600047712,0.0,0.0,0.0,0.0,0.0,0.0,0.0,0.0,0.0
2.321,55,2,320000000,base_footprint,-0.002752169950332188,0.0027188502872304973,0.7105353649968872,0.7036508569613346,0.0,0.0,0.0,0.0,0.0,0.0,0.0,0.0,0.0,3.1542589262233996e-05,0.00027240685871711846,0.012177284737061832,0.0,0.0,0.0,0.0,0.0,0.0,0.0,0.0,0.0,0.06600693333746463,-0.007690150245099812,-0.0008380203678090133,0.0,0.0,0.0,0.0,0.0,0.0,0.0,0.0,0.0
2.353,56,2,354000000,base_footprint,-0.0027586310949380684,0.0027197457765145787,0.7106474537994233,0.7035376246838471,0.0,0.0,0.0,0.0,0.0,0.0,0.0,0.0,0.0,0.0006023887054575172,-0.0004100896074424188,-0.00223994773699078,0.0,0.0,0.0,0.0,0.0,0.0,0.0,0.0,0.0,-0.040100811898054825,-0.002036767543204202,-0.001083691108930239,0.0,0.0,0.0,0.0,0.0,0.0,0.0,0.0,0.0
2.388,57,2,388000000,base_footprint,-0.002757834013435017,0.0027180389116443445,0.7106213954366875,0.7035639551338913,0.0,0.0,0.0,0.0,0.0,0.0,0.0,0.0,0.0,0.00026417247424845525,0.000303103295098016,-0.0008092916005975751,0.0,0.0,0.0,0.0,0.0,0.0,0.0,0.0,0.0,-0.002064945649631308,0.0021930627798500864,0.0014887747213002535,0.0,0.0,0.0,0.0,0.0,0.0,0.0,0.0,0.0
2.422,58,2,422000000,base_footprint,-0.002755606238972885,0.0027155127290322796,0.7106396162993623,0.7035455695054653,0.0,0.0,0.0,0.0,0.0,0.0,0.0,0.0,0.0,9.89261981320618e-05,0.0003365023657034312,0.00163365364753641,0.0,0.0,0.0,0.0,0.0,0.0,0.0,0.0,0.0,-0.0018274494042490094,-0.0007206862187793986,0.00015978019529617023,0.0,0.0,0.0,0.0,0.0,0.0,0.0,0.0,0.0
2.456,59,2,456000000,base_footprint,-0.0027528948315863537,0.0027124651266550656,0.710659584469909,0.7035254217894613,0.0,0.0,0.0,0.0,0.0,0.0,0.0,0.0,0.0,-0.00010419182593058448,0.0004081123605572495,0.0015466608229496906,0.0,0.0,0.0,0.0,0.0,0.0,0.0,0.0,0.0,-0.004860637885325942,-0.00019863851381147352,0.00032483328989404243,0.0,0.0,0.0,0.0,0.0,0.0,0.0,0.0,0.0
2.49,60,2,490000000,base_footprint,-0.0027500617690391117,0.0027109734698341024,0.7106714456498008,0.7035134569580989,0.0,0.0,0.0,0.0,0.0,0.0,0.0,0.0,0.0,7.390068431252077e-05,0.00033168237996662004,-0.004326531391060022,0.0,0.0,0.0,0.0,0.0,0.0,0.0,0.0,0.0,-0.006504726097692169,2.5815093791032445e-05,-0.00018465997820227997,0.0,0.0,0.0,0.0,0.0,0.0,0.0,0.0,0.0
2.524,61,2,524000000,base_footprint,-0.0027489071897093017,0.0027107240326419662,0.710602945663441,0.7035826526421199,0.0,0.0,0.0,0.0,0.0,0.0,0.0,0.0,0.0,-7.111409642333183e-05,0.00016329229525357647,-0.005892240350633108,0.0,0.0,0.0,0.0,0.0,0.0,0.0,0.0,0.0,-0.0069612078591432,0.0006055101814737432,-0.00019072385939073464,0.0,0.0,0.0,0.0,0.0,0.0,0.0,0.0,0.0
2.558,62,2,558000000,base_footprint,-0.002748840661475459,0.0027115140241255496,0.7105300210133954,0.7036562945113323,0.0,0.0,0.0,0.0,0.0,0.0,0.0,0.0,0.0,-5.7280888525041405e-05,7.817761737427035e-05,-0.006318159898549414,0.0,0.0,0.0,0.0,0.0,0.0,0.0,0.0,0.0,-0.005912581358788053,0.0013029740679883616,-0.00018417697421674062,0.0,0.0,0.0,0.0,0.0,0.0,0.0,0.0,0.0
2.592,63,2,592000000,base_footprint,-0.0027504134485786644,0.0027131085898514334,0.7104609017663189,0.7037260698091485,0.0,0.0,0.0,0.0,0.0,0.0,0.0,0.0,0.0,0.00024201203455388522,4.123737092983981e-06,-8.4784946270341e-05,0.0,0.0,0.0,0.0,0.0,0.0,0.0,0.0,0.0,-0.004524785793285476,0.001324993768874414,-0.0003815838557254643,0.0,0.0,0.0,0.0,0.0,0.0,0.0,0.0,0.0
2.626,64,2,626000000,base_footprint,-0.0027531344715080058,0.002715962225377798,0.7104580765403627,0.7037289004143145,0.0,0.0,0.0,0.0,0.0,0.0,0.0,0.0,0.0,-2.9696000133679107e-05,-0.00010163380343940521,-0.0005018481599756188,0.0,0.0,0.0,0.0,0.0,0.0,0.0,0.0,0.0,-0.004937493559704662,0.00020059485096726726,-0.00012831593117223274,0.0,0.0,0.0,0.0,0.0,0.0,0.0,0.0,0.0
2.66,65,2,660000000,base_footprint,-0.0027563619504726057,0.0027190265017235566,0.7104508890147649,0.7037361321275263,0.0,0.0,0.0,0.0,0.0,0.0,0.0,0.0,0.0,-4.469787368054077e-05,-3.4085761603374757e-05,-0.000666892524742629,0.0,0.0,0.0,0.0,0.0,0.0,0.0,0.0,0.0,-0.0036779494016184015,0.0010487269344656154,-9.692509592787796e-05,0.0,0.0,0.0,0.0,0.0,0.0,0.0,0.0,0.0
2.694,66,2,694000000,base_footprint,-0.002747986168882031,0.002711790403478527,0.7104508505475854,0.7037362316386985,0.0,0.0,0.0,0.0,0.0,0.0,0.0,0.0,0.0,-8.625492291492549e-05,0.00689934391172888,0.005210053518349838,0.0,0.0,0.0,0.0,0.0,0.0,0.0,0.0,0.0,0.08906347452422603,-0.004401654776770875,0.009639433583271226,0.0,0.0,0.0,0.0,0.0,0.0,0.0,0.0,0.0
2.728,67,2,728000000,base_footprint,-0.002760741088673911,0.0027232831822355005,0.7106068426393793,0.7035786219261093,0.0,0.0,0.0,0.0,0.0,0.0,0.0,0.0,0.0,-0.0019506251356675617,0.00045780420468647135,-0.005788431403825782,0.0,0.0,0.0,0.0,0.0,0.0,0.0,0.0,0.0,0.2635990905034631,0.01103062908161706,-0.00836849464251957,0.0,0.0,0.0,0.0,0.0,0.0,0.0,0.0,0.0
2.762,68,2,762000000,base_footprint,-0.0027559637948397645,0.0027193816051500836,0.710462006014257,0.7037249090642201,0.0,0.0,0.0,0.0,0.0,0.0,0.0,0.0,0.0,-7.424648484984366e-05,0.0005243382014573255,-0.004527980758934612,0.0,0.0,0.0,0.0,0.0,0.0,0.0,0.0,0.0,0.005915574598650814,0.005187215357794948,-0.00017471274542991088,0.0,0.0,0.0,0.0,0.0,0.0,0.0,0.0,0.0
2.7960000000000003,69,2,796000000,base_footprint,-0.002752267372108765,0.002717653086205839,0.7104838348053082,0.703702891756428,0.0,0.0,0.0,0.0,0.0,0.0,0.0,0.0,0.0,-0.00023633489872472413,0.00015604172896633146,0.009083598990197016,0.0,0.0,0.0,0.0,0.0,0.0,0.0,0.0,0.0,0.07235232505646494,-0.005848439462885463,-0.0010215477073653677,0.0,0.0,0.0,0.0,0.0,0.0,0.0,0.0,0.0
2.83,70,2,830000000,base_footprint,-0.0027568217624369534,0.0027194107005890943,0.7106387861706098,0.7035463881857217,0.0,0.0,0.0,0.0,0.0,0.0,0.0,0.0,0.0,0.0006959325506825313,-0.00036569140197646635,0.002115427566437779,0.0,0.0,0.0,0.0,0.0,0.0,0.0,0.0,0.0,-0.03843296833044725,-0.004493242313358507,-0.0011561391010500906,0.0,0.0,0.0,0.0,0.0,0.0,0.0,0.0,0.0
2.864,71,2,864000000,base_footprint,-0.0027578952778805144,0.0027186503428519343,0.7106320561788183,0.7035531846882754,0.0,0.0,0.0,0.0,0.0,0.0,0.0,0.0,0.0,2.720190381443948e-05,0.00021545813751597178,0.00027905831359088844,0.0,0.0,0.0,0.0,0.0,0.0,0.0,0.0,0.0,-0.011773041875928588,0.0019017105775729036,0.0016305299915045286,0.0,0.0,0.0,0.0,0.0,0.0,0.0,0.0,0.0
2.898,72,2,898000000,base_footprint,-0.0027431271625343594,0.0027052130093189477,0.7106656556186569,0.7035193550998076,0.0,0.0,0.0,0.0,0.0,0.0,0.0,0.0,0.0,-0.00011890762208414927,-0.0004461039514003448,0.0146180635628177,0.0,0.0,0.0,0.0,0.0,0.0,0.0,0.0,0.0,-0.1581402332264474,-0.0022187024164346952,0.0002548373526696533,0.0,0.0,0.0,0.0,0.0,0.0,0.0,0.0,0.0
2.932,73,2,932000000,base_footprint,-0.0027538123980383237,0.0027134864087498692,0.710657338531392,0.7035276829665373,0.0,0.0,0.0,0.0,0.0,0.0,0.0,0.0,0.0,-1.4352719671641238e-05,0.0002722472087637952,-0.00862384016433581,0.0,0.0,0.0,0.0,0.0,0.0,0.0,0.0,0.0,-0.1926484055298772,-0.005720059756543799,0.00031461372142607,0.0,0.0,0.0,0.0,0.0,0.0,0.0,0.0,0.0
2.966,74,2,966000000,base_footprint,-0.0027500558288107856,0.0027116692148679332,0.7105516422109523,0.7036344560880502,0.0,0.0,0.0,0.0,0.0,0.0,0.0,0.0,0.0,-8.810430479169212e-05,0.0002469797975724349,-0.009066184888619086,0.0,0.0,0.0,0.0,0.0,0.0,0.0,0.0,0.0,-0.0050035149806339765,0.0015532013942478962,-0.00012692247500233842,0.0,0.0,0.0,0.0,0.0,0.0,0.0,0.0,0.0
3.0,75,3,0,base_footprint,-0.002748377865057376,0.0027113348001523117,0.7104718902795475,0.7037149907493225,0.0,0.0,0.0,0.0,0.0,0.0,0.0,0.0,0.0,-7.469501708736789e-05,0.0002477847173291362,-0.002009683909232882,0.0,0.0,0.0,0.0,0.0,0.0,0.0,0.0,0.0,-0.0038006219600402727,0.0017853498822079593,-0.00013585711034877956,0.0,0.0,0.0,0.0,0.0,0.0,0.0,0.0,0.0
3.034,76,3,34000000,base_footprint,-0.0027483000780540675,0.002711743871169399,0.7104436523908553,0.7037434973549666,0.0,0.0,0.0,0.0,0.0,0.0,0.0,0.0,0.0,-5.7681541906828e-05,0.00012188115802722659,-0.002603751782620108,0.0,0.0,0.0,0.0,0.0,0.0,0.0,0.0,0.0,-0.006082845797348869,0.0001887493974468044,-0.00023127314760083167,0.0,0.0,0.0,0.0,0.0,0.0,0.0,0.0,0.0
3.068,77,3,68000000,base_footprint,-0.002749495535499317,0.0027131528759468306,0.7104101154305267,0.7037773418985281,0.0,0.0,0.0,0.0,0.0,0.0,0.0,0.0,0.0,-4.339508404610878e-05,2.5743578123328856e-05,-0.0030200570376494517,0.0,0.0,0.0,0.0,0.0,0.0,0.0,0.0,0.0,-0.0058206088805329405,0.0006241700894553479,-0.000208239817717358,0.0,0.0,0.0,0.0,0.0,0.0,0.0,0.0,0.0
3.102,78,3,102000000,base_footprint,-0.0027504900377121467,0.002717189279013495,0.7100448586325989,0.7041458303621397,0.0,0.0,0.0,0.0,0.0,0.0,0.0,0.0,0.0,0.0003635404413046352,-0.0009503209224658103,-0.07777776454753782,0.0,0.0,0.0,0.0,0.0,0.0,0.0,0.0,0.0,-0.027155465775245084,0.002426195246831556,-0.0010368349056639418,0.0,0.0,0.0,0.0,0.0,0.0,0.0,0.0,0.0
3.136,79,3,136000000,base_footprint,-0.0027515143002276787,0.0027241647426919672,0.7091211443228881,0.705076031906991,0.0,0.0,0.0,0.0,0.0,0.0,0.0,0.0,0.0,-1.8505502047726024e-05,-0.0006557388491599255,-0.07705024897263232,0.0,0.0,0.0,0.0,0.0,0.0,0.0,0.0,0.0,-0.0019679854644271983,0.02092594722102823,0.00036888503454699114,0.0,0.0,0.0,0.0,0.0,0.0,0.0,0.0,0.0
3.17,80,3,170000000,base_footprint,-0.002749802936532339,0.0027301340782223227,0.7081978517453277,0.7060033907390446,0.0,0.0,0.0,0.0,0.0,0.0,0.0,0.0,0.0,-3.3778376731834545e-05,-0.0006598947882136043,-0.0768044975520857,0.0,0.0,0.0,0.0,0.0,0.0,0.0,0.0,0.0,-5.663355142319568e-06,0.017562095183808114,-0.00014319314023636244,0.0,0.0,0.0,0.0,0.0,0.0,0.0,0.0,0.0
3.204,81,3,204000000,base_footprint,-0.002748005637746491,0.0027349645560907744,0.7073234297173736,0.7068794339961686,0.0,0.0,0.0,0.0,0.0,0.0,0.0,0.0,0.0,-0.00028330290531340137,-0.00040825878731020953,-0.06658605752526142,0.0,0.0,0.0,0.0,0.0,0.0,0.0,0.0,0.0,0.00922826600767353,0.01880180922057388,0.00024819141907799896,0.0,0.0,0.0,0.0,0.0,0.0,0.0,0.0,0.0
3.238,82,3,238000000,base_footprint,-0.0027399791304011122,0.0027371001741088633,0.706517705913617,0.7076847688254719,0.0,0.0,0.0,0.0,0.0,0.0,0.0,0.0,0.0,-0.00016052630923895923,-1.035639775687785e-05,-0.06403166090620299,0.0,0.0,0.0,0.0,0.0,0.0,0.0,0.0,0.0,0.012179698839805377,0.016542578586136995,0.0005989149383621366,0.0,0.0,0.0,0.0,0.0,0.0,0.0,0.0,0.0
3.2720000000000002,83,3,272000000,base_footprint,-0.0027347818640044317,0.0027357473370573254,0.7058683746097902,0.7083324603464088,0.0,0.0,0.0,0.0,0.0,0.0,0.0,0.0,0.0,0.0005938114420957923,-0.0002628007358907007,-0.04842775204266167,0.0,0.0,0.0,0.0,0.0,0.0,0.0,0.0,0.0,0.06636295996904563,0.0027088790356561976,-0.001164782952537104,0.0,0.0,0.0,0.0,0.0,0.0,0.0,0.0,0.0
3.306,84,3,306000000,base_footprint,-0.002736468041987544,0.002735193129206741,0.7054156471686915,0.7087833203389997,0.0,0.0,0.0,0.0,0.0,0.0,0.0,0.0,0.0,0.0003422501037782449,-0.0014284352573365093,-0.006241769702089332,0.0,0.0,0.0,0.0,0.0,0.0,0.0,0.0,0.0,0.008962209314872406,0.008690832938625262,-0.002079410062630414,0.0,0.0,0.0,0.0,0.0,0.0,0.0,0.0,0.0
3.34,85,3,340000000,base_footprint,-0.002738596666611329,0.0027395355086648086,0.7053974501066357,0.7088014054843225,0.0,0.0,0.0,0.0,0.0,0.0,0.0,0.0,0.0,-3.413262518092892e-05,3.078122980502701e-05,0.0006459046486885923,0.0,0.0,0.0,0.0,0.0,0.0,0.0,0.0,0.0,-0.0377630502505894,0.003179424736720858,0.0023395516504071405,0.0,0.0,0.0,0.0,0.0,0.0,0.0,0.0,0.0
3.374,86,3,374000000,base_footprint,-0.0027372882921308113,0.0027373123100026616,0.7054058929281968,0.7087930167519264,0.0,0.0,0.0,0.0,0.0,0.0,0.0,0.0,0.0,1.0974284717524615e-05,0.00035603267444809627,0.0008285806629100223,0.0,0.0,0.0,0.0,0.0,0.0,0.0,0.0,0.0,-0.0030332400756118887,0.00016625897954256953,0.0007288169560091668,0.0,0.0,0.0,0.0,0.0,0.0,0.0,0.0,0.0
3.407,87,3,408000000,base_footprint,-0.0027334148612029124,0.002733858973065718,0.7054771934684394,0.7087220780772998,0.0,0.0,0.0,0.0,0.0,0.0,0.0,0.0,0.0,-5.22140578222948e-05,0.00040507820530090097,0.009382004399033684,0.0,0.0,0.0,0.0,0.0,0.0,0.0,0.0,0.0,-0.0026313617578535256,-0.0010491467106986405,4.208739211179796e-05,0.0,0.0,0.0,0.0,0.0,0.0,0.0,0.0,0.0
3.442,88,3,442000000,base_footprint,-0.002731565850630501,0.0027317615368173957,0.7055872209360972,0.708612552583275,0.0,0.0,0.0,0.0,0.0,0.0,0.0,0.0,0.0,-5.750548837405505e-05,0.0003573718178769515,0.008942703886597302,0.0,0.0,0.0,0.0,0.0,0.0,0.0,0.0,0.0,-0.00560912900478165,-0.001927028945721587,-9.455228448501207e-05,0.0,0.0,0.0,0.0,0.0,0.0,0.0,0.0,0.0
3.476,89,3,476000000,base_footprint,-0.0027311502241515657,0.0027307843930345446,0.7056920326107416,0.708508178318904,0.0,0.0,0.0,0.0,0.0,0.0,0.0,0.0,0.0,-4.199422097450904e-05,0.0002722960867409083,0.008503590184385755,0.0,0.0,0.0,0.0,0.0,0.0,0.0,0.0,0.0,-0.005683879013850097,-0.001820114484557721,-0.00014748621857523777,0.0,0.0,0.0,0.0,0.0,0.0,0.0,0.0,0.0
3.51,90,3,510000000,base_footprint,-0.00273006247789825,0.002730061979632229,0.7056719581124897,0.708528179435468,0.0,0.0,0.0,0.0,0.0,0.0,0.0,0.0,0.0,-4.640031981483915e-05,0.0006053954265080578,-0.018834423972550602,0.0,0.0,0.0,0.0,0.0,0.0,0.0,0.0,0.0,0.3431728608285334,-0.0007932484213267754,0.0007410305978243908,0.0,0.0,0.0,0.0,0.0,0.0,0.0,0.0,0.0
3.544,91,3,544000000,base_footprint,-0.002732862219400427,0.0027325801366097674,0.7055964586343622,0.7086033460494903,0.0,0.0,0.0,0.0,0.0,0.0,0.0,0.0,0.0,-1.2345719572586193e-05,6.579860800520713e-05,-0.00021830997272165068,0.0,0.0,0.0,0.0,0.0,0.0,0.0,0.0,0.0,-0.015325416056845993,0.0004392372361813378,-0.0010129571927833753,0.0,0.0,0.0,0.0,0.0,0.0,0.0,0.0,0.0
3.5780000000000003,92,3,578000000,base_footprint,-0.0027357458941748842,0.0027345715387967107,0.7055907819680021,0.708608979772826,0.0,0.0,0.0,0.0,0.0,0.0,0.0,0.0,0.0,1.4583902552793756e-05,-5.4639482214713204e-05,-0.0006414478146538629,0.0,0.0,0.0,0.0,0.0,0.0,0.0,0.0,0.0,-0.005006191845852331,-0.0002074368326966231,-0.0002983477520170684,0.0,0.0,0.0,0.0,0.0,0.0,0.0,0.0,0.0
3.612,93,3,612000000,base_footprint,-0.002739794365231775,0.002737636490832529,0.7056396355519716,0.7085603034402653,0.0,0.0,0.0,0.0,0.0,0.0,0.0,0.0,0.0,1.5164743424048348e-05,-5.4640766445434644e-05,0.005993276724181663,0.0,0.0,0.0,0.0,0.0,0.0,0.0,0.0,0.0,-0.0021906295386683837,-0.00014759849022736075,-0.00022998785469930966,0.0,0.0,0.0,0.0,0.0,0.0,0.0,0.0,0.0
3.646,94,3,646000000,base_footprint,-0.002742191661467443,0.0027396772001064165,0.7057122272496192,0.7084879863936389,0.0,0.0,0.0,0.0,0.0,0.0,0.0,0.0,0.0,-5.035904343864336e-06,1.8056498328157193e-05,0.0059924474450026854,0.0,0.0,0.0,0.0,0.0,0.0,0.0,0.0,0.0,-0.000713347392520524,-0.00039284070589053487,3.9228544034705534e-05,0.0,0.0,0.0,0.0,0.0,0.0,0.0,0.0,0.0
3.68,95,3,680000000,base_footprint,-0.0027442727201721848,0.002740751906903634,0.7057842901562439,0.7084161863021405,0.0,0.0,0.0,0.0,0.0,0.0,0.0,0.0,0.0,2.8965022929201565e-05,5.0748485200713696e-05,0.0059315132076268665,0.0,0.0,0.0,0.0,0.0,0.0,0.0,0.0,0.0,0.006236028539167398,-0.001420023738640125,4.975615810281109e-05,0.0,0.0,0.0,0.0,0.0,0.0,0.0,0.0,0.0
3.714,96,3,714000000,base_footprint,-0.002734522528356655,0.002732965074627984,0.7057161077627188,0.7084841766283009,0.0,0.0,0.0,0.0,0.0,0.0,0.0,0.0,0.0,-7.429256202471117e-05,0.0003784975297106535,-0.01658492624367333,0.0,0.0,0.0,0.0,0.0,0.0,0.0,0.0,0.0,-0.10689680762556117,0.008770219077191367,0.001492595390948961,0.0,0.0,0.0,0.0,0.0,0.0,0.0,0.0,0.0
3.748,97,3,748000000,base_footprint,-0.00273075422358236,0.0027334944929296363,0.7055169024455794,0.7086825603560611,0.0,0.0,0.0,0.0,0.0,0.0,0.0,0.0,0.0,0.0004301203921545105,0.0001597781517516333,-0.011711828314529087,0.0,0.0,0.0,0.0,0.0,0.0,0.0,0.0,0.0,0.029660479636350778,-0.009603755507658386,-0.0022331751982188662,0.0,0.0,0.0,0.0,0.0,0.0,0.0,0.0,0.0
3.782,98,3,782000000,base_footprint,-0.0027328097134100325,0.002723011324414825,0.7053754346348599,0.7088234005548067,0.0,0.0,0.0,0.0,0.0,0.0,0.0,0.0,0.0,-0.00012153287113941846,-0.0013815101545185007,-0.013695238056564505,0.0,0.0,0.0,0.0,0.0,0.0,0.0,0.0,0.0,-0.10206279288059072,0.00435783480751379,-0.000372985756627515,0.0,0.0,0.0,0.0,0.0,0.0,0.0,0.0,0.0
3.816,99,3,816000000,base_footprint,-0.002739592641226764,0.0027416272614024942,0.7052959962315775,0.7089023457513922,0.0,0.0,0.0,0.0,0.0,0.0,0.0,0.0,0.0,-0.00015436745590473127,3.424004655484117e-05,0.009994728823885584,0.0,0.0,0.0,0.0,0.0,0.0,0.0,0.0,0.0,-0.13099270580231603,0.009161942658904292,0.0012767956241093853,0.0,0.0,0.0,0.0,0.0,0.0,0.0,0.0,0.0
3.849,100,3,850000000,base_footprint,-0.002737891234403828,0.00273741376448624,0.705394246266236,0.7088046048467515,0.0,0.0,0.0,0.0,0.0,0.0,0.0,0.0,0.0,0.00012858346505913648,0.00031412983175474154,0.008241843847084929,0.0,0.0,0.0,0.0,0.0,0.0,0.0,0.0,0.0,0.0008852891156905171,-0.00523240880638099,0.00041669427318767594,0.0,0.0,0.0,0.0,0.0,0.0,0.0,0.0,0.0
3.885,101,3,884000000,base_footprint,-0.00273433806546381,0.0027339236744451014,0.7054933864289529,0.7087059550770646,0.0,0.0,0.0,0.0,0.0,0.0,0.0,0.0,0.0,-7.710140468259786e-05,0.00047044292023256187,0.008084683456988139,0.0,0.0,0.0,0.0,0.0,0.0,0.0,0.0,0.0,-0.00488175347948264,-0.0012465646360761901,0.0004889624234736718,0.0,0.0,0.0,0.0,0.0,0.0,0.0,0.0,0.0
3.918,102,3,918000000,base_footprint,-0.002728522362877345,0.0027339537984637564,0.7048480823185332,0.7093477719103863,0.0,0.0,0.0,0.0,0.0,0.0,0.0,0.0,0.0,-7.731027740637267e-05,-0.0001704882250095461,-0.06480507815286299,0.0,0.0,0.0,0.0,0.0,0.0,0.0,0.0,0.0,-0.02424726263824592,0.011527156622966401,-0.000219809513469723,0.0,0.0,0.0,0.0,0.0,0.0,0.0,0.0,0.0
3.952,103,3,952000000,base_footprint,-0.002724148689522895,0.002736049955286742,0.7040638908428591,0.7101261371445035,0.0,0.0,0.0,0.0,0.0,0.0,0.0,0.0,0.0,-5.848525800944471e-05,-0.0002777315592827311,-0.06523662551302778,0.0,0.0,0.0,0.0,0.0,0.0,0.0,0.0,0.0,-0.00549580834380729,0.014199034518571803,-0.000324102373857766,0.0,0.0,0.0,0.0,0.0,0.0,0.0,0.0,0.0
3.986,104,3,986000000,base_footprint,-0.002721264962397188,0.00273926063482954,0.7032734258186483,0.7109089813087758,0.0,0.0,0.0,0.0,0.0,0.0,0.0,0.0,0.0,-4.369564903658786e-05,-0.00036398670260070955,-0.06568351204552018,0.0,0.0,0.0,0.0,0.0,0.0,0.0,0.0,0.0,-0.0055743188208346945,0.014628890799849973,-0.0002853468248022207,0.0,0.0,0.0,0.0,0.0,0.0,0.0,0.0,0.0
4.02,105,4,20000000,base_footprint,-0.0027200316610752665,0.002742982476493079,0.7025792453712334,0.7115950262954939,0.0,0.0,0.0,0.0,0.0,0.0,0.0,0.0,0.0,-2.7101748155668924e-05,-0.0003963908039409799,-0.057144887509241765,0.0,0.0,0.0,0.0,0.0,0.0,0.0,0.0,0.0,-0.0031215375389748046,0.012955734777804668,-0.000311650785754938,0.0,0.0,0.0,0.0,0.0,0.0,0.0,0.0,0.0
4.053,106,4,54000000,base_footprint,-0.0027203707372382767,0.002747835720192398,0.7018858874776777,0.7122789130260558,0.0,0.0,0.0,0.0,0.0,0.0,0.0,0.0,0.0,-9.374957823876374e-06,-0.0005129253606480873,-0.05744997714431673,0.0,0.0,0.0,0.0,0.0,0.0,0.0,0.0,0.0,-0.005085496982740988,0.0130584597807759,-0.00035867523660869756,0.0,0.0,0.0,0.0,0.0,0.0,0.0,0.0,0.0
4.088,107,4,88000000,base_footprint,-0.0027210420187415733,0.0027540244069678404,0.7011908342202449,0.7129631303829219,0.0,0.0,0.0,0.0,0.0,0.0,0.0,0.0,0.0,-0.0005702534024092506,-0.00045672239504119584,-0.05532164604730247,0.0,0.0,0.0,0.0,0.0,0.0,0.0,0.0,0.0,-0.0036743629404214512,0.013089044688376695,-0.00018713168886630362,0.0,0.0,0.0,0.0,0.0,0.0,0.0,0.0,0.0
4.122,108,4,122000000,base_footprint,-0.0027230573152990313,0.0027596891587190354,0.7005685261747726,0.7135745996095375,0.0,0.0,0.0,0.0,0.0,0.0,0.0,0.0,0.0,-2.009378250110677e-06,-0.00041835334580442556,-0.05086290382411668,0.0,0.0,0.0,0.0,0.0,0.0,0.0,0.0,0.0,0.0029312756915345515,0.012239472523978785,-0.00016754649948178473,0.0,0.0,0.0,0.0,0.0,0.0,0.0,0.0,0.0
4.156,109,4,156000000,base_footprint,-0.0027224328233915207,0.00276326964823518,0.6999523397611851,0.7141790215087642,0.0,0.0,0.0,0.0,0.0,0.0,0.0,0.0,0.0,2.0573995028623035e-05,-0.0003467652682664024,-0.05072598329495474,0.0,0.0,0.0,0.0,0.0,0.0,0.0,0.0,0.0,0.007514430835978815,0.011469291622036732,2.6989149145560016e-05,0.0,0.0,0.0,0.0,0.0,0.0,0.0,0.0,0.0
4.19,110,4,190000000,base_footprint,-0.0027158226941686875,0.002761510520069273,0.6993243373059245,0.7147940050240846,0.0,0.0,0.0,0.0,0.0,0.0,0.0,0.0,0.0,2.9471532026003645e-05,0.0029285903621342154,-0.05621554712743927,0.0,0.0,0.0,0.0,0.0,0.0,0.0,0.0,0.0,0.014604291559250283,0.008156372447433337,0.0029979962787087837,0.0,0.0,0.0,0.0,0.0,0.0,0.0,0.0,0.0
4.224,111,4,224000000,base_footprint,-0.0027109310284289655,0.0027716679964346624,0.6984905942627414,0.7156087327834668,0.0,0.0,0.0,0.0,0.0,0.0,0.0,0.0,0.0,0.0009505561952430191,6.837331594880644e-05,-0.06960816658405944,0.0,0.0,0.0,0.0,0.0,0.0,0.0,0.0,0.0,0.11101145507902327,0.00818814641085254,-0.0012171808645629265,0.0,0.0,0.0,0.0,0.0,0.0,0.0,0.0,0.0
4.258,112,4,258000000,base_footprint,-0.002704193777823804,0.0027640773890254826,0.6976476031000575,0.7164306450040676,0.0,0.0,0.0,0.0,0.0,0.0,0.0,0.0,0.0,0.00018508151915815752,-0.0008432826554982998,-0.06311423246211764,0.0,0.0,0.0,0.0,0.0,0.0,0.0,0.0,0.0,0.2747772167794832,0.0008051504778542329,-0.0034795826811285877,0.0,0.0,0.0,0.0,0.0,0.0,0.0,0.0,0.0
4.292,113,4,292000000,base_footprint,-0.0027084688063585874,0.002770953160343753,0.6969387466908887,0.7171201917225881,0.0,0.0,0.0,0.0,0.0,0.0,0.0,0.0,0.0,-0.000995618057526594,0.00014664902626003142,-0.0465450112229293,0.0,0.0,0.0,0.0,0.0,0.0,0.0,0.0,0.0,-0.021791012579899145,0.015617224699715552,0.0020029515879534322,0.0,0.0,0.0,0.0,0.0,0.0,0.0,0.0,0.0
4.326,114,4,326000000,base_footprint,-0.0027032916784220473,0.002772017614472212,0.6963969575994003,0.7176463513310337,0.0,0.0,0.0,0.0,0.0,0.0,0.0,0.0,0.0,-0.0001840167795939507,0.00010356785939589439,-0.04443131494417024,0.0,0.0,0.0,0.0,0.0,0.0,0.0,0.0,0.0,-0.00489797983747774,0.00908665034259295,0.000278554788662618,0.0,0.0,0.0,0.0,0.0,0.0,0.0,0.0,0.0
4.36,115,4,360000000,base_footprint,-0.002697279556018684,0.002771302677702161,0.6958518281852932,0.7181749632057988,0.0,0.0,0.0,0.0,0.0,0.0,0.0,0.0,0.0,-4.90768959125094e-05,5.386656792300828e-05,-0.04484865605005167,0.0,0.0,0.0,0.0,0.0,0.0,0.0,0.0,0.0,-0.004061034075197607,0.009430025232848648,-4.0037104860663226e-05,0.0,0.0,0.0,0.0,0.0,0.0,0.0,0.0,0.0
4.394,116,4,394000000,base_footprint,-0.002685021126208675,0.0027633897972212593,0.6952809585925933,0.7187277251901064,0.0,0.0,0.0,0.0,0.0,0.0,0.0,0.0,0.0,-0.00010757139594286415,-0.0010598466857708912,-0.060450364822962996,0.0,0.0,0.0,0.0,0.0,0.0,0.0,0.0,0.0,-0.14422828352317157,0.018478949822998997,-0.001056265267147424,0.0,0.0,0.0,0.0,0.0,0.0,0.0,0.0,0.0
4.428,117,4,428000000,base_footprint,-0.002689994913385926,0.0027707838868577697,0.694913002358442,0.7190834484517038,0.0,0.0,0.0,0.0,0.0,0.0,0.0,0.0,0.0,-0.0002774786925603589,-0.0010674643392008726,-0.03804130334558793,0.0,0.0,0.0,0.0,0.0,0.0,0.0,0.0,0.0,-0.20343198786615774,0.019946084576472664,-0.0006082183938616414,0.0,0.0,0.0,0.0,0.0,0.0,0.0,0.0,0.0
4.462,118,4,462000000,base_footprint,-0.002688761906035889,0.002773135430032548,0.694455947642745,0.7195248550695914,0.0,0.0,0.0,0.0,0.0,0.0,0.0,0.0,0.0,-1.5558573265621123e-05,-0.00013319996740703238,-0.03741291326844153,0.0,0.0,0.0,0.0,0.0,0.0,0.0,0.0,0.0,-0.004743866079450981,0.010029660907796435,0.0008950151141826728,0.0,0.0,0.0,0.0,0.0,0.0,0.0,0.0,0.0
4.496,119,4,496000000,base_footprint,-0.002690360402093507,0.0027740962377207578,0.6942037226648734,0.7197681972615921,0.0,0.0,0.0,0.0,0.0,0.0,0.0,0.0,0.0,0.0013157982400845583,-0.0006544730805070137,0.058531541135166676,0.0,0.0,0.0,0.0,0.0,0.0,0.0,0.0,0.0,0.018633111516935932,0.005460484336884465,-0.0021806459693931544,0.0,0.0,0.0,0.0,0.0,0.0,0.0,0.0,0.0
4.53,120,4,530000000,base_footprint,-0.0026947364833296637,0.002773619368518788,0.6949330017714322,0.7190640920528786,0.0,0.0,0.0,0.0,0.0,0.0,0.0,0.0,0.0,4.294233143304218e-05,0.0004222298396841679,0.059185977362597814,0.0,0.0,0.0,0.0,0.0,0.0,0.0,0.0,0.0,-0.004434258354637364,-0.013712527823490559,0.0018102324144920216,0.0,0.0,0.0,0.0,0.0,0.0,0.0,0.0,0.0
4.564,121,4,564000000,base_footprint,-0.002701595815439755,0.0027740391792215944,0.6956554458449365,0.7183651625412836,0.0,0.0,0.0,0.0,0.0,0.0,0.0,0.0,0.0,7.600048560429975e-05,0.0003368360046762817,0.059221102939801276,0.0,0.0,0.0,0.0,0.0,0.0,0.0,0.0,0.0,-0.0048042428442804565,-0.012106837806157634,-0.00020316690056132496,0.0,0.0,0.0,0.0,0.0,0.0,0.0,0.0,0.0
4.598,122,4,598000000,base_footprint,-0.0027073644083462274,0.002773543984937456,0.6963974773551641,0.7176458257142502,0.0,0.0,0.0,0.0,0.0,0.0,0.0,0.0,0.0,-0.00028806100318151505,0.0006840714369675679,0.06509729317735274,0.0,0.0,0.0,0.0,0.0,0.0,0.0,0.0,0.0,-0.0038754083505111166,-0.011208004903771123,0.0006634789331291889,0.0,0.0,0.0,0.0,0.0,0.0,0.0,0.0,0.0
4.632,123,4,632000000,base_footprint,-0.0027124292538247773,0.002771746657985954,0.69718694166133,0.7168788799545766,0.0,0.0,0.0,0.0,0.0,0.0,0.0,0.0,0.0,0.0001083511484064971,0.00046344584094972776,0.06512712298559434,0.0,0.0,0.0,0.0,0.0,0.0,0.0,0.0,0.0,0.0012475319290002774,-0.014126711551845889,-0.00047121780441312336,0.0,0.0,0.0,0.0,0.0,0.0,0.0,0.0,0.0
4.666,124,4,666000000,base_footprint,-0.0027131034623394975,0.002767905013437103,0.6979796388641489,0.7161071159418203,0.0,0.0,0.0,0.0,0.0,0.0,0.0,0.0,0.0,-0.00037151462859038177,0.0008794343006513646,0.0634102643272145,0.0,0.0,0.0,0.0,0.0,0.0,0.0,0.0,0.0,-0.0005116871798360872,-0.017287090394400538,0.0010923482293816412,0.0,0.0,0.0,0.0,0.0,0.0,0.0,0.0,0.0
4.7,125,4,700000000,base_footprint,-0.0027110653891327732,0.002761429096600619,0.6986618896111059,0.7154415340465211,0.0,0.0,0.0,0.0,0.0,0.0,0.0,0.0,0.0,0.0001671824343212366,0.00034317720946437175,0.04685592072716461,0.0,0.0,0.0,0.0,0.0,0.0,0.0,0.0,0.0,0.05626772902082742,-0.020619818046371693,-0.0007042176276465079,0.0,0.0,0.0,0.0,0.0,0.0,0.0,0.0,0.0
4.734,126,4,734000000,base_footprint,-0.0027168193762518353,0.002760084007471696,0.6991555404369101,0.7149591114917837,0.0,0.0,0.0,0.0,0.0,0.0,0.0,0.0,0.0,-0.00014321811573276243,0.0003383178610425824,0.04013190475559007,0.0,0.0,0.0,0.0,0.0,0.0,0.0,0.0,0.0,0.008922438290582976,-0.006973485330548744,-0.0002036559289476019,0.0,0.0,0.0,0.0,0.0,0.0,0.0,0.0,0.0
4.768,127,4,768000000,base_footprint,-0.002717665722336376,0.0027605502001585985,0.6998010403967891,0.7143273041926828,0.0,0.0,0.0,0.0,0.0,0.0,0.0,0.0,0.0,0.0002526477464308941,0.00116791086507484,0.05701093235721808,0.0,0.0,0.0,0.0,0.0,0.0,0.0,0.0,0.0,-0.027292861738037195,-0.009402759815674058,0.0015923583416045908,0.0,0.0,0.0,0.0,0.0,0.0,0.0,0.0,0.0
4.802,128,4,802000000,base_footprint,-0.0027190336323164943,0.002755613949883145,0.7004545038648434,0.7136865568744599,0.0,0.0,0.0,0.0,0.0,0.0,0.0,0.0,0.0,-0.00019450020708029924,0.0004819280291948153,0.04854363757122844,0.0,0.0,0.0,0.0,0.0,0.0,0.0,0.0,0.0,-0.007001241370412304,-0.010574590632456412,-0.0006408140831367972,0.0,0.0,0.0,0.0,0.0,0.0,0.0,0.0,0.0
4.836,129,4,836000000,base_footprint,-0.002717236163298334,0.002750765867773691,0.7010422634075882,0.7131092446681219,0.0,0.0,0.0,0.0,0.0,0.0,0.0,0.0,0.0,-5.0335372209519755e-05,0.0007835313032156428,0.04833176623415914,0.0,0.0,0.0,0.0,0.0,0.0,0.0,0.0,0.0,-0.004586386179195058,-0.009530489096438114,0.000672489166635732,0.0,0.0,0.0,0.0,0.0,0.0,0.0,0.0,0.0
4.87,130,4,870000000,base_footprint,-0.002716968673825987,0.002746507737305044,0.7016259657719423,0.7125349668129024,0.0,0.0,0.0,0.0,0.0,0.0,0.0,0.0,0.0,-4.5617808134741465e-05,0.0006791214024162833,0.04803009648544245,0.0,0.0,0.0,0.0,0.0,0.0,0.0,0.0,0.0,-0.005880358584839003,-0.010401851203626135,-0.0001096211100885826,0.0,0.0,0.0,0.0,0.0,0.0,0.0,0.0,0.0
4.904,131,4,904000000,base_footprint,-0.002718240346770319,0.0027432609037559997,0.7022550535890515,0.7119149706233672,0.0,0.0,0.0,0.0,0.0,0.0,0.0,0.0,0.0,-2.5227246885245545e-05,0.0006489156839753253,0.056415959740252535,0.0,0.0,0.0,0.0,0.0,0.0,0.0,0.0,0.0,-0.0035260193340918527,-0.011044230195051644,-8.60771848233613e-05,0.0,0.0,0.0,0.0,0.0,0.0,0.0,0.0,0.0
4.938,132,4,938000000,base_footprint,-0.002721058626105061,0.002740863836838485,0.7029344038419096,0.7112441967431442,0.0,0.0,0.0,0.0,0.0,0.0,0.0,0.0,0.0,-2.7455467299481703e-05,0.0005787398084866734,0.055995231769254875,0.0,0.0,0.0,0.0,0.0,0.0,0.0,0.0,0.0,-0.0061319916704036335,-0.012229893066440845,-5.6766196621603295e-05,0.0,0.0,0.0,0.0,0.0,0.0,0.0,0.0,0.0
4.972,133,4,972000000,base_footprint,-0.0027250158391610682,0.002739384516854292,0.7036087117209365,0.7105771251958153,0.0,0.0,0.0,0.0,0.0,0.0,0.0,0.0,0.0,-1.5082502890672656e-05,0.0004890827485684405,0.05563533292528211,0.0,0.0,0.0,0.0,0.0,0.0,0.0,0.0,0.0,-0.005833759415906601,-0.012023431577674193,-9.691686575771932e-05,0.0,0.0,0.0,0.0,0.0,0.0,0.0,0.0,0.0
5.006,134,5,6000000,base_footprint,-0.002731496757148768,0.0027364117186125404,0.7041050333303791,0.7100853138991102,0.0,0.0,0.0,0.0,0.0,0.0,0.0,0.0,0.0,-0.0009838009475821512,0.0010822131142119633,-0.014088757709543771,0.0,0.0,0.0,0.0,0.0,0.0,0.0,0.0,0.0,0.32642560616017685,-0.016309112770685336,-0.0005907990041112566,0.0,0.0,0.0,0.0,0.0,0.0,0.0,0.0,0.0
5.04,135,5,40000000,base_footprint,-0.002734651134074561,0.0027417143166591404,0.7042738910210806,0.7099178058844615,0.0,0.0,0.0,0.0,0.0,0.0,0.0,0.0,0.0,-1.2818700432728878e-05,0.00010191511928892507,0.04673000812456231,0.0,0.0,0.0,0.0,0.0,0.0,0.0,0.0,0.0,0.0015405221114772323,0.0003205744929023435,-4.404380384113256e-05,0.0,0.0,0.0,0.0,0.0,0.0,0.0,0.0,0.0
5.074,136,5,74000000,base_footprint,-0.0027396010439969688,0.0027421108536098875,0.7048297699470483,0.7093658934644218,0.0,0.0,0.0,0.0,0.0,0.0,0.0,0.0,0.0,3.889109975988121e-05,0.0003128137394249994,0.04546122266044461,0.0,0.0,0.0,0.0,0.0,0.0,0.0,0.0,0.0,-0.002752402544409828,-0.008988887318681676,0.00032013922054501497,0.0,0.0,0.0,0.0,0.0,0.0,0.0,0.0,0.0
5.108,137,5,108000000,base_footprint,-0.0027433912533749937,0.0027412057977527575,0.7053096323610628,0.7088887656705442,0.0,0.0,0.0,0.0,0.0,0.0,0.0,0.0,0.0,0.0001567957512012169,0.0002003574058977358,0.036420560848231975,0.0,0.0,0.0,0.0,0.0,0.0,0.0,0.0,0.0,-0.0006520465357868193,-0.007876089846683558,-3.085666195765058e-05,0.0,0.0,0.0,0.0,0.0,0.0,0.0,0.0,0.0
5.142,138,5,142000000,base_footprint,-0.002744499515395886,0.002738525213160142,0.7057397280318904,0.7084605878096115,0.0,0.0,0.0,0.0,0.0,0.0,0.0,0.0,0.0,3.867587006718023e-05,0.0005669138711768563,0.03417691590654434,0.0,0.0,0.0,0.0,0.0,0.0,0.0,0.0,0.0,0.007750450736886518,-0.005242328543996178,0.0007946498422611001,0.0,0.0,0.0,0.0,0.0,0.0,0.0,0.0,0.0
5.176,139,5,176000000,base_footprint,-0.002741634846139595,0.002733974931605279,0.706029865943951,0.7081714744428854,0.0,0.0,0.0,0.0,0.0,0.0,0.0,0.0,0.0,-0.00035594000446890025,6.469490504816799e-05,0.007743529829853874,0.0,0.0,0.0,0.0,0.0,0.0,0.0,0.0,0.0,0.0475329096150431,-0.019507329351286976,-0.0002952934142253261,0.0,0.0,0.0,0.0,0.0,0.0,0.0,0.0,0.0
5.21,140,5,210000000,base_footprint,-0.002715602497058682,0.002718285030514418,0.7060308676097761,0.7081706365077259,0.0,0.0,0.0,0.0,0.0,0.0,0.0,0.0,0.0,-0.0004855785620253066,0.0010594403429801688,-0.008113882997416319,0.0,0.0,0.0,0.0,0.0,0.0,0.0,0.0,0.0,-0.05516584552366433,0.006834963676825689,0.001019999327092255,0.0,0.0,0.0,0.0,0.0,0.0,0.0,0.0,0.0
5.244,141,5,244000000,base_footprint,-0.0027400025867778052,0.0027259423528546707,0.7059133152132407,0.7082876908635116,0.0,0.0,0.0,0.0,0.0,0.0,0.0,0.0,0.0,0.001073267132331344,-0.0012929325747203177,-0.00980835432316678,0.0,0.0,0.0,0.0,0.0,0.0,0.0,0.0,0.0,-0.23253719890095914,0.004850570904296775,-0.003250473258900776,0.0,0.0,0.0,0.0,0.0,0.0,0.0,0.0,0.0
5.2780000000000005,142,5,278000000,base_footprint,-0.0027406936900044045,0.002734258473265936,0.7061562745254283,0.7080454281873918,0.0,0.0,0.0,0.0,0.0,0.0,0.0,0.0,0.0,-2.3803790912930745e-05,0.00035762960924239925,0.028766341073889815,0.0,0.0,0.0,0.0,0.0,0.0,0.0,0.0,0.0,-0.07147009892064361,-0.004559733101138448,0.0024163263839095716,0.0,0.0,0.0,0.0,0.0,0.0,0.0,0.0,0.0
5.312,143,5,312000000,base_footprint,-0.0027393538636226148,0.002730254785735167,0.7065388148036928,0.7076637229821859,0.0,0.0,0.0,0.0,0.0,0.0,0.0,0.0,0.0,-8.600007408309304e-05,0.000725747903622254,0.03292238875208634,0.0,0.0,0.0,0.0,0.0,0.0,0.0,0.0,0.0,-0.004179635215074407,-0.005230903097797927,0.0008832697575812897,0.0,0.0,0.0,0.0,0.0,0.0,0.0,0.0,0.0
5.346,144,5,346000000,base_footprint,-0.0027377649715055,0.002726641262012816,0.7069324750434522,0.7072704898405757,0.0,0.0,0.0,0.0,0.0,0.0,0.0,0.0,0.0,-7.386432706002534e-05,0.0005780345388642133,0.0325802574860876,0.0,0.0,0.0,0.0,0.0,0.0,0.0,0.0,0.0,-0.005438017991651436,-0.007212189939551876,-0.00019472004764366658,0.0,0.0,0.0,0.0,0.0,0.0,0.0,0.0,0.0
5.38,145,5,380000000,base_footprint,-0.00273777912869196,0.0027242779745803155,0.7073214572510687,0.706881488643736,0.0,0.0,0.0,0.0,0.0,0.0,0.0,0.0,0.0,-5.95702319296388e-05,0.0004864751611585313,0.03218991361811899,0.0,0.0,0.0,0.0,0.0,0.0,0.0,0.0,0.0,-0.005643728982055418,-0.007084873341781438,-0.00011537774604162835,0.0,0.0,0.0,0.0,0.0,0.0,0.0,0.0,0.0
5.414,146,5,414000000,base_footprint,-0.0027388424908570525,0.002723180422577993,0.7076361670436659,0.7065664428218661,0.0,0.0,0.0,0.0,0.0,0.0,0.0,0.0,0.0,-4.61137838832197e-05,0.00035098514569101877,0.024291609841315176,0.0,0.0,0.0,0.0,0.0,0.0,0.0,0.0,0.0,-0.0076209929949338315,-0.005750622600640877,-0.0001085102394016821,0.0,0.0,0.0,0.0,0.0,0.0,0.0,0.0,0.0
5.448,147,5,448000000,base_footprint,-0.0027409881928628795,0.0027230213249336893,0.7079249905546953,0.7062770560387228,0.0,0.0,0.0,0.0,0.0,0.0,0.0,0.0,0.0,-2.9815930067434606e-05,0.00026232436149221776,0.02386425744706422,0.0,0.0,0.0,0.0,0.0,0.0,0.0,0.0,0.0,-0.005577679864179093,-0.005246404531343108,-0.00014690431594291032,0.0,0.0,0.0,0.0,0.0,0.0,0.0,0.0,0.0
5.482,148,5,482000000,base_footprint,-0.002744500658056274,0.002723896392904582,0.7082084637621371,0.7059927903033093,0.0,0.0,0.0,0.0,0.0,0.0,0.0,0.0,0.0,-1.1949306188675665e-05,0.00015205777864285656,0.023424669743146335,0.0,0.0,0.0,0.0,0.0,0.0,0.0,0.0,0.0,-0.0053406052122075675,-0.005084317665391208,-0.0002008305662134045,0.0,0.0,0.0,0.0,0.0,0.0,0.0,0.0,0.0
5.516,149,5,516000000,base_footprint,-0.002745750839498729,0.0027290888836152493,0.7076563097254999,0.7065462194590529,0.0,0.0,0.0,0.0,0.0,0.0,0.0,0.0,0.0,2.4989606267272795e-05,-0.0006535958192832368,-0.06720046273518547,0.0,0.0,0.0,0.0,0.0,0.0,0.0,0.0,0.0,-0.02862442231178316,0.009390786099661253,-0.000578802389291295,0.0,0.0,0.0,0.0,0.0,0.0,0.0,0.0,0.0
5.55,150,5,550000000,base_footprint,-0.0027442398437432444,0.002734480441270396,0.7068494285972685,0.7073534315009091,0.0,0.0,0.0,0.0,0.0,0.0,0.0,0.0,0.0,-4.14327008922916e-05,-0.0005859947824486404,-0.0670774143322388,0.0,0.0,0.0,0.0,0.0,0.0,0.0,0.0,0.0,-0.0015224204247231699,0.015759352931949383,7.682035323824322e-05,0.0,0.0,0.0,0.0,0.0,0.0,0.0,0.0,0.0
5.584,151,5,584000000,base_footprint,-0.0027426298654516968,0.002739888748358078,0.7060463722801043,0.7081549909314855,0.0,0.0,0.0,0.0,0.0,0.0,0.0,0.0,0.0,-6.31260023319663e-05,-0.00047430367801562273,-0.06634787777180479,0.0,0.0,0.0,0.0,0.0,0.0,0.0,0.0,0.0,0.0056755134417006085,0.015884368814258108,7.034938125352369e-05,0.0,0.0,0.0,0.0,0.0,0.0,0.0,0.0,0.0
5.618,152,5,618000000,base_footprint,-0.002736975694378855,0.0027424318916705703,0.7053468363573133,0.7088517676299448,0.0,0.0,0.0,0.0,0.0,0.0,0.0,0.0,0.0,-0.00030592784847481715,1.0952290504049811e-05,-0.05531950403925087,0.0,0.0,0.0,0.0,0.0,0.0,0.0,0.0,0.0,0.012223784399759921,0.015756895500622932,0.0007258762348994418,0.0,0.0,0.0,0.0,0.0,0.0,0.0,0.0,0.0
5.652,153,5,652000000,base_footprint,-0.0027299477996544854,0.0027425051298620327,0.7047551149112281,0.7094400989915115,0.0,0.0,0.0,0.0,0.0,0.0,0.0,0.0,0.0,0.000186498259538244,9.514528615646933e-06,-0.0382601546657635,0.0,0.0,0.0,0.0,0.0,0.0,0.0,0.0,0.0,0.05098894124375977,0.0144548943728969,-0.0003756913783206068,0.0,0.0,0.0,0.0,0.0,0.0,0.0,0.0,0.0
5.686,154,5,686000000,base_footprint,-0.0027311698416782357,0.0027466294849610154,0.7042202961283808,0.7099709650814068,0.0,0.0,0.0,0.0,0.0,0.0,0.0,0.0,0.0,0.0001297576840567759,-0.0007597450370698511,-0.05029164599551615,0.0,0.0,0.0,0.0,0.0,0.0,0.0,0.0,0.0,-0.010157048552118478,0.0003097577571442951,-0.0016338331797500793,0.0,0.0,0.0,0.0,0.0,0.0,0.0,0.0,0.0
5.72,155,5,720000000,base_footprint,-0.0027264020685802072,0.002742348829280173,0.7037127407424028,0.7104740845178484,0.0,0.0,0.0,0.0,0.0,0.0,0.0,0.0,0.0,-0.00041860129209704203,-0.0009632652945157712,-0.030523504391630686,0.0,0.0,0.0,0.0,0.0,0.0,0.0,0.0,0.0,0.36141012091309893,0.0044476335851078574,-0.0003728743552644223,0.0,0.0,0.0,0.0,0.0,0.0,0.0,0.0,0.0
5.754,156,5,754000000,base_footprint,-0.002727576901459746,0.002746857130867362,0.7029941235356428,0.7111851217330848,0.0,0.0,0.0,0.0,0.0,0.0,0.0,0.0,0.0,4.647154493047754e-05,-0.00023565271138219362,-0.06206463633778289,0.0,0.0,0.0,0.0,0.0,0.0,0.0,0.0,0.0,-0.03935650501198126,0.010949097390904921,0.0017422071443110867,0.0,0.0,0.0,0.0,0.0,0.0,0.0,0.0,0.0
5.788,157,5,788000000,base_footprint,-0.0027219004728629933,0.0027462242919101725,0.7022434059065823,0.7119264346620917,0.0,0.0,0.0,0.0,0.0,0.0,0.0,0.0,0.0,0.0007431131722825426,-5.49030926528018e-05,-0.05938829850759252,0.0,0.0,0.0,0.0,0.0,0.0,0.0,0.0,0.0,-0.003587762329260103,0.01327527908970711,0.00031720613051476474,0.0,0.0,0.0,0.0,0.0,0.0,0.0,0.0,0.0
5.822,158,5,822000000,base_footprint,-0.00271602885074006,0.0027466971261762094,0.7015888954037042,0.7125714705826984,0.0,0.0,0.0,0.0,0.0,0.0,0.0,0.0,0.0,-6.856724308830483e-05,-8.712298133040205e-05,-0.054202694444160704,0.0,0.0,0.0,0.0,0.0,0.0,0.0,0.0,0.0,-0.0030076616253074976,0.010992472561219872,-9.310290355127327e-05,0.0,0.0,0.0,0.0,0.0,0.0,0.0,0.0,0.0
5.856,159,5,856000000,base_footprint,-0.0027119277224996255,0.0027480492711962168,0.7009305935283987,0.7132190383950486,0.0,0.0,0.0,0.0,0.0,0.0,0.0,0.0,0.0,-5.860235705100704e-05,-0.0001611152851711727,-0.054453241133472455,0.0,0.0,0.0,0.0,0.0,0.0,0.0,0.0,0.0,-0.0051798904508878465,0.011617975793806396,-0.0002314383884542193,0.0,0.0,0.0,0.0,0.0,0.0,0.0,0.0,0.0
5.89,160,5,890000000,base_footprint,-0.002706855495459326,0.0027482552362879335,0.7002493433834137,0.7138879303627294,0.0,0.0,0.0,0.0,0.0,0.0,0.0,0.0,0.0,0.00018171763613375274,0.003311736777972216,-0.061002772979653716,0.0,0.0,0.0,0.0,0.0,0.0,0.0,0.0,0.0,-0.07948034438120546,0.014745958871665736,0.0037781560804641037,0.0,0.0,0.0,0.0,0.0,0.0,0.0,0.0,0.0
5.924,161,5,924000000,base_footprint,-0.0027088768082884156,0.0027541153724504864,0.6997643402042208,0.7143633144370618,0.0,0.0,0.0,0.0,0.0,0.0,0.0,0.0,0.0,-0.0007779775044801544,7.639916807461824e-05,-0.046164942801961095,0.0,0.0,0.0,0.0,0.0,0.0,0.0,0.0,0.0,-0.2662536230493445,0.019824063082189952,-0.0034097957007416845,0.0,0.0,0.0,0.0,0.0,0.0,0.0,0.0,0.0
5.958,162,5,958000000,base_footprint,-0.0027100252857203103,0.002757984384351774,0.6991815417952284,0.7149337178353905,0.0,0.0,0.0,0.0,0.0,0.0,0.0,0.0,0.0,1.4071795209906924e-05,-0.00038815744808981246,-0.04794128177967158,0.0,0.0,0.0,0.0,0.0,0.0,0.0,0.0,0.0,-0.007908462647572629,0.010861832183824673,-0.001264435983887175,0.0,0.0,0.0,0.0,0.0,0.0,0.0,0.0,0.0
5.992,163,5,992000000,base_footprint,-0.0027120078880997424,0.002762494835701734,0.6986124209537306,0.7154898314614019,0.0,0.0,0.0,0.0,0.0,0.0,0.0,0.0,0.0,0.0008163325230062912,-0.00019217665170680458,-0.03533663220074702,0.0,0.0,0.0,0.0,0.0,0.0,0.0,0.0,0.0,-0.002086404991824712,0.011449893308465282,-0.0003197999416198647,0.0,0.0,0.0,0.0,0.0,0.0,0.0,0.0,0.0
6.026,164,6,26000000,base_footprint,-0.0027129657747580363,0.0027678053543043137,0.6981807699280893,0.7159110221059919,0.0,0.0,0.0,0.0,0.0,0.0,0.0,0.0,0.0,2.81926450851168e-07,-0.000326811193169361,-0.03555411092369175,0.0,0.0,0.0,0.0,0.0,0.0,0.0,0.0,0.0,-0.00024973279649524813,0.008094708324683694,-0.00015916099872981813,0.0,0.0,0.0,0.0,0.0,0.0,0.0,0.0,0.0
6.06,165,6,60000000,base_footprint,-0.002713253427136023,0.0027711246453863136,0.6977504644547007,0.716330404546177,0.0,0.0,0.0,0.0,0.0,0.0,0.0,0.0,0.0,1.1338470204763016e-05,-0.0002912209284388534,-0.03517687229781909,0.0,0.0,0.0,0.0,0.0,0.0,0.0,0.0,0.0,0.005311755305761121,0.007411248466636548,-4.4031171851641925e-06,0.0,0.0,0.0,0.0,0.0,0.0,0.0,0.0,0.0
6.094,166,6,94000000,base_footprint,-0.0027050779750793638,0.002769595309461868,0.6973421270390373,0.7167279607714784,0.0,0.0,0.0,0.0,0.0,0.0,0.0,0.0,0.0,0.0013502951200215995,0.0036173327947548956,-0.020859487676348234,0.0,0.0,0.0,0.0,0.0,0.0,0.0,0.0,0.0,0.004699502767172918,0.006440050726991468,0.005624731730317377,0.0,0.0,0.0,0.0,0.0,0.0,0.0,0.0,0.0
6.128,167,6,128000000,base_footprint,-0.002711218072854025,0.00276473929594833,0.6971882978831709,0.7168775926250964,0.0,0.0,0.0,0.0,0.0,0.0,0.0,0.0,0.0,-6.108727533685448e-05,0.00040675010509588,-0.017031143506812264,0.0,0.0,0.0,0.0,0.0,0.0,0.0,0.0,0.0,0.03760362032104393,-0.01040527249776884,-0.00385173435349619,0.0,0.0,0.0,0.0,0.0,0.0,0.0,0.0,0.0
6.162,168,6,162000000,base_footprint,-0.0027020136287548547,0.0027586991791053125,0.6972055276359421,0.7168608937130528,0.0,0.0,0.0,0.0,0.0,0.0,0.0,0.0,0.0,-0.00023328658341721528,-0.00031107391896630077,0.036507414618648315,0.0,0.0,0.0,0.0,0.0,0.0,0.0,0.0,0.0,0.12210676193569134,-0.0009534869449987216,-0.005062903818815637,0.0,0.0,0.0,0.0,0.0,0.0,0.0,0.0,0.0
6.196,169,6,196000000,base_footprint,-0.0027102962353883504,0.002759928661078911,0.69781476100784,0.7162678244956097,0.0,0.0,0.0,0.0,0.0,0.0,0.0,0.0,0.0,-0.0007377912347449969,0.0004895476868655905,0.08103925856613844,0.0,0.0,0.0,0.0,0.0,0.0,0.0,0.0,0.0,-0.07235010482446913,-0.0011437699314416142,0.00321743963578097,0.0,0.0,0.0,0.0,0.0,0.0,0.0,0.0,0.0
6.23,170,6,230000000,base_footprint,-0.0027141817593550705,0.002760883441832864,0.698883121636122,0.7152254141402887,0.0,0.0,0.0,0.0,0.0,0.0,0.0,0.0,0.0,7.856724947532382e-05,0.0008797872012746928,0.08805566662391397,0.0,0.0,0.0,0.0,0.0,0.0,0.0,0.0,0.0,-0.028306328935393702,-0.018295014386642654,0.0007721307527956312,0.0,0.0,0.0,0.0,0.0,0.0,0.0,0.0,0.0
6.264,171,6,264000000,base_footprint,-0.002714422617040393,0.0027546460825723,0.6999517139348548,0.7141796986714726,0.0,0.0,0.0,0.0,0.0,0.0,0.0,0.0,0.0,-5.194205353175783e-05,0.0010936491614125115,0.08787694611039784,0.0,0.0,0.0,0.0,0.0,0.0,0.0,0.0,0.0,-0.004695957550223815,-0.01869912958228201,0.0007795690415456113,0.0,0.0,0.0,0.0,0.0,0.0,0.0,0.0,0.0
6.298,172,6,298000000,base_footprint,-0.0027156032094410214,0.0027483235962122254,0.7009880876760284,0.7131625152466471,0.0,0.0,0.0,0.0,0.0,0.0,0.0,0.0,0.0,-0.0001954556267967043,0.0008458997765796979,0.07949212657185101,0.0,0.0,0.0,0.0,0.0,0.0,0.0,0.0,0.0,-0.008463166666596411,-0.018968203095055116,-0.00010316846200813184,0.0,0.0,0.0,0.0,0.0,0.0,0.0,0.0,0.0
6.332,173,6,332000000,base_footprint,-0.002717827756042262,0.002743781193176961,0.7019522076395307,0.7122135798108892,0.0,0.0,0.0,0.0,0.0,0.0,0.0,0.0,0.0,-4.3393153959633585e-05,0.000854453074129536,0.07950292525680609,0.0,0.0,0.0,0.0,0.0,0.0,0.0,0.0,0.0,-0.0059606620240146065,-0.016819009662381118,5.42290641977758e-05,0.0,0.0,0.0,0.0,0.0,0.0,0.0,0.0,0.0
6.366,174,6,366000000,base_footprint,-0.002721305224963784,0.0027402012880063534,0.7029123251973465,0.7112660183647422,0.0,0.0,0.0,0.0,0.0,0.0,0.0,0.0,0.0,-3.888052239526925e-05,0.0007751814560426123,0.07923522472723918,0.0,0.0,0.0,0.0,0.0,0.0,0.0,0.0,0.0,-0.006089222385265455,-0.01718050245919295,-2.3428962548718472e-05,0.0,0.0,0.0,0.0,0.0,0.0,0.0,0.0,0.0
6.4,175,6,400000000,base_footprint,-0.002725067954549153,0.002738358490166484,0.7036922358699118,0.7104944141749651,0.0,0.0,0.0,0.0,0.0,0.0,0.0,0.0,0.0,5.528615904581414e-05,9.779503655205597e-06,0.03698836109034205,0.0,0.0,0.0,0.0,0.0,0.0,0.0,0.0,0.0,-0.01783172208642505,-0.015811182241540093,-0.0006083295862810826,0.0,0.0,0.0,0.0,0.0,0.0,0.0,0.0,0.0
6.434,176,6,434000000,base_footprint,-0.0027294133218533903,0.002738736242416953,0.7041456481941374,0.7100450378363129,0.0,0.0,0.0,0.0,0.0,0.0,0.0,0.0,0.0,-1.8542734940224136e-05,0.000261314491486604,0.03748973794217644,0.0,0.0,0.0,0.0,0.0,0.0,0.0,0.0,0.0,-0.004403947541720882,-0.006399419507066924,0.00036032630690628956,0.0,0.0,0.0,0.0,0.0,0.0,0.0,0.0,0.0
6.468,177,6,468000000,base_footprint,-0.002735127014370529,0.0027403550024938657,0.7045954924138845,0.7095986200696216,0.0,0.0,0.0,0.0,0.0,0.0,0.0,0.0,0.0,2.318767179699851e-05,0.00013589196453755653,0.03713868449980413,0.0,0.0,0.0,0.0,0.0,0.0,0.0,0.0,0.0,-0.004781768446974392,-0.007897805867814217,-0.0002207595184576415,0.0,0.0,0.0,0.0,0.0,0.0,0.0,0.0,0.0
6.502,178,6,502000000,base_footprint,-0.002732384554368214,0.002732154764934229,0.7050336592946607,0.7091633159340435,0.0,0.0,0.0,0.0,0.0,0.0,0.0,0.0,0.0,0.002270846879650369,-0.0034288984662672406,0.03181083535379202,0.0,0.0,0.0,0.0,0.0,0.0,0.0,0.0,0.0,0.24605962690465188,-0.008793523807905462,-0.0061993864278875,0.0,0.0,0.0,0.0,0.0,0.0,0.0,0.0,0.0
6.536,179,6,536000000,base_footprint,-0.0027446131440258823,0.0027364433404570418,0.7053139249033002,0.7088845084455124,0.0,0.0,0.0,0.0,0.0,0.0,0.0,0.0,0.0,0.0011881703568688772,0.0015897385519679102,0.06377183588359198,0.0,0.0,0.0,0.0,0.0,0.0,0.0,0.0,0.0,0.11144706823204492,-0.006728486042313062,0.007588586088839609,0.0,0.0,0.0,0.0,0.0,0.0,0.0,0.0,0.0
6.57,180,6,570000000,base_footprint,-0.0027463764553738172,0.0027376166734035304,0.7060339494559895,0.708167370814903,0.0,0.0,0.0,0.0,0.0,0.0,0.0,0.0,0.0,6.48991796968548e-05,0.0007479814208144779,0.05758638250839765,0.0,0.0,0.0,0.0,0.0,0.0,0.0,0.0,0.0,-0.009007050863941239,-0.00814536771443355,-0.0005995380840569647,0.0,0.0,0.0,0.0,0.0,0.0,0.0,0.0,0.0
6.604,181,6,604000000,base_footprint,-0.0027434088799816432,0.002730325639634167,0.7066057765332073,0.7075968453855077,0.0,0.0,0.0,0.0,0.0,0.0,0.0,0.0,0.0,-0.0003767319572336296,0.00038439935242623425,0.029899977588503303,0.0,0.0,0.0,0.0,0.0,0.0,0.0,0.0,0.0,0.04733452007154185,-0.025979973822247402,6.835580508632488e-05,0.0,0.0,0.0,0.0,0.0,0.0,0.0,0.0,0.0
6.638,182,6,638000000,base_footprint,-0.002743629430315636,0.0027311896815578806,0.7069763881373462,0.7072265547310458,0.0,0.0,0.0,0.0,0.0,0.0,0.0,0.0,0.0,-0.0004107479731728223,1.6937498950685473e-05,0.04427567109195832,0.0,0.0,0.0,0.0,0.0,0.0,0.0,0.0,0.0,0.027654697298960827,0.002015295060462396,-0.0017929511579571197,0.0,0.0,0.0,0.0,0.0,0.0,0.0,0.0,0.0
6.672,183,6,672000000,base_footprint,-0.002748390251840905,0.002732084115003707,0.7075771008892126,0.7066255220161732,0.0,0.0,0.0,0.0,0.0,0.0,0.0,0.0,0.0,0.00013364255184765503,0.001126646234800327,0.05334451573446373,0.0,0.0,0.0,0.0,0.0,0.0,0.0,0.0,0.0,-0.039495284968844094,-0.01124604381512454,0.0026576268771694132,0.0,0.0,0.0,0.0,0.0,0.0,0.0,0.0,0.0
6.706,184,6,706000000,base_footprint,-0.0027344303362507607,0.0027204943649983136,0.7081664692019435,0.7060349663431685,0.0,0.0,0.0,0.0,0.0,0.0,0.0,0.0,0.0,-0.0017866967850011422,-0.0016077556982471669,0.03407165332586444,0.0,0.0,0.0,0.0,0.0,0.0,0.0,0.0,0.0,-0.22412416417502418,-0.008229927209509727,-0.0035712635320288002,0.0,0.0,0.0,0.0,0.0,0.0,0.0,0.0,0.0
6.74,185,6,740000000,base_footprint,-0.002748258360636097,0.002723797291706478,0.7084770207318052,0.7057232737406938,0.0,0.0,0.0,0.0,0.0,0.0,0.0,0.0,0.0,2.3591919761415845e-05,0.0008040749549028956,0.041614731908850094,0.0,0.0,0.0,0.0,0.0,0.0,0.0,0.0,0.0,-0.12687825488388094,-0.0072873527383685785,0.003680040414792872,0.0,0.0,0.0,0.0,0.0,0.0,0.0,0.0,0.0
6.774,186,6,774000000,base_footprint,-0.002746081541819542,0.0027192120452754574,0.7089741817720113,0.705223847088799,0.0,0.0,0.0,0.0,0.0,0.0,0.0,0.0,0.0,-9.195157447217383e-05,0.0006791342728581525,0.041283673445979226,0.0,0.0,0.0,0.0,0.0,0.0,0.0,0.0,0.0,-0.004409755003093676,-0.00951212599245279,-0.00011255816933850923,0.0,0.0,0.0,0.0,0.0,0.0,0.0,0.0,0.0
6.808,187,6,808000000,base_footprint,-0.00274588482562855,0.0027165480448238626,0.7094129758056216,0.7047824559691148,0.0,0.0,0.0,0.0,0.0,0.0,0.0,0.0,0.0,-7.876865212237067e-05,0.0005195016233569509,0.03336873854417714,0.0,0.0,0.0,0.0,0.0,0.0,0.0,0.0,0.0,-0.007518241872418629,-0.008211196876722171,-0.00012032145218078224,0.0,0.0,0.0,0.0,0.0,0.0,0.0,0.0,0.0
6.8420000000000005,188,6,842000000,base_footprint,-0.0027468743527657743,0.0027149739498187235,0.7098096330108361,0.7043829700402786,0.0,0.0,0.0,0.0,0.0,0.0,0.0,0.0,0.0,-5.6972911307878494e-05,0.00042992704417520693,0.032903968473159115,0.0,0.0,0.0,0.0,0.0,0.0,0.0,0.0,0.0,-0.005533576123291957,-0.007340868972306274,-0.00011587648398551447,0.0,0.0,0.0,0.0,0.0,0.0,0.0,0.0,0.0
6.876,189,6,876000000,base_footprint,-0.0027492396611294005,0.002714371671244755,0.7101986699598442,0.7039907123357413,0.0,0.0,0.0,0.0,0.0,0.0,0.0,0.0,0.0,-3.7937005033392905e-05,0.0003157456501059857,0.03200845193406844,0.0,0.0,0.0,0.0,0.0,0.0,0.0,0.0,0.0,-0.005467626838157761,-0.007605015344009222,-0.0001691172164139002,0.0,0.0,0.0,0.0,0.0,0.0,0.0,0.0,0.0
6.91,190,6,910000000,base_footprint,-0.0027487097252458267,0.002716918817894596,0.7098482359749004,0.7043440528820453,0.0,0.0,0.0,0.0,0.0,0.0,0.0,0.0,0.0,5.071383745071969e-05,-0.0009317765334751874,-0.07387112563286219,0.0,0.0,0.0,0.0,0.0,0.0,0.0,0.0,0.0,-0.03400295009771202,0.0036214941278141285,-0.0008058494619816543,0.0,0.0,0.0,0.0,0.0,0.0,0.0,0.0,0.0
6.944,191,6,944000000,base_footprint,-0.0027490319060043387,0.0027235984691954067,0.7089634892541496,0.7052345678847143,0.0,0.0,0.0,0.0,0.0,0.0,0.0,0.0,0.0,-1.3348860460272554e-05,-0.0007219849372703971,-0.07403619054040655,0.0,0.0,0.0,0.0,0.0,0.0,0.0,0.0,0.0,-0.004880486821486546,0.018249850076795315,0.000144025109303823,0.0,0.0,0.0,0.0,0.0,0.0,0.0,0.0,0.0
6.978,192,6,978000000,base_footprint,-0.002748137804747869,0.0027296740713083347,0.708074280742868,0.7061273324043906,0.0,0.0,0.0,0.0,0.0,0.0,0.0,0.0,0.0,-3.9900857054253163e-05,-0.0006263840175169555,-0.07419443985078053,0.0,0.0,0.0,0.0,0.0,0.0,0.0,0.0,0.0,-0.0024626712881004667,0.017425640496311692,-0.0001521110582424269,0.0,0.0,0.0,0.0,0.0,0.0,0.0,0.0,0.0
7.012,193,7,12000000,base_footprint,-0.0027466646364637916,0.0027352905769947823,0.7072487071581913,0.7069541995362227,0.0,0.0,0.0,0.0,0.0,0.0,0.0,0.0,0.0,-3.890075513058142e-05,-0.0004818010321238768,-0.06656744167678785,0.0,0.0,0.0,0.0,0.0,0.0,0.0,0.0,0.0,0.005943733329178553,0.015802106559971794,2.1147419065993044e-05,0.0,0.0,0.0,0.0,0.0,0.0,0.0,0.0,0.0
7.046,194,7,46000000,base_footprint,-0.0027422449946589585,0.0027385337463868395,0.7064588813655939,0.7077434771617349,0.0,0.0,0.0,0.0,0.0,0.0,0.0,0.0,0.0,-0.00012409269901542604,-0.0001785662201916392,-0.06473821937875125,0.0,0.0,0.0,0.0,0.0,0.0,0.0,0.0,0.0,0.007648559077789251,0.017750963619791102,0.0004543478890092104,0.0,0.0,0.0,0.0,0.0,0.0,0.0,0.0,0.0
7.08,195,7,80000000,base_footprint,-0.0027341384274004255,0.0027382777866536722,0.7057269913073111,0.7084733164080025,0.0,0.0,0.0,0.0,0.0,0.0,0.0,0.0,0.0,0.00013818047484767248,-4.9037343194348115e-05,-0.05431743981266865,0.0,0.0,0.0,0.0,0.0,0.0,0.0,0.0,0.0,0.03277227682029363,0.0195861299091064,-0.00011079828503635971,0.0,0.0,0.0,0.0,0.0,0.0,0.0,0.0,0.0
7.114,196,7,114000000,base_footprint,-0.0027343557566514545,0.002743270545488409,0.7051709647916682,0.7090267330503824,0.0,0.0,0.0,0.0,0.0,0.0,0.0,0.0,0.0,3.0090902694493785e-05,-0.0005105123555913337,-0.04163094142351624,0.0,0.0,0.0,0.0,0.0,0.0,0.0,0.0,0.0,0.026464145808816182,-0.001489781081310284,-0.001096607988653811,0.0,0.0,0.0,0.0,0.0,0.0,0.0,0.0,0.0
7.148,197,7,148000000,base_footprint,-0.0027355777225007887,0.002743854159670016,0.7045327733473442,0.7096608761643652,0.0,0.0,0.0,0.0,0.0,0.0,0.0,0.0,0.0,-4.278205830886506e-05,-3.7374064990552394e-05,-0.05329079975946205,0.0,0.0,0.0,0.0,0.0,0.0,0.0,0.0,0.0,-0.019301256663165522,0.011944229917460062,0.0009354615752840251,0.0,0.0,0.0,0.0,0.0,0.0,0.0,0.0,0.0
7.182,198,7,182000000,base_footprint,-0.0027314617474954927,0.0027434460942965624,0.7038910475302708,0.7102974066030284,0.0,0.0,0.0,0.0,0.0,0.0,0.0,0.0,0.0,9.844848359198262e-05,-0.00018568964645943682,-0.053864722554257935,0.0,0.0,0.0,0.0,0.0,0.0,0.0,0.0,0.0,-0.008377431192540015,0.012089016090774138,-0.00019710786053668116,0.0,0.0,0.0,0.0,0.0,0.0,0.0,0.0,0.0
7.216,199,7,216000000,base_footprint,-0.0027269765565319445,0.002741844271374237,0.7034758925880632,0.7107086002267593,0.0,0.0,0.0,0.0,0.0,0.0,0.0,0.0,0.0,1.9862117687684732e-06,-0.0014882561904798323,-0.011929013300677752,0.0,0.0,0.0,0.0,0.0,0.0,0.0,0.0,0.0,0.3367192829735215,0.0003366560987860534,-0.0021529983462930434,0.0,0.0,0.0,0.0,0.0,0.0,0.0,0.0,0.0
7.25,200,7,250000000,base_footprint,-0.0027217506652674286,0.002741687892476268,0.7029081154772081,0.7112701711846886,0.0,0.0,0.0,0.0,0.0,0.0,0.0,0.0,0.0,-8.187446162249003e-05,-0.00012874851325631858,-0.053242119812035194,0.0,0.0,0.0,0.0,0.0,0.0,0.0,0.0,0.0,-0.005545469681274515,0.009769512062572256,0.002450655891755235,0.0,0.0,0.0,0.0,0.0,0.0,0.0,0.0,0.0
7.284,201,7,284000000,base_footprint,-0.002717461923792061,0.0027430135454646026,0.7022619325549965,0.7119081888568946,0.0,0.0,0.0,0.0,0.0,0.0,0.0,0.0,0.0,-6.567339592017796e-05,-0.00015392461666290157,-0.05362141910134102,0.0,0.0,0.0,0.0,0.0,0.0,0.0,0.0,0.0,-0.005220661701730064,0.011276968919207826,-0.0001758636286965026,0.0,0.0,0.0,0.0,0.0,0.0,0.0,0.0,0.0
7.318,202,7,318000000,base_footprint,-0.0027197087688003705,0.0027417133070050813,0.7027423862416317,0.7114339215779443,0.0,0.0,0.0,0.0,0.0,0.0,0.0,0.0,0.0,-2.439946074499311e-05,0.000578661843021175,0.0613560411601945,0.0,0.0,0.0,0.0,0.0,0.0,0.0,0.0,0.0,0.024531598777453825,-0.008023040937930789,-0.0002102432951262152,0.0,0.0,0.0,0.0,0.0,0.0,0.0,0.0,0.0
7.352,203,7,352000000,base_footprint,-0.0027233211401246544,0.0027395751754241285,0.7034813016381172,0.7107032689494022,0.0,0.0,0.0,0.0,0.0,0.0,0.0,0.0,0.0,-2.4315796565508148e-05,0.000580312361923131,0.06096759677234451,0.0,0.0,0.0,0.0,0.0,0.0,0.0,0.0,0.0,-0.005591506307916504,-0.012135598321795456,4.8980393990963974e-05,0.0,0.0,0.0,0.0,0.0,0.0,0.0,0.0,0.0
7.386,204,7,386000000,base_footprint,-0.002728014917749853,0.0027382938861907056,0.7042150138889544,0.7099762488242697,0.0,0.0,0.0,0.0,0.0,0.0,0.0,0.0,0.0,-1.34579431277471e-05,0.0004906921235409779,0.06060040877561716,0.0,0.0,0.0,0.0,0.0,0.0,0.0,0.0,0.0,-0.0054220095713510595,-0.012425539413969363,-9.77678291440969e-05,0.0,0.0,0.0,0.0,0.0,0.0,0.0,0.0,0.0
7.42,205,7,420000000,base_footprint,-0.0027327326200465387,0.0027404971599965496,0.7044393613694923,0.7097536248594194,0.0,0.0,0.0,0.0,0.0,0.0,0.0,0.0,0.0,6.733822781626932e-05,-0.0002954954890540148,-0.0060296318025738664,0.0,0.0,0.0,0.0,0.0,0.0,0.0,0.0,0.0,-0.36564807303573854,0.0006303365641681657,-0.0008063252888208907,0.0,0.0,0.0,0.0,0.0,0.0,0.0,0.0,0.0
7.454,206,7,454000000,base_footprint,-0.0027390280440260342,0.002740382584163872,0.7051892993841026,0.7090084908256211,0.0,0.0,0.0,0.0,0.0,0.0,0.0,0.0,0.0,3.8731124047607356e-05,0.0004384068806550447,0.06784173259054618,0.0,0.0,0.0,0.0,0.0,0.0,0.0,0.0,0.0,0.018943479670466407,-0.011691766163219559,0.00041383815584928967,0.0,0.0,0.0,0.0,0.0,0.0,0.0,0.0,0.0
7.488,207,7,488000000,base_footprint,-0.0027454029582987295,0.0027386131653528096,0.7059950576185737,0.7082061432793945,0.0,0.0,0.0,0.0,0.0,0.0,0.0,0.0,0.0,0.0009962511863897765,0.0005138200878697607,0.06446052890175358,0.0,0.0,0.0,0.0,0.0,0.0,0.0,0.0,0.0,-0.0022100514718062705,-0.012542116189417746,2.847883860890235e-05,0.0,0.0,0.0,0.0,0.0,0.0,0.0,0.0,0.0
7.522,208,7,522000000,base_footprint,-0.0027490511684802976,0.002735715658488461,0.7066744248262213,0.7075282438701924,0.0,0.0,0.0,0.0,0.0,0.0,0.0,0.0,0.0,4.6197412932690284e-05,0.0006984286100311344,0.05600286666429976,0.0,0.0,0.0,0.0,0.0,0.0,0.0,0.0,0.0,0.0034166530545316444,-0.01115428410546134,0.0007988025720372125,0.0,0.0,0.0,0.0,0.0,0.0,0.0,0.0,0.0
7.556,209,7,556000000,base_footprint,-0.002747441400393048,0.0027278737878168396,0.7072605754144665,0.7069423517761169,0.0,0.0,0.0,0.0,0.0,0.0,0.0,0.0,0.0,-8.635864471052561e-05,0.0006850693829940127,0.03475447960003298,0.0,0.0,0.0,0.0,0.0,0.0,0.0,0.0,0.0,0.03458476463984437,-0.016637970511090734,0.0005381602794547868,0.0,0.0,0.0,0.0,0.0,0.0,0.0,0.0,0.0
7.59,210,7,590000000,base_footprint,-0.0027424864200653295,0.002733773059060456,0.7076036431541141,0.7065989594162467,0.0,0.0,0.0,0.0,0.0,0.0,0.0,0.0,0.0,-0.0019347518734474055,-0.0017367103449637666,0.026210042296597465,0.0,0.0,0.0,0.0,0.0,0.0,0.0,0.0,0.0,0.05224265962181071,-0.008587415775239374,-0.0026218151273099833,0.0,0.0,0.0,0.0,0.0,0.0,0.0,0.0,0.0
7.624,211,7,624000000,base_footprint,-0.002738977321274619,0.0027316482516790965,0.7073744713917768,0.7068284044407575,0.0,0.0,0.0,0.0,0.0,0.0,0.0,0.0,0.0,0.0009260123698045258,-0.0005768749123153255,-0.03987912180107562,0.0,0.0,0.0,0.0,0.0,0.0,0.0,0.0,0.0,-0.04961688507324269,0.005409955479947413,0.0008819996312005099,0.0,0.0,0.0,0.0,0.0,0.0,0.0,0.0,0.0
7.658,212,7,658000000,base_footprint,-0.0027426657705081265,0.002732943949832605,0.7067935619462717,0.7074092659791362,0.0,0.0,0.0,0.0,0.0,0.0,0.0,0.0,0.0,8.853880226737027e-05,-0.0001133544482403392,-0.04783280728757021,0.0,0.0,0.0,0.0,0.0,0.0,0.0,0.0,0.0,-0.027923581470519737,0.012627765876074127,0.0013542620197839138,0.0,0.0,0.0,0.0,0.0,0.0,0.0,0.0,0.0
7.692,213,7,692000000,base_footprint,-0.0027383876440796075,0.0027315113217183163,0.706201538103369,0.7080003020193184,0.0,0.0,0.0,0.0,0.0,0.0,0.0,0.0,0.0,0.00044899319812679255,0.00017158015229533507,-0.054372610441163594,0.0,0.0,0.0,0.0,0.0,0.0,0.0,0.0,0.0,-0.007460732133306757,0.010273903065707605,0.0004547247750272503,0.0,0.0,0.0,0.0,0.0,0.0,0.0,0.0,0.0
7.726,214,7,726000000,base_footprint,-0.002732218286064847,0.0027316944172744175,0.7055462297624241,0.7086533641328999,0.0,0.0,0.0,0.0,0.0,0.0,0.0,0.0,0.0,-8.900618244929723e-05,-6.195619250725199e-05,-0.054536320748312994,0.0,0.0,0.0,0.0,0.0,0.0,0.0,0.0,0.0,-0.005575707595656188,0.011455741914276311,-0.00016279881361227436,0.0,0.0,0.0,0.0,0.0,0.0,0.0,0.0,0.0
7.76,215,7,760000000,base_footprint,-0.0027276628746250573,0.002733089635283915,0.704886399609583,0.7093097022610979,0.0,0.0,0.0,0.0,0.0,0.0,0.0,0.0,0.0,-7.202788830729501e-05,-0.0001600821917966959,-0.05498074589278582,0.0,0.0,0.0,0.0,0.0,0.0,0.0,0.0,0.0,-0.00571909554895942,0.012117995414599068,-0.000278239053988396,0.0,0.0,0.0,0.0,0.0,0.0,0.0,0.0,0.0
7.7940000000000005,216,7,794000000,base_footprint,-0.002724750263803109,0.002735553373508405,0.7042395990296182,0.7099518854417836,0.0,0.0,0.0,0.0,0.0,0.0,0.0,0.0,0.0,-0.00010193764910903486,-0.0001784608464288507,-0.04598044456968499,0.0,0.0,0.0,0.0,0.0,0.0,0.0,0.0,0.0,-0.003458339978651322,0.012105658559310995,-0.0002728880981799361,0.0,0.0,0.0,0.0,0.0,0.0,0.0,0.0,0.0
7.828,217,7,828000000,base_footprint,-0.002723161787395146,0.0027383228095021477,0.703678996867132,0.7105075336308108,0.0,0.0,0.0,0.0,0.0,0.0,0.0,0.0,0.0,-4.494943980381821e-05,-0.0002638203893759642,-0.04672749651415886,0.0,0.0,0.0,0.0,0.0,0.0,0.0,0.0,0.0,-0.005508507639889455,0.010385677156086407,-0.00025111038536296845,0.0,0.0,0.0,0.0,0.0,0.0,0.0,0.0,0.0
7.862,218,7,862000000,base_footprint,-0.0027231060102533805,0.0027422958594179115,0.7031121943063949,0.7110684261902808,0.0,0.0,0.0,0.0,0.0,0.0,0.0,0.0,0.0,-3.11867469470553e-05,-0.0003731016022117989,-0.04710366396813126,0.0,0.0,0.0,0.0,0.0,0.0,0.0,0.0,0.0,-0.005451169341023011,0.010643803701455413,-0.00031635334259046377,0.0,0.0,0.0,0.0,0.0,0.0,0.0,0.0,0.0
7.896,219,7,896000000,base_footprint,-0.002725146241560165,0.0027477797844892514,0.7025610057329905,0.7116129963032345,0.0,0.0,0.0,0.0,0.0,0.0,0.0,0.0,0.0,4.9594483564761285e-05,-0.0008658678549444878,-0.04019149553617648,0.0,0.0,0.0,0.0,0.0,0.0,0.0,0.0,0.0,-0.0017982909317835489,0.006050247102573198,-0.001238481362913583,0.0,0.0,0.0,0.0,0.0,0.0,0.0,0.0,0.0
7.93,220,7,930000000,base_footprint,-0.002727489016929052,0.002753334131845836,0.7020714690443849,0.7120959431907196,0.0,0.0,0.0,0.0,0.0,0.0,0.0,0.0,0.0,-1.2174963709885503e-05,-0.0003514010194593604,-0.0402896693450996,0.0,0.0,0.0,0.0,0.0,0.0,0.0,0.0,0.0,-0.00252081552516627,0.01416342924944548,0.0007638208057343862,0.0,0.0,0.0,0.0,0.0,0.0,0.0,0.0,0.0
7.964,221,7,964000000,base_footprint,-0.0027276197194437985,0.002756804012280879,0.701582453386338,0.7125777299514144,0.0,0.0,0.0,0.0,0.0,0.0,0.0,0.0,0.0,2.4106004947315536e-05,-0.0003316114034562626,-0.04041008394726514,0.0,0.0,0.0,0.0,0.0,0.0,0.0,0.0,0.0,0.004700543398545282,0.008706453798940958,-5.100216201750927e-05,0.0,0.0,0.0,0.0,0.0,0.0,0.0,0.0,0.0
7.998,222,7,998000000,base_footprint,-0.002710203587263667,0.0027472813441806773,0.7010749614707683,0.7130771386326253,0.0,0.0,0.0,0.0,0.0,0.0,0.0,0.0,0.0,-0.001400901156392114,-0.0029453676501626854,-0.04965917830679577,0.0,0.0,0.0,0.0,0.0,0.0,0.0,0.0,0.0,0.08281660650755748,0.005203929426936163,-0.0006887694567742699,0.0,0.0,0.0,0.0,0.0,0.0,0.0,0.0,0.0
8.032,223,8,32000000,base_footprint,-0.0027247229213489942,0.00276847604894835,0.7003589602243683,0.7137802450746378,0.0,0.0,0.0,0.0,0.0,0.0,0.0,0.0,0.0,0.0001403473000690075,-0.001925209782444801,-0.0630820236800944,0.0,0.0,0.0,0.0,0.0,0.0,0.0,0.0,0.0,0.10835963647685337,0.013041178331650013,-0.0018562196303203724,0.0,0.0,0.0,0.0,0.0,0.0,0.0,0.0,0.0
8.066,224,8,66000000,base_footprint,-0.002712188338421957,0.0027565511903929352,0.6995915822808624,0.7145324789410984,0.0,0.0,0.0,0.0,0.0,0.0,0.0,0.0,0.0,-0.0008927812174830171,-0.0002307120150994058,-0.061293309797597346,0.0,0.0,0.0,0.0,0.0,0.0,0.0,0.0,0.0,0.17419058757245498,-0.0071467092026810675,0.0033100120389538265,0.0,0.0,0.0,0.0,0.0,0.0,0.0,0.0,0.0
8.1,225,8,100000000,base_footprint,-0.002700353579906488,0.002748022140548458,0.6989617031165234,0.7151487216246057,0.0,0.0,0.0,0.0,0.0,0.0,0.0,0.0,0.0,0.0012153002291120554,0.00040782866120914847,-0.0652922749744355,0.0,0.0,0.0,0.0,0.0,0.0,0.0,0.0,0.0,-0.08830737554655957,0.0200612544478993,0.0017957568401156458,0.0,0.0,0.0,0.0,0.0,0.0,0.0,0.0,0.0
8.134,226,8,134000000,base_footprint,-0.002704574018785963,0.002766652137805734,0.6978749203034093,0.7162092058378164,0.0,0.0,0.0,0.0,0.0,0.0,0.0,0.0,0.0,0.0011486061494876357,-0.0031569898263336853,-0.11769970168971841,0.0,0.0,0.0,0.0,0.0,0.0,0.0,0.0,0.0,-0.25948882839455967,0.03425350936927858,-0.0067567839645074484,0.0,0.0,0.0,0.0,0.0,0.0,0.0,0.0,0.0
8.168,227,8,168000000,base_footprint,-0.0026998401221454585,0.002769895410009325,0.6964321428110192,0.71761222746159,0.0,0.0,0.0,0.0,0.0,0.0,0.0,0.0,0.0,-9.293015203350915e-05,-0.00035034434344614565,-0.1183925338429917,0.0,0.0,0.0,0.0,0.0,0.0,0.0,0.0,0.0,-0.0036065393343964816,0.027604500464937523,0.0048813984546449835,0.0,0.0,0.0,0.0,0.0,0.0,0.0,0.0,0.0
8.202,228,8,202000000,base_footprint,-0.002690756361764559,0.0027722260006537033,0.6950194887361968,0.7189805177263697,0.0,0.0,0.0,0.0,0.0,0.0,0.0,0.0,0.0,-0.00012128434174602276,-0.0004197942196687563,-0.11179024820672351,0.0,0.0,0.0,0.0,0.0,0.0,0.0,0.0,0.0,-0.0018541308604693753,0.025705989809806443,-0.0004052077428315349,0.0,0.0,0.0,0.0,0.0,0.0,0.0,0.0,0.0
8.236,229,8,236000000,base_footprint,-0.002685197581681656,0.002777273118224258,0.6936339921099353,0.720317264445056,0.0,0.0,0.0,0.0,0.0,0.0,0.0,0.0,0.0,-3.952687845621303e-05,-0.0005829235558882674,-0.1132547077976073,0.0,0.0,0.0,0.0,0.0,0.0,0.0,0.0,0.0,-0.004631093389962468,0.02597396755449649,-0.00043752175899039675,0.0,0.0,0.0,0.0,0.0,0.0,0.0,0.0,0.0
8.27,230,8,270000000,base_footprint,-0.0026798496072346217,0.002782073281908445,0.6922421276385087,0.7216549834906203,0.0,0.0,0.0,0.0,0.0,0.0,0.0,0.0,0.0,-3.934774502054191e-05,-0.0007048248096385975,-0.11380943535563262,0.0,0.0,0.0,0.0,0.0,0.0,0.0,0.0,0.0,-0.003843606495000351,0.02489109272045774,-0.00044617025045847294,0.0,0.0,0.0,0.0,0.0,0.0,0.0,0.0,0.0
8.304,231,8,304000000,base_footprint,-0.0026769459110232586,0.0027910981771913307,0.6908176186272439,0.7230187145058823,0.0,0.0,0.0,0.0,0.0,0.0,0.0,0.0,0.0,-0.00017296092663814935,-0.0022084939478229167,-0.12279277938487257,0.0,0.0,0.0,0.0,0.0,0.0,0.0,0.0,0.0,0.4697975888558356,-0.017349016618245422,-0.0015465937290499187,0.0,0.0,0.0,0.0,0.0,0.0,0.0,0.0,0.0
8.338,232,8,338000000,base_footprint,-0.0026717043535345146,0.002793774409171102,0.6894637221739612,0.72430990095844,0.0,0.0,0.0,0.0,0.0,0.0,0.0,0.0,0.0,8.368854994966708e-05,-0.0011846477262002263,-0.10778285381817135,0.0,0.0,0.0,0.0,0.0,0.0,0.0,0.0,0.0,0.20130860003796447,0.0032071203963271594,0.00029602567713368994,0.0,0.0,0.0,0.0,0.0,0.0,0.0,0.0,0.0
8.372,233,8,372000000,base_footprint,-0.0026707966838931175,0.0028006969927131453,0.6881379541937656,0.7255695548597995,0.0,0.0,0.0,0.0,0.0,0.0,0.0,0.0,0.0,2.260444627136108e-05,-0.0009150022845641358,-0.10766706099127595,0.0,0.0,0.0,0.0,0.0,0.0,0.0,0.0,0.0,0.0014828861374247878,0.021553245379728445,0.00038986871300078247,0.0,0.0,0.0,0.0,0.0,0.0,0.0,0.0,0.0
8.406,234,8,406000000,base_footprint,-0.0026681189785418865,0.0028039653749264964,0.6870958663231213,0.72655645988524,0.0,0.0,0.0,0.0,0.0,0.0,0.0,0.0,0.0,0.00017134002207143476,-0.00014840436326464797,-0.029202724432706342,0.0,0.0,0.0,0.0,0.0,0.0,0.0,0.0,0.0,-0.1702831355372446,0.03768490132963724,1.0698673996171115e-06,0.0,0.0,0.0,0.0,0.0,0.0,0.0,0.0,0.0
8.439,235,8,440000000,base_footprint,-0.0026655585667804097,0.0028058013887025594,0.6871637011043147,0.7264923056445364,0.0,0.0,0.0,0.0,0.0,0.0,0.0,0.0,0.0,-0.0005506596272745874,-0.0006749392526873884,-0.013074714145981898,0.0,0.0,0.0,0.0,0.0,0.0,0.0,0.0,0.0,-0.3165380338247583,0.03407709840621076,-0.0012599105103619104,0.0,0.0,0.0,0.0,0.0,0.0,0.0,0.0,0.0
8.474,236,8,474000000,base_footprint,-0.002659279108921051,0.002809917787491664,0.6864927939691464,0.7271263139407648,0.0,0.0,0.0,0.0,0.0,0.0,0.0,0.0,0.0,-0.00035602316454636104,0.00010578700012892946,-0.0839319560967634,0.0,0.0,0.0,0.0,0.0,0.0,0.0,0.0,0.0,-0.17648355288660636,0.031931797079048446,0.00195639052202282,0.0,0.0,0.0,0.0,0.0,0.0,0.0,0.0,0.0
8.508,237,8,508000000,base_footprint,-0.002664986927179677,0.0028088615011290442,0.6852029037481432,0.7283419449934614,0.0,0.0,0.0,0.0,0.0,0.0,0.0,0.0,0.0,0.0004922710485781769,-0.0053689437475732075,-0.13659595314076733,0.0,0.0,0.0,0.0,0.0,0.0,0.0,0.0,0.0,0.08194144754568328,-0.0007254532866849336,-0.009083726606602557,0.0,0.0,0.0,0.0,0.0,0.0,0.0,0.0,0.0
8.542,238,8,542000000,base_footprint,-0.0026525645141045355,0.002826015142195423,0.6834094894410042,0.7300249634648808,0.0,0.0,0.0,0.0,0.0,0.0,0.0,0.0,0.0,-1.74719903857143e-05,-0.0008568735445240743,-0.1360725214040024,0.0,0.0,0.0,0.0,0.0,0.0,0.0,0.0,0.0,0.14564654228004628,0.02337924339183281,0.0079052580481799,0.0,0.0,0.0,0.0,0.0,0.0,0.0,0.0,0.0
8.576,239,8,576000000,base_footprint,-0.002646303311040222,0.002829564486181891,0.6822172847365258,0.7311392254901434,0.0,0.0,0.0,0.0,0.0,0.0,0.0,0.0,0.0,0.0007592546430473907,-0.0010588897650312989,-0.06280657848643101,0.0,0.0,0.0,0.0,0.0,0.0,0.0,0.0,0.0,0.1703974849241066,-0.0005313659903284085,-0.0014910161947929636,0.0,0.0,0.0,0.0,0.0,0.0,0.0,0.0,0.0
8.61,240,8,610000000,base_footprint,-0.002646310745800592,0.00281897673232945,0.6811458134646631,0.7321375766952423,0.0,0.0,0.0,0.0,0.0,0.0,0.0,0.0,0.0,-0.00022322986076219167,0.00015562486976028898,-0.09388366359145411,0.0,0.0,0.0,0.0,0.0,0.0,0.0,0.0,0.0,-0.16279862970737324,0.040037655442723766,0.0023635995516325687,0.0,0.0,0.0,0.0,0.0,0.0,0.0,0.0,0.0
8.644,241,8,644000000,base_footprint,-0.0026374628267646504,0.0028202307935244336,0.6804552977157989,0.7327794196745786,0.0,0.0,0.0,0.0,0.0,0.0,0.0,0.0,0.0,-0.0014618937338054991,-0.0018410173877818408,-0.015595061862455694,0.0,0.0,0.0,0.0,0.0,0.0,0.0,0.0,0.0,-0.15740909878701181,0.03796554432722869,-0.004662703491886723,0.0,0.0,0.0,0.0,0.0,0.0,0.0,0.0,0.0
8.678,242,8,678000000,base_footprint,-0.0026369396782666694,0.0028275053716233477,0.680330484982507,0.732895274214518,0.0,0.0,0.0,0.0,0.0,0.0,0.0,0.0,0.0,-4.6350725403898315e-08,0.0003428602082436635,-0.009913224174434201,0.0,0.0,0.0,0.0,0.0,0.0,0.0,0.0,0.0,-0.02009351034649751,0.004379796242663509,0.003941439419623162,0.0,0.0,0.0,0.0,0.0,0.0,0.0,0.0,0.0
8.712,243,8,712000000,base_footprint,-0.0026334811529677925,0.0028256400634445547,0.6800132082118373,0.7331896870474198,0.0,0.0,0.0,0.0,0.0,0.0,0.0,0.0,0.0,-0.00025431816310568376,-0.0010724124612168707,-0.05026727921490831,0.0,0.0,0.0,0.0,0.0,0.0,0.0,0.0,0.0,0.32428755701079376,-0.04561914610743811,-0.0015882822320340353,0.0,0.0,0.0,0.0,0.0,0.0,0.0,0.0,0.0
8.746,244,8,746000000,base_footprint,-0.0026311158255446173,0.002827817318301084,0.679386327866744,0.733770603244957,0.0,0.0,0.0,0.0,0.0,0.0,0.0,0.0,0.0,-2.1854576783700463e-05,-0.00017572511857499534,-0.05043292839935161,0.0,0.0,0.0,0.0,0.0,0.0,0.0,0.0,0.0,-0.006377996326881739,0.013131712587820971,0.0012924025453423926,0.0,0.0,0.0,0.0,0.0,0.0,0.0,0.0,0.0
8.78,245,8,780000000,base_footprint,-0.002629237667480821,0.0028299922030676277,0.6787548349007861,0.7343547864297101,0.0,0.0,0.0,0.0,0.0,0.0,0.0,0.0,0.0,-1.3664373829312253e-05,-0.0002496846008768502,-0.050782500942653845,0.0,0.0,0.0,0.0,0.0,0.0,0.0,0.0,0.0,-0.0036119970770179697,0.011362821794622,-0.00023308942697355294,0.0,0.0,0.0,0.0,0.0,0.0,0.0,0.0,0.0
8.813,246,8,814000000,base_footprint,-0.00262664196930978,0.002835112028073316,0.6781266751101682,0.7349348783367012,0.0,0.0,0.0,0.0,0.0,0.0,0.0,0.0,0.0,-0.00011959748846877575,-0.0002704801854442314,-0.012089082825237438,0.0,0.0,0.0,0.0,0.0,0.0,0.0,0.0,0.0,0.633614956077943,-0.09279522050168065,-4.923694950933815e-06,0.0,0.0,0.0,0.0,0.0,0.0,0.0,0.0,0.0
8.848,247,8,848000000,base_footprint,-0.0026269469262557438,0.0028339000172964966,0.6778934776769155,0.7351499854340173,0.0,0.0,0.0,0.0,0.0,0.0,0.0,0.0,0.0,0.0005330377289789302,-0.002344705232051403,-0.06209104009367877,0.0,0.0,0.0,0.0,0.0,0.0,0.0,0.0,0.0,-0.3116216404213219,0.05425324962747974,-0.0031904581018244852,0.0,0.0,0.0,0.0,0.0,0.0,0.0,0.0,0.0
8.882,248,8,882000000,base_footprint,-0.002630909584237667,0.002840517820600267,0.6771284486106309,0.7358546553874826,0.0,0.0,0.0,0.0,0.0,0.0,0.0,0.0,0.0,2.7659881487930907e-05,-0.0005169560886534467,-0.06096973703897552,0.0,0.0,0.0,0.0,0.0,0.0,0.0,0.0,0.0,0.003040721544248894,0.013219098336651094,0.0026502219494675405,0.0,0.0,0.0,0.0,0.0,0.0,0.0,0.0,0.0
8.916,249,8,916000000,base_footprint,-0.0026303288042865782,0.002838696944176366,0.6770794509094568,0.7358997488287308,0.0,0.0,0.0,0.0,0.0,0.0,0.0,0.0,0.0,0.0008688501223872969,0.0005407507440415345,0.060205744937211945,0.0,0.0,0.0,0.0,0.0,0.0,0.0,0.0,0.0,-0.24715183029651888,0.045953183355405616,0.0008988183121362355,0.0,0.0,0.0,0.0,0.0,0.0,0.0,0.0,0.0
8.95,250,8,950000000,base_footprint,-0.0026291883590326736,0.0028397206434868033,0.6777603477475659,0.7352726938873347,0.0,0.0,0.0,0.0,0.0,0.0,0.0,0.0,0.0,-0.00012810158848089375,0.00015960387265255818,0.026962100788601458,0.0,0.0,0.0,0.0,0.0,0.0,0.0,0.0,0.0,-0.28240036429701454,0.03285447708212308,-0.0012642073920202219,0.0,0.0,0.0,0.0,0.0,0.0,0.0,0.0,0.0
8.984,251,8,984000000,base_footprint,-0.0026254487919377487,0.0028408807385183173,0.6777601185717966,0.7352729140181995,0.0,0.0,0.0,0.0,0.0,0.0,0.0,0.0,0.0,-0.0004707589581148569,0.0004255016614412467,-0.016811310742227137,0.0,0.0,0.0,0.0,0.0,0.0,0.0,0.0,0.0,-0.10644144306528924,0.015001922926048815,0.0013200162142908852,0.0,0.0,0.0,0.0,0.0,0.0,0.0,0.0,0.0
9.018,252,9,18000000,base_footprint,-0.0026256843919099816,0.002837301684389385,0.6771010896472488,0.7358798610501133,0.0,0.0,0.0,0.0,0.0,0.0,0.0,0.0,0.0,-0.0005855366299727578,-0.0012891145054081453,-0.07934146433969023,0.0,0.0,0.0,0.0,0.0,0.0,0.0,0.0,0.0,0.14445683285493094,-0.012329662332581148,-0.0019114735855205191,0.0,0.0,0.0,0.0,0.0,0.0,0.0,0.0,0.0
9.052,253,9,52000000,base_footprint,-0.0026236400510279687,0.0028543842579055985,0.6762514988607293,0.736660626945684,0.0,0.0,0.0,0.0,0.0,0.0,0.0,0.0,0.0,-0.0008402059301191034,0.0010166252685045057,-0.04032196736461249,0.0,0.0,0.0,0.0,0.0,0.0,0.0,0.0,0.0,0.189024204837068,-0.017007837726624273,0.0033377771614677616,0.0,0.0,0.0,0.0,0.0,0.0,0.0,0.0,0.0
9.086,254,9,86000000,base_footprint,-0.002625160047675271,0.002853309856591214,0.6758152721591486,0.7370608421792888,0.0,0.0,0.0,0.0,0.0,0.0,0.0,0.0,0.0,0.00016894754411937742,-5.183738574290536e-05,-0.03314937892084238,0.0,0.0,0.0,0.0,0.0,0.0,0.0,0.0,0.0,0.011545257591819125,0.004085611022987833,-0.002254679181350346,0.0,0.0,0.0,0.0,0.0,0.0,0.0,0.0,0.0
9.12,255,9,120000000,base_footprint,-0.00261978373068618,0.002839389423880505,0.6750095752780441,0.7377988532681917,0.0,0.0,0.0,0.0,0.0,0.0,0.0,0.0,0.0,-0.0001930198573379848,-0.00031571762352344715,-0.057170071018435735,0.0,0.0,0.0,0.0,0.0,0.0,0.0,0.0,0.0,-0.21803273731732625,0.053116503312684665,-5.912769956297072e-05,0.0,0.0,0.0,0.0,0.0,0.0,0.0,0.0,0.0
9.154,256,9,154000000,base_footprint,-0.002616700494841915,0.002848268911273568,0.6747298047052657,0.7380546936949345,0.0,0.0,0.0,0.0,0.0,0.0,0.0,0.0,0.0,0.00013825315814026582,0.00109727319291421,-0.006856210872643655,0.0,0.0,0.0,0.0,0.0,0.0,0.0,0.0,0.0,-0.10890293427008362,0.024007012292953656,0.0010592786216182648,0.0,0.0,0.0,0.0,0.0,0.0,0.0,0.0,0.0
9.188,257,9,188000000,base_footprint,-0.0026168923444111016,0.002849984602442206,0.6746459336300464,0.7381313526051219,0.0,0.0,0.0,0.0,0.0,0.0,0.0,0.0,0.0,-0.0017034896178682907,-0.007560153228095818,-0.0063253454909304235,0.0,0.0,0.0,0.0,0.0,0.0,0.0,0.0,0.0,0.027652857648871647,-0.001492835240651802,-0.010183827832433972,0.0,0.0,0.0,0.0,0.0,0.0,0.0,0.0,0.0
9.222,258,9,222000000,base_footprint,-0.002612363014331159,0.002841700971799242,0.6746788583925537,0.7381013062806411,0.0,0.0,0.0,0.0,0.0,0.0,0.0,0.0,0.0,0.003908340470300766,0.012317042945595998,0.004692447790963825,0.0,0.0,0.0,0.0,0.0,0.0,0.0,0.0,0.0,0.8078360835122091,-0.14765772099320146,0.025174248083255815,0.0,0.0,0.0,0.0,0.0,0.0,0.0,0.0,0.0
9.256,259,9,256000000,base_footprint,-0.002612491421921465,0.0028456179785739263,0.6744421875805625,0.7383175556347255,0.0,0.0,0.0,0.0,0.0,0.0,0.0,0.0,0.0,-4.904660102483547e-05,-0.0002468230418238916,-0.0021832876315852137,0.0,0.0,0.0,0.0,0.0,0.0,0.0,0.0,0.0,-0.5133992976363253,0.09866735579104213,-0.01648971100664054,0.0,0.0,0.0,0.0,0.0,0.0,0.0,0.0,0.0
9.29,260,9,290000000,base_footprint,-0.0026159720994199716,0.002850597284032187,0.6744193267485639,0.7383384064865605,0.0,0.0,0.0,0.0,0.0,0.0,0.0,0.0,0.0,-0.0013761708364354345,-0.003413443629090348,-0.004139468806688651,0.0,0.0,0.0,0.0,0.0,0.0,0.0,0.0,0.0,0.08074470946456766,-0.014709202331251621,-0.0031133732898726294,0.0,0.0,0.0,0.0,0.0,0.0,0.0,0.0,0.0
9.324,261,9,324000000,base_footprint,-0.002613862371330196,0.002845731470978787,0.6743561212695608,0.7383961614486985,0.0,0.0,0.0,0.0,0.0,0.0,0.0,0.0,0.0,4.815389992269631e-05,0.0004417525286047438,-0.0020950748315107025,0.0,0.0,0.0,0.0,0.0,0.0,0.0,0.0,0.0,0.24666057148597986,-0.0450445452964682,0.004406625409591278,0.0,0.0,0.0,0.0,0.0,0.0,0.0,0.0,0.0
9.358,262,9,358000000,base_footprint,-0.0026174324217147003,0.0028482185009144545,0.674328618288686,0.738421255961501,0.0,0.0,0.0,0.0,0.0,0.0,0.0,0.0,0.0,4.564369492823174e-05,-6.920998123524645e-05,-0.002288416570727513,0.0,0.0,0.0,0.0,0.0,0.0,0.0,0.0,0.0,-0.006637699583643634,0.0019612006803481083,-0.0011309345469825518,0.0,0.0,0.0,0.0,0.0,0.0,0.0,0.0,0.0
9.392,263,9,392000000,base_footprint,-0.002616692333532013,0.0028480779908567544,0.6742985769240887,0.7384486918744853,0.0,0.0,0.0,0.0,0.0,0.0,0.0,0.0,0.0,-0.0006621804885594833,0.0020309764502914676,-0.00375486937723343,0.0,0.0,0.0,0.0,0.0,0.0,0.0,0.0,0.0,-0.08862777765145431,0.01682827176164703,0.004523820455652267,0.0,0.0,0.0,0.0,0.0,0.0,0.0,0.0,0.0
9.426,264,9,426000000,base_footprint,-0.0026140236116358926,0.0028477677131706057,0.6742562583646253,0.7384873425833007,0.0,0.0,0.0,0.0,0.0,0.0,0.0,0.0,0.0,1.6739752772792526e-05,-2.7545376229107274e-05,9.106297841711072e-05,0.0,0.0,0.0,0.0,0.0,0.0,0.0,0.0,0.0,-0.496594966510719,0.09170051798667034,-0.004811994057206712,0.0,0.0,0.0,0.0,0.0,0.0,0.0,0.0,0.0
9.46,265,9,460000000,base_footprint,-0.0026239909596258194,0.0028574227837832766,0.6741101167255269,0.7386206741858604,0.0,0.0,0.0,0.0,0.0,0.0,0.0,0.0,0.0,8.774136132321707e-05,-7.058255175591976e-05,-0.011065677681135346,0.0,0.0,0.0,0.0,0.0,0.0,0.0,0.0,0.0,-0.08273159154362797,0.021116068109978806,-0.0004653694456959241,0.0,0.0,0.0,0.0,0.0,0.0,0.0,0.0,0.0
9.495,266,9,494000000,base_footprint,-0.002615903246172414,0.002847018400764466,0.6739431806509434,0.7387730644727935,0.0,0.0,0.0,0.0,0.0,0.0,0.0,0.0,0.0,0.002538173952782283,0.000992692765289988,-0.03085140819016666,0.0,0.0,0.0,0.0,0.0,0.0,0.0,0.0,0.0,0.03676118245701619,-0.013372788943700512,0.0008891122186382577,0.0,0.0,0.0,0.0,0.0,0.0,0.0,0.0,0.0
9.528,267,9,528000000,base_footprint,-0.0026104300604912105,0.0028510726834667546,0.6731939158599721,0.7394558869118358,0.0,0.0,0.0,0.0,0.0,0.0,0.0,0.0,0.0,-0.0008644406755020205,-0.0012380175521531714,-0.0663550668006821,0.0,0.0,0.0,0.0,0.0,0.0,0.0,0.0,0.0,0.1733313227722278,-0.020885890075146143,-0.0020801358382720216,0.0,0.0,0.0,0.0,0.0,0.0,0.0,0.0,0.0
9.562,268,9,562000000,base_footprint,-0.002610740716196312,0.002856984479248574,0.6726701965552166,0.7399323133496499,0.0,0.0,0.0,0.0,0.0,0.0,0.0,0.0,0.0,-0.00015006036218744218,-0.0006501445972978684,-0.01474024697127619,0.0,0.0,0.0,0.0,0.0,0.0,0.0,0.0,0.0,0.24664052232502282,-0.03272712210931389,0.0014392198931859955,0.0,0.0,0.0,0.0,0.0,0.0,0.0,0.0,0.0
9.595,269,9,596000000,base_footprint,-0.002599871239734853,0.002844086874221754,0.6725791947013319,0.7400151205849085,0.0,0.0,0.0,0.0,0.0,0.0,0.0,0.0,0.0,-0.0005325259279555883,-0.002778165646029926,-0.03988333733728053,0.0,0.0,0.0,0.0,0.0,0.0,0.0,0.0,0.0,0.16070446736108532,-0.0295288251612712,-0.0017340069070645031,0.0,0.0,0.0,0.0,0.0,0.0,0.0,0.0,0.0
9.63,270,9,630000000,base_footprint,-0.0025946024994766637,0.002849372781227813,0.6714128658656301,0.7410734866818033,0.0,0.0,0.0,0.0,0.0,0.0,0.0,0.0,0.0,-0.0007353682733454811,-0.00020948782437835517,-0.1428274732651436,0.0,0.0,0.0,0.0,0.0,0.0,0.0,0.0,0.0,-0.3842022464639976,0.09424615412717754,0.0036193609375727073,0.0,0.0,0.0,0.0,0.0,0.0,0.0,0.0,0.0
9.664,271,9,664000000,base_footprint,-0.0025978787293223274,0.002862790867351527,0.669915033553346,0.7424277091231016,0.0,0.0,0.0,0.0,0.0,0.0,0.0,0.0,0.0,-0.002178904933158291,-0.003157995269905657,-0.07908009843222275,0.0,0.0,0.0,0.0,0.0,0.0,0.0,0.0,0.0,-0.2093695742455336,0.07306369062828695,-0.0060250212824470364,0.0,0.0,0.0,0.0,0.0,0.0,0.0,0.0,0.0
9.698,272,9,698000000,base_footprint,-0.0025908310641208584,0.002867817014658936,0.6688605541954799,0.7433778462271278,0.0,0.0,0.0,0.0,0.0,0.0,0.0,0.0,0.0,0.00022211041057015857,0.0013021967786420157,-0.12036412888698012,0.0,0.0,0.0,0.0,0.0,0.0,0.0,0.0,0.0,0.20076838079764886,-0.02592607430811028,0.006765177163418857,0.0,0.0,0.0,0.0,0.0,0.0,0.0,0.0,0.0
9.732,273,9,732000000,base_footprint,-0.002583090112839725,0.002873156329884253,0.6667461474614256,0.7452748804726482,0.0,0.0,0.0,0.0,0.0,0.0,0.0,0.0,0.0,-0.00017338083325032626,-0.0012742156501072087,-0.17163381519920048,0.0,0.0,0.0,0.0,0.0,0.0,0.0,0.0,0.0,0.10660544178537806,0.011663448949215158,-0.002936696169590104,0.0,0.0,0.0,0.0,0.0,0.0,0.0,0.0,0.0
9.766,274,9,766000000,base_footprint,-0.0025750469787196866,0.0028800870722458316,0.6645659581485102,0.7472196206616005,0.0,0.0,0.0,0.0,0.0,0.0,0.0,0.0,0.0,-0.00010969275039311564,-0.0011593108624507057,-0.17208006772031764,0.0,0.0,0.0,0.0,0.0,0.0,0.0,0.0,0.0,0.0029476627342186167,0.03633857094138087,-0.0002196666256562224,0.0,0.0,0.0,0.0,0.0,0.0,0.0,0.0,0.0
9.8,275,9,800000000,base_footprint,-0.0025651259147596675,0.0028888294064188446,0.6623657729597221,0.7491706465186501,0.0,0.0,0.0,0.0,0.0,0.0,0.0,0.0,0.0,3.132166291110297e-05,0.00034926869680522774,-0.1619890591632594,0.0,0.0,0.0,0.0,0.0,0.0,0.0,0.0,0.0,0.30303931013030216,-0.03985679671979339,0.001183784521561488,0.0,0.0,0.0,0.0,0.0,0.0,0.0,0.0,0.0
9.834,276,9,834000000,base_footprint,-0.0025635881890213744,0.0028955453736002864,0.6604438922073101,0.7508654400614304,0.0,0.0,0.0,0.0,0.0,0.0,0.0,0.0,0.0,-5.564049735743576e-06,-0.0012373247502194583,-0.15017001398901592,0.0,0.0,0.0,0.0,0.0,0.0,0.0,0.0,0.0,0.03997290445800951,0.02246652672230765,-0.001930476639934029,0.0,0.0,0.0,0.0,0.0,0.0,0.0,0.0,0.0
9.868,277,9,868000000,base_footprint,-0.002559617421038552,0.002903853364168491,0.6585250360911942,0.7525488640848439,0.0,0.0,0.0,0.0,0.0,0.0,0.0,0.0,0.0,-3.0857912385756376e-07,-0.0012730677298437624,-0.15010106053285316,0.0,0.0,0.0,0.0,0.0,0.0,0.0,0.0,0.0,0.004256312505887556,0.030094171623158545,-0.0003514569016080872,0.0,0.0,0.0,0.0,0.0,0.0,0.0,0.0,0.0
9.902,278,9,902000000,base_footprint,-0.0025484633343334233,0.0029081717886884103,0.65668466455502,0.754155354824019,0.0,0.0,0.0,0.0,0.0,0.0,0.0,0.0,0.0,-1.990308112383805e-06,-0.003105702198309173,-0.11568695410738214,0.0,0.0,0.0,0.0,0.0,0.0,0.0,0.0,0.0,-0.1901817843127986,0.08191544239170194,-0.003254895857068807,0.0,0.0,0.0,0.0,0.0,0.0,0.0,0.0,0.0
9.936,279,9,936000000,base_footprint,-0.0025357773422649272,0.0029102261213963224,0.6554632488641093,0.7552172070376175,0.0,0.0,0.0,0.0,0.0,0.0,0.0,0.0,0.0,-0.0004770733321986642,-0.00013153209058210414,-0.13554228298587723,0.0,0.0,0.0,0.0,0.0,0.0,0.0,0.0,0.0,0.14607767950669379,-0.0221065784813214,0.0050691487125437105,0.0,0.0,0.0,0.0,0.0,0.0,0.0,0.0,0.0
9.97,280,9,970000000,base_footprint,-0.0025327322850165813,0.002929646112971438,0.6530577775812155,0.7572981853811013,0.0,0.0,0.0,0.0,0.0,0.0,0.0,0.0,0.0,0.00011072613378568978,-0.00276874757022427,-0.19768772537617674,0.0,0.0,0.0,0.0,0.0,0.0,0.0,0.0,0.0,0.2554495350002822,-0.041460829645558944,-0.005056232138790253,0.0,0.0,0.0,0.0,0.0,0.0,0.0,0.0,0.0
10.004,281,10,4000000,base_footprint,-0.0025228790324324317,0.002928107251609603,0.6503361267405587,0.7596367444544785,0.0,0.0,0.0,0.0,0.0,0.0,0.0,0.0,0.0,-0.0003143376593621604,-0.002483999153014562,-0.25254281909034315,0.0,0.0,0.0,0.0,0.0,0.0,0.0,0.0,0.0,0.14803608672907612,0.0003781438562605738,0.0032007231800302315,0.0,0.0,0.0,0.0,0.0,0.0,0.0,0.0,0.0
10.038,282,10,38000000,base_footprint,-0.0025102049547505723,0.0029513176006505915,0.6468273510117023,0.7626266233083455,0.0,0.0,0.0,0.0,0.0,0.0,0.0,0.0,0.0,1.423872534196029e-05,-0.0018992214920620766,-0.25310477959250033,0.0,0.0,0.0,0.0,0.0,0.0,0.0,0.0,0.0,0.22302412713608366,-0.026603300535474467,-6.176623015705546e-05,0.0,0.0,0.0,0.0,0.0,0.0,0.0,0.0,0.0
10.072,283,10,72000000,base_footprint,-0.002501043094032695,0.0029593720155429884,0.6441544370414226,0.7648856438321766,0.0,0.0,0.0,0.0,0.0,0.0,0.0,0.0,0.0,-0.00016508500867911972,-0.0009976544277764093,-0.15648541768894947,0.0,0.0,0.0,0.0,0.0,0.0,0.0,0.0,0.0,0.24329917461297978,-0.04509930943495491,1.820067837876875e-05,0.0,0.0,0.0,0.0,0.0,0.0,0.0,0.0,0.0
10.106,284,10,106000000,base_footprint,-0.0024963306164500192,0.0029609086314944977,0.6429708905965864,0.7658808231043273,0.0,0.0,0.0,0.0,0.0,0.0,0.0,0.0,0.0,0.002699349901715941,0.002412301716465591,-0.02368457970596558,0.0,0.0,0.0,0.0,0.0,0.0,0.0,0.0,0.0,0.3282648476279819,-0.09634827312554294,0.004898334621909334,0.0,0.0,0.0,0.0,0.0,0.0,0.0,0.0,0.0
10.14,285,10,140000000,base_footprint,-0.002495579085520976,0.0029589821256639014,0.6424455253124635,0.766321579701238,0.0,0.0,0.0,0.0,0.0,0.0,0.0,0.0,0.0,-0.0001502078689186212,-0.00028586061468001157,-0.07466945667668251,0.0,0.0,0.0,0.0,0.0,0.0,0.0,0.0,0.0,0.14551227314561196,-0.050846721193019695,-0.004045299398430141,0.0,0.0,0.0,0.0,0.0,0.0,0.0,0.0,0.0
10.174,286,10,174000000,base_footprint,-0.002486572254167219,0.002965660438446002,0.6409533428308012,0.7675700841816401,0.0,0.0,0.0,0.0,0.0,0.0,0.0,0.0,0.0,-0.0011860644815320735,-0.001293240233582525,-0.1298572526459133,0.0,0.0,0.0,0.0,0.0,0.0,0.0,0.0,0.0,0.11459702340167793,-0.021482713865415316,-0.0015752793635594043,0.0,0.0,0.0,0.0,0.0,0.0,0.0,0.0,0.0
10.208,287,10,208000000,base_footprint,-0.002477801942180503,0.0029662374341877075,0.6395675260995994,0.7687252054485123,0.0,0.0,0.0,0.0,0.0,0.0,0.0,0.0,0.0,0.0022266620827385065,0.0024487597637381057,-0.08920762790196143,0.0,0.0,0.0,0.0,0.0,0.0,0.0,0.0,0.0,0.33168544151252793,-0.10992468689577325,0.005670453720041966,0.0,0.0,0.0,0.0,0.0,0.0,0.0,0.0,0.0
10.242,288,10,242000000,base_footprint,-0.0024728681217910326,0.0029740236143813016,0.6384357265596429,0.76966542286831,0.0,0.0,0.0,0.0,0.0,0.0,0.0,0.0,0.0,-0.00018510411527655434,-0.000450120046551307,-0.08569542581521705,0.0,0.0,0.0,0.0,0.0,0.0,0.0,0.0,0.0,-0.010682834974489692,0.014563932018852688,-0.004057837585525708,0.0,0.0,0.0,0.0,0.0,0.0,0.0,0.0,0.0
10.276,289,10,276000000,base_footprint,-0.0024679919883637894,0.0029762161535454236,0.6373102629831324,0.7705976121487292,0.0,0.0,0.0,0.0,0.0,0.0,0.0,0.0,0.0,-5.6173623473317976e-05,-0.00039024282234462784,-0.08626108039639072,0.0,0.0,0.0,0.0,0.0,0.0,0.0,0.0,0.0,0.0014468690203129466,0.012392297792117122,9.883151118100574e-05,0.0,0.0,0.0,0.0,0.0,0.0,0.0,0.0,0.0
10.31,290,10,310000000,base_footprint,-0.0024646994411947334,0.0029751884657512164,0.6367449968030582,0.7710647719592248,0.0,0.0,0.0,0.0,0.0,0.0,0.0,0.0,0.0,0.00015272341029954432,0.00024570251772552433,-0.015199476810381876,0.0,0.0,0.0,0.0,0.0,0.0,0.0,0.0,0.0,0.018020537086975753,7.927456119664195e-05,0.00010987248363213828,0.0,0.0,0.0,0.0,0.0,0.0,0.0,0.0,0.0
10.344,291,10,344000000,base_footprint,-0.002464795869587972,0.0029753552948751367,0.6365468380644548,0.771228367600891,0.0,0.0,0.0,0.0,0.0,0.0,0.0,0.0,0.0,5.4392599844383864e-05,7.024508158727866e-05,-0.015323152593281972,0.0,0.0,0.0,0.0,0.0,0.0,0.0,0.0,0.0,-0.0036877193161024184,0.0038267083107293774,-0.00024344718924383923,0.0,0.0,0.0,0.0,0.0,0.0,0.0,0.0,0.0
10.378,292,10,378000000,base_footprint,-0.002464769285874846,0.002975156728119928,0.6363447991282036,0.7713950803429438,0.0,0.0,0.0,0.0,0.0,0.0,0.0,0.0,0.0,5.965978241725747e-05,4.370724353106282e-05,-0.01559529416340747,0.0,0.0,0.0,0.0,0.0,0.0,0.0,0.0,0.0,-0.002520776422348808,0.003357540477145792,-7.752672575885009e-05,0.0,0.0,0.0,0.0,0.0,0.0,0.0,0.0,0.0
10.412,293,10,412000000,base_footprint,-0.0024635805011141115,0.002976475846078592,0.6358662444936688,0.7717896024670002,0.0,0.0,0.0,0.0,0.0,0.0,0.0,0.0,0.0,0.00018433810506638976,-0.0008455521053495394,-0.061251904210403746,0.0,0.0,0.0,0.0,0.0,0.0,0.0,0.0,0.0,-0.3100603607854465,0.129970858946387,-0.0013810359956343134,0.0,0.0,0.0,0.0,0.0,0.0,0.0,0.0,0.0
10.446,294,10,446000000,base_footprint,-0.002457910284367006,0.0029797240676370158,0.634976642314186,0.7725216784252188,0.0,0.0,0.0,0.0,0.0,0.0,0.0,0.0,0.0,-0.00043954660356221824,-0.0008441452733452346,-0.04005908925331704,0.0,0.0,0.0,0.0,0.0,0.0,0.0,0.0,0.0,0.548457559832339,-0.21519488157786246,0.0007363451895490379,0.0,0.0,0.0,0.0,0.0,0.0,0.0,0.0,0.0
10.48,295,10,480000000,base_footprint,-0.0024643177657743794,0.0029803143941806564,0.6348109970968069,0.7726577785986621,0.0,0.0,0.0,0.0,0.0,0.0,0.0,0.0,0.0,6.394288563432893e-05,-0.00010743125647036263,-0.010994688006124161,0.0,0.0,0.0,0.0,0.0,0.0,0.0,0.0,0.0,0.07463213728683325,-0.026558421790233256,0.0006846786085504353,0.0,0.0,0.0,0.0,0.0,0.0,0.0,0.0,0.0
10.514,296,10,514000000,base_footprint,-0.0024659741203465458,0.0029822537541964117,0.6346187008780068,0.7728157151805949,0.0,0.0,0.0,0.0,0.0,0.0,0.0,0.0,0.0,0.0007224306175312124,0.0006938907754924465,0.001184478130568005,0.0,0.0,0.0,0.0,0.0,0.0,0.0,0.0,0.0,0.3347364934096426,-0.13603673221939744,0.0011488050019361005,0.0,0.0,0.0,0.0,0.0,0.0,0.0,0.0,0.0
10.548,297,10,548000000,base_footprint,-0.0024663697791719964,0.002982552105729182,0.6345462166130131,0.7728752295067814,0.0,0.0,0.0,0.0,0.0,0.0,0.0,0.0,0.0,0.00012568307103245295,-2.4517962627057177e-05,-0.006852631554219811,0.0,0.0,0.0,0.0,0.0,0.0,0.0,0.0,0.0,-0.0211792469658501,0.009820662710855087,-0.0006712020244085914,0.0,0.0,0.0,0.0,0.0,0.0,0.0,0.0,0.0
10.582,298,10,582000000,base_footprint,-0.0024675287786728576,0.0029836882108449977,0.6344613868076745,0.7729448606184464,0.0,0.0,0.0,0.0,0.0,0.0,0.0,0.0,0.0,0.00012121685180357296,-2.125164496426825e-05,-0.006002350156590947,0.0,0.0,0.0,0.0,0.0,0.0,0.0,0.0,0.0,-1.8954413538826835e-05,0.0009236817840531542,-3.708072734460432e-05,0.0,0.0,0.0,0.0,0.0,0.0,0.0,0.0,0.0
10.616,299,10,616000000,base_footprint,-0.0024686206625880816,0.0029848615406968216,0.6344274980139913,0.7729726685189549,0.0,0.0,0.0,0.0,0.0,0.0,0.0,0.0,0.0,0.00010490763465923026,7.049903557508944e-06,-0.0014220701288296038,0.0,0.0,0.0,0.0,0.0,0.0,0.0,0.0,0.0,0.0016395845905577185,-0.00028618798938633016,-3.242550976027875e-05,0.0,0.0,0.0,0.0,0.0,0.0,0.0,0.0,0.0
10.65,300,10,650000000,base_footprint,-0.0024694904436826323,0.0029861812416852093,0.6344191138949729,0.7729795419435485,0.0,0.0,0.0,0.0,0.0,0.0,0.0,0.0,0.0,9.071787969429917e-05,6.43287123294503e-05,0.0001331552243602079,0.0,0.0,0.0,0.0,0.0,0.0,0.0,0.0,0.0,0.0018144980620172003,-6.832107626987083e-05,6.133069999633554e-05,0.0,0.0,0.0,0.0,0.0,0.0,0.0,0.0,0.0
10.684,301,10,684000000,base_footprint,-0.0024688569467241172,0.0029869802224920623,0.6344308237500473,0.772969929926361,0.0,0.0,0.0,0.0,0.0,0.0,0.0,0.0,0.0,-7.991459593046068e-05,0.0003573772534987961,0.0014800490674298384,0.0,0.0,0.0,0.0,0.0,0.0,0.0,0.0,0.0,0.0010371566774841053,-0.0017224642193860054,0.00032789093452642956,0.0,0.0,0.0,0.0,0.0,0.0,0.0,0.0,0.0
10.718,302,10,718000000,base_footprint,-0.002454405187597956,0.0029885786365732815,0.6337909473716139,0.773494718354754,0.0,0.0,0.0,0.0,0.0,0.0,0.0,0.0,0.0,-0.0005912356253327335,2.603498037277477e-05,-0.06347053973721266,0.0,0.0,0.0,0.0,0.0,0.0,0.0,0.0,0.0,0.040251017246895934,-0.015580905267988294,0.00023477644124291367,0.0,0.0,0.0,0.0,0.0,0.0,0.0,0.0,0.0
10.752,303,10,752000000,base_footprint,-0.0024543828678319263,0.002996594390367034,0.633012216765867,0.7741321139521088,0.0,0.0,0.0,0.0,0.0,0.0,0.0,0.0,0.0,1.2850123067094019e-05,-0.0011332142154658008,-0.054995943272653405,0.0,0.0,0.0,0.0,0.0,0.0,0.0,0.0,0.0,0.02536556863384167,0.0010730928137734005,-0.0022477141340556056,0.0,0.0,0.0,0.0,0.0,0.0,0.0,0.0,0.0
10.786,304,10,786000000,base_footprint,-0.0024543345375492944,0.0030004751600616595,0.6321695904278879,0.7748203548752629,0.0,0.0,0.0,0.0,0.0,0.0,0.0,0.0,0.0,9.221513177366987e-05,-0.0011239037688809607,-0.0764388688393941,0.0,0.0,0.0,0.0,0.0,0.0,0.0,0.0,0.0,-0.0447239559976942,0.027339506011710056,0.00031865631522104627,0.0,0.0,0.0,0.0,0.0,0.0,0.0,0.0,0.0
10.82,305,10,820000000,base_footprint,-0.00245228323227227,0.0030010791728476206,0.6321378122937816,0.7748462854651746,0.0,0.0,0.0,0.0,0.0,0.0,0.0,0.0,0.0,-0.00030717909963255246,-0.0009611039674399366,0.029169523120479608,0.0,0.0,0.0,0.0,0.0,0.0,0.0,0.0,0.0,0.026369971185405648,-0.004007240263410405,-0.0018750265604003534,0.0,0.0,0.0,0.0,0.0,0.0,0.0,0.0,0.0
10.854,306,10,854000000,base_footprint,-0.0024553802303124875,0.0029995931154636747,0.6324485785753531,0.7745926471424073,0.0,0.0,0.0,0.0,0.0,0.0,0.0,0.0,0.0,0.00025057211677333586,0.00032352007545214767,0.023407198208577916,0.0,0.0,0.0,0.0,0.0,0.0,0.0,0.0,0.0,-0.012717152993876497,-0.00412351044760929,0.0033542270815250345,0.0,0.0,0.0,0.0,0.0,0.0,0.0,0.0,0.0
10.888,307,10,888000000,base_footprint,-0.0024568604854736747,0.0029930725421540615,0.6327449379663355,0.7743505981345212,0.0,0.0,0.0,0.0,0.0,0.0,0.0,0.0,0.0,0.0005081292327350763,0.0002793794151647651,0.021471564013945635,0.0,0.0,0.0,0.0,0.0,0.0,0.0,0.0,0.0,0.0008846468110797223,-0.005302957606204669,4.4936855082331836e-05,0.0,0.0,0.0,0.0,0.0,0.0,0.0,0.0,0.0
10.922,308,10,922000000,base_footprint,-0.0024588092473195144,0.00298554222593541,0.6329666324721633,0.7741694149031926,0.0,0.0,0.0,0.0,0.0,0.0,0.0,0.0,0.0,0.0003089581274040496,0.00016509136431515502,0.007234650773869473,0.0,0.0,0.0,0.0,0.0,0.0,0.0,0.0,0.0,0.02883830500582566,-0.015005714835245303,0.00011088477010823555,0.0,0.0,0.0,0.0,0.0,0.0,0.0,0.0,0.0
10.956,309,10,956000000,base_footprint,-0.0024572443482752874,0.002988488005586145,0.632844769881696,0.7742690282602274,0.0,0.0,0.0,0.0,0.0,0.0,0.0,0.0,0.0,0.00035191633570321286,0.0005584354239431094,-0.019797388870835424,0.0,0.0,0.0,0.0,0.0,0.0,0.0,0.0,0.0,0.05124598724246028,-0.01877734020855923,0.000789009160584586,0.0,0.0,0.0,0.0,0.0,0.0,0.0,0.0,0.0
10.99,310,10,990000000,base_footprint,-0.0024535198544559022,0.0029816763271568046,0.632562238516867,0.7744999059064722,0.0,0.0,0.0,0.0,0.0,0.0,0.0,0.0,0.0,-0.001345049915744642,0.00047734131229778865,-0.0132787257877399,0.0,0.0,0.0,0.0,0.0,0.0,0.0,0.0,0.0,0.005071068692663296,-0.0007033489777085737,-0.0024799754955728264,0.0,0.0,0.0,0.0,0.0,0.0,0.0,0.0,0.0
11.024,311,11,24000000,base_footprint,-0.0024530607490855175,0.0029828617619725812,0.6325560681157086,0.7745049423461837,0.0,0.0,0.0,0.0,0.0,0.0,0.0,0.0,0.0,-0.00010589606855943218,-0.0004912293282897217,0.012670398931221674,0.0,0.0,0.0,0.0,0.0,0.0,0.0,0.0,0.0,-0.04379597752554524,0.021257103062154795,0.0011699778560993804,0.0,0.0,0.0,0.0,0.0,0.0,0.0,0.0,0.0
11.058,312,11,58000000,base_footprint,-0.0024538936358510016,0.0029895208460253434,0.6329061951559711,0.7742188252066252,0.0,0.0,0.0,0.0,0.0,0.0,0.0,0.0,0.0,0.00037450514852309554,0.0007413878861024754,0.030696291363044102,0.0,0.0,0.0,0.0,0.0,0.0,0.0,0.0,0.0,-0.03948357481482672,0.011626313182398519,0.0010862807495297022,0.0,0.0,0.0,0.0,0.0,0.0,0.0,0.0,0.0
11.092,313,11,92000000,base_footprint,-0.00245476259713618,0.002986637246008358,0.6333215817434741,0.7738790785623402,0.0,0.0,0.0,0.0,0.0,0.0,0.0,0.0,0.0,-0.0003347361904547147,0.0007577299007424594,0.03745158829591181,0.0,0.0,0.0,0.0,0.0,0.0,0.0,0.0,0.0,-0.0022514431310118664,-0.00200041979586616,-0.00041979509526677606,0.0,0.0,0.0,0.0,0.0,0.0,0.0,0.0,0.0
11.126,314,11,126000000,base_footprint,-0.002456205637966503,0.0029842505185922923,0.6338149132030128,0.773475091456838,0.0,0.0,0.0,0.0,0.0,0.0,0.0,0.0,0.0,1.673455276894595e-05,0.0004993843002865288,0.0372219349128455,0.0,0.0,0.0,0.0,0.0,0.0,0.0,0.0,0.0,-0.0035155810398397737,-0.002965323575881063,-9.448703215138136e-05,0.0,0.0,0.0,0.0,0.0,0.0,0.0,0.0,0.0
11.16,315,11,160000000,base_footprint,-0.0024579160543269076,0.002982245807243047,0.6343036850726718,0.7730743172307846,0.0,0.0,0.0,0.0,0.0,0.0,0.0,0.0,0.0,-6.668946728961161e-06,0.00046951298267078323,0.03703847401274355,0.0,0.0,0.0,0.0,0.0,0.0,0.0,0.0,0.0,-0.004110292109574782,-0.0029945281654549794,-3.360456395269413e-05,0.0,0.0,0.0,0.0,0.0,0.0,0.0,0.0,0.0
11.194,316,11,194000000,base_footprint,-0.002459496253505813,0.0029794421206818466,0.6347642033752571,0.7726962403921763,0.0,0.0,0.0,0.0,0.0,0.0,0.0,0.0,0.0,0.00038918780078765487,0.000824233557081699,0.02481446714175464,0.0,0.0,0.0,0.0,0.0,0.0,0.0,0.0,0.0,-0.006568987447867261,-0.001633275054632585,0.0007051135443625854,0.0,0.0,0.0,0.0,0.0,0.0,0.0,0.0,0.0
11.228,317,11,228000000,base_footprint,-0.0024611016460114417,0.002978199346997184,0.635098420836174,0.7724215618163024,0.0,0.0,0.0,0.0,0.0,0.0,0.0,0.0,0.0,9.931239382886043e-05,0.00038418069772657164,0.025441423658843786,0.0,0.0,0.0,0.0,0.0,0.0,0.0,0.0,0.0,-0.004244796594740932,-0.001273057901932929,-0.0004986993756764023,0.0,0.0,0.0,0.0,0.0,0.0,0.0,0.0,0.0
11.262,318,11,262000000,base_footprint,-0.0024629069766659985,0.0029765859765361934,0.6354325428712853,0.772146720180356,0.0,0.0,0.0,0.0,0.0,0.0,0.0,0.0,0.0,0.00010180016637931509,0.00036466066154327453,0.025341845678042454,0.0,0.0,0.0,0.0,0.0,0.0,0.0,0.0,0.0,-0.0038984010920963636,-0.0015625015349274931,-2.4078758373079767e-05,0.0,0.0,0.0,0.0,0.0,0.0,0.0,0.0,0.0
11.296,319,11,296000000,base_footprint,-0.0024654255994605023,0.0029755452831968093,0.6357800512820908,0.7718606054195429,0.0,0.0,0.0,0.0,0.0,0.0,0.0,0.0,0.0,8.352484562103223e-05,0.00039204933480324345,0.03027986869492738,0.0,0.0,0.0,0.0,0.0,0.0,0.0,0.0,0.0,-0.002713524411242457,-0.00200618336999979,3.311180325142063e-05,0.0,0.0,0.0,0.0,0.0,0.0,0.0,0.0,0.0
11.33,320,11,330000000,base_footprint,-0.0024679235277067293,0.002974114642203334,0.6361747772077598,0.7715352985056573,0.0,0.0,0.0,0.0,0.0,0.0,0.0,0.0,0.0,0.00011441284572165681,0.0003436390451922552,0.029967788050533663,0.0,0.0,0.0,0.0,0.0,0.0,0.0,0.0,0.0,-0.003935232451399399,-0.0022295643170477915,-0.00010889186284951895,0.0,0.0,0.0,0.0,0.0,0.0,0.0,0.0,0.0
11.364,321,11,364000000,base_footprint,-0.0024711726000163836,0.0029732730189218387,0.6365681848190592,0.7712107358107145,0.0,0.0,0.0,0.0,0.0,0.0,0.0,0.0,0.0,0.00012003121950175293,0.0003089764467259493,0.029930029113198607,0.0,0.0,0.0,0.0,0.0,0.0,0.0,0.0,0.0,-0.0038201312177405704,-0.0021466953831363452,-5.182030170330045e-05,0.0,0.0,0.0,0.0,0.0,0.0,0.0,0.0,0.0
11.398,322,11,398000000,base_footprint,-0.002474123010697675,0.002972707893036632,0.6369610630675858,0.7708862729734663,0.0,0.0,0.0,0.0,0.0,0.0,0.0,0.0,0.0,0.00011967909803337522,0.0004132399988843067,0.029845422776544145,0.0,0.0,0.0,0.0,0.0,0.0,0.0,0.0,0.0,-0.003301075533212877,-0.0018362892824014842,0.0001354959366373988,0.0,0.0,0.0,0.0,0.0,0.0,0.0,0.0,0.0
11.432,323,11,432000000,base_footprint,-0.0024753909682412867,0.002971244136921969,0.63735159421939,0.7705634234077264,0.0,0.0,0.0,0.0,0.0,0.0,0.0,0.0,0.0,0.00020570811586908085,0.00029828323371761356,0.02994312462038453,0.0,0.0,0.0,0.0,0.0,0.0,0.0,0.0,0.0,-0.0035110746300697016,-0.001414914402091242,-0.00019388566430420244,0.0,0.0,0.0,0.0,0.0,0.0,0.0,0.0,0.0
11.466,324,11,466000000,base_footprint,-0.0024779701382833803,0.002970269466995448,0.6377478911181252,0.7702354604519784,0.0,0.0,0.0,0.0,0.0,0.0,0.0,0.0,0.0,0.00016919171062157524,0.0003100710787403384,0.030566552991927832,0.0,0.0,0.0,0.0,0.0,0.0,0.0,0.0,0.0,-0.0026753711139337875,-0.002639840596085711,1.3000012616836562e-05,0.0,0.0,0.0,0.0,0.0,0.0,0.0,0.0,0.0
11.5,325,11,500000000,base_footprint,-0.0024720231508687704,0.0029662566677189912,0.6380184507620046,0.7700113940132147,0.0,0.0,0.0,0.0,0.0,0.0,0.0,0.0,0.0,-0.0007420434672002431,-0.001412198871678276,-0.01971529994178617,0.0,0.0,0.0,0.0,0.0,0.0,0.0,0.0,0.0,0.2204626104799567,-0.09265098106062819,-0.000730630532883239,0.0,0.0,0.0,0.0,0.0,0.0,0.0,0.0,0.0
11.534,326,11,534000000,base_footprint,-0.002466458251954896,0.0029704612548784033,0.6368320535037075,0.7709928849048322,0.0,0.0,0.0,0.0,0.0,0.0,0.0,0.0,0.0,-0.000497902637380015,-0.0016189407460958454,-0.15854702988229222,0.0,0.0,0.0,0.0,0.0,0.0,0.0,0.0,0.0,0.5483762263220417,-0.20993408463468197,0.0015301661159948386,0.0,0.0,0.0,0.0,0.0,0.0,0.0,0.0,0.0
11.568,327,11,568000000,base_footprint,-0.002452900266250575,0.002979968091829615,0.6338439570424834,0.7734513179193515,0.0,0.0,0.0,0.0,0.0,0.0,0.0,0.0,0.0,-0.0005801737074996425,-0.002126295462631341,-0.2848172462658998,0.0,0.0,0.0,0.0,0.0,0.0,0.0,0.0,0.0,0.5115668759086982,-0.19340007751218538,0.0012702958714193339,0.0,0.0,0.0,0.0,0.0,0.0,0.0,0.0,0.0
11.602,328,11,602000000,base_footprint,-0.0024336939498267956,0.0029950144308630187,0.6293421360757472,0.7771187700615224,0.0,0.0,0.0,0.0,0.0,0.0,0.0,0.0,0.0,-0.0007457175834072241,-0.00280880074012947,-0.3951861269323805,0.0,0.0,0.0,0.0,0.0,0.0,0.0,0.0,0.0,0.4916232766874869,-0.19399821891973865,0.0008143022389520168,0.0,0.0,0.0,0.0,0.0,0.0,0.0,0.0,0.0
