Time,header.seq,header.stamp.secs,header.stamp.nsecs,header.frame_id,orientation.x,orientation.y,orientation.z,orientation.w,orientation_covariance_0,orientation_covariance_1,orientation_covariance_2,orientation_covariance_3,orientation_covariance_4,orientation_covariance_5,orientation_covariance_6,orientation_covariance_7,orientation_covariance_8,angular_velocity.x,angular_velocity.y,angular_velocity.z,angular_velocity_covariance_0,angular_velocity_covariance_1,angular_velocity_covariance_2,angular_velocity_covariance_3,angular_velocity_covariance_4,angular_velocity_covariance_5,angular_velocity_covariance_6,angular_velocity_covariance_7,angular_velocity_covariance_8,linear_acceleration.x,linear_acceleration.y,linear_acceleration.z,linear_acceleration_covariance_0,linear_acceleration_covariance_1,linear_acceleration_covariance_2,linear_acceleration_covariance_3,linear_acceleration_covariance_4,linear_acceleration_covariance_5,linear_acceleration_covariance_6,linear_acceleration_covariance_7,linear_acceleration_covariance_8
0.457,0,0,457000000,base_footprint,-9.485085583767153e-05,4.8637838706500885e-06,0.9238412561930486,0.3827758147209783,0.0,0.0,0.0,0.0,0.0,0.0,0.0,0.0,0.0,0.0651640325905139,0.0010389573416358586,1.8264068800607735e-05,0.0,0.0,0.0,0.0,0.0,0.0,0.0,0.0,0.0,6.099922976798191e-06,0.0002923033901630764,-0.037404908656666735,0.0,0.0,0.0,0.0,0.0,0.0,0.0,0.0,0.0
0.49100000000000005,1,0,491000000,base_footprint,-0.0011686351340631793,0.0004378288407284124,0.923839102168646,0.3827789909361012,0.0,0.0,0.0,0.0,0.0,0.0,0.0,0.0,0.0,0.06777296407808164,0.00059175728691091,-0.00012022299675609436,0.0,0.0,0.0,0.0,0.0,0.0,0.0,0.0,0.0,6.65194457217903e-05,-0.00028143412804305517,-0.009076234040880898,0.0,0.0,0.0,0.0,0.0,0.0,0.0,0.0,0.0
0.525,2,0,525000000,base_footprint,-0.0022387447429285255,0.0008695273768081943,0.9238357002534573,0.38278170134075273,0.0,0.0,0.0,0.0,0.0,0.0,0.0,0.0,0.0,0.0676966434134084,0.0005910782553166759,-2.0547937435428482e-05,0.0,0.0,0.0,0.0,0.0,0.0,0.0,0.0,0.0,1.0704639054240255e-05,0.00026488194105316336,0.00015042900781562585,0.0,0.0,0.0,0.0,0.0,0.0,0.0,0.0,0.0
0.559,3,0,559000000,base_footprint,-0.003307655505983455,0.0013007268058292392,0.9238309952147444,0.3827840903242522,0.0,0.0,0.0,0.0,0.0,0.0,0.0,0.0,0.0,0.06762053504647,0.0005908034664628969,7.696039231836369e-05,0.0,0.0,0.0,0.0,0.0,0.0,0.0,0.0,0.0,1.1644879974012954e-06,0.0002693611940696249,0.00014988862909116275,0.0,0.0,0.0,0.0,0.0,0.0,0.0,0.0,0.0
0.5930000000000001,4,0,593000000,base_footprint,-0.0035723555241078874,0.0014725618192846209,0.923827016718707,0.38279069087206335,0.0,0.0,0.0,0.0,0.0,0.0,0.0,0.0,0.0,0.010920561392300203,1.8917437817707675e-05,-0.0006422722975209355,0.0,0.0,0.0,0.0,0.0,0.0,0.0,0.0,0.0,-0.0020821038300865837,-0.0004636926663081516,0.11949968694708087,0.0,0.0,0.0,0.0,0.0,0.0,0.0,0.0,0.0
0.627,5,0,627000000,base_footprint,-0.0035696217490310093,0.0014713295767254057,0.9238262214167211,0.3827926404892717,0.0,0.0,0.0,0.0,0.0,0.0,0.0,0.0,0.0,-0.00039648851991450697,-3.47720047133054e-05,0.00016301079504009067,0.0,0.0,0.0,0.0,0.0,0.0,0.0,0.0,0.0,0.0016154046757915182,-9.928642017215518e-06,0.012704816064045749,0.0,0.0,0.0,0.0,0.0,0.0,0.0,0.0,0.0
0.66,6,0,661000000,base_footprint,-0.0035693840369836515,0.0014711740529932242,0.9238276923950477,0.3827890932465861,0.0,0.0,0.0,0.0,0.0,0.0,0.0,0.0,0.0,-0.00018159199435673607,-3.0393804974001097e-05,0.0002932463040803077,0.0,0.0,0.0,0.0,0.0,0.0,0.0,0.0,0.0,0.000251401817078105,3.8671738523379044e-05,-0.0002479513457769886,0.0,0.0,0.0,0.0,0.0,0.0,0.0,0.0,0.0
0.6950000000000001,7,0,695000000,base_footprint,-0.0035693447486375815,0.0014711136631000118,0.92382962215116,0.3827844365157767,0.0,0.0,0.0,0.0,0.0,0.0,0.0,0.0,0.0,-0.00017966621190455611,-3.077245847441912e-05,0.0003261211530623316,0.0,0.0,0.0,0.0,0.0,0.0,0.0,0.0,0.0,6.369367440869988e-05,8.215191594816237e-06,-5.1866724281134645e-06,0.0,0.0,0.0,0.0,0.0,0.0,0.0,0.0,0.0
0.7290000000000001,8,0,729000000,base_footprint,-0.0035693431684302762,0.0014710783994999394,0.9238316634436792,0.382779510079332,0.0,0.0,0.0,0.0,0.0,0.0,0.0,0.0,0.0,-0.00017832921879443542,-3.093029301106793e-05,0.0003341768560529055,0.0,0.0,0.0,0.0,0.0,0.0,0.0,0.0,0.0,1.560060485391043e-05,1.9871884435748862e-06,-2.0813012956511786e-06,0.0,0.0,0.0,0.0,0.0,0.0,0.0,0.0,0.0
0.763,9,0,763000000,base_footprint,-0.003569351088480654,0.0014710501228805512,0.9238337322149099,0.3827745171327545,0.0,0.0,0.0,0.0,0.0,0.0,0.0,0.0,0.0,-0.0001780121159095731,-3.100442398132755e-05,0.00033617091741885367,0.0,0.0,0.0,0.0,0.0,0.0,0.0,0.0,0.0,3.861809169401491e-06,4.966515237839752e-07,-4.806133815547132e-07,0.0,0.0,0.0,0.0,0.0,0.0,0.0,0.0,0.0
0.796,10,0,797000000,base_footprint,-0.0035693611258852077,0.0014710240414009792,0.9238358077819351,0.3827695076796504,0.0,0.0,0.0,0.0,0.0,0.0,0.0,0.0,0.0,-0.00017793494708890148,-3.105770981617466e-05,0.0003366720381379496,0.0,0.0,0.0,0.0,0.0,0.0,0.0,0.0,0.0,9.715032786977355e-07,1.4215353095782738e-07,-1.2088071492266857e-07,0.0,0.0,0.0,0.0,0.0,0.0,0.0,0.0,0.0
0.8310000000000001,11,0,831000000,base_footprint,-0.0035693715097260465,0.001470998932070774,0.9238378850578757,0.3827644940181348,0.0,0.0,0.0,0.0,0.0,0.0,0.0,0.0,0.0,-0.00017791693725758824,-3.1103156189030815e-05,0.0003368059216577181,0.0,0.0,0.0,0.0,0.0,0.0,0.0,0.0,0.0,2.6048859111613817e-07,5.4878475303057284e-08,-3.2953751082848116e-08,0.0,0.0,0.0,0.0,0.0,0.0,0.0,0.0,0.0
0.8650000000000001,12,0,865000000,base_footprint,-0.0035693818203678296,0.0014709744537769174,0.9238399627914446,0.3827594791733822,0.0,0.0,0.0,0.0,0.0,0.0,0.0,0.0,0.0,-0.00017791349081157446,-3.1144230974882495e-05,0.0003368494698492634,0.0,0.0,0.0,0.0,0.0,0.0,0.0,0.0,0.0,8.554154525007552e-08,3.335569528647423e-08,-1.1951812827176523e-08,0.0,0.0,0.0,0.0,0.0,0.0,0.0,0.0,0.0
0.899,13,0,899000000,base_footprint,-0.0035693919693176187,0.0014709504861781994,0.9238420406748526,0.382754463889529,0.0,0.0,0.0,0.0,0.0,0.0,0.0,0.0,0.0,-0.00017791363709944203,-3.1182013713983014e-05,0.00033687079712032804,0.0,0.0,0.0,0.0,0.0,0.0,0.0,0.0,0.0,4.246445801209488e-08,2.8014865117761472e-08,-7.3537935757462335e-09,0.0,0.0,0.0,0.0,0.0,0.0,0.0,0.0,0.0
0.933,14,0,933000000,base_footprint,-0.0035694019481637865,0.0014709269666189641,0.9238441186323925,0.382749448349608,0.0,0.0,0.0,0.0,0.0,0.0,0.0,0.0,0.0,-0.000177914676663807,-3.121697569578039e-05,0.0003368866584370207,0.0,0.0,0.0,0.0,0.0,0.0,0.0,0.0,0.0,3.1829009251310764e-08,2.6659698144991736e-08,-6.738353166945873e-09,0.0,0.0,0.0,0.0,0.0,0.0,0.0,0.0,0.0
0.9670000000000001,15,0,967000000,base_footprint,-0.0035694117669529605,0.0014709038497017263,0.9238461966454453,0.3827444325986311,0.0,0.0,0.0,0.0,0.0,0.0,0.0,0.0,0.0,-0.00017791594480581015,-3.1249419726704224e-05,0.00033690117539958523,0.0,0.0,0.0,0.0,0.0,0.0,0.0,0.0,0.0,2.917758032127187e-08,2.6289187786735896e-08,-7.054533765367912e-09,0.0,0.0,0.0,0.0,0.0,0.0,0.0,0.0,0.0
1.001,16,1,1000000,base_footprint,-0.0035694214391470604,0.0014708810970579659,0.923848274709434,0.38273941664765915,0.0,0.0,0.0,0.0,0.0,0.0,0.0,0.0,0.0,-0.00017791727717061487,-3.127958954532219e-05,0.0003369153617568787,0.0,0.0,0.0,0.0,0.0,0.0,0.0,0.0,0.0,2.8493185343682942e-08,2.6164554208530002e-08,-7.556596237236516e-09,0.0,0.0,0.0,0.0,0.0,0.0,0.0,0.0,0.0
1.035,17,1,35000000,base_footprint,-0.003569430978027874,0.0014708586745733009,0.9238503528232348,0.38273440049940277,0.0,0.0,0.0,0.0,0.0,0.0,0.0,0.0,0.0,-0.00017791863256486984,-3.1307698768601335e-05,0.0003369294669001452,0.0,0.0,0.0,0.0,0.0,0.0,0.0,0.0,0.0,2.8295683597437404e-08,2.6103718799276127e-08,-8.065296118852098e-09,0.0,0.0,0.0,0.0,0.0,0.0,0.0,0.0,0.0
1.069,18,1,69000000,base_footprint,-0.0035694403959067233,0.001470836551470805,0.9238524309865735,0.382729384154519,0.0,0.0,0.0,0.0,0.0,0.0,0.0,0.0,0.0,-0.00017792000026292302,-3.1333939500886965e-05,0.00033694355225025727,0.0,0.0,0.0,0.0,0.0,0.0,0.0,0.0,0.0,2.822080591091293e-08,2.6061583592774946e-08,-8.539942015547272e-09,0.0,0.0,0.0,0.0,0.0,0.0,0.0,0.0,0.0
1.103,19,1,103000000,base_footprint,-0.003569449704016922,0.0014708146998727118,0.9238545091993846,0.3827243676131599,0.0,0.0,0.0,0.0,0.0,0.0,0.0,0.0,0.0,-0.00017792137703706134,-3.135848535561909e-05,0.00033695763293184645,0.0,0.0,0.0,0.0,0.0,0.0,0.0,0.0,0.0,2.8178575197107357e-08,2.6026747046575358e-08,-8.973714263510219e-09,0.0,0.0,0.0,0.0,0.0,0.0,0.0,0.0,0.0
1.137,20,1,137000000,base_footprint,-0.003569458912564145,0.0014707930944995607,0.923856587461654,0.3827193508753539,0.0,0.0,0.0,0.0,0.0,0.0,0.0,0.0,0.0,-0.00017792276154511696,-3.138149374529386e-05,0.00033697171261878455,0.0,0.0,0.0,0.0,0.0,0.0,0.0,0.0,0.0,2.8146511953182428e-08,2.5996138839437323e-08,-9.368095268812193e-09,0.0,0.0,0.0,0.0,0.0,0.0,0.0,0.0,0.0
1.171,21,1,171000000,base_footprint,-0.0035694680308109845,0.0014707717124214617,0.9238586657733792,0.3827143339410986,0.0,0.0,0.0,0.0,0.0,0.0,0.0,0.0,0.0,-0.0001779241529640184,-3.140310760658047e-05,0.0003369857923242536,0.0,0.0,0.0,0.0,0.0,0.0,0.0,0.0,0.0,2.8119183790256028e-08,2.596880274341217e-08,-9.726202898520975e-09,0.0,0.0,0.0,0.0,0.0,0.0,0.0,0.0,0.0
1.205,22,1,205000000,base_footprint,-0.003569477067160609,0.0014707505328378113,0.9238607441345614,0.3827093168103848,0.0,0.0,0.0,0.0,0.0,0.0,0.0,0.0,0.0,-0.00017792555064325723,-3.1423456324805485e-05,0.00033699987229723785,0.0,0.0,0.0,0.0,0.0,0.0,0.0,0.0,0.0,2.8094849042117048e-08,2.594427523597633e-08,-1.005136263844957e-08,0.0,0.0,0.0,0.0,0.0,0.0,0.0,0.0,0.0
1.239,23,1,239000000,base_footprint,-0.0035694860292362894,0.001470729536879201,0.9238628225452024,0.3827042994832018,0.0,0.0,0.0,0.0,0.0,0.0,0.0,0.0,0.0,-0.00017792695399539575,-3.1442657414803675e-05,0.00033701395258002896,0.0,0.0,0.0,0.0,0.0,0.0,0.0,0.0,0.0,2.807287337128803e-08,2.5922236721891083e-08,-1.0346283012129935e-08,0.0,0.0,0.0,0.0,0.0,0.0,0.0,0.0,0.0
1.2730000000000001,24,1,273000000,base_footprint,-0.0035694949239536283,0.001470708707428186,0.9238649010053036,0.3826992819595387,0.0,0.0,0.0,0.0,0.0,0.0,0.0,0.0,0.0,-0.00017792836249195284,-3.146081754394039e-05,0.00033702803318196115,0.0,0.0,0.0,0.0,0.0,0.0,0.0,0.0,0.0,2.805298381051938e-08,2.5902442280956505e-08,-1.0614068502567668e-08,0.0,0.0,0.0,0.0,0.0,0.0,0.0,0.0,0.0
1.307,25,1,307000000,base_footprint,-0.003569503757585919,0.0014706880289563906,0.9238669795148664,0.38269426423938446,0.0,0.0,0.0,0.0,0.0,0.0,0.0,0.0,0.0,-0.00017792977572273015,-3.1478033368101846e-05,0.0003370421142299434,0.0,0.0,0.0,0.0,0.0,0.0,0.0,0.0,0.0,2.8035213046347907e-08,2.5884715884644474e-08,-1.0856894320573258e-08,0.0,0.0,0.0,0.0,0.0,0.0,0.0,0.0,0.0
1.341,26,1,341000000,base_footprint,-0.003569512535824166,0.0014706674873770406,0.9238690580738922,0.38268924632272816,0.0,0.0,0.0,0.0,0.0,0.0,0.0,0.0,0.0,-0.00017793119324848778,-3.149439264439403e-05,0.00033705619566995563,0.0,0.0,0.0,0.0,0.0,0.0,0.0,0.0,0.0,2.801903714793974e-08,2.5868804667408138e-08,-1.1077386682718423e-08,0.0,0.0,0.0,0.0,0.0,0.0,0.0,0.0,0.0
1.375,27,1,375000000,base_footprint,-0.0035695212638310347,0.0014706470699112717,0.9238711366823821,0.38268422820955944,0.0,0.0,0.0,0.0,0.0,0.0,0.0,0.0,0.0,-0.00017793261454606383,-3.1509974905506224e-05,0.00033707027752326465,0.0,0.0,0.0,0.0,0.0,0.0,0.0,0.0,0.0,2.8004442252701076e-08,2.5854566304540445e-08,-1.1277680468137717e-08,0.0,0.0,0.0,0.0,0.0,0.0,0.0,0.0,0.0
1.409,28,1,409000000,base_footprint,-0.003565147841143021,0.0014688144547380913,0.9238302364487949,0.38278300187956626,0.0,0.0,0.0,0.0,0.0,0.0,0.0,0.0,0.0,-0.0001750435200944531,-0.00012295804797153278,-0.014494890942009106,0.0,0.0,0.0,0.0,0.0,0.0,0.0,0.0,0.0,-0.0001651788130977716,-0.6370116838794558,0.0035372600479252427,0.0,0.0,0.0,0.0,0.0,0.0,0.0,0.0,0.0
1.443,29,1,443000000,base_footprint,-0.0035650683344310226,0.0014703952556856207,0.9236769313198657,0.3831527825464395,0.0,0.0,0.0,0.0,0.0,0.0,0.0,0.0,0.0,6.733615368324927e-05,-0.00021544741411774125,-0.03187973414544546,0.0,0.0,0.0,0.0,0.0,0.0,0.0,0.0,0.0,-0.0018770261863212956,-0.7490582541419752,0.003892298128160422,0.0,0.0,0.0,0.0,0.0,0.0,0.0,0.0,0.0
1.477,30,1,477000000,base_footprint,-0.0035648269448009806,0.0014731232501688546,0.9234099390765615,0.38379578727672947,0.0,0.0,0.0,0.0,0.0,0.0,0.0,0.0,0.0,0.0001888135470368349,-0.0003092191692984609,-0.04928002746870133,0.0,0.0,0.0,0.0,0.0,0.0,0.0,0.0,0.0,-0.005450848807300679,-0.7484453746186606,0.004014373771721693,0.0,0.0,0.0,0.0,0.0,0.0,0.0,0.0,0.0
1.5110000000000001,31,1,511000000,base_footprint,-0.003564472363098548,0.0014770242606185293,0.9230290135330302,0.3847109994688838,0.0,0.0,0.0,0.0,0.0,0.0,0.0,0.0,0.0,0.00030713029346110163,-0.0004040129122427685,-0.06655328976185071,0.0,0.0,0.0,0.0,0.0,0.0,0.0,0.0,0.0,-0.010683395689282393,-0.737398749054177,0.003937853851991901,0.0,0.0,0.0,0.0,0.0,0.0,0.0,0.0,0.0
1.545,32,1,545000000,base_footprint,-0.003564132070098257,0.0014821476908887204,0.9225351957738823,0.3858936547278977,0.0,0.0,0.0,0.0,0.0,0.0,0.0,0.0,0.0,0.00041839566330808154,-0.0004977133232491032,-0.08335364700475123,0.0,0.0,0.0,0.0,0.0,0.0,0.0,0.0,0.0,-0.017237595600860467,-0.7055871424752428,0.0037477794285918284,0.0,0.0,0.0,0.0,0.0,0.0,0.0,0.0,0.0
1.5790000000000002,33,1,579000000,base_footprint,-0.003563815114913876,0.0014884732371939946,0.9219323325341663,0.3873317155841495,0.0,0.0,0.0,0.0,0.0,0.0,0.0,0.0,0.0,0.0005157222301035348,-0.0005886054769409146,-0.099127229648749,0.0,0.0,0.0,0.0,0.0,0.0,0.0,0.0,0.0,-0.02429736033731905,-0.6388853495282009,0.0033709918677566897,0.0,0.0,0.0,0.0,0.0,0.0,0.0,0.0,0.0
1.613,34,1,613000000,base_footprint,-0.0035631696435213522,0.0014959028143244884,0.9212285958225095,0.3890024939968242,0.0,0.0,0.0,0.0,0.0,0.0,0.0,0.0,0.0,0.0005548769438394643,-0.0006818217586008094,-0.11359197799209106,0.0,0.0,0.0,0.0,0.0,0.0,0.0,0.0,0.0,-0.0299253622824881,-0.5331530552476998,0.002842645801165667,0.0,0.0,0.0,0.0,0.0,0.0,0.0,0.0,0.0
1.647,35,1,647000000,base_footprint,-0.003562094623328732,0.001504359745862879,0.9204276600067489,0.3908938104884117,0.0,0.0,0.0,0.0,0.0,0.0,0.0,0.0,0.0,0.0006089717396663594,-0.0007749138971595115,-0.12757794780395193,0.0,0.0,0.0,0.0,0.0,0.0,0.0,0.0,0.0,-0.0333806312084642,-0.38841232758448957,0.0020188070909546033,0.0,0.0,0.0,0.0,0.0,0.0,0.0,0.0,0.0
1.681,36,1,681000000,base_footprint,-0.0035581634309838272,0.0015167107005750124,0.9195304701256144,0.39299968647852096,0.0,0.0,0.0,0.0,0.0,0.0,0.0,0.0,0.0,0.001604252928017357,-0.007379120925239627,-0.13872755208239218,0.0,0.0,0.0,0.0,0.0,0.0,0.0,0.0,0.0,-0.029867993288995337,-0.20856489473159026,0.012239602664290769,0.0,0.0,0.0,0.0,0.0,0.0,0.0,0.0,0.0
1.714,37,1,715000000,base_footprint,-0.0035574779299808643,0.0015157505683821937,0.9188643492533689,0.39455462805823865,0.0,0.0,0.0,0.0,0.0,0.0,0.0,0.0,0.0,0.0006937368455395713,0.001080517924501412,-0.08039277679026255,0.0,0.0,0.0,0.0,0.0,0.0,0.0,0.0,0.0,-0.016868103952530904,0.08537855449677606,-0.013522134484200787,0.0,0.0,0.0,0.0,0.0,0.0,0.0,0.0,0.0
1.749,38,1,749000000,base_footprint,-0.0035535865723984148,0.001511430826945078,0.9183538825039759,0.3957413727287074,0.0,0.0,0.0,0.0,0.0,0.0,0.0,0.0,0.0,-0.0007209219896599041,-0.0024318493123109365,-0.057038025347974294,0.0,0.0,0.0,0.0,0.0,0.0,0.0,0.0,0.0,-0.0028352598854425384,0.0689732209345524,0.004300476118193986,0.0,0.0,0.0,0.0,0.0,0.0,0.0,0.0,0.0
1.7810000000000001,39,1,783000000,base_footprint,-0.0035541651117708146,0.0015120669108425568,0.918214800474491,0.3960639616950856,0.0,0.0,0.0,0.0,0.0,0.0,0.0,0.0,0.0,-0.0005765447732501361,-0.000984261974163553,-0.006223261248935795,0.0,0.0,0.0,0.0,0.0,0.0,0.0,0.0,0.0,-0.010717514370444286,-0.033847393510696974,0.0011334166924787858,0.0,0.0,0.0,0.0,0.0,0.0,0.0,0.0,0.0
1.8170000000000002,40,1,817000000,base_footprint,-0.0035412441934941303,0.0015176542513689489,0.9181875361312373,0.3961272583506254,0.0,0.0,0.0,0.0,0.0,0.0,0.0,0.0,0.0,5.156535238191508e-05,-7.858978875172544e-05,-0.002501032248100998,0.0,0.0,0.0,0.0,0.0,0.0,0.0,0.0,0.0,-0.01750106522999831,-0.2662657094930924,-0.002675246473515143,0.0,0.0,0.0,0.0,0.0,0.0,0.0,0.0,0.0
1.851,41,1,851000000,base_footprint,-0.003541501992194331,0.00151786951014113,0.918179381600814,0.3961461561582244,0.0,0.0,0.0,0.0,0.0,0.0,0.0,0.0,0.0,-0.00019919507611762703,-3.731523013982388e-05,-0.0002121819267275909,0.0,0.0,0.0,0.0,0.0,0.0,0.0,0.0,0.0,-0.02480346315316659,-0.41562939807896293,0.0023599838509627885,0.0,0.0,0.0,0.0,0.0,0.0,0.0,0.0,0.0
1.885,42,1,885000000,base_footprint,-0.0035667572367175148,0.0015277620403579895,0.9182222230958921,0.39604657958225126,0.0,0.0,0.0,0.0,0.0,0.0,0.0,0.0,0.0,0.004265655997478719,-0.0020066501361072162,0.022902307236211297,0.0,0.0,0.0,0.0,0.0,0.0,0.0,0.0,0.0,-0.015297529043084387,-0.28037732881984945,0.0031420359717645816,0.0,0.0,0.0,0.0,0.0,0.0,0.0,0.0,0.0
1.919,43,1,919000000,base_footprint,-0.0035448716378109163,0.0015137177282816571,0.9184811949971351,0.3954458711130329,0.0,0.0,0.0,0.0,0.0,0.0,0.0,0.0,0.0,0.0010298194667214572,0.0014047859626696245,0.053012958160219614,0.0,0.0,0.0,0.0,0.0,0.0,0.0,0.0,0.0,0.016386323370786472,0.18459012882833317,-0.005090805824105085,0.0,0.0,0.0,0.0,0.0,0.0,0.0,0.0,0.0
1.953,44,1,953000000,base_footprint,-0.0035522811614573896,0.0015130868220060028,0.9190463636349452,0.3941305283230456,0.0,0.0,0.0,0.0,0.0,0.0,0.0,0.0,0.0,-0.0007440687504682163,0.00043287725363608915,0.08815251866928438,0.0,0.0,0.0,0.0,0.0,0.0,0.0,0.0,0.0,0.013597045639961468,-0.09616603180407428,0.0032923819150818285,0.0,0.0,0.0,0.0,0.0,0.0,0.0,0.0,0.0
1.987,45,1,987000000,base_footprint,-0.0035633897543337215,0.0015115215873676864,0.9196359789508988,0.3927527005317362,0.0,0.0,0.0,0.0,0.0,0.0,0.0,0.0,0.0,-0.0015297774954330747,0.00048199554699715296,0.0891505583113623,0.0,0.0,0.0,0.0,0.0,0.0,0.0,0.0,0.0,0.028605920279722745,0.19448617796791112,0.0009256530831615246,0.0,0.0,0.0,0.0,0.0,0.0,0.0,0.0,0.0
2.021,46,2,21000000,base_footprint,-0.003552748083771402,0.0015046459676947357,0.9199976664775521,0.39190484520789487,0.0,0.0,0.0,0.0,0.0,0.0,0.0,0.0,0.0,0.000780289307381709,0.00027841756156551267,0.05430861279584985,0.0,0.0,0.0,0.0,0.0,0.0,0.0,0.0,0.0,0.0170034505833802,0.1936122724554519,-0.0043988303735666145,0.0,0.0,0.0,0.0,0.0,0.0,0.0,0.0,0.0
2.055,47,2,55000000,base_footprint,-0.0035611325327055765,0.0015021874843386736,0.9205188167861501,0.39067911348122103,0.0,0.0,0.0,0.0,0.0,0.0,0.0,0.0,0.0,-0.00046071196438677306,0.0003834874637993965,0.07985502265217902,0.0,0.0,0.0,0.0,0.0,0.0,0.0,0.0,0.0,0.012543897908669735,-0.06685017980193886,0.001508374958545318,0.0,0.0,0.0,0.0,0.0,0.0,0.0,0.0,0.0
2.089,48,2,89000000,base_footprint,-0.003560144395249908,0.0014959491899832515,0.9210378363032702,0.38945396596478077,0.0,0.0,0.0,0.0,0.0,0.0,0.0,0.0,0.0,-0.001437394790107138,0.000416628636803768,0.06989017129535752,0.0,0.0,0.0,0.0,0.0,0.0,0.0,0.0,0.0,0.009646818173607921,-0.16796346932068065,0.002754266623248725,0.0,0.0,0.0,0.0,0.0,0.0,0.0,0.0,0.0
2.123,49,2,123000000,base_footprint,-0.003564070026379402,0.0014924565321213293,0.9215330101109124,0.3882808020676118,0.0,0.0,0.0,0.0,0.0,0.0,0.0,0.0,0.0,-0.0008009995572238419,0.0011309878872614984,0.09413371595815091,0.0,0.0,0.0,0.0,0.0,0.0,0.0,0.0,0.0,0.004044360674471226,-0.42214727223134696,0.0004982489099119514,0.0,0.0,0.0,0.0,0.0,0.0,0.0,0.0,0.0
2.157,50,2,157000000,base_footprint,-0.0035795815766628118,0.0014903114027513755,0.9223780706264548,0.38626889648932106,0.0,0.0,0.0,0.0,0.0,0.0,0.0,0.0,0.0,-0.0006013752349995644,0.000561026542896815,0.13465766641442356,0.0,0.0,0.0,0.0,0.0,0.0,0.0,0.0,0.0,0.0242392013290034,-0.08344060389884435,9.297136676293583e-05,0.0,0.0,0.0,0.0,0.0,0.0,0.0,0.0,0.0
2.191,51,2,191000000,base_footprint,-0.0035736333293865975,0.0014811915231112357,0.9232094033506052,0.3842778067772307,0.0,0.0,0.0,0.0,0.0,0.0,0.0,0.0,0.0,-0.0008062436641564083,-0.0009066045166200968,0.09389971977916696,0.0,0.0,0.0,0.0,0.0,0.0,0.0,0.0,0.0,0.027631723083997462,-0.014744681883767133,0.0015862235282939955,0.0,0.0,0.0,0.0,0.0,0.0,0.0,0.0,0.0
2.225,52,2,225000000,base_footprint,-0.003582299538525184,0.0014820030838862835,0.9236115544415332,0.3833101450509368,0.0,0.0,0.0,0.0,0.0,0.0,0.0,0.0,0.0,-0.0007046578493607056,0.0004964547199514494,0.05336133953209599,0.0,0.0,0.0,0.0,0.0,0.0,0.0,0.0,0.0,0.011336896715745438,0.009892232257271191,-0.0004031157617462463,0.0,0.0,0.0,0.0,0.0,0.0,0.0,0.0,0.0
2.259,53,2,259000000,base_footprint,-0.0035821266475905785,0.001474664177641485,0.9240258056423555,0.38231048146923674,0.0,0.0,0.0,0.0,0.0,0.0,0.0,0.0,0.0,-0.0005692300532373294,0.0007336283599269465,0.07196731738547302,0.0,0.0,0.0,0.0,0.0,0.0,0.0,0.0,0.0,0.023040280706854106,0.0453209867644909,-0.0006631417591365749,0.0,0.0,0.0,0.0,0.0,0.0,0.0,0.0,0.0
2.292,54,2,293000000,base_footprint,-0.0035806817034606166,0.001466449096702631,0.9244240727451412,0.3813465116857256,0.0,0.0,0.0,0.0,0.0,0.0,0.0,0.0,0.0,0.00042794756014631423,-0.00013497155191460514,0.037012890795392696,0.0,0.0,0.0,0.0,0.0,0.0,0.0,0.0,0.0,0.014522665972101619,0.15871716430258284,-0.0006863490658255183,0.0,0.0,0.0,0.0,0.0,0.0,0.0,0.0,0.0
2.327,55,2,327000000,base_footprint,-0.003584341515364827,0.0014645341622524291,0.9247600784072453,0.3805309514610007,0.0,0.0,0.0,0.0,0.0,0.0,0.0,0.0,0.0,0.0011046657668234523,0.001366230889244437,0.07641148280363337,0.0,0.0,0.0,0.0,0.0,0.0,0.0,0.0,0.0,-0.0003991487033809804,0.15706073911303142,-0.00370242537941417,0.0,0.0,0.0,0.0,0.0,0.0,0.0,0.0,0.0
2.361,56,2,361000000,base_footprint,-0.0035833966581170244,0.0014570072763742234,0.9252538022442484,0.379328930917151,0.0,0.0,0.0,0.0,0.0,0.0,0.0,0.0,0.0,-0.0007457063098423313,0.0005006672296684563,0.07711392804652784,0.0,0.0,0.0,0.0,0.0,0.0,0.0,0.0,0.0,0.021274922363323637,0.0034100826539828427,0.0034729867862416668,0.0,0.0,0.0,0.0,0.0,0.0,0.0,0.0,0.0
2.395,57,2,395000000,base_footprint,-0.0035827700169613996,0.0014536466863580668,0.9255719448307572,0.37855201176658226,0.0,0.0,0.0,0.0,0.0,0.0,0.0,0.0,0.0,0.001739978514051826,0.00025839446315908444,0.0009928709472246326,0.0,0.0,0.0,0.0,0.0,0.0,0.0,0.0,0.0,0.014445342971789364,-0.02761896756620473,-0.0025664216330150706,0.0,0.0,0.0,0.0,0.0,0.0,0.0,0.0,0.0
2.4290000000000003,58,2,429000000,base_footprint,-0.003578755358637206,0.001453407968272575,0.9255834860657995,0.3785238307394169,0.0,0.0,0.0,0.0,0.0,0.0,0.0,0.0,0.0,-0.0003114791044314201,-9.88233218043216e-05,0.001746628125697222,0.0,0.0,0.0,0.0,0.0,0.0,0.0,0.0,0.0,-0.0025725812440438077,-0.002092199336503991,0.002925230137618089,0.0,0.0,0.0,0.0,0.0,0.0,0.0,0.0,0.0
2.463,59,2,463000000,base_footprint,-0.0035775287197840427,0.0014538479730573232,0.9255933029715046,0.37849983501797074,0.0,0.0,0.0,0.0,0.0,0.0,0.0,0.0,0.0,-0.0002149711304809559,-8.581408638005642e-05,0.0013667130301485658,0.0,0.0,0.0,0.0,0.0,0.0,0.0,0.0,0.0,0.00033966108881974,-0.005403149038052604,-0.0001399164417447293,0.0,0.0,0.0,0.0,0.0,0.0,0.0,0.0,0.0
2.497,60,2,497000000,base_footprint,-0.0035835576062226344,0.0014568306610230556,0.9256423126005463,0.3783798949241629,0.0,0.0,0.0,0.0,0.0,0.0,0.0,0.0,0.0,0.0005174621314409359,0.000275721411739152,0.04819079591444055,0.0,0.0,0.0,0.0,0.0,0.0,0.0,0.0,0.0,-0.006897597567712188,0.42251247595528596,-0.003483055699031521,0.0,0.0,0.0,0.0,0.0,0.0,0.0,0.0,0.0
2.531,61,2,531000000,base_footprint,-0.0035770652833749003,0.0014504620340956024,0.9260226802831621,0.37744813731827404,0.0,0.0,0.0,0.0,0.0,0.0,0.0,0.0,0.0,0.0007404517256867864,-0.00046651482746625384,-0.004365666923298352,0.0,0.0,0.0,0.0,0.0,0.0,0.0,0.0,0.0,0.016325449912354104,-0.08744320084343728,0.0012327720852525193,0.0,0.0,0.0,0.0,0.0,0.0,0.0,0.0,0.0
2.565,62,2,565000000,base_footprint,-0.003583283708740304,0.001453923274632433,0.9259835938935735,0.37754394449509554,0.0,0.0,0.0,0.0,0.0,0.0,0.0,0.0,0.0,6.170765428231562e-05,-0.00011398143548194669,-0.006168772310220426,0.0,0.0,0.0,0.0,0.0,0.0,0.0,0.0,0.0,-0.003398960751603434,-0.010775611087063647,1.8826084948373265e-05,0.0,0.0,0.0,0.0,0.0,0.0,0.0,0.0,0.0
2.599,63,2,599000000,base_footprint,-0.003582531305359185,0.0014525993683516052,0.9259280726650718,0.3776801023025527,0.0,0.0,0.0,0.0,0.0,0.0,0.0,0.0,0.0,0.0005909115244913289,0.0004359106118042873,0.008745952359019746,0.0,0.0,0.0,0.0,0.0,0.0,0.0,0.0,0.0,0.004979766682780801,-0.2406864967777951,0.0002271233820455277,0.0,0.0,0.0,0.0,0.0,0.0,0.0,0.0,0.0
2.633,64,2,633000000,base_footprint,-0.00359157182014297,0.0014539535532277742,0.9262097918885777,0.37698860465621986,0.0,0.0,0.0,0.0,0.0,0.0,0.0,0.0,0.0,-0.00011225436594163206,0.00016565267886854197,0.04998143570608066,0.0,0.0,0.0,0.0,0.0,0.0,0.0,0.0,0.0,0.00720382804860421,-0.090544644740254,0.0011126697931352577,0.0,0.0,0.0,0.0,0.0,0.0,0.0,0.0,0.0
2.667,65,2,667000000,base_footprint,-0.0035944308460037645,0.0014506529525608076,0.9265196141695236,0.3762265012357075,0.0,0.0,0.0,0.0,0.0,0.0,0.0,0.0,0.0,-0.0003852310353834543,0.00034983415778739696,0.047606421438901814,0.0,0.0,0.0,0.0,0.0,0.0,0.0,0.0,0.0,0.00834022364146355,0.0010561039175828557,0.0005084143601023597,0.0,0.0,0.0,0.0,0.0,0.0,0.0,0.0,0.0
2.701,66,2,701000000,base_footprint,-0.0035855253270539148,0.0014416600843671712,0.9266911622432652,0.3758038789642232,0.0,0.0,0.0,0.0,0.0,0.0,0.0,0.0,0.0,-0.00030406529680579073,-0.00012012915669025977,-0.015301560534924048,0.0,0.0,0.0,0.0,0.0,0.0,0.0,0.0,0.0,0.015783299439658987,-0.06957762949614227,0.0010128569611025516,0.0,0.0,0.0,0.0,0.0,0.0,0.0,0.0,0.0
2.7350000000000003,67,2,735000000,base_footprint,-0.0035781975256800685,0.0014395117573344808,0.9264306923525606,0.37644560905331736,0.0,0.0,0.0,0.0,0.0,0.0,0.0,0.0,0.0,0.00024135960188066365,-0.0007568137810515913,-0.04279040138473652,0.0,0.0,0.0,0.0,0.0,0.0,0.0,0.0,0.0,-0.00499929476340308,-0.05537435237859385,0.0023572562713211707,0.0,0.0,0.0,0.0,0.0,0.0,0.0,0.0,0.0
2.769,68,2,769000000,base_footprint,-0.0035822754703910406,0.0014479961705638003,0.9263816764356856,0.3765661431591444,0.0,0.0,0.0,0.0,0.0,0.0,0.0,0.0,0.0,0.00045999000250526647,-0.0019053070401358493,0.027610219733215816,0.0,0.0,0.0,0.0,0.0,0.0,0.0,0.0,0.0,-0.007071581565069799,-0.05765292302165567,-0.0034068168050803444,0.0,0.0,0.0,0.0,0.0,0.0,0.0,0.0,0.0
2.803,69,2,803000000,base_footprint,-0.0035943885833071092,0.0014486168704355828,0.9266645471919861,0.37586939068956676,0.0,0.0,0.0,0.0,0.0,0.0,0.0,0.0,0.0,-0.0006540854193352495,0.0006380330765562289,0.04713305950869607,0.0,0.0,0.0,0.0,0.0,0.0,0.0,0.0,0.0,0.016321677155822827,-0.1286566115203669,0.00226569930099894,0.0,0.0,0.0,0.0,0.0,0.0,0.0,0.0,0.0
2.837,70,2,837000000,base_footprint,-0.0035901440910812155,0.0014439826644815693,0.926991746381092,0.37506176547443926,0.0,0.0,0.0,0.0,0.0,0.0,0.0,0.0,0.0,-0.0007222577966558558,0.00031813563500418936,0.051972297942470436,0.0,0.0,0.0,0.0,0.0,0.0,0.0,0.0,0.0,0.008979650038344833,0.00837606694015204,0.0003674872055983099,0.0,0.0,0.0,0.0,0.0,0.0,0.0,0.0,0.0
2.871,71,2,871000000,base_footprint,-0.0035882611275849068,0.0014393797403198258,0.9273238151245875,0.37424002254011196,0.0,0.0,0.0,0.0,0.0,0.0,0.0,0.0,0.0,-0.0005642969969272467,0.0003492029425972177,0.052236463493078006,0.0,0.0,0.0,0.0,0.0,0.0,0.0,0.0,0.0,0.011446665854618397,-0.003475045229340792,-0.00020465618811147407,0.0,0.0,0.0,0.0,0.0,0.0,0.0,0.0,0.0
2.9050000000000002,72,2,905000000,base_footprint,-0.0035868849693825766,0.0014365876401650393,0.9275555277650072,0.37366537621881374,0.0,0.0,0.0,0.0,0.0,0.0,0.0,0.0,0.0,-0.00044648323995484713,5.076272948713548e-05,0.030009624714101672,0.0,0.0,0.0,0.0,0.0,0.0,0.0,0.0,0.0,0.008225331795890179,-0.010199980470435728,0.0003210002079800615,0.0,0.0,0.0,0.0,0.0,0.0,0.0,0.0,0.0
2.939,73,2,939000000,base_footprint,-0.0035854224289152453,0.0014352260632052869,0.9277439336406622,0.373197371996514,0.0,0.0,0.0,0.0,0.0,0.0,0.0,0.0,0.0,-0.00041158052640580196,5.016057445894514e-05,0.029441877321707333,0.0,0.0,0.0,0.0,0.0,0.0,0.0,0.0,0.0,0.006936485406780801,-0.0057418930392549895,-2.88379568754066e-05,0.0,0.0,0.0,0.0,0.0,0.0,0.0,0.0,0.0
2.973,74,2,973000000,base_footprint,-0.0035856284383875545,0.001434162656072512,0.9279285542942501,0.3727380911197036,0.0,0.0,0.0,0.0,0.0,0.0,0.0,0.0,0.0,-0.0003243734790106458,6.263866080802893e-05,0.028883335456124905,0.0,0.0,0.0,0.0,0.0,0.0,0.0,0.0,0.0,0.006591114250464413,-0.005536311954435042,-0.00010747063339440707,0.0,0.0,0.0,0.0,0.0,0.0,0.0,0.0,0.0
3.007,75,3,7000000,base_footprint,-0.0035867985611284137,0.0014339471193916963,0.9280522904464077,0.37242989255552134,0.0,0.0,0.0,0.0,0.0,0.0,0.0,0.0,0.0,-0.00021016158147938235,-1.8393854326366227e-05,0.005615538324535318,0.0,0.0,0.0,0.0,0.0,0.0,0.0,0.0,0.0,-0.010013771840428232,0.33076964874991843,-0.0018392592840622275,0.0,0.0,0.0,0.0,0.0,0.0,0.0,0.0,0.0
3.041,76,3,41000000,base_footprint,-0.00358994682160684,0.0014351892946667475,0.9280850977279215,0.37234809505201066,0.0,0.0,0.0,0.0,0.0,0.0,0.0,0.0,0.0,-1.1283203759978163e-05,-5.270663202418369e-05,0.004902557608159581,0.0,0.0,0.0,0.0,0.0,0.0,0.0,0.0,0.0,0.001088292003435543,-0.006912262897238385,-0.0003313897222562285,0.0,0.0,0.0,0.0,0.0,0.0,0.0,0.0,0.0
3.075,77,3,75000000,base_footprint,-0.003594185893741891,0.001436631051053207,0.928113279608558,0.37227779699201924,0.0,0.0,0.0,0.0,0.0,0.0,0.0,0.0,0.0,5.426784393085226e-05,-5.2385421787157996e-05,0.004056599790898867,0.0,0.0,0.0,0.0,0.0,0.0,0.0,0.0,0.0,0.0009221646512541221,-0.004182557251772782,-0.00021513645019417864,0.0,0.0,0.0,0.0,0.0,0.0,0.0,0.0,0.0
3.109,78,3,109000000,base_footprint,-0.003597048922664053,0.0014385747713465918,0.9280083656987872,0.3725392126135734,0.0,0.0,0.0,0.0,0.0,0.0,0.0,0.0,0.0,0.00014929979543697368,-0.00012606350522871622,-0.021607048268981625,0.0,0.0,0.0,0.0,0.0,0.0,0.0,0.0,0.0,-0.00357853065668152,-0.00660928611409229,-6.578602381094368e-05,0.0,0.0,0.0,0.0,0.0,0.0,0.0,0.0,0.0
3.143,79,3,143000000,base_footprint,-0.003598344759988618,0.0014395896693380635,0.9278653868088588,0.37289516416630997,0.0,0.0,0.0,0.0,0.0,0.0,0.0,0.0,0.0,5.2872672262917315e-05,-6.646871778243718e-05,-0.023606407950693728,0.0,0.0,0.0,0.0,0.0,0.0,0.0,0.0,0.0,-0.005670782437671575,0.0038364679014533005,0.00014847533275099502,0.0,0.0,0.0,0.0,0.0,0.0,0.0,0.0,0.0
3.177,80,3,177000000,base_footprint,-0.0035973011084471356,0.001434390199387725,0.9277005427615439,0.3733051096749522,0.0,0.0,0.0,0.0,0.0,0.0,0.0,0.0,0.0,-9.646243733299934e-05,0.00035168439194978616,-0.031233297556866345,0.0,0.0,0.0,0.0,0.0,0.0,0.0,0.0,0.0,-0.0017395188993747281,0.023740182930543648,0.00010959514679336719,0.0,0.0,0.0,0.0,0.0,0.0,0.0,0.0,0.0
3.211,81,3,211000000,base_footprint,-0.0035809096396116685,0.0014223793514146893,0.9273133570749224,0.3742660707485671,0.0,0.0,0.0,0.0,0.0,0.0,0.0,0.0,0.0,-0.002385574787637823,0.00017155985116289695,-0.07327849001389537,0.0,0.0,0.0,0.0,0.0,0.0,0.0,0.0,0.0,-0.009790095117978065,-0.06284146679444094,0.003035543957427785,0.0,0.0,0.0,0.0,0.0,0.0,0.0,0.0,0.0
3.245,82,3,245000000,base_footprint,-0.003580642876210264,0.001435689997988421,0.9270206231361998,0.37499050930789535,0.0,0.0,0.0,0.0,0.0,0.0,0.0,0.0,0.0,-0.0013563178024289713,0.0008935285576882124,-0.009075080705904822,0.0,0.0,0.0,0.0,0.0,0.0,0.0,0.0,0.0,-0.0121157550332219,-0.052128002297538514,0.0008269491252228416,0.0,0.0,0.0,0.0,0.0,0.0,0.0,0.0,0.0
3.279,83,3,279000000,base_footprint,-0.0035783816072107086,0.0014510692123000796,0.927059004985638,0.37489557327108175,0.0,0.0,0.0,0.0,0.0,0.0,0.0,0.0,0.0,-0.00020009664462713192,-0.0013921497209464701,-0.005000190197988671,0.0,0.0,0.0,0.0,0.0,0.0,0.0,0.0,0.0,0.010837150093389793,-0.11565440916417556,-0.0007919257703815947,0.0,0.0,0.0,0.0,0.0,0.0,0.0,0.0,0.0
3.313,84,3,313000000,base_footprint,-0.0035907220574129496,0.001444266496455124,0.9270786756432566,0.3748468353567081,0.0,0.0,0.0,0.0,0.0,0.0,0.0,0.0,0.0,-0.0006508799275344974,1.4367186540909665e-05,0.002956718591817382,0.0,0.0,0.0,0.0,0.0,0.0,0.0,0.0,0.0,-0.00036973952886829725,-0.09627391256951819,-0.0005276362000700278,0.0,0.0,0.0,0.0,0.0,0.0,0.0,0.0,0.0
3.347,85,3,347000000,base_footprint,-0.003587448437416339,0.0014426325701497966,0.9270956400694448,0.37480491350728457,0.0,0.0,0.0,0.0,0.0,0.0,0.0,0.0,0.0,-0.0003055246516736808,7.90615712216565e-05,0.002694530186971362,0.0,0.0,0.0,0.0,0.0,0.0,0.0,0.0,0.0,0.0002054708867221971,-0.004944002564663684,-0.00047152918554362527,0.0,0.0,0.0,0.0,0.0,0.0,0.0,0.0,0.0
3.3810000000000002,86,3,381000000,base_footprint,-0.003585160633368035,0.0014428048330210916,0.9271095356912187,0.3747705615011134,0.0,0.0,0.0,0.0,0.0,0.0,0.0,0.0,0.0,-0.00038837396693647947,-0.0028585202592254,-0.011794425435084646,0.0,0.0,0.0,0.0,0.0,0.0,0.0,0.0,0.0,0.0015130742045564418,-0.004076472037828414,0.002387863986520023,0.0,0.0,0.0,0.0,0.0,0.0,0.0,0.0,0.0
3.415,87,3,415000000,base_footprint,-0.0035822888117330092,0.0014440934207308083,0.9268814319859243,0.3753343747124476,0.0,0.0,0.0,0.0,0.0,0.0,0.0,0.0,0.0,-7.627388231389479e-05,-0.0002994935713117081,-0.03644049367390338,0.0,0.0,0.0,0.0,0.0,0.0,0.0,0.0,0.0,-0.008083648143975664,-0.01666743803502891,-0.002175497452699242,0.0,0.0,0.0,0.0,0.0,0.0,0.0,0.0,0.0
3.449,88,3,449000000,base_footprint,-0.003580692796460622,0.0014468641846825938,0.9266463317096738,0.3759144332852011,0.0,0.0,0.0,0.0,0.0,0.0,0.0,0.0,0.0,2.597969772958598e-05,-0.0002800433377906047,-0.03710120081171163,0.0,0.0,0.0,0.0,0.0,0.0,0.0,0.0,0.0,-0.007915949310684548,-0.006127646483517029,-0.00020520145689058184,0.0,0.0,0.0,0.0,0.0,0.0,0.0,0.0,0.0
3.483,89,3,483000000,base_footprint,-0.003582028062450641,0.0014512265765347949,0.9264236094511281,0.37646295816179176,0.0,0.0,0.0,0.0,0.0,0.0,0.0,0.0,0.0,0.0010312508256246464,-0.00026424057941748557,0.006888027571456651,0.0,0.0,0.0,0.0,0.0,0.0,0.0,0.0,0.0,-0.005581798381690715,0.012234927133330593,-0.0013614725663220093,0.0,0.0,0.0,0.0,0.0,0.0,0.0,0.0,0.0
3.517,90,3,517000000,base_footprint,-0.003583862264643264,0.0014487875299803814,0.9266571078609998,0.37588783087065847,0.0,0.0,0.0,0.0,0.0,0.0,0.0,0.0,0.0,-0.0001691160274673594,0.00013391486765106512,0.0367919767670417,0.0,0.0,0.0,0.0,0.0,0.0,0.0,0.0,0.0,0.004776681206393862,-0.003741300028590661,0.0008504382936506223,0.0,0.0,0.0,0.0,0.0,0.0,0.0,0.0,0.0
3.551,91,3,551000000,base_footprint,-0.0035892991868867667,0.0014485046594284326,0.9268893038340155,0.3753148507635861,0.0,0.0,0.0,0.0,0.0,0.0,0.0,0.0,0.0,-8.733796982013058e-05,0.00018272818714706765,0.03594605847822776,0.0,0.0,0.0,0.0,0.0,0.0,0.0,0.0,0.0,0.007832290515856407,-0.004285217592352947,-0.0001348783595928577,0.0,0.0,0.0,0.0,0.0,0.0,0.0,0.0,0.0
3.585,92,3,585000000,base_footprint,-0.0035909377977314675,0.0014449811219253651,0.9271204396214832,0.3747435224675113,0.0,0.0,0.0,0.0,0.0,0.0,0.0,0.0,0.0,-0.008064331032124577,5.71862329220036e-05,0.045561488704517386,0.0,0.0,0.0,0.0,0.0,0.0,0.0,0.0,0.0,0.007222058210856436,0.0698480639571354,0.008296263056421232,0.0,0.0,0.0,0.0,0.0,0.0,0.0,0.0,0.0
3.6189999999999998,93,3,619000000,base_footprint,-0.0035905150624678805,0.0014381871057535228,0.9276164435967574,0.3735140872689261,0.0,0.0,0.0,0.0,0.0,0.0,0.0,0.0,0.0,0.0045216129918978125,-0.001131612391706238,0.07479976015579973,0.0,0.0,0.0,0.0,0.0,0.0,0.0,0.0,0.0,-0.003105059073549271,0.3871121611336556,-0.01572876740263887,0.0,0.0,0.0,0.0,0.0,0.0,0.0,0.0,0.0
3.653,94,3,653000000,base_footprint,-0.003595779485540676,0.001430204336754434,0.927827646266742,0.3729891200940909,0.0,0.0,0.0,0.0,0.0,0.0,0.0,0.0,0.0,-0.0013292337214818384,0.00011616930684819866,0.018565667132316038,0.0,0.0,0.0,0.0,0.0,0.0,0.0,0.0,0.0,0.01785051514219144,-0.08497956191588955,0.00793985581735984,0.0,0.0,0.0,0.0,0.0,0.0,0.0,0.0,0.0
3.6870000000000003,95,3,687000000,base_footprint,-0.003592166595204192,0.001426668705536374,0.9278426862650014,0.37295175358228727,0.0,0.0,0.0,0.0,0.0,0.0,0.0,0.0,0.0,-0.0045825920272591055,-0.002865507271693748,-0.0036335372077295485,0.0,0.0,0.0,0.0,0.0,0.0,0.0,0.0,0.0,-0.0031966030486435043,0.020464418120613212,0.0024123434979592224,0.0,0.0,0.0,0.0,0.0,0.0,0.0,0.0,0.0
3.721,96,3,721000000,base_footprint,-0.0035820037492562723,0.0014266040812609584,0.9279415095522466,0.3727059013482795,0.0,0.0,0.0,0.0,0.0,0.0,0.0,0.0,0.0,0.0015505124145597912,-0.0002856723180707655,0.0486466690242606,0.0,0.0,0.0,0.0,0.0,0.0,0.0,0.0,0.0,0.007765893077385585,-0.04241232601780055,-0.004569092019200894,0.0,0.0,0.0,0.0,0.0,0.0,0.0,0.0,0.0
3.755,97,3,755000000,base_footprint,-0.003579781088953938,0.0014379848676950371,0.9283514818032217,0.37168352613566047,0.0,0.0,0.0,0.0,0.0,0.0,0.0,0.0,0.0,0.00031116837647616796,0.0004838204355773876,0.05649106459854962,0.0,0.0,0.0,0.0,0.0,0.0,0.0,0.0,0.0,0.018369406499210532,-0.09659237022856897,-0.0004246968739421541,0.0,0.0,0.0,0.0,0.0,0.0,0.0,0.0,0.0
3.789,98,3,789000000,base_footprint,-0.0035876787611326343,0.001434462048321066,0.9285482646592489,0.3711915827144205,0.0,0.0,0.0,0.0,0.0,0.0,0.0,0.0,0.0,0.0034347072275152783,-2.1539485481000993e-05,0.017331684931582297,0.0,0.0,0.0,0.0,0.0,0.0,0.0,0.0,0.0,0.01073028378945931,-0.1909646606156513,-0.0020250835564102126,0.0,0.0,0.0,0.0,0.0,0.0,0.0,0.0,0.0
3.823,99,3,823000000,base_footprint,-0.003593598121529066,0.0014286976880126406,0.9285683042702403,0.37114141399222444,0.0,0.0,0.0,0.0,0.0,0.0,0.0,0.0,0.0,-0.0003664788774312314,8.205856151192964e-05,0.002686494697308853,0.0,0.0,0.0,0.0,0.0,0.0,0.0,0.0,0.0,0.004229258560143816,-0.03702615521059755,0.00509800288102416,0.0,0.0,0.0,0.0,0.0,0.0,0.0,0.0,0.0
3.857,100,3,857000000,base_footprint,-0.0035916631324937605,0.0014275565625554729,0.9285850864352435,0.3710994466288719,0.0,0.0,0.0,0.0,0.0,0.0,0.0,0.0,0.0,-0.0002351565442694953,9.586044516454018e-05,0.0026274878545165825,0.0,0.0,0.0,0.0,0.0,0.0,0.0,0.0,0.0,0.0010639286767959132,-0.004381283137482791,-0.000197955555139253,0.0,0.0,0.0,0.0,0.0,0.0,0.0,0.0,0.0
3.891,101,3,891000000,base_footprint,-0.0035895943323840033,0.00142810420748328,0.9285289529528252,0.37123989394895546,0.0,0.0,0.0,0.0,0.0,0.0,0.0,0.0,0.0,0.0004374650783323085,-0.0006369024533206358,-0.03748672152105632,0.0,0.0,0.0,0.0,0.0,0.0,0.0,0.0,0.0,0.0011525047978537956,-0.016766204518323825,3.94612362505035e-05,0.0,0.0,0.0,0.0,0.0,0.0,0.0,0.0,0.0
3.925,102,3,925000000,base_footprint,-0.003587043841950286,0.0014310421252617838,0.9282965026851654,0.37182077448335593,0.0,0.0,0.0,0.0,0.0,0.0,0.0,0.0,0.0,1.3598704645360073e-05,-0.000284891783077105,-0.03695513984620227,0.0,0.0,0.0,0.0,0.0,0.0,0.0,0.0,0.0,-0.00991475639666967,-0.005239287042856713,0.00013543744791365918,0.0,0.0,0.0,0.0,0.0,0.0,0.0,0.0,0.0
3.959,103,3,959000000,base_footprint,-0.0035867610589578134,0.0014340800657355532,0.928060352331602,0.37240980248862143,0.0,0.0,0.0,0.0,0.0,0.0,0.0,0.0,0.0,0.00010415265209890015,-0.0002718761387597268,-0.03761400361723053,0.0,0.0,0.0,0.0,0.0,0.0,0.0,0.0,0.0,-0.008064155016395513,-0.0061559363882753935,-0.00019688571949937574,0.0,0.0,0.0,0.0,0.0,0.0,0.0,0.0,0.0
3.9930000000000003,104,3,993000000,base_footprint,-0.0035874955542205436,0.0014353242650489012,0.9278414260248024,0.3729549005874088,0.0,0.0,0.0,0.0,0.0,0.0,0.0,0.0,0.0,0.001450851501724985,-6.073999365242377e-05,-0.02151669896234985,0.0,0.0,0.0,0.0,0.0,0.0,0.0,0.0,0.0,-0.021478043058394,0.32482577692673237,-0.0033886922486374366,0.0,0.0,0.0,0.0,0.0,0.0,0.0,0.0,0.0
4.027,105,4,27000000,base_footprint,-0.0035877972341798237,0.001435354059024909,0.9278884146525423,0.37283797744237823,0.0,0.0,0.0,0.0,0.0,0.0,0.0,0.0,0.0,0.001503829802876526,-0.00021481991781082413,0.036807014570299286,0.0,0.0,0.0,0.0,0.0,0.0,0.0,0.0,0.0,-0.013573269480884678,0.3621073753797686,-0.0033181260084825556,0.0,0.0,0.0,0.0,0.0,0.0,0.0,0.0,0.0
4.061,106,4,61000000,base_footprint,-0.003596333163102416,0.001437615800865446,0.9281136413766712,0.372276870540093,0.0,0.0,0.0,0.0,0.0,0.0,0.0,0.0,0.0,-0.00015701903521701994,0.0001866188459192811,0.03494175192339279,0.0,0.0,0.0,0.0,0.0,0.0,0.0,0.0,0.0,0.00492807897794345,0.00173372853304361,0.0022747827940319217,0.0,0.0,0.0,0.0,0.0,0.0,0.0,0.0,0.0
4.095,107,4,95000000,base_footprint,-0.0035942361103661886,0.001432591314735454,0.9282961455513253,0.37182159069029413,0.0,0.0,0.0,0.0,0.0,0.0,0.0,0.0,0.0,0.0017736689075133869,0.0006807357435546018,0.025837920916144494,0.0,0.0,0.0,0.0,0.0,0.0,0.0,0.0,0.0,0.01173793476455575,-0.11376783688741829,-0.0016665627449374365,0.0,0.0,0.0,0.0,0.0,0.0,0.0,0.0,0.0
4.129,108,4,129000000,base_footprint,-0.0035911631519478784,0.0014267065830793494,0.9284831600756864,0.37135439880444304,0.0,0.0,0.0,0.0,0.0,0.0,0.0,0.0,0.0,-0.00014290780218925025,0.00022722908656314664,-0.004754672679147091,0.0,0.0,0.0,0.0,0.0,0.0,0.0,0.0,0.0,0.016259656459805802,-0.1479480313960665,0.004151775799238798,0.0,0.0,0.0,0.0,0.0,0.0,0.0,0.0,0.0
4.163,109,4,163000000,base_footprint,-0.003585646116954169,0.0014188692610192784,0.9281107299665412,0.37228430382292277,0.0,0.0,0.0,0.0,0.0,0.0,0.0,0.0,0.0,-0.0022646631223354396,-0.0007101432690590605,-0.09735153281787846,0.0,0.0,0.0,0.0,0.0,0.0,0.0,0.0,0.0,-0.007134248664737115,-0.11681362528660856,0.0025563146835570136,0.0,0.0,0.0,0.0,0.0,0.0,0.0,0.0,0.0
4.197,110,4,197000000,base_footprint,-0.0035821362871238335,0.0014321797318611296,0.9275087404425636,0.3737815586187814,0.0,0.0,0.0,0.0,0.0,0.0,0.0,0.0,0.0,0.0006867348221376284,-0.0008485767714655186,-0.07369293202155172,0.0,0.0,0.0,0.0,0.0,0.0,0.0,0.0,0.0,-0.008201308975148766,-0.057265995828472874,-0.0025242250993920906,0.0,0.0,0.0,0.0,0.0,0.0,0.0,0.0,0.0
4.231,111,4,231000000,base_footprint,-0.003582674345392039,0.001449027225264402,0.9273133584162753,0.3742659483139818,0.0,0.0,0.0,0.0,0.0,0.0,0.0,0.0,0.0,0.00010707370980657892,-0.0018168470818425893,-0.0049414240822535805,0.0,0.0,0.0,0.0,0.0,0.0,0.0,0.0,0.0,-0.014261595862774687,-0.10062439174369321,0.002056584009334187,0.0,0.0,0.0,0.0,0.0,0.0,0.0,0.0,0.0
4.265,112,4,265000000,base_footprint,-0.00358680524518707,0.0014464655167880545,0.9271408753848962,0.3746929940046524,0.0,0.0,0.0,0.0,0.0,0.0,0.0,0.0,0.0,0.0012035864621832114,0.0009142190723701748,-0.05151078934550975,0.0,0.0,0.0,0.0,0.0,0.0,0.0,0.0,0.0,-0.0024393498088587026,-0.11451433588777439,-0.0029754306634318653,0.0,0.0,0.0,0.0,0.0,0.0,0.0,0.0,0.0
4.299,113,4,299000000,base_footprint,-0.0035845826703117725,0.0014460404047562689,0.92671188498551,0.3757527670700914,0.0,0.0,0.0,0.0,0.0,0.0,0.0,0.0,0.0,-0.0033559552244708463,-0.00020545307889877876,-0.0823123491094225,0.0,0.0,0.0,0.0,0.0,0.0,0.0,0.0,0.0,-0.022739872620409843,0.3236985048393582,0.004028974931248392,0.0,0.0,0.0,0.0,0.0,0.0,0.0,0.0,0.0
4.333,114,4,333000000,base_footprint,-0.003583826810145291,0.0014506969443091554,0.9261706375052873,0.3770848735852721,0.0,0.0,0.0,0.0,0.0,0.0,0.0,0.0,0.0,0.00020733971967797538,-0.0004139085300400324,-0.08533268919477698,0.0,0.0,0.0,0.0,0.0,0.0,0.0,0.0,0.0,-0.01726178211664555,-0.01723429439485164,-0.003278560690248116,0.0,0.0,0.0,0.0,0.0,0.0,0.0,0.0,0.0
4.367,115,4,367000000,base_footprint,-0.003578856178002832,0.0014558216968069645,0.9256209237434704,0.37843226329150265,0.0,0.0,0.0,0.0,0.0,0.0,0.0,0.0,0.0,0.00015211634680962889,-0.0005764255468704879,-0.0858447812048328,0.0,0.0,0.0,0.0,0.0,0.0,0.0,0.0,0.0,-0.017958127298790857,-0.0054469137568957555,0.00018619733181535975,0.0,0.0,0.0,0.0,0.0,0.0,0.0,0.0,0.0
4.401,116,4,401000000,base_footprint,-0.0035745433972705974,0.0014600769802350776,0.9251194525158234,0.379656541352228,0.0,0.0,0.0,0.0,0.0,0.0,0.0,0.0,0.0,0.0005927489960717335,-0.00035018570595533616,-0.0440443391293633,0.0,0.0,0.0,0.0,0.0,0.0,0.0,0.0,0.0,-0.011897044139007787,-0.33279587602408833,0.0011391672034645963,0.0,0.0,0.0,0.0,0.0,0.0,0.0,0.0,0.0
4.4350000000000005,117,4,435000000,base_footprint,-0.003573963076533314,0.0014640873430387614,0.9248393968672949,0.380338235309465,0.0,0.0,0.0,0.0,0.0,0.0,0.0,0.0,0.0,9.253662127123019e-05,-0.00030547493898979057,-0.043628666854183526,0.0,0.0,0.0,0.0,0.0,0.0,0.0,0.0,0.0,-0.010013780516060942,-0.008099078540311538,0.00023325093607565902,0.0,0.0,0.0,0.0,0.0,0.0,0.0,0.0,0.0
4.469,118,4,469000000,base_footprint,-0.003574439124657597,0.001467674503016369,0.9245546931113302,0.3810297741152407,0.0,0.0,0.0,0.0,0.0,0.0,0.0,0.0,0.0,0.00019061212696899204,-0.0002977846150538858,-0.04427696512442679,0.0,0.0,0.0,0.0,0.0,0.0,0.0,0.0,0.0,-0.009779840933529299,-0.0057731588208412,-0.0002275473220273669,0.0,0.0,0.0,0.0,0.0,0.0,0.0,0.0,0.0
4.503,119,4,503000000,base_footprint,-0.003576545871203709,0.0014728174642286147,0.92416370514826,0.3819770742007805,0.0,0.0,0.0,0.0,0.0,0.0,0.0,0.0,0.0,0.0004046112956703309,-0.0004195804210872106,-0.06901086498345357,0.0,0.0,0.0,0.0,0.0,0.0,0.0,0.0,0.0,-0.013102976027102396,-0.01179049682820281,-0.00024224510663483517,0.0,0.0,0.0,0.0,0.0,0.0,0.0,0.0,0.0
4.537,120,4,537000000,base_footprint,-0.003579665225279182,0.0014787982102078931,0.9237122806692409,0.38306738531694107,0.0,0.0,0.0,0.0,0.0,0.0,0.0,0.0,0.0,0.0004645037030941516,-0.0004027739811323298,-0.06977698809355305,0.0,0.0,0.0,0.0,0.0,0.0,0.0,0.0,0.0,-0.015891839796935443,-0.0033284454976079533,-0.0003590805448375191,0.0,0.0,0.0,0.0,0.0,0.0,0.0,0.0,0.0
4.571,121,4,571000000,base_footprint,-0.003580405729304061,0.001483675443143373,0.9232521655757789,0.3841749837790427,0.0,0.0,0.0,0.0,0.0,0.0,0.0,0.0,0.0,0.0004252414318082851,-0.0003515529014090923,-0.07125779454270745,0.0,0.0,0.0,0.0,0.0,0.0,0.0,0.0,0.0,-0.015914659789441905,0.0013530406733603508,-4.4287861786752296e-05,0.0,0.0,0.0,0.0,0.0,0.0,0.0,0.0,0.0
4.605,122,4,605000000,base_footprint,-0.003578344775565903,0.0014781858350822637,0.9230723356081293,0.3846069079596172,0.0,0.0,0.0,0.0,0.0,0.0,0.0,0.0,0.0,-0.0011843491206251426,0.00011892528600329161,0.011792589636957153,0.0,0.0,0.0,0.0,0.0,0.0,0.0,0.0,0.0,-0.006863979699811014,0.04900870632545001,0.0021710430350592594,0.0,0.0,0.0,0.0,0.0,0.0,0.0,0.0,0.0
4.639,123,4,639000000,base_footprint,-0.00357854135900687,0.0014754762015374721,0.923118205935304,0.38449680737622044,0.0,0.0,0.0,0.0,0.0,0.0,0.0,0.0,0.0,8.439887833285525e-05,-0.00014404351951606236,-0.002334994063164605,0.0,0.0,0.0,0.0,0.0,0.0,0.0,0.0,0.0,0.0024028323413096946,0.030845483179506823,-0.0027110798664407767,0.0,0.0,0.0,0.0,0.0,0.0,0.0,0.0,0.0
4.673,124,4,673000000,base_footprint,-0.003574618280033971,0.0014802629799768817,0.9231318737351958,0.3844640095247004,0.0,0.0,0.0,0.0,0.0,0.0,0.0,0.0,0.0,0.00018432505155376228,-3.2946931951625666e-05,0.020523080915589992,0.0,0.0,0.0,0.0,0.0,0.0,0.0,0.0,0.0,0.006525950172698665,0.02400206544060113,9.925822107397543e-05,0.0,0.0,0.0,0.0,0.0,0.0,0.0,0.0,0.0
4.707,125,4,707000000,base_footprint,-0.003575132082636076,0.0014836708398616044,0.9232443689772252,0.38419376921454107,0.0,0.0,0.0,0.0,0.0,0.0,0.0,0.0,0.0,-4.030046023588581e-05,-7.538914812664641e-05,0.007236133861925641,0.0,0.0,0.0,0.0,0.0,0.0,0.0,0.0,0.0,-0.001625408084551526,-0.0033358874460870888,0.0006062407366854013,0.0,0.0,0.0,0.0,0.0,0.0,0.0,0.0,0.0
4.741,126,4,741000000,base_footprint,-0.0035793238675618,0.0014801151531479654,0.9231822768325545,0.3843429216754815,0.0,0.0,0.0,0.0,0.0,0.0,0.0,0.0,0.0,-0.0005411591424378795,-0.00022841197848895198,-0.01197293664311986,0.0,0.0,0.0,0.0,0.0,0.0,0.0,0.0,0.0,-0.0005408987307025971,-0.04709260584613861,0.000789937466488368,0.0,0.0,0.0,0.0,0.0,0.0,0.0,0.0,0.0
4.775,127,4,775000000,base_footprint,-0.0035753086178382763,0.0014787358143744669,0.9231018423760211,0.3845361089815547,0.0,0.0,0.0,0.0,0.0,0.0,0.0,0.0,0.0,-0.0002538689144504149,5.566559928129439e-05,-0.012203789386367982,0.0,0.0,0.0,0.0,0.0,0.0,0.0,0.0,0.0,-0.004089433909743884,-0.004912722165887235,-0.0003927976392489886,0.0,0.0,0.0,0.0,0.0,0.0,0.0,0.0,0.0
4.808,128,4,809000000,base_footprint,-0.003572263098806251,0.001476750636725462,0.9231678040548063,0.3843777617143542,0.0,0.0,0.0,0.0,0.0,0.0,0.0,0.0,0.0,-0.0005734998499582845,-3.669040311646865e-05,0.014681289986584575,0.0,0.0,0.0,0.0,0.0,0.0,0.0,0.0,0.0,0.0019988410962369593,0.0022740388247452495,0.0004352516684981496,0.0,0.0,0.0,0.0,0.0,0.0,0.0,0.0,0.0
4.843,129,4,843000000,base_footprint,-0.003569504938573268,0.0014759628259668547,0.9232620405107439,0.3841513825566262,0.0,0.0,0.0,0.0,0.0,0.0,0.0,0.0,0.0,-0.00037463405638682467,-1.9855680018525883e-05,0.014241258001987767,0.0,0.0,0.0,0.0,0.0,0.0,0.0,0.0,0.0,0.0031256144214980583,-0.00582052310429135,-0.0002516391251673423,0.0,0.0,0.0,0.0,0.0,0.0,0.0,0.0,0.0
4.877,130,4,877000000,base_footprint,-0.0035685197765747026,0.0014755261774038243,0.9233533514984438,0.38393186474385743,0.0,0.0,0.0,0.0,0.0,0.0,0.0,0.0,0.0,-0.0002873970609243798,-7.524941695604868e-06,0.013789855682572995,0.0,0.0,0.0,0.0,0.0,0.0,0.0,0.0,0.0,0.003013380381547349,-0.005799603009407906,-0.0001211402021176814,0.0,0.0,0.0,0.0,0.0,0.0,0.0,0.0,0.0
4.911,131,4,911000000,base_footprint,-0.003569395591358545,0.0014737856013801655,0.9236132217810847,0.3833062795236709,0.0,0.0,0.0,0.0,0.0,0.0,0.0,0.0,0.0,-0.0004631085908991367,0.0002537063092075757,0.056606180646047756,0.0,0.0,0.0,0.0,0.0,0.0,0.0,0.0,0.0,0.009145288622651113,0.3470746160674933,-0.001959241007223332,0.0,0.0,0.0,0.0,0.0,0.0,0.0,0.0,0.0
4.945,132,4,945000000,base_footprint,-0.003572553893451999,0.0014715761482981809,0.923979308356521,0.382422945246913,0.0,0.0,0.0,0.0,0.0,0.0,0.0,0.0,0.0,-0.00035668410562131385,0.0002309196500287428,0.05605333837000856,0.0,0.0,0.0,0.0,0.0,0.0,0.0,0.0,0.0,0.011626243009486,-0.005987260807988552,-0.00013381540505966985,0.0,0.0,0.0,0.0,0.0,0.0,0.0,0.0,0.0
4.979,133,4,979000000,base_footprint,-0.00357714861884676,0.0014699674172408647,0.9243414643782207,0.38154672116882027,0.0,0.0,0.0,0.0,0.0,0.0,0.0,0.0,0.0,-0.0002452650821756656,0.00022496792518541403,0.05553340833085717,0.0,0.0,0.0,0.0,0.0,0.0,0.0,0.0,0.0,0.011483361643513643,-0.004908132987520676,-0.00015161840097642994,0.0,0.0,0.0,0.0,0.0,0.0,0.0,0.0,0.0
5.013,134,5,13000000,base_footprint,-0.0035808727537967443,0.0014702978026962697,0.9244302757031958,0.38133145810174923,0.0,0.0,0.0,0.0,0.0,0.0,0.0,0.0,0.0,0.0014229476622871504,0.00017084079583929606,-0.019266790288484468,0.0,0.0,0.0,0.0,0.0,0.0,0.0,0.0,0.0,0.0066501160696367245,-0.3670972903710884,-0.0003860086765575773,0.0,0.0,0.0,0.0,0.0,0.0,0.0,0.0,0.0
5.047,135,5,47000000,base_footprint,-0.003584486294097656,0.0014727050768703468,0.9243021506914046,0.3816418698531491,0.0,0.0,0.0,0.0,0.0,0.0,0.0,0.0,0.0,0.00014834120760559555,-9.5299337613672e-05,-0.020448502468718408,0.0,0.0,0.0,0.0,0.0,0.0,0.0,0.0,0.0,-0.006172776461717107,0.005059102384562539,0.002139532430161595,0.0,0.0,0.0,0.0,0.0,0.0,0.0,0.0,0.0
5.081,136,5,81000000,base_footprint,-0.0035863461020655563,0.0014727693116617922,0.9241647304648841,0.38197450181518533,0.0,0.0,0.0,0.0,0.0,0.0,0.0,0.0,0.0,0.0014793620572877758,0.0021303805243674348,-0.019946454648274606,0.0,0.0,0.0,0.0,0.0,0.0,0.0,0.0,0.0,-0.006467099210993241,0.018181982798456307,0.008019241087924529,0.0,0.0,0.0,0.0,0.0,0.0,0.0,0.0,0.0
5.115,137,5,115000000,base_footprint,-0.0035754196046775526,0.001477290770857472,0.9242466239954589,0.38177639007621444,0.0,0.0,0.0,0.0,0.0,0.0,0.0,0.0,0.0,-2.464661403400151e-05,0.00528480577606782,0.03441861516755914,0.0,0.0,0.0,0.0,0.0,0.0,0.0,0.0,0.0,-0.004365543967379176,0.22021301237958252,-0.012420511779631015,0.0,0.0,0.0,0.0,0.0,0.0,0.0,0.0,0.0
5.149,138,5,149000000,base_footprint,-0.00358028945855699,0.0014671237600040988,0.9242212571484961,0.3818377887403487,0.0,0.0,0.0,0.0,0.0,0.0,0.0,0.0,0.0,-0.0003646461055891274,-0.00018768359090090355,-0.04149663519416131,0.0,0.0,0.0,0.0,0.0,0.0,0.0,0.0,0.0,0.017407247242944627,0.11943882835883612,0.003285072599759356,0.0,0.0,0.0,0.0,0.0,0.0,0.0,0.0,0.0
5.183,139,5,183000000,base_footprint,-0.0035770984377362022,0.0014733860240957498,0.9240502808131119,0.38225137282892774,0.0,0.0,0.0,0.0,0.0,0.0,0.0,0.0,0.0,-0.004481683541397627,-0.0009437647452353432,-0.013067289432771542,0.0,0.0,0.0,0.0,0.0,0.0,0.0,0.0,0.0,-0.009451287197393823,0.026434912475877665,0.01162761068923582,0.0,0.0,0.0,0.0,0.0,0.0,0.0,0.0,0.0
5.217,140,5,217000000,base_footprint,-0.003563520679323422,0.001465954509600435,0.9241446853783543,0.3820232359224851,0.0,0.0,0.0,0.0,0.0,0.0,0.0,0.0,0.0,-0.0001318950662206279,0.000799752479417824,0.03938340741489673,0.0,0.0,0.0,0.0,0.0,0.0,0.0,0.0,0.0,-0.0031295424456553173,-0.2492732644358544,-0.01572933261137133,0.0,0.0,0.0,0.0,0.0,0.0,0.0,0.0,0.0
5.251,141,5,251000000,base_footprint,-0.00357951086154579,0.0014686404189727166,0.9243297530830471,0.38157507487091613,0.0,0.0,0.0,0.0,0.0,0.0,0.0,0.0,0.0,-0.000422295855712327,0.00016829000076811618,0.024907204971069723,0.0,0.0,0.0,0.0,0.0,0.0,0.0,0.0,0.0,0.007608121944847227,-0.08863004170956211,0.005790766611176044,0.0,0.0,0.0,0.0,0.0,0.0,0.0,0.0,0.0
5.285,142,5,285000000,base_footprint,-0.003576272006897253,0.0014655122832735897,0.9244693207862111,0.3812368522026194,0.0,0.0,0.0,0.0,0.0,0.0,0.0,0.0,0.0,-0.0012470060122829023,0.0015481289365381979,-0.004901412945747748,0.0,0.0,0.0,0.0,0.0,0.0,0.0,0.0,0.0,0.0024050111187295885,-0.010933625747157363,0.0007697504401895591,0.0,0.0,0.0,0.0,0.0,0.0,0.0,0.0,0.0
5.319,143,5,319000000,base_footprint,-0.003574478995520629,0.0014658744259739836,0.9244366109631796,0.3813161767129595,0.0,0.0,0.0,0.0,0.0,0.0,0.0,0.0,0.0,-0.0002858941267490781,-0.0001357127346095924,-0.004824923428660371,0.0,0.0,0.0,0.0,0.0,0.0,0.0,0.0,0.0,0.0015459893216315831,-0.0072085430685023995,-0.0004540575543925722,0.0,0.0,0.0,0.0,0.0,0.0,0.0,0.0,0.0
5.353,144,5,353000000,base_footprint,-0.003572545665070465,0.001466566691865656,0.9244033269871196,0.3813968735513625,0.0,0.0,0.0,0.0,0.0,0.0,0.0,0.0,0.0,-0.0002048240928535445,-0.00011856203766617458,-0.005369363980136836,0.0,0.0,0.0,0.0,0.0,0.0,0.0,0.0,0.0,-0.0010835201519410883,-0.005846183525865772,-0.00013842871167744816,0.0,0.0,0.0,0.0,0.0,0.0,0.0,0.0,0.0
5.3870000000000005,145,5,387000000,base_footprint,-0.0035831450710162582,0.00147074530363794,0.9243691907108482,0.38147948469639037,0.0,0.0,0.0,0.0,0.0,0.0,0.0,0.0,0.0,-0.0009991655582279836,-0.00020720692864714527,-0.0021687682303081985,0.0,0.0,0.0,0.0,0.0,0.0,0.0,0.0,0.0,-0.0002226679728925679,0.19200690034824508,0.0007619646600174889,0.0,0.0,0.0,0.0,0.0,0.0,0.0,0.0,0.0
5.421,146,5,421000000,base_footprint,-0.003568229901842261,0.001465631453987714,0.9244368929339394,0.38131555258401534,0.0,0.0,0.0,0.0,0.0,0.0,0.0,0.0,0.0,0.0009283642192914662,0.00012502364875789488,0.016956950243028193,0.0,0.0,0.0,0.0,0.0,0.0,0.0,0.0,0.0,-0.005798327204428438,0.541002821965744,-0.00602643271440389,0.0,0.0,0.0,0.0,0.0,0.0,0.0,0.0,0.0
5.455,147,5,455000000,base_footprint,-0.00357554083363656,0.0014688000320806941,0.9244126599628585,0.3813742154821239,0.0,0.0,0.0,0.0,0.0,0.0,0.0,0.0,0.0,0.00037629906658287026,-0.00036003730337928394,-0.012892918161236026,0.0,0.0,0.0,0.0,0.0,0.0,0.0,0.0,0.0,0.004860616445581334,-0.4115037203764189,0.002354336085009858,0.0,0.0,0.0,0.0,0.0,0.0,0.0,0.0,0.0
5.489,148,5,489000000,base_footprint,-0.0035726324731086365,0.0014681688198124566,0.9243103422478236,0.3816221586743096,0.0,0.0,0.0,0.0,0.0,0.0,0.0,0.0,0.0,-0.0013255826003563302,-0.00011374088378720529,-0.030643092271637182,0.0,0.0,0.0,0.0,0.0,0.0,0.0,0.0,0.0,-0.0035704222380437203,-0.15793773594271693,0.003859452225367753,0.0,0.0,0.0,0.0,0.0,0.0,0.0,0.0,0.0
5.523,149,5,523000000,base_footprint,-0.0035826412117060083,0.0014759876483144553,0.9240274171338555,0.3823065766205785,0.0,0.0,0.0,0.0,0.0,0.0,0.0,0.0,0.0,0.00022200522831598596,-0.00026492935121768044,-0.044756535369267825,0.0,0.0,0.0,0.0,0.0,0.0,0.0,0.0,0.0,-0.0095970602972755,-0.19273733422635603,-0.001643807841217177,0.0,0.0,0.0,0.0,0.0,0.0,0.0,0.0,0.0
5.557,150,5,557000000,base_footprint,-0.003583373393282691,0.0014783441246794939,0.9237321468929358,0.38301944432409835,0.0,0.0,0.0,0.0,0.0,0.0,0.0,0.0,0.0,0.00017053947824989077,-0.0002048976717979225,-0.04612074722839393,0.0,0.0,0.0,0.0,0.0,0.0,0.0,0.0,0.0,-0.010499970748449132,0.00479592754932847,5.702019417634844e-05,0.0,0.0,0.0,0.0,0.0,0.0,0.0,0.0,0.0
5.591,151,5,591000000,base_footprint,-0.003566742015211509,0.0014818405456731374,0.9234484584290382,0.38370304549876455,0.0,0.0,0.0,0.0,0.0,0.0,0.0,0.0,0.0,0.0007254629518209305,-0.0009367394034235938,-0.02581474821986427,0.0,0.0,0.0,0.0,0.0,0.0,0.0,0.0,0.0,-0.0014418657606604067,0.07905468878654487,0.00029483091397792285,0.0,0.0,0.0,0.0,0.0,0.0,0.0,0.0,0.0
5.625,152,5,625000000,base_footprint,-0.003578071606692106,0.0014749230421546766,0.923338080608045,0.38396850249030656,0.0,0.0,0.0,0.0,0.0,0.0,0.0,0.0,0.0,0.0012162605727120083,0.000592144460233601,-0.027572792849434737,0.0,0.0,0.0,0.0,0.0,0.0,0.0,0.0,0.0,-0.0016283418738498312,0.19216441624022995,-0.004330933821387013,0.0,0.0,0.0,0.0,0.0,0.0,0.0,0.0,0.0
5.659,153,5,659000000,base_footprint,-0.0035751948195709747,0.001481297788841563,0.9232559223010928,0.38416601316985555,0.0,0.0,0.0,0.0,0.0,0.0,0.0,0.0,0.0,-0.0012687582977810347,0.0002474547465069945,0.006227048569494572,0.0,0.0,0.0,0.0,0.0,0.0,0.0,0.0,0.0,-0.005860587539925011,0.06616867456931252,0.004394862924472353,0.0,0.0,0.0,0.0,0.0,0.0,0.0,0.0,0.0
5.693,154,5,693000000,base_footprint,-0.0035644074411370756,0.0014725324338970818,0.9234944708567484,0.38359234734916076,0.0,0.0,0.0,0.0,0.0,0.0,0.0,0.0,0.0,-0.00046241908616394994,-0.00021326539043724934,0.06188135787773043,0.0,0.0,0.0,0.0,0.0,0.0,0.0,0.0,0.0,0.005835172720266983,-0.01379222479008503,-0.0001978400517573605,0.0,0.0,0.0,0.0,0.0,0.0,0.0,0.0,0.0
5.727,155,5,727000000,base_footprint,-0.0035828359821018624,0.0014703864027356306,0.9240851730228846,0.38216697168831537,0.0,0.0,0.0,0.0,0.0,0.0,0.0,0.0,0.0,-0.001115635608096387,0.0007080951410605666,0.10948592930951394,0.0,0.0,0.0,0.0,0.0,0.0,0.0,0.0,0.0,0.017865916835827028,-0.2605311193858595,0.0005276682857760295,0.0,0.0,0.0,0.0,0.0,0.0,0.0,0.0,0.0
5.761,156,5,761000000,base_footprint,-0.0035800482776299656,0.0014614077883429426,0.924806133054373,0.3804190634111592,0.0,0.0,0.0,0.0,0.0,0.0,0.0,0.0,0.0,-0.000886124997063809,0.0006926203756442183,0.11146100262585554,0.0,0.0,0.0,0.0,0.0,0.0,0.0,0.0,0.0,0.02321289202569781,0.0046393185336472504,-0.0002997734157476992,0.0,0.0,0.0,0.0,0.0,0.0,0.0,0.0,0.0
5.795,157,5,795000000,base_footprint,-0.003580918040801756,0.0014560309734506346,0.9253553421966474,0.3790811887550148,0.0,0.0,0.0,0.0,0.0,0.0,0.0,0.0,0.0,0.0007061867478207445,0.000413342301379442,0.04065463428455008,0.0,0.0,0.0,0.0,0.0,0.0,0.0,0.0,0.0,0.02263246995893748,-0.026352670345773925,-0.0013221912522277325,0.0,0.0,0.0,0.0,0.0,0.0,0.0,0.0,0.0
5.829,158,5,829000000,base_footprint,-0.0035779680424863633,0.001453790605196574,0.9256218062173809,0.378430121016333,0.0,0.0,0.0,0.0,0.0,0.0,0.0,0.0,0.0,-0.0005003811990451452,0.00011102022345019935,0.04130114012584349,0.0,0.0,0.0,0.0,0.0,0.0,0.0,0.0,0.0,0.0060968396885986475,-0.0024135270229066587,0.0017909394552886057,0.0,0.0,0.0,0.0,0.0,0.0,0.0,0.0,0.0
5.863,159,5,863000000,base_footprint,-0.0035782515565377917,0.0014521232696268664,0.9258856316732413,0.37778417716316637,0.0,0.0,0.0,0.0,0.0,0.0,0.0,0.0,0.0,-0.0003987425710219033,0.00012046215992102557,0.040868143518255254,0.0,0.0,0.0,0.0,0.0,0.0,0.0,0.0,0.0,0.009039476077344405,-0.005569684541026188,-0.00010576316940113754,0.0,0.0,0.0,0.0,0.0,0.0,0.0,0.0,0.0
5.897,160,5,897000000,base_footprint,-0.0035845319962630475,0.0014501609327430259,0.9261731159087944,0.37707878159799996,0.0,0.0,0.0,0.0,0.0,0.0,0.0,0.0,0.0,-0.0004615391397331512,0.00047110095865586466,0.054976840436341864,0.0,0.0,0.0,0.0,0.0,0.0,0.0,0.0,0.0,-0.0017119860233876516,0.45694786664047127,-0.003090461453612138,0.0,0.0,0.0,0.0,0.0,0.0,0.0,0.0,0.0
5.931,161,5,931000000,base_footprint,-0.00357924579668581,0.0014504809480257632,0.9261477110726579,0.37714122338909445,0.0,0.0,0.0,0.0,0.0,0.0,0.0,0.0,0.0,0.0001700930189608496,0.0001404009076839421,0.005267255021320137,0.0,0.0,0.0,0.0,0.0,0.0,0.0,0.0,0.0,0.0031453332705389386,-0.06673101310204901,0.00027772240401878435,0.0,0.0,0.0,0.0,0.0,0.0,0.0,0.0,0.0
5.965,162,5,965000000,base_footprint,-0.003586696001602653,0.001452250764396719,0.9263494602449541,0.376645329299849,0.0,0.0,0.0,0.0,0.0,0.0,0.0,0.0,0.0,-0.00015329034093752993,6.011646853714078e-05,0.03304470258190695,0.0,0.0,0.0,0.0,0.0,0.0,0.0,0.0,0.0,0.0059381462639017946,-0.06566594832307777,0.0005195834424492426,0.0,0.0,0.0,0.0,0.0,0.0,0.0,0.0,0.0
5.9990000000000006,163,5,999000000,base_footprint,-0.0035826732249362734,0.0014477705517252147,0.9264672607189385,0.376355527698132,0.0,0.0,0.0,0.0,0.0,0.0,0.0,0.0,0.0,-0.0002898135030720377,-9.520075908676176e-05,-0.016844841971083914,0.0,0.0,0.0,0.0,0.0,0.0,0.0,0.0,0.0,0.013291636470727078,-0.28250043999036806,0.0024244542838678233,0.0,0.0,0.0,0.0,0.0,0.0,0.0,0.0,0.0
6.033,164,6,33000000,base_footprint,-0.0035924945817268563,0.0014549892734826363,0.9262621345256342,0.376859967538223,0.0,0.0,0.0,0.0,0.0,0.0,0.0,0.0,0.0,-3.2730748122102414e-05,-0.0001013913438624224,-0.03529833637997146,0.0,0.0,0.0,0.0,0.0,0.0,0.0,0.0,0.0,-0.007594209079765355,-0.070530485243664,-0.0002033171433096731,0.0,0.0,0.0,0.0,0.0,0.0,0.0,0.0,0.0
6.066,165,6,67000000,base_footprint,-0.0035908507358488767,0.001451006834257558,0.9260236786023127,0.37744555506456884,0.0,0.0,0.0,0.0,0.0,0.0,0.0,0.0,0.0,-7.56505062785042e-05,0.00029726407425453475,-0.04175571963635594,0.0,0.0,0.0,0.0,0.0,0.0,0.0,0.0,0.0,-0.003808911527533228,0.020359722278752494,-5.001387884886846e-05,0.0,0.0,0.0,0.0,0.0,0.0,0.0,0.0,0.0
6.101,166,6,101000000,base_footprint,-0.003592216804304685,0.001450182614964049,0.9257528965948428,0.3781092003576117,0.0,0.0,0.0,0.0,0.0,0.0,0.0,0.0,0.0,-0.000320190348413526,-0.0010954353758620549,-0.023724583978573084,0.0,0.0,0.0,0.0,0.0,0.0,0.0,0.0,0.0,-0.016465657548984703,0.07519470911892767,-0.0011133026532570292,0.0,0.0,0.0,0.0,0.0,0.0,0.0,0.0,0.0
6.135,167,6,135000000,base_footprint,-0.0035880307539860206,0.001461014668829086,0.9257697238880486,0.37806799627010534,0.0,0.0,0.0,0.0,0.0,0.0,0.0,0.0,0.0,-0.00022755511784972762,0.00037457281192421584,0.024743393357543924,0.0,0.0,0.0,0.0,0.0,0.0,0.0,0.0,0.0,0.00188230450278744,-0.0024361927960843744,0.00027829515595709995,0.0,0.0,0.0,0.0,0.0,0.0,0.0,0.0,0.0
6.169,168,6,169000000,base_footprint,-0.003587962443285129,0.0014558117788189913,0.9258785129158171,0.3778015172790673,0.0,0.0,0.0,0.0,0.0,0.0,0.0,0.0,0.0,0.0002918767675816994,0.0005495257517694592,0.0058834541698622725,0.0,0.0,0.0,0.0,0.0,0.0,0.0,0.0,0.0,0.006142826066008756,-0.039768480091440475,-0.0007931678226666971,0.0,0.0,0.0,0.0,0.0,0.0,0.0,0.0,0.0
6.203,169,6,203000000,base_footprint,-0.003589260603871996,0.0014570432751208006,0.9255833122265075,0.37852414237538345,0.0,0.0,0.0,0.0,0.0,0.0,0.0,0.0,0.0,0.00019091492356472105,0.0003689988029765617,-0.08471392697731432,0.0,0.0,0.0,0.0,0.0,0.0,0.0,0.0,0.0,-0.00760783503555299,-0.04263237264973966,0.0015468408817713995,0.0,0.0,0.0,0.0,0.0,0.0,0.0,0.0,0.0
6.237,170,6,237000000,base_footprint,-0.003582428481662806,0.0014597252869375371,0.925044220201678,0.3798397373626539,0.0,0.0,0.0,0.0,0.0,0.0,0.0,0.0,0.0,0.00010922054331321869,-0.00044422879140982186,-0.08373126922361179,0.0,0.0,0.0,0.0,0.0,0.0,0.0,0.0,0.0,-0.019612265719866937,0.0009450645923474122,0.0003534980165184163,0.0,0.0,0.0,0.0,0.0,0.0,0.0,0.0,0.0
6.271,171,6,271000000,base_footprint,-0.003576655451053027,0.00146456917931299,0.9245017010610836,0.3811583231520287,0.0,0.0,0.0,0.0,0.0,0.0,0.0,0.0,0.0,9.456190084778846e-05,-0.0005868406517040524,-0.08401143942368994,0.0,0.0,0.0,0.0,0.0,0.0,0.0,0.0,0.0,-0.018527823815515928,-0.005169835457442378,0.00010319914413767632,0.0,0.0,0.0,0.0,0.0,0.0,0.0,0.0,0.0
6.305,172,6,305000000,base_footprint,-0.0035725344918789894,0.0014667170184077562,0.9242919983876683,0.3816665920080284,0.0,0.0,0.0,0.0,0.0,0.0,0.0,0.0,0.0,-0.00026048328977088756,-0.00013608762851633223,-0.007343619293418222,0.0,0.0,0.0,0.0,0.0,0.0,0.0,0.0,0.0,-0.007723598811713567,0.014965971502983202,-0.000316408351333317,0.0,0.0,0.0,0.0,0.0,0.0,0.0,0.0,0.0
6.339,173,6,339000000,base_footprint,-0.0035719035475406083,0.001467935320758601,0.9242420605489357,0.3817875065834382,0.0,0.0,0.0,0.0,0.0,0.0,0.0,0.0,0.0,-0.0001367114710035571,-0.0001295027002562011,-0.007911442737889797,0.0,0.0,0.0,0.0,0.0,0.0,0.0,0.0,0.0,-0.001987990367058413,-0.00605966662027124,-0.0001594376560076869,0.0,0.0,0.0,0.0,0.0,0.0,0.0,0.0,0.0
6.373,174,6,373000000,base_footprint,-0.003572491654136324,0.001469443998421477,0.9241887514061982,0.3819165220463355,0.0,0.0,0.0,0.0,0.0,0.0,0.0,0.0,0.0,-4.79327504029141e-05,-0.00012517926370001877,-0.008435265801652804,0.0,0.0,0.0,0.0,0.0,0.0,0.0,0.0,0.0,-0.0018861921492044206,-0.0057368718648075695,-0.00016304951512461553,0.0,0.0,0.0,0.0,0.0,0.0,0.0,0.0,0.0
6.407,175,6,407000000,base_footprint,-0.0035754677843230567,0.0014687767294432558,0.924416808997654,0.38136415925941064,0.0,0.0,0.0,0.0,0.0,0.0,0.0,0.0,0.0,-0.00015354968734409877,0.0001928386733491741,0.04971532892167291,0.0,0.0,0.0,0.0,0.0,0.0,0.0,0.0,0.0,0.007138628613433613,0.010071395138884888,-0.0003736966614728047,0.0,0.0,0.0,0.0,0.0,0.0,0.0,0.0,0.0
6.441,176,6,441000000,base_footprint,-0.0035809626706527478,0.001467714331914752,0.9247361050786234,0.3805892253926909,0.0,0.0,0.0,0.0,0.0,0.0,0.0,0.0,0.0,-0.0001643343762761792,0.00017559370234555323,0.04884852338421209,0.0,0.0,0.0,0.0,0.0,0.0,0.0,0.0,0.0,0.01036572508995843,-0.004482211464409729,-9.395257455661448e-05,0.0,0.0,0.0,0.0,0.0,0.0,0.0,0.0,0.0
6.475,177,6,475000000,base_footprint,-0.0035861110015819823,0.0014660711793627731,0.9250476883686822,0.37983123184769685,0.0,0.0,0.0,0.0,0.0,0.0,0.0,0.0,0.0,-0.00021850366564370142,0.00025859943193821115,0.04746015372594423,0.0,0.0,0.0,0.0,0.0,0.0,0.0,0.0,0.0,0.009474245717461407,-0.001299764312287917,9.237368393002301e-06,0.0,0.0,0.0,0.0,0.0,0.0,0.0,0.0,0.0
6.509,178,6,509000000,base_footprint,-0.0035727470613655153,0.0014536459916284262,0.925530216015051,0.37865411873489463,0.0,0.0,0.0,0.0,0.0,0.0,0.0,0.0,0.0,-0.001154655356973358,0.0005289957641469551,0.10971763369045591,0.0,0.0,0.0,0.0,0.0,0.0,0.0,0.0,0.0,0.01109056215472265,0.39587184873952047,-0.0007197000639242527,0.0,0.0,0.0,0.0,0.0,0.0,0.0,0.0,0.0
6.543,179,6,543000000,base_footprint,-0.003586956681371428,0.001459756584255383,0.9258812188828872,0.3777948800240943,0.0,0.0,0.0,0.0,0.0,0.0,0.0,0.0,0.0,0.0008929331025118109,0.0011054983180103348,0.001413184330776319,0.0,0.0,0.0,0.0,0.0,0.0,0.0,0.0,0.0,0.017120855617731058,-0.036990189799871856,-0.002496352091424825,0.0,0.0,0.0,0.0,0.0,0.0,0.0,0.0,0.0
6.577,180,6,577000000,base_footprint,-0.0035891803347844692,0.0014521579518280326,0.9258852647826463,0.3777849725441395,0.0,0.0,0.0,0.0,0.0,0.0,0.0,0.0,0.0,-0.0008032688249411824,0.0005007406339106518,0.0005893066067053125,0.0,0.0,0.0,0.0,0.0,0.0,0.0,0.0,0.0,-0.005049166905680396,0.04987589209042907,0.0028583637079532286,0.0,0.0,0.0,0.0,0.0,0.0,0.0,0.0,0.0
6.611,181,6,611000000,base_footprint,-0.003582624519129805,0.0014629299938859342,0.9257014169064665,0.37823525929604784,0.0,0.0,0.0,0.0,0.0,0.0,0.0,0.0,0.0,0.001826590782083843,-0.0010843895063490788,-0.028767599779924862,0.0,0.0,0.0,0.0,0.0,0.0,0.0,0.0,0.0,-0.007491072418766408,0.08185466404598533,-0.004779054690439394,0.0,0.0,0.0,0.0,0.0,0.0,0.0,0.0,0.0
6.645,182,6,645000000,base_footprint,-0.003575710253992036,0.0014661474781033144,0.9254624285772834,0.3788196906175661,0.0,0.0,0.0,0.0,0.0,0.0,0.0,0.0,0.0,-5.853792792160164e-05,-0.00010752680063315706,-0.04889050726290427,0.0,0.0,0.0,0.0,0.0,0.0,0.0,0.0,0.0,-0.005059117080357856,-0.04465022909968241,0.002431456681458073,0.0,0.0,0.0,0.0,0.0,0.0,0.0,0.0,0.0
6.679,183,6,679000000,base_footprint,-0.003586167544684062,0.0014653382371728541,0.9249981847191825,0.37995177385085266,0.0,0.0,0.0,0.0,0.0,0.0,0.0,0.0,0.0,9.651550884811288e-05,-0.00014455872126883782,-0.08696709570658892,0.0,0.0,0.0,0.0,0.0,0.0,0.0,0.0,0.0,-0.01254668953373917,-0.10653355878809147,0.0018487344945790133,0.0,0.0,0.0,0.0,0.0,0.0,0.0,0.0,0.0
6.713,184,6,713000000,base_footprint,-0.0035798391245275216,0.00146419594332906,0.9248439185767713,0.38032718434743046,0.0,0.0,0.0,0.0,0.0,0.0,0.0,0.0,0.0,-0.0002466316700864678,-2.2803011171990584e-05,-0.016664785159311166,0.0,0.0,0.0,0.0,0.0,0.0,0.0,0.0,0.0,-0.0070356748681001955,0.018778667617009182,-0.00025740056373804374,0.0,0.0,0.0,0.0,0.0,0.0,0.0,0.0,0.0
6.747,185,6,747000000,base_footprint,-0.0035779360682488587,0.0014637382372258174,0.9247351348058575,0.3805916266806947,0.0,0.0,0.0,0.0,0.0,0.0,0.0,0.0,0.0,-0.00013632401565362253,-2.086060095788167e-05,-0.01708669186317297,0.0,0.0,0.0,0.0,0.0,0.0,0.0,0.0,0.0,-0.004373479230124604,-0.005178082892883196,-0.0001008548780463429,0.0,0.0,0.0,0.0,0.0,0.0,0.0,0.0,0.0
6.781,186,6,781000000,base_footprint,-0.0035724572479927013,0.001464238462361037,0.9246229100418322,0.3808642379913221,0.0,0.0,0.0,0.0,0.0,0.0,0.0,0.0,0.0,-0.004404746103339687,-0.0008062570966818837,-0.017471195726681116,0.0,0.0,0.0,0.0,0.0,0.0,0.0,0.0,0.0,-0.0028023113136894044,-0.031315109794503276,0.005533234396933134,0.0,0.0,0.0,0.0,0.0,0.0,0.0,0.0,0.0
6.815,187,6,815000000,base_footprint,-0.0035730547412694807,0.001463820256671986,0.9247466719087158,0.38056363896702744,0.0,0.0,0.0,0.0,0.0,0.0,0.0,0.0,0.0,-0.0005288903564844358,0.00012372089745951676,0.042235315812991364,0.0,0.0,0.0,0.0,0.0,0.0,0.0,0.0,0.0,0.0053267880938398515,-0.30466548530744314,-0.00349120957490034,0.0,0.0,0.0,0.0,0.0,0.0,0.0,0.0,0.0
6.849,188,6,849000000,base_footprint,-0.0035744937399782148,0.0014620433098708572,0.9250174862405904,0.3799049033284539,0.0,0.0,0.0,0.0,0.0,0.0,0.0,0.0,0.0,-0.0003631547327350024,0.0001527519376204492,0.04165732502107597,0.0,0.0,0.0,0.0,0.0,0.0,0.0,0.0,0.0,0.009552631473327779,-0.005389805081415228,-0.0002159692066773863,0.0,0.0,0.0,0.0,0.0,0.0,0.0,0.0,0.0
6.883,189,6,883000000,base_footprint,-0.003582237345247388,0.0014617449535408531,0.9252855388485272,0.37925150293055404,0.0,0.0,0.0,0.0,0.0,0.0,0.0,0.0,0.0,0.0014393221604504735,0.0008346946946276553,0.04458815309623884,0.0,0.0,0.0,0.0,0.0,0.0,0.0,0.0,0.0,0.009418609835390054,0.07342092240099812,-0.001783491949038314,0.0,0.0,0.0,0.0,0.0,0.0,0.0,0.0,0.0
6.917,190,6,917000000,base_footprint,-0.0035803789683848545,0.0014590873192474323,0.9255857587323382,0.37851823626150366,0.0,0.0,0.0,0.0,0.0,0.0,0.0,0.0,0.0,-0.0002732287445407246,0.0003412049186366995,0.013757802656932772,0.0,0.0,0.0,0.0,0.0,0.0,0.0,0.0,0.0,-0.003408882556992926,0.5183223420697363,0.001476437349174492,0.0,0.0,0.0,0.0,0.0,0.0,0.0,0.0,0.0
6.9510000000000005,191,6,951000000,base_footprint,-0.003586362011745081,0.0014591478927595345,0.9257195799639064,0.3781907827623465,0.0,0.0,0.0,0.0,0.0,0.0,0.0,0.0,0.0,-0.000832042948786759,0.00015883106657081292,0.03237011693539363,0.0,0.0,0.0,0.0,0.0,0.0,0.0,0.0,0.0,0.01116195013851215,-0.26548519229752543,-0.00029397375722384396,0.0,0.0,0.0,0.0,0.0,0.0,0.0,0.0,0.0
6.985,192,6,985000000,base_footprint,-0.003589367958281023,0.0014566832731617149,0.9259160082936136,0.37770959757083583,0.0,0.0,0.0,0.0,0.0,0.0,0.0,0.0,0.0,-0.0024453471356780374,0.00027477098543671826,0.01830601842326355,0.0,0.0,0.0,0.0,0.0,0.0,0.0,0.0,0.0,0.007044689700978844,-0.06397903711119773,0.005423073293818327,0.0,0.0,0.0,0.0,0.0,0.0,0.0,0.0,0.0
7.019,193,7,19000000,base_footprint,-0.0035826416445067216,0.0014552805841706144,0.9257438256461415,0.37813147993166984,0.0,0.0,0.0,0.0,0.0,0.0,0.0,0.0,0.0,0.0012601103929767519,0.0005421680163308083,-0.060503501733193486,0.0,0.0,0.0,0.0,0.0,0.0,0.0,0.0,0.0,0.0031211552676264354,-0.27146863050900993,-0.006262559682079021,0.0,0.0,0.0,0.0,0.0,0.0,0.0,0.0,0.0
7.053,194,7,53000000,base_footprint,-0.003588067325367209,0.0014539429576060972,0.9253751118064285,0.37903286700757854,0.0,0.0,0.0,0.0,0.0,0.0,0.0,0.0,0.0,0.0005130626665801592,-0.0005486297768724242,-0.06722085788503138,0.0,0.0,0.0,0.0,0.0,0.0,0.0,0.0,0.0,-0.013928284087639768,0.04488126177290119,0.00045014123252123137,0.0,0.0,0.0,0.0,0.0,0.0,0.0,0.0,0.0
7.087,195,7,87000000,base_footprint,-0.003578772854775767,0.0014568502762027586,0.9249726481463244,0.38001403941604933,0.0,0.0,0.0,0.0,0.0,0.0,0.0,0.0,0.0,-0.0007063637114973565,0.0003469460613402982,-0.043938019287229395,0.0,0.0,0.0,0.0,0.0,0.0,0.0,0.0,0.0,-0.0006203263669128196,0.0069841858236945695,0.0024757318569040266,0.0,0.0,0.0,0.0,0.0,0.0,0.0,0.0,0.0
7.121,196,7,121000000,base_footprint,-0.0035857419391346706,0.0014665075228677109,0.9249247654822238,0.3801304644567241,0.0,0.0,0.0,0.0,0.0,0.0,0.0,0.0,0.0,-0.0004748499882099687,0.0006841361122081413,0.003928973046276187,0.0,0.0,0.0,0.0,0.0,0.0,0.0,0.0,0.0,-0.014642896983899083,-0.00935027483529163,-0.0015832848660789081,0.0,0.0,0.0,0.0,0.0,0.0,0.0,0.0,0.0
7.155,197,7,155000000,base_footprint,-0.003585659088426171,0.001465027181314612,0.9249118662806968,0.38016185547397846,0.0,0.0,0.0,0.0,0.0,0.0,0.0,0.0,0.0,-0.00030395665083723716,9.310726729247097e-05,-0.00014405737598808356,0.0,0.0,0.0,0.0,0.0,0.0,0.0,0.0,0.0,-0.0007799203867373148,-0.017858700096846217,5.906069486858358e-05,0.0,0.0,0.0,0.0,0.0,0.0,0.0,0.0,0.0
7.189,198,7,189000000,base_footprint,-0.003569748944135841,0.001461789142923568,0.9248167461377427,0.38039335710311206,0.0,0.0,0.0,0.0,0.0,0.0,0.0,0.0,0.0,-0.0036218806653713852,0.0021240432619200945,-0.08318343411859017,0.0,0.0,0.0,0.0,0.0,0.0,0.0,0.0,0.0,-0.003543085751150716,0.0031545998585303893,0.003004938507244301,0.0,0.0,0.0,0.0,0.0,0.0,0.0,0.0,0.0
7.223,199,7,223000000,base_footprint,-0.0035774160984073447,0.001467550989966115,0.9242380662857654,0.38179712573106134,0.0,0.0,0.0,0.0,0.0,0.0,0.0,0.0,0.0,0.0001233112565498963,-0.0005858545993454277,-0.08947199270327344,0.0,0.0,0.0,0.0,0.0,0.0,0.0,0.0,0.0,-0.01804488780569549,-0.03646805522314551,-0.002532301352462601,0.0,0.0,0.0,0.0,0.0,0.0,0.0,0.0,0.0
7.257,200,7,257000000,base_footprint,-0.0035715011514792323,0.0014731533250183933,0.9236546488627126,0.3832064245718029,0.0,0.0,0.0,0.0,0.0,0.0,0.0,0.0,0.0,0.00017912997156609183,-0.0005963361347404513,-0.08997443145583035,0.0,0.0,0.0,0.0,0.0,0.0,0.0,0.0,0.0,-0.0198893835938553,-0.0054895127834166165,-0.0001860451866150186,0.0,0.0,0.0,0.0,0.0,0.0,0.0,0.0,0.0
7.291,201,7,291000000,base_footprint,-0.003567198459428341,0.0014777036743140871,0.9231952018067384,0.38431199675266137,0.0,0.0,0.0,0.0,0.0,0.0,0.0,0.0,0.0,-0.0004715763791032221,0.00015616287327153348,-0.013013686564692465,0.0,0.0,0.0,0.0,0.0,0.0,0.0,0.0,0.0,-0.01959597702566636,0.01699558405759101,-0.00014712740523155967,0.0,0.0,0.0,0.0,0.0,0.0,0.0,0.0,0.0
7.325,202,7,325000000,base_footprint,-0.0035675828827972586,0.0014791915449840975,0.9230988067063256,0.3845434662064945,0.0,0.0,0.0,0.0,0.0,0.0,0.0,0.0,0.0,-6.168971926096722e-05,-0.0001511919443098841,-0.0152298705406672,0.0,0.0,0.0,0.0,0.0,0.0,0.0,0.0,0.0,-0.00010238958659284248,-0.008393380452817206,-0.00035317071023827345,0.0,0.0,0.0,0.0,0.0,0.0,0.0,0.0,0.0
7.359,203,7,359000000,base_footprint,-0.0035688713921529255,0.001481150706615637,0.9229972088511399,0.38478724225547783,0.0,0.0,0.0,0.0,0.0,0.0,0.0,0.0,0.0,4.063549177534857e-05,-0.00014607334514867162,-0.015779006540504646,0.0,0.0,0.0,0.0,0.0,0.0,0.0,0.0,0.0,-0.003554097932905338,-0.005629170788368587,-0.00020196786205339354,0.0,0.0,0.0,0.0,0.0,0.0,0.0,0.0,0.0
7.393,204,7,393000000,base_footprint,-0.0035683453067858624,0.0014807809573147979,0.922912263141755,0.38499094631184794,0.0,0.0,0.0,0.0,0.0,0.0,0.0,0.0,0.0,0.0007742779738144298,-2.665952067433617e-05,-0.0011993362396396014,0.0,0.0,0.0,0.0,0.0,0.0,0.0,0.0,0.0,9.078828396018312e-05,0.30016569776937585,-0.0021829381973965858,0.0,0.0,0.0,0.0,0.0,0.0,0.0,0.0,0.0
7.427,205,7,427000000,base_footprint,-0.003567784032391806,0.001480110668183017,0.9229817360922836,0.3848243690692971,0.0,0.0,0.0,0.0,0.0,0.0,0.0,0.0,0.0,0.001547866486167286,2.4109224676952196e-06,-0.0019221427737671647,0.0,0.0,0.0,0.0,0.0,0.0,0.0,0.0,0.0,0.004373253462856164,0.17071789828726328,-0.0018820165105299619,0.0,0.0,0.0,0.0,0.0,0.0,0.0,0.0,0.0
7.461,206,7,461000000,base_footprint,-0.0035786439092233046,0.0014868550716464208,0.9228371936267077,0.38517073698419674,0.0,0.0,0.0,0.0,0.0,0.0,0.0,0.0,0.0,6.455561537567009e-05,-0.00010729716701956899,-0.026278336579984095,0.0,0.0,0.0,0.0,0.0,0.0,0.0,0.0,0.0,-0.007363687163498174,-0.13940937017269422,0.0019447579200415216,0.0,0.0,0.0,0.0,0.0,0.0,0.0,0.0,0.0
7.495,207,7,495000000,base_footprint,-0.003582744698883091,0.0014850835149261424,0.9227561810809894,0.3853647476666808,0.0,0.0,0.0,0.0,0.0,0.0,0.0,0.0,0.0,-0.00016502303484599705,0.0003937334327000621,0.022026131971234805,0.0,0.0,0.0,0.0,0.0,0.0,0.0,0.0,0.0,-0.004839743490960155,0.0640166054599655,-0.0007924690636422001,0.0,0.0,0.0,0.0,0.0,0.0,0.0,0.0,0.0
7.529,208,7,529000000,base_footprint,-0.0035700754359023197,0.0014783175386157087,0.9227847275581395,0.3852965296029636,0.0,0.0,0.0,0.0,0.0,0.0,0.0,0.0,0.0,0.0013635063302717663,9.515673051716683e-05,-0.025201960716939305,0.0,0.0,0.0,0.0,0.0,0.0,0.0,0.0,0.0,0.007334486438006875,-0.030988046060262592,-0.0002580221074743229,0.0,0.0,0.0,0.0,0.0,0.0,0.0,0.0,0.0
7.562,209,7,563000000,base_footprint,-0.0035584449280852103,0.0014726282611367825,0.9225253980692344,0.3859171656623982,0.0,0.0,0.0,0.0,0.0,0.0,0.0,0.0,0.0,0.00030837911602644497,-0.0018011137161204863,-0.031034156125835214,0.0,0.0,0.0,0.0,0.0,0.0,0.0,0.0,0.0,0.004568314248463717,-0.014901706527434132,0.001099446377474285,0.0,0.0,0.0,0.0,0.0,0.0,0.0,0.0,0.0
7.597,210,7,597000000,base_footprint,-0.003558303064640424,0.0014812548740734724,0.9225094125995102,0.385955344604275,0.0,0.0,0.0,0.0,0.0,0.0,0.0,0.0,0.0,-0.00045876956854990397,-0.0010657799788226878,0.021345267894385483,0.0,0.0,0.0,0.0,0.0,0.0,0.0,0.0,0.0,-0.015118650545757461,-0.09002339360696598,0.004128168734966021,0.0,0.0,0.0,0.0,0.0,0.0,0.0,0.0,0.0
7.631,211,7,631000000,base_footprint,-0.0035668789807256165,0.001488805690141723,0.9227125528539247,0.3854693316435784,0.0,0.0,0.0,0.0,0.0,0.0,0.0,0.0,0.0,0.00036046902352398114,0.0007773380083867499,0.01461195496451087,0.0,0.0,0.0,0.0,0.0,0.0,0.0,0.0,0.0,0.0020071635536271365,-0.18772423036643524,-0.004348487706506578,0.0,0.0,0.0,0.0,0.0,0.0,0.0,0.0,0.0
7.664,212,7,665000000,base_footprint,-0.0035732682843920022,0.001484481977968148,0.9227295815562286,0.3854285243571005,0.0,0.0,0.0,0.0,0.0,0.0,0.0,0.0,0.0,-0.0003416696255854069,0.0001380283231140288,0.0020879739579724487,0.0,0.0,0.0,0.0,0.0,0.0,0.0,0.0,0.0,-0.000589138956224174,-0.04014390856514857,0.002506640897335306,0.0,0.0,0.0,0.0,0.0,0.0,0.0,0.0,0.0
7.699,213,7,699000000,base_footprint,-0.0035768905349848907,0.0014869378523150345,0.922705153090751,0.3854869587024932,0.0,0.0,0.0,0.0,0.0,0.0,0.0,0.0,0.0,0.0011061831471989522,-0.00013612287776046058,-0.017261638865926018,0.0,0.0,0.0,0.0,0.0,0.0,0.0,0.0,0.0,0.005612593198029259,0.4760112081923101,-0.003907627221880404,0.0,0.0,0.0,0.0,0.0,0.0,0.0,0.0,0.0
7.7330000000000005,214,7,733000000,base_footprint,-0.0035589980392832453,0.0014825431071896218,0.922731750047534,0.3854234723691682,0.0,0.0,0.0,0.0,0.0,0.0,0.0,0.0,0.0,0.0016309279398066556,-0.0008679591688149854,0.0034135993934276488,0.0,0.0,0.0,0.0,0.0,0.0,0.0,0.0,0.0,-0.000687629820645061,-0.11480122603788888,6.414424606148442e-05,0.0,0.0,0.0,0.0,0.0,0.0,0.0,0.0,0.0
7.767,215,7,767000000,base_footprint,-0.0035658083678146387,0.0014828647726035408,0.9226876115328531,0.38552906199993425,0.0,0.0,0.0,0.0,0.0,0.0,0.0,0.0,0.0,-0.00020756975695459694,-0.00010885309810006619,-0.0069515304976670925,0.0,0.0,0.0,0.0,0.0,0.0,0.0,0.0,0.0,-0.0019005324116382026,-0.03693718421096985,0.0020574235461520646,0.0,0.0,0.0,0.0,0.0,0.0,0.0,0.0,0.0
7.801,216,7,801000000,base_footprint,-0.003563893759695363,0.0014819893836466194,0.9227144452439796,0.38546485560532173,0.0,0.0,0.0,0.0,0.0,0.0,0.0,0.0,0.0,0.0003457960410227942,0.00046678561471182555,0.048698611346505355,0.0,0.0,0.0,0.0,0.0,0.0,0.0,0.0,0.0,-0.004003116660431821,-0.32581747464661337,0.0012994692496091005,0.0,0.0,0.0,0.0,0.0,0.0,0.0,0.0,0.0
7.835,217,7,835000000,base_footprint,-0.0035677666468402775,0.0014807567776111382,0.9230413025965037,0.38468146836242145,0.0,0.0,0.0,0.0,0.0,0.0,0.0,0.0,0.0,-0.000352429577938205,0.00021360375486304626,0.049679201517345443,0.0,0.0,0.0,0.0,0.0,0.0,0.0,0.0,0.0,0.011011151699836044,-0.011073195318484616,0.00024137877988824783,0.0,0.0,0.0,0.0,0.0,0.0,0.0,0.0,0.0
7.869,218,7,869000000,base_footprint,-0.003571872564826372,0.0014791118569944825,0.9233638622750484,0.3839065404483239,0.0,0.0,0.0,0.0,0.0,0.0,0.0,0.0,0.0,-0.00023515821832311015,0.0002121759560336348,0.049121950902378406,0.0,0.0,0.0,0.0,0.0,0.0,0.0,0.0,0.0,0.010671464762088988,-0.005520829502928359,-0.00015979836283778199,0.0,0.0,0.0,0.0,0.0,0.0,0.0,0.0,0.0
7.9030000000000005,219,7,903000000,base_footprint,-0.003573902286744976,0.0014705964372558186,0.9237475440267108,0.38298242710754204,0.0,0.0,0.0,0.0,0.0,0.0,0.0,0.0,0.0,0.001702747075221991,0.002031950917642647,0.06832752228813313,0.0,0.0,0.0,0.0,0.0,0.0,0.0,0.0,0.0,0.011038400215533095,0.4737281043411593,-0.006506170280570597,0.0,0.0,0.0,0.0,0.0,0.0,0.0,0.0,0.0
7.937,220,7,937000000,base_footprint,-0.003577973926116777,0.0014704587267752268,0.9239317605858359,0.38253775974990284,0.0,0.0,0.0,0.0,0.0,0.0,0.0,0.0,0.0,-0.0008471436619144157,0.0013407147321343239,0.040154722386601144,0.0,0.0,0.0,0.0,0.0,0.0,0.0,0.0,0.0,0.008679821712309535,-0.14397251265414004,0.005375921841548071,0.0,0.0,0.0,0.0,0.0,0.0,0.0,0.0,0.0
7.971,221,7,971000000,base_footprint,-0.003585471898138429,0.0014728438874869205,0.924188767343639,0.38191634874406194,0.0,0.0,0.0,0.0,0.0,0.0,0.0,0.0,0.0,-0.00028269823692529867,0.0002454867081853353,0.03874031022770458,0.0,0.0,0.0,0.0,0.0,0.0,0.0,0.0,0.0,0.004725302798651651,0.0018112983073601085,-0.0006448704514876373,0.0,0.0,0.0,0.0,0.0,0.0,0.0,0.0,0.0
8.005,222,8,5000000,base_footprint,-0.003575094987417962,0.0014651379488001914,0.9242910559593777,0.3816688563927121,0.0,0.0,0.0,0.0,0.0,0.0,0.0,0.0,0.0,-0.0004560532551784826,0.00030134005824913803,-0.02126553009045476,0.0,0.0,0.0,0.0,0.0,0.0,0.0,0.0,0.0,0.008893923231236174,-0.11368752939055907,0.0020435632509920865,0.0,0.0,0.0,0.0,0.0,0.0,0.0,0.0,0.0
8.039,223,8,39000000,base_footprint,-0.00357046340560615,0.0014643355694594542,0.923944113429247,0.3825080166112234,0.0,0.0,0.0,0.0,0.0,0.0,0.0,0.0,0.0,-0.0010348117319803913,1.4669461762060966e-05,-0.0640775668821369,0.0,0.0,0.0,0.0,0.0,0.0,0.0,0.0,0.0,-0.008957177611051022,-0.03226818126340532,0.0023222401997006173,0.0,0.0,0.0,0.0,0.0,0.0,0.0,0.0,0.0
8.073,224,8,73000000,base_footprint,-0.0035727873853139552,0.0014721398293970776,0.9237048350477849,0.3830854287283276,0.0,0.0,0.0,0.0,0.0,0.0,0.0,0.0,0.0,-1.0098561527986162e-05,-0.0015032382725696759,-0.008140164181581026,0.0,0.0,0.0,0.0,0.0,0.0,0.0,0.0,0.0,-0.011695361464590477,-0.0354395982463106,-0.00297452301151079,0.0,0.0,0.0,0.0,0.0,0.0,0.0,0.0,0.0
8.107,225,8,107000000,base_footprint,-0.003581047687886721,0.0014759460063233907,0.9237468074660887,0.38298411635086455,0.0,0.0,0.0,0.0,0.0,0.0,0.0,0.0,0.0,0.00033774982068307346,0.0008025244756995252,-2.7330135535770034e-05,0.0,0.0,0.0,0.0,0.0,0.0,0.0,0.0,0.0,0.002672906533235063,-0.12998401866353484,-0.0006871315485806806,0.0,0.0,0.0,0.0,0.0,0.0,0.0,0.0,0.0
8.141,226,8,141000000,base_footprint,-0.0035790220599785233,0.001474592122609544,0.9237537974689368,0.3829672803789962,0.0,0.0,0.0,0.0,0.0,0.0,0.0,0.0,0.0,-0.00045361176821709424,0.00010272776127291442,0.0018727561452492622,0.0,0.0,0.0,0.0,0.0,0.0,0.0,0.0,0.0,-0.0008312705699218615,-0.0012520372534754656,0.0018346008017335567,0.0,0.0,0.0,0.0,0.0,0.0,0.0,0.0,0.0
8.175,227,8,175000000,base_footprint,-0.0035757327546273357,0.0014725967608549603,0.9237675170052315,0.3829342242736169,0.0,0.0,0.0,0.0,0.0,0.0,0.0,0.0,0.0,-0.0002896295229939778,0.00010944478333923457,0.0022177653128253225,0.0,0.0,0.0,0.0,0.0,0.0,0.0,0.0,0.0,0.0006617601048378341,-0.003657725405017333,-0.00026914193470268014,0.0,0.0,0.0,0.0,0.0,0.0,0.0,0.0,0.0
8.209,228,8,209000000,base_footprint,-0.0035724137339840376,0.001470671609467251,0.9239026357353355,0.38260814767387047,0.0,0.0,0.0,0.0,0.0,0.0,0.0,0.0,0.0,0.0004551389445516307,0.00032500420060695357,0.043020961751039706,0.0,0.0,0.0,0.0,0.0,0.0,0.0,0.0,0.0,0.003214309423863443,0.34885218738999557,-0.0030680803687719855,0.0,0.0,0.0,0.0,0.0,0.0,0.0,0.0,0.0
8.243,229,8,243000000,base_footprint,-0.003571912298459774,0.0014682386785369829,0.9241781586311535,0.3819421642432866,0.0,0.0,0.0,0.0,0.0,0.0,0.0,0.0,0.0,-0.0004932893258142567,0.00014216894826474903,0.042179340575211464,0.0,0.0,0.0,0.0,0.0,0.0,0.0,0.0,0.0,0.009419946920501309,-0.0077588072336118395,0.0014115287461560736,0.0,0.0,0.0,0.0,0.0,0.0,0.0,0.0,0.0
8.277,230,8,277000000,base_footprint,-0.003572279114674228,0.0014661559926313868,0.9244500947847664,0.3812835053617829,0.0,0.0,0.0,0.0,0.0,0.0,0.0,0.0,0.0,-0.00041306666187137045,0.00015025976934102098,0.04171951275418341,0.0,0.0,0.0,0.0,0.0,0.0,0.0,0.0,0.0,0.008706138488293956,-0.005443540063869586,-7.681931930935269e-05,0.0,0.0,0.0,0.0,0.0,0.0,0.0,0.0,0.0
8.311,231,8,311000000,base_footprint,-0.0035747638079986497,0.0014657017085925954,0.924639354692997,0.3808242856425216,0.0,0.0,0.0,0.0,0.0,0.0,0.0,0.0,0.0,0.00023889570498111714,-0.0011471964133695518,-0.02243468901358689,0.0,0.0,0.0,0.0,0.0,0.0,0.0,0.0,0.0,0.0018854632117597248,0.6653261096633624,-0.004559465646182764,0.0,0.0,0.0,0.0,0.0,0.0,0.0,0.0,0.0
8.345,232,8,345000000,base_footprint,-0.0035756442863044717,0.0014656702625371403,0.9246628167477211,0.380767306767256,0.0,0.0,0.0,0.0,0.0,0.0,0.0,0.0,0.0,0.0002656739452877962,1.8064601493116926e-05,0.03487934219607687,0.0,0.0,0.0,0.0,0.0,0.0,0.0,0.0,0.0,0.001471640746269709,-0.3384831318031424,0.0017838333725708204,0.0,0.0,0.0,0.0,0.0,0.0,0.0,0.0,0.0
8.379,233,8,379000000,base_footprint,-0.0035798387282516705,0.0014654336308045357,0.9248851911440036,0.38022680134555675,0.0,0.0,0.0,0.0,0.0,0.0,0.0,0.0,0.0,-0.00012559188252058657,0.00011893521434546801,0.034111948743322115,0.0,0.0,0.0,0.0,0.0,0.0,0.0,0.0,0.0,0.007395599577218157,-0.002301271525665739,0.0005309926914408295,0.0,0.0,0.0,0.0,0.0,0.0,0.0,0.0,0.0
8.413,234,8,413000000,base_footprint,-0.0035837838540013715,0.0014665080495937617,0.9249027741482211,0.3801839873276532,0.0,0.0,0.0,0.0,0.0,0.0,0.0,0.0,0.0,0.0006228621782626319,-3.552656548184142e-05,-0.017109455787482547,0.0,0.0,0.0,0.0,0.0,0.0,0.0,0.0,0.0,0.004802121717855989,-0.3355269134135313,0.0004788977944153933,0.0,0.0,0.0,0.0,0.0,0.0,0.0,0.0,0.0
8.447,235,8,447000000,base_footprint,-0.0035835616463221194,0.0014640173515646547,0.9247701067796645,0.38050658909649543,0.0,0.0,0.0,0.0,0.0,0.0,0.0,0.0,0.0,-0.00010917265341219256,0.00021812694775000626,0.007213412435544669,0.0,0.0,0.0,0.0,0.0,0.0,0.0,0.0,0.0,-0.003325117936275712,-0.27342950184872516,0.002968273944452271,0.0,0.0,0.0,0.0,0.0,0.0,0.0,0.0,0.0
8.481,236,8,481000000,base_footprint,-0.0035845438790003178,0.0014584168039646962,0.9249515825195868,0.38006524974024847,0.0,0.0,0.0,0.0,0.0,0.0,0.0,0.0,0.0,0.00013094251524904685,0.0007968565680372983,0.03830819603363924,0.0,0.0,0.0,0.0,0.0,0.0,0.0,0.0,0.0,0.004586417355629733,-0.0695777452713685,-0.0010546528731800507,0.0,0.0,0.0,0.0,0.0,0.0,0.0,0.0,0.0
8.515,237,8,515000000,base_footprint,-0.003587527208649575,0.001458672793155322,0.9251030876067292,0.37969629866869414,0.0,0.0,0.0,0.0,0.0,0.0,0.0,0.0,0.0,-0.00026045315332349627,2.0358768133061264e-05,0.01209692107449697,0.0,0.0,0.0,0.0,0.0,0.0,0.0,0.0,0.0,0.0059987416048576745,0.03975175010045285,0.0013269618623464785,0.0,0.0,0.0,0.0,0.0,0.0,0.0,0.0,0.0
8.549,238,8,549000000,base_footprint,-0.003584632510426421,0.0014647242964179214,0.9252349925973208,0.3793747665118705,0.0,0.0,0.0,0.0,0.0,0.0,0.0,0.0,0.0,0.0003838086412612423,-0.0005615597985290269,0.04156987350428051,0.0,0.0,0.0,0.0,0.0,0.0,0.0,0.0,0.0,0.010124534089816332,0.015269868118297076,-0.0010943342264375165,0.0,0.0,0.0,0.0,0.0,0.0,0.0,0.0,0.0
8.583,239,8,583000000,base_footprint,-0.0035893041924197457,0.0014630255783454394,0.9255121582643837,0.37869806093558755,0.0,0.0,0.0,0.0,0.0,0.0,0.0,0.0,0.0,0.0009167772035474353,-0.0015247368263550892,0.02144437947851043,0.0,0.0,0.0,0.0,0.0,0.0,0.0,0.0,0.0,0.007765135157532178,0.012305475286507654,0.0031060423347028863,0.0,0.0,0.0,0.0,0.0,0.0,0.0,0.0,0.0
8.617,240,8,617000000,base_footprint,-0.003589067410273946,0.0014577811625309427,0.9254856383310768,0.3787628898296743,0.0,0.0,0.0,0.0,0.0,0.0,0.0,0.0,0.0,-0.0004989193885830361,-0.00023657393852385766,-0.00965249300477915,0.0,0.0,0.0,0.0,0.0,0.0,0.0,0.0,0.0,0.00042530360334458103,-0.048185035469806244,-0.0009057579749460955,0.0,0.0,0.0,0.0,0.0,0.0,0.0,0.0,0.0
8.651,241,8,651000000,base_footprint,-0.0035842339861513663,0.0014564427946654242,0.9254287936619836,0.37890180773182425,0.0,0.0,0.0,0.0,0.0,0.0,0.0,0.0,0.0,-0.000263529128186015,5.1603784014640814e-05,-0.008672070648418401,0.0,0.0,0.0,0.0,0.0,0.0,0.0,0.0,0.0,-0.004059576619883862,-0.0010291126283409812,-0.0004713371338955188,0.0,0.0,0.0,0.0,0.0,0.0,0.0,0.0,0.0
8.685,242,8,685000000,base_footprint,-0.003583177008873218,0.001454233546214997,0.9254112192316966,0.3789447471168076,0.0,0.0,0.0,0.0,0.0,0.0,0.0,0.0,0.0,-0.0017410160213608777,-0.0025091914223920914,0.05448556830171852,0.0,0.0,0.0,0.0,0.0,0.0,0.0,0.0,0.0,0.0035487304502512668,0.013647637576124357,0.004290903635859156,0.0,0.0,0.0,0.0,0.0,0.0,0.0,0.0,0.0
8.719,243,8,719000000,base_footprint,-0.003579263915930222,0.001451604881348481,0.9258285670710262,0.377923995147568,0.0,0.0,0.0,0.0,0.0,0.0,0.0,0.0,0.0,-0.00068787974210157,0.0002312093140774499,0.06438095615911439,0.0,0.0,0.0,0.0,0.0,0.0,0.0,0.0,0.0,0.009084456875887669,-0.00437309282716794,-0.004080008967363409,0.0,0.0,0.0,0.0,0.0,0.0,0.0,0.0,0.0
8.753,244,8,753000000,base_footprint,-0.0035795319265628516,0.0014482832804892213,0.9262401536690745,0.37691413764651427,0.0,0.0,0.0,0.0,0.0,0.0,0.0,0.0,0.0,-0.0005598885689299642,0.00024643828487659283,0.06398255174842375,0.0,0.0,0.0,0.0,0.0,0.0,0.0,0.0,0.0,0.014186946255622829,-0.005441626354505018,-0.00011021044861530153,0.0,0.0,0.0,0.0,0.0,0.0,0.0,0.0,0.0
8.787,245,8,787000000,base_footprint,-0.0035808346868898768,0.001446572767046184,0.9266050857252605,0.37601609029170213,0.0,0.0,0.0,0.0,0.0,0.0,0.0,0.0,0.0,0.0003407541227702554,0.00034145800091025255,0.023246833617908122,0.0,0.0,0.0,0.0,0.0,0.0,0.0,0.0,0.0,0.013090352632737917,-0.014465055931011744,-0.00046774470445529333,0.0,0.0,0.0,0.0,0.0,0.0,0.0,0.0,0.0
8.821,246,8,821000000,base_footprint,-0.00358374076512777,0.0014458526802725823,0.926757847459804,0.3756393995360791,0.0,0.0,0.0,0.0,0.0,0.0,0.0,0.0,0.0,-0.00015705754629296277,4.0509816160587974e-05,0.02398885152037538,0.0,0.0,0.0,0.0,0.0,0.0,0.0,0.0,0.0,0.005543156854153978,-0.006639546097525091,0.00029857615308588863,0.0,0.0,0.0,0.0,0.0,0.0,0.0,0.0,0.0
8.855,247,8,855000000,base_footprint,-0.003587970523505655,0.0014465086670287354,0.9269087108899962,0.37526693933311556,0.0,0.0,0.0,0.0,0.0,0.0,0.0,0.0,0.0,-5.070136610777712e-05,6.643937562164668e-05,0.02334456284774263,0.0,0.0,0.0,0.0,0.0,0.0,0.0,0.0,0.0,0.005166615498849503,-0.0049117975405336325,-0.0001743315553510421,0.0,0.0,0.0,0.0,0.0,0.0,0.0,0.0,0.0
8.889,248,8,889000000,base_footprint,-0.0035806195646967778,0.0014400605481935775,0.9270718634823945,0.37486379570242745,0.0,0.0,0.0,0.0,0.0,0.0,0.0,0.0,0.0,-0.001995320924270812,0.00014224118821041035,0.040743290650253186,0.0,0.0,0.0,0.0,0.0,0.0,0.0,0.0,0.0,0.0008772047269337627,0.16041958022835257,0.002050524846522583,0.0,0.0,0.0,0.0,0.0,0.0,0.0,0.0,0.0
8.923,249,8,923000000,base_footprint,-0.0035873562033306968,0.0014356208938520608,0.9274449479278025,0.37393975240848004,0.0,0.0,0.0,0.0,0.0,0.0,0.0,0.0,0.0,-0.003250195469005747,5.1607260191678054e-05,0.03657396859279298,0.0,0.0,0.0,0.0,0.0,0.0,0.0,0.0,0.0,0.001461138642840018,0.24213536989640905,0.0003854055342602972,0.0,0.0,0.0,0.0,0.0,0.0,0.0,0.0,0.0
8.957,250,8,957000000,base_footprint,-0.003597909504165374,0.001440841457351366,0.9275370634532542,0.3737110848551439,0.0,0.0,0.0,0.0,0.0,0.0,0.0,0.0,0.0,-0.00027186058482901086,-2.5307338630108268e-05,0.011067202912441291,0.0,0.0,0.0,0.0,0.0,0.0,0.0,0.0,0.0,0.0038311308540495415,-0.05976508434553567,-0.003930396519271393,0.0,0.0,0.0,0.0,0.0,0.0,0.0,0.0,0.0
8.992,251,8,991000000,base_footprint,-0.003589270808272357,0.0014342263235854913,0.9275345536236399,0.3737174226124771,0.0,0.0,0.0,0.0,0.0,0.0,0.0,0.0,0.0,-0.0016627803261639598,-0.00029681222663883186,-0.022989357494434426,0.0,0.0,0.0,0.0,0.0,0.0,0.0,0.0,0.0,0.0026219894149542237,0.008633629817642397,0.0021253208968971572,0.0,0.0,0.0,0.0,0.0,0.0,0.0,0.0,0.0
9.025,252,9,25000000,base_footprint,-0.003577327288667676,0.0014276696965449297,0.9273828314049154,0.37409390332389775,0.0,0.0,0.0,0.0,0.0,0.0,0.0,0.0,0.0,0.0014454446693363031,-0.0012521527412985133,-0.004597575528758184,0.0,0.0,0.0,0.0,0.0,0.0,0.0,0.0,0.0,0.010372063159352128,-0.044141347675069845,-0.00362808295366089,0.0,0.0,0.0,0.0,0.0,0.0,0.0,0.0,0.0
9.059,253,9,59000000,base_footprint,-0.00358097419266321,0.0014456518925052802,0.9275596745437217,0.3736551041733307,0.0,0.0,0.0,0.0,0.0,0.0,0.0,0.0,0.0,-0.00014445134924546981,0.0015264491476100581,0.035679713507407645,0.0,0.0,0.0,0.0,0.0,0.0,0.0,0.0,0.0,-0.005202406448957111,-0.08269844547486069,0.0024612908493938596,0.0,0.0,0.0,0.0,0.0,0.0,0.0,0.0,0.0
9.093,254,9,93000000,base_footprint,-0.0035883464154035554,0.0014363483571254408,0.9276640707270025,0.3733958121827388,0.0,0.0,0.0,0.0,0.0,0.0,0.0,0.0,0.0,-0.00016626600869418584,-0.00036530213477637644,0.020955268766515857,0.0,0.0,0.0,0.0,0.0,0.0,0.0,0.0,0.0,0.002759303877345274,0.09290870974278678,-0.0013613297840326434,0.0,0.0,0.0,0.0,0.0,0.0,0.0,0.0,0.0
9.127,255,9,127000000,base_footprint,-0.0035924335221565818,0.0014341879177456908,0.9279690455134283,0.3726372070731834,0.0,0.0,0.0,0.0,0.0,0.0,0.0,0.0,0.0,-0.000693484707639418,0.00022074094955668223,0.048989505073275506,0.0,0.0,0.0,0.0,0.0,0.0,0.0,0.0,0.0,0.006137884250790961,0.06365148937381368,0.0008222276110210481,0.0,0.0,0.0,0.0,0.0,0.0,0.0,0.0,0.0
9.161,256,9,161000000,base_footprint,-0.003591396254352703,0.0014300934201949798,0.928278343337733,0.37186606997131094,0.0,0.0,0.0,0.0,0.0,0.0,0.0,0.0,0.0,-0.0005170605567761254,0.0003367902996066521,0.04890279180811766,0.0,0.0,0.0,0.0,0.0,0.0,0.0,0.0,0.0,0.00925547158871906,-0.0040891908237535675,-0.0002430325482808964,0.0,0.0,0.0,0.0,0.0,0.0,0.0,0.0,0.0
9.195,257,9,195000000,base_footprint,-0.0035905028060696158,0.0014274187151226316,0.9285286543803961,0.3712406345753954,0.0,0.0,0.0,0.0,0.0,0.0,0.0,0.0,0.0,-0.0007651766414165681,-9.003627111453034e-05,0.026368901598569836,0.0,0.0,0.0,0.0,0.0,0.0,0.0,0.0,0.0,0.009648352717584673,-0.011121807328057221,0.000832650438166758,0.0,0.0,0.0,0.0,0.0,0.0,0.0,0.0,0.0
9.229,258,9,229000000,base_footprint,-0.0035888877753820765,0.0014262070603101409,0.9286946992956858,0.37082508183515905,0.0,0.0,0.0,0.0,0.0,0.0,0.0,0.0,0.0,-0.0003768587452913426,3.741704684666932e-05,0.02612243268517286,0.0,0.0,0.0,0.0,0.0,0.0,0.0,0.0,0.0,0.0048766874763549635,-0.004357820411938828,-0.0005182958460829535,0.0,0.0,0.0,0.0,0.0,0.0,0.0,0.0,0.0
9.263,259,9,263000000,base_footprint,-0.0035892307420246597,0.0014253093487063978,0.9288573257369386,0.3704175405414328,0.0,0.0,0.0,0.0,0.0,0.0,0.0,0.0,0.0,-0.0003007225072209584,4.799806143645965e-05,0.02558853048750707,0.0,0.0,0.0,0.0,0.0,0.0,0.0,0.0,0.0,0.0056013679301333405,-0.005219770997613841,-9.389222512138768e-05,0.0,0.0,0.0,0.0,0.0,0.0,0.0,0.0,0.0
9.297,260,9,297000000,base_footprint,-0.0035880566768170547,0.0014236386385966852,0.929020889279987,0.37000714369283844,0.0,0.0,0.0,0.0,0.0,0.0,0.0,0.0,0.0,-0.00029416589136617763,0.0003505999556671298,0.049385914666764986,0.0,0.0,0.0,0.0,0.0,0.0,0.0,0.0,0.0,0.02280222750497944,-0.29364217060431097,0.0013156234086671116,0.0,0.0,0.0,0.0,0.0,0.0,0.0,0.0,0.0
9.331,261,9,331000000,base_footprint,-0.0035953329285174215,0.0014224100530331912,0.9294391954250945,0.3689550546317631,0.0,0.0,0.0,0.0,0.0,0.0,0.0,0.0,0.0,-0.00032972611261689494,0.0002713970664600595,0.06701878680159977,0.0,0.0,0.0,0.0,0.0,0.0,0.0,0.0,0.0,0.015245829974909307,-0.044957972685976066,0.00024883802515312083,0.0,0.0,0.0,0.0,0.0,0.0,0.0,0.0,0.0
9.365,262,9,365000000,base_footprint,-0.0036013506020719102,0.0014200132971393387,0.9298557932426559,0.3679038157034364,0.0,0.0,0.0,0.0,0.0,0.0,0.0,0.0,0.0,-0.00026087049688882887,0.00032129753394942673,0.06596366698914401,0.0,0.0,0.0,0.0,0.0,0.0,0.0,0.0,0.0,0.014373974178923742,-0.0030925805567425806,-0.00018895946619016158,0.0,0.0,0.0,0.0,0.0,0.0,0.0,0.0,0.0
9.399000000000001,263,9,399000000,base_footprint,-0.0035932531017288105,0.0014087844453111076,0.9303480857877996,0.36665725566189317,0.0,0.0,0.0,0.0,0.0,0.0,0.0,0.0,0.0,-0.0024447100707785797,0.00043595333795869086,0.11078138298583967,0.0,0.0,0.0,0.0,0.0,0.0,0.0,0.0,0.0,-0.003234431124770523,0.30971728993856756,0.0009866783141382447,0.0,0.0,0.0,0.0,0.0,0.0,0.0,0.0,0.0
9.433,264,9,433000000,base_footprint,-0.00360190464769055,0.001405627887353942,0.9310467673771828,0.36487938753737403,0.0,0.0,0.0,0.0,0.0,0.0,0.0,0.0,0.0,-0.001704962591440349,0.0005039483442531535,0.06624206516612578,0.0,0.0,0.0,0.0,0.0,0.0,0.0,0.0,0.0,0.020469965687017776,0.050801599121494186,0.0004218636986141666,0.0,0.0,0.0,0.0,0.0,0.0,0.0,0.0,0.0
9.467,265,9,467000000,base_footprint,-0.0036107891330055585,0.0013945748615079526,0.9314348511829376,0.363887531202447,0.0,0.0,0.0,0.0,0.0,0.0,0.0,0.0,0.0,9.698270045141756e-05,0.00038006017755338073,0.054179201473461266,0.0,0.0,0.0,0.0,0.0,0.0,0.0,0.0,0.0,0.010001169956492886,0.022763167576955515,-0.003815675792488584,0.0,0.0,0.0,0.0,0.0,0.0,0.0,0.0,0.0
9.501,266,9,501000000,base_footprint,-0.0036011682417002896,0.0013869520025296214,0.9316874110406451,0.36324052094971143,0.0,0.0,0.0,0.0,0.0,0.0,0.0,0.0,0.0,-0.00017192091998084253,-0.0012258511560937916,0.03487346605056069,0.0,0.0,0.0,0.0,0.0,0.0,0.0,0.0,0.0,0.013862085362508329,-0.028364913938387394,5.051165953428503e-05,0.0,0.0,0.0,0.0,0.0,0.0,0.0,0.0,0.0
9.535,267,9,535000000,base_footprint,-0.0036045329038397605,0.0014014356278167683,0.9320749952085938,0.3622447330571226,0.0,0.0,0.0,0.0,0.0,0.0,0.0,0.0,0.0,5.709779125602016e-06,0.0013513004293891058,0.089729042488265,0.0,0.0,0.0,0.0,0.0,0.0,0.0,0.0,0.0,0.010919687801849196,-0.04955983540352389,-0.0019840532879360486,0.0,0.0,0.0,0.0,0.0,0.0,0.0,0.0,0.0
9.569,268,9,569000000,base_footprint,-0.0035972155575579976,0.0013960945523195274,0.9325493134793778,0.3610220061012555,0.0,0.0,0.0,0.0,0.0,0.0,0.0,0.0,0.0,-0.00035762871178199963,0.0004470725114996695,0.060640474508809224,0.0,0.0,0.0,0.0,0.0,0.0,0.0,0.0,0.0,0.029115846572833403,-0.06518682567807844,0.0037884525122868183,0.0,0.0,0.0,0.0,0.0,0.0,0.0,0.0,0.0
9.603,269,9,603000000,base_footprint,-0.0036093403713780632,0.0013865768298359147,0.9327233834511878,0.36057196234614153,0.0,0.0,0.0,0.0,0.0,0.0,0.0,0.0,0.0,-0.0009040042564982438,-0.0006245439049976092,0.023620573018631394,0.0,0.0,0.0,0.0,0.0,0.0,0.0,0.0,0.0,-0.0266250812973155,0.3314498754756526,-0.0008956881462576274,0.0,0.0,0.0,0.0,0.0,0.0,0.0,0.0,0.0
9.637,270,9,637000000,base_footprint,-0.0035995284798625736,0.0013863892640011038,0.9330325985152574,0.3597711653640377,0.0,0.0,0.0,0.0,0.0,0.0,0.0,0.0,0.0,0.00046653486365488264,2.432393988430117e-05,0.015430547483485291,0.0,0.0,0.0,0.0,0.0,0.0,0.0,0.0,0.0,0.021287800707341063,-0.11376472547335209,-0.0005138190684416135,0.0,0.0,0.0,0.0,0.0,0.0,0.0,0.0,0.0
9.671,271,9,671000000,base_footprint,-0.003609179228364787,0.0013842184976530566,0.9329296388776529,0.3600379794800272,0.0,0.0,0.0,0.0,0.0,0.0,0.0,0.0,0.0,-0.00015330468715051996,-0.00010642848116328515,-0.022222487421279587,0.0,0.0,0.0,0.0,0.0,0.0,0.0,0.0,0.0,0.0059148485845799265,-0.10548861562949667,0.0014482783902747885,0.0,0.0,0.0,0.0,0.0,0.0,0.0,0.0,0.0
9.705,272,9,705000000,base_footprint,-0.003606276708220386,0.0013822377699724006,0.9331403409943889,0.3594915690192563,0.0,0.0,0.0,0.0,0.0,0.0,0.0,0.0,0.0,-0.0007208883740718781,0.00018505390190479563,0.0632863470713884,0.0,0.0,0.0,0.0,0.0,0.0,0.0,0.0,0.0,0.006565436213544767,0.0026356692883682227,0.00020201975281171418,0.0,0.0,0.0,0.0,0.0,0.0,0.0,0.0,0.0
9.739,273,9,739000000,base_footprint,-0.0036055056020665235,0.0013805968883265792,0.9332906536304985,0.35910116976632434,0.0,0.0,0.0,0.0,0.0,0.0,0.0,0.0,0.0,0.002082646322802931,0.0002822632330831149,-0.037459924332491464,0.0,0.0,0.0,0.0,0.0,0.0,0.0,0.0,0.0,0.044277773537955645,-0.3522671706111864,-0.0007439131756938868,0.0,0.0,0.0,0.0,0.0,0.0,0.0,0.0,0.0
9.773,274,9,773000000,base_footprint,-0.0036061726886230223,0.0013849276590070056,0.9330547239649636,0.3597137189218462,0.0,0.0,0.0,0.0,0.0,0.0,0.0,0.0,0.0,0.00011685170443499262,-0.0002945419973231837,-0.03879882919075109,0.0,0.0,0.0,0.0,0.0,0.0,0.0,0.0,0.0,-0.010056406039351012,-0.00910266817884911,0.0023812604616466762,0.0,0.0,0.0,0.0,0.0,0.0,0.0,0.0,0.0
9.807,275,9,807000000,base_footprint,-0.00360776900856344,0.0013874861799716724,0.932937084964776,0.36001868615713223,0.0,0.0,0.0,0.0,0.0,0.0,0.0,0.0,0.0,0.00011863079054492144,-0.00014678296351956354,-0.013531179117461864,0.0,0.0,0.0,0.0,0.0,0.0,0.0,0.0,0.0,-0.004657879038785906,0.0008640813572086071,-0.0003085406508351769,0.0,0.0,0.0,0.0,0.0,0.0,0.0,0.0,0.0
9.841,276,9,841000000,base_footprint,-0.0036115235647131596,0.001390337293579689,0.9328512085528476,0.3602410950478074,0.0,0.0,0.0,0.0,0.0,0.0,0.0,0.0,0.0,0.0002002161477859451,-0.0001349369427582043,-0.014507175903149984,0.0,0.0,0.0,0.0,0.0,0.0,0.0,0.0,0.0,-0.002939938514944952,-0.004893812244961266,-0.0002077893772131663,0.0,0.0,0.0,0.0,0.0,0.0,0.0,0.0,0.0
9.875,277,9,875000000,base_footprint,-0.0036148587216086533,0.0013919571045192872,0.93275741420438,0.36048384360273444,0.0,0.0,0.0,0.0,0.0,0.0,0.0,0.0,0.0,9.989743931280767e-05,-8.940507532006269e-05,-0.016209047825170853,0.0,0.0,0.0,0.0,0.0,0.0,0.0,0.0,0.0,-0.003841432072765951,-0.001368493900040276,-5.3353982650170823e-05,0.0,0.0,0.0,0.0,0.0,0.0,0.0,0.0,0.0
9.909,278,9,909000000,base_footprint,-0.0035993220895658203,0.0013799466785858385,0.9328519218128902,0.36023941011174404,0.0,0.0,0.0,0.0,0.0,0.0,0.0,0.0,0.0,-0.002393795820958128,0.0015693146188971935,0.05643764922044042,0.0,0.0,0.0,0.0,0.0,0.0,0.0,0.0,0.0,-0.037235996998855186,0.40755054382736,0.001604166472421023,0.0,0.0,0.0,0.0,0.0,0.0,0.0,0.0,0.0
9.943,279,9,943000000,base_footprint,-0.0036158425223515147,0.0013906327393101495,0.9328376085191558,0.36027626615654335,0.0,0.0,0.0,0.0,0.0,0.0,0.0,0.0,0.0,0.0009232512763126677,0.0012901731314283575,-0.051923850105155066,0.0,0.0,0.0,0.0,0.0,0.0,0.0,0.0,0.0,0.009419721778370388,-0.029709830127218412,-0.0054052867434057775,0.0,0.0,0.0,0.0,0.0,0.0,0.0,0.0,0.0
9.977,280,9,977000000,base_footprint,-0.003615038214899,0.0013853704883333715,0.9325082357278414,0.3611279586892485,0.0,0.0,0.0,0.0,0.0,0.0,0.0,0.0,0.0,-0.00018615240199446503,0.0003076086735754031,-0.053922374240445395,0.0,0.0,0.0,0.0,0.0,0.0,0.0,0.0,0.0,-0.019104139764075614,0.0370336139866162,0.002640206910304631,0.0,0.0,0.0,0.0,0.0,0.0,0.0,0.0,0.0
10.011,281,10,11000000,base_footprint,-0.003615296478041483,0.0013777774398230482,0.9323973473777663,0.36141419170199635,0.0,0.0,0.0,0.0,0.0,0.0,0.0,0.0,0.0,-0.00127803635455386,0.0013949962588212105,0.02286787203719403,0.0,0.0,0.0,0.0,0.0,0.0,0.0,0.0,0.0,-0.0024856291830607706,-0.013566235910010969,0.0004910312576470136,0.0,0.0,0.0,0.0,0.0,0.0,0.0,0.0,0.0
10.045,282,10,45000000,base_footprint,-0.0035948091320645178,0.0013955619005160448,0.9327869214810209,0.3604076703793159,0.0,0.0,0.0,0.0,0.0,0.0,0.0,0.0,0.0,0.0014462519369075138,0.001124352445988119,0.08508202271654862,0.0,0.0,0.0,0.0,0.0,0.0,0.0,0.0,0.0,0.0225693660314528,-0.12162257907405821,-0.002823772339117678,0.0,0.0,0.0,0.0,0.0,0.0,0.0,0.0,0.0
10.079,283,10,79000000,base_footprint,-0.0035976251577240015,0.0013895510634407866,0.9331516790921859,0.3594621955762537,0.0,0.0,0.0,0.0,0.0,0.0,0.0,0.0,0.0,-0.001026882943112822,-0.0007075541034095359,0.02976628103201246,0.0,0.0,0.0,0.0,0.0,0.0,0.0,0.0,0.0,0.02971049414879895,-0.1412509831205034,0.00529408223092347,0.0,0.0,0.0,0.0,0.0,0.0,0.0,0.0,0.0
10.113,284,10,113000000,base_footprint,-0.0036089036949778553,0.0013887662483788412,0.9327185843644294,0.3605843722676325,0.0,0.0,0.0,0.0,0.0,0.0,0.0,0.0,0.0,0.00312684325560417,0.0011773617207564901,-0.1173804392654179,0.0,0.0,0.0,0.0,0.0,0.0,0.0,0.0,0.0,-0.0036561421617106737,-0.13216668356749756,-0.005953933549191887,0.0,0.0,0.0,0.0,0.0,0.0,0.0,0.0,0.0
10.147,285,10,147000000,base_footprint,-0.0036061257534458443,0.0013939033854581345,0.9319908120850433,0.36246127942093864,0.0,0.0,0.0,0.0,0.0,0.0,0.0,0.0,0.0,0.0004235372901880177,-0.0005850654338444984,-0.11853950385369612,0.0,0.0,0.0,0.0,0.0,0.0,0.0,0.0,0.0,-0.02417345222471933,-0.008304093022635486,0.004709373180877401,0.0,0.0,0.0,0.0,0.0,0.0,0.0,0.0,0.0
10.181,286,10,181000000,base_footprint,-0.0036025560596509424,0.0014019680784611939,0.9312567734171052,0.3643430773873803,0.0,0.0,0.0,0.0,0.0,0.0,0.0,0.0,0.0,0.0050713882435483625,0.000514468010676501,-0.11869330363091825,0.0,0.0,0.0,0.0,0.0,0.0,0.0,0.0,0.0,-0.02911940877573796,0.02351294283167151,-0.005991082162579263,0.0,0.0,0.0,0.0,0.0,0.0,0.0,0.0,0.0
10.215,287,10,215000000,base_footprint,-0.0035974401749497807,0.0014042311136182727,0.9310156723087702,0.364958770924355,0.0,0.0,0.0,0.0,0.0,0.0,0.0,0.0,0.0,-0.00041482749959628756,-0.00014344993288218684,-0.010186609441061093,0.0,0.0,0.0,0.0,0.0,0.0,0.0,0.0,0.0,-0.03407292700815416,0.33142375983833694,0.004083114525532566,0.0,0.0,0.0,0.0,0.0,0.0,0.0,0.0,0.0
10.249,288,10,249000000,base_footprint,-0.0035975702193180932,0.0014055815763028983,0.9309495463301631,0.36512740792306053,0.0,0.0,0.0,0.0,0.0,0.0,0.0,0.0,0.0,-6.201346949371108e-05,-0.00013692775182355872,-0.010911254923993967,0.0,0.0,0.0,0.0,0.0,0.0,0.0,0.0,0.0,-0.002224895469514989,-0.005939706964323313,-0.0004024764351387932,0.0,0.0,0.0,0.0,0.0,0.0,0.0,0.0,0.0
10.283,289,10,283000000,base_footprint,-0.0035954770430895867,0.001406373188297467,0.930878112013163,0.3653095060823044,0.0,0.0,0.0,0.0,0.0,0.0,0.0,0.0,0.0,-0.002016595565313893,-0.00022111256131133366,-0.015706555890634237,0.0,0.0,0.0,0.0,0.0,0.0,0.0,0.0,0.0,0.0015561253016249908,-0.06912659974277152,0.0033390967582589202,0.0,0.0,0.0,0.0,0.0,0.0,0.0,0.0,0.0
10.317,290,10,317000000,base_footprint,-0.003602683112177131,0.0014090756363717022,0.9308722406655013,0.3653243856336903,0.0,0.0,0.0,0.0,0.0,0.0,0.0,0.0,0.0,-0.00019017245877221163,-7.254024112146404e-05,0.013443982310987175,0.0,0.0,0.0,0.0,0.0,0.0,0.0,0.0,0.0,0.020844109615802756,-0.27567573803185264,-0.0017498141026875912,0.0,0.0,0.0,0.0,0.0,0.0,0.0,0.0,0.0
10.351,291,10,351000000,base_footprint,-0.0036073757006225304,0.0014096219892337828,0.9309517322757287,0.3651217221410169,0.0,0.0,0.0,0.0,0.0,0.0,0.0,0.0,0.0,-2.069539210675423e-05,6.136042550985013e-05,0.012215666184912722,0.0,0.0,0.0,0.0,0.0,0.0,0.0,0.0,0.0,0.002117721897239846,-0.002137079354433056,-0.0002707709934324426,0.0,0.0,0.0,0.0,0.0,0.0,0.0,0.0,0.0
10.385,292,10,385000000,base_footprint,-0.0036050775531484905,0.0014011919214417634,0.9310013304938696,0.3649952913335728,0.0,0.0,0.0,0.0,0.0,0.0,0.0,0.0,0.0,-0.003355757501445734,-0.002058695161715831,-0.0281460169476457,0.0,0.0,0.0,0.0,0.0,0.0,0.0,0.0,0.0,0.006355455368889123,-0.02197236727451402,0.006117583841609465,0.0,0.0,0.0,0.0,0.0,0.0,0.0,0.0,0.0
10.419,293,10,419000000,base_footprint,-0.0036101928097645826,0.001414312954438968,0.9304376385644667,0.36642975721046744,0.0,0.0,0.0,0.0,0.0,0.0,0.0,0.0,0.0,-0.00028597104277621436,-3.398223499680782e-06,-0.10522808505435466,0.0,0.0,0.0,0.0,0.0,0.0,0.0,0.0,0.0,-0.019855110619450757,0.02049646293307877,-0.004735579342143695,0.0,0.0,0.0,0.0,0.0,0.0,0.0,0.0,0.0
10.453,294,10,453000000,base_footprint,-0.0036069959815174754,0.0014158065067945618,0.9297156166812163,0.36825786776522573,0.0,0.0,0.0,0.0,0.0,0.0,0.0,0.0,0.0,0.000391031632689167,-0.0002695477829042846,-0.12288695912589767,0.0,0.0,0.0,0.0,0.0,0.0,0.0,0.0,0.0,-0.03313681830814294,0.046186146498488394,-0.000790623831480026,0.0,0.0,0.0,0.0,0.0,0.0,0.0,0.0,0.0
10.487,295,10,487000000,base_footprint,-0.00359465082498951,0.0014164435516714068,0.9290360992487896,0.3699689155398119,0.0,0.0,0.0,0.0,0.0,0.0,0.0,0.0,0.0,-0.00257210326227654,0.001686630770052385,-0.08028808730856533,0.0,0.0,0.0,0.0,0.0,0.0,0.0,0.0,0.0,-0.0166537816212258,-0.004624075139404382,0.0031879705418538878,0.0,0.0,0.0,0.0,0.0,0.0,0.0,0.0,0.0
10.521,296,10,521000000,base_footprint,-0.0036003229183550556,0.001428448467424772,0.9288064174100195,0.3705450528448928,0.0,0.0,0.0,0.0,0.0,0.0,0.0,0.0,0.0,0.00013758515903625367,0.0004758047275099051,-0.028981135364794894,0.0,0.0,0.0,0.0,0.0,0.0,0.0,0.0,0.0,-0.013188516887535306,-0.0037813706710441274,-0.004859517058614444,0.0,0.0,0.0,0.0,0.0,0.0,0.0,0.0,0.0
10.555,297,10,555000000,base_footprint,-0.0035990807004040288,0.0014292979506719868,0.9286079400050523,0.3710421775014986,0.0,0.0,0.0,0.0,0.0,0.0,0.0,0.0,0.0,-0.00011900993896381546,-1.4731857963422565e-05,-0.03005594993299302,0.0,0.0,0.0,0.0,0.0,0.0,0.0,0.0,0.0,-0.006666886169620787,-0.013612238139340477,0.0012899724603041567,0.0,0.0,0.0,0.0,0.0,0.0,0.0,0.0,0.0
10.589,298,10,589000000,base_footprint,-0.00359347522157884,0.0014271151970905536,0.9283775610135518,0.37161829137513513,0.0,0.0,0.0,0.0,0.0,0.0,0.0,0.0,0.0,0.0007147072879120504,-0.0003051839302971117,-0.060606273137276255,0.0,0.0,0.0,0.0,0.0,0.0,0.0,0.0,0.0,-0.005421468444985414,-0.011574793299267229,-0.0011025856151265297,0.0,0.0,0.0,0.0,0.0,0.0,0.0,0.0,0.0
10.623,299,10,623000000,base_footprint,-0.00359051982033442,0.0014315338447487558,0.9280030290744744,0.37255259616176545,0.0,0.0,0.0,0.0,0.0,0.0,0.0,0.0,0.0,-2.5021252916947574e-05,-0.00045186955943715283,-0.05911539756237832,0.0,0.0,0.0,0.0,0.0,0.0,0.0,0.0,0.0,-0.013389179476758646,-0.006616394605912253,0.0014213296717037309,0.0,0.0,0.0,0.0,0.0,0.0,0.0,0.0,0.0
10.657,300,10,657000000,base_footprint,-0.003586138042737309,0.0014353763578678006,0.9276262901815832,0.3734896853630673,0.0,0.0,0.0,0.0,0.0,0.0,0.0,0.0,0.0,5.202963582743599e-05,-0.000427388413917446,-0.059643148174644556,0.0,0.0,0.0,0.0,0.0,0.0,0.0,0.0,0.0,-0.012774746335786692,-0.006260841032241608,-0.00020223355763796986,0.0,0.0,0.0,0.0,0.0,0.0,0.0,0.0,0.0
10.691,301,10,691000000,base_footprint,-0.003583603373130166,0.0014392727931251657,0.9272639255892485,0.37438843275601846,0.0,0.0,0.0,0.0,0.0,0.0,0.0,0.0,0.0,6.930528769534242e-05,-0.00033220106209591593,-0.04988404933018954,0.0,0.0,0.0,0.0,0.0,0.0,0.0,0.0,0.0,-0.013033606428427554,-0.0033275491160451023,-0.00022195156917295393,0.0,0.0,0.0,0.0,0.0,0.0,0.0,0.0,0.0
10.725,302,10,725000000,base_footprint,-0.0035829224044123076,0.0014430430629376171,0.926942325539447,0.37518396210030686,0.0,0.0,0.0,0.0,0.0,0.0,0.0,0.0,0.0,0.0001672168586076325,-0.00034047684605972937,-0.05075540624071642,0.0,0.0,0.0,0.0,0.0,0.0,0.0,0.0,0.0,-0.010579073411496236,-0.006413367434140342,-0.00020569359268188026,0.0,0.0,0.0,0.0,0.0,0.0,0.0,0.0,0.0
10.759,303,10,759000000,base_footprint,-0.0035838261618148376,0.0014472424203841943,0.9266162286558633,0.3759885988577357,0.0,0.0,0.0,0.0,0.0,0.0,0.0,0.0,0.0,0.0002703000495016416,-0.0003305218197392082,-0.05132574658680557,0.0,0.0,0.0,0.0,0.0,0.0,0.0,0.0,0.0,-0.011227730789146262,-0.00592339311302721,-0.00025153986499391775,0.0,0.0,0.0,0.0,0.0,0.0,0.0,0.0,0.0
10.793,304,10,793000000,base_footprint,-0.0035875313982497783,0.0014508239959409995,0.9263780524370107,0.3765749974323977,0.0,0.0,0.0,0.0,0.0,0.0,0.0,0.0,0.0,0.0005145574457162171,-0.0007974255484220111,-0.010032325412768366,0.0,0.0,0.0,0.0,0.0,0.0,0.0,0.0,0.0,-0.010431785061877696,0.007045115199796607,-0.00043422363426270087,0.0,0.0,0.0,0.0,0.0,0.0,0.0,0.0,0.0
10.827,305,10,827000000,base_footprint,-0.003590725017120021,0.0014531178419368844,0.9263072742645085,0.37674902625892176,0.0,0.0,0.0,0.0,0.0,0.0,0.0,0.0,0.0,8.583105520236423e-05,-9.478759831093109e-05,-0.011613022827033586,0.0,0.0,0.0,0.0,0.0,0.0,0.0,0.0,0.0,-0.00180826643370738,-0.0038768616848211877,1.2798024520392747e-05,0.0,0.0,0.0,0.0,0.0,0.0,0.0,0.0,0.0
10.861,306,10,861000000,base_footprint,-0.003592911269282888,0.0014545018139387916,0.9262286818619803,0.37694217634711946,0.0,0.0,0.0,0.0,0.0,0.0,0.0,0.0,0.0,7.158574806323004e-05,-4.307189212951481e-05,-0.012787830403192844,0.0,0.0,0.0,0.0,0.0,0.0,0.0,0.0,0.0,-0.0032005580646556615,0.003098160573022813,-2.2173354880976974e-05,0.0,0.0,0.0,0.0,0.0,0.0,0.0,0.0,0.0
10.894,307,10,895000000,base_footprint,-0.0035743573276883086,0.00144626348413997,0.9261769612592101,0.3770694481448796,0.0,0.0,0.0,0.0,0.0,0.0,0.0,0.0,0.0,0.002163710007556169,-0.0019566149164046073,0.00783494910150091,0.0,0.0,0.0,0.0,0.0,0.0,0.0,0.0,0.0,-0.0005146207083098625,0.13430805741689633,-0.0045508306276467346,0.0,0.0,0.0,0.0,0.0,0.0,0.0,0.0,0.0
10.929,308,10,929000000,base_footprint,-0.0035934256194645243,0.0014531597454899854,0.9263402551295641,0.37666790060418714,0.0,0.0,0.0,0.0,0.0,0.0,0.0,0.0,0.0,-0.0024915557578663898,0.0022829774475722894,0.02229113330918271,0.0,0.0,0.0,0.0,0.0,0.0,0.0,0.0,0.0,-0.009339026353499688,0.1405198324432761,0.0071584382971636275,0.0,0.0,0.0,0.0,0.0,0.0,0.0,0.0,0.0
10.963000000000001,309,10,963000000,base_footprint,-0.003592090203820503,0.0014523687585910842,0.9263236290514993,0.3767088023577591,0.0,0.0,0.0,0.0,0.0,0.0,0.0,0.0,0.0,0.0008479761258973963,-0.001199166671746034,-0.005647747702130932,0.0,0.0,0.0,0.0,0.0,0.0,0.0,0.0,0.0,0.0007521414497476189,0.1142044190705139,-0.0058590172118653345,0.0,0.0,0.0,0.0,0.0,0.0,0.0,0.0,0.0
10.997,310,10,997000000,base_footprint,-0.0035896667222351827,0.001450227543385041,0.9264538675936425,0.3763884195265277,0.0,0.0,0.0,0.0,0.0,0.0,0.0,0.0,0.0,0.0014489131103737236,-0.0018304099096746527,0.07008443605270578,0.0,0.0,0.0,0.0,0.0,0.0,0.0,0.0,0.0,0.007005656705622278,0.010542794170634603,-0.0010359075642382338,0.0,0.0,0.0,0.0,0.0,0.0,0.0,0.0,0.0
11.031,311,11,31000000,base_footprint,-0.0035794409743002695,0.0014495504744314856,0.9268755269073052,0.3753489630011505,0.0,0.0,0.0,0.0,0.0,0.0,0.0,0.0,0.0,-0.0008291999487167895,-0.00021506895844639387,0.057308388961002404,0.0,0.0,0.0,0.0,0.0,0.0,0.0,0.0,0.0,0.018839330760590405,-0.16644270640161757,0.004080915092926427,0.0,0.0,0.0,0.0,0.0,0.0,0.0,0.0,0.0
11.065,312,11,65000000,base_footprint,-0.003590044596189067,0.001444193698411779,0.9269396173443455,0.37519058048127624,0.0,0.0,0.0,0.0,0.0,0.0,0.0,0.0,0.0,0.00014697654842269086,0.0005144432399175433,-0.021634550253971187,0.0,0.0,0.0,0.0,0.0,0.0,0.0,0.0,0.0,0.012068295835699613,-0.20901456020931639,0.00026109941755560884,0.0,0.0,0.0,0.0,0.0,0.0,0.0,0.0,0.0
11.099,313,11,99000000,base_footprint,-0.0035861921368152304,0.0014425209457378562,0.9268866934551944,0.375321350118769,0.0,0.0,0.0,0.0,0.0,0.0,0.0,0.0,0.0,-0.00020492918284634607,-2.5032243432471284e-05,0.002161819727878245,0.0,0.0,0.0,0.0,0.0,0.0,0.0,0.0,0.0,-0.004242928915211713,0.007039850143225104,0.0007154063316858027,0.0,0.0,0.0,0.0,0.0,0.0,0.0,0.0,0.0
11.133,314,11,133000000,base_footprint,-0.0035831529762475277,0.001442378446004196,0.9268981674906202,0.375293042383812,0.0,0.0,0.0,0.0,0.0,0.0,0.0,0.0,0.0,-0.0003001025119066342,-9.493922762645716e-05,0.001577138020439618,0.0,0.0,0.0,0.0,0.0,0.0,0.0,0.0,0.0,0.0006571125369937436,-0.005758799463379204,0.0001358694751933597,0.0,0.0,0.0,0.0,0.0,0.0,0.0,0.0,0.0
11.167,315,11,167000000,base_footprint,-0.003581980615324865,0.0014426413343045631,0.9269064208757338,0.3752726677233356,0.0,0.0,0.0,0.0,0.0,0.0,0.0,0.0,0.0,-0.00021099974070356854,-7.748421629723234e-05,0.0010693946752229596,0.0,0.0,0.0,0.0,0.0,0.0,0.0,0.0,0.0,0.00043716264071112375,-0.005781292086974445,-0.00013888013721637587,0.0,0.0,0.0,0.0,0.0,0.0,0.0,0.0,0.0
11.201,316,11,201000000,base_footprint,-0.00358750795249147,0.0014452265209763087,0.926932759135785,0.37520754409781637,0.0,0.0,0.0,0.0,0.0,0.0,0.0,0.0,0.0,-0.0006524942514928124,-0.0010501929915488924,0.020674277193756557,0.0,0.0,0.0,0.0,0.0,0.0,0.0,0.0,0.0,-0.017001205278400433,0.5748940952101346,-0.0036384849780437003,0.0,0.0,0.0,0.0,0.0,0.0,0.0,0.0,0.0
11.235,317,11,235000000,base_footprint,-0.0035818090784411356,0.0014408580783582552,0.9271535913329889,0.3746615975117611,0.0,0.0,0.0,0.0,0.0,0.0,0.0,0.0,0.0,0.0008854436852510235,-0.00038459375511463366,-0.006237000646565826,0.0,0.0,0.0,0.0,0.0,0.0,0.0,0.0,0.0,0.01648289312806625,-0.24582766121015867,0.0007611525924130917,0.0,0.0,0.0,0.0,0.0,0.0,0.0,0.0,0.0
11.269,318,11,269000000,base_footprint,-0.003588108718430239,0.0014437542919674086,0.9271081700416087,0.37477390796514726,0.0,0.0,0.0,0.0,0.0,0.0,0.0,0.0,0.0,0.00010271075352708678,-9.002273811622084e-05,-0.007237164438303441,0.0,0.0,0.0,0.0,0.0,0.0,0.0,0.0,0.0,-0.0032024928467429084,-0.005817378572020076,0.0005331350607415324,0.0,0.0,0.0,0.0,0.0,0.0,0.0,0.0,0.0
11.303,319,11,303000000,base_footprint,-0.003593102231782068,0.001443069625343806,0.9273093866360165,0.37427571204012633,0.0,0.0,0.0,0.0,0.0,0.0,0.0,0.0,0.0,-0.00017310075279266212,0.00027905912334240244,0.05573391067315189,0.0,0.0,0.0,0.0,0.0,0.0,0.0,0.0,0.0,0.004263736746962258,0.020153848563746607,-0.00035093275412344087,0.0,0.0,0.0,0.0,0.0,0.0,0.0,0.0,0.0
11.337,320,11,337000000,base_footprint,-0.0035874629755244182,0.0014364823922611574,0.9275520274509752,0.3736740598426941,0.0,0.0,0.0,0.0,0.0,0.0,0.0,0.0,0.0,-0.0006964079260416394,0.0006819728072407105,0.0077071730125269165,0.0,0.0,0.0,0.0,0.0,0.0,0.0,0.0,0.0,0.02182400979584974,-0.3091616605782936,0.003600945006287922,0.0,0.0,0.0,0.0,0.0,0.0,0.0,0.0,0.0
11.371,321,11,371000000,base_footprint,-0.0035985582811369956,0.0014426669891181678,0.9275159728873953,0.37376341330981605,0.0,0.0,0.0,0.0,0.0,0.0,0.0,0.0,0.0,-0.00024590795011799005,-2.2068447318801025e-05,-0.008425987240298114,0.0,0.0,0.0,0.0,0.0,0.0,0.0,0.0,0.0,-0.0016201827369582127,-0.042488119180765234,-0.0009679397208539096,0.0,0.0,0.0,0.0,0.0,0.0,0.0,0.0,0.0
11.405,322,11,405000000,base_footprint,-0.003594203448197558,0.001449561579851718,0.9272777313680707,0.37435409625337795,0.0,0.0,0.0,0.0,0.0,0.0,0.0,0.0,0.0,0.00020280733008937212,-0.000580435050672633,-0.07437010057267852,0.0,0.0,0.0,0.0,0.0,0.0,0.0,0.0,0.0,-0.006844141834949088,-0.031101086990852102,0.000523750876663716,0.0,0.0,0.0,0.0,0.0,0.0,0.0,0.0,0.0
11.439,323,11,439000000,base_footprint,-0.003585710717293278,0.0014499555732149147,0.9266471941835095,0.37591224749842456,0.0,0.0,0.0,0.0,0.0,0.0,0.0,0.0,0.0,0.0015217427731226254,-0.0012163323758576693,-0.10204863611377041,0.0,0.0,0.0,0.0,0.0,0.0,0.0,0.0,0.0,-0.017671882422538646,0.057058333457316805,-0.0028175067328433173,0.0,0.0,0.0,0.0,0.0,0.0,0.0,0.0,0.0
11.473,324,11,473000000,base_footprint,-0.003591179691362644,0.001456902519006042,0.9260798389681467,0.3773077162213968,0.0,0.0,0.0,0.0,0.0,0.0,0.0,0.0,0.0,0.0011417146095332206,-0.00038213645432560734,-0.09420832314926492,0.0,0.0,0.0,0.0,0.0,0.0,0.0,0.0,0.0,-0.02416951383578333,-0.006467802344785729,0.0004075361150028043,0.0,0.0,0.0,0.0,0.0,0.0,0.0,0.0,0.0
11.507,325,11,507000000,base_footprint,-0.003586215057328601,0.0014596611213817839,0.9255625071833121,0.3785750305388811,0.0,0.0,0.0,0.0,0.0,0.0,0.0,0.0,0.0,-0.001432120040977747,0.00015558440182956626,-0.03038232525394068,0.0,0.0,0.0,0.0,0.0,0.0,0.0,0.0,0.0,-0.02187078930059494,0.2615695055448681,0.0020251337091483153,0.0,0.0,0.0,0.0,0.0,0.0,0.0,0.0,0.0
11.541,326,11,541000000,base_footprint,-0.003583947505878387,0.0014572184976388025,0.9255623035112829,0.37857555937145915,0.0,0.0,0.0,0.0,0.0,0.0,0.0,0.0,0.0,-0.0004386031342304662,2.29175495854214e-05,0.0020985833637029326,0.0,0.0,0.0,0.0,0.0,0.0,0.0,0.0,0.0,-0.00011474610872955551,0.08407485227698373,-0.0020861132210085224,0.0,0.0,0.0,0.0,0.0,0.0,0.0,0.0,0.0
11.575,327,11,575000000,base_footprint,-0.003581868316813535,0.001455570994001812,0.9255753133006634,0.37854377678258205,0.0,0.0,0.0,0.0,0.0,0.0,0.0,0.0,0.0,-0.00027790159841535806,8.099713567903068e-05,0.0020382447169297268,0.0,0.0,0.0,0.0,0.0,0.0,0.0,0.0,0.0,-0.0004298359480669595,-0.004618108811945656,-0.0001950162715158116,0.0,0.0,0.0,0.0,0.0,0.0,0.0,0.0,0.0
11.609,328,11,609000000,base_footprint,-0.0035800453018523058,0.0014544999213999662,0.9256944533884374,0.378252358448031,0.0,0.0,0.0,0.0,0.0,0.0,0.0,0.0,0.0,-0.0009874098991609136,0.00016064948363100185,0.0446004018789536,0.0,0.0,0.0,0.0,0.0,0.0,0.0,0.0,0.0,0.009067374213398802,-0.3371452277921708,0.0027593117827676987,0.0,0.0,0.0,0.0,0.0,0.0,0.0,0.0,0.0
