Time,header.seq,header.stamp.secs,header.stamp.nsecs,header.frame_id,orientation.x,orientation.y,orientation.z,orientation.w,orientation_covariance_0,orientation_covariance_1,orientation_covariance_2,orientation_covariance_3,orientation_covariance_4,orientation_covariance_5,orientation_covariance_6,orientation_covariance_7,orientation_covariance_8,angular_velocity.x,angular_velocity.y,angular_velocity.z,angular_velocity_covariance_0,angular_velocity_covariance_1,angular_velocity_covariance_2,angular_velocity_covariance_3,angular_velocity_covariance_4,angular_velocity_covariance_5,angular_velocity_covariance_6,angular_velocity_covariance_7,angular_velocity_covariance_8,linear_acceleration.x,linear_acceleration.y,linear_acceleration.z,linear_acceleration_covariance_0,linear_acceleration_covariance_1,linear_acceleration_covariance_2,linear_acceleration_covariance_3,linear_acceleration_covariance_4,linear_acceleration_covariance_5,linear_acceleration_covariance_6,linear_acceleration_covariance_7,linear_acceleration_covariance_8
0.251,0,0,251000000,base_footprint,0.00012120138151368088,0.00010757692680161369,-0.8660087462040098,0.5000288244047424,0.0,0.0,0.0,0.0,0.0,0.0,0.0,0.0,0.0,-0.05985434928036433,-0.03550011487516796,-0.00011213317663064353,0.0,0.0,0.0,0.0,0.0,0.0,0.0,0.0,0.0,0.0002079836310819979,-0.00022315126892649,-0.03843399825200751,0.0,0.0,0.0,0.0,0.0,0.0,0.0,0.0,0.0
0.28400000000000003,1,0,285000000,base_footprint,0.0011173961271110533,0.0006952676324260089,-0.866009965661142,0.5000250067790631,0.0,0.0,0.0,0.0,0.0,0.0,0.0,0.0,0.0,-0.058372428938728065,-0.03443154535298273,-0.0003930234993116234,0.0,0.0,0.0,0.0,0.0,0.0,0.0,0.0,0.0,-0.0005321614420010295,0.00046600205561181114,-0.0034519896834297906,0.0,0.0,0.0,0.0,0.0,0.0,0.0,0.0,0.0
0.319,2,0,319000000,base_footprint,0.0021111782487865786,0.001281618942426,-0.866010007047839,0.500020567649262,0.0,0.0,0.0,0.0,0.0,0.0,0.0,0.0,0.0,-0.058305600399185586,-0.03439181137965591,-0.0005373945874164881,0.0,0.0,0.0,0.0,0.0,0.0,0.0,0.0,0.0,0.00011932814070263363,-0.0002218032629481328,0.00015121930999474286,0.0,0.0,0.0,0.0,0.0,0.0,0.0,0.0,0.0
0.35300000000000004,3,0,353000000,base_footprint,0.003103830006070205,0.0018673212739050132,-0.8660089864315567,0.5000153145358065,0.0,0.0,0.0,0.0,0.0,0.0,0.0,0.0,0.0,-0.05823887301606168,-0.03435209194438499,-0.0006829101169049298,0.0,0.0,0.0,0.0,0.0,0.0,0.0,0.0,0.0,0.00012478432700464162,-0.00022136478670007874,0.00015078608475004355,0.0,0.0,0.0,0.0,0.0,0.0,0.0,0.0,0.0
0.387,4,0,387000000,base_footprint,0.003347822780471093,0.001940748966251071,-0.8660125532021751,0.5000072832192852,0.0,0.0,0.0,0.0,0.0,0.0,0.0,0.0,0.0,-0.002699733658973937,-0.0020515426499819007,-0.000691081511417797,0.0,0.0,0.0,0.0,0.0,0.0,0.0,0.0,0.0,-0.004103450938188781,0.003341841169983796,0.1277890970667816,0.0,0.0,0.0,0.0,0.0,0.0,0.0,0.0,0.0
0.42100000000000004,5,0,421000000,base_footprint,0.0033401260097947172,0.0019362729157509687,-0.8660132805538331,0.5000060922727066,0.0,0.0,0.0,0.0,0.0,0.0,0.0,0.0,0.0,0.000246568777881219,0.00018339555303422404,0.00016815443161811284,0.0,0.0,0.0,0.0,0.0,0.0,0.0,0.0,0.0,0.0029482611605290815,-0.0036507261259542227,0.0043054511073119806,0.0,0.0,0.0,0.0,0.0,0.0,0.0,0.0,0.0
0.455,6,0,455000000,base_footprint,0.003339950551910768,0.0019362838474718575,-0.8660113232124647,0.500009483513032,0.0,0.0,0.0,0.0,0.0,0.0,0.0,0.0,0.0,0.0001402210836814677,0.00011569950889986843,0.0002983146644302512,0.0,0.0,0.0,0.0,0.0,0.0,0.0,0.0,0.0,-0.00019888878979881861,-0.00016202290711077606,-0.00015559108912497222,0.0,0.0,0.0,0.0,0.0,0.0,0.0,0.0,0.0
0.48900000000000005,7,0,489000000,base_footprint,0.003339858871483328,0.0019363167791858781,-0.866008784179908,0.5000138815505895,0.0,0.0,0.0,0.0,0.0,0.0,0.0,0.0,0.0,0.00013719347318676784,0.00011479462422063213,0.00032979687937483265,0.0,0.0,0.0,0.0,0.0,0.0,0.0,0.0,0.0,-4.839669044528422e-05,-3.849864007389098e-05,-7.177540303756435e-06,0.0,0.0,0.0,0.0,0.0,0.0,0.0,0.0,0.0
0.523,8,0,523000000,base_footprint,0.003339814527262855,0.001936363686354881,-0.8660061052609693,0.5000185214422808,0.0,0.0,0.0,0.0,0.0,0.0,0.0,0.0,0.0,0.00013580052900957827,0.00011438787021609324,0.0003374094380831059,0.0,0.0,0.0,0.0,0.0,0.0,0.0,0.0,0.0,-1.1695941864417909e-05,-9.333998703922725e-06,-2.410213614933779e-06,0.0,0.0,0.0,0.0,0.0,0.0,0.0,0.0,0.0
0.557,9,0,557000000,base_footprint,0.0033397827469786503,0.0019364114773923263,-0.8660033923631082,0.5000232200382118,0.0,0.0,0.0,0.0,0.0,0.0,0.0,0.0,0.0,0.0001353961729693466,0.00011443207477896929,0.0003392649870171433,0.0,0.0,0.0,0.0,0.0,0.0,0.0,0.0,0.0,-2.849387027846388e-06,-2.2831560131986305e-06,-5.312981045973113e-07,0.0,0.0,0.0,0.0,0.0,0.0,0.0,0.0,0.0
0.5910000000000001,10,0,591000000,base_footprint,0.0033397552425698572,0.0019364573865197617,-0.8660006711374559,0.5000279329769346,0.0,0.0,0.0,0.0,0.0,0.0,0.0,0.0,0.0,0.00013522622981229415,0.00011456593551374777,0.0003397258291407282,0.0,0.0,0.0,0.0,0.0,0.0,0.0,0.0,0.0,-7.058475253655422e-07,-5.751131429807808e-07,-9.544228050903246e-08,0.0,0.0,0.0,0.0,0.0,0.0,0.0,0.0,0.0
0.625,11,0,625000000,base_footprint,0.0033397298919952347,0.001936500939043927,-0.8659979477960678,0.5000326495153701,0.0,0.0,0.0,0.0,0.0,0.0,0.0,0.0,0.0,0.00013511970095815874,0.00011471064558072712,0.00033984891664358636,0.0,0.0,0.0,0.0,0.0,0.0,0.0,0.0,0.0,-1.8652235420807814e-07,-1.6127336593916664e-07,6.951546727950033e-09,0.0,0.0,0.0,0.0,0.0,0.0,0.0,0.0,0.0
0.66,12,0,659000000,base_footprint,0.0033397060774117662,0.0019365421964952047,-0.8659952238434258,0.5000373670517163,0.0,0.0,0.0,0.0,0.0,0.0,0.0,0.0,0.0,0.00013503435949357434,0.00011484801076831827,0.0003398902083286453,0.0,0.0,0.0,0.0,0.0,0.0,0.0,0.0,0.0,-6.054074664695269e-08,-6.088022040792527e-08,2.8632477430616904e-08,0.0,0.0,0.0,0.0,0.0,0.0,0.0,0.0,0.0
0.6930000000000001,13,0,693000000,base_footprint,0.0033396835549798116,0.0019365813339354335,-0.8659924996439283,0.5000420849558069,0.0,0.0,0.0,0.0,0.0,0.0,0.0,0.0,0.0,0.00013495944106612764,0.00011497455271652712,0.00033991169138603044,0.0,0.0,0.0,0.0,0.0,0.0,0.0,0.0,0.0,-2.9835969225089976e-08,-3.641441029834873e-08,3.105941867458757e-08,0.0,0.0,0.0,0.0,0.0,0.0,0.0,0.0,0.0
0.7270000000000001,14,0,727000000,base_footprint,0.0033396621801769747,0.0019366185390476834,-0.8659897752858677,0.5000468030749612,0.0,0.0,0.0,0.0,0.0,0.0,0.0,0.0,0.0,0.00013489184773837615,0.00011509026890175837,0.0003399283775115005,0.0,0.0,0.0,0.0,0.0,0.0,0.0,0.0,0.0,-2.2222443055218952e-08,-3.035120667852621e-08,2.9085590586139985e-08,0.0,0.0,0.0,0.0,0.0,0.0,0.0,0.0,0.0
0.761,15,0,761000000,base_footprint,0.003339641840468715,0.0019366539890810959,-0.8659870507906653,0.500051521372138,0.0,0.0,0.0,0.0,0.0,0.0,0.0,0.0,0.0,0.00013483038359627533,0.00011519592069959005,0.00033994390201185827,0.0,0.0,0.0,0.0,0.0,0.0,0.0,0.0,0.0,-2.0217111632339858e-08,-2.8757690405058367e-08,2.628354368067972e-08,0.0,0.0,0.0,0.0,0.0,0.0,0.0,0.0,0.0
0.795,16,0,795000000,base_footprint,0.0033396224382661334,0.0019366878465203997,-0.8659843261635449,0.5000562398383067,0.0,0.0,0.0,0.0,0.0,0.0,0.0,0.0,0.0,0.00013477435468274858,0.00011529238387635527,0.0003399591453561471,0.0,0.0,0.0,0.0,0.0,0.0,0.0,0.0,0.0,-1.958494430405022e-08,-2.8258622565381112e-08,2.3496672429961795e-08,0.0,0.0,0.0,0.0,0.0,0.0,0.0,0.0,0.0
0.8290000000000001,17,0,829000000,base_footprint,0.003339603886130233,0.001936720259173219,-0.865981601405804,0.5000609584712256,0.0,0.0,0.0,0.0,0.0,0.0,0.0,0.0,0.0,0.00013472322633037686,0.00011538049744709417,0.0003399743206713238,0.0,0.0,0.0,0.0,0.0,0.0,0.0,0.0,0.0,-1.929866779273222e-08,-2.8035222934266664e-08,2.0908966540370735e-08,0.0,0.0,0.0,0.0,0.0,0.0,0.0,0.0,0.0
0.8630000000000001,18,0,863000000,base_footprint,0.0033395861050047075,0.001936751361222291,-0.8659788765177857,0.5000656772703022,0.0,0.0,0.0,0.0,0.0,0.0,0.0,0.0,0.0,0.00013467653618139358,0.0001154610333752783,0.00033998947968920385,0.0,0.0,0.0,0.0,0.0,0.0,0.0,0.0,0.0,-1.9108593767719702e-08,-2.7888467081137694e-08,1.854679905105407e-08,0.0,0.0,0.0,0.0,0.0,0.0,0.0,0.0,0.0
0.897,19,0,897000000,base_footprint,0.0033395690232372686,0.001936781274415152,-0.8659761514995985,0.5000703962353488,0.0,0.0,0.0,0.0,0.0,0.0,0.0,0.0,0.0,0.0001346338705619706,0.00011553469462333233,0.00034000463496398355,0.0,0.0,0.0,0.0,0.0,0.0,0.0,0.0,0.0,-1.8952983288166302e-08,-2.776911080897778e-08,1.6400329648085472e-08,0.0,0.0,0.0,0.0,0.0,0.0,0.0,0.0,0.0
0.931,20,0,931000000,base_footprint,0.003339552575844245,0.0019368101092004908,-0.8659734263512923,0.5000751153662791,0.0,0.0,0.0,0.0,0.0,0.0,0.0,0.0,0.0,0.00013459485541904255,0.00011560211956578445,0.0003400197894747969,0.0,0.0,0.0,0.0,0.0,0.0,0.0,0.0,0.0,-1.8815724078093724e-08,-2.766429905442261e-08,1.4452380894814881e-08,0.0,0.0,0.0,0.0,0.0,0.0,0.0,0.0,0.0
0.9650000000000001,21,0,965000000,base_footprint,0.0033395367038791327,0.0019368379657729382,-0.8659707010728994,0.5000798346630356,0.0,0.0,0.0,0.0,0.0,0.0,0.0,0.0,0.0,0.00013455915187152222,0.00011566388723963248,0.0003400349440312781,0.0,0.0,0.0,0.0,0.0,0.0,0.0,0.0,0.0,-1.8692200928159242e-08,-2.7570342747093794e-08,1.2684521124005869e-08,0.0,0.0,0.0,0.0,0.0,0.0,0.0,0.0,0.0
1.0,22,0,999000000,base_footprint,0.0033395213538696157,0.0019368649350239473,-0.8659679756644455,0.5000845541255725,0.0,0.0,0.0,0.0,0.0,0.0,0.0,0.0,0.0,0.00013452645231789299,0.00011572052312730456,0.0003400500989185737,0.0,0.0,0.0,0.0,0.0,0.0,0.0,0.0,0.0,-1.8580461520546132e-08,-2.748567778516049e-08,1.1080819499642255e-08,0.0,0.0,0.0,0.0,0.0,0.0,0.0,0.0,0.0
1.033,23,1,33000000,base_footprint,0.0033395064773084518,0.0019368910994055962,-0.8659652501259532,0.5000892737538495,0.0,0.0,0.0,0.0,0.0,0.0,0.0,0.0,0.0,0.00013449647798055673,0.00011577250379378328,0.00034006525405960546,0.0,0.0,0.0,0.0,0.0,0.0,0.0,0.0,0.0,-1.8478894908160664e-08,-2.7409009682154196e-08,9.625824801658835e-09,0.0,0.0,0.0,0.0,0.0,0.0,0.0,0.0,0.0
1.067,24,1,67000000,base_footprint,0.003339492030192066,0.0019369165337138911,-0.8659625244574415,0.50009399354783,0.0,0.0,0.0,0.0,0.0,0.0,0.0,0.0,0.0,0.00013446897589155436,0.00011582026167022306,0.00034008040961975054,0.0,0.0,0.0,0.0,0.0,0.0,0.0,0.0,0.0,-1.8386925627555504e-08,-2.733987458563833e-08,8.305973822096496e-09,0.0,0.0,0.0,0.0,0.0,0.0,0.0,0.0,0.0
1.101,25,1,101000000,base_footprint,0.0033394779726027,0.0019369413057997377,-0.8659597986589271,0.5000987135074825,0.0,0.0,0.0,0.0,0.0,0.0,0.0,0.0,0.0,0.0001344437165530817,0.00011586418899999401,0.00034009556560554645,0.0,0.0,0.0,0.0,0.0,0.0,0.0,0.0,0.0,-1.8303443818664948e-08,-2.727738364813066e-08,7.108263871807901e-09,0.0,0.0,0.0,0.0,0.0,0.0,0.0,0.0,0.0
1.135,26,1,135000000,base_footprint,0.0033394642683289306,0.0019369654772138929,-0.8659570727304248,0.5001034336327783,0.0,0.0,0.0,0.0,0.0,0.0,0.0,0.0,0.0,0.00013442049170649733,0.00011590464139334338,0.0003401107220270822,0.0,0.0,0.0,0.0,0.0,0.0,0.0,0.0,0.0,-1.8227668640852538e-08,-2.722092473044794e-08,6.02186229993082e-09,0.0,0.0,0.0,0.0,0.0,0.0,0.0,0.0,0.0
1.169,27,1,169000000,base_footprint,0.00333945088452117,0.001936989103791861,-0.8659543466719467,0.5001081539236922,0.0,0.0,0.0,0.0,0.0,0.0,0.0,0.0,0.0,0.00013439911252607223,0.00011594194174678352,0.0003401258789074405,0.0,0.0,0.0,0.0,0.0,0.0,0.0,0.0,0.0,-1.815891455196329e-08,-2.7169934637679887e-08,5.0361489421679445e-09,0.0,0.0,0.0,0.0,0.0,0.0,0.0,0.0,0.0
1.203,28,1,203000000,base_footprint,0.0033394377913802255,0.0019370122361844796,-0.8659516204835042,0.5001128743802019,0.0,0.0,0.0,0.0,0.0,0.0,0.0,0.0,0.0,0.0001343794076167541,0.00011597638279597745,0.0003401410362638901,0.0,0.0,0.0,0.0,0.0,0.0,0.0,0.0,0.0,-1.8096523052391056e-08,-2.7123902916648177e-08,4.141975083025399e-09,0.0,0.0,0.0,0.0,0.0,0.0,0.0,0.0,0.0
1.237,29,1,237000000,base_footprint,0.003339424961873419,0.0019370349203394607,-0.8659488941651059,0.5001175950022874,0.0,0.0,0.0,0.0,0.0,0.0,0.0,0.0,0.0,0.00013436122163801867,0.00011600823011463239,0.00034015619417366715,0.0,0.0,0.0,0.0,0.0,0.0,0.0,0.0,0.0,-1.804000101874106e-08,-2.7082427382372587e-08,3.3306992897873906e-09,0.0,0.0,0.0,0.0,0.0,0.0,0.0,0.0,0.0
1.271,30,1,271000000,base_footprint,0.0033394123714779633,0.0019370571979381995,-0.8659461677167593,0.5001223157899309,0.0,0.0,0.0,0.0,0.0,0.0,0.0,0.0,0.0,0.00013434441352921445,0.0001160377245527886,0.00034017135263038855,0.0,0.0,0.0,0.0,0.0,0.0,0.0,0.0,0.0,-1.7988686738994433e-08,-2.7044994352223365e-08,2.5946964140291803e-09,0.0,0.0,0.0,0.0,0.0,0.0,0.0,0.0,0.0
1.305,31,1,305000000,base_footprint,0.0033361306474197485,0.0019344373242499383,-0.8660875956937669,0.49987738973665535,0.0,0.0,0.0,0.0,0.0,0.0,0.0,0.0,0.0,0.0001901718839028243,0.0003025042624010589,-0.03318791459318814,0.0,0.0,0.0,0.0,0.0,0.0,0.0,0.0,0.0,-0.36468006918371726,0.631662805000417,0.00271381160828043,0.0,0.0,0.0,0.0,0.0,0.0,0.0,0.0,0.0
1.339,32,1,339000000,base_footprint,0.0033365559128714422,0.001930907299438615,-0.8665231373227125,0.49912202062826794,0.0,0.0,0.0,0.0,0.0,0.0,0.0,0.0,0.0,0.0038596105903148823,0.0024884008218603823,-0.06793934942632505,0.0,0.0,0.0,0.0,0.0,0.0,0.0,0.0,0.0,-0.37465414740895087,0.6570149695242798,0.0058565428072216525,0.0,0.0,0.0,0.0,0.0,0.0,0.0,0.0,0.0
1.373,33,1,373000000,base_footprint,0.0033400553977814217,0.0019265070606862833,-0.8672513080293682,0.49785570331355544,0.0,0.0,0.0,0.0,0.0,0.0,0.0,0.0,0.0,0.004081389872810991,0.0027364150846876266,-0.10256467208702681,0.0,0.0,0.0,0.0,0.0,0.0,0.0,0.0,0.0,-0.3660423380027802,0.6570172437238536,0.0030221520752026104,0.0,0.0,0.0,0.0,0.0,0.0,0.0,0.0,0.0
1.407,34,1,407000000,base_footprint,0.0033442171256262716,0.0019198810176108833,-0.868269317024314,0.4960781424159162,0.0,0.0,0.0,0.0,0.0,0.0,0.0,0.0,0.0,0.0023612773861796396,0.0019414304104082487,-0.1372193477512868,0.0,0.0,0.0,0.0,0.0,0.0,0.0,0.0,0.0,-0.34836058315453317,0.6481125321213969,0.00285326394685186,0.0,0.0,0.0,0.0,0.0,0.0,0.0,0.0,0.0
1.441,35,1,441000000,base_footprint,0.003351100037754331,0.0019121570334114852,-0.8695701066145526,0.49379443442223236,0.0,0.0,0.0,0.0,0.0,0.0,0.0,0.0,0.0,0.0008625084081394606,0.0013217646745613651,-0.17098901958218077,0.0,0.0,0.0,0.0,0.0,0.0,0.0,0.0,0.0,-0.3194433124834256,0.624693748298801,0.0008709807800974186,0.0,0.0,0.0,0.0,0.0,0.0,0.0,0.0,0.0
1.475,36,1,475000000,base_footprint,0.003359426821632767,0.0019028825424440587,-0.8711362566502783,0.4910261863065965,0.0,0.0,0.0,0.0,0.0,0.0,0.0,0.0,0.0,0.0009901892663759404,0.0014777623875836953,-0.20191164319957683,0.0,0.0,0.0,0.0,0.0,0.0,0.0,0.0,0.0,-0.27347376916400323,0.5728492658576202,0.0025379578092458344,0.0,0.0,0.0,0.0,0.0,0.0,0.0,0.0,0.0
1.509,37,1,509000000,base_footprint,0.0033701235551036155,0.0018935138957389215,-0.872913861784926,0.48785904396257423,0.0,0.0,0.0,0.0,0.0,0.0,0.0,0.0,0.0,0.0009595194895271975,0.001503665115712402,-0.22192351088766663,0.0,0.0,0.0,0.0,0.0,0.0,0.0,0.0,0.0,-0.20587451534445825,0.47696851264464546,0.001560327484103654,0.0,0.0,0.0,0.0,0.0,0.0,0.0,0.0,0.0
1.5430000000000001,38,1,543000000,base_footprint,0.0033792527376914202,0.001882481975186374,-0.8747650468482586,0.4845318872118861,0.0,0.0,0.0,0.0,0.0,0.0,0.0,0.0,0.0,0.001011800877224623,0.0014295124065459156,-0.22226718130536555,0.0,0.0,0.0,0.0,0.0,0.0,0.0,0.0,0.0,-0.12163550639781194,0.33694398322397767,0.0016401360316962766,0.0,0.0,0.0,0.0,0.0,0.0,0.0,0.0,0.0
1.577,39,1,577000000,base_footprint,0.0033839352972547766,0.0018671705977426469,-0.876509198505505,0.4813695956238827,0.0,0.0,0.0,0.0,0.0,0.0,0.0,0.0,0.0,0.0014149786196212754,0.0022424037422423735,-0.19910585484723686,0.0,0.0,0.0,0.0,0.0,0.0,0.0,0.0,0.0,-0.03620038800282228,0.16338980755029994,0.0027531333483237193,0.0,0.0,0.0,0.0,0.0,0.0,0.0,0.0,0.0
1.611,40,1,611000000,base_footprint,0.003382905700970204,0.0018463503940835267,-0.8780354065706161,0.4785801623005424,0.0,0.0,0.0,0.0,0.0,0.0,0.0,0.0,0.0,0.0010163378986905258,0.0006576691704471091,-0.19152747502218812,0.0,0.0,0.0,0.0,0.0,0.0,0.0,0.0,0.0,0.008086599466736104,0.017302627994529158,-0.0023070419688437345,0.0,0.0,0.0,0.0,0.0,0.0,0.0,0.0,0.0
1.645,41,1,645000000,base_footprint,0.0033821951866532165,0.0018418701537260965,-0.8798912661743848,0.4751594763656662,0.0,0.0,0.0,0.0,0.0,0.0,0.0,0.0,0.0,0.0012624756036280138,0.0018055791118150749,-0.2672589526856245,0.0,0.0,0.0,0.0,0.0,0.0,0.0,0.0,0.0,0.018540792472977442,0.0936401253773765,0.0011627127223073261,0.0,0.0,0.0,0.0,0.0,0.0,0.0,0.0,0.0
1.679,42,1,679000000,base_footprint,0.003392986030595849,0.0018249573020428093,-0.8823884573221099,0.4705058634718051,0.0,0.0,0.0,0.0,0.0,0.0,0.0,0.0,0.0,0.0022345859426182247,0.0024656374447712508,-0.352648906814393,0.0,0.0,0.0,0.0,0.0,0.0,0.0,0.0,0.0,-0.03823589433151427,0.25050570555367846,0.0022154010257964254,0.0,0.0,0.0,0.0,0.0,0.0,0.0,0.0,0.0
1.713,43,1,713000000,base_footprint,0.003409041575807119,0.0018088938169347174,-0.8853289235596363,0.46494924824912803,0.0,0.0,0.0,0.0,0.0,0.0,0.0,0.0,0.0,0.0018015809347277853,0.0024141703908822122,-0.34820788908411804,0.0,0.0,0.0,0.0,0.0,0.0,0.0,0.0,0.0,-0.01627397517081186,0.24604543176348267,0.001207766021860728,0.0,0.0,0.0,0.0,0.0,0.0,0.0,0.0,0.0
1.7469999999999999,44,1,747000000,base_footprint,0.0034173100706222145,0.0017892586896742278,-0.8876926303195614,0.46042036729662733,0.0,0.0,0.0,0.0,0.0,0.0,0.0,0.0,0.0,0.0014432838558378347,0.0016371503503060433,-0.25018029205634806,0.0,0.0,0.0,0.0,0.0,0.0,0.0,0.0,0.0,-0.011238411306484439,0.21697688546408242,0.0014141556863580583,0.0,0.0,0.0,0.0,0.0,0.0,0.0,0.0,0.0
1.7810000000000001,45,1,781000000,base_footprint,0.003441119127343791,0.0017780464265015519,-0.8894736750597255,0.4569699975116557,0.0,0.0,0.0,0.0,0.0,0.0,0.0,0.0,0.0,0.004913475321817644,0.002245554657469565,-0.21701745964808555,0.0,0.0,0.0,0.0,0.0,0.0,0.0,0.0,0.0,0.10474429814865924,-0.15968030905651595,0.0006501726820247127,0.0,0.0,0.0,0.0,0.0,0.0,0.0,0.0,0.0
1.815,46,1,815000000,base_footprint,0.0034318118301851514,0.001763319340797565,-0.8908812611491859,0.4542198717644362,0.0,0.0,0.0,0.0,0.0,0.0,0.0,0.0,0.0,-0.0020902844557802247,0.0007366256381720654,-0.18978424851799353,0.0,0.0,0.0,0.0,0.0,0.0,0.0,0.0,0.0,0.1768051548660454,-0.42476237866302885,-0.0065575806828458705,0.0,0.0,0.0,0.0,0.0,0.0,0.0,0.0,0.0
1.8490000000000002,47,1,849000000,base_footprint,0.003441171747131025,0.0017531820169780072,-0.8923527558813357,0.4513221064393006,0.0,0.0,0.0,0.0,0.0,0.0,0.0,0.0,0.0,0.0010449828136377627,0.0011527048059963632,-0.19119388080030794,0.0,0.0,0.0,0.0,0.0,0.0,0.0,0.0,0.0,0.02926916012956125,0.02770035951395048,0.0034014088616673567,0.0,0.0,0.0,0.0,0.0,0.0,0.0,0.0,0.0
1.883,48,1,883000000,base_footprint,0.0034438224160086408,0.0017410123047995052,-0.8938245813785506,0.44840018586836067,0.0,0.0,0.0,0.0,0.0,0.0,0.0,0.0,0.0,0.0007583704056652702,0.00203178388976235,-0.19320260144213192,0.0,0.0,0.0,0.0,0.0,0.0,0.0,0.0,0.0,-0.030814275693890142,0.22737508931477537,0.0026243805752008543,0.0,0.0,0.0,0.0,0.0,0.0,0.0,0.0,0.0
1.917,49,1,917000000,base_footprint,0.0034471969658543223,0.001735044158907399,-0.8946921161426864,0.44666668083366945,0.0,0.0,0.0,0.0,0.0,0.0,0.0,0.0,0.0,0.000663488895172014,0.0004972640324939894,-0.07513011423040772,0.0,0.0,0.0,0.0,0.0,0.0,0.0,0.0,0.0,-0.11762640161718727,0.49559549641672335,0.001342123024859141,0.0,0.0,0.0,0.0,0.0,0.0,0.0,0.0,0.0
1.951,50,1,951000000,base_footprint,0.0034590300733846357,0.0017321225839792669,-0.8957356412729615,0.44457023721299893,0.0,0.0,0.0,0.0,0.0,0.0,0.0,0.0,0.0,0.00035838418615707554,0.000519529655371806,-0.16944454786545327,0.0,0.0,0.0,0.0,0.0,0.0,0.0,0.0,0.0,-0.05417375312660698,0.29478239554742447,-0.0001916150210923203,0.0,0.0,0.0,0.0,0.0,0.0,0.0,0.0,0.0
1.985,51,1,985000000,base_footprint,0.003468955347985032,0.001729740250353602,-0.8968854354214322,0.44224596106280933,0.0,0.0,0.0,0.0,0.0,0.0,0.0,0.0,0.0,0.0009402654234443965,0.0017817240705788762,-0.11823341751884897,0.0,0.0,0.0,0.0,0.0,0.0,0.0,0.0,0.0,0.0409949828900984,-0.011781737489208912,0.0030545795824083,0.0,0.0,0.0,0.0,0.0,0.0,0.0,0.0,0.0
2.019,52,2,19000000,base_footprint,0.003473171747606754,0.0017209039107185002,-0.8977893031324148,0.4404081547255397,0.0,0.0,0.0,0.0,0.0,0.0,0.0,0.0,0.0,0.0006423661497743099,0.0007935117639472087,-0.11896232224140209,0.0,0.0,0.0,0.0,0.0,0.0,0.0,0.0,0.0,0.025747389600186577,0.009288568132423824,-0.0014493463746581311,0.0,0.0,0.0,0.0,0.0,0.0,0.0,0.0,0.0
2.053,53,2,53000000,base_footprint,0.0034778380067401315,0.0017046251943729994,-0.8986630856918868,0.43862245417953943,0.0,0.0,0.0,0.0,0.0,0.0,0.0,0.0,0.0,0.0004639722712715488,0.0012231295849070415,-0.11329025357800229,0.0,0.0,0.0,0.0,0.0,0.0,0.0,0.0,0.0,0.02315169365148293,-0.011282520517106778,0.0001765413596209332,0.0,0.0,0.0,0.0,0.0,0.0,0.0,0.0,0.0
2.087,54,2,87000000,base_footprint,0.0034837795141330263,0.0017001664124806936,-0.8994295823059925,0.437048508963633,0.0,0.0,0.0,0.0,0.0,0.0,0.0,0.0,0.0,-3.989149279744761e-05,0.00026219785118558625,-0.09959271670030102,0.0,0.0,0.0,0.0,0.0,0.0,0.0,0.0,0.0,0.032730404027246605,-0.014114184587459383,-0.0011563912066742655,0.0,0.0,0.0,0.0,0.0,0.0,0.0,0.0,0.0
2.121,55,2,121000000,base_footprint,0.0034855888945609275,0.0016944699094320198,-0.9002107632017387,0.4354372070201712,0.0,0.0,0.0,0.0,0.0,0.0,0.0,0.0,0.0,0.0007345832429941881,0.0004213489630500855,-0.10597574990787254,0.0,0.0,0.0,0.0,0.0,0.0,0.0,0.0,0.0,0.021553667013020063,0.006551813457524062,0.0013031103452145554,0.0,0.0,0.0,0.0,0.0,0.0,0.0,0.0,0.0
2.155,56,2,155000000,base_footprint,0.0034820895025111744,0.001690029638068269,-0.9010778582476345,0.43364007221239964,0.0,0.0,0.0,0.0,0.0,0.0,0.0,0.0,0.0,0.0006241844114993302,0.0009266869237340258,-0.13166411109463913,0.0,0.0,0.0,0.0,0.0,0.0,0.0,0.0,0.0,0.030170451927570008,-0.02872972659443538,-0.00016206133752165404,0.0,0.0,0.0,0.0,0.0,0.0,0.0,0.0,0.0
2.189,57,2,189000000,base_footprint,0.003488957003664107,0.00168037648977221,-0.9019270477905407,0.431871050173219,0.0,0.0,0.0,0.0,0.0,0.0,0.0,0.0,0.0,-0.0007601773595233013,0.00041925619428555424,-0.059314530931503295,0.0,0.0,0.0,0.0,0.0,0.0,0.0,0.0,0.0,0.0913051139532488,-0.29261942282298675,-0.001871929624845149,0.0,0.0,0.0,0.0,0.0,0.0,0.0,0.0,0.0
2.223,58,2,223000000,base_footprint,0.0034764345662536755,0.001669951830789825,-0.9022237775321553,0.4312509488907791,0.0,0.0,0.0,0.0,0.0,0.0,0.0,0.0,0.0,0.00024013436580185233,0.0008966177628071217,-0.09393794476385861,0.0,0.0,0.0,0.0,0.0,0.0,0.0,0.0,0.0,0.028119996640759627,-0.08726871452157473,-0.0003037962151616071,0.0,0.0,0.0,0.0,0.0,0.0,0.0,0.0,0.0
2.257,59,2,257000000,base_footprint,0.003489090490100288,0.0016662705550288671,-0.903064686998076,0.42948716032852063,0.0,0.0,0.0,0.0,0.0,0.0,0.0,0.0,0.0,0.0007218981826704119,0.0008570674275110922,-0.116661220899109,0.0,0.0,0.0,0.0,0.0,0.0,0.0,0.0,0.0,0.0015784832458574996,0.1075634004453184,0.0016215777381180492,0.0,0.0,0.0,0.0,0.0,0.0,0.0,0.0,0.0
2.291,60,2,291000000,base_footprint,0.003490326682238725,0.0016625792594839146,-0.9035631427660048,0.4284375105948097,0.0,0.0,0.0,0.0,0.0,0.0,0.0,0.0,0.0,0.0008534197606144104,0.00019227025660053225,-0.008478766145594795,0.0,0.0,0.0,0.0,0.0,0.0,0.0,0.0,0.0,0.02295935644130174,-0.022238814980818623,0.001101889694902981,0.0,0.0,0.0,0.0,0.0,0.0,0.0,0.0,0.0
2.325,61,2,325000000,base_footprint,0.003484142576312807,0.001659313477506207,-0.9037907358000377,0.42795725640689614,0.0,0.0,0.0,0.0,0.0,0.0,0.0,0.0,0.0,0.0009519289782090998,0.0005549453109436863,-0.09704845455001666,0.0,0.0,0.0,0.0,0.0,0.0,0.0,0.0,0.0,-0.06449320680713122,0.33385617380627597,0.0007588426836723874,0.0,0.0,0.0,0.0,0.0,0.0,0.0,0.0,0.0
2.357,62,2,359000000,base_footprint,0.003490951095257674,0.0016571217846328456,-0.9045690808284521,0.4263095650076489,0.0,0.0,0.0,0.0,0.0,0.0,0.0,0.0,0.0,0.000643881526875113,0.0005891697481487732,-0.10774180110034291,0.0,0.0,0.0,0.0,0.0,0.0,0.0,0.0,0.0,0.01611416652327878,0.04416240151870558,-1.6758378232887574e-05,0.0,0.0,0.0,0.0,0.0,0.0,0.0,0.0,0.0
2.393,63,2,393000000,base_footprint,0.0034948919323295902,0.001654720143528423,-0.905260464209751,0.42483942798470814,0.0,0.0,0.0,0.0,0.0,0.0,0.0,0.0,0.0,0.00032108669573570163,0.0004066462627267559,-0.08720662270387682,0.0,0.0,0.0,0.0,0.0,0.0,0.0,0.0,0.0,0.02138340858616948,0.0034468407135310342,-0.00018406486737532955,0.0,0.0,0.0,0.0,0.0,0.0,0.0,0.0,0.0
2.427,64,2,427000000,base_footprint,0.0034994573448997764,0.001652586828475455,-0.9058883471990353,0.42349890810256596,0.0,0.0,0.0,0.0,0.0,0.0,0.0,0.0,0.0,0.00047975290254078176,0.00038750884948000305,-0.08672983716391225,0.0,0.0,0.0,0.0,0.0,0.0,0.0,0.0,0.0,0.0186818161630443,0.007017748679253385,0.0001362672910086834,0.0,0.0,0.0,0.0,0.0,0.0,0.0,0.0,0.0
2.461,65,2,461000000,base_footprint,0.00350396956500249,0.001649075967457948,-0.9065039181362904,0.4221796408512553,0.0,0.0,0.0,0.0,0.0,0.0,0.0,0.0,0.0,0.0004451916434036782,0.0004169240940429856,-0.08438343294025069,0.0,0.0,0.0,0.0,0.0,0.0,0.0,0.0,0.0,0.018907637878664372,0.0018557487406464807,7.402578438851853e-05,0.0,0.0,0.0,0.0,0.0,0.0,0.0,0.0,0.0
2.495,66,2,495000000,base_footprint,0.003502483805069733,0.0016258836848370322,-0.9073615099005271,0.42033341463708823,0.0,0.0,0.0,0.0,0.0,0.0,0.0,0.0,0.0,-0.00013522312731499716,0.0014547962571065773,-0.16330825490832204,0.0,0.0,0.0,0.0,0.0,0.0,0.0,0.0,0.0,0.07181955277747677,-0.2853403719974005,-0.0021816909561005343,0.0,0.0,0.0,0.0,0.0,0.0,0.0,0.0,0.0
2.529,67,2,529000000,base_footprint,0.003520221446362634,0.0016353950400298735,-0.9082082324641527,0.41850058543372576,0.0,0.0,0.0,0.0,0.0,0.0,0.0,0.0,0.0,0.0004015641449328246,0.0005244874136510372,-0.09127936829274916,0.0,0.0,0.0,0.0,0.0,0.0,0.0,0.0,0.0,0.02864945021411984,-0.00548645656313199,0.000630211376016693,0.0,0.0,0.0,0.0,0.0,0.0,0.0,0.0,0.0
2.563,68,2,563000000,base_footprint,0.0035182030907524213,0.001622111319173454,-0.9087586731157917,0.417304043880126,0.0,0.0,0.0,0.0,0.0,0.0,0.0,0.0,0.0,0.0002765830138847517,0.0004889843623073509,-0.06113465606997475,0.0,0.0,0.0,0.0,0.0,0.0,0.0,0.0,0.0,0.028697196029257854,-0.07948054184092007,-0.0003120801809526791,0.0,0.0,0.0,0.0,0.0,0.0,0.0,0.0,0.0
2.597,69,2,597000000,base_footprint,0.0035079910863662924,0.001606881789884405,-0.909199518279992,0.4163428249518443,0.0,0.0,0.0,0.0,0.0,0.0,0.0,0.0,0.0,0.0004553584196342906,0.0006333767226060407,-0.06677232408468606,0.0,0.0,0.0,0.0,0.0,0.0,0.0,0.0,0.0,-0.015189200454930288,0.19164559516176155,0.002137625325150874,0.0,0.0,0.0,0.0,0.0,0.0,0.0,0.0,0.0
2.6310000000000002,70,2,631000000,base_footprint,0.003514837638185989,0.0016147569487462911,-0.9098563148351129,0.41490544083084985,0.0,0.0,0.0,0.0,0.0,0.0,0.0,0.0,0.0,0.001327661608386326,0.00036716953882292886,-0.1033284368058843,0.0,0.0,0.0,0.0,0.0,0.0,0.0,0.0,0.0,-0.006619365334803673,0.1478756220208415,0.0013596399837739939,0.0,0.0,0.0,0.0,0.0,0.0,0.0,0.0,0.0
2.665,71,2,665000000,base_footprint,0.003518235453327736,0.0016064422495320836,-0.9106654919691688,0.41312637666838153,0.0,0.0,0.0,0.0,0.0,0.0,0.0,0.0,0.0,0.0004718076593743885,0.0008798753851457299,-0.1263696359565773,0.0,0.0,0.0,0.0,0.0,0.0,0.0,0.0,0.0,0.03705426227959657,-0.03752210269944772,-0.0005527597489475322,0.0,0.0,0.0,0.0,0.0,0.0,0.0,0.0,0.0
2.699,72,2,699000000,base_footprint,0.0035116007906138124,0.0016015839803577001,-0.9113719939862144,0.4115655381178471,0.0,0.0,0.0,0.0,0.0,0.0,0.0,0.0,0.0,0.00047413114241880795,0.00046590076441668424,-0.0821731387783666,0.0,0.0,0.0,0.0,0.0,0.0,0.0,0.0,0.0,0.01924720319618993,0.00401950013933835,-8.621949210885094e-05,0.0,0.0,0.0,0.0,0.0,0.0,0.0,0.0,0.0
2.733,73,2,733000000,base_footprint,0.003522053773830014,0.0015937378741895207,-0.9118242777721849,0.41056246979240085,0.0,0.0,0.0,0.0,0.0,0.0,0.0,0.0,0.0,0.000666397494267664,0.00040872746114241294,-0.05987192284619786,0.0,0.0,0.0,0.0,0.0,0.0,0.0,0.0,0.0,0.007605166501413664,0.0547645507070418,0.0004387943535508045,0.0,0.0,0.0,0.0,0.0,0.0,0.0,0.0,0.0
2.767,74,2,767000000,base_footprint,0.0035231159607604,0.00159001921081192,-0.9122334315503651,0.40965256725020277,0.0,0.0,0.0,0.0,0.0,0.0,0.0,0.0,0.0,0.000510998188266714,0.00040944785399395407,-0.05874141302929404,0.0,0.0,0.0,0.0,0.0,0.0,0.0,0.0,0.0,0.012509895853541108,0.01033458253252,-2.4833262390486343e-05,0.0,0.0,0.0,0.0,0.0,0.0,0.0,0.0,0.0
2.801,75,2,801000000,base_footprint,0.003523918947129469,0.0015865732196984623,-0.912809638033208,0.408367027922623,0.0,0.0,0.0,0.0,0.0,0.0,0.0,0.0,0.0,0.0005438604633467283,0.0004812335964595371,-0.08806675686085293,0.0,0.0,0.0,0.0,0.0,0.0,0.0,0.0,0.0,0.016761913425304975,0.014951728042199627,8.90707705130447e-05,0.0,0.0,0.0,0.0,0.0,0.0,0.0,0.0,0.0
2.835,76,2,835000000,base_footprint,0.003525774608457874,0.001583714110540469,-0.9134205649545482,0.40699868830395614,0.0,0.0,0.0,0.0,0.0,0.0,0.0,0.0,0.0,0.0005743686336786304,0.000413314551160823,-0.08835318285926506,0.0,0.0,0.0,0.0,0.0,0.0,0.0,0.0,0.0,0.01869756215780385,0.007623660734037058,4.590240670434161e-05,0.0,0.0,0.0,0.0,0.0,0.0,0.0,0.0,0.0
2.869,77,2,869000000,base_footprint,0.0035293062928177274,0.0015818095164534072,-0.9140302642889025,0.40562756050311005,0.0,0.0,0.0,0.0,0.0,0.0,0.0,0.0,0.0,0.00048776844432606663,0.0002980434235938138,-0.08827072045948378,0.0,0.0,0.0,0.0,0.0,0.0,0.0,0.0,0.0,0.01921445833534263,0.0065895757133588384,-0.00019437954496463972,0.0,0.0,0.0,0.0,0.0,0.0,0.0,0.0,0.0
2.903,78,2,903000000,base_footprint,0.003531006889337139,0.0015832861728381855,-0.914155571061786,0.40534505929139236,0.0,0.0,0.0,0.0,0.0,0.0,0.0,0.0,0.0,0.0001585460919549619,-0.00013251768670793993,-0.0036043944737328554,0.0,0.0,0.0,0.0,0.0,0.0,0.0,0.0,0.0,0.007005682684478354,-0.01857351626603179,4.6052135707250774e-05,0.0,0.0,0.0,0.0,0.0,0.0,0.0,0.0,0.0
2.9370000000000003,79,2,937000000,base_footprint,0.0035328619350851803,0.0015845465195180664,-0.9141703262026845,0.40531175999389996,0.0,0.0,0.0,0.0,0.0,0.0,0.0,0.0,0.0,5.213182461731143e-05,-8.233784220451504e-05,-0.0007343021481390979,0.0,0.0,0.0,0.0,0.0,0.0,0.0,0.0,0.0,0.0009635599012575067,-0.0025955756441576037,-5.742052546339924e-05,0.0,0.0,0.0,0.0,0.0,0.0,0.0,0.0,0.0
2.971,80,2,971000000,base_footprint,0.003533453002265472,0.0015823199999834708,-0.9141619475393894,0.40533066087367375,0.0,0.0,0.0,0.0,0.0,0.0,0.0,0.0,0.0,0.0004039662889023111,0.0004760433280717876,0.0031024621950712684,0.0,0.0,0.0,0.0,0.0,0.0,0.0,0.0,0.0,-0.0022669618988912536,-0.005694879372378033,0.0009069088144768684,0.0,0.0,0.0,0.0,0.0,0.0,0.0,0.0,0.0
3.005,81,3,5000000,base_footprint,0.0035358667441145923,0.0015721309640352793,-0.914217376082478,0.405205645715196,0.0,0.0,0.0,0.0,0.0,0.0,0.0,0.0,0.0,-0.00047979277708812474,-0.00014032258999530594,0.0016392062152408469,0.0,0.0,0.0,0.0,0.0,0.0,0.0,0.0,0.0,0.009759577165462906,-0.06591707486332811,-0.0024608556492160256,0.0,0.0,0.0,0.0,0.0,0.0,0.0,0.0,0.0
3.039,82,3,39000000,base_footprint,0.0035395552156076613,0.0015738289572046259,-0.9142547973256915,0.4051211672799239,0.0,0.0,0.0,0.0,0.0,0.0,0.0,0.0,0.0,-0.0005190778661798499,-0.0005522898043832311,-0.019316199120467826,0.0,0.0,0.0,0.0,0.0,0.0,0.0,0.0,0.0,-0.0025891365513369333,0.0507984316631251,-0.0004099067758100281,0.0,0.0,0.0,0.0,0.0,0.0,0.0,0.0,0.0
3.073,83,3,73000000,base_footprint,0.0035428625302573987,0.0015730032819903784,-0.9144196575590863,0.4047488896282359,0.0,0.0,0.0,0.0,0.0,0.0,0.0,0.0,0.0,-0.0020555440993928384,-0.001117918185625742,-0.01740287034803173,0.0,0.0,0.0,0.0,0.0,0.0,0.0,0.0,0.0,0.006068999103405239,-0.0018872949332598128,-0.006615720289826483,0.0,0.0,0.0,0.0,0.0,0.0,0.0,0.0,0.0
3.107,84,3,107000000,base_footprint,0.0035296267480291127,0.0015749026059683827,-0.9141509868768732,0.405355442308155,0.0,0.0,0.0,0.0,0.0,0.0,0.0,0.0,0.0,-0.0006946941689299642,-0.0001674236011733329,0.047965758975558576,0.0,0.0,0.0,0.0,0.0,0.0,0.0,0.0,0.0,-0.013083499834550283,-0.008781130518143608,0.007671699990366204,0.0,0.0,0.0,0.0,0.0,0.0,0.0,0.0,0.0
3.141,85,3,141000000,base_footprint,0.0035294361289430042,0.0015774019464200291,-0.9138944791780712,0.4059334130267591,0.0,0.0,0.0,0.0,0.0,0.0,0.0,0.0,0.0,-7.893081223265823e-05,0.0005814318520856074,0.022716501254540482,0.0,0.0,0.0,0.0,0.0,0.0,0.0,0.0,0.0,0.0010442360001474554,-0.04631473536524387,0.0006711297696894263,0.0,0.0,0.0,0.0,0.0,0.0,0.0,0.0,0.0
3.175,86,3,175000000,base_footprint,0.003540530770957971,0.00157878720010983,-0.9137068552766926,0.40635545362799536,0.0,0.0,0.0,0.0,0.0,0.0,0.0,0.0,0.0,-0.008732285712360257,-0.0005871679647401697,0.047759025341217544,0.0,0.0,0.0,0.0,0.0,0.0,0.0,0.0,0.0,-0.0022033061193133634,-0.04475183295137049,-0.008736963705386736,0.0,0.0,0.0,0.0,0.0,0.0,0.0,0.0,0.0
3.209,87,3,209000000,base_footprint,0.0035278535244991616,0.0015790398370318483,-0.9134327617599174,0.40697131425489075,0.0,0.0,0.0,0.0,0.0,0.0,0.0,0.0,0.0,-0.001377245221538008,0.0006623140118341602,0.021223236911271724,0.0,0.0,0.0,0.0,0.0,0.0,0.0,0.0,0.0,0.02070590642795425,-0.24455720807554893,0.005578456681889899,0.0,0.0,0.0,0.0,0.0,0.0,0.0,0.0,0.0
3.243,88,3,243000000,base_footprint,0.003526254509088263,0.001580933047988097,-0.9132929407399714,0.4072849992012598,0.0,0.0,0.0,0.0,0.0,0.0,0.0,0.0,0.0,5.618974686503042e-05,-3.639350111720409e-05,0.019707109403958843,0.0,0.0,0.0,0.0,0.0,0.0,0.0,0.0,0.0,-0.007982642831838013,0.0035810816470397294,0.0016920932632419608,0.0,0.0,0.0,0.0,0.0,0.0,0.0,0.0,0.0
3.277,89,3,277000000,base_footprint,0.0035157698597651807,0.0015823599207794394,-0.9131629580736668,0.4075764314843599,0.0,0.0,0.0,0.0,0.0,0.0,0.0,0.0,0.0,0.0023125240717616373,0.00019405785795225468,0.009423926004931039,0.0,0.0,0.0,0.0,0.0,0.0,0.0,0.0,0.0,-0.01443511013466895,0.1043074454032103,0.0037743154317103154,0.0,0.0,0.0,0.0,0.0,0.0,0.0,0.0,0.0
3.311,90,3,311000000,base_footprint,0.0035254345861031587,0.0015842719641407461,-0.9133635856266057,0.40712654279060817,0.0,0.0,0.0,0.0,0.0,0.0,0.0,0.0,0.0,0.0003879230281099479,0.00012805364213976748,-0.04232034535707115,0.0,0.0,0.0,0.0,0.0,0.0,0.0,0.0,0.0,-0.02275786595878082,0.2615848995298875,-0.0019147079084224344,0.0,0.0,0.0,0.0,0.0,0.0,0.0,0.0,0.0
3.345,91,3,345000000,base_footprint,0.0035276081544338618,0.001585058702768436,-0.9136551145125668,0.40647186285725406,0.0,0.0,0.0,0.0,0.0,0.0,0.0,0.0,0.0,0.0002594403158409494,3.075091136785815e-05,-0.04214694957648207,0.0,0.0,0.0,0.0,0.0,0.0,0.0,0.0,0.0,0.008992242567533285,0.00538103228079133,-0.0002676563648107417,0.0,0.0,0.0,0.0,0.0,0.0,0.0,0.0,0.0
3.379,92,3,379000000,base_footprint,0.003523681018700894,0.0015775097226399704,-0.9138794931934808,0.4059671994823969,0.0,0.0,0.0,0.0,0.0,0.0,0.0,0.0,0.0,-0.0002924492183096195,-0.0019352107870383955,0.03083551126281949,0.0,0.0,0.0,0.0,0.0,0.0,0.0,0.0,0.0,0.00934699401879835,0.007693221211916698,-0.0012239685271011307,0.0,0.0,0.0,0.0,0.0,0.0,0.0,0.0,0.0
3.4130000000000003,93,3,413000000,base_footprint,0.0035288897185330715,0.0015882331304884415,-0.9135684647781662,0.40666655212316427,0.0,0.0,0.0,0.0,0.0,0.0,0.0,0.0,0.0,-0.0001791515802623623,-0.0004221305746369719,0.045569771756863664,0.0,0.0,0.0,0.0,0.0,0.0,0.0,0.0,0.0,-0.0077737908450544214,-0.02496926261003711,0.001145116435716236,0.0,0.0,0.0,0.0,0.0,0.0,0.0,0.0,0.0
3.447,94,3,447000000,base_footprint,0.003529829901909371,0.0015911713345109519,-0.9132410885665926,0.4074011814272917,0.0,0.0,0.0,0.0,0.0,0.0,0.0,0.0,0.0,-0.00012045840232694261,0.00017071206453170065,0.049000943279284837,0.0,0.0,0.0,0.0,0.0,0.0,0.0,0.0,0.0,-0.01546929774933873,-0.0066216774037678615,0.00020177575424029827,0.0,0.0,0.0,0.0,0.0,0.0,0.0,0.0,0.0
3.481,95,3,481000000,base_footprint,0.0035222123112872306,0.0015855200806954945,-0.91292110394286,0.40811779932056136,0.0,0.0,0.0,0.0,0.0,0.0,0.0,0.0,0.0,0.0010299482320665037,-0.0005905583050502762,0.006965393679310725,0.0,0.0,0.0,0.0,0.0,0.0,0.0,0.0,0.0,0.004931483255360455,-0.10737345196343559,0.0008929783950167244,0.0,0.0,0.0,0.0,0.0,0.0,0.0,0.0,0.0
3.515,96,3,515000000,base_footprint,0.003530006082241288,0.0015756295440234227,-0.9130503904302776,0.407828445530369,0.0,0.0,0.0,0.0,0.0,0.0,0.0,0.0,0.0,-7.163142030839264e-06,-0.001020919983781139,-0.03512909511228725,0.0,0.0,0.0,0.0,0.0,0.0,0.0,0.0,0.0,0.00012132902998352943,0.03631721898321874,-0.004636134605380411,0.0,0.0,0.0,0.0,0.0,0.0,0.0,0.0,0.0
3.549,97,3,549000000,base_footprint,0.0035380996449624396,0.0015817443194898236,-0.9134522096154054,0.4069275619622535,0.0,0.0,0.0,0.0,0.0,0.0,0.0,0.0,0.0,0.0006413828922686444,0.0008014896477197277,-0.06584856138771272,0.0,0.0,0.0,0.0,0.0,0.0,0.0,0.0,0.0,0.002720774466307932,0.081389987842015,0.004040989074827616,0.0,0.0,0.0,0.0,0.0,0.0,0.0,0.0,0.0
3.583,98,3,583000000,base_footprint,0.00353562688579908,0.001577520767542877,-0.91394213279358,0.4058260571667063,0.0,0.0,0.0,0.0,0.0,0.0,0.0,0.0,0.0,0.0006219236698159781,0.0001960288927814333,-0.07739903518521343,0.0,0.0,0.0,0.0,0.0,0.0,0.0,0.0,0.0,0.01254750678144038,0.003902856331771583,-0.00011213217195180821,0.0,0.0,0.0,0.0,0.0,0.0,0.0,0.0,0.0
3.617,99,3,617000000,base_footprint,0.0035326608315597047,0.0015720355663317058,-0.9145460171407644,0.40446338714844393,0.0,0.0,0.0,0.0,0.0,0.0,0.0,0.0,0.0,0.0006237554121717695,0.0011617969492522993,-0.10158100650857818,0.0,0.0,0.0,0.0,0.0,0.0,0.0,0.0,0.0,0.026749585505048475,-0.043377051324817714,-6.647294337749152e-05,0.0,0.0,0.0,0.0,0.0,0.0,0.0,0.0,0.0
3.651,100,3,651000000,base_footprint,0.0035340473003524133,0.0015643495787812515,-0.915230019986742,0.40291323363119036,0.0,0.0,0.0,0.0,0.0,0.0,0.0,0.0,0.0,0.0003761066166525923,0.0011382961530881125,-0.09213226240166983,0.0,0.0,0.0,0.0,0.0,0.0,0.0,0.0,0.0,0.018617141445047797,0.026426001266154058,-0.00042852970891259977,0.0,0.0,0.0,0.0,0.0,0.0,0.0,0.0,0.0
3.685,101,3,685000000,base_footprint,0.0035401623700681527,0.0015578543043730305,-0.9157805626732404,0.4016603059430234,0.0,0.0,0.0,0.0,0.0,0.0,0.0,0.0,0.0,0.00036423397999448367,0.0006213058400408365,-0.06925044092541031,0.0,0.0,0.0,0.0,0.0,0.0,0.0,0.0,0.0,0.01866580222564021,0.020539471929373214,0.0008240027824356069,0.0,0.0,0.0,0.0,0.0,0.0,0.0,0.0,0.0
3.7190000000000003,102,3,719000000,base_footprint,0.0035395542634992904,0.0015542147140449043,-0.9162556282502382,0.4005754356822194,0.0,0.0,0.0,0.0,0.0,0.0,0.0,0.0,0.0,0.00055170711134483,0.00043287546445744526,-0.07003532929241832,0.0,0.0,0.0,0.0,0.0,0.0,0.0,0.0,0.0,0.0129699139572154,0.006648885470983491,0.00022803600600738582,0.0,0.0,0.0,0.0,0.0,0.0,0.0,0.0,0.0
3.753,103,3,753000000,base_footprint,0.0035398878536573044,0.00155199145400145,-0.916733028837414,0.39948168212709245,0.0,0.0,0.0,0.0,0.0,0.0,0.0,0.0,0.0,0.0005738103547148403,0.00031309512534948047,-0.07049281447727306,0.0,0.0,0.0,0.0,0.0,0.0,0.0,0.0,0.0,0.015454689786553018,0.006562185878796279,0.00019245867014148406,0.0,0.0,0.0,0.0,0.0,0.0,0.0,0.0,0.0
3.787,104,3,787000000,base_footprint,0.003540541596367433,0.001551802207427868,-0.9171091588324506,0.39861741966545877,0.0,0.0,0.0,0.0,0.0,0.0,0.0,0.0,0.0,0.001578548271151356,0.00011333895502994211,-0.03363087224175155,0.0,0.0,0.0,0.0,0.0,0.0,0.0,0.0,0.0,0.014507097789456098,-0.004250741944378561,0.001494102767466649,0.0,0.0,0.0,0.0,0.0,0.0,0.0,0.0,0.0
3.821,105,3,821000000,base_footprint,0.0035429930795199665,0.0015534201146906,-0.9173368281030094,0.3980931773993316,0.0,0.0,0.0,0.0,0.0,0.0,0.0,0.0,0.0,0.00024728109109781264,1.316496604656403e-05,-0.03358615593476338,0.0,0.0,0.0,0.0,0.0,0.0,0.0,0.0,0.0,0.005996250440049671,0.005537616710791949,-0.0017999411977316936,0.0,0.0,0.0,0.0,0.0,0.0,0.0,0.0,0.0
3.855,106,3,855000000,base_footprint,0.003544926498646529,0.0015534637494855094,-0.9175588828315095,0.3975810820241457,0.0,0.0,0.0,0.0,0.0,0.0,0.0,0.0,0.0,0.00023257693933264201,3.361286056490452e-05,-0.031918829912628496,0.0,0.0,0.0,0.0,0.0,0.0,0.0,0.0,0.0,0.0074217316443054,0.0010024550908042538,4.7680523331028114e-05,0.0,0.0,0.0,0.0,0.0,0.0,0.0,0.0,0.0
3.8890000000000002,107,3,889000000,base_footprint,0.0035475269545416064,0.0015548835945407102,-0.9177032191986947,0.3972477801849459,0.0,0.0,0.0,0.0,0.0,0.0,0.0,0.0,0.0,0.0005773529402210247,1.8615291127910662e-05,-0.00642383415805667,0.0,0.0,0.0,0.0,0.0,0.0,0.0,0.0,0.0,0.007069789150639212,-0.014501069465355733,0.0006365917707083394,0.0,0.0,0.0,0.0,0.0,0.0,0.0,0.0,0.0
3.923,108,3,923000000,base_footprint,0.0035460459478056,0.0015466734104248332,-0.9177421142488634,0.3971579598768275,0.0,0.0,0.0,0.0,0.0,0.0,0.0,0.0,0.0,0.00037392222525466795,0.0006407530680103354,-0.003769575308531797,0.0,0.0,0.0,0.0,0.0,0.0,0.0,0.0,0.0,-0.004759627003284612,-0.004312519768863132,0.0001438055928554878,0.0,0.0,0.0,0.0,0.0,0.0,0.0,0.0,0.0
3.957,109,3,957000000,base_footprint,0.003550471247543893,0.00154475397959289,-0.9176911467423193,0.3972756814604062,0.0,0.0,0.0,0.0,0.0,0.0,0.0,0.0,0.0,-0.0003602182714706374,-0.0003275589902225799,0.013612693404444374,0.0,0.0,0.0,0.0,0.0,0.0,0.0,0.0,0.0,0.0066429353904487246,-0.04250322101868808,-0.0016672320353310218,0.0,0.0,0.0,0.0,0.0,0.0,0.0,0.0,0.0
3.991,110,3,991000000,base_footprint,0.003553398051712739,0.0015448175421723955,-0.9177804428917149,0.3970693208326922,0.0,0.0,0.0,0.0,0.0,0.0,0.0,0.0,0.0,-0.0005191858186183496,-0.0003237741158692816,-0.040244196615856986,0.0,0.0,0.0,0.0,0.0,0.0,0.0,0.0,0.0,-0.0035566862614076385,0.05076771957159145,-0.000524090323985347,0.0,0.0,0.0,0.0,0.0,0.0,0.0,0.0,0.0
4.025,111,4,25000000,base_footprint,0.003554959851667437,0.0015402425241967,-0.918047141919647,0.39645231128924874,0.0,0.0,0.0,0.0,0.0,0.0,0.0,0.0,0.0,0.0004029923922647835,0.0003008438686767892,-0.03976588305183193,0.0,0.0,0.0,0.0,0.0,0.0,0.0,0.0,0.0,0.011399320237705166,-0.006113005720228156,0.001623752909733631,0.0,0.0,0.0,0.0,0.0,0.0,0.0,0.0,0.0
4.059,112,4,59000000,base_footprint,0.0035525915890930924,0.0015370146230345176,-0.9183311014262473,0.39579414451492984,0.0,0.0,0.0,0.0,0.0,0.0,0.0,0.0,0.0,0.0007801858456805264,-5.4831506043586786e-05,-0.04453830905780043,0.0,0.0,0.0,0.0,0.0,0.0,0.0,0.0,0.0,0.006045871001772279,-0.001246264207479125,0.0005342194088764462,0.0,0.0,0.0,0.0,0.0,0.0,0.0,0.0,0.0
4.093,113,4,93000000,base_footprint,0.003549399500294952,0.001539845257036385,-0.9183230939004936,0.39581274088740126,0.0,0.0,0.0,0.0,0.0,0.0,0.0,0.0,0.0,0.002149158336192993,-0.0012535662853799911,0.10229097116980407,0.0,0.0,0.0,0.0,0.0,0.0,0.0,0.0,0.0,0.027392807581576528,-0.33281308138535226,0.0009574478309307196,0.0,0.0,0.0,0.0,0.0,0.0,0.0,0.0,0.0
4.127,114,4,127000000,base_footprint,0.0035397158500483352,0.0015387215699575066,-0.9176272916735072,0.3974232709889736,0.0,0.0,0.0,0.0,0.0,0.0,0.0,0.0,0.0,-0.0005303872641689411,6.796775143003765e-05,-0.020788800355177203,0.0,0.0,0.0,0.0,0.0,0.0,0.0,0.0,0.0,-0.0273207423520756,-0.04783401035399074,-0.004429453396500704,0.0,0.0,0.0,0.0,0.0,0.0,0.0,0.0,0.0
4.161,115,4,161000000,base_footprint,0.0035478860940962717,0.0015373588014081794,-0.9179733319045642,0.3966232607200592,0.0,0.0,0.0,0.0,0.0,0.0,0.0,0.0,0.0,0.0006722140240158705,0.000268970601689085,-0.05208988808999929,0.0,0.0,0.0,0.0,0.0,0.0,0.0,0.0,0.0,0.009928408056862044,0.039639209404287154,0.0014553774274890406,0.0,0.0,0.0,0.0,0.0,0.0,0.0,0.0,0.0
4.195,116,4,195000000,base_footprint,0.003539441725468786,0.0015359219063585143,-0.9184107871271621,0.3956093267159358,0.0,0.0,0.0,0.0,0.0,0.0,0.0,0.0,0.0,0.00020648962534086497,0.0002867382564980248,-0.052271186767504654,0.0,0.0,0.0,0.0,0.0,0.0,0.0,0.0,0.0,0.00032835994197538687,0.24814979790691305,0.0009173719623858803,0.0,0.0,0.0,0.0,0.0,0.0,0.0,0.0,0.0
4.229,117,4,229000000,base_footprint,0.0035479040960397293,0.0015349987392080694,-0.9185284231375677,0.39533604951206947,0.0,0.0,0.0,0.0,0.0,0.0,0.0,0.0,0.0,0.00010782822810072098,-2.0712976083773528e-05,-0.010293330188015468,0.0,0.0,0.0,0.0,0.0,0.0,0.0,0.0,0.0,-0.0008813956641243043,0.09641642427709332,0.0006791284392950313,0.0,0.0,0.0,0.0,0.0,0.0,0.0,0.0,0.0
4.263,118,4,263000000,base_footprint,0.0035472153492443286,0.0015375293749885146,-0.9185986150033016,0.39517292136570215,0.0,0.0,0.0,0.0,0.0,0.0,0.0,0.0,0.0,0.00015659543772864225,-9.10798658341144e-05,-0.010659185552871429,0.0,0.0,0.0,0.0,0.0,0.0,0.0,0.0,0.0,0.002350447762112289,0.005091187559619045,-1.7999685485790243e-05,0.0,0.0,0.0,0.0,0.0,0.0,0.0,0.0,0.0
4.296,119,4,297000000,base_footprint,0.0035489670503036884,0.0015391264823892737,-0.9188113357169111,0.3946780526969454,0.0,0.0,0.0,0.0,0.0,0.0,0.0,0.0,0.0,0.00010673666848846951,4.463675082353981e-05,-0.040219841761836406,0.0,0.0,0.0,0.0,0.0,0.0,0.0,0.0,0.0,0.00646599633347096,0.01207264927101028,-0.0002831626267801429,0.0,0.0,0.0,0.0,0.0,0.0,0.0,0.0,0.0
4.331,120,4,331000000,base_footprint,0.0035509968231054877,0.0015390757639615691,-0.91907611104951,0.3940610660360448,0.0,0.0,0.0,0.0,0.0,0.0,0.0,0.0,0.0,0.0002719744970707699,5.251497149722985e-05,-0.03860310496003055,0.0,0.0,0.0,0.0,0.0,0.0,0.0,0.0,0.0,0.008843259842728634,0.0011933675626784072,0.00026043275949870644,0.0,0.0,0.0,0.0,0.0,0.0,0.0,0.0,0.0
4.365,121,4,365000000,base_footprint,0.0035529562905737386,0.0015381285209958356,-0.9193240757344324,0.39348221616393547,0.0,0.0,0.0,0.0,0.0,0.0,0.0,0.0,0.0,0.0003386751082345065,0.0001091029871594445,-0.03540556749987196,0.0,0.0,0.0,0.0,0.0,0.0,0.0,0.0,0.0,0.009351320828069384,-0.003187631065482451,0.0002094361982382553,0.0,0.0,0.0,0.0,0.0,0.0,0.0,0.0,0.0
4.399,122,4,399000000,base_footprint,0.0035496517281844147,0.0015237173442077165,-0.919666269863598,0.39268184365111586,0.0,0.0,0.0,0.0,0.0,0.0,0.0,0.0,0.0,0.0005802324872535795,0.0009808014729947253,-0.05584094370738306,0.0,0.0,0.0,0.0,0.0,0.0,0.0,0.0,0.0,0.004939288219680627,-0.011763650814362016,0.0007140430716016151,0.0,0.0,0.0,0.0,0.0,0.0,0.0,0.0,0.0
4.433,123,4,433000000,base_footprint,0.0035583765985354953,0.001523986362850078,-0.9199639902628369,0.39198376502251714,0.0,0.0,0.0,0.0,0.0,0.0,0.0,0.0,0.0,0.000269200287137747,-2.3183287960755824e-05,-0.04132783985422163,0.0,0.0,0.0,0.0,0.0,0.0,0.0,0.0,0.0,0.01721792468236253,-0.03494245351158119,-0.001661721261255699,0.0,0.0,0.0,0.0,0.0,0.0,0.0,0.0,0.0
4.467,124,4,467000000,base_footprint,0.003564378087056293,0.0015226766998652495,-0.9203111360878758,0.3911679811246871,0.0,0.0,0.0,0.0,0.0,0.0,0.0,0.0,0.0,0.0006018667505753592,0.000769097351632544,-0.05561736297956185,0.0,0.0,0.0,0.0,0.0,0.0,0.0,0.0,0.0,0.00656159621945223,0.03995041656382359,0.0014445063298625048,0.0,0.0,0.0,0.0,0.0,0.0,0.0,0.0,0.0
4.501,125,4,501000000,base_footprint,0.003566010866298434,0.0015164166363195713,-0.9207908729654715,0.39003737296645274,0.0,0.0,0.0,0.0,0.0,0.0,0.0,0.0,0.0,0.0004979409240499692,0.0004509808351729344,-0.07767286061486463,0.0,0.0,0.0,0.0,0.0,0.0,0.0,0.0,0.0,0.019226498015391984,0.004862001165898255,-0.0004617104306857533,0.0,0.0,0.0,0.0,0.0,0.0,0.0,0.0,0.0
4.535,126,4,535000000,base_footprint,0.00356627161136973,0.0015091126554851468,-0.921316473966874,0.38879423746119696,0.0,0.0,0.0,0.0,0.0,0.0,0.0,0.0,0.0,0.0008400369456325036,0.0004425432615835002,-0.08106795530912846,0.0,0.0,0.0,0.0,0.0,0.0,0.0,0.0,0.0,0.016230805034998127,-0.0007036156584898706,0.0007898044232585948,0.0,0.0,0.0,0.0,0.0,0.0,0.0,0.0,0.0
4.569,127,4,569000000,base_footprint,0.0035597517300392794,0.0015056596190558841,-0.9218796926515513,0.3874569568783265,0.0,0.0,0.0,0.0,0.0,0.0,0.0,0.0,0.0,0.0008802797359197294,0.0003870428477897404,-0.09361941053498847,0.0,0.0,0.0,0.0,0.0,0.0,0.0,0.0,0.0,0.01597076723000239,-0.01769543032981989,-2.112292419111601e-05,0.0,0.0,0.0,0.0,0.0,0.0,0.0,0.0,0.0
4.603,128,4,603000000,base_footprint,0.0035590805814306463,0.0015041429210917799,-0.9220060897307358,0.38715609384191046,0.0,0.0,0.0,0.0,0.0,0.0,0.0,0.0,0.0,0.00018034881144743907,0.00020527734672753944,-0.0010318026480498686,0.0,0.0,0.0,0.0,0.0,0.0,0.0,0.0,0.0,0.014350491343502442,-0.3617425070394172,-0.002314118555195401,0.0,0.0,0.0,0.0,0.0,0.0,0.0,0.0,0.0
4.6370000000000005,129,4,637000000,base_footprint,0.00356303009163015,0.0015017491012826263,-0.9219914282768037,0.387190980977479,0.0,0.0,0.0,0.0,0.0,0.0,0.0,0.0,0.0,0.0005190423352066899,-0.0003116497095958154,0.004045960081212123,0.0,0.0,0.0,0.0,0.0,0.0,0.0,0.0,0.0,-0.0024829933184316046,0.016537379124848418,0.0005836506876895744,0.0,0.0,0.0,0.0,0.0,0.0,0.0,0.0,0.0
4.671,130,4,671000000,base_footprint,0.003561007445909195,0.0015036012404169641,-0.9219643916560931,0.38725536655737947,0.0,0.0,0.0,0.0,0.0,0.0,0.0,0.0,0.0,0.00014439486932121863,-2.5871186886926165e-07,0.0037694872302935366,0.0,0.0,0.0,0.0,0.0,0.0,0.0,0.0,0.0,0.0013732606506748975,0.004546331610862046,-0.0004471453668005845,0.0,0.0,0.0,0.0,0.0,0.0,0.0,0.0,0.0
4.705,131,4,705000000,base_footprint,0.0035617935317083763,0.0015036445908304921,-0.9221900749527445,0.3867176209308719,0.0,0.0,0.0,0.0,0.0,0.0,0.0,0.0,0.0,0.0009143703885827054,-9.61148055319929e-05,-0.0433063572402794,0.0,0.0,0.0,0.0,0.0,0.0,0.0,0.0,0.0,-0.00020228433220184638,0.35969792215299373,0.0023807047831143698,0.0,0.0,0.0,0.0,0.0,0.0,0.0,0.0,0.0
4.739,132,4,739000000,base_footprint,0.0035623651908605032,0.0015044156872011068,-0.922470882285832,0.3860472997217907,0.0,0.0,0.0,0.0,0.0,0.0,0.0,0.0,0.0,0.0002929674353413421,2.5436465479711625e-05,-0.04283698857644024,0.0,0.0,0.0,0.0,0.0,0.0,0.0,0.0,0.0,0.010427422420735041,0.0031107058734108992,-0.0005513088668254491,0.0,0.0,0.0,0.0,0.0,0.0,0.0,0.0,0.0
4.773,133,4,773000000,base_footprint,0.0035643227487243303,0.001505413814620644,-0.9227507027431474,0.3853779572311026,0.0,0.0,0.0,0.0,0.0,0.0,0.0,0.0,0.0,-0.0002757383670599874,-0.00015871451294570112,-0.04682260570978216,0.0,0.0,0.0,0.0,0.0,0.0,0.0,0.0,0.0,0.010440682093665579,0.0018249972329971208,-0.002019863492543264,0.0,0.0,0.0,0.0,0.0,0.0,0.0,0.0,0.0
4.807,134,4,807000000,base_footprint,0.0035664962706301855,0.0015043253065833407,-0.9231123138279821,0.38451095324954365,0.0,0.0,0.0,0.0,0.0,0.0,0.0,0.0,0.0,0.00039743009005602844,0.00015757571909584024,-0.054251212302995004,0.0,0.0,0.0,0.0,0.0,0.0,0.0,0.0,0.0,0.011479154542909752,0.00545644762464506,0.002195750577560341,0.0,0.0,0.0,0.0,0.0,0.0,0.0,0.0,0.0
4.841,135,4,841000000,base_footprint,0.00356836525262867,0.0015017940803214544,-0.9234550910279452,0.3836869899260772,0.0,0.0,0.0,0.0,0.0,0.0,0.0,0.0,0.0,0.0004637305572407387,0.0002044776622603842,-0.05058494676123739,0.0,0.0,0.0,0.0,0.0,0.0,0.0,0.0,0.0,0.012707784464058972,-0.004585880424144302,0.00022976514979845486,0.0,0.0,0.0,0.0,0.0,0.0,0.0,0.0,0.0
4.875,136,4,875000000,base_footprint,0.003568869163128215,0.001489451408680135,-0.9237613641188127,0.38294906563242603,0.0,0.0,0.0,0.0,0.0,0.0,0.0,0.0,0.0,0.0005897267142589762,0.0002938021938916371,-0.03716460133085711,0.0,0.0,0.0,0.0,0.0,0.0,0.0,0.0,0.0,0.006219492242216108,-0.015221516834153022,0.0006597823985037645,0.0,0.0,0.0,0.0,0.0,0.0,0.0,0.0,0.0
4.909,137,4,909000000,base_footprint,0.0035735276303736248,0.0014895901523673451,-0.9239325316486624,0.38253586496268094,0.0,0.0,0.0,0.0,0.0,0.0,0.0,0.0,0.0,5.207108595865119e-05,-0.00010731708947694829,-0.0285844468629193,0.0,0.0,0.0,0.0,0.0,0.0,0.0,0.0,0.0,0.008777075743681676,-0.016633956949706312,-0.0017534678694411446,0.0,0.0,0.0,0.0,0.0,0.0,0.0,0.0,0.0
4.943,138,4,943000000,base_footprint,0.00357774607775962,0.0014862312810698926,-0.9241596241342425,0.38198688455186275,0.0,0.0,0.0,0.0,0.0,0.0,0.0,0.0,0.0,0.00030912367920397053,0.0002208706486622536,-0.033389899944421354,0.0,0.0,0.0,0.0,0.0,0.0,0.0,0.0,0.0,0.008857778746997474,0.01425270769324576,0.0009992606570425515,0.0,0.0,0.0,0.0,0.0,0.0,0.0,0.0,0.0
4.977,139,4,977000000,base_footprint,0.0035800330350732952,0.0014849111906523331,-0.9243642398826094,0.3814914552496158,0.0,0.0,0.0,0.0,0.0,0.0,0.0,0.0,0.0,0.0023865656849507994,-0.001302765506522528,-0.003640328101875365,0.0,0.0,0.0,0.0,0.0,0.0,0.0,0.0,0.0,0.0038675551937208015,-0.004260075108825984,0.005247131824309633,0.0,0.0,0.0,0.0,0.0,0.0,0.0,0.0,0.0
5.011,140,5,11000000,base_footprint,0.003577759463497797,0.001480054492871172,-0.924374553975637,0.3814665031667417,0.0,0.0,0.0,0.0,0.0,0.0,0.0,0.0,0.0,0.00023939264946694507,6.4245129885274e-05,-0.004243541719021445,0.0,0.0,0.0,0.0,0.0,0.0,0.0,0.0,0.0,0.0028368583263792893,-0.00288004080480904,-0.005145833334090451,0.0,0.0,0.0,0.0,0.0,0.0,0.0,0.0,0.0
5.044,141,5,45000000,base_footprint,0.0035704825514710475,0.0014805968372032866,-0.924419125992907,0.3813585438742201,0.0,0.0,0.0,0.0,0.0,0.0,0.0,0.0,0.0,0.0005599988890276029,-0.00015070524617042275,-0.012002510959883281,0.0,0.0,0.0,0.0,0.0,0.0,0.0,0.0,0.0,-0.00344851639423708,-0.008450801937087499,0.0005548192109243112,0.0,0.0,0.0,0.0,0.0,0.0,0.0,0.0,0.0
5.079,142,5,79000000,base_footprint,0.003581186805560397,0.001480134630261024,-0.9245415695764209,0.38106150478329376,0.0,0.0,0.0,0.0,0.0,0.0,0.0,0.0,0.0,-0.00025892384087227664,0.0008801857899422737,0.02601567015722809,0.0,0.0,0.0,0.0,0.0,0.0,0.0,0.0,0.0,0.00506187310018303,-0.15251756988008144,-0.0022406209555289372,0.0,0.0,0.0,0.0,0.0,0.0,0.0,0.0,0.0
5.113,143,5,113000000,base_footprint,0.0035715661245022336,0.001481421824759407,-0.9240598834063807,0.38222817947370347,0.0,0.0,0.0,0.0,0.0,0.0,0.0,0.0,0.0,-0.0008098087843110291,-6.4457985920229e-05,0.08395781651648225,0.0,0.0,0.0,0.0,0.0,0.0,0.0,0.0,0.0,-0.012183364746794406,-0.19999905605785034,-0.0009397000325518737,0.0,0.0,0.0,0.0,0.0,0.0,0.0,0.0,0.0
5.147,144,5,147000000,base_footprint,0.003566839543543896,0.001488952018302596,-0.9235265451449001,0.3835150337213426,0.0,0.0,0.0,0.0,0.0,0.0,0.0,0.0,0.0,-0.00023949355465774299,-0.00045760434038247255,0.08125918842045643,0.0,0.0,0.0,0.0,0.0,0.0,0.0,0.0,0.0,-0.01830714298275814,0.00016773355032318176,0.0005978199069242131,0.0,0.0,0.0,0.0,0.0,0.0,0.0,0.0,0.0
5.181,145,5,181000000,base_footprint,0.003554133138627887,0.001495423511154535,-0.9230168549469957,0.3847401945857906,0.0,0.0,0.0,0.0,0.0,0.0,0.0,0.0,0.0,-0.0005770539162577525,-0.0006757989239044921,0.059847717579165766,0.0,0.0,0.0,0.0,0.0,0.0,0.0,0.0,0.0,-0.01695629690030826,0.16627154528303598,0.0008681260791249775,0.0,0.0,0.0,0.0,0.0,0.0,0.0,0.0,0.0
5.215,146,5,215000000,base_footprint,0.0035638509780261153,0.0015008390792712394,-0.922858770825094,0.3851191186626045,0.0,0.0,0.0,0.0,0.0,0.0,0.0,0.0,0.0,-1.6965773501316005e-05,-0.0002179231431466063,0.015206292864517506,0.0,0.0,0.0,0.0,0.0,0.0,0.0,0.0,0.0,-0.007776409017220348,0.20120016891471193,0.0008416731501936152,0.0,0.0,0.0,0.0,0.0,0.0,0.0,0.0,0.0
5.249,147,5,249000000,base_footprint,0.0035632139900850946,0.0015041710976229157,-0.9227579282235222,0.38536067115885486,0.0,0.0,0.0,0.0,0.0,0.0,0.0,0.0,0.0,2.066876228534368e-07,-0.0003134243213647645,0.01548684829319619,0.0,0.0,0.0,0.0,0.0,0.0,0.0,0.0,0.0,-0.002829107573784952,0.004323209191614599,-0.00011809907002562046,0.0,0.0,0.0,0.0,0.0,0.0,0.0,0.0,0.0
5.283,148,5,283000000,base_footprint,0.003558282343764342,0.0015023286344594306,-0.9227345136049038,0.3854167861390549,0.0,0.0,0.0,0.0,0.0,0.0,0.0,0.0,0.0,-0.0019504107915550215,-0.0006972440893927424,-0.03192948114766361,0.0,0.0,0.0,0.0,0.0,0.0,0.0,0.0,0.0,-0.004393148247241796,0.012944781601765137,-0.0032468110537797155,0.0,0.0,0.0,0.0,0.0,0.0,0.0,0.0,0.0
5.316,149,5,317000000,base_footprint,0.003565628033296632,0.0015066885587604814,-0.9229151826539667,0.3849838721467573,0.0,0.0,0.0,0.0,0.0,0.0,0.0,0.0,0.0,0.00035794424882374146,0.0001127035793467147,-0.02513730558186181,0.0,0.0,0.0,0.0,0.0,0.0,0.0,0.0,0.0,0.009559883254493882,-0.006387948233806041,0.00362970122431373,0.0,0.0,0.0,0.0,0.0,0.0,0.0,0.0,0.0
5.351,150,5,351000000,base_footprint,0.0035661212614955732,0.0014963279280560153,-0.9230635492055098,0.38462803838254905,0.0,0.0,0.0,0.0,0.0,0.0,0.0,0.0,0.0,0.0003407384502214069,0.0004927889890282023,-0.017585488473015404,0.0,0.0,0.0,0.0,0.0,0.0,0.0,0.0,0.0,0.00021592884417884813,-0.015788813073726267,0.0001418462305343766,0.0,0.0,0.0,0.0,0.0,0.0,0.0,0.0,0.0
5.385,151,5,385000000,base_footprint,0.0035639279157976067,0.0014951879192050968,-0.9231914006610227,0.3843210904652989,0.0,0.0,0.0,0.0,0.0,0.0,0.0,0.0,0.0,-0.0001048846877527532,0.00043962067340047817,-0.06380947799912519,0.0,0.0,0.0,0.0,0.0,0.0,0.0,0.0,0.0,0.0068078373854510155,-0.22460328525567755,-0.001749708494739757,0.0,0.0,0.0,0.0,0.0,0.0,0.0,0.0,0.0
5.4190000000000005,152,5,419000000,base_footprint,0.003570352701432943,0.0014882192513346526,-0.9237464572367579,0.38298501345037766,0.0,0.0,0.0,0.0,0.0,0.0,0.0,0.0,0.0,-0.0008049350405082492,-0.00060344742845716,-0.042624858594104205,0.0,0.0,0.0,0.0,0.0,0.0,0.0,0.0,0.0,0.025453744173018496,-0.18150804939929888,-0.00275192241248318,0.0,0.0,0.0,0.0,0.0,0.0,0.0,0.0,0.0
5.453,153,5,453000000,base_footprint,0.0035767383452663176,0.001487108226989992,-0.9239069822345238,0.38259754786227523,0.0,0.0,0.0,0.0,0.0,0.0,0.0,0.0,0.0,0.00027318671697618634,0.0001814437907191525,-0.023108231551351142,0.0,0.0,0.0,0.0,0.0,0.0,0.0,0.0,0.0,0.0013640185216222678,0.07037636370706388,0.0024006576693401437,0.0,0.0,0.0,0.0,0.0,0.0,0.0,0.0,0.0
5.487,154,5,487000000,base_footprint,0.0035696914913206693,0.0014805378663088706,-0.9241208442286626,0.3820807906351578,0.0,0.0,0.0,0.0,0.0,0.0,0.0,0.0,0.0,-0.0028953867400580303,-0.0010949451833509945,-0.05870070121561989,0.0,0.0,0.0,0.0,0.0,0.0,0.0,0.0,0.0,0.007673329701876036,0.14732253640653206,-0.004103930887310402,0.0,0.0,0.0,0.0,0.0,0.0,0.0,0.0,0.0
5.521,155,5,521000000,base_footprint,0.0035680633953478506,0.00148156646381153,-0.9244248623162937,0.38134465751590335,0.0,0.0,0.0,0.0,0.0,0.0,0.0,0.0,0.0,0.0008978389835509067,-0.00019417204002067134,-0.04341121011918352,0.0,0.0,0.0,0.0,0.0,0.0,0.0,0.0,0.0,0.004719154991825653,0.04740774789444841,0.006430080077047116,0.0,0.0,0.0,0.0,0.0,0.0,0.0,0.0,0.0
5.555,156,5,555000000,base_footprint,0.0035628219530957073,0.00148004172373149,-0.9247699110232234,0.3805071976222345,0.0,0.0,0.0,0.0,0.0,0.0,0.0,0.0,0.0,0.0015420216186039508,-0.0009935799723584091,-0.05655521568859048,0.0,0.0,0.0,0.0,0.0,0.0,0.0,0.0,0.0,0.013691128465316001,-0.02163159796953844,0.0005782175192354981,0.0,0.0,0.0,0.0,0.0,0.0,0.0,0.0,0.0
5.589,157,5,589000000,base_footprint,0.00355724396500303,0.0014795426833579233,-0.9250902628639053,0.37972774789737457,0.0,0.0,0.0,0.0,0.0,0.0,0.0,0.0,0.0,0.0016901031046201423,-0.00029627208784254475,-0.0363261351543109,0.0,0.0,0.0,0.0,0.0,0.0,0.0,0.0,0.0,0.012343100958974972,0.09087586683270726,-0.00023864668673698847,0.0,0.0,0.0,0.0,0.0,0.0,0.0,0.0,0.0
5.623,158,5,623000000,base_footprint,0.0035729725928411965,0.0014742483601023015,-0.9251778762075515,0.37951410755689685,0.0,0.0,0.0,0.0,0.0,0.0,0.0,0.0,0.0,0.0005253471155942953,-0.0001837957121115627,-0.00577595433969354,0.0,0.0,0.0,0.0,0.0,0.0,0.0,0.0,0.0,0.003617786867578094,0.07090909265776271,-8.989664463316485e-05,0.0,0.0,0.0,0.0,0.0,0.0,0.0,0.0,0.0
5.657,159,5,657000000,base_footprint,0.0035727258718426633,0.0014761682049908283,-0.9252132157902866,0.3794279403052337,0.0,0.0,0.0,0.0,0.0,0.0,0.0,0.0,0.0,0.00011486730562648005,3.466676084104266e-05,-0.005779619026723186,0.0,0.0,0.0,0.0,0.0,0.0,0.0,0.0,0.0,0.0026964178609059607,0.005359792209864742,-0.00050533346957657,0.0,0.0,0.0,0.0,0.0,0.0,0.0,0.0,0.0
5.691,160,5,691000000,base_footprint,0.003573965816837772,0.0014772481278021213,-0.9253739186683125,0.37903582304943195,0.0,0.0,0.0,0.0,0.0,0.0,0.0,0.0,0.0,0.0007257088226228698,-0.00022182398506957513,-0.042064538886430226,0.0,0.0,0.0,0.0,0.0,0.0,0.0,0.0,0.0,0.005375829452303731,0.015806244065414237,0.0003396101501370774,0.0,0.0,0.0,0.0,0.0,0.0,0.0,0.0,0.0
5.725,161,5,725000000,base_footprint,0.0035748407719117135,0.0014778471279135415,-0.9256414409076601,0.3783820283202057,0.0,0.0,0.0,0.0,0.0,0.0,0.0,0.0,0.0,0.0002484819291752024,-1.3570010022386669e-05,-0.04138145695787502,0.0,0.0,0.0,0.0,0.0,0.0,0.0,0.0,0.0,0.009877742171463606,0.002347789581685992,-0.00034487955669549453,0.0,0.0,0.0,0.0,0.0,0.0,0.0,0.0,0.0
5.759,162,5,759000000,base_footprint,0.0035769426622941493,0.001478270280610162,-0.9259014388668937,0.3777453450439646,0.0,0.0,0.0,0.0,0.0,0.0,0.0,0.0,0.0,0.00028055497259974653,4.590431392053888e-05,-0.039413427491320305,0.0,0.0,0.0,0.0,0.0,0.0,0.0,0.0,0.0,0.009089195754879124,-0.0002829267168430326,0.00013361001550474285,0.0,0.0,0.0,0.0,0.0,0.0,0.0,0.0,0.0
5.793,163,5,793000000,base_footprint,0.0035784852381471107,0.0014770043394083567,-0.926133342474997,0.37717641079165015,0.0,0.0,0.0,0.0,0.0,0.0,0.0,0.0,0.0,0.0004705688219822296,0.00015715809287005463,-0.032896493474570826,0.0,0.0,0.0,0.0,0.0,0.0,0.0,0.0,0.0,0.009049138783925464,-0.006165942398615331,0.00046923669598094973,0.0,0.0,0.0,0.0,0.0,0.0,0.0,0.0,0.0
5.827,164,5,827000000,base_footprint,0.003578553526508632,0.0014655516673157676,-0.9263259142647319,0.3767032607697698,0.0,0.0,0.0,0.0,0.0,0.0,0.0,0.0,0.0,0.0003894484115861338,0.00048796409147500576,-0.0244996813111878,0.0,0.0,0.0,0.0,0.0,0.0,0.0,0.0,0.0,0.0013933202953567026,-0.01796840089747751,1.405571167361598e-05,0.0,0.0,0.0,0.0,0.0,0.0,0.0,0.0,0.0
5.861,165,5,861000000,base_footprint,0.003582258642548492,0.0014651785793414831,-0.9264192431066185,0.37647364672246153,0.0,0.0,0.0,0.0,0.0,0.0,0.0,0.0,0.0,0.00017970191660189987,-2.5590644379082744e-05,-0.015692725389218714,0.0,0.0,0.0,0.0,0.0,0.0,0.0,0.0,0.0,0.005724955048807745,-0.0205890187551821,-0.0011158420432550605,0.0,0.0,0.0,0.0,0.0,0.0,0.0,0.0,0.0
5.895,166,5,895000000,base_footprint,0.0035853610082110096,0.0014639900342513883,-0.9264042593393921,0.3765104914839065,0.0,0.0,0.0,0.0,0.0,0.0,0.0,0.0,0.0,-0.0002716496044596929,-0.0003625807797153816,0.01910877046771891,0.0,0.0,0.0,0.0,0.0,0.0,0.0,0.0,0.0,0.0040612728065766955,0.010533289628034952,0.00010217594620796024,0.0,0.0,0.0,0.0,0.0,0.0,0.0,0.0,0.0
5.929,167,5,929000000,base_footprint,0.003586309470667338,0.001462890071184637,-0.9262951023212225,0.3767789560906185,0.0,0.0,0.0,0.0,0.0,0.0,0.0,0.0,0.0,9.549971823072284e-05,8.322665946493011e-05,0.016841700075705596,0.0,0.0,0.0,0.0,0.0,0.0,0.0,0.0,0.0,-0.00674940189670266,0.006528340466374966,0.0006677209288986834,0.0,0.0,0.0,0.0,0.0,0.0,0.0,0.0,0.0
5.963,168,5,963000000,base_footprint,0.00358562385404932,0.0014613995139273566,-0.9261955905064787,0.37702352146702134,0.0,0.0,0.0,0.0,0.0,0.0,0.0,0.0,0.0,0.00011030662874346017,3.225283779134256e-05,0.01414718907100679,0.0,0.0,0.0,0.0,0.0,0.0,0.0,0.0,0.0,-0.0031867023869495918,-0.0014493555123477552,-4.3044884540188806e-05,0.0,0.0,0.0,0.0,0.0,0.0,0.0,0.0,0.0
5.997,169,5,997000000,base_footprint,0.0035683915639635037,0.0014746350518433763,-0.9257188376040024,0.37819270978986996,0.0,0.0,0.0,0.0,0.0,0.0,0.0,0.0,0.0,0.0001267804646987801,-0.0020086153286829962,0.17716751979615364,0.0,0.0,0.0,0.0,0.0,0.0,0.0,0.0,0.0,-0.02435079869562179,-0.42446940874566697,-0.0005536671323776579,0.0,0.0,0.0,0.0,0.0,0.0,0.0,0.0,0.0
6.031,170,6,31000000,base_footprint,0.0035719723624858504,0.0014737985892155016,-0.9249984196585876,0.37995130288008694,0.0,0.0,0.0,0.0,0.0,0.0,0.0,0.0,0.0,-0.0018563987429981298,-0.0001735764550221283,0.01687759836349297,0.0,0.0,0.0,0.0,0.0,0.0,0.0,0.0,0.0,-0.030074108068549803,0.13907375691362692,-0.0033527758422546156,0.0,0.0,0.0,0.0,0.0,0.0,0.0,0.0,0.0
6.065,171,6,65000000,base_footprint,0.003576361049159833,0.00147065472894615,-0.9250252533039213,0.37988594020617633,0.0,0.0,0.0,0.0,0.0,0.0,0.0,0.0,0.0,-0.00023260182474341297,0.0007167390094260644,-0.003686428785950544,0.0,0.0,0.0,0.0,0.0,0.0,0.0,0.0,0.0,0.008680292942141614,-0.052092754970613414,0.001222895226425566,0.0,0.0,0.0,0.0,0.0,0.0,0.0,0.0,0.0
6.099,172,6,99000000,base_footprint,0.0035655329162891706,0.0014745473243444021,-0.9252048483300218,0.37944841719505473,0.0,0.0,0.0,0.0,0.0,0.0,0.0,0.0,0.0,0.0002949253209582858,9.763228526468173e-05,-0.01856387951998245,0.0,0.0,0.0,0.0,0.0,0.0,0.0,0.0,0.0,0.008639478618500687,0.24699536443017162,0.002260552008567267,0.0,0.0,0.0,0.0,0.0,0.0,0.0,0.0,0.0
6.133,173,6,133000000,base_footprint,0.0035738382829184536,0.0014747727387965598,-0.9251131065644351,0.379671954176229,0.0,0.0,0.0,0.0,0.0,0.0,0.0,0.0,0.0,-0.0002891470064895678,-6.720190061715245e-05,0.022790950194762905,0.0,0.0,0.0,0.0,0.0,0.0,0.0,0.0,0.0,-0.0029438894934226724,0.09415864106492094,-0.00020239379448206064,0.0,0.0,0.0,0.0,0.0,0.0,0.0,0.0,0.0
6.167,174,6,167000000,base_footprint,0.0035727818174699365,0.0014795230983187778,-0.9249662496896731,0.38002958197554537,0.0,0.0,0.0,0.0,0.0,0.0,0.0,0.0,0.0,-1.2692640267205739e-05,-0.00030333390264398574,0.02252935504646796,0.0,0.0,0.0,0.0,0.0,0.0,0.0,0.0,0.0,-0.003758768533290927,0.005563673647281715,0.00043842613418310463,0.0,0.0,0.0,0.0,0.0,0.0,0.0,0.0,0.0
6.201,175,6,201000000,base_footprint,0.0035729611327899972,0.0014839914389067016,-0.9248944458627258,0.38020428157825126,0.0,0.0,0.0,0.0,0.0,0.0,0.0,0.0,0.0,8.677797292541956e-06,-0.00026974190752108583,0.008757706185974021,0.0,0.0,0.0,0.0,0.0,0.0,0.0,0.0,0.0,-0.0017167018043184204,0.008026376751581892,-0.00015938544350369726,0.0,0.0,0.0,0.0,0.0,0.0,0.0,0.0,0.0
6.235,176,6,235000000,base_footprint,0.0035729964706105737,0.0014870878561720716,-0.9248325558740418,0.3803547894550775,0.0,0.0,0.0,0.0,0.0,0.0,0.0,0.0,0.0,2.2527749942468277e-05,-0.0002487054081651615,0.010505655040751388,0.0,0.0,0.0,0.0,0.0,0.0,0.0,0.0,0.0,-0.0020862881833659678,0.0002864029155509835,1.3262678199316508e-05,0.0,0.0,0.0,0.0,0.0,0.0,0.0,0.0,0.0
6.269,177,6,269000000,base_footprint,0.0035731001158650962,0.001489226296134731,-0.9247545249982498,0.3805444568718119,0.0,0.0,0.0,0.0,0.0,0.0,0.0,0.0,0.0,0.00010043682053692721,-0.00019339471687818382,0.013626638644120155,0.0,0.0,0.0,0.0,0.0,0.0,0.0,0.0,0.0,-0.0017094017109629673,-0.003175988245364284,0.00016600406083086062,0.0,0.0,0.0,0.0,0.0,0.0,0.0,0.0,0.0
6.303,178,6,303000000,base_footprint,0.0035693084239185563,0.0014773897285565946,-0.9247922178825191,0.3804529288898909,0.0,0.0,0.0,0.0,0.0,0.0,0.0,0.0,0.0,0.0001293143252683242,0.0005365253798303234,-0.007433372531808973,0.0,0.0,0.0,0.0,0.0,0.0,0.0,0.0,0.0,-0.006449258057140398,-0.007571328058369372,0.00010813772382963876,0.0,0.0,0.0,0.0,0.0,0.0,0.0,0.0,0.0
6.337,179,6,337000000,base_footprint,0.003575489494891835,0.0014798173850460992,-0.9247616538788415,0.38052714690367223,0.0,0.0,0.0,0.0,0.0,0.0,0.0,0.0,0.0,2.9042520839451748e-05,-4.868549428665738e-05,0.009084332673846097,0.0,0.0,0.0,0.0,0.0,0.0,0.0,0.0,0.0,0.004457619461030344,-0.03961653053443366,0.0002303107621674052,0.0,0.0,0.0,0.0,0.0,0.0,0.0,0.0,0.0
6.371,180,6,371000000,base_footprint,0.003580176658895907,0.0014814843746957576,-0.9247774477722833,0.3804887115683205,0.0,0.0,0.0,0.0,0.0,0.0,0.0,0.0,0.0,0.00034544977613535776,0.000497624388788055,-0.006340692885715455,0.0,0.0,0.0,0.0,0.0,0.0,0.0,0.0,0.0,-0.0020244086156451114,0.04326894294078491,-1.0979422175572947e-05,0.0,0.0,0.0,0.0,0.0,0.0,0.0,0.0,0.0
6.406,181,6,405000000,base_footprint,0.0035794018093955656,0.0014795311438084708,-0.9245305782614968,0.38108819022602075,0.0,0.0,0.0,0.0,0.0,0.0,0.0,0.0,0.0,-5.815499529657599e-05,6.661915762276295e-05,0.04110416024944609,0.0,0.0,0.0,0.0,0.0,0.0,0.0,0.0,0.0,-0.005763034253840794,-0.01468356432019817,-0.000529847302823085,0.0,0.0,0.0,0.0,0.0,0.0,0.0,0.0,0.0
6.439,182,6,439000000,base_footprint,0.0035782274558103593,0.001479517423457909,-0.9242730934726082,0.38171226859906326,0.0,0.0,0.0,0.0,0.0,0.0,0.0,0.0,0.0,-2.4450723796010063e-05,-0.00012274853753723868,0.03841494252644007,0.0,0.0,0.0,0.0,0.0,0.0,0.0,0.0,0.0,-0.007752638132507567,-0.0016058902893753356,-1.9443937784544826e-05,0.0,0.0,0.0,0.0,0.0,0.0,0.0,0.0,0.0
6.473,183,6,473000000,base_footprint,0.003570046305836012,0.0014828707315690465,-0.9240388578715201,0.38227901460486224,0.0,0.0,0.0,0.0,0.0,0.0,0.0,0.0,0.0,0.002299098888747289,0.0002836421669132033,0.026106079863602742,0.0,0.0,0.0,0.0,0.0,0.0,0.0,0.0,0.0,-0.012372386158917295,0.008871846928389257,0.004955203498275945,0.0,0.0,0.0,0.0,0.0,0.0,0.0,0.0,0.0
6.506,184,6,507000000,base_footprint,0.003567160843191393,0.00148284368206697,-0.9242454124487511,0.3817793788375315,0.0,0.0,0.0,0.0,0.0,0.0,0.0,0.0,0.0,0.0005025018318939531,0.0003402236056776386,-0.05919222902364536,0.0,0.0,0.0,0.0,0.0,0.0,0.0,0.0,0.0,0.007609493760499606,0.002617401161536099,-0.004858185349152869,0.0,0.0,0.0,0.0,0.0,0.0,0.0,0.0,0.0
6.541,185,6,541000000,base_footprint,0.0035759046623252463,0.0014756880814739296,-0.9246408717604758,0.38082055291247024,0.0,0.0,0.0,0.0,0.0,0.0,0.0,0.0,0.0,0.0006148931972163372,7.383733096792079e-05,-0.05514866312046674,0.0,0.0,0.0,0.0,0.0,0.0,0.0,0.0,0.0,0.01434090187777465,0.014253199697615095,0.0004382002535752336,0.0,0.0,0.0,0.0,0.0,0.0,0.0,0.0,0.0
6.575,186,6,575000000,base_footprint,0.003573384894523636,0.0014758831689399682,-0.9250026889191424,0.3799408877465332,0.0,0.0,0.0,0.0,0.0,0.0,0.0,0.0,0.0,0.001478754961318566,-0.0015656066637546068,-0.032490277462712595,0.0,0.0,0.0,0.0,0.0,0.0,0.0,0.0,0.0,0.012747182052501194,-0.013757995537723434,-0.00040750972624357235,0.0,0.0,0.0,0.0,0.0,0.0,0.0,0.0,0.0
6.609,187,6,609000000,base_footprint,0.0035746303802608012,0.0014747278052036669,-0.9251315764628816,0.3796269398065011,0.0,0.0,0.0,0.0,0.0,0.0,0.0,0.0,0.0,0.0002938136887633373,-7.240023394686841e-06,-0.020403484095067904,0.0,0.0,0.0,0.0,0.0,0.0,0.0,0.0,0.0,0.005926768872097253,0.010192763918449947,0.0002955020411180471,0.0,0.0,0.0,0.0,0.0,0.0,0.0,0.0,0.0
6.643,188,6,643000000,base_footprint,0.0035743000840522585,0.0014772592105915684,-0.9252632892849496,0.37930579693135397,0.0,0.0,0.0,0.0,0.0,0.0,0.0,0.0,0.0,0.00019776088473225643,-8.023458080769205e-05,-0.020618762249554314,0.0,0.0,0.0,0.0,0.0,0.0,0.0,0.0,0.0,0.004613326418079838,0.004931177044894335,-0.00015755921277113335,0.0,0.0,0.0,0.0,0.0,0.0,0.0,0.0,0.0
6.677,189,6,677000000,base_footprint,0.003575346393586569,0.0014789383494103277,-0.9254146340897781,0.3789363860227818,0.0,0.0,0.0,0.0,0.0,0.0,0.0,0.0,0.0,0.0026756110574344366,0.0006913781251162417,-0.050223882587840746,0.0,0.0,0.0,0.0,0.0,0.0,0.0,0.0,0.0,0.005049453277824472,0.009499948478637598,0.0040846707207451245,0.0,0.0,0.0,0.0,0.0,0.0,0.0,0.0,0.0
6.711,190,6,711000000,base_footprint,0.003577112293592892,0.0014783262079719993,-0.9257367016309292,0.3781488834741547,0.0,0.0,0.0,0.0,0.0,0.0,0.0,0.0,0.0,0.0003310977507586973,0.00010569162099782672,-0.04838767770305294,0.0,0.0,0.0,0.0,0.0,0.0,0.0,0.0,0.0,0.011500172633604831,0.0006906984436624835,-0.004047836263440853,0.0,0.0,0.0,0.0,0.0,0.0,0.0,0.0,0.0
6.745,191,6,745000000,base_footprint,0.003578407441743745,0.0014763080120585924,-0.92603583596975,0.37741574690868546,0.0,0.0,0.0,0.0,0.0,0.0,0.0,0.0,0.0,0.0004530836147435807,0.00015171381432919727,-0.04460453365133239,0.0,0.0,0.0,0.0,0.0,0.0,0.0,0.0,0.0,0.011436775021863126,-0.005338234218943653,0.00030198319338705255,0.0,0.0,0.0,0.0,0.0,0.0,0.0,0.0,0.0
6.779,192,6,779000000,base_footprint,0.0035766487558343035,0.0014659256786515695,-0.9262591414307507,0.3768674323439885,0.0,0.0,0.0,0.0,0.0,0.0,0.0,0.0,0.0,6.230456863142835e-05,-0.0004373001973687755,0.012585693295551025,0.0,0.0,0.0,0.0,0.0,0.0,0.0,0.0,0.0,0.005245180885531414,0.036986930293834874,0.0012706188436906805,0.0,0.0,0.0,0.0,0.0,0.0,0.0,0.0,0.0
6.813,193,6,813000000,base_footprint,0.0035797798508441637,0.001466004848772592,-0.9259973984167245,0.3775100715629467,0.0,0.0,0.0,0.0,0.0,0.0,0.0,0.0,0.0,-0.0006094808220437914,-0.0006986662874956746,0.060613612527077275,0.0,0.0,0.0,0.0,0.0,0.0,0.0,0.0,0.0,-0.0073012304019332425,-0.10226330479424041,-0.0030671014769217205,0.0,0.0,0.0,0.0,0.0,0.0,0.0,0.0,0.0
6.847,194,6,847000000,base_footprint,0.0035831468221591894,0.0014717236802297066,-0.9256721975971479,0.3783067243440522,0.0,0.0,0.0,0.0,0.0,0.0,0.0,0.0,0.0,-1.7855544870526625e-05,-1.0937649715741447e-05,0.05026111416155414,0.0,0.0,0.0,0.0,0.0,0.0,0.0,0.0,0.0,-0.012265432460366422,0.030098876013868597,0.001618043206278429,0.0,0.0,0.0,0.0,0.0,0.0,0.0,0.0,0.0
6.881,195,6,881000000,base_footprint,0.0035819726561406562,0.0014695810929670865,-0.9254093737560285,0.3789492060524432,0.0,0.0,0.0,0.0,0.0,0.0,0.0,0.0,0.0,-0.0036209848060798555,0.0003140420494422047,0.00044554169318703054,0.0,0.0,0.0,0.0,0.0,0.0,0.0,0.0,0.0,-0.004221557036843013,0.010196540469494492,-0.004850491375277239,0.0,0.0,0.0,0.0,0.0,0.0,0.0,0.0,0.0
6.915,196,6,915000000,base_footprint,0.0035822497298663813,0.001469222305790213,-0.9253916928777475,0.3789923793766121,0.0,0.0,0.0,0.0,0.0,0.0,0.0,0.0,0.0,0.00015379111150306792,6.705562464067355e-05,0.0022369032203424003,0.0,0.0,0.0,0.0,0.0,0.0,0.0,0.0,0.0,-0.00471135516022104,0.002493311242887732,0.004641586806142924,0.0,0.0,0.0,0.0,0.0,0.0,0.0,0.0,0.0
6.948,197,6,949000000,base_footprint,0.0035751952510427575,0.001471011780749578,-0.9253895876044541,0.3789975794863555,0.0,0.0,0.0,0.0,0.0,0.0,0.0,0.0,0.0,0.0005423513222008871,-0.0001621262331125563,-0.0035437749036796432,0.0,0.0,0.0,0.0,0.0,0.0,0.0,0.0,0.0,-0.004361770095403572,-0.004534534346857795,0.0006846775386833452,0.0,0.0,0.0,0.0,0.0,0.0,0.0,0.0,0.0
6.9830000000000005,198,6,983000000,base_footprint,0.0035771766794877417,0.0014683595189026336,-0.9255474186458734,0.3786119696540079,0.0,0.0,0.0,0.0,0.0,0.0,0.0,0.0,0.0,0.0004391844893518746,0.0012580423403660392,-0.05329931663727091,0.0,0.0,0.0,0.0,0.0,0.0,0.0,0.0,0.0,0.007190297555608656,-0.002845380655456135,-0.0008382886532681893,0.0,0.0,0.0,0.0,0.0,0.0,0.0,0.0,0.0
7.017,199,7,17000000,base_footprint,0.003578406462888166,0.0014656227064117355,-0.9258455074377202,0.3778824464230364,0.0,0.0,0.0,0.0,0.0,0.0,0.0,0.0,0.0,0.000634057628197961,9.00876956038471e-05,-0.047069972749768714,0.0,0.0,0.0,0.0,0.0,0.0,0.0,0.0,0.0,0.009761569910386769,0.014568364773543658,0.0006291649439291473,0.0,0.0,0.0,0.0,0.0,0.0,0.0,0.0,0.0
7.051,200,7,51000000,base_footprint,0.0035789411482668528,0.0014639664204942318,-0.9261456738919549,0.3771461768516203,0.0,0.0,0.0,0.0,0.0,0.0,0.0,0.0,0.0,0.0003375455542272037,0.00038293495823471963,-0.04669813291477698,0.0,0.0,0.0,0.0,0.0,0.0,0.0,0.0,0.0,0.012693207845548395,0.006228820982829809,-0.00029415941901241987,0.0,0.0,0.0,0.0,0.0,0.0,0.0,0.0,0.0
7.085,201,7,85000000,base_footprint,0.00358065841332808,0.001466029883898485,-0.9262866831633715,0.3767996951112177,0.0,0.0,0.0,0.0,0.0,0.0,0.0,0.0,0.0,-0.0018788445951039357,0.0012445844720004845,0.039943015217708294,0.0,0.0,0.0,0.0,0.0,0.0,0.0,0.0,0.0,0.008930411437996394,-0.014721553517785263,-0.0017308104273429353,0.0,0.0,0.0,0.0,0.0,0.0,0.0,0.0,0.0
7.119,202,7,119000000,base_footprint,0.003577115493901197,0.0014708643180916508,-0.9260470346588566,0.37738830188870415,0.0,0.0,0.0,0.0,0.0,0.0,0.0,0.0,0.0,-8.825205638311281e-05,-0.00040915722412063324,0.03708010127036911,0.0,0.0,0.0,0.0,0.0,0.0,0.0,0.0,0.0,-0.011806743564507097,0.003532491145458024,0.0016922296139016673,0.0,0.0,0.0,0.0,0.0,0.0,0.0,0.0,0.0
7.153,203,7,153000000,base_footprint,0.003576341441464197,0.0014761986006910158,-0.9258069405698659,0.37797690327882516,0.0,0.0,0.0,0.0,0.0,0.0,0.0,0.0,0.0,0.00016985541268948584,-0.00015811508146106436,0.03722591160546722,0.0,0.0,0.0,0.0,0.0,0.0,0.0,0.0,0.0,-0.007190203293650985,0.004670931742742303,0.0004729670810520515,0.0,0.0,0.0,0.0,0.0,0.0,0.0,0.0,0.0
7.187,204,7,187000000,base_footprint,0.003573158214096572,0.001468247017728684,-0.9256791902323368,0.3782897217238097,0.0,0.0,0.0,0.0,0.0,0.0,0.0,0.0,0.0,-0.00039529701518347266,0.0004641064553544382,-0.03940318003932001,0.0,0.0,0.0,0.0,0.0,0.0,0.0,0.0,0.0,-0.012804716159055207,-0.29647811152251097,-0.002431736679469845,0.0,0.0,0.0,0.0,0.0,0.0,0.0,0.0,0.0
7.221,205,7,221000000,base_footprint,0.003576119679071155,0.0014784244794977027,-0.925913382578837,0.3777160753668232,0.0,0.0,0.0,0.0,0.0,0.0,0.0,0.0,0.0,-0.0005903476669204817,-0.0007018924530351755,0.048534829486055295,0.0,0.0,0.0,0.0,0.0,0.0,0.0,0.0,0.0,0.01037802747870219,-0.0756629600074531,-0.00010925735576934293,0.0,0.0,0.0,0.0,0.0,0.0,0.0,0.0,0.0
7.255,206,7,255000000,base_footprint,0.0035739019497268393,0.0014711162216577754,-0.925586069579639,0.3785174908006655,0.0,0.0,0.0,0.0,0.0,0.0,0.0,0.0,0.0,-6.750230152084537e-05,9.482976437536661e-05,0.05518057224754025,0.0,0.0,0.0,0.0,0.0,0.0,0.0,0.0,0.0,-0.01694525171128442,0.003080229662207345,0.00031418895959008656,0.0,0.0,0.0,0.0,0.0,0.0,0.0,0.0,0.0
7.289,207,7,289000000,base_footprint,0.0035738289984885026,0.0014754828974629338,-0.9253171403455716,0.37917441960027165,0.0,0.0,0.0,0.0,0.0,0.0,0.0,0.0,0.0,-0.00039488849749411234,0.00013485708268156477,-0.019109804820924215,0.0,0.0,0.0,0.0,0.0,0.0,0.0,0.0,0.0,-0.011992426944786083,-0.28059599536378294,-0.002419234456350303,0.0,0.0,0.0,0.0,0.0,0.0,0.0,0.0,0.0
7.323,208,7,323000000,base_footprint,0.003576636633272008,0.0014725802783241368,-0.9254926302027311,0.3787458654799395,0.0,0.0,0.0,0.0,0.0,0.0,0.0,0.0,0.0,-0.0003145307294999683,-0.000966241467198205,0.02885969312865065,0.0,0.0,0.0,0.0,0.0,0.0,0.0,0.0,0.0,0.010815679506408798,-0.08848788789225638,-0.0009786125352468135,0.0,0.0,0.0,0.0,0.0,0.0,0.0,0.0,0.0
7.357,209,7,357000000,base_footprint,0.0035821276274967157,0.0014742835764393677,-0.9252627512353976,0.37930704716087116,0.0,0.0,0.0,0.0,0.0,0.0,0.0,0.0,0.0,-5.776900583252603e-05,-9.408398202500931e-05,0.035988684551230644,0.0,0.0,0.0,0.0,0.0,0.0,0.0,0.0,0.0,-0.009484088568054857,0.04374359154057959,0.001176324982387926,0.0,0.0,0.0,0.0,0.0,0.0,0.0,0.0,0.0
7.391,210,7,391000000,base_footprint,0.0035697314062381473,0.0014658099978901407,-0.9250918164074792,0.3797238992144798,0.0,0.0,0.0,0.0,0.0,0.0,0.0,0.0,0.0,0.0008057727551848455,8.274527203826662e-05,0.0002608170487763667,0.0,0.0,0.0,0.0,0.0,0.0,0.0,0.0,0.0,-0.004340914264499632,0.21870191639401024,0.0023458059891246644,0.0,0.0,0.0,0.0,0.0,0.0,0.0,0.0,0.0
7.425,211,7,425000000,base_footprint,0.003573712131141088,0.001472075562397723,-0.9253336987128001,0.37913402327096835,0.0,0.0,0.0,0.0,0.0,0.0,0.0,0.0,0.0,0.0017178601580679223,-0.00047581536280988184,-0.060702078106139506,0.0,0.0,0.0,0.0,0.0,0.0,0.0,0.0,0.0,0.004781764453562251,0.24500649648199221,0.002093782555944696,0.0,0.0,0.0,0.0,0.0,0.0,0.0,0.0,0.0
7.459,212,7,459000000,base_footprint,0.0035714291315066633,0.0014697104564669013,-0.9257560860540653,0.37810151279648524,0.0,0.0,0.0,0.0,0.0,0.0,0.0,0.0,0.0,0.001086117118486607,-0.0006039961956293129,-0.07377014397005179,0.0,0.0,0.0,0.0,0.0,0.0,0.0,0.0,0.0,0.02003726874991519,-0.022028404164281166,-0.0010240525876440585,0.0,0.0,0.0,0.0,0.0,0.0,0.0,0.0,0.0
7.493,213,7,493000000,base_footprint,0.003566931212550419,0.001467433030583907,-0.9262233401348855,0.3769554984761491,0.0,0.0,0.0,0.0,0.0,0.0,0.0,0.0,0.0,0.0003262101690184973,0.0003706271021204071,-0.06391248994207846,0.0,0.0,0.0,0.0,0.0,0.0,0.0,0.0,0.0,0.015293699988036119,0.04946071822582765,-0.0006806013787006329,0.0,0.0,0.0,0.0,0.0,0.0,0.0,0.0,0.0
7.527,214,7,527000000,base_footprint,0.0035674834203266513,0.0014649934623452731,-0.9264541142736938,0.3763879660689837,0.0,0.0,0.0,0.0,0.0,0.0,0.0,0.0,0.0,0.000534978552293563,-0.0003882781708699014,-0.0028065180513261764,0.0,0.0,0.0,0.0,0.0,0.0,0.0,0.0,0.0,0.013618478069907555,0.1311809830217908,0.0017266744726561704,0.0,0.0,0.0,0.0,0.0,0.0,0.0,0.0,0.0
7.561,215,7,561000000,base_footprint,0.0035767323546819995,0.0014650880840511855,-0.9263317314908583,0.3766889747997909,0.0,0.0,0.0,0.0,0.0,0.0,0.0,0.0,0.0,-0.0001241014582668257,-6.999692902137576e-05,0.02294993417823948,0.0,0.0,0.0,0.0,0.0,0.0,0.0,0.0,0.0,-0.0031296816343107207,0.06281424710417488,-0.0006075198111707758,0.0,0.0,0.0,0.0,0.0,0.0,0.0,0.0,0.0
7.595,216,7,595000000,base_footprint,0.003576882685846795,0.0014676549569848107,-0.9263039287425184,0.37675732706259935,0.0,0.0,0.0,0.0,0.0,0.0,0.0,0.0,0.0,0.0002903727474840366,-0.0002170148142571042,-0.005825929549168928,0.0,0.0,0.0,0.0,0.0,0.0,0.0,0.0,0.0,-0.00039417692245022297,0.01198944862510591,0.00024058661652498822,0.0,0.0,0.0,0.0,0.0,0.0,0.0,0.0,0.0
7.629,217,7,629000000,base_footprint,0.003576835421610641,0.0014700498000459069,-0.926338986124908,0.37667111382083684,0.0,0.0,0.0,0.0,0.0,0.0,0.0,0.0,0.0,8.767592150168083e-05,-0.00020193953772542256,-0.00541401515803068,0.0,0.0,0.0,0.0,0.0,0.0,0.0,0.0,0.0,0.0015374833166249583,0.004461945156857497,-0.00018569943861095024,0.0,0.0,0.0,0.0,0.0,0.0,0.0,0.0,0.0
7.663,218,7,663000000,base_footprint,0.003577981387342384,0.0014729786928118168,-0.926369770046846,0.3765953764006088,0.0,0.0,0.0,0.0,0.0,0.0,0.0,0.0,0.0,5.727864542516511e-05,-0.00017854621229088886,-0.00409594406483998,0.0,0.0,0.0,0.0,0.0,0.0,0.0,0.0,0.0,0.0012929747400661955,0.0018126562474968975,-2.7981675219080347e-05,0.0,0.0,0.0,0.0,0.0,0.0,0.0,0.0,0.0
7.697,219,7,697000000,base_footprint,0.00357391359087734,0.001457225686094401,-0.9267102680190417,0.3757568133554209,0.0,0.0,0.0,0.0,0.0,0.0,0.0,0.0,0.0,0.0017340796811830565,0.0008588278574220197,-0.11788822818732647,0.0,0.0,0.0,0.0,0.0,0.0,0.0,0.0,0.0,-0.005092874914498197,-0.43904741218425025,-0.0009337722646688238,0.0,0.0,0.0,0.0,0.0,0.0,0.0,0.0,0.0
7.731,220,7,731000000,base_footprint,0.0035804688132926557,0.0014645708909089433,-0.927025481154304,0.37497838946506457,0.0,0.0,0.0,0.0,0.0,0.0,0.0,0.0,0.0,0.0005465441547319174,0.00043266100508741745,-0.009921587059200303,0.0,0.0,0.0,0.0,0.0,0.0,0.0,0.0,0.0,0.015183040996626547,0.08507913423334819,0.00015811693352167958,0.0,0.0,0.0,0.0,0.0,0.0,0.0,0.0,0.0
7.765,221,7,765000000,base_footprint,0.003582286566959193,0.0014565893268888579,-0.9270376352338955,0.3749483543508785,0.0,0.0,0.0,0.0,0.0,0.0,0.0,0.0,0.0,-0.0002847399388937323,-0.00011035822943654405,0.010839583609603397,0.0,0.0,0.0,0.0,0.0,0.0,0.0,0.0,0.0,-0.0005380459096803007,-0.044881855018303836,-0.0018863190851858397,0.0,0.0,0.0,0.0,0.0,0.0,0.0,0.0,0.0
7.799,222,7,799000000,base_footprint,0.003575952717532811,0.0014474783548178265,-0.926749152081511,0.37566091956014636,0.0,0.0,0.0,0.0,0.0,0.0,0.0,0.0,0.0,-0.0004996320079383653,-0.00014613118925881646,0.05072821282925105,0.0,0.0,0.0,0.0,0.0,0.0,0.0,0.0,0.0,-0.005296005775173383,0.14896184237790894,0.0011150555852693898,0.0,0.0,0.0,0.0,0.0,0.0,0.0,0.0,0.0
7.833,223,7,833000000,base_footprint,0.003576914071738152,0.001445553561555378,-0.92663500881335,0.37594238455128565,0.0,0.0,0.0,0.0,0.0,0.0,0.0,0.0,0.0,0.0004516865126331402,3.563601652379654e-05,-0.01931377108277144,0.0,0.0,0.0,0.0,0.0,0.0,0.0,0.0,0.0,0.002424289444313818,0.1812860635777321,0.001127319325636372,0.0,0.0,0.0,0.0,0.0,0.0,0.0,0.0,0.0
7.867,224,7,867000000,base_footprint,0.0035891657011704477,0.001455873889603982,-0.9268925360839607,0.37530684096167355,0.0,0.0,0.0,0.0,0.0,0.0,0.0,0.0,0.0,0.0004310618711565477,0.0002057546313758692,-0.04414476541134709,0.0,0.0,0.0,0.0,0.0,0.0,0.0,0.0,0.0,0.011134881551327594,0.062245049943095265,0.000660892916668107,0.0,0.0,0.0,0.0,0.0,0.0,0.0,0.0,0.0
7.901,225,7,901000000,base_footprint,0.003584801925994382,0.0014552844422621265,-0.9269289484108011,0.37521694516691245,0.0,0.0,0.0,0.0,0.0,0.0,0.0,0.0,0.0,0.00041242080324019933,0.00016251149438822025,0.005868445401286839,0.0,0.0,0.0,0.0,0.0,0.0,0.0,0.0,0.0,-0.0026914242281707674,-0.00636425369247502,0.0005307252222163717,0.0,0.0,0.0,0.0,0.0,0.0,0.0,0.0,0.0
7.9350000000000005,226,7,935000000,base_footprint,0.0035791853347118424,0.0014569444878254638,-0.9269403166674263,0.3751889071942172,0.0,0.0,0.0,0.0,0.0,0.0,0.0,0.0,0.0,0.0003566501427195795,0.00025687494850613104,-0.014000602294375166,0.0,0.0,0.0,0.0,0.0,0.0,0.0,0.0,0.0,0.0019468066824334298,-0.03319534916965044,-0.00036730513777426515,0.0,0.0,0.0,0.0,0.0,0.0,0.0,0.0,0.0
7.969,227,7,969000000,base_footprint,0.0035794782681950704,0.001454417523084594,-0.9270611372066104,0.3748902771294319,0.0,0.0,0.0,0.0,0.0,0.0,0.0,0.0,0.0,0.00019110593684437682,0.0005800278483943578,-0.013873703932557619,0.0,0.0,0.0,0.0,0.0,0.0,0.0,0.0,0.0,0.0036783345558246408,0.00451662650101403,-0.0007872130854967754,0.0,0.0,0.0,0.0,0.0,0.0,0.0,0.0,0.0
8.003,228,8,3000000,base_footprint,0.0035829747303258714,0.0014534206044224944,-0.927206675668302,0.37453014625896897,0.0,0.0,0.0,0.0,0.0,0.0,0.0,0.0,0.0,0.0002740845215273738,0.0002003200600322842,-0.025002850470356393,0.0,0.0,0.0,0.0,0.0,0.0,0.0,0.0,0.0,0.007311342182536415,0.029725472313713586,0.0007937821124649924,0.0,0.0,0.0,0.0,0.0,0.0,0.0,0.0,0.0
8.037,229,8,37000000,base_footprint,0.0035826526092908235,0.0014536403382576517,-0.9273683068975408,0.3741297567583164,0.0,0.0,0.0,0.0,0.0,0.0,0.0,0.0,0.0,0.00022583979998055422,0.00020831928919604496,-0.025619802287554026,0.0,0.0,0.0,0.0,0.0,0.0,0.0,0.0,0.0,0.005635065401911583,0.0045083100609062425,-0.00010451127452304247,0.0,0.0,0.0,0.0,0.0,0.0,0.0,0.0,0.0
8.071,230,8,71000000,base_footprint,0.0035829399122869923,0.0014548586760871124,-0.9275301615249559,0.3737283042389305,0.0,0.0,0.0,0.0,0.0,0.0,0.0,0.0,0.0,0.0002825278959029114,-3.065319707111792e-05,-0.025706956450320412,0.0,0.0,0.0,0.0,0.0,0.0,0.0,0.0,0.0,0.00589139417295965,0.0054321462328005875,0.0002241854030855376,0.0,0.0,0.0,0.0,0.0,0.0,0.0,0.0,0.0
8.105,231,8,105000000,base_footprint,0.0035816672383846477,0.0014610777080800363,-0.9272992672121094,0.3743008227877804,0.0,0.0,0.0,0.0,0.0,0.0,0.0,0.0,0.0,-0.0002156658507352282,-0.000497984587331164,0.04286835321576146,0.0,0.0,0.0,0.0,0.0,0.0,0.0,0.0,0.0,-0.007806097205873826,-0.013313954069158015,-0.0004839010496125398,0.0,0.0,0.0,0.0,0.0,0.0,0.0,0.0,0.0
8.139,232,8,139000000,base_footprint,0.0035794508578934283,0.001464129184217051,-0.9270251875411674,0.37497912678114687,0.0,0.0,0.0,0.0,0.0,0.0,0.0,0.0,0.0,-0.00013003923987417627,-0.000455898098143297,0.0432394893576288,0.0,0.0,0.0,0.0,0.0,0.0,0.0,0.0,0.0,-0.007343952410763783,0.004315392076500224,0.000182147082809759,0.0,0.0,0.0,0.0,0.0,0.0,0.0,0.0,0.0
8.173,233,8,173000000,base_footprint,0.0035787382937686944,0.0014695232161939476,-0.9267437490873391,0.375674136268768,0.0,0.0,0.0,0.0,0.0,0.0,0.0,0.0,0.0,-0.0013418793225577848,-0.0012324150074462647,0.037923331229018954,0.0,0.0,0.0,0.0,0.0,0.0,0.0,0.0,0.0,-0.008382582186879104,-0.009592856828653702,-0.0026669555396261935,0.0,0.0,0.0,0.0,0.0,0.0,0.0,0.0,0.0
8.207,234,8,207000000,base_footprint,0.0035794918803208594,0.0014672698074791762,-0.9266247241498367,0.3759676248713846,0.0,0.0,0.0,0.0,0.0,0.0,0.0,0.0,0.0,0.00018903223544361412,0.00032968760949191793,0.018359034517273238,0.0,0.0,0.0,0.0,0.0,0.0,0.0,0.0,0.0,-0.011577266423280316,0.013336098982092516,0.0030762441464191204,0.0,0.0,0.0,0.0,0.0,0.0,0.0,0.0,0.0
8.241,235,8,241000000,base_footprint,0.0035807466765600715,0.0014634812052599711,-0.9264455075432733,0.3764090302169795,0.0,0.0,0.0,0.0,0.0,0.0,0.0,0.0,0.0,-0.0004687018173010144,-0.00034529964097254314,0.04042454582928366,0.0,0.0,0.0,0.0,0.0,0.0,0.0,0.0,0.0,-0.003746812483684879,-0.05346998673545629,-0.0016400569836090722,0.0,0.0,0.0,0.0,0.0,0.0,0.0,0.0,0.0
8.274000000000001,236,8,275000000,base_footprint,0.0035883849072997644,0.0014772295066785319,-0.9262448705581465,0.3769023494905067,0.0,0.0,0.0,0.0,0.0,0.0,0.0,0.0,0.0,-0.001835361871580267,-0.002219120643908402,0.015228537601587924,0.0,0.0,0.0,0.0,0.0,0.0,0.0,0.0,0.0,-0.00986053582357334,0.001514594937953521,0.0009496017540248723,0.0,0.0,0.0,0.0,0.0,0.0,0.0,0.0,0.0
8.309,237,8,309000000,base_footprint,0.0035747868711180734,0.0014570160794770445,-0.9262895736908973,0.3767926799640703,0.0,0.0,0.0,0.0,0.0,0.0,0.0,0.0,0.0,0.0018179455261585317,0.00044970786340053123,-0.00851580042148008,0.0,0.0,0.0,0.0,0.0,0.0,0.0,0.0,0.0,-0.0035001908213367905,-0.4517005736637698,0.00041146423687645807,0.0,0.0,0.0,0.0,0.0,0.0,0.0,0.0,0.0
8.343,238,8,343000000,base_footprint,0.0035858791057838063,0.0014637596095091305,-0.9262357041986217,0.37692495161043393,0.0,0.0,0.0,0.0,0.0,0.0,0.0,0.0,0.0,0.00012128795909789307,0.00033111789822393324,0.016391297668843445,0.0,0.0,0.0,0.0,0.0,0.0,0.0,0.0,0.0,-1.0483980437743512e-05,0.15225027210677328,-0.002197895983227118,0.0,0.0,0.0,0.0,0.0,0.0,0.0,0.0,0.0
8.377,239,8,377000000,base_footprint,0.003587906736626789,0.0014678313991556807,-0.9261151803183361,0.37722095008120765,0.0,0.0,0.0,0.0,0.0,0.0,0.0,0.0,0.0,-0.00015556850710439734,-0.0018757830445591235,0.0584925195994383,0.0,0.0,0.0,0.0,0.0,0.0,0.0,0.0,0.0,-0.011797273047301684,-0.06641998869460794,0.0008095633798045381,0.0,0.0,0.0,0.0,0.0,0.0,0.0,0.0,0.0
8.411,240,8,411000000,base_footprint,0.003571617894655332,0.0014700833925517572,-0.9256314768020876,0.3784064634141706,0.0,0.0,0.0,0.0,0.0,0.0,0.0,0.0,0.0,-9.872029357854937e-05,-3.090121026766711e-05,0.06496666568439924,0.0,0.0,0.0,0.0,0.0,0.0,0.0,0.0,0.0,-0.013634385078421265,-0.04944427997281376,-0.001372542016682763,0.0,0.0,0.0,0.0,0.0,0.0,0.0,0.0,0.0
8.445,241,8,445000000,base_footprint,0.0035638742679130328,0.0014751439008748757,-0.9252210750330148,0.37940886266062224,0.0,0.0,0.0,0.0,0.0,0.0,0.0,0.0,0.0,-3.096203750156964e-05,-0.0004745162662335167,0.07094589610365142,0.0,0.0,0.0,0.0,0.0,0.0,0.0,0.0,0.0,-0.011974879071202916,0.015808279210800438,0.0010677377176577607,0.0,0.0,0.0,0.0,0.0,0.0,0.0,0.0,0.0
8.479,242,8,479000000,base_footprint,0.0035745894177931776,0.0014776665939422312,-0.9246951499398943,0.3806887422679684,0.0,0.0,0.0,0.0,0.0,0.0,0.0,0.0,0.0,0.0013110462488930578,-0.0024780659448762413,0.04127851302279263,0.0,0.0,0.0,0.0,0.0,0.0,0.0,0.0,0.0,-0.01683956259294662,0.08983668684304011,0.0017998112903258939,0.0,0.0,0.0,0.0,0.0,0.0,0.0,0.0,0.0
8.513,243,8,513000000,base_footprint,0.0035697345037090053,0.0014815424053801387,-0.9244375842052707,0.3813138011354918,0.0,0.0,0.0,0.0,0.0,0.0,0.0,0.0,0.0,-0.00015036103354152032,-0.0001678439921670195,0.040666458451880876,0.0,0.0,0.0,0.0,0.0,0.0,0.0,0.0,0.0,-0.005887830360155093,0.0044777254439274956,-0.002617736838208616,0.0,0.0,0.0,0.0,0.0,0.0,0.0,0.0,0.0
8.547,244,8,547000000,base_footprint,0.0035684950977005777,0.0014861205604135915,-0.9241748487003455,0.3819501359053444,0.0,0.0,0.0,0.0,0.0,0.0,0.0,0.0,0.0,-0.00014839253467381118,-0.00021928923573504559,0.04023958232071465,0.0,0.0,0.0,0.0,0.0,0.0,0.0,0.0,0.0,-0.00841943873117957,0.0044392758516200595,-7.622648041336297e-05,0.0,0.0,0.0,0.0,0.0,0.0,0.0,0.0,0.0
8.581,245,8,581000000,base_footprint,0.003559361175150528,0.0014892559075194009,-0.9239152766264752,0.38257767143560606,0.0,0.0,0.0,0.0,0.0,0.0,0.0,0.0,0.0,-0.0008467256760298697,-0.00020815181987757995,0.036927524299774264,0.0,0.0,0.0,0.0,0.0,0.0,0.0,0.0,0.0,-0.006618062063149147,0.16677640919061965,0.0008715392777907945,0.0,0.0,0.0,0.0,0.0,0.0,0.0,0.0,0.0
8.615,246,8,615000000,base_footprint,0.0035686415065975755,0.0014941761716254782,-0.9239726180037618,0.382439058432373,0.0,0.0,0.0,0.0,0.0,0.0,0.0,0.0,0.0,0.0002072683670400302,-0.00015910618145697141,-0.022069977988110976,0.0,0.0,0.0,0.0,0.0,0.0,0.0,0.0,0.0,0.0009606265855374996,0.1991671617626441,0.0009205417185175934,0.0,0.0,0.0,0.0,0.0,0.0,0.0,0.0,0.0
8.648,247,8,649000000,base_footprint,0.003570258744612069,0.0014952750048571695,-0.924109380531272,0.3821084534778903,0.0,0.0,0.0,0.0,0.0,0.0,0.0,0.0,0.0,0.0001883908064728933,-3.174356429200231e-05,-0.01994432039087301,0.0,0.0,0.0,0.0,0.0,0.0,0.0,0.0,0.0,0.004472463676671535,-0.0006050692711433011,0.00013518557578362744,0.0,0.0,0.0,0.0,0.0,0.0,0.0,0.0,0.0
8.683,248,8,683000000,base_footprint,0.0035629796566281173,0.0014804570876081398,-0.9243079359037639,0.38162802969396975,0.0,0.0,0.0,0.0,0.0,0.0,0.0,0.0,0.0,0.00017788036189785733,0.0011138244953797982,-0.08646601069936038,0.0,0.0,0.0,0.0,0.0,0.0,0.0,0.0,0.0,0.006043820002861029,-0.18316599552341692,-0.0001362340095628535,0.0,0.0,0.0,0.0,0.0,0.0,0.0,0.0,0.0
8.717,249,8,717000000,base_footprint,0.0035778401653836444,0.001478143507925812,-0.9253982120397575,0.3789764680097446,0.0,0.0,0.0,0.0,0.0,0.0,0.0,0.0,0.0,-0.00045415875728835407,-0.0004895316687102439,-0.14052353657040662,0.0,0.0,0.0,0.0,0.0,0.0,0.0,0.0,0.0,0.0228394719031893,-0.22653976796524317,-0.005251772858122136,0.0,0.0,0.0,0.0,0.0,0.0,0.0,0.0,0.0
8.751,250,8,751000000,base_footprint,0.0035792310663244472,0.0014699385135230245,-0.9257518126443566,0.3781119011237659,0.0,0.0,0.0,0.0,0.0,0.0,0.0,0.0,0.0,-0.00014030691444065973,0.00044503506202905364,-0.014849586252010591,0.0,0.0,0.0,0.0,0.0,0.0,0.0,0.0,0.0,0.018765128512693623,0.039199557308439145,0.003350638284740852,0.0,0.0,0.0,0.0,0.0,0.0,0.0,0.0,0.0
8.785,251,8,785000000,base_footprint,0.00357100733137354,0.00145935064478435,-0.9258171294917626,0.3779520616982628,0.0,0.0,0.0,0.0,0.0,0.0,0.0,0.0,0.0,-0.0012294796429435774,0.00046346486222758275,0.011778013129325856,0.0,0.0,0.0,0.0,0.0,0.0,0.0,0.0,0.0,0.005713364731323008,0.15231997557196858,0.000652378303170812,0.0,0.0,0.0,0.0,0.0,0.0,0.0,0.0,0.0
8.819,252,8,819000000,base_footprint,0.003583179587494344,0.0014690678368074635,-0.9258537207783561,0.3778622637742602,0.0,0.0,0.0,0.0,0.0,0.0,0.0,0.0,0.0,-0.0012895341888750156,0.00030403733491131586,-0.025102304425425288,0.0,0.0,0.0,0.0,0.0,0.0,0.0,0.0,0.0,0.006771084516383238,0.21264420183766877,-0.0004866626565747931,0.0,0.0,0.0,0.0,0.0,0.0,0.0,0.0,0.0
8.853,253,8,853000000,base_footprint,0.0035844975568627836,0.0014651831556877816,-0.9260196092587216,0.3774555442484716,0.0,0.0,0.0,0.0,0.0,0.0,0.0,0.0,0.0,0.0003236565307102807,0.0001973818389059795,-0.02744427427347808,0.0,0.0,0.0,0.0,0.0,0.0,0.0,0.0,0.0,0.007136478217352513,-0.010093325249446458,0.002287700400865087,0.0,0.0,0.0,0.0,0.0,0.0,0.0,0.0,0.0
8.887,254,8,887000000,base_footprint,0.0035739051262108482,0.0014652139903359785,-0.9261623181479786,0.3771053444236423,0.0,0.0,0.0,0.0,0.0,0.0,0.0,0.0,0.0,-0.0007400836140378666,-0.0003944243337729067,-0.015135577448062786,0.0,0.0,0.0,0.0,0.0,0.0,0.0,0.0,0.0,1.5606076147339776e-06,-0.04170451135373619,-0.0010555133781734115,0.0,0.0,0.0,0.0,0.0,0.0,0.0,0.0,0.0
8.921,255,8,921000000,base_footprint,0.0035743909391207857,0.001462618106312788,-0.926339871928182,0.37666898751260236,0.0,0.0,0.0,0.0,0.0,0.0,0.0,0.0,0.0,0.0006287668868079936,-0.00022159609005481003,-0.031176305454843296,0.0,0.0,0.0,0.0,0.0,0.0,0.0,0.0,0.0,0.006706827776059113,-0.025632000452443498,0.0015710684864300056,0.0,0.0,0.0,0.0,0.0,0.0,0.0,0.0,0.0
8.955,256,8,955000000,base_footprint,0.003580015803755645,0.0014597833612712515,-0.9264628490283933,0.37636636657594125,0.0,0.0,0.0,0.0,0.0,0.0,0.0,0.0,0.0,-0.0009461810994154662,0.0008588419153389986,-0.0041001353540612295,0.0,0.0,0.0,0.0,0.0,0.0,0.0,0.0,0.0,0.008632169875131789,0.06199310403923064,-0.0019516163552618726,0.0,0.0,0.0,0.0,0.0,0.0,0.0,0.0,0.0
8.989,257,8,989000000,base_footprint,0.0035786190611814747,0.0014612395517006097,-0.9265847680940714,0.3760661189214518,0.0,0.0,0.0,0.0,0.0,0.0,0.0,0.0,0.0,-0.0003399043771997401,0.0005061118620482701,-0.03446174987548322,0.0,0.0,0.0,0.0,0.0,0.0,0.0,0.0,0.0,0.0034900021419081383,0.00808576291625675,0.0007577606816885887,0.0,0.0,0.0,0.0,0.0,0.0,0.0,0.0,0.0
9.023,258,9,23000000,base_footprint,0.0035797909789427847,0.0014607681715511093,-0.926804032204403,0.37552541477582607,0.0,0.0,0.0,0.0,0.0,0.0,0.0,0.0,0.0,0.0003230722909749073,0.00012696255183489055,-0.034441078128114984,0.0,0.0,0.0,0.0,0.0,0.0,0.0,0.0,0.0,0.00722033583999019,0.005723094907804073,0.0009255199287877706,0.0,0.0,0.0,0.0,0.0,0.0,0.0,0.0,0.0
9.057,259,9,57000000,base_footprint,0.0035802666367323517,0.0014620028613483442,-0.9270236789444509,0.3749828568278006,0.0,0.0,0.0,0.0,0.0,0.0,0.0,0.0,0.0,0.0002360780656482606,-5.1980448888226856e-05,-0.03451119605655731,0.0,0.0,0.0,0.0,0.0,0.0,0.0,0.0,0.0,0.007976274490405976,0.004537499425702543,-0.00017352412502697948,0.0,0.0,0.0,0.0,0.0,0.0,0.0,0.0,0.0
9.091,260,9,91000000,base_footprint,0.0035779179250446055,0.0014639458335145125,-0.9269881732099624,0.3750706361404142,0.0,0.0,0.0,0.0,0.0,0.0,0.0,0.0,0.0,0.000686224218441377,-0.0007853847584431707,0.05021407335658294,0.0,0.0,0.0,0.0,0.0,0.0,0.0,0.0,0.0,0.0014986105362310145,-0.019720602151593283,0.0008517195205311344,0.0,0.0,0.0,0.0,0.0,0.0,0.0,0.0,0.0
9.125,261,9,125000000,base_footprint,0.003577862127786186,0.0014690166237909736,-0.9266644750482117,0.375869647053837,0.0,0.0,0.0,0.0,0.0,0.0,0.0,0.0,0.0,-0.00020866834797945565,-0.0005013426082210793,0.05136142462011976,0.0,0.0,0.0,0.0,0.0,0.0,0.0,0.0,0.0,-0.011822157688802647,0.004233368372369464,-0.0009727546788385922,0.0,0.0,0.0,0.0,0.0,0.0,0.0,0.0,0.0
9.159,262,9,159000000,base_footprint,0.0035778119655584255,0.0014746356977561276,-0.9263240512815698,0.3767078134687384,0.0,0.0,0.0,0.0,0.0,0.0,0.0,0.0,0.0,-0.0003835940781843456,-0.0004931589093144216,0.05548892703563271,0.0,0.0,0.0,0.0,0.0,0.0,0.0,0.0,0.0,-0.015418838255804038,-0.00470265732169751,-0.0005851066331529292,0.0,0.0,0.0,0.0,0.0,0.0,0.0,0.0,0.0
9.193,263,9,193000000,base_footprint,0.0035746314979189075,0.0014641876861852129,-0.9260616396447051,0.3773525112446373,0.0,0.0,0.0,0.0,0.0,0.0,0.0,0.0,0.0,-7.414803730253635e-05,0.00013274267954273194,0.033626368534744655,0.0,0.0,0.0,0.0,0.0,0.0,0.0,0.0,0.0,-0.012863344984121089,-0.0481105012665225,0.0004455127088592071,0.0,0.0,0.0,0.0,0.0,0.0,0.0,0.0,0.0
9.227,264,9,227000000,base_footprint,0.003578635080380935,0.0014672042393268272,-0.9257950009371236,0.37800615990022296,0.0,0.0,0.0,0.0,0.0,0.0,0.0,0.0,0.0,-5.897599969378718e-05,-0.00033194464432746706,0.03835771497169631,0.0,0.0,0.0,0.0,0.0,0.0,0.0,0.0,0.0,-0.005361696055434715,-0.010439932772346375,-0.0009785798958637675,0.0,0.0,0.0,0.0,0.0,0.0,0.0,0.0,0.0
9.261,265,9,261000000,base_footprint,0.003584586232585821,0.0014729951597358649,-0.9256373437314628,0.37839197787025375,0.0,0.0,0.0,0.0,0.0,0.0,0.0,0.0,0.0,5.2434328610551306e-05,0.0002671960262990154,0.01570019351223117,0.0,0.0,0.0,0.0,0.0,0.0,0.0,0.0,0.0,-0.006495729100099844,0.06350046675863537,0.0012052835781557858,0.0,0.0,0.0,0.0,0.0,0.0,0.0,0.0,0.0
9.295,266,9,295000000,base_footprint,0.0035838238958494526,0.00146848679716037,-0.925625822244869,0.3784201857014509,0.0,0.0,0.0,0.0,0.0,0.0,0.0,0.0,0.0,-5.6415564239035676e-05,0.0002586980726971218,-0.006927825805060229,0.0,0.0,0.0,0.0,0.0,0.0,0.0,0.0,0.0,0.0014722315401979168,-0.002002757493586598,-0.0005191131947831955,0.0,0.0,0.0,0.0,0.0,0.0,0.0,0.0,0.0
9.329,267,9,329000000,base_footprint,0.003582505032523635,0.001466678547300421,-0.9256809395276392,0.37828535883240083,0.0,0.0,0.0,0.0,0.0,0.0,0.0,0.0,0.0,0.0005140447437242118,-0.00015661026589944857,-0.00963023333838622,0.0,0.0,0.0,0.0,0.0,0.0,0.0,0.0,0.0,0.000897163924687487,-0.0009049879531489087,0.0007924350725137435,0.0,0.0,0.0,0.0,0.0,0.0,0.0,0.0,0.0
9.363,268,9,363000000,base_footprint,0.003575017963401549,0.0014689106343500737,-0.9257655025328217,0.3780784255525059,0.0,0.0,0.0,0.0,0.0,0.0,0.0,0.0,0.0,0.0005382552031058743,-9.027386564356535e-05,-0.02090041297690191,0.0,0.0,0.0,0.0,0.0,0.0,0.0,0.0,0.0,0.0009399302780486608,-0.014817531958614313,8.540291253828301e-05,0.0,0.0,0.0,0.0,0.0,0.0,0.0,0.0,0.0
9.397,269,9,397000000,base_footprint,0.003574439361227834,0.001468463879527135,-0.9257481663887958,0.3781208793823344,0.0,0.0,0.0,0.0,0.0,0.0,0.0,0.0,0.0,0.0006686883974846278,2.0570692818084777e-05,0.0007568958088302906,0.0,0.0,0.0,0.0,0.0,0.0,0.0,0.0,0.0,-0.003317329068678085,-0.24494377381567664,-0.0011112963129824875,0.0,0.0,0.0,0.0,0.0,0.0,0.0,0.0,0.0
9.431000000000001,270,9,431000000,base_footprint,0.0035802597058580605,0.001463950178154549,-0.925950527302664,0.37762502509530926,0.0,0.0,0.0,0.0,0.0,0.0,0.0,0.0,0.0,6.820899861300763e-05,0.0004147940866049567,-0.03519245324955408,0.0,0.0,0.0,0.0,0.0,0.0,0.0,0.0,0.0,0.007118758360726996,-0.0707374372273188,-0.0013141932763804682,0.0,0.0,0.0,0.0,0.0,0.0,0.0,0.0,0.0
9.465,271,9,465000000,base_footprint,0.0035785529841162334,0.0014633708076357084,-0.9261924406190426,0.37703131891735553,0.0,0.0,0.0,0.0,0.0,0.0,0.0,0.0,0.0,0.0003166404709702781,0.0003255147721236167,-0.037958910809978444,0.0,0.0,0.0,0.0,0.0,0.0,0.0,0.0,0.0,0.006616189611322329,-0.0007314447105378524,0.0001916662936111692,0.0,0.0,0.0,0.0,0.0,0.0,0.0,0.0,0.0
9.499,272,9,499000000,base_footprint,0.0035707599082810963,0.0014641294433988443,-0.9264403776380886,0.3764217484158508,0.0,0.0,0.0,0.0,0.0,0.0,0.0,0.0,0.0,0.0004251519642895653,-0.0003440378613464572,0.00018899430608967973,0.0,0.0,0.0,0.0,0.0,0.0,0.0,0.0,0.0,0.017173527938452254,0.3002979531660055,0.0024938780030519386,0.0,0.0,0.0,0.0,0.0,0.0,0.0,0.0,0.0
9.533,273,9,533000000,base_footprint,0.003577701293987184,0.0014671530357224967,-0.9263562481064882,0.37662866209237333,0.0,0.0,0.0,0.0,0.0,0.0,0.0,0.0,0.0,-4.4329022079233903e-05,-0.00023597957026951462,0.01363994017086767,0.0,0.0,0.0,0.0,0.0,0.0,0.0,0.0,0.0,-0.0022354550423922346,0.03745831235543102,-0.0006649513549000043,0.0,0.0,0.0,0.0,0.0,0.0,0.0,0.0,0.0
9.567,274,9,567000000,base_footprint,0.003578026276314942,0.0014716549404563965,-0.9262678470208737,0.3768459997598724,0.0,0.0,0.0,0.0,0.0,0.0,0.0,0.0,0.0,-1.5369583113931247e-05,-0.0003011531526151449,0.01381062005096445,0.0,0.0,0.0,0.0,0.0,0.0,0.0,0.0,0.0,-0.0021362462076730264,0.00461320407205442,-8.640678247133531e-05,0.0,0.0,0.0,0.0,0.0,0.0,0.0,0.0,0.0
9.601,275,9,601000000,base_footprint,0.003579198430793773,0.001473401807263298,-0.9263303398108595,0.3766923412701734,0.0,0.0,0.0,0.0,0.0,0.0,0.0,0.0,0.0,0.00016765309723881967,-9.742254804878566e-05,-0.013573884607466054,0.0,0.0,0.0,0.0,0.0,0.0,0.0,0.0,0.0,0.001780715265068442,0.006121247065691799,9.334057804528518e-05,0.0,0.0,0.0,0.0,0.0,0.0,0.0,0.0,0.0
9.635,276,9,635000000,base_footprint,0.00357988287601674,0.001473295858616735,-0.9264073930309018,0.3765027967699514,0.0,0.0,0.0,0.0,0.0,0.0,0.0,0.0,0.0,0.00023897456455152335,-2.7782070580197366e-05,-0.010186848431100843,0.0,0.0,0.0,0.0,0.0,0.0,0.0,0.0,0.0,0.0035532799054495807,-0.004026320969924326,0.00019850168395485672,0.0,0.0,0.0,0.0,0.0,0.0,0.0,0.0,0.0
9.669,277,9,669000000,base_footprint,0.003579275712791674,0.0014646192756882774,-0.9264518994347464,0.3763933072060388,0.0,0.0,0.0,0.0,0.0,0.0,0.0,0.0,0.0,0.0002967378271731666,0.0004141472125479129,-0.0013232019446313375,0.0,0.0,0.0,0.0,0.0,0.0,0.0,0.0,0.0,-0.004237976140681833,-0.019063008235225724,0.00025132435334876304,0.0,0.0,0.0,0.0,0.0,0.0,0.0,0.0,0.0
9.703,278,9,703000000,base_footprint,0.0035819218719660515,0.0014662323806685325,-0.9262169356649679,0.37697109714898036,0.0,0.0,0.0,0.0,0.0,0.0,0.0,0.0,0.0,-0.0007527223446475076,-0.0008199679580489698,0.04903171327508086,0.0,0.0,0.0,0.0,0.0,0.0,0.0,0.0,0.0,-0.0023611128730710116,-0.031241577288388927,-0.002226575749784161,0.0,0.0,0.0,0.0,0.0,0.0,0.0,0.0,0.0
9.737,279,9,737000000,base_footprint,0.0035851848451506386,0.0014692391393246417,-0.9259611412286732,0.3775989310372458,0.0,0.0,0.0,0.0,0.0,0.0,0.0,0.0,0.0,1.2325517642380147e-05,4.425987884249242e-05,0.04027861953550163,0.0,0.0,0.0,0.0,0.0,0.0,0.0,0.0,0.0,-0.01091704306629605,0.025545151221697475,0.001811255151351246,0.0,0.0,0.0,0.0,0.0,0.0,0.0,0.0,0.0
9.771,280,9,771000000,base_footprint,0.0035843415708999935,0.0014683373336830295,-0.925710135636222,0.37821388295691283,0.0,0.0,0.0,0.0,0.0,0.0,0.0,0.0,0.0,-3.302741171536618e-05,-2.91402850336245e-05,0.038440958556422024,0.0,0.0,0.0,0.0,0.0,0.0,0.0,0.0,0.0,-0.0076813070935324735,0.0017021276752221593,-0.0001499084935632941,0.0,0.0,0.0,0.0,0.0,0.0,0.0,0.0,0.0
9.805,281,9,805000000,base_footprint,0.0035827692897408914,0.001466451447093864,-0.9258045609890589,0.3779827087794172,0.0,0.0,0.0,0.0,0.0,0.0,0.0,0.0,0.0,0.000385433867195436,-7.939230084965683e-05,-0.021529638031531337,0.0,0.0,0.0,0.0,0.0,0.0,0.0,0.0,0.0,0.0017284813109997247,0.013866413030603417,0.0001775378555564408,0.0,0.0,0.0,0.0,0.0,0.0,0.0,0.0,0.0
9.839,282,9,839000000,base_footprint,0.0035760498792130144,0.0014668677766138413,-0.925966622143304,0.37758558611619014,0.0,0.0,0.0,0.0,0.0,0.0,0.0,0.0,0.0,0.0005734863207755489,-8.804791772095376e-06,-0.03283646764103781,0.0,0.0,0.0,0.0,0.0,0.0,0.0,0.0,0.0,0.002146937866271445,-0.014977230336652141,0.00033503074619246355,0.0,0.0,0.0,0.0,0.0,0.0,0.0,0.0,0.0
9.873,283,9,873000000,base_footprint,0.003576908748442507,0.001462383655120396,-0.9262534299242692,0.3768814809875615,0.0,0.0,0.0,0.0,0.0,0.0,0.0,0.0,0.0,-0.00030237735806590266,0.000526158115978876,-0.04210462982238479,0.0,0.0,0.0,0.0,0.0,0.0,0.0,0.0,0.0,0.01043556128056542,-0.029248654627942742,-0.0022605155175164137,0.0,0.0,0.0,0.0,0.0,0.0,0.0,0.0,0.0
9.907,284,9,907000000,base_footprint,0.0035817726788762556,0.0014601859423470957,-0.9263887019048219,0.3765488172131069,0.0,0.0,0.0,0.0,0.0,0.0,0.0,0.0,0.0,6.597760955947608e-05,5.001996013268286e-05,-0.009763602830959261,0.0,0.0,0.0,0.0,0.0,0.0,0.0,0.0,0.0,0.007941937025600391,0.04523959388411275,0.001947171941089871,0.0,0.0,0.0,0.0,0.0,0.0,0.0,0.0,0.0
9.941,285,9,941000000,base_footprint,0.0035784742709649097,0.0014617653549017762,-0.926467610393916,0.37635465276109786,0.0,0.0,0.0,0.0,0.0,0.0,0.0,0.0,0.0,0.0002030966045264886,8.963112042233233e-05,-0.012832792659479045,0.0,0.0,0.0,0.0,0.0,0.0,0.0,0.0,0.0,0.002643861213453518,-0.001714711472482593,3.572114116477617e-05,0.0,0.0,0.0,0.0,0.0,0.0,0.0,0.0,0.0
9.975,286,9,975000000,base_footprint,0.0035857423595969684,0.0014617719904956297,-0.9265498977951127,0.3761519540960074,0.0,0.0,0.0,0.0,0.0,0.0,0.0,0.0,0.0,-0.0032566238529880645,0.002181194112245491,-0.012605242181296165,0.0,0.0,0.0,0.0,0.0,0.0,0.0,0.0,0.0,0.0004965694137946501,-0.07241306864813624,-0.0027966667264500075,0.0,0.0,0.0,0.0,0.0,0.0,0.0,0.0,0.0
10.009,287,10,9000000,base_footprint,0.003576771355265208,0.00146443401303485,-0.9267575153706245,0.37564021329426434,0.0,0.0,0.0,0.0,0.0,0.0,0.0,0.0,0.0,-0.00024302209859785622,-0.0003416258833882325,-0.013746493427271585,0.0,0.0,0.0,0.0,0.0,0.0,0.0,0.0,0.0,-0.0009760224258624633,-0.25958676579618695,-0.002451563403892037,0.0,0.0,0.0,0.0,0.0,0.0,0.0,0.0,0.0
10.043,288,10,43000000,base_footprint,0.0035802162851349267,0.0014673476196141626,-0.9268193328515002,0.3754876205616039,0.0,0.0,0.0,0.0,0.0,0.0,0.0,0.0,0.0,0.00014460906267117546,-0.00014709190916945046,-0.009880861495175208,0.0,0.0,0.0,0.0,0.0,0.0,0.0,0.0,0.0,0.0034183634158171062,0.004240686878525891,0.0033023698074826457,0.0,0.0,0.0,0.0,0.0,0.0,0.0,0.0,0.0
10.076,289,10,77000000,base_footprint,0.0035757392825312073,0.00146494887848696,-0.9268663050529391,0.37537170987020196,0.0,0.0,0.0,0.0,0.0,0.0,0.0,0.0,0.0,0.0030030800212945004,0.0020662430140860597,0.00953741106718851,0.0,0.0,0.0,0.0,0.0,0.0,0.0,0.0,0.0,0.004042076177181303,0.07833047067150824,0.00578792334304613,0.0,0.0,0.0,0.0,0.0,0.0,0.0,0.0,0.0
10.11,290,10,111000000,base_footprint,0.0035752172502467555,0.0014623940482884098,-0.9268417210763475,0.3754324217452393,0.0,0.0,0.0,0.0,0.0,0.0,0.0,0.0,0.0,-0.0003694177091163058,-5.8661493566232806e-05,0.0007476715190090237,0.0,0.0,0.0,0.0,0.0,0.0,0.0,0.0,0.0,0.006358073714121004,0.20954291884755366,-0.004305139882926782,0.0,0.0,0.0,0.0,0.0,0.0,0.0,0.0,0.0
10.145,291,10,145000000,base_footprint,0.003577617067375312,0.0014560955209914953,-0.9268726040999083,0.37535617246957265,0.0,0.0,0.0,0.0,0.0,0.0,0.0,0.0,0.0,-0.00022461083580151457,0.00020595935495289642,-0.0016619655503895309,0.0,0.0,0.0,0.0,0.0,0.0,0.0,0.0,0.0,-0.003892832899448366,0.012536555398673314,-0.00013794233936529837,0.0,0.0,0.0,0.0,0.0,0.0,0.0,0.0,0.0
10.179,292,10,179000000,base_footprint,0.0035854874378666904,0.0014673634021976601,-0.9268480997620676,0.375416556763182,0.0,0.0,0.0,0.0,0.0,0.0,0.0,0.0,0.0,0.0022867439174566193,0.0007179656106691724,-0.023921016682016703,0.0,0.0,0.0,0.0,0.0,0.0,0.0,0.0,0.0,-0.006280432554421567,-0.12301232182177657,0.0034937268897522675,0.0,0.0,0.0,0.0,0.0,0.0,0.0,0.0,0.0
10.213,293,10,213000000,base_footprint,0.0035857419632372434,0.0014598181013907314,-0.9271012645741313,0.37479095054540773,0.0,0.0,0.0,0.0,0.0,0.0,0.0,0.0,0.0,0.0022060994800340056,-0.00037789019538064545,-0.011707223550644845,0.0,0.0,0.0,0.0,0.0,0.0,0.0,0.0,0.0,0.00739258183321978,-0.18425650662812765,-0.002641119272347973,0.0,0.0,0.0,0.0,0.0,0.0,0.0,0.0,0.0
10.247,294,10,247000000,base_footprint,0.0035898366476068877,0.0014545634603154772,-0.9271888989726949,0.37457408204490755,0.0,0.0,0.0,0.0,0.0,0.0,0.0,0.0,0.0,0.0002590672668529513,0.00020077418170593976,-0.014660961682832615,0.0,0.0,0.0,0.0,0.0,0.0,0.0,0.0,0.0,0.003672895718060661,-0.00661058911731832,-0.002060484397890686,0.0,0.0,0.0,0.0,0.0,0.0,0.0,0.0,0.0
10.281,295,10,281000000,base_footprint,0.003578762602621192,0.0014451221410597675,-0.927317132294407,0.37425665021948346,0.0,0.0,0.0,0.0,0.0,0.0,0.0,0.0,0.0,0.0021001907188579363,0.00016363942827687494,-0.04630652193042957,0.0,0.0,0.0,0.0,0.0,0.0,0.0,0.0,0.0,0.008541325846128787,0.10257986571118434,0.0036038893881687106,0.0,0.0,0.0,0.0,0.0,0.0,0.0,0.0,0.0
10.315,296,10,315000000,base_footprint,0.0035795413717527496,0.001448108877361478,-0.927845219861132,0.37294548910677944,0.0,0.0,0.0,0.0,0.0,0.0,0.0,0.0,0.0,0.001459500871943797,-0.00038297347552654663,-0.07374464787091721,0.0,0.0,0.0,0.0,0.0,0.0,0.0,0.0,0.0,0.0173189905200477,0.11184553837617292,-0.0012928895530811685,0.0,0.0,0.0,0.0,0.0,0.0,0.0,0.0,0.0
10.349,297,10,349000000,base_footprint,0.003577311467921427,0.0014458853652179163,-0.9283856829394254,0.37159808391765015,0.0,0.0,0.0,0.0,0.0,0.0,0.0,0.0,0.0,0.001959020657156074,-0.001464670832185318,-0.08934242654551963,0.0,0.0,0.0,0.0,0.0,0.0,0.0,0.0,0.0,0.019251608290841823,-0.02087038833066869,0.0022476388766490872,0.0,0.0,0.0,0.0,0.0,0.0,0.0,0.0,0.0
10.383,298,10,383000000,base_footprint,0.003577246877250836,0.0014422813701926345,-0.9288963826999299,0.3703196367143039,0.0,0.0,0.0,0.0,0.0,0.0,0.0,0.0,0.0,0.0005623627929289888,-0.0007804710785671112,-0.07279253706573102,0.0,0.0,0.0,0.0,0.0,0.0,0.0,0.0,0.0,0.02374178909098905,0.08995999003181543,-0.001415472620558431,0.0,0.0,0.0,0.0,0.0,0.0,0.0,0.0,0.0
10.417,299,10,417000000,base_footprint,0.0035890100367994807,0.0014360288507212233,-0.9292210523340841,0.36950411733461497,0.0,0.0,0.0,0.0,0.0,0.0,0.0,0.0,0.0,0.0003458481302688976,0.0002827549461626884,-0.04635995166926166,0.0,0.0,0.0,0.0,0.0,0.0,0.0,0.0,0.0,0.014168054152789655,0.05883661233582951,-0.0009111948548619254,0.0,0.0,0.0,0.0,0.0,0.0,0.0,0.0,0.0
10.451,300,10,451000000,base_footprint,0.0035906967880125016,0.0014348887483563826,-0.9295069342434469,0.36878436407229204,0.0,0.0,0.0,0.0,0.0,0.0,0.0,0.0,0.0,0.00034567226593793356,0.0002296993254728278,-0.04557077014898707,0.0,0.0,0.0,0.0,0.0,0.0,0.0,0.0,0.0,0.011153953249074587,0.007390669795084072,9.455685369160957e-05,0.0,0.0,0.0,0.0,0.0,0.0,0.0,0.0,0.0
10.485,301,10,485000000,base_footprint,0.003586276680118831,0.0014294712138522118,-0.9298015289352233,0.3680410466528752,0.0,0.0,0.0,0.0,0.0,0.0,0.0,0.0,0.0,0.0024775396074138696,0.00010674109054588322,-0.03900628617238131,0.0,0.0,0.0,0.0,0.0,0.0,0.0,0.0,0.0,-0.008342079960786244,-0.26917738134418645,0.001316336832190243,0.0,0.0,0.0,0.0,0.0,0.0,0.0,0.0,0.0
10.519,302,10,519000000,base_footprint,0.0035920774877305954,0.0014378466840116399,-0.9298682655241128,0.36787231255887337,0.0,0.0,0.0,0.0,0.0,0.0,0.0,0.0,0.0,-5.0624731701583555e-06,-0.00016850323831633284,-0.00843045409807358,0.0,0.0,0.0,0.0,0.0,0.0,0.0,0.0,0.0,0.00011637460171425723,-0.07317007657726296,-0.0034382339400189253,0.0,0.0,0.0,0.0,0.0,0.0,0.0,0.0,0.0
10.553,303,10,553000000,base_footprint,0.0035928187422388683,0.0014395454932337004,-0.9299149832758942,0.36775418861143094,0.0,0.0,0.0,0.0,0.0,0.0,0.0,0.0,0.0,0.00012593287002409757,-0.0001238050063174249,-0.00643617876761435,0.0,0.0,0.0,0.0,0.0,0.0,0.0,0.0,0.0,0.0018269710216873337,-0.000616781531078914,0.00022260692159471436,0.0,0.0,0.0,0.0,0.0,0.0,0.0,0.0,0.0
10.587,304,10,587000000,base_footprint,0.003586691108794268,0.0014337186503731298,-0.9298361798305385,0.36795347365648334,0.0,0.0,0.0,0.0,0.0,0.0,0.0,0.0,0.0,-0.0006022295415178575,-0.00033813866818527966,0.06872984531198956,0.0,0.0,0.0,0.0,0.0,0.0,0.0,0.0,0.0,0.011105110803591611,0.1782245883123048,0.001519884094395261,0.0,0.0,0.0,0.0,0.0,0.0,0.0,0.0,0.0
10.621,305,10,621000000,base_footprint,0.0035864112717173464,0.0014317118352871192,-0.9294247656473255,0.36899145363656494,0.0,0.0,0.0,0.0,0.0,0.0,0.0,0.0,0.0,-0.0003996301362619317,-6.755906766708268e-06,0.06765805683602179,0.0,0.0,0.0,0.0,0.0,0.0,0.0,0.0,0.0,-0.019627290637856877,0.025691445611039063,-0.0003860544929831839,0.0,0.0,0.0,0.0,0.0,0.0,0.0,0.0,0.0
10.655,306,10,655000000,base_footprint,0.0035872805679401792,0.0014324153147592784,-0.928964234387932,0.3701493358531613,0.0,0.0,0.0,0.0,0.0,0.0,0.0,0.0,0.0,-0.00016320120881070112,0.0002669090619709754,0.06930370242876871,0.0,0.0,0.0,0.0,0.0,0.0,0.0,0.0,0.0,-0.01273370571129669,-0.0015374303098626566,0.0015489355266439823,0.0,0.0,0.0,0.0,0.0,0.0,0.0,0.0,0.0
10.689,307,10,689000000,base_footprint,0.0035872316121941736,0.0014314668128943282,-0.9287392718627823,0.3707134305254036,0.0,0.0,0.0,0.0,0.0,0.0,0.0,0.0,0.0,-0.0004902853527174379,-0.00043104523910099954,-0.005326156559822512,0.0,0.0,0.0,0.0,0.0,0.0,0.0,0.0,0.0,-0.00325260907669761,0.08176492863275948,-0.002800287839894362,0.0,0.0,0.0,0.0,0.0,0.0,0.0,0.0,0.0
10.723,308,10,723000000,base_footprint,0.0035967432295047593,0.0014371952462442835,-0.9288691723122607,0.37038771393757236,0.0,0.0,0.0,0.0,0.0,0.0,0.0,0.0,0.0,0.00030375746249363485,0.00011416804149199754,-0.022772630957849375,0.0,0.0,0.0,0.0,0.0,0.0,0.0,0.0,0.0,0.008504386017511295,0.04809856764460588,0.001992161454096977,0.0,0.0,0.0,0.0,0.0,0.0,0.0,0.0,0.0
10.757,309,10,757000000,base_footprint,0.0035966768596907544,0.001434556581476667,-0.9290210928438363,0.37000650671876806,0.0,0.0,0.0,0.0,0.0,0.0,0.0,0.0,0.0,0.00027116275277617405,0.0001551998393187621,-0.025639776667422735,0.0,0.0,0.0,0.0,0.0,0.0,0.0,0.0,0.0,0.004885182014486568,-0.0002668499854554759,-0.00018183227476054062,0.0,0.0,0.0,0.0,0.0,0.0,0.0,0.0,0.0
10.791,310,10,791000000,base_footprint,0.00359308644108733,0.0014322998630014326,-0.9292458545074321,0.3694417141142586,0.0,0.0,0.0,0.0,0.0,0.0,0.0,0.0,0.0,0.0005998364861486286,0.00020592501347499817,-0.04875094490248007,0.0,0.0,0.0,0.0,0.0,0.0,0.0,0.0,0.0,0.003410753071482611,0.0036343270713251477,0.0005471575511978581,0.0,0.0,0.0,0.0,0.0,0.0,0.0,0.0,0.0
10.825,311,10,825000000,base_footprint,0.0035925893004628874,0.0014283341394192477,-0.9296262028439429,0.3684836172065955,0.0,0.0,0.0,0.0,0.0,0.0,0.0,0.0,0.0,0.0004692525700795162,0.0005741915128056517,-0.06919740428333414,0.0,0.0,0.0,0.0,0.0,0.0,0.0,0.0,0.0,0.015278381397649612,-0.03786823769501233,-0.0005269072117825122,0.0,0.0,0.0,0.0,0.0,0.0,0.0,0.0,0.0
10.859,312,10,859000000,base_footprint,0.003595960780305247,0.0014240621122343555,-0.9300242228067807,0.3674778715865907,0.0,0.0,0.0,0.0,0.0,0.0,0.0,0.0,0.0,-0.00022381847919018805,0.0008402076464991752,-0.0524934249138425,0.0,0.0,0.0,0.0,0.0,0.0,0.0,0.0,0.0,0.0168108473675926,0.03983405430098682,-0.0005628919735294469,0.0,0.0,0.0,0.0,0.0,0.0,0.0,0.0,0.0
10.893,313,10,893000000,base_footprint,0.003595465432394713,0.0014244363213968573,-0.930153523957079,0.36715046708361754,0.0,0.0,0.0,0.0,0.0,0.0,0.0,0.0,0.0,0.0001243413969786538,-0.00010219669192328453,0.011603568818936157,0.0,0.0,0.0,0.0,0.0,0.0,0.0,0.0,0.0,0.005540543324093871,-0.011833832414960905,0.0011294888509607312,0.0,0.0,0.0,0.0,0.0,0.0,0.0,0.0,0.0
10.927,314,10,927000000,base_footprint,0.003593268351649291,0.0014282075626799843,-0.930090385499939,0.36731039114934644,0.0,0.0,0.0,0.0,0.0,0.0,0.0,0.0,0.0,2.075047046605562e-06,-7.55638277723912e-05,0.009766815698375935,0.0,0.0,0.0,0.0,0.0,0.0,0.0,0.0,0.0,-0.004271376838836487,0.0013950051663709534,-0.00041459833989221406,0.0,0.0,0.0,0.0,0.0,0.0,0.0,0.0,0.0
10.961,315,10,961000000,base_footprint,0.0035927491721201407,0.0014325097845740021,-0.9300292899350396,0.36746504586426926,0.0,0.0,0.0,0.0,0.0,0.0,0.0,0.0,0.0,2.650012093950695e-05,-0.0002529497226622216,0.009632302460025343,0.0,0.0,0.0,0.0,0.0,0.0,0.0,0.0,0.0,-0.0013194890610080242,0.005014553383639108,0.00011642331209536173,0.0,0.0,0.0,0.0,0.0,0.0,0.0,0.0,0.0
10.995000000000001,316,10,995000000,base_footprint,0.00359111320917362,0.0014357940560738478,-0.9301355631500292,0.36719596479935024,0.0,0.0,0.0,0.0,0.0,0.0,0.0,0.0,0.0,0.0005269004427086491,0.000532201585523546,-0.056624421550948094,0.0,0.0,0.0,0.0,0.0,0.0,0.0,0.0,0.0,-0.02164739579354681,-0.342721594618219,-0.0020790452477866487,0.0,0.0,0.0,0.0,0.0,0.0,0.0,0.0,0.0
11.029,317,11,29000000,base_footprint,0.003593362845150923,0.0014355402302097678,-0.9302102014186304,0.3670068230216187,0.0,0.0,0.0,0.0,0.0,0.0,0.0,0.0,0.0,-0.0002461309641432431,-4.8380802360978664e-05,0.01388524688824239,0.0,0.0,0.0,0.0,0.0,0.0,0.0,0.0,0.0,0.005701453766659552,0.004703678535250534,4.127838255249651e-05,0.0,0.0,0.0,0.0,0.0,0.0,0.0,0.0,0.0
11.063,318,11,63000000,base_footprint,0.003593151566609632,0.0014373239683787022,-0.9301137423129239,0.3672512079248713,0.0,0.0,0.0,0.0,0.0,0.0,0.0,0.0,0.0,0.0002006538320551426,-0.00015247299169043185,0.01711784804723214,0.0,0.0,0.0,0.0,0.0,0.0,0.0,0.0,0.0,-0.0017754964370060343,-0.0029748839125153283,0.00044044905433801145,0.0,0.0,0.0,0.0,0.0,0.0,0.0,0.0,0.0
11.097,319,11,97000000,base_footprint,0.0035874390703991596,0.0014285707364798616,-0.9297318773350853,0.36821695470679383,0.0,0.0,0.0,0.0,0.0,0.0,0.0,0.0,0.0,-0.0006966987649490279,-0.0002465751736524612,0.09593369670849104,0.0,0.0,0.0,0.0,0.0,0.0,0.0,0.0,0.0,-0.01063678708862046,0.09846171950341762,-0.00011573223557192617,0.0,0.0,0.0,0.0,0.0,0.0,0.0,0.0,0.0
11.131,320,11,131000000,base_footprint,0.00358148547486205,0.0014223771801614308,-0.9291197047563075,0.3697590080559267,0.0,0.0,0.0,0.0,0.0,0.0,0.0,0.0,0.0,0.001173308400206729,0.0002838380800167107,0.09017816865460943,0.0,0.0,0.0,0.0,0.0,0.0,0.0,0.0,0.0,-0.019194696803640148,0.0168932270837913,0.0035477470425364223,0.0,0.0,0.0,0.0,0.0,0.0,0.0,0.0,0.0
11.165,321,11,165000000,base_footprint,0.003582059700170324,0.0014248885093197268,-0.9286923095540078,0.3708311377383019,0.0,0.0,0.0,0.0,0.0,0.0,0.0,0.0,0.0,-0.0008284114502678896,-0.0011215875933970373,0.039773639029273423,0.0,0.0,0.0,0.0,0.0,0.0,0.0,0.0,0.0,-0.005678793442486958,0.1319208194488905,-0.0044556504029404365,0.0,0.0,0.0,0.0,0.0,0.0,0.0,0.0,0.0
11.199,322,11,199000000,base_footprint,0.0035863200339618,0.0014434212636327685,-0.9285151893306668,0.3712742894759963,0.0,0.0,0.0,0.0,0.0,0.0,0.0,0.0,0.0,0.0012130668999485257,0.0009180864309529555,0.034997426824070144,0.0,0.0,0.0,0.0,0.0,0.0,0.0,0.0,0.0,-0.028192920877113614,-0.4301300930031975,0.002339706346370887,0.0,0.0,0.0,0.0,0.0,0.0,0.0,0.0,0.0
11.233,323,11,233000000,base_footprint,0.0035854677593525537,0.0014420379336678424,-0.9284703857049447,0.37138633229624357,0.0,0.0,0.0,0.0,0.0,0.0,0.0,0.0,0.0,0.00041796776097794574,0.00014799831633575348,0.009701788505418193,0.0,0.0,0.0,0.0,0.0,0.0,0.0,0.0,0.0,0.005108083243688263,0.18703263844462503,-0.0019454186433440258,0.0,0.0,0.0,0.0,0.0,0.0,0.0,0.0,0.0
11.267,324,11,267000000,base_footprint,0.003590005003672628,0.0014401219891587867,-0.9284419446955297,0.37145739088449015,0.0,0.0,0.0,0.0,0.0,0.0,0.0,0.0,0.0,0.0005248726116377758,-0.0002285916328479372,0.0025695869023330143,0.0,0.0,0.0,0.0,0.0,0.0,0.0,0.0,0.0,-0.0029186340272147333,-0.00932928847522339,0.0006673794827721153,0.0,0.0,0.0,0.0,0.0,0.0,0.0,0.0,0.0
11.301,325,11,301000000,base_footprint,0.003585207636050708,0.0014385975890299921,-0.9289596956681503,0.3701607225886087,0.0,0.0,0.0,0.0,0.0,0.0,0.0,0.0,0.0,0.0005131799221389891,0.001830830416896251,-0.16491628775317366,0.0,0.0,0.0,0.0,0.0,0.0,0.0,0.0,0.0,0.026837432236764047,0.23470904409162435,-0.00029905407064649255,0.0,0.0,0.0,0.0,0.0,0.0,0.0,0.0,0.0
11.335,326,11,335000000,base_footprint,0.003576563279332427,0.0014331644784344529,-0.9299711550903358,0.3676123024799817,0.0,0.0,0.0,0.0,0.0,0.0,0.0,0.0,0.0,0.0012677642373294029,-3.785050567089098e-05,-0.15134467685279268,0.0,0.0,0.0,0.0,0.0,0.0,0.0,0.0,0.0,0.04077927008505971,0.026311638826923004,0.0024535544553401217,0.0,0.0,0.0,0.0,0.0,0.0,0.0,0.0,0.0
11.369,327,11,369000000,base_footprint,0.0035963124956881394,0.001420829430513493,-0.9307685281677057,0.3655885593842969,0.0,0.0,0.0,0.0,0.0,0.0,0.0,0.0,0.0,-0.0006624648017229402,0.0019476522762730325,-0.10510026824840017,0.0,0.0,0.0,0.0,0.0,0.0,0.0,0.0,0.0,0.03915778926387877,0.10121529302517401,-0.00238187547726311,0.0,0.0,0.0,0.0,0.0,0.0,0.0,0.0,0.0
11.403,328,11,403000000,base_footprint,0.0035965256338524624,0.001419723354949648,-0.931043844912186,0.3648868430624679,0.0,0.0,0.0,0.0,0.0,0.0,0.0,0.0,0.0,9.405480208136587e-06,0.0002765108653657026,-0.031540405047319656,0.0,0.0,0.0,0.0,0.0,0.0,0.0,0.0,0.0,0.007047114102094763,-0.015523193589193867,0.0015874004678381182,0.0,0.0,0.0,0.0,0.0,0.0,0.0,0.0,0.0
