Theta_calculated,yaw_world,linear_velocity_x,world_velocity_x,world_velocity_y,angular_velocity_yaw,linear_acceleration_x,angular_acceleration_yaw,delta_position_x_world,delta_position_y_world,delta_yaw,kinematic_delta_x,kinematic_delta_y,kinematic_delta_yaw,twist.twist.linear.x,Time
0.7853700233083027,0.7849818097670443,-3.526055150761843e-05,-2.493367668568407e-05,-2.4932273453401457e-05,-0.0004508922924739,-0.000796443034995,-0.0077185290449041,-7.186827461268079e-07,-7.071671240420005e-07,-7.4960316297500995e-06,-8.302872421846282e-07,-8.302488976496324e-07,-1.501471333938243e-05,-2.9922541640459e-05,0.324
0.785355008594963,0.784973884567184,-7.068077281465482e-06,-4.998101053777112e-06,-4.997669688264782e-06,-0.0001241167188049,0.0008466208476322,0.0098130802903612,-9.434161228230424e-07,-9.185201274228284e-07,-7.925199860370215e-06,-1.66435019437081e-07,-1.6642414640694005e-07,-4.133086736203756e-06,-3.876958990818502e-05,0.358
0.785350875508227,0.7849599894239148,0.0001842661107566,0.0001303019777273,0.000130289654899,0.0004543619085615,0.0057457714125547,0.0173717305515457,-4.832993802848795e-06,9.9281396399465e-06,-1.3895143269215817e-05,4.338968559866836e-06,4.338732812985102e-06,1.5130251555099765e-05,0.0002241802774212,0.392
0.7853660057597822,0.7849512801705006,3.809306157269819e-05,2.693672833397944e-05,2.693499594658898e-05,-0.0004300585711279,-0.0043895810565738,-0.0265591735642504,6.84589550330357e-07,6.640497803240068e-08,-8.709253414118658e-06,8.969882142531807e-07,8.969402045584318e-07,-1.4320950418561875e-05,1.0660937977718978e-06,0.426
0.7853516848093633,0.7849574432494015,-7.710824291945934e-06,-5.452629558228511e-06,-5.452122720738803e-06,1.764611189470713e-05,-0.0013754920680073,0.0134445850757564,-3.257149832520956e-07,2.4621489183411505e-07,6.163078900889296e-06,-1.8157023138297922e-07,-1.815580197271695e-07,5.876155260937475e-07,-2.087085239481797e-06,0.46
0.7853522724248898,0.7849671336610007,-7.314346091720736e-06,-5.1722610651535486e-06,-5.171786366756373e-06,0.00015222259634,1.190625225901496e-05,0.0040413358692307,-5.140171960749292e-07,3.87603191870714e-07,9.690411599150297e-06,-1.722336945923531e-07,-1.722230850931839e-07,5.069012458125002e-06,-2.087085239481797e-06,0.494
0.785357341437348,0.7849776827098492,-5.481099843603612e-06,-3.875881079147548e-06,-3.8755646499391e-06,0.0001921982757923,5.505243988339711e-05,0.0012004708544219,-5.599290784645723e-07,4.219838301159143e-07,1.054904884856267e-05,-1.290648065247559e-07,-1.290583363904038e-07,6.4002025838850045e-06,-2.635694152265893e-06,0.528
0.785363741639932,0.7849884448418178,-3.992184604536045e-06,-2.82299797315061e-06,-2.8228036347366008e-06,0.000212383356436,4.4712169341368376e-05,0.0006061585778903,-5.713229949441505e-07,4.305154457885305e-07,1.0762131968600208e-05,-9.400431985881133e-08,-9.400087376468745e-08,7.072365769321875e-06,-2.8026606301144164e-06,0.562
0.785370814005701,0.7849992601259252,-2.7581488252702534e-06,-1.950359076816548e-06,-1.950252397465257e-06,0.0002306006151414,3.7058131509483225e-05,0.0005470648259864,-5.74171811917705e-07,4.326352231178933e-07,1.0815284107401624e-05,-6.494589248460782e-08,-6.494446965148893e-08,7.679000484209998e-06,-2.8026606301144164e-06,0.5960000000000001
0.7853784930061853,0.7850100889157204,-1.5152495272477483e-06,-1.071464291406581e-06,-1.071422139992038e-06,0.0002304277070252,3.732430324391907e-05,-5.1924359207202926e-06,-5.749024231337645e-07,4.33165302718332e-07,1.0828789795191971e-05,-3.56791760448084e-08,-3.567894213370332e-08,7.673242643941871e-06,-2.8145117114855868e-06,0.63
0.7853861662488293,0.7850209213792033,-4.616764795450377e-07,-3.264584859011214e-07,-3.264506528531487e-07,0.0002334901922294,3.163883026134266e-05,9.19665226476474e-05,-5.751077051048704e-07,4.333011434636686e-07,1.0832463482879362e-05,-1.0870888826119493e-08,-1.0870985495772221e-08,7.775223401240621e-06,-2.8145117114855868e-06,0.664
0.7853939414722304,0.785031755077973,5.941391567387401e-07,4.201216004091668e-07,4.201180529801851e-07,0.0002406098467059,3.170617526377711e-05,0.0002138034377333,-5.751826736895976e-07,4.333392036302321e-07,1.083369876964113e-05,1.3989817591125341e-08,1.3990162864572704e-08,8.012307895308764e-06,-2.815627749039595e-06,0.6980000000000001
0.7854019537801258,0.7850425894071283,1.64255846908106e-06,1.161459829580363e-06,1.1614686343681736e-06,0.0002305903765346,3.1484063433703296e-05,-0.0003008849901286,-5.752252902431129e-07,4.333529999667013e-07,1.0834329155384737e-05,3.867597820779189e-08,3.867753962705309e-08,7.678659538604991e-06,-2.816356949696172e-06,0.7320000000000001
0.7854096324396642,0.7850534242164628,2.7760133118964203e-06,1.962915324360059e-06,1.962960350393909e-06,0.0002246415371372,3.403768296742824e-05,-0.0001786438257497,-5.752598509389979e-07,4.333607643625982e-07,1.0834809334503426e-05,6.53640150734322e-08,6.536764485373434e-08,7.48056318666938e-06,-2.816356949696172e-06,0.766
0.7854171130028509,0.7850642594685425,4.188570762130613e-06,2.9617106645385458e-06,2.961822913162445e-06,0.0002218152772675,4.2419142649675446e-05,-8.487266875998017e-05,-5.752923838962289e-07,4.3336701917914054e-07,1.0835252079677282e-05,9.862336249633846e-08,9.863030555286621e-08,7.386448733008125e-06,-2.8175371412828824e-06,0.8
0.785424499451584,0.7850750951539178,5.536731786963971e-06,3.914957483567928e-06,3.915163698063304e-06,0.0002024355323325,4.048531606106179e-05,-0.0005819743223713,-5.753243869357702e-07,4.3337288711895684e-07,1.0835685375298889e-05,1.3036600778996756e-07,1.3037702741487096e-07,6.741103226673751e-06,-2.818690687177957e-06,0.8340000000000001
0.7854312405548107,0.7850859312700951,7.185165789256764e-06,5.080511396319908e-06,5.080847505187431e-06,0.0001863311330752,4.950252259137518e-05,-0.0004836155933112,-5.753562340518603e-07,4.3337864766594333e-07,1.0836116177248556e-05,1.6917838023276157e-07,1.6919487097097e-07,6.204826731406879e-06,-2.818690687177957e-06,0.8680000000000001
0.7854374453815423,0.7850967678163201,9.314641335058547e-06,6.586187318589732e-06,6.586704775927726e-06,0.0001720008927238,6.394821458864218e-05,-0.000430337548092,-5.753880204534961e-07,4.3338437119263065e-07,1.0836546225023726e-05,2.1931665558995649e-07,2.1934065084254082e-07,5.727629727703114e-06,-2.8198377527920523e-06,0.902
0.7854431730112696,0.7851076047922849,-0.0001525456885057,-0.0001078612356628,-0.000107870945685,0.0021899661840864,-0.0048606705657895,0.0605995582991775,-5.754197718995865e-07,4.3339007608275e-07,1.0836975964823026e-05,-3.591603062183144e-06,-3.592278550617872e-06,7.292587393007814e-05,-2.8198377527920523e-06,0.936
0.7855160988851999,0.7851184421978052,9.914435727662156e-06,7.009737891544415e-06,7.011391480283376e-06,0.000161877433832,0.0048786824094113,-0.0609035660737054,-5.754514967632115e-07,4.333957677464702e-07,1.0837405520325303e-05,2.334207109635641e-07,2.334828962304441e-07,5.3905185466068725e-06,-2.82040075544034e-06,0.97
0.7855214894037466,0.7851292800327375,8.49276420582432e-06,6.004550506714951e-06,6.006031723862273e-06,0.0001906839064792,-4.269283849362872e-05,0.0008650592386542,-5.754831989041171e-07,4.334014483018886e-07,1.0837834932275747e-05,1.999483856988977e-07,2.0000400174849538e-07,6.3497740857581306e-06,-2.821543292255306e-06,1.004
0.7855278391778322,0.7851401182969595,6.749430449369356e-06,4.771949113285471e-06,4.773186886252019e-06,0.0002057238626716,-5.23523650587076e-05,0.000451650336108,-5.755148808866822e-07,4.334071189698169e-07,1.0838264221990634e-05,1.5890336530771418e-07,1.5894966278240361e-07,6.850604626964992e-06,-2.821543292255306e-06,1.038
0.7855346897824593,0.7851509569903636,5.499584384027044e-06,3.888262452505775e-06,3.889324298315571e-06,0.0002230316427191,-3.7532914875144506e-05,0.0005197531545802,-5.7554654482464e-07,4.334127807082561e-07,1.083869340412491e-05,1.2947703254727037e-07,1.295166056465952e-07,7.426953702547504e-06,-2.822666171349464e-06,1.072
0.7855421167361616,0.7851617961128536,4.5944732228107895e-06,3.248315464985238e-06,3.249250811350688e-06,0.0002447196150641,-2.718051535183947e-05,0.0006512904608121,-5.755781925715665e-07,4.33418434326021e-07,1.083912249000285e-05,1.0816710556008325e-07,1.0820185089196856e-07,8.149163181637498e-06,-2.82324296510042e-06,1.106
0.7855502658993432,0.7851726356643454,3.6248699671126624e-06,2.5627802404263703e-06,2.5635599696038933e-06,0.0002492536996676,-2.9117214885829643e-05,0.0001361586967998,-5.756098258279141e-07,4.334240805881264e-07,1.0839551491725888e-05,8.533915587283619e-08,8.536797266389106e-08,8.300148198931891e-06,-2.82324296510042e-06,1.14
0.7855585660475422,0.7851834756447635,2.972739089684647e-06,2.101706768550785e-06,2.1023811153943813e-06,0.0002585320834076,-1.9583509832673128e-05,0.0002786301423433,-5.756414460486754e-07,4.334297201190659e-07,1.08399804181758e-05,6.998565500290999e-08,7.001047113507615e-08,8.609118377474983e-06,-2.824363039137862e-06,1.174
0.7855671751659199,0.7851943160540418,2.5233241950360504e-06,1.7839580630810803e-06,1.7845611848357382e-06,0.0002741517193658,-1.3495942782240142e-05,0.0004690581368835,-5.756730546571978e-07,4.334353535615648e-07,1.0840409278234375e-05,5.9404786096448114e-08,5.942690449759327e-08,9.12925225488376e-06,-2.82493975768186e-06,1.208
0.7855763044181749,0.785205156892122,2.034201888508992e-06,1.4381416891663591e-06,1.4386541645215784e-06,0.000272172528305,-1.468835755336512e-05,-5.943516699302701e-05,-5.757046528404725e-07,4.334409814373344e-07,1.0840838080228288e-05,4.7889299630077553e-08,4.7908001991701633e-08,9.063345192556862e-06,-2.8254985783738948e-06,1.242
0.7855853677633671,0.7852159981589527,1.7087553969279566e-06,1.2080463134933826e-06,1.2084987012758712e-06,0.0002770294111898,-9.773167915346405e-06,0.0001458523388845,-5.757362417334322e-07,4.334466042472778e-07,1.0841266830707852e-05,4.0227251328485046e-08,4.024369739253773e-08,9.225079392622516e-06,-2.826057135851585e-06,1.276
0.7855945928427599,0.7850953630805674,1.4875447210720728e-06,1.0516463244036173e-06,1.0520595541877623e-06,0.0002895756616252,-6.642963238915428e-06,0.0003767642773381,0.0001314551527505,0.0001331168182668,-0.0001206350783853,3.5019213810660435e-08,3.503419169589769e-08,9.642869532119996e-06,-2.826057135851585e-06,1.31
0.7855954362224074,0.7788429349600733,0.1337808528706898,0.0945786849310791,0.0946160079030859,4.319074368073137e-05,0.9207366359620454,-5.090407836252395e-05,0.0025394009858545,0.002513764246828,-0.0024438948097996,0.0031494283824139,0.0031507548714988,1.4382517645683549e-06,0.0991072599226069,1.446
0.7855995906742126,0.7683436193169225,0.2180174680279024,0.1541305745751408,0.1541926792893697,-4.376157706167074e-06,0.3535993290795491,-0.0013253241746455,0.0040426003243301,0.0039226694728821,-0.0039702055113608,0.0051324840400347,0.0051346802921621,-1.457260516153636e-07,0.1613572242568465,1.548
0.7855994449481609,0.7640049093986522,0.2180146053246872,0.154128573215656,0.1541906321842714,2.4681420558175243e-05,-8.596706352120624e-05,0.0008725999478781,0.0043266385618778,0.004160544983944,-0.0043387099182703,0.0051324149090346,0.0051346146021935,8.218913045872357e-07,0.1738398729840029,1.582
0.7856002668394657,0.7593812245738036,0.2246214035777813,0.1587992140699106,0.1588634147814758,1.2769346096524375e-05,0.1984023499427673,-0.0003577199538033,0.0044550225377364,0.0042360762988741,-0.0046236848248485,0.0052879462822153,0.0052902192313622,4.252192250142618e-07,0.1804551869696696,1.616
0.7856006920586909,0.7545889035618686,0.2180120657257194,0.1541265855188548,0.154189028268209,-0.0063169275420104,-0.1984786141760326,-0.1900809876308413,0.0044472545746551,0.0042151207356934,-0.004792321011935,0.0051328908286246,0.0051340192401084,-0.0002103536871489,0.1802203980895999,1.65
0.7853903383715419,0.7495393354683362,0.218010277463982,0.1541577518373856,0.1541553392794602,-0.0062266731062478,-5.3701553675205205e-05,0.0027103434162953,0.0045545550154187,0.0042693492527333,-0.0050495680935324,0.0051339208499895,0.0051329050158693,-0.000207348214438,0.1802203980895999,1.6840000000000002
0.7851829901571037,0.7467644749646875,0.2246245923047553,0.1588677454971904,0.158799392028803,-0.00650682834438,0.1986280732964936,-0.0084130702141796,0.0046920111035408,0.0043537372327902,-0.0027748605036487,0.005290802392343,0.0052875130000373,-0.0002166773838678,0.1882201886987447,1.718
0.7849663127732356,0.7472685121318466,0.1948350636163466,0.1378286775602784,0.1377096861385234,0.0418843766911095,-0.8945804410933551,1.453189340405092,0.0048535116199711,0.0044923543508205,0.0005040371671591,0.0045864378825469,0.0045889893857306,0.0013947497438139,0.1882201886987447,1.752
0.7863610625170496,0.7484063198012877,0.1945361206897183,0.1374252920815717,0.1376902006291637,0.0346780321140646,-0.0089772650639111,-0.2164067440554028,0.0048873278970577,0.0045343979432251,0.001137807669441,0.0045735562287185,0.004587782371109,0.0011547784693983,0.1959717825976043,1.786
0.787515840986448,0.7493720045726519,0.2005049802514055,0.1414778725087948,0.1420783540726796,0.0342283809584819,0.1792450318824981,-0.0135030377051839,0.005135014065491,0.0047738362866814,0.0009656847713641,0.0047084563684689,0.0047339522169981,0.0011398050859174,0.1961726023355993,1.82
0.7896963370070695,0.7502302946728185,0.2178444337613937,0.1533757679611112,0.154699938988875,0.0253637570052514,-0.0155173720659127,-0.1768235139907201,0.0054627324981603,0.0050882752887514,0.0008582901001666,0.0051051722417041,0.0051537283495807,0.0008446131082748,0.217889400238561,1.854
0.7905409501153446,0.7510894173688498,0.2247003432608872,0.1580679162624835,0.159702154368678,0.0258252797974968,0.2058831681529553,0.0138595433106705,0.0054661193406357,0.0050996569571162,0.0008591226960312,0.005261307434558,0.0053204104717292,0.0008599818172566,0.219776534924012,1.888
0.7914009319326012,0.7521776987730949,0.2182765577056971,0.1534155626148784,0.1552685441144111,0.031740227866434,-0.1929064731288319,0.1776260681362514,0.005464551116879,0.0051078110036063,0.0010882814042451,0.005105939882331,0.0051732055049508,0.0010569495879522,0.219776534924012,1.922
0.7924578815205532,0.7532626778431323,0.2184443764547413,0.1533691910065777,0.1555501104296896,0.0316486316267643,0.0050396020734011,-0.002750637827916,0.0054634883552116,0.0051177816407401,0.0010849790700373,0.0051043985404849,0.0051825730427894,0.0010538994331712,0.2200950003399459,1.956
0.7935117809537244,0.7543383579420689,0.2251944772467974,0.1579393304150628,0.1605232708690548,0.0321328450328592,0.2027057294911723,0.0145409431259727,0.0054606796262578,0.005125621469281,0.0010756800989366,0.0052564516819517,0.0053483037294989,0.0010700237395942,0.2204014533233891,1.99
0.7945818046933191,0.75529247252147,0.2068051999321888,0.1448842568531522,0.147570128532513,0.0219093448176525,-0.5522305499882436,-0.3070120184746768,0.0052338199173253,0.0049213180772966,0.000954114579401,0.0048227909905244,0.0049159053837947,0.0007295811824278,0.2204014533233891,2.024
0.7953113858757468,0.7560617966893104,0.2069794762935013,0.144898558249328,0.1478002416236122,0.0224120217655685,0.0052335243637364,0.0150954038413201,0.0051692706068291,0.0048673863647935,0.0007693241678403,0.0048232231221654,0.0049236086921336,0.0007463203247934,0.2086340045572307,2.058
0.7960577062005401,0.7568057383130161,0.2130288164509194,0.1490199023670245,0.1522312232658004,0.0232898942260569,0.1816618665891319,0.0263625363510049,0.0051597108004931,0.0048616997544605,0.0007439416237057,0.0049603328213542,0.0050712857965896,0.0007755534777276,0.2086340045572307,2.092
0.7968332596782677,0.757315402356298,0.2176747400811932,0.1521491780784349,0.1556692650444258,0.0302382816786221,0.1395172261343492,0.208660283860815,0.005129228979309,0.00484166444931,0.0005096640432818,0.0050638917876521,0.0051864000829033,0.0010069347798981,0.2082958089761188,2.126
0.7978401944581659,0.758198900776569,0.2179239912712689,0.1521663929227826,0.1560008167814176,0.031080930900889,0.0074850207229943,0.0253047814494575,0.0051497003831489,0.0048811035828002,0.000883498420271,0.0050643864113703,0.0051975120916206,0.0010349949989996,0.2100056473785611,2.16
0.7988751894571653,0.759345326859594,0.2243462843736698,0.1564844853292964,0.1607602599011856,0.0318273936574392,0.1928616547267542,0.0224162989955019,0.005304998468288,0.0050289999727562,0.0011464260830249,0.0052080282737639,0.0053561424531565,0.0010598522087927,0.2100056473785611,2.194
0.7999350416659583,0.7601930632990636,0.2062472742179509,0.1437034701924429,0.1479434039657879,0.0215007827851726,-0.543513818490059,-0.3101084346026014,0.0051411114950207,0.0048862811886564,0.0008477364394695,0.004783499636947,0.0049282880813498,0.0007159760667462,0.2183016035479273,2.228
0.8006510177327044,0.7609510766977313,0.2060182760610028,0.1434380718584701,0.1478818772286581,0.0220458129870306,-0.006876821529973,0.0163672733290683,0.005116153633787,0.0048693875281134,0.0007580133986677,0.0047746179225998,0.004926279289687,0.0007341255724681,0.2077103787058665,2.262
0.8013851433051729,0.7617661460585811,0.2124140710692917,0.1477791032453331,0.1525813692173304,0.0225669214976776,0.1920659161648345,0.0156489042236332,0.0051164880806664,0.0048768767513334,0.0008150693608497,0.0049190707400439,0.0050828699092262,0.0007514784858726,0.2077103787058665,2.2960000000000003
0.8021366217910453,0.7628317790763979,0.2063432730318862,0.1434441486617924,0.1483284279570344,0.0308902830788532,-0.1823062473695348,0.249950798233504,0.005114494785738,0.0048841168359354,0.0010656330178168,0.0047740868443202,0.0049418524851158,0.0010286464265258,0.2079530294709982,2.33
0.8031652682175712,0.7638814438695752,0.2065089506523784,0.1434065472317684,0.148595117384822,0.0307942161753095,0.0049753039186843,-0.0028848919983106,0.0051138668779915,0.0048939243351059,0.0010496647931773,0.0047728379579122,0.0049507249488584,0.0010254473986378,0.208227813398341,2.364
0.8041907156162091,0.7648807274546159,0.212953414804159,0.1477245838502018,0.1533838459650719,0.0312386936920417,0.1935274520054217,0.0133476731751411,0.0051425466620496,0.0049309835546101,0.0009992835850406,0.0049165069624876,0.005110301490339,0.0010402484999449,0.208227813398341,2.398
0.8052309641161539,0.7641747599178145,0.2181285639226665,0.1511510389470138,0.1572686676493546,-0.0262608734053102,0.1554098834386653,-1.7267137266472057,0.0053979111646396,0.0051801199000121,-0.0007059675368014,0.0050355530921,0.0052349084002528,-0.0008744870843968,0.2207523181047481,2.432
0.8043564770317571,0.7632358881922355,0.2185006960509238,0.1515466120803573,0.1574045061035544,-0.0271459952944196,0.0111751389867037,-0.0265802369101932,0.0054222201728774,0.0051925981586374,-0.0009388717255789,0.0050488048001867,0.0052393518094685,-0.0009039616433041,0.2207523181047481,2.466
0.8034525153884529,0.7623396340180938,0.2252407969031926,0.156367990217827,0.1621186856128029,-0.0282942036844919,0.202405430999065,-0.0344807324346043,0.0053995371192399,0.0051606193311476,-0.0008962541741417,0.0052095288007985,0.0053961638071725,-0.0009421969826935,0.2208498448010526,2.5
0.8025103184057594,0.7633440358622915,0.2070021787815378,0.1438465848748434,0.1488558431508425,0.0468447526307938,-0.5477062498995454,2.256425114573148,0.005164139124285,0.0049314486235984,0.0010044018441976,0.0047861608405711,0.0049606937643976,0.0015599302626054,0.2209301486832711,2.534
0.8040702486683649,0.7648310700382553,0.2068792321104224,0.1435289071374363,0.148991508128924,0.044444277862166,-0.0036920922256867,-0.0720863293882226,0.0051235990216144,0.0049026384117324,0.0014870341759638,0.0047757770892859,0.0049650121989102,0.0014799944528101,0.2209301486832711,2.568
0.805550243121175,0.7660786389232992,0.2129266062481877,0.1474973471608769,0.1535652051373439,0.0460452272948791,0.1816028269599195,0.0480765595409349,0.0050934905090913,0.0048878681934631,0.0012475688850438,0.0049076750322452,0.00511754648702,0.0015333060689194,0.208583907205606,2.6020000000000003
0.8070835491900943,0.7677223296624287,0.2179220705848069,0.1507166137343598,0.1573992731635612,0.0127397101490225,0.150013944042618,-1.0001656800557557,0.0050704370287802,0.004896729250745,0.0016436907391295,0.0050176854784037,0.0052425232225735,0.0004242323479624,0.2071462518794328,2.636
0.8075077815380567,0.7698612150634478,0.2179786667891758,0.1506889513443853,0.1575040923846616,0.0125663462073847,0.0016995857167855,-0.0052061243735074,0.0051892474149793,0.005020567358926,0.0021388854010191,0.0050167786802974,0.0052459990156706,0.0004184593287059,0.2071462518794328,2.67
0.8079262408667627,0.770539152190069,0.2241167203383341,0.1548644176317203,0.1620040631799066,0.0115247189971055,0.1843259324071538,-0.0312800964047787,0.0052618637802809,0.0051082298954995,0.0006779371266211,0.005155882055333,0.0053957894642194,0.0003837731426036,0.2192144732892999,2.704
0.8083100140093662,0.7706079075124058,0.2062706264009225,0.1424755529515754,0.1491586005799592,0.0009451220163489,-0.5359187368592047,-0.3177056150377378,0.0050684728219128,0.0049210488572294,6.875532233685533e-05,0.0047442953850279,0.0049671156270022,3.147256314441904e-05,0.2192144732892999,2.738
0.8083414865725107,0.7706599946087741,0.206077565197272,0.1423375113505008,0.1490234737891382,0.0016046299586667,-0.0057976337432584,0.0198050433128464,0.005074274367867,0.0049277060498822,5.208709636828069e-05,0.0047396442328381,0.0049626678198735,5.343417762360137e-05,0.2079640207254592,2.772
0.8083949207501342,0.7706645232993043,0.2124851300768206,0.1467549974894888,0.1536648991006844,0.0013610562521801,0.1924193657522095,-0.0073145257203181,0.0051640159192399,0.0050147252868896,4.5286905302477365e-06,0.0048867612042116,0.0051172132416788,4.5323173197597824e-05,0.2082121118795615,2.806
0.8084402439233318,0.7710498228188936,0.229326818627385,0.1583793627348657,0.1658516421427759,0.039607451658953,0.5057564129298624,1.1485404026057937,0.0054661480345021,0.0053100892476186,0.0003852995195892,0.005270319735075,0.005526402290177,0.0013189281402431,0.2082121118795615,2.84
0.8097591720635751,0.7713696330045086,0.2181747560784555,0.1504692039771093,0.1579849449928335,0.0090588555931045,-0.334896773241127,-0.917375257232686,0.0053656235401899,0.0052164142115306,0.0003198101856149,0.0050097648507921,0.0052617172426341,0.0003016598912503,0.2200942956151659,2.874
0.8100608319548255,0.7718317214632929,0.2248764769174963,0.1550420701417942,0.1628845798624664,0.0094396989142242,0.2012528780492717,0.01143673636996,0.0053678984987472,0.0052218937402214,0.0004620884587843,0.0051619802325043,0.0054249326914642,0.0003143419738436,0.2202926963896307,2.908
0.8103751739286693,0.7724015349284677,0.218439076418979,0.1505540330371275,0.1582691165168747,0.016779000548838,-0.1933153302858045,0.2203994484869003,0.0053684663518545,0.0052279532648616,0.0005698134651748,0.0050119104650016,0.0052718248437682,0.0005587407182763,0.2202926963896307,2.942
0.8109339146469452,0.7729549179599865,0.2185643623474014,0.1505518778085143,0.1584440361031502,0.0166695349776729,0.0037623401928664,-0.003287254389342,0.0053699836236091,0.0052333040018558,0.0005533830315187,0.005011846615368,0.0052776405110177,0.0005550955147565,0.2205338646442728,2.976
0.811489010161702,0.773777769858333,0.2252009863780278,0.1550326824371662,0.1633412123194065,0.0166053667733752,0.1992980189377279,-0.0019269731020318,0.0053563838678725,0.0052250685310087,0.0008228518983465,0.0051610159058107,0.0054407542431489,0.0005529587135533,0.2205338646442728,3.01
0.8120419688752554,0.7749682378608321,0.2178609021781622,0.1498922275616399,0.1581002619051984,0.0285683688713719,-0.2204229489449118,0.3592493122521523,0.0052912507787837,0.0051700130744005,0.0011904680024991,0.0049888400487651,0.0052671747976865,0.0009513266834166,0.2196700252819134,3.044
0.8129932955586723,0.7767694374988663,0.206839115409898,0.1421661793581856,0.1502371362554721,0.0058585501595332,-0.3309845876355617,-0.6819765378930539,0.005146176159638,0.0050375204814415,0.0018011996380341,0.0047335829142788,0.0050034178302325,0.0001950897203124,0.2125404139400942,3.078
0.8131883852789845,0.7780439605728731,0.212850587167064,0.1462678639125883,0.1546320938350524,0.0073779704407268,0.1805246773923728,0.0456282366724806,0.005060556807786,0.0049898942173901,0.0012745230740067,0.0048700226083019,0.0051499081551222,0.0002456864156762,0.2125404139400942,3.112
0.8134340716946609,0.7798612065251107,0.2289377443129561,0.1572818599641764,0.1663577689719169,0.0341382108622599,0.4830978121889526,0.8036108234694618,0.0051660288757799,0.0051018783348422,0.0018172459522376,0.0052342664358505,0.0055427552273748,0.0011368024217132,0.2117417070018424,3.146
0.8145708741163737,0.7804975285966459,0.2176368061374424,0.149338157740294,0.1583158047335823,0.0097045577364878,-0.339367512778189,-0.7337433371102722,0.0052861439041982,0.0052337011948669,0.0006363220715351,0.0049720425217638,0.0052727821695632,0.000323161772625,0.2117417070018424,3.18
0.8148940358889991,0.7810814582291054,0.2239502413181415,0.1536176607940444,0.1629580463758072,0.0143296911685064,0.1895926480690412,0.1388928958564123,0.0052968357036722,0.005249136980944,0.0005839296324594,0.0051141050547494,0.0054277874466406,0.0004771787159112,0.2193223928935636,3.214
0.8153712146049101,0.7816991239008594,0.2175179079354882,0.1491298869827233,0.1583487198595293,0.0180000930926562,-0.1931631646442443,0.1102222800044978,0.0052972328178234,0.0052558854804797,0.000617665671754,0.0049643783833352,0.0052745627130709,0.0005994030999854,0.2194197047095374,3.248
0.8159706177048958,0.7823008253788347,0.2176744542061458,0.1491422049980293,0.15855210721485,0.017927360381148,0.004701089208939,-0.0021841655107565,0.0052986488283217,0.0052636882574009,0.0006017014779753,0.0049647928546544,0.0052813296279362,0.0005969811006922,0.2194197047095374,3.282
0.8165675988055878,0.7831714942914852,0.2244586722324595,0.1536928615083082,0.1635854512533028,0.0180174940579805,0.2037302710604709,0.002706717021997,0.0052888349677562,0.0052611067284351,0.0008706689126505,0.0051162693940731,0.0054489947861125,0.0005999825521307,0.2198029214354947,3.316
0.8171675813577188,0.7838006694365137,0.2175849740139031,0.1488910867491034,0.1586652614887766,0.0272015892386745,-0.2064173639206144,0.275798654074897,0.0051027449530428,0.0050846384169345,0.0006291751450284,0.0049556131877743,0.005285860250312,0.0009058129216478,0.2194149539560081,3.35
0.8180733942793665,0.7841379091253876,0.2068187849242136,0.1413872301904211,0.1509425749634907,0.0097220582861499,-0.3233089816723553,-0.5249108394151536,0.0050244506672842,0.0050108140525367,0.0003372396888738,0.0047073179301216,0.0050272088891195,0.0003237445409287,0.2086470582630862,3.384
0.8183971388202953,0.7846341751835585,0.2131806500712283,0.1456860053203779,0.1556328288587672,0.0101510228888517,0.1910470014118528,0.0128818199009544,0.0051971254907515,0.0051862238308753,0.0004962660581708,0.0048504028726537,0.0051834539509457,0.0003380290621987,0.2088248048284235,3.418
0.8187351678824939,0.7858008086431826,0.218223273796844,0.1490782339728952,0.1593646051735926,0.0345415894020267,0.1514301419103814,0.7324494448400891,0.0053000124890735,0.0052961186723368,0.001166633459624,0.0049611853720482,0.0053097575323785,0.0011502349270874,0.2203987397203208,3.452
0.8198854028095814,0.7869441510330234,0.2185589247562212,0.1491238449845554,0.159781358260649,0.0343347487899071,0.0100796083897059,-0.0062114297933796,0.005296299895212,0.005302177005429,0.0011433423898408,0.004962714400022,0.0053236192120644,0.0011433471347039,0.2203987397203208,3.486
0.8210287499442854,0.7857304833722617,0.2250917311901425,0.1533929649741064,0.1647327707125329,0.034525232940017,0.1961803733910297,0.005720244748045,0.0053094199883502,0.0053212401799315,-0.0012136676607616,0.0051047623242562,0.0054886004513849,0.0011496902569025,0.2203513637753978,3.52
0.8198045914337655,0.7827785926618072,0.2180451572622406,0.1487861801726202,0.1593937363736601,-0.0744796754226139,-0.0037019410548422,-0.0958836531582686,0.0052991593733084,0.0052829409333539,-0.0029518907104545,0.0049610902957685,0.0053017241655793,-0.002480173191573,0.2192064322406727,3.5540000000000003
0.8173244182421926,0.7804462274208541,0.2242062332431666,0.1533963004089321,0.1635176138706221,-0.075655168793669,0.1850172967245026,-0.0353001012328868,0.0052870433373729,0.0052505385221984,-0.002332365240953,0.0051148821218621,0.0054387605492122,-0.0025193171208291,0.2192064322406727,3.588
0.8148051011213635,0.7798541385819212,0.2175183765645059,0.1492198279107361,0.1582646110207474,-0.0073709137984103,-0.2008365368967169,2.050578228085846,0.005295972877394,0.0052416102089981,-0.0005920888389329,0.0049696008456283,0.0052696640651694,-0.000245451429487,0.2195621338406151,3.622
0.8145596496918763,0.7796534689632195,0.217397748128655,0.1491758958110119,0.1581402320739167,-0.0058648081643973,-0.0036224755510787,0.0452283974178082,0.0053041289437656,0.0052469800057849,-0.0002006696187016,0.0049680054117218,0.0052656469949295,-0.0001952981118744,0.2194483987535816,3.656
0.8143643515800019,0.7794677437292652,0.2240766900438907,0.1537907412195042,0.1629686194829586,-0.0056834936380394,0.2005688262833547,0.0054448806714087,0.0053058058722716,0.0052454562994554,-0.0001857252339543,0.0051216770634993,0.0054264346804705,-0.0001892603381467,0.2194483987535816,3.69
0.8141750912418555,0.7797504883929235,0.1950799983754022,0.1339162674759957,0.1418542881672757,0.0512185934395557,-0.8707715215762313,1.7087713837115674,0.004932585304632,0.0048747402225722,0.0002827446636582,0.0044553218245186,0.0047276043850955,0.0017055791615372,0.1960262462899705,3.724
0.8158806704033923,0.7804340607477734,0.19481827444098,0.1334947887247107,0.1418918653042022,0.0209437384801714,-0.0078595776102753,-0.909154803585116,0.0047471491588277,0.0046977079777804,0.0006835723548499,0.0044436690885632,0.0047266046873075,0.0006974264913897,0.1960262462899705,3.758
0.8165780968947822,0.7811061609031507,0.2009115221595374,0.1375679603267384,0.1464257355385426,0.0203976326219711,0.1829804119686899,-0.0163995753213289,0.0047545909986141,0.004711503578785,0.0006721001553772,0.0045792955029276,0.0048775899218061,0.0006792411663116,0.1965304103952921,3.792
0.8172573380610939,0.7816446308376613,0.2179177704579869,0.1491045521676599,0.1589213239444646,0.0438966681843644,0.510698147100586,0.7056767436154135,0.0051152724291356,0.0050748717007741,0.0005384699345106,0.0049612454545196,0.0052957694443842,0.0014617590505393,0.1967082286356241,3.826
0.8187190971116332,0.7820393800114774,0.2182682703772327,0.1491115348024027,0.1593950690653278,0.0125878607815159,0.0105255231004743,-0.9402044265119652,0.0053139305809619,0.0052771405560501,0.0003947491738161,0.0049642348435164,0.0053089586653318,0.0004191757640244,0.1967082286356241,3.86
0.8191382728756578,0.7823710709104551,0.2250914359322871,0.1537039125912188,0.1644422749301708,0.0118236693630423,0.2048998665181513,-0.0229486912454537,0.0053159343343436,0.0052825994209019,0.0003316908989776,0.0051171933758711,0.0054769994819212,0.0003937281897893,0.2203035342637014,3.894
0.819532001065447,0.7823283061010851,0.2185942859621517,0.1492044389435189,0.1597544905624024,-0.0005831080995132,-0.1951096087127754,-0.3725758997764455,0.0053209271213015,0.0052882967702301,-4.27648093700439e-05,0.0049684926710227,0.0053198386811709,-1.941749971379192e-05,0.2206774745425175,3.928
0.8195125835657331,0.7822613180496321,0.2186043079448427,0.149214381728043,0.1597589175525469,-0.0015541584454416,0.0003009604411714,-0.0291606710489005,0.0053208814064623,0.0052867596132111,-6.698805145299858e-05,0.0049689097776465,0.0053199057637707,-5.175347623320726e-05,0.2206774745425175,3.962
0.8194608300894997,0.7822158287356583,0.2250521414341503,0.1536240395277618,0.1644631291301168,-0.0020487286785011,0.1936286333125391,-0.0148519589507358,0.0053105138868606,0.0052753134433696,-4.548931397374556e-05,0.005115798565684,0.0054765119264068,-6.822266499408868e-05,0.2205896787582529,3.996
0.8193926074245059,0.7830334934968685,0.20635038503841,0.1408682214998688,0.1507866889913163,0.0447155690678003,-0.5616143061783878,1.4043332656547003,0.0051963671555783,0.0051604687245476,0.0008176647612101,0.0046871086015169,0.0050247461885328,0.0014890284499577,0.2205896787582529,4.03
0.8208816358744637,0.7829659108821191,0.2065581749535408,0.1407851644355658,0.1511483281911787,-0.0001844222902719,0.0062399373913158,-1.3483480888310015,0.005064582157309,0.0050487044284578,-6.758261474937301e-05,0.0046880982343912,0.0050332837963222,-6.141262266057269e-06,0.2143802322407368,4.064
0.8208754946121974,0.7831484891615296,0.2123574165953901,0.1447387446157807,0.1553910170830859,-0.0013638921297739,0.174151400656137,-0.0354195146997579,0.0050077197975257,0.0049876101024723,0.0001825782794104,0.0048198527320429,0.0051744719326344,-4.541760792147188e-05,0.2073556331923827,4.098
0.8208300770042758,0.7837125785922714,0.2183244699066317,0.1488130294182294,0.1597506069953443,0.0364959210483059,0.179190790127375,1.1369313266690653,0.0051726273821542,0.0051533809509067,0.0005640894307418,0.0049521732785394,0.0053227673107121,0.0012153141709085,0.2073556331923827,4.132
0.8220453911751848,0.7834372307727159,0.2174172066381995,0.1480011762368177,0.1592667371891444,-0.0079477333647759,-0.0272451431961616,-1.334644276669126,0.0052868633650379,0.0052691697110889,-0.0002753478195555,0.004929074350089,0.0053029919961302,-0.000264659521047,0.21690551758249,4.166
0.8217807316541377,0.7833537924571874,0.2241313716951117,0.1526151193727263,0.1641447444080402,-0.0078677196177725,0.2016265782856505,0.0024028152253284,0.005290349902895,0.0052696561071629,-8.343831552848346e-05,0.0050827308298793,0.0054654180039744,-0.0002619950632718,0.2194900544152338,4.2
0.8215187365908658,0.7836255642944883,0.2177087833783445,0.148283630099388,0.1594022565857422,0.0076650937782199,-0.1928705200230399,0.466450852732507,0.0052914989667854,0.0052723409007552,0.0002717718373008,0.0049371007337594,0.0053087872628417,0.0002552476228147,0.2194900544152338,4.234
0.8217739842136806,0.7838814434169403,0.2178832611212021,0.148361744146709,0.1595678800716373,0.007675772103507,0.0052395718575868,0.0003206704290411,0.0052948097724832,0.0052784321991403,0.000255879122452,0.0049397002134846,0.0053143037677003,0.0002556032110467,0.2197248988514836,4.268
0.8220295874247272,0.7842170756622193,0.2246753950842663,0.1529446025205358,0.164581231360403,0.007468331064384,0.2039679868788044,-0.0062294606343229,0.0052307239826347,0.0052178425382459,0.0003356322452789,0.0050923048959335,0.0054812521958924,0.0002486954244439,0.2201110931381971,4.302
0.8222782828491715,0.7847757389798568,0.2070998173034214,0.1409425430346302,0.1517416682722381,0.0280027147060805,-0.5277951285539008,0.6166481574083023,0.0050222461298164,0.0050141182534697,0.0005586633176374,0.0046909665950009,0.0050552439891912,0.0009324903997124,0.2087782711070538,4.336
0.823210773248884,0.7847514746668672,0.2069332001141124,0.1406877060750595,0.1517508440464333,0.0003041511200394,-0.0050035191984699,-0.8317886962775111,0.0050256285905619,0.0050198768110779,-2.426431298951925e-05,0.0046848115728204,0.0050533856534242,1.0128232297312855e-05,0.2087782711070538,4.37
0.8232209014811813,0.7845139604727689,0.2133533102564826,0.1450509626693325,0.1564603886806461,-0.0008986573859374,0.1927961003714793,-0.0361203755548597,0.0050808926121054,0.005073760771117,-0.0002375141940983,0.0048302095967307,0.005210119317262,-2.992529095171559e-05,0.2089370479770787,4.404
0.8231909761902294,0.7830002081382249,0.2181606697094269,0.1483240947175396,0.1599813762107577,-0.0453167850424309,0.1443651487370661,-1.3338777074022072,0.0053158110388319,0.0052990828427679,-0.0015137523345439,0.0049431432741561,0.0053237131305496,-0.0015090489419129,0.2213585661819173,4.438
0.8216819272483162,0.7813579626885253,0.2185444803305877,0.1488267168586893,0.1600384273605254,-0.0470913604453033,0.0115258444793016,-0.0532905526388117,0.0053264946808551,0.0052904563793604,-0.0016422454496995,0.0049600393089258,0.005325453923848,-0.0015681423028286,0.2213585661819173,4.472
0.8201137849454878,0.7793744009826992,0.2249053200577374,0.1534164673463333,0.1644560443925511,-0.0485142229107009,0.1910162080225137,-0.0427286025644916,0.0053198743027941,0.0052654196616566,-0.0019835617058261,0.0051131210462378,0.0054723214287131,-0.0016155236229263,0.2201813572787473,4.506
0.8184982613225618,0.7768842087164326,0.2179873659465159,0.1489547841281048,0.1591570419354731,-0.0729962319778251,-0.2077463697063499,-0.735195467481209,0.0052864974779406,0.0052146393966309,-0.0024901922662665,0.0049665644209996,0.0052939580827193,-0.0024307745248615,0.2184394840750584,4.54
0.8160674867976998,0.7746993403239418,0.2176302291687726,0.1490965473171265,0.1585343376879733,-0.0734449760796346,-0.0107248281604609,-0.0134757988531362,0.0053170342066073,0.0052191265796353,-0.0021848683924907,0.0049712995727277,0.0052731792137892,-0.0024457177034518,0.2184394840750584,4.574
0.8136217690942482,0.7727086070790627,0.2240172899539376,0.1538709162663264,0.1628112014747994,-0.0737323686566022,0.1918036271821326,-0.0086304077167462,0.0053450097038424,0.0052217990186143,-0.001990733244879,0.0051304841765188,0.0054153816560171,-0.0024552878762648,0.2187320454438934,4.608
0.8111664812179833,0.7709899258070706,0.2174573819096639,0.1497526994448073,0.1576763836343244,-0.0514851701003624,-0.1969942355637747,0.6680840407279213,0.005356722028548,0.0052147764709913,-0.0017186812719921,0.004991197557014,0.0052464088777396,-0.001714456164342,0.2198449067627874,4.642
0.8094520250536412,0.7692573659827217,0.2175051181171332,0.1500557414531634,0.1574539642692094,-0.0504979520007376,0.0014335197438231,0.0296461891779216,0.0053697636648482,0.0052098983139987,-0.0017325598243489,0.0050011965032352,0.0052390760232446,-0.0016815818016245,0.2198449067627874,4.676
0.8077704432520165,0.76806391079288,0.2242506998808689,0.1549822504090177,0.1620767671667228,-0.0521483419940408,0.2025700229350064,-0.0495612610601534,0.0053793386505122,0.0052025073062824,-0.0011934551898417,0.0051655248223193,0.0053927374309828,-0.0017365397884015,0.2202110737446,4.71
0.8060339034636153,0.7671902795430886,0.2178477567429133,0.1508302918045895,0.1571873665154484,-0.0257369545857822,-0.1922805747133826,0.7931347570047622,0.0053864082385546,0.0051997571949614,-0.0008736312497913,0.0050248254280952,0.0052322494484478,-0.0008570405877065,0.2201662159688654,4.744
0.8051768628759084,0.7663001238917815,0.2180194204811329,0.1510839125259018,0.1571818026452002,-0.0255590399609977,0.0051550672138021,0.0053427815250576,0.0053958029800865,0.0051994654105007,-0.0008901556513071,0.0050332554233378,0.0052320755706654,-0.0008511160307012,0.2201662159688654,4.7780000000000005
0.8043257468452074,0.76521849387504,0.2248149275519104,0.1559309817349971,0.1619483886469103,-0.0268067360386022,0.2040692814047289,-0.0374683506788132,0.0054065124574517,0.0051997430552307,-0.0010816300167414,0.0051948403351978,0.0053906282711319,-0.0008926643100854,0.220356587618617,4.812
0.8034330825351219,0.7640388648369419,0.2183770626000072,0.1516060626353446,0.1571755173111113,-0.0337809209695691,-0.1933292778349295,-0.2094349829119179,0.0054176350871318,0.0051980469563557,-0.001179629038098,0.0050513589841221,0.0052311675166823,-0.0011249046682866,0.2207979654266245,4.846
0.8023081778668351,0.7628479148097412,0.2185367531738483,0.1518937669340248,0.1571196870362198,-0.0343914680684153,0.004795512727961,-0.0183347477130988,0.005427415187843,0.0051941983724396,-0.0011909500272007,0.0050609916620335,0.0052292516427457,-0.0011452358866782,0.2207979654266245,4.88
0.8011629419801567,0.7630012856484217,0.2252546763297197,0.1567484209775518,0.1617702127384736,-0.0356934406931344,0.2017394341102526,-0.0390982770185918,0.0054232303010645,0.0051808420880546,0.0001533708386804,0.0052228550308919,0.0053839103345801,-0.0011885915750813,0.2209825781800809,4.914
0.7999743504050754,0.76372752149708,0.2185070772553557,0.152239367220441,0.1567434779472425,0.0202036016223594,-0.2026306028337548,1.678589859324141,0.0054143806145118,0.0051756754016126,0.0007262358486582,0.0050677491817289,0.0052213264046023,0.0006727799340245,0.2204057765558731,4.948
0.8006471303391001,0.7642941733812982,0.2183032107891349,0.1519919384417642,0.1566995293214388,0.021480551291221,-0.0061221161027253,0.0383468369027499,0.0053935388155244,0.0051599853931767,0.0005666518842182,0.0050593993205973,0.0052199675976864,0.0007153023579976,0.2204057765558731,4.982
0.8013624326970978,0.7644684934607736,0.2246553227912385,0.1562991587366842,0.1613709609460152,0.022653496144698,0.1907541141772849,0.0352235691734827,0.0053317697918792,0.0051166665400149,0.0001743200794753,0.0052026671586451,0.0053756809495743,0.0007543614216184,0.2178305524925554,5.016
0.8021167941187164,0.7641027430425871,0.2176429970241759,0.1513025069591289,0.1564481560822888,-0.0202641218382932,-0.2105803533652438,-1.2888173568465848,0.0053684035793556,0.0051511163381916,-0.0003657504181865,0.0050400654564707,0.0052080865493568,-0.0006747952572151,0.2179776234223881,5.05
0.8014419988615011,0.7634809275046435,0.2173817812193367,0.1512263225710413,0.1561583752724488,-0.018690485667359,-0.0078443184636389,0.0472563414694957,0.0053883943433536,0.0051621361102897,-0.0006218155379436,0.0050373891899559,0.0051985696745403,-0.000622393172723,0.2195113177180445,5.084
0.800819605688778,0.7634356982258654,0.2240035742943101,0.155933038017515,0.1608181860090914,-0.0187905432615051,0.1988526448940936,-0.0030047325569383,0.0053906367472269,0.0051596890464619,-4.522927877803617e-05,0.005194178063531,0.0053536859013855,-0.0006257250906081,0.2195363353738235,5.118
0.8001938805981696,0.7634766743536312,0.2174810188026123,0.1514902345371639,0.1560407074429531,0.0008979326671199,-0.1958725372882215,0.5912455233821329,0.0053937215729908,0.0051631366217256,4.097612776576832e-05,0.0050444818806217,0.0051962943149844,2.990115781509317e-05,0.2195221185733295,5.152
0.8002237817559852,0.7635038758837454,0.2176292727846939,0.1515888344136507,0.1561516111153052,0.001182434609825,0.0044520715339835,0.0085436018830379,0.0053982057983346,0.005167850319629,2.720153011415149e-05,0.0050477405226212,0.0052000114084374,3.93750725071751e-05,0.2195221185733295,5.186
0.8002908201348182,0.7643280799228335,0.2180075688982409,0.1518418484307112,0.1564332226928352,0.025561815452136,-0.1923220178281233,0.7426752412144458,0.0053961783296255,0.0051694406113355,0.0008242040390881,0.0050540504401977,0.0052114411413968,0.0008512084545561,0.2199072494902641,5.22
0.801142028589374,0.7652118300706687,0.2181773705618755,0.1518267989288002,0.1566843583524776,0.0258091932424823,0.0050991490580957,0.0074287624728623,0.0053955773925838,0.0051780650310752,0.0008837501478352,0.0050535241250485,0.0052198245498625,0.0008594461349746,0.2199072494902641,5.254
0.8020014747243489,0.7660816086633015,0.2249734858593239,0.1564172130948745,0.1616994891374985,0.0261837661068215,0.2040875464699207,0.0112484343645416,0.005395760929813,0.0051871276053443,0.0008697785926328,0.0052062774339465,0.0053869284555475,0.0008719194113571,0.2200531874187186,5.288
0.8028733941357058,0.7653668066179266,0.2070483841150237,0.1438246256433972,0.1489412985816192,-0.0502820253982436,-0.5382913436726771,-2.296270015167124,0.0051932503184968,0.004996609491447,-0.0007148020453749,0.0047934478490599,0.0049557934803499,-0.0016743914457615,0.2094347937555954,5.322
0.8011990026899443,0.7636935256716946,0.2071438118219039,0.1441402129481424,0.1487688064997918,-0.0486641026747141,0.0028656969033102,0.0485862679738593,0.0051406563223505,0.0049306790404797,-0.0016732809462319,0.0048038188523309,0.00495017027613,-0.0016205146190679,0.2094347937555954,5.356
0.7995784880708765,0.7620104128734557,0.2134006443536191,0.1487421743287038,0.1530215690238121,-0.0503341034721289,0.1878928688202742,-0.0501501740965419,0.0051490646825628,0.0049213952294197,-0.0016831127982388,0.0049573186054184,0.0050915270859194,-0.0016761256456218,0.2094016683445383,5.39
0.7979023624252544,0.7602508489314415,0.2178843304948034,0.1521290028271925,0.1559818834800143,0.0349933560078059,0.134645229464994,2.562386170568617,0.0052529764742142,0.005001871437621,-0.0017595639420142,0.0050628030498057,0.0051972107022893,0.0011652787550599,0.2094016683445383,5.424
0.7990676411803146,0.7583730866610242,0.218014167673609,0.1520376824409856,0.1562521053438658,-0.040463749979801,0.0038990143785483,-2.265979158786999,0.005312106091577,0.0050384368022002,-0.0018777622704172,0.0050662935090655,0.0051998461918528,-0.0013474428743273,0.214477380713127,5.458
0.7977201983059872,0.7565441709981368,0.2244436377218755,0.1567380433591846,0.160649096722524,-0.0416828533359718,0.1930771786266197,-0.0366097103955172,0.0052844968056869,0.0050048744762709,-0.0018289156628874,0.0052230207808674,0.0053460564338337,-0.0013880390160878,0.214477380713127,5.492
0.7963321592898991,0.7566355656916662,0.2063193554973215,0.1442859678620841,0.1474762215780285,0.0235793639348915,-0.5442727394760962,1.95982634447037,0.0051850857179881,0.0048957526248841,9.13946935294785e-05,0.0048027325266577,0.0049129042931862,0.0007851928190318,0.2145727788947375,5.526
0.797117352108931,0.7575665468110425,0.2058638096940138,0.1438518036117194,0.1472635961104727,0.0271329423754717,-0.0136800541533835,0.1067140672846906,0.0051276340443559,0.0048452591653952,0.0009309811193762,0.0047879874161492,0.0049061012673019,0.0009035269811032,0.207512982151536,5.5600000000000005
0.7980208790900343,0.7585012039611385,0.2121877986715239,0.1481336235805552,0.1519213331627969,0.0280533268288936,0.1899095789042073,0.0276391727754325,0.0051344335149916,0.0048620019157875,0.0009346571500959,0.0049304224106665,0.005061345638413,0.0009341757834021,0.207512982151536,5.594
0.7989550548734363,0.7587531521988451,0.2177182174953821,0.1518488611190607,0.1560229009030749,-0.0068425428408212,0.1660786433591063,-1.0479240141055517,0.0053675448337668,0.0050904147317577,0.0002519482377065,0.0050570937257855,0.0051950499650254,-0.0002278566765993,0.207643446893659,5.628
0.7987271981968371,0.7585480963584397,0.2177333981131474,0.1518949983269048,0.1559991735143746,-0.0058713153281071,0.0004558744073668,0.0291659913727968,0.0054239347722079,0.0051423182105959,-0.0002050558404054,0.0050585460208735,0.0051943414923187,-0.0001955148004259,0.2198108470905968,5.662
0.7985316833964111,0.7582758497210843,0.224517112587522,0.1566588951882437,0.1608288668213418,-0.0064664455175045,0.2037151493806158,-0.0178717774593823,0.005430045118572,0.0051459432986556,-0.0002722466373553,0.0052172505501838,0.0053551050635472,-0.0002153326357329,0.2198108470905968,5.696
0.7983163507606781,0.7577844264783665,0.2180955064237558,0.1522117976434528,0.1561960901571583,-0.0139212326685844,-0.192841025938923,-0.2238674820144109,0.0054382797117054,0.0051497100067328,-0.0004914232427177,0.0050697929960906,0.005200218416033,-0.0004635770478638,0.2200764610072378,5.73
0.7978527737128145,0.7572793441624953,0.2182774826194527,0.1524112542544183,0.1562557806779658,-0.0145292206733948,0.0054647506215277,-0.0182578980423547,0.0054456311062337,0.0051512388438716,-0.0005050823158712,0.0050764879943872,0.0052021532610093,-0.000483823048424,0.2205197257674197,5.764
0.7973689506643904,0.7566843343687051,0.2250694905913076,0.1572316769224724,0.1610418435288728,-0.0153988777356962,0.2039642033590057,-0.0261158276967388,0.0054532490440234,0.00515273176353,-0.0005950097937902,0.0052371222436551,0.0053614164936817,-0.0005127826285986,0.2205197257674197,5.798
0.7968561680357915,0.7558696860877688,0.2185872668810361,0.1527834302833487,0.1563253551839062,-0.0233350650001961,-0.1946613726808263,-0.2383239418768732,0.0054620621240929,0.0051528827306889,-0.0008146482809362,0.0050896449189506,0.0052037209951797,-0.0007770576645065,0.2206967902860474,5.832
0.7960791103712852,0.7550516230912088,0.2186286136954452,0.1529337806361853,0.1562361336782096,-0.0236892961502663,0.0012416460783536,-0.010637572074182,0.0054660841475641,0.0051473340151132,-0.00081806299656,0.0050946811379111,0.0052007179848744,-0.0007888535618038,0.2206967902860474,5.866
0.7952902568094813,0.754272933699509,0.2250953641346572,0.1575842071619014,0.1607331347546885,-0.024320158651948,0.1941967098862443,-0.0189448198703198,0.0054514133198422,0.0051243964356352,-0.0007786893916997,0.0052496537034551,0.0053503538208603,-0.0008098612831098,0.2208290736171249,5.9
0.7944803955263713,0.7538103668273483,0.2067545425352467,0.1448637276831873,0.1475192911476004,0.050175752836656,-0.5507754234057215,2.237114459117239,0.0053194472019518,0.0049906080844425,-0.0004625668721607,0.0048197942166325,0.0049164806900349,0.0016708525694606,0.2138752395205106,5.934
0.7961512480958319,0.7539487148912324,0.2064692931644555,0.1444175213708285,0.1475572720706647,0.0480663734489231,-0.0085660471709066,-0.0633447263583433,0.0052415344128307,0.0049182444490607,0.0001383480638841,0.0048051072405644,0.004917564143434,0.0016006102358491,0.2138752395205106,5.968
0.7977518583316812,0.755784811306587,0.2125334509935139,0.1484158633345043,0.1521288904248175,0.048700133313775,0.182106841713466,0.0190318277733289,0.0051427776627438,0.0048422620210205,0.0018360964153546,0.0049380747115467,0.0050699592892348,0.0016217144393487,0.2114787660798832,6.002
0.7993735727710298,0.7573546768261353,0.2178529526836973,0.1518774808831927,0.1561830329888003,-0.0063132799372895,0.1597447955010026,-1.652054451983923,0.005292338896791,0.0049975475276387,0.0015698655195482,0.0050580014789617,0.0052004268409631,-0.0002102322219117,0.2063144322609971,6.036
0.7991633405491183,0.7572682540070437,0.2174624640740067,0.1516380219291148,0.1558712083309935,-0.0045454358905483,-0.0117263846753916,0.0530884098120502,0.00542020394738,0.0051261220168791,-8.642281909165826e-05,0.0050498737701315,0.0051901924658805,-0.0001513630151552,0.2194495655832113,6.07
0.7990119775339628,0.7576292065231987,0.2241000677609158,0.1562907785868418,0.1606052081943978,-0.0030905029429789,0.1993274380453184,0.0436916801071886,0.0054225226682442,0.0051269287809058,0.0003609525161549,0.0052046909696983,0.0053479509664125,-0.0001029137480011,0.2194495655832113,6.104
0.7989090637859615,0.7585766728513861,0.2177048315969389,0.1518467001059767,0.1560063247678667,0.0272332200144369,-0.1920491340533616,0.9106223110335112,0.0054192208289484,0.0051319968098537,0.0009474663281874,0.0050540735741558,0.0051973661431381,0.0009068662264807,0.2195196335092699,6.138
0.7998159300124423,0.7595104078431443,0.2178569859166387,0.1518111878430966,0.1562530945560777,0.0274479464588359,0.0045691987897832,0.0064482415735439,0.0054192274169224,0.0051416087721896,0.0009337349917581,0.0050528685729892,0.0052056010870549,0.0009140166170792,0.2195196335092699,6.172
0.8007299466295219,0.7594938045520063,0.2246499228882243,0.156397433031442,0.1612681952365708,0.0278976988271467,0.2039921012488164,0.0135060771264491,0.0054252687868201,0.0051550790611627,-1.6603291137951e-05,0.0052054718583173,0.0053727146027428,0.0009289933709439,0.2197094554903612,6.206
0.8016589400004657,0.7584735897121885,0.2182144552366927,0.1517715796893546,0.1567894641640325,-0.0285957432983814,-0.1932572868327793,-1.6964997635293746,0.0054413395220207,0.0051623547770728,-0.0010202148398178,0.0050564131750308,0.0052187455524339,-0.0009522382518361,0.2206002788346407,6.24
0.8007067017486298,0.7574396676831582,0.2183982530750229,0.1520487717596297,0.156776809358431,-0.0298199403630361,0.0055194546045112,-0.0367626746142568,0.0054511034988751,0.0051607270239923,-0.0010339220290302,0.0050657498208862,0.005218216597814,-0.0009930040140891,0.2206002788346407,6.274
0.7997136977345405,0.7569621629819782,0.2251767092524097,0.1569283646388113,0.1614869615836912,-0.0311268192077301,0.2035572425641669,-0.0392456109517696,0.0054561880486477,0.0051550436129722,-0.00047750470118,0.0052284330807889,0.0053748722187061,-0.0010365230796174,0.2209253476472133,6.308
0.798677174654923,0.7569164740805359,0.2186411717508385,0.1525361146182198,0.1566419347485117,-0.0017957616089232,-0.1962623874345691,0.8808125405047118,0.0054536467420367,0.0051506248657614,-4.568890144229787e-05,0.0050795430827789,0.0052160883293363,-5.979886157714276e-05,0.2206730663803841,6.342
0.7986173757933459,0.7568683769015,0.2185405608340992,0.1524752853318484,0.1565607361143082,-0.0012172647359476,-0.0030213488510299,0.0173722784677334,0.0054488629895901,0.0051434296221797,-4.809717903586641e-05,0.005077467205652,0.0052134333566614,-4.05349157070578e-05,0.2206730663803841,6.376
0.7985768408776388,0.7568835312973076,0.2249010906428201,0.1569195442260559,0.161111008972748,-0.0010695323402056,0.1910069011627872,0.0044364082805418,0.0054189394062134,0.0051124339338037,1.515439580757061e-05,0.0052254489989479,0.0053649691549141,-3.561542692884778e-05,0.2199735745900025,6.41
0.7985412254507098,0.7564997548858841,0.2062434183615889,0.1439068460198803,0.1477402019968967,0.0271490898106164,-0.5602904588958315,0.8474060705952589,0.0053091960339837,0.005013496418744,-0.0003837764114235,0.0047898116353919,0.0049219743796912,0.0009040646906935,0.2164015042102446,6.444
0.7994452901414038,0.7560945637893167,0.206528834561255,0.1439721854529148,0.1480748774139009,-0.0097721079875213,0.0085710570470316,-1.1087446786227564,0.0051416429585042,0.0048504545820006,-0.0004051910965673,0.0047950140731028,0.0049301734812418,-0.0003254111959844,0.2078906395451789,6.478
0.7991198789454188,0.7558260685017755,0.2121752220087544,0.1479578024507097,0.1520750259852714,-0.0097982853799191,0.1695611846095916,-0.0007861078798163,0.0052161476085954,0.0049213276693003,-0.0002684952875412,0.0049277573245098,0.005063356350637,-0.0003262829031513,0.2078525163499205,6.5120000000000005
0.7987935960422679,0.7551500575025646,0.218027087305151,0.1520895092295057,0.1562196913999514,0.0089631261805364,0.1757316905824792,0.5634057525662358,0.005424796474689,0.0051121409860198,-0.0006760109992108,0.0050637389124083,0.005202935044021,0.0002984721018118,0.2078525163499205,6.546
0.7990920681440796,0.7541837696385454,0.2174920007096221,0.1516697284610971,0.1558815699215636,-0.0276613241011879,-0.0160686665324,-1.0998333417935269,0.0054445669234964,0.005121094471245,-0.0009662878640191,0.0050529268031134,0.0051885928778598,-0.0009211220925695,0.2192758221213042,6.58
0.7981709460515098,0.7542573306439638,0.2242213108964207,0.156510427178011,0.1605605257984224,-0.0290562155513978,0.2020813869909503,-0.0418886321384339,0.0054454016884192,0.0051153867852431,7.356100541844325e-05,0.0052143159531499,0.0053442087508092,-0.0009675719778615,0.2199775675951018,6.614
0.7972033740736486,0.7547023732372796,0.2178388487677833,0.1522062166292653,0.1558429711340178,0.0124429810465241,-0.1916655293885108,1.2462221200577182,0.0054457355785186,0.00511996055699,0.0004450425933157,0.0050673265433661,0.0051906844777946,0.0004143512688492,0.2199775675951018,6.648
0.7976177253424979,0.7551349304360101,0.2179900543124978,0.1522472338517758,0.156014241541112,0.0129438351794146,0.0045407070484821,0.0150406646513638,0.005448332934393,0.0051267399858047,0.0004325571987304,0.0050686478266522,0.0051964303479999,0.0004310297114745,0.2199772957279928,6.682
0.7980487550539723,0.7553570863620266,0.2247853472282137,0.1569238017112398,0.1609452477863205,0.0129682587612462,0.2040628503218013,0.000733440895845,0.005266937255357,0.0049597255682335,0.0002221559260164,0.0052243379012643,0.0053606704921327,0.0004318430167495,0.2201716485612558,6.716
0.7984805980707219,0.7554732976645612,0.2069094989904741,0.1443805911599965,0.1482085883772561,-0.0010163175599076,-0.5368122593915814,-0.4199572468814978,0.005170034865956,0.004869357868395,0.0001162113025345,0.0048078952325913,0.0049353250019759,-3.384337474492405e-05,0.2201716485612558,6.75
0.798446754695977,0.7556083832491262,0.2070306262882905,0.1444701320189949,0.1482904621873436,0.0041268383433788,0.0036374563908823,0.1544491262248205,0.0051731200705046,0.00487273141384,0.0001350855845649,0.0048104540710526,0.0049384633375297,0.0001374237168345,0.2089874963296236,6.784
0.7985841784128116,0.7557628041331276,0.2134125069984007,0.148902528424707,0.1528820956556776,0.004069989991287,0.1916480693726811,-0.0017071577204747,0.0050036290303548,0.004712871363347,0.0001544208840014,0.0049580452640479,0.0050913720336022,0.0001355306667098,0.2090803784177637,6.818
0.7987197090795215,0.7556951325166033,0.1949376439407158,0.1359932885854266,0.1396657097675667,-0.0053456802468122,-0.5548006924229705,-0.2827528600029838,0.0048800582553439,0.0045980698921372,-6.767161652432298e-05,0.0045289320485738,0.0046505219068018,-0.0001780111522188,0.1966142929377733,6.852
0.7985416979273023,0.7556253446656922,0.1954602163739136,0.1363827744919951,0.1400158384140978,-0.0012896941331462,0.0156928658617944,0.1218013847947749,0.0048758772395368,0.0045889318764318,-6.978785091105166e-05,0.0045415879687107,0.0046624869188624,-4.294681463377081e-05,0.19718366550914,6.886
0.7984679777082029,0.7553166843979761,0.2064696505200155,0.1440755331780663,0.1478917081019529,-0.031797332651667,0.1591652391345794,-0.9271233150582222,0.004843944143216,0.0045604422719043,-0.0003086602677161,0.0048002598668495,0.0049223131979785,-0.0010588511773005,0.1964792479617531,6.92
0.7974091265309022,0.7552551169616285,0.2065114974709187,0.1442612804211458,0.1477690142043751,-0.0313584813120586,0.0012566651922891,0.0131787189071596,0.0048613672982718,0.0045862397459013,-6.156743634755378e-05,0.0048064072063274,0.0049182594211327,-0.0010442374276915,0.1964792479617531,6.954
0.7963648891032111,0.7552260759307591,0.212543645422796,0.148633847668065,0.1519301831006522,-0.0340787919506851,0.1811455841404607,-0.0816910101689646,0.0050203013734134,0.0047272862659764,-2.9041030869425555e-05,0.0049523132692262,0.0050565277830509,-0.0011348237719578,0.1988464163042524,6.988
0.7952300653312534,0.755951991742951,0.2062043431984861,0.1443678903867922,0.1472349937317423,0.0245796689660707,-0.1903694361654647,1.7615153428455232,0.0051389424156722,0.0048422272464757,0.0007259158121919,0.0048053820985775,0.0049049525358143,0.0008185029765701,0.1988464163042524,7.022
0.7960485683078233,0.7564619576429855,0.2177073103787723,0.1522940676433024,0.1555731016371929,9.89279723205348e-05,0.3454344498584462,-0.7351573871997068,0.0053404831628485,0.0050394959778566,0.0005099659000344,0.0050713188724288,0.0051806563127456,3.2943014782738093e-06,0.2078814402050435,7.056
0.7960518626093016,0.7565394053321245,0.2242571185961482,0.1568753653542525,0.1602540950678536,0.0011540235719143,0.1966909374587336,0.0316845525403562,0.005430530660224,0.0051266001312311,7.744768913897637e-05,0.0052237801224926,0.0053366273290751,3.842898494474944e-05,0.2197433762101932,7.09
0.796090291594246,0.7579833019141592,0.2178693932855628,0.1524009544604035,0.1556952844827911,0.0413249592780346,-0.1918235829004599,1.206334405589196,0.0054225494294765,0.0051260022069807,0.0014438965820346,0.005071317685444,0.0051882068853671,0.0013761211439585,0.2197433762101932,7.124
0.797466412738205,0.759412289796978,0.2180216283548961,0.1522928941918324,0.1560137968552647,0.0417442808564714,0.0045716237037015,0.0125922395926968,0.0054200541944632,0.0051385977305197,0.0014289878828187,0.0050676755437697,0.0051988461956,0.0013900845525204,0.2195583674395038,7.158
0.7988564972907253,0.7606914418934988,0.2248170050915223,0.1568158304589114,0.1610946339758203,0.0425792571747405,0.2040653674662521,0.0250743639119843,0.0054182325466406,0.0051509323005333,0.0012791520965208,0.0052180949044715,0.0053682171166017,0.0014178892639188,0.2199434309667911,7.192
0.8002743865546442,0.7601340093469409,0.2183450301029176,0.1520794642212515,0.1566728717194559,-0.0153026570800228,-0.1943536032614029,-1.7381956232661666,0.0054327845181689,0.0051694875800084,-0.0005574325465579,0.005065509737157,0.0052159796889252,-0.0005095784807647,0.2199434309667911,7.226
0.7997648080738795,0.7595664467436786,0.2185375470016256,0.1522934418885231,0.1567334265791275,-0.0163862161052991,0.0057812882494911,-0.0325393100683585,0.0054401674842843,0.0051695940214041,-0.0005675626032622,0.0050727298119603,0.005217902913794,-0.0005456609963064,0.2207827905005335,7.26
0.7992191470775731,0.7590831409362886,0.2252551807188585,0.1570629244639574,0.1614655820895426,-0.0170907113288425,0.2017307422592449,-0.0211560127190203,0.0054452378015322,0.0051673750551727,-0.0004833058073899,0.0052316576357085,0.0053753809751643,-0.0005691206872504,0.2207827905005335,7.294
0.7986500263903227,0.7593282858819039,0.2185537149852603,0.152479350764728,0.1565751382698589,0.005877092121109,-0.2012452172251703,0.6897238273258731,0.005438932820176,0.0051591448830733,0.0002451449456153,0.0050769866722562,0.0052145126747421,0.0001957071676329,0.2208211065059023,7.328
0.7988457335579557,0.7595293792716832,0.2183148039274241,0.1522820563188598,0.1564337845133502,0.0066391383425976,-0.0071745062413269,0.0228842709155734,0.0054316812110699,0.0051507419659609,0.0002010933897792,0.0050703511819494,0.0052098692003978,0.0002210833068085,0.2200654005963696,7.362
0.7990668168647641,0.7594289123002029,0.2246554231858798,0.1566692623204014,0.1610118051908245,0.0074201124680111,0.1904089867404111,0.0234526764388435,0.0053889044415496,0.0051148362794959,-0.0001004669714802,0.0052163566437202,0.0053624030984478,0.0002470897451847,0.2200654005963696,7.396
0.7993139066099486,0.7587224979831967,0.1954530171438147,0.136269593099661,0.1401159516510277,0.0140659393054957,-0.8769491303923457,0.1995743795040445,0.0052224397215839,0.0049602323794989,-0.0007064143170062,0.0045366259522187,0.0046669807185207,0.000468395778873,0.2095163966370318,7.43
0.799782302388822,0.758741752133635,0.2060160396540017,0.143564926505225,0.1477556106287288,-0.0031155475799238,0.3172078831887974,-0.5159605671297182,0.0051218652827756,0.0048557785820798,1.9254150438352543e-05,0.0047809055020398,0.0049200738595046,-0.0001037477344114,0.2095163966370318,7.464
0.7996785546544105,0.7586708895458217,0.2121422780605103,0.1478498588768217,0.1521340375156289,-0.0017096584806802,0.1839711233185777,0.0422188918691755,0.0051326215340095,0.0048670225943963,-7.08625878133029e-05,0.0049234809005159,0.0050659851165138,-5.6931627406653365e-05,0.2079958867608529,7.498
0.7996216230270035,0.7585266749371015,0.2069382365366837,0.1442314169514252,0.1483938411966501,-0.0040078780832778,-0.1562775232380347,-0.0690156036816079,0.0051831038284556,0.0049136099971891,-0.0001442146087202,0.0048031738823403,0.0049412547016459,-0.0001334623401731,0.2089632416731356,7.532
0.7994881606868303,0.7579454166933773,0.2177206156268624,0.1517673345042443,0.1561055496976862,-0.0204586436886163,0.3237951678732344,-0.4940169851453023,0.0054124859488693,0.0051284939101806,-0.0005812582437241,0.0050555573356073,0.0051966563536629,-0.0006812728348309,0.2089632416731356,7.566
0.7988068878519998,0.7577047516784053,0.22436610478314,0.1565092911145209,0.1607637731903215,-0.0206250219275262,0.1995642389272545,-0.004996343510805,0.0054307216405824,0.0051388344539037,-0.0002406650149719,0.0052135301943287,0.0053517089341635,-0.0006868132301866,0.2200508948602191,7.6
0.7981200746218127,0.758418900048794,0.2179822072581153,0.1521633633349929,0.156085084296043,0.0200418101004298,-0.1917086343851274,1.2212261870257073,0.0054273558824994,0.0051390136287657,0.0007141483703886,0.0050652399108099,0.0051993873713005,0.0006673922763443,0.2200508948602191,7.634
0.7987874668981574,0.7591157918383182,0.2181342899579845,0.1521652487190091,0.1562955710753064,0.0205147336899606,0.0045670480441205,0.0142019095955191,0.0054285820912979,0.0051475298311528,0.0006968917895242,0.0050652592664022,0.0052064364825392,0.0006831406318756,0.2198678445507033,7.668
0.7994706075300329,0.7598326980559744,0.2249304937660043,0.1567959824394772,0.1612722757223251,0.0207468488121186,0.2040902044450387,0.0069704240888276,0.0053651950115783,0.0050950471667852,0.0007169062176561,0.0052193832349026,0.0053722355102294,0.0006908700654435,0.2200565014642498,7.702
0.8001614775954766,0.7597865744131768,0.1959784613309894,0.1365168055721865,0.1406083891594948,-0.0143581812590794,-0.8694304034539009,-1.0542051072431835,0.004987266506968,0.0047397321620987,-4.612364279765746e-05,0.0045470700345006,0.0046812294870748,-0.0004781274359273,0.1981309204982719,7.736
0.7996833501595493,0.7600913630123031,0.2067800676239246,0.1441120234849662,0.1482893153724279,0.0114958858839482,0.324372561349406,0.7763984127035345,0.0051478794285924,0.0048912060959892,0.0003047885991263,0.0047979230801988,0.0049390128698317,0.0003828129999354,0.1981309204982719,7.77
0.8000661631594848,0.7603624574065738,0.2134057800375425,0.1486711096586636,0.1530977730285245,0.0116853331111672,0.1989703427512881,0.0056891059224928,0.0051826502438699,0.0049276441860491,0.0002710943942707,0.0049496919016147,0.005099181082315,0.0003891215926018,0.2089807386503644,7.804
0.8004552847520863,0.760620432771743,0.2180817459032906,0.1518677740326101,0.1565114280383624,0.058859256004272,0.1404193953678096,1.416634321114256,0.0053303296949802,0.0050662843939275,0.0002579753651691,0.0050520205093078,0.0052168467339599,0.0019600132249422,0.2089807386503644,7.838
0.8024152979770287,0.7612138304241869,0.2181495890923198,0.1516078671689182,0.1568575718084392,0.0580016973081093,0.0020373330038813,-0.0257525133982781,0.005333975138312,0.0050726342496504,0.0005933976524439,0.0050434288508141,0.0052282927363446,0.00193145652036,0.2167577881416604,7.872
0.8043467544973888,0.7619979313261476,0.2245445382974384,0.1557400424343382,0.1617568819610477,0.0606928204156971,0.1920405166702273,0.0808145077353694,0.0052534566501774,0.0050172037664644,0.0007841009019606,0.0051806289328306,0.0053918063295618,0.0020210709198427,0.2148671561407256,7.906
0.8063678254172313,0.7620512633975067,0.2064169037126672,0.1428662203145193,0.1489871847890541,-0.0014481761439642,-0.5443734109540894,-1.8660959927826253,0.0051058601775354,0.0048729030916063,5.333207135915785e-05,0.0047575024699066,0.0049612182739784,-4.822426559401017e-05,0.2148671561407256,7.94
0.8063196011516376,0.7620298410037267,0.2058571945456987,0.1424859969719742,0.1485763279029611,-0.0010129824879772,-0.0168080830921475,0.0130688785581673,0.0051094598587002,0.0048786496528203,-2.142239378000177e-05,0.0047448050248504,0.0049475712670977,-3.373231684964395e-05,0.2077424942416501,7.974
0.806285868834788,0.7616713069403731,0.2121589205646455,0.1468529611791752,0.1531196113111029,-0.0005686559060112,0.1892410215899955,0.0133431405995801,0.005130880332868,0.0048971523515644,-0.0003585340633536,0.004890187863539,0.0050988981558553,-1.893624167017549e-05,0.2077424942416501,8.008
0.8062669325931178,0.7611019905996248,0.2071764934735923,0.1434070374094725,0.1495209720054401,-0.0180204767055638,-0.1496224351667645,-0.5240787026892674,0.0052478209875246,0.0050022851610868,-0.0005693163407483,0.0047768854791776,0.0049776752151433,-0.0006000818742952,0.2093600776333512,8.042
0.8056668507188225,0.7608759338754422,0.217734871430217,0.150809789898442,0.1570505699051134,-0.0059740917366279,0.3170684071058469,0.3617533023704473,0.0054127924389351,0.0051562295577664,-0.0002260567241826,0.0050224205117569,0.0052293474761275,-0.0001989372548297,0.2197895418961387,8.076
0.8054679134639926,0.7619192033573869,0.2244473201124755,0.1554912391928024,0.1618612802369941,-0.006783732849824,0.2015750355032577,-0.0243135469428251,0.0054076965756784,0.0051517280339756,0.0010432694819447,0.0051783993463175,0.0053894607706494,-0.0002258983038991,0.2197895418961387,8.11
0.8052420151600934,0.7638048110231971,0.2180738622720974,0.1511113961701634,0.1572308982158839,0.0543746376765993,-0.1913951303416829,1.8365877034962,0.0053985519662935,0.0051609357475519,0.0018856076658101,0.0050272007899667,0.0052404048372373,0.0018106754346307,0.2196381346120302,8.144
0.8070526905947242,0.7656772290549066,0.2182118590432686,0.1509218972133094,0.1576039224405744,0.054883066389376,0.0041440471823161,0.0152681295128124,0.005393659701079,0.0051753722928861,0.0018724180317095,0.0050208345964538,0.0052528632345625,0.0018276061107662,0.2198248104329608,8.178
0.8088802967054907,0.7673434679269778,0.2250069006723563,0.1553242857371439,0.1627957972750699,0.0561647539103562,0.2040553041768077,0.0384891147441505,0.0053898907031539,0.0051902928622962,0.0016662388720711,0.0051671580692426,0.0054259986052576,0.0018702863052148,0.2200096174842783,8.212
0.8107505830107051,0.768903262046028,0.2185416825577532,0.1505652977372509,0.1583999941050086,0.0460666652307776,-0.1941506941322235,-0.3032459062936522,0.0053861709014253,0.0052018070771413,0.0015597941190501,0.0050097104093933,0.0052786262887917,0.0015340199521848,0.2202301512625408,8.246
0.8122846029628903,0.770437812772637,0.2185633604555983,0.1503370428917919,0.1586465129405476,0.0454687756580717,0.0006509879232754,-0.0179546418229989,0.0053820855743254,0.005211249788007,0.001534550726609,0.0050021557686351,0.0052867796551902,0.0015141102294137,0.2202301512625408,8.28
0.8137987131923041,0.7707823513200008,0.2250664063239925,0.1545625777613997,0.1636010293712964,0.0463793667089542,0.1952866627145414,0.0273450766030787,0.0053794169331664,0.0052180510826997,0.0003445385473638,0.0051426563719717,0.0054519512290066,0.0015444329114081,0.2203286847488851,8.314
0.8153431461037122,0.7702957859053874,0.218316412536387,0.1496818011712193,0.1589258140797067,-0.0001577490688386,-0.2027025161443098,-1.397510984318105,0.0053389009693889,0.0051805905077861,-0.0004865654146134,0.0049843514308531,0.0052922791000654,-5.253043992325957e-06,0.2194572653655664,8.348
0.8153378930597199,0.7701484497723841,0.2180336951974786,0.1494887986558114,0.1587192216396907,-0.0014404016638215,-0.0084900101774299,-0.0385180959454325,0.0053013928099485,0.0051464630395179,-0.0001473361330033,0.0049780373896329,0.0052852931968985,-4.79653754052567e-05,0.2194572653655664,8.382
0.8152899276843146,0.7700609460301856,0.2242258270762231,0.1537420924118964,0.1632194551786895,-0.0012469827319476,0.185949906268603,0.0058083763325483,0.0052011728622716,0.0050513905943569,-8.750374219845813e-05,0.0051196562806757,0.0054351658429061,-4.152452497385717e-05,0.2183539154158397,8.416
0.815248403159341,0.7697279813300607,0.1969565085318992,0.1350506362226708,0.1433638444968882,-0.0209006704684278,-0.8188984547845,-0.5902008329273343,0.0050308896495296,0.0048757044134097,-0.0003329647001248,0.0044987872401092,0.0047725071190288,-0.0006959923265986,0.2183539154158397,8.45
0.814552410832742,0.769738684863029,0.2059509666271602,0.1413223272401807,0.1498125511366819,0.0011338841706646,0.2701038467045346,0.6616983375102857,0.0050736180872557,0.0049192269912781,1.0703532968281417e-05,0.0047058766730985,0.0049889058840472,3.775834288313185e-05,0.2077345278269101,8.484
0.8145901691756254,0.7686653970263216,0.2122248844716331,0.1456216232177573,0.1543818138267055,0.0003136622510633,0.1884059412754615,-0.0246312888769155,0.0051310611890913,0.0049702233129724,-0.0010732878367073,0.0048491086557871,0.0051410006099728,1.0444952960408923e-05,0.2079351686835123,8.518
0.8146006141285858,0.7676972606944237,0.2084999430365068,0.143064108675633,0.1516736201686808,-0.0396237574000477,-0.1118601031569452,-1.1993219114447762,0.0053151451420987,0.0051355875985672,-0.0009681363318979,0.0047673022064645,0.0050476469409544,-0.0013194711214215,0.2108712447529606,8.552
0.8132811430071643,0.7670490256993747,0.2177820633484603,0.1496420271757143,0.1582286030370475,-0.0182772708430696,0.2787423517103151,0.641035632341683,0.0053860495258089,0.0051965897660277,-0.0006482349950489,0.0049846165070632,0.0052675583084561,-0.0006086331190742,0.2200421712072953,8.586
0.81267250988809,0.7676549717351391,0.2245643219864922,0.154401514461943,0.1630622796391347,-0.0194434837240936,0.2036714305715282,-0.0350214078385588,0.0051687659560579,0.0049834709489708,0.0006059460357643,0.0051432597823911,0.0054283736095652,-0.0006474680080123,0.2202370844058201,8.62
0.8133138407960745,0.7689657724947685,0.2068327875447934,0.1421136664155909,0.1502781016032203,0.0382492155653,0.0011801077709341,-0.0136172547977202,0.005094622625219,0.0049238968016223,0.0013108007596294,0.0047291339812107,0.0050073326250818,0.0012736988783244,0.2202370844058201,8.654
0.8145875396743993,0.7702624333164462,0.2132666579695728,0.1463368613155975,0.1551392613808972,0.039001655850974,0.1932093220654462,0.0225958043745957,0.0050925963159078,0.0049344046622588,0.0012966608216776,0.0048695964335792,0.0051693615214619,0.0012987551398374,0.2084879010784486,8.688
0.8158862948142369,0.7707202658388836,0.207082219689774,0.1418975297946997,0.1508248545492623,0.0133439552644311,-0.1857188672612263,-0.7705015191154048,0.0050972034699003,0.0049471207419575,0.0004578325224374,0.0047240086360368,0.0050235766325789,0.0004443537103055,0.2084879010784486,8.722
0.8163306485245423,0.7711341017065243,0.2071111713470803,0.1418503251781938,0.1509089876170413,0.0122079809958059,0.0008694191383287,-0.0341133414001558,0.0050979876860608,0.0049501021560514,0.0004138358676406,0.0047225311389868,0.0050262885804767,0.0004065257671603,0.2090111002261683,8.756
0.8167371742917027,0.7715249045080236,0.2132615235226481,0.1459995156810229,0.1554497308975082,0.0121167187805355,0.1846952605275609,-0.0027406070651765,0.0050927277342067,0.0049483273515296,0.0003908028014992,0.0048606744131486,0.0051775177610609,0.0004034867353918,0.2087280627829746,8.79
0.8171406610270946,0.7709105408269848,0.2200573862598541,0.1505872519911762,0.1604641168151454,-0.0526390016528154,0.2040799620782583,-1.9446162292297609,0.0051433717128144,0.0049978816703806,-0.0006143636810387,0.0050191691001654,0.0053391204208387,-0.0017528787550387,0.2087280627829746,8.824
0.8153877822720554,0.7695730901555918,0.2179727301723718,0.1494390833164216,0.1586822972998098,-0.0002654143891414,-0.0626022849093772,1.572780398308531,0.0051464059233172,0.0050011418337454,-0.001337450671393,0.0049762784793606,0.0052841609904115,-8.83829915840906e-06,0.2115588704617112,8.858
0.8153789439728971,0.7694115882890442,0.22445631682224,0.1538855846716139,0.1634009332644136,0.0020279631861845,0.194702301797843,0.0688701974572347,0.005194681763728,0.0050360123701278,-0.0001615018665476,0.0051241379168762,0.0054414884396088,6.753117409994403e-05,0.2115588704617112,8.892
0.815446475146997,0.7704155556698371,0.2174218892089554,0.1490521441443245,0.1582900383257607,0.0377563236440564,-0.2112440724710081,1.0729237374736302,0.0053283788684161,0.0051655345943484,0.0010039673807928,0.0049600552581686,0.0052742393934226,0.001257285577347,0.2147928659117539,8.926
0.8167037607243444,0.771684337590069,0.217402953070862,0.1488400464047728,0.1584635118573248,0.0368365158728219,-0.0005686527955982,-0.0276218549920243,0.0053414386980008,0.0051912850249444,0.0012687819202319,0.004953069578806,0.0052799356938547,0.0012266559785649,0.219110462592743,8.96
0.8179304167029091,0.7727762850420677,0.2241180270004384,0.1532368713152839,0.1635461748133301,0.0382471377451458,0.2016538717590494,0.0423610171869037,0.0053388351289884,0.0052012518567094,0.0010919474519986,0.0050992498651743,0.005449399705005,0.0012736296869133,0.219110462592743,8.994
0.8192040463898227,0.7726747853535724,0.2177000137353512,0.148646211437005,0.1590521920810816,-0.0018621846347095,-0.1927331310836997,-1.204484155551214,0.0053488045986977,0.0052167682867327,-0.0001014996884953,0.0049500165563181,0.0052963466705815,-6.201074833582787e-05,0.2192591595613972,9.028
0.8191420356414865,0.7725693240797825,0.2178957274930975,0.1487897168942576,0.1591859548021523,-0.0026249748635843,0.0058772900224129,-0.0229066134797245,0.0053543984520387,0.005220464373667,-0.0001054612737898,0.0049548626916281,0.0053007379515959,-8.741166295735959e-05,0.2192591595613972,9.062
0.8190546239785292,0.7724605425075811,0.2246408352783086,0.1534099468249964,0.1641002531676534,-0.0037860196035101,0.2025557893456784,-0.0348662084061787,0.0053344617198283,0.0052003596422873,-0.0001087815722013,0.005108827077154,0.0054642805328719,-0.0001260744527968,0.2200000726083752,9.096
0.8189285495257326,0.7719089049714699,0.197219083837875,0.1347014629929621,0.1440516674579175,-0.0451568132098374,-0.8234760192322401,-1.2423661743641838,0.0049143643613696,0.0047877228956143,-0.0005516375361112,0.0044891034566287,0.0047936025674049,-0.0015037218798875,0.1994259619150941,9.13
0.8174248276458451,0.7720735700010546,0.1954820751741961,0.1337296335627242,0.1425820003422226,0.00403477697298,-0.0521624223326989,1.47722493041494,0.0048047146799736,0.004677459736248,0.0001646650295846,0.0044528182007469,0.0047483356675815,0.0001343580732002,0.1972878148654352,9.164
0.8175591857190452,0.77214708749503,0.2015089084893095,0.1378328519884899,0.146996411906114,0.0044604617967669,0.1809859854388388,0.0127833280416474,0.0048304346776026,0.0047037805758689,7.351749397543904e-05,0.0045894089553834,0.0048953789942668,0.0001485333778323,0.1972878148654352,9.198
0.8177077190968776,0.7712247319918508,0.2193568083659833,0.1500171133101668,0.1600383550608894,-0.0188339311048792,0.5359729692694856,-0.6995313183677531,0.0051496089316076,0.0050124858895517,-0.0009223555031792,0.004997173832845,0.0053277730825264,-0.0006271699057924,0.2143634668810949,9.232
0.8170805491910849,0.7716800559802919,0.2182868102982136,0.1493851988218859,0.1591640472063773,0.0258225481713508,-0.0321320741071997,1.3410354137006029,0.0053459104789113,0.0051956943953272,0.000455323988441,0.0049721811521816,0.0053023633239179,0.0008598908541059,0.2143634668810949,9.266
0.8179404400451911,0.7724795564758277,0.2249095476023776,0.1537764149251692,0.1641253143651775,0.0281824321977337,0.1988810001250455,0.0708673881796683,0.0053686886068955,0.0052208931627903,0.0007995004955357,0.005118120654985,0.0054678392784564,0.0009384749921845,0.2200311334597522,9.3
0.8188789150373754,0.7722129789090254,0.2180064529587921,0.1489072268202967,0.1592276713776934,-0.0014019611136751,-0.2073001394470125,-0.8884202195618282,0.0053429505234396,0.0052064248574912,-0.0002665775668022,0.0049586678473833,0.0053022279682155,-4.668530508538105e-05,0.2191641938415462,9.334
0.8188322297322901,0.7725801004737045,0.2176971337876604,0.1487033721961028,0.158994808584651,-0.0030041562628806,-0.0092888639979487,-0.0481139684446111,0.0053160961740621,0.005183315064386,0.0003671215646791,0.0049520206396632,0.00529434160776,-0.0001000384035539,0.2191641938415462,9.368
0.8187321913287362,0.7724101643383862,0.2239686877650684,0.1530036741606402,0.1635599241640548,-0.0006625315994402,0.1883349542765173,0.0703190589621739,0.005298482606574,0.0051688471819417,-0.0001699361353183,0.0050950140454452,0.0054465532425809,-2.206230226136085e-05,0.2181822271189345,9.402
0.8187101290264751,0.7721139883248598,0.2081593847606165,0.1422069403288928,0.1520115639884449,-0.0175480684379483,-0.4747538439775364,-0.5070731783335765,0.0050883769546867,0.0049562711305373,-0.0002961760135263,0.0047369062904217,0.0050606606750269,-0.0005843506789836,0.2100026444464399,9.436
0.8181257783474911,0.7721721292634639,0.2060618325233084,0.1408618776630162,0.1503975074398291,0.0011268005578931,-0.0629895566759186,0.5608068767519985,0.005064117912634,0.0049325755572067,5.814093860412317e-05,0.0046905436805753,0.0050083838937186,3.752245857784331e-05,0.2100026444464399,9.47
0.8181633008060691,0.7722942294278703,0.2123665132093561,0.1451658804129962,0.1550045260520458,0.0017277821680639,0.1893297503317652,0.0180474958009241,0.0051288651972303,0.0049958319669047,0.0001221001644063,0.0048338105162177,0.0051618504705274,5.7535146196530106e-05,0.2080843944845319,9.504
0.8182208359522658,0.7737421790189514,0.2177767334422657,0.1488549608661878,0.1589619648038781,0.0442645948241979,0.1624690760633514,1.2773817614454654,0.0053385302144606,0.0052085882383967,0.001447949591081,0.0049529006035581,0.005297146939051,0.0014740110076457,0.2080843944845319,9.538
0.8196948469599112,0.7752256491954016,0.2179483195904296,0.1487375855424564,0.1593066246560152,0.0434935742153219,0.0051527371820974,-0.0231537720383177,0.0053380247361243,0.0052232561501779,0.0014834701764502,0.0049490515683387,0.0053085576617486,0.0014483360213702,0.2194920076512347,9.572
0.8211431829812814,0.7767524147184799,0.2247426501558747,0.1531362545430924,0.1644948216315611,0.0443970781593511,0.2040339509142671,0.0271322505714472,0.005222800332139,0.0051261886634221,0.0015267655230782,0.0050953174336721,0.0054815091022513,0.0014784227027063,0.2198531657469861,9.606
0.8226216056839881,0.7765151619401819,0.197061433780295,0.1340613050681767,0.1444325973143281,-0.0277561753810114,-0.8312677590264169,-2.1667643705814594,0.0049207468684333,0.0048360043182247,-0.000237252778298,0.0044664031727892,0.0048075977795121,-0.0009242806401876,0.2198531657469861,9.64
0.8216973250438002,0.7777034507136641,0.2067397174958535,0.1407854542605792,0.1513960589279248,0.0346313288526269,0.2906391506173718,1.873498625634787,0.00505870026606,0.0049751419298504,0.0011882887734822,0.004685184272874,0.0050442497161359,0.0011532232507924,0.2087372476528535,9.674
0.8228505482945927,0.7781860788234272,0.2133761873543714,0.1451244578221434,0.1564234287813585,0.0353621108882767,0.1992933891446825,0.0219454064759696,0.0050600686709429,0.0049854202538262,0.000482628109763,0.0048295109992481,0.0052118049732609,0.0011775582925796,0.2087795104006534,9.708
0.8240281065871722,0.7781092916392418,0.2071246482071867,0.1406936731237894,0.1520062835473823,-0.0006433525907087,-0.1877339083238643,-1.081245149519085,0.0050615552813908,0.0049874467724395,-7.678718418535624e-05,0.0046850899811315,0.0050618178811608,-2.142364127060148e-05,0.2087795104006534,9.742
0.8240066829459018,0.7779815982050996,0.2070098468328066,0.1406189466222456,0.1519190196670321,-0.0021111344503505,-0.0034474887201241,-0.0440775333225776,0.0050557719644095,0.0049784428275454,-0.0001276934341422,0.0046827252242807,0.0050587975508436,-7.03007771966746e-05,0.2087921579587586,9.776
0.8239363821687054,0.777264615811004,0.21303833702667,0.1447250079258852,0.1563329943548114,-0.002119092309567,0.1810357415574593,-0.0002389747512442,0.0050328666462828,0.0049552281419507,-0.0007169823940955,0.0048194610764494,0.0052057791799017,-7.056577390858187e-05,0.2078791519405541,9.81
0.8238658163947967,0.7767984967068403,0.208046359811122,0.1413445417156349,0.1526597797648614,-0.0258119404272222,-0.1499092256921314,-0.7114969404701279,0.0050183670343821,0.0049448638057982,-0.0004661191041637,0.0047088936163498,0.0050816063402659,-0.0008595376162265,0.2067944394857246,9.844
0.8230062787785699,0.7776038401262979,0.2179328481551636,0.148198717097562,0.1597869411299258,0.0010746260323403,0.2968915418631119,0.8074043981850653,0.0051271957848928,0.0050463436680019,0.0008053434194575,0.0049348552642393,0.0053210553997978,3.5785046876934955e-05,0.2067944394857246,9.878
0.8230420638254472,0.7786610196428483,0.2244059887798589,0.1525946949105411,0.1645384662789374,-0.0016205729292,0.194388607348205,-0.0809369057519652,0.0052848449064808,0.0052086986100483,0.0010571795165503,0.0050814823854523,0.0054790576177036,-5.3965078542361765e-05,0.2099313469920436,9.912
0.8229880987469045,0.779710435347963,0.2173562939596847,0.1478095458782122,0.1593615282029059,0.0302764069236561,-0.2117025471523775,0.9578672628485356,0.0053017967448005,0.0052373391433955,0.0010494157051147,0.0049193152436893,0.0053092809762856,0.0010082043505577,0.2191642919796885,9.946
0.8239963030974624,0.7807583464256554,0.2175088104814532,0.1477524053378736,0.1596223961539528,0.0305407438486656,0.0045800757287848,0.0079380457960805,0.005300170951104,0.005246567712831,0.0010479110776924,0.0049173845666858,0.0053179885329844,0.0010170067701605,0.2191642919796885,9.98
0.8250133098676229,0.7808114275518866,0.224259741525869,0.152170817180119,0.164731521173042,0.0313852922598188,0.2027306619944665,0.0253618141487438,0.0053063177552754,0.0052603389144412,5.3081126231147024e-05,0.0050643518185996,0.005488270231577,0.0010451302322519,0.2194823451600058,10.014
0.826058440099875,0.7804929942439938,0.2178488396031699,0.147653392805701,0.1601767539607823,-0.0081465930862684,-0.1925195772582314,-1.1871437040867052,0.0053155893168792,0.0052665272361118,-0.0003184333078928,0.0049175144493937,0.005333280658726,-0.0002712815497727,0.2200260577231685,10.048
0.825787158550102,0.7801567048065864,0.2180294872825082,0.1478193156217212,0.1602694832268432,-0.0093126426727974,0.0054248552353847,-0.035016504099969,0.0053220235744051,0.0052693600511415,-0.0003362894374073,0.0049231436577415,0.0053362722776818,-0.0003101110010041,0.2202182437226997,10.082
0.8254770475490982,0.7809405043605231,0.224823147675227,0.1524765143048974,0.1652161018666926,-0.0101108264494365,0.2040138256071714,-0.023969482781955,0.0053192151149654,0.0052667274968629,0.0007837995539367,0.0050783249471067,0.0055009050833543,-0.0003366905207662,0.2202182437226997,10.116
0.8251403570283316,0.7820020517901747,0.2184109855988651,0.1481817762451848,0.1604541050241147,0.0305232507677879,-0.192557419710568,1.2202425590758097,0.0053160943862033,0.005274598953191,0.0010615474296515,0.0049316697413656,0.0053456904474049,0.0010164242505673,0.2202156985726341,10.15
0.826156781278899,0.7830376596219543,0.2185402141437508,0.1481061893488864,0.1606996635794497,0.0309626350571847,0.0038807370836571,0.0131947234053102,0.0053145449529969,0.0052823406420183,0.0010356078317795,0.0049291092659753,0.0053539022886247,0.0010310557474042,0.2203540053100131,10.184
0.8271878370263033,0.7837934447427551,0.2251682362639012,0.1524272484639247,0.1657307109376924,0.0313396939717105,0.1990397033078173,0.0113230905262992,0.0053126937297878,0.005288010994108,0.0007557851208008,0.0050728773663439,0.00552154396329,0.0010436118092579,0.2204770234795632,10.218
0.8282314488355613,0.7844447361454652,0.2184869876340829,0.1477364817778365,0.1609673746984862,0.0211582029905743,-0.2006380969915408,-0.3057504799139978,0.0053022774300997,0.0052837079898739,0.00065129140271,0.0049176687945091,0.0053620079850329,0.0007045681595861,0.2203764402208819,10.252
0.8289360169951472,0.7846476278315241,0.2182929181790463,0.147491907561126,0.1609283546523237,0.0207054155384657,-0.0058279115626601,-0.0135972207840437,0.0052635503986859,0.0052534052833321,0.0002028916860589,0.0049095653659059,0.0053606686383059,0.0006894903374309,0.2203764402208819,10.286
0.8303448474307817,0.7850953876250816,0.2176365214755507,0.1468222213388331,0.1606514575131784,-0.011730180251763,-0.2098631659428727,-1.0009605105890482,0.0052279538928758,0.0052276300944944,0.0004477597935574,0.0048901575235156,0.0053487999058254,-0.0003906150023837,0.2179470918473718,10.32
0.8299542324283982,0.7850512628184892,0.2173720460636941,0.1467064660289992,0.1603989377620651,-0.0094445429401903,-0.0079422045602588,0.0686377571042839,0.0052578056323528,0.0052581371993793,-4.41248065923272e-05,0.0048860981092277,0.0053405776632307,-0.0003145032799083,0.2196772510745931,10.354
0.8296397291484894,0.7847639703781444,0.2240007048893437,0.1512321879006799,0.1652426734645028,-0.0087530926890286,0.1990588235930814,0.0207642718066603,0.0052775524222365,0.0052745168325962,-0.0002872924403448,0.0050367646459887,0.005501910243212,-0.0002914779865446,0.2196772510745931,10.388
0.829348251161945,0.7839258109784311,0.1971985182128346,0.133179313413033,0.1454322043571189,-0.0292527450159359,-0.8048704707660382,-0.6156051749822028,0.0049710268089688,0.004963048477544,-0.0008381593997133,0.0044371684260333,0.0048407873115006,-0.0009741164090306,0.2194788234060847,10.422
0.8283741347529143,0.7833772377205592,0.2062414511091913,0.1394346157434917,0.1519655358562913,-0.0113952266676507,0.2715595464371377,0.5362618122608173,0.0049638132933136,0.0049470826600446,-0.0005485732578718,0.004644069187837,0.0050596295813266,-0.0003794610480327,0.2194788234060847,10.456
0.8279946737048816,0.7829750827445525,0.2125683200655135,0.1437714750667645,0.1565728381699754,-0.0120029500874385,0.1899960647544196,-0.0182499525461817,0.0050209583750278,0.0049999266034224,-0.0004021549760067,0.0047885665279957,0.0052129787012038,-0.0003996982379117,0.2081967775958848,10.49
0.8275949754669698,0.7842289844300652,0.2178593153408621,0.1474141897473789,0.1604111527977808,0.0635106010017402,0.158888747007467,2.2676742068822464,0.0052317644359414,0.0052104052725772,0.0012539016855126,0.0049031731470165,0.0053469398835672,0.0021149030133579,0.2195462308273102,10.524
0.8297098784803278,0.786370658486595,0.2181518775733885,0.1472721120771106,0.1609383940927137,0.062509385643732,0.0087856526284182,-0.0300665272675128,0.005280279201743,0.0052794257835653,0.0021416740565298,0.0048985126331524,0.0053644103156218,0.0020815625419362,0.2195462308273102,10.558
0.831791441022264,0.7885082119119936,0.2249461108349947,0.1515130642040646,0.1662664853639624,0.0639759187677044,0.2040310288770644,0.0440400337529255,0.0052672670911482,0.0052889805454376,0.0021375534253985,0.0050394139787876,0.0055421073860409,0.0021303980949645,0.2198814944455747,10.592
0.832697027971542,0.7931744436993261,0.1955237480437188,0.1315646230534306,0.1446384665636094,0.0547320986739461,0.6496249545609014,2.7481445693705577,0.0047029383863217,0.0047671089976457,0.0018535555937067,0.0043766498084815,0.0048205056735235,0.0018225788858424,0.1937293996201307,10.66
0.8345196068573841,0.7949344247189674,0.2015153983406565,0.1353243848755374,0.1493176701748687,0.0549302500420567,0.1799294383464761,0.0059504915348509,0.0047020480244102,0.0047814779277604,0.0017599810196412,0.0045016894322937,0.0049764535782676,0.0018291773264004,0.1970501459018433,10.694
0.8363487841837847,0.794914847872927,0.2175299763422223,0.1457836355606648,0.1614509901182494,0.0797216757140233,0.4809182583052793,0.7444872574164152,0.0048598430613044,0.0049540559666443,-1.9576846040370025e-05,0.0048473854399047,0.0053828163392366,0.0026547318012769,0.1970501459018433,10.728
0.8390035159850617,0.7924512475139858,0.2180559325083637,0.1457059595613199,0.1622287368205988,0.077289994994145,0.0157944794637073,-0.0730234450413904,0.004977145952407,0.005064955762323,-0.0024636003589412,0.0048449831962745,0.0054085157463834,0.002573756833305,0.208892120583727,10.762
0.8415772728183666,0.7904962047718824,0.2247110388582711,0.1497221542185088,0.1675658900878472,0.0792065180516729,0.199853043540762,0.0575532449708087,0.0049735733739184,0.0050476776691683,-0.0019550427421033,0.0049783130491722,0.00558657532032,0.0026375770511207,0.208892120583727,10.796
0.8442148498694872,0.79072414910041,0.2178954404978121,0.1447519389507438,0.1628658931751388,0.0392982678815066,-0.2046726234372064,-1.198445951056044,0.005043356587874,0.0050970031590773,0.0002279443285275,0.0048166214156685,0.0054266471318647,0.0013086323204541,0.2084717273449247,10.83
0.8455234821899413,0.7923411611514485,0.2175720906309468,0.1443241927097652,0.1628132120566249,0.0391718706263577,-0.0097102062121712,-0.0037957133678346,0.0051917531970819,0.0052565122271328,0.0016170120510384,0.0048023900588435,0.0054248732480435,0.0013044232918577,0.2119105906342399,10.864
0.8468279054817991,0.7933838611500049,0.2239906644812866,0.1483631181741235,0.1678100203814402,0.0409308040146717,0.1927499654756674,0.0528208224718903,0.005226906605698,0.0053080717071227,0.0010426999985564,0.0049366118403829,0.0055915008661917,0.0013629957736885,0.2119105906342399,10.898
0.8481909012554878,0.7934584313503011,0.2175289962700771,0.143860888640244,0.1631652810432003,0.0030489983466405,-0.1940440904267099,-1.1375917618027376,0.0052351772666725,0.0053220980916803,7.457020029622008e-05,0.0047902235281879,0.0054337071919479,0.0001015316449431,0.219097007022054,10.932
0.8482924329004309,0.7935335720666105,0.2176755994305955,0.1439412650048879,0.1632898613394649,0.0023334275840927,0.0044024973128631,-0.0214886114879224,0.0052388305841302,0.0053254650446883,7.514071630931873e-05,0.0047929645869355,0.0054377987820522,7.77031385502891e-05,0.219097007022054,10.966
0.848370136038981,0.793341511254264,0.2244562606197115,0.1484119954076994,0.1683879228165989,0.0019441069696553,0.2036234591326132,-0.011691309742866,0.005244568404463,0.0053316378469461,-0.0001920608123464,0.0049418675315381,0.0056075398486969,6.473876208952234e-05,0.2197437465151819,11.0
0.8484348748010708,0.7926129561016417,0.2180293595738345,0.14415189564071,0.1635757702698241,-0.0203444199705127,-0.1930000314077171,-0.6693251333383817,0.0052555549930402,0.0053372404209244,-0.0007285551526222,0.004802034497439,0.0054455070136432,-0.000677469185018,0.2203331118997317,11.034
0.8477574056160524,0.7918668665149102,0.2182189411152746,0.1443881198131755,0.163620222216839,-0.0214353912780245,0.0056931393825858,-0.03276190112648,0.0052641294279396,0.0053377549536037,-0.0007460895867315,0.0048100001764078,0.0054468973149121,-0.0007137985295582,0.2205217830719095,11.068
0.8470436070864942,0.7913929649192648,0.2250107952044038,0.149002449762564,0.1686064290686234,-0.022675162139596,0.2039595822561318,-0.0372303562033482,0.0052706582235406,0.0053365448333855,-0.0004739015956454,0.004963830374987,0.0056127826015695,-0.0007550828992485,0.2205217830719095,11.102
0.846288524187246,0.7913598759465513,0.2185490294419695,0.1448470743002196,0.1636551353813669,-0.001005071866354,-0.1940470198929207,0.6507534616589186,0.0052720494719009,0.0053351608342295,-3.308897271347977e-05,0.0048234303464605,0.0054496958524948,-3.346889314959079e-05,0.2207032294962721,11.136
0.8462550552940962,0.7912736254387055,0.2185908702973104,0.1448802833601476,0.1636816179991477,-0.0014967773586326,0.0012564821423667,-0.0147659306990562,0.0052725133732252,0.0053342368792108,-8.62505078458309e-05,0.0048245808346992,0.0054505382206009,-4.984268604246723e-05,0.2206154239146773,11.17
0.8462052126080537,0.7911942143401731,0.2251201327914681,0.1492162282381437,0.1685633157553281,-0.0028150848076117,0.1960739487735068,-0.0395888122816543,0.0052658691948419,0.0053254437134107,-7.941109853237815e-05,0.0049690930132341,0.0056129878995981,-9.374232409347094e-05,0.2206154239146773,11.204
0.8461114702839603,0.7908198334254473,0.2182917899253324,0.1447055238568464,0.1634368896978925,0.0040536978150263,-0.2050553413253973,0.2062697484275699,0.0052350499228783,0.0052955084854886,-0.0003743809147258,0.0048182582581327,0.0054428341411101,0.0001349881372403,0.2190644362092953,11.238
0.8462464584212008,0.7908480995738033,0.2179682934222459,0.1444690475156716,0.1632141882537205,0.0042723104604259,-0.0097146097022971,0.0065649443062959,0.0052148927692243,0.0052772122126643,2.826614835604868e-05,0.0048103644048303,0.0054354350615131,0.0001422679383321,0.2190644362092953,11.272
0.8463887263595327,0.7924979510472929,0.2242298959982728,0.1485953393134632,0.1679240048168009,0.004825864195608,0.1880361133942011,0.0166232352907526,0.0052049750240033,0.005272926708385,0.0016498514734896,0.0049477052518726,0.0055923290521209,0.0001607012777137,0.2179686716171257,11.306
0.8465494276372469,0.7958390362651401,0.217562136796581,0.1441504841826199,0.1629537396852569,0.0944415696442973,-0.2002330090598145,2.691162325786465,0.0052042937083287,0.0052957640424236,0.0033410852178471,0.0047916022997599,0.0054339588454562,0.0031449042691551,0.2186792876164632,11.34
0.8496943319064019,0.7991549693342662,0.2174169333339219,0.1435414330832574,0.1632972133526221,0.0960129391356488,-0.0043604643441167,0.047188273013557,0.0051908567761675,0.0053178991311628,0.0033159330691261,0.0047711602668787,0.0054454891092178,0.0031972308732171,0.2186792876164632,11.374
0.852891562779619,0.8017476820645939,0.2240979418494568,0.1474134223727735,0.1687873527415747,0.0996851926900251,0.2006308863523988,0.1102778845158046,0.005180707685608,0.0053415449932101,0.0025927127303276,0.004899458414783,0.0056288175668294,0.0033195169165778,0.2185585707298268,11.408
0.8562110796961968,0.8037457291215606,0.2176627895724135,0.1426353365346396,0.1644148738286621,0.0590167639506973,-0.1932478161274248,-1.2212741363161497,0.0051782544827341,0.0053614370263728,0.0019980470569667,0.0047443049393743,0.0054797385908473,0.0019652582395582,0.2192116778509871,11.442
0.8581763379357552,0.8057284140625202,0.2178265957179483,0.1424190430883724,0.1648188155759615,0.0581007448480049,0.0049191034695125,-0.0275080811619326,0.0051721566436637,0.0053765176697104,0.0019826849409595,0.0047371727892562,0.0054931104521621,0.0019347548034385,0.2192116778509871,11.476
0.860111092739194,0.8075016664397235,0.2246168419686179,0.1465295321037189,0.1702404826045213,0.0594221948593705,0.2039112988189076,0.039683183524492,0.0050388554103679,0.0052583010964677,0.0017732523772033,0.004873750196235,0.0056738931754897,0.001978759088817,0.2195953040724168,11.51
0.8620898518280109,0.8086982306310295,0.2067753911322666,0.1345802318503808,0.1569847877120569,0.0341278772132664,-0.5357793043949348,-0.7595891185016257,0.004895040618658,0.0051229803385215,0.0011965641913059,0.0044784846164065,0.0052301950678721,0.0011364583112017,0.2083853745269624,11.544
0.8632263101392121,0.8098727210328306,0.2068775385339148,0.1344681330060604,0.1572152573884477,0.0347348015600022,0.0030674895389861,0.0182259563584345,0.004893378213941,0.0051330163110185,0.001174490401801,0.0044746943293646,0.0052379127466205,0.001156668891948,0.2083853745269624,11.578
0.8643829790311601,0.8118948285120955,0.2132921151722412,0.1384499603987682,0.1622502229897638,0.035049508790952,0.192629929078869,0.0094506675960883,0.0048694950422694,0.0051210587494325,0.0020221074792649,0.0046071617500859,0.0054056795470642,0.0011671486427387,0.2085616186807537,11.612
0.8655501276738988,0.8144449727819655,0.206103992018502,0.1336010013488906,0.1569382934931321,0.0709591881357317,-0.2158595541663425,1.0783687490924851,0.0047576678386547,0.0050280884149314,0.0025501442698699,0.0044426691062152,0.0052313523490232,0.0023629409649198,0.2073661730746739,11.646
0.8679130686388188,0.8153340096364656,0.1954730276835916,0.1263577222331911,0.1491423165430586,0.0232279754576331,-0.3192481782255374,-1.433369750093053,0.0046086486192626,0.0048836369222478,0.0008890368545001,0.0042057286031528,0.0049681187671573,0.0007734915827391,0.2073661730746739,11.68
0.8686865602215583,0.8145606445396852,0.2014414680544448,0.1300969213118123,0.1537968013877988,0.0242650913347753,0.1792324435691668,0.0311446209352024,0.0045939545661481,0.0048816753410307,-0.0007733650967803,0.004330093552787,0.0051232375765028,0.000808027541448,0.195906424690901,11.714
0.8694945877630058,0.8126220682457976,0.2281850581453567,0.1472279125403669,0.1743340544179647,0.0633924588827095,0.8031108135408962,1.1749960224604863,0.0046783356849458,0.0049605359378637,-0.0019385762938876,0.0048964854637782,0.0058105558907425,0.0021109688807942,0.1996026372166843,11.748
0.8716055566438001,0.8130843125627699,0.2180165578259925,0.1403151390198097,0.1668618627732108,0.0136498263909441,-0.3053603699508743,-1.4937727475004632,0.0047567787916877,0.0050305709509081,0.0004622443169722,0.0046711613649744,0.0055576204054489,0.0004545392188184,0.1996026372166843,11.782
0.8720600958626186,0.8163488733247758,0.2245826113781736,0.1444628970825494,0.1719529607187864,0.014567888081501,0.1971787853507819,0.0275694201368459,0.0049147290287141,0.0052119010974329,0.0032645607620058,0.0048091534943126,0.0057272605906882,0.0004851106731139,0.202219879575144,11.816
0.8725452065357331,0.81810636784326,0.2164375546515456,0.1391431772493717,0.1657841708019518,0.0712725751905369,-0.2445962980969375,1.7028434567278028,0.0048849095245169,0.0052095236078057,0.0017574945184841,0.0046268428233754,0.0055261642787332,0.0023733767538448,0.2153639178206704,11.85
0.8749185832895776,0.8189591466399558,0.2061719327849783,0.1321684445814513,0.1582351671570306,0.0246550221318319,-0.3082769329299487,-1.399926518279429,0.0048256216705215,0.0051579220474431,0.0008527787966958,0.0043989794762853,0.0052710924306284,0.00082101223699,0.2077333562782191,11.884
0.8757395955265679,0.8210175632277383,0.2123361070848926,0.1359862030942072,0.1630778186633241,0.0256147300841314,0.1851103393367677,0.0288200586276115,0.0047972364520758,0.0051406586556121,0.0020584165877824,0.0045259557808923,0.0054324788007125,0.0008529705118015,0.2078205899956366,11.918
0.8765925660383695,0.8222493937577324,0.2053433975927917,0.1313733015720667,0.157819411255416,0.0651228609845009,-0.2099912760390686,1.186430357368454,0.00460622429668,0.0049553503090065,0.001231830529994,0.0043689630777931,0.0052601806316299,0.0021685912707838,0.2066638280495922,11.952
0.8787611573091532,0.8228784210700697,0.1950562797281662,0.1244664808572899,0.1501833792548114,0.0178642019614036,-0.3089224583971611,-1.419178949642562,0.0045493949719985,0.0049015686660456,0.0006290273123372,0.004143183235576,0.0050023910608234,0.0005948779253147,0.1966136824764816,11.986
0.879986268689513,0.8229975644130242,0.2284409034487381,0.1455538006486985,0.1760662871909174,0.1357992407425875,0.824478271429248,3.509709043893808,0.0048068571695052,0.0051835125238604,0.0001191433429544,0.0048335947162686,0.0058740072651105,0.0045221147167281,0.1966136824764816,12.02
0.8845083834062404,0.8257592902438363,0.2183448866475779,0.13835858126345,0.1689123811800336,0.0901423609696608,-0.3031836877225262,-1.3710774706584594,0.0050666246950883,0.005475614051958,0.0027617258308121,0.0045988210639977,0.0056317466043435,0.0030017406202897,0.2194392793244243,12.054
0.8875101240265302,0.8288528520971389,0.2251230276699256,0.1421302722031024,0.1745833992988626,0.0930480787889068,0.203547778448878,0.0872587933707501,0.0050564386545193,0.0054981285943427,0.0030935618533025,0.0047238506464268,0.0058210097071323,0.0030985010236705,0.2194392793244243,12.088
0.8906086250502012,0.8314266976259875,0.2069592054540077,0.1301647084127052,0.160901402747116,0.0191959424197582,-0.54546012660414,-2.2177818729474046,0.0048927036159212,0.0053524210236735,0.0025738455288486,0.0043327047143755,0.005359456102742,0.0006392248825779,0.2197514101709924,12.122
0.8912478499327792,0.8319495555772457,0.2070285963284423,0.130105437776975,0.1610385505355373,0.0203445648227951,0.0020838100430805,0.0344931652563628,0.004776004868825,0.0052384563191829,0.0005228579512581,0.0043306268908649,0.0053641052792336,0.000677474008599,0.2197514101709924,12.156
0.8919253239413782,0.8319879815351121,0.2131024313623813,0.1338101590787279,0.1658538138840466,0.0193728137694927,0.1823974484666355,-0.0291817133123841,0.00474333540378,0.0052115036949103,3.8425957866405895e-05,0.0044540271628658,0.0055244248197431,0.0006451146985241,0.2082094742169754,12.19
0.8925704386399023,0.8317737841805015,0.1953244667300731,0.122549018665741,0.1520966315453808,-0.0157287958165369,-0.5338728117810249,-1.05410238997086,0.0045969270043371,0.0050477942732105,-0.0002141973546105,0.0040821449523187,0.0050638001342219,-0.0005237689006906,0.1968655593496148,12.224
0.8920466697392113,0.8315343647024309,0.1948715166473622,0.1223442940810285,0.1516798658565399,-0.0171756654454489,-0.0136021045859154,-0.0434495384057647,0.0044775684058808,0.0049182056415773,-0.0002394194780706,0.0040754458081077,0.005049825348451,-0.0005719496593334,0.1968655593496148,12.258
0.891474720079878,0.8318150991497493,0.20056000892672,0.1260049100721708,0.1560355081973014,-0.0149138108285167,0.1708255939747088,0.0679235620700353,0.0044582140784472,0.004893695812753,0.0002807344473183,0.0041971883461253,0.0051949929883374,-0.0004966299005896,0.1952358217636186,12.292
0.8977642469838489,0.8389852947312083,0.2241976994505247,0.1397558193524381,0.1753080699683745,0.1336157922570846,-0.8352125819665789,-2.10728829947026,0.0049066341426897,0.0054340411020521,0.0049049781499507,0.004640792743491,0.0058481511958239,0.0044494058821609,0.2054383285628862,12.36
0.90221365286601,0.841294306585931,0.2242571659515513,0.1390112835464567,0.1759748264024949,0.0622006706752243,0.0017857808116109,-2.1445982457015096,0.004966717015717,0.0055437627545504,0.0023090118547226,0.004622929979797,0.0058648096337934,0.0020712823334849,0.2191332841638184,12.394
0.9042849351994952,0.8461939785303125,0.212965079950122,0.1316651851100902,0.1673869896619434,0.1493335240743512,-0.339101681724603,2.616602204177985,0.0048198397546133,0.0054163480199005,0.0048996719443815,0.0043705033212931,0.0055849201479001,0.0049728063516758,0.2191332841638184,12.428
0.9092577415511708,0.8488538471863085,0.20650997150783,0.1268656004245861,0.1629462726209901,0.0758511065614135,-0.1938471003691306,-2.206679204592724,0.0046756232871025,0.0052966944159538,0.0026598686559959,0.0042176990603872,0.0054314934294136,0.002525841848495,0.2134876059666675,12.462
0.911783583399666,0.851597251929246,0.2128801081191018,0.1303542876286093,0.1683024067850436,0.0780649195363937,0.1912953937318869,0.0664808701195277,0.0046727144173788,0.0053208004566924,0.0027434047429374,0.0043334378702171,0.0056101603267705,0.0025995618205619,0.2079291881155154,12.496
0.9143831452202278,0.8577026182708558,0.217973199757883,0.1330245438439762,0.1726753791013415,0.2083755244631489,0.1529456948582939,3.9132313791818367,0.004824934941126,0.0055386211561867,0.0061053663416098,0.0044096597887481,0.0057654679804926,0.0069389049646228,0.2079291881155154,12.53
0.9213220501848508,0.8648555614511817,0.2184074661000035,0.1320858032682494,0.1739401098746505,0.2089843785843431,0.0130410312949103,0.0182839075433706,0.0048425631341797,0.0056367670358785,0.0071529431803258,0.004378194409302,0.0058075186438014,0.0069591798068586,0.2185892093066369,12.564
0.9282812299917094,0.8721746966119756,0.2250743948925163,0.1348670304761364,0.1801925839949615,0.213304481446525,0.200208071847231,0.1297328186841395,0.0047829058066124,0.0056491885780765,0.0073191351607938,0.004469648315224,0.0060163687745911,0.0071030392321692,0.2185892093066369,12.598
0.9353842692238789,0.8800711316368979,0.201532095961344,0.1196111530233379,0.1621985134796248,0.1212903423804699,-0.7069759438790478,-2.763187359340993,0.0045801348531526,0.0054965745269337,0.0078964350249223,0.0039720650042546,0.0054092893849041,0.0040389684012696,0.2185781664584187,12.632
0.9394232376251486,0.8865875598685359,0.2069156070968186,0.1221327018562599,0.1670259608490098,0.1790219821204354,0.1616670010653036,1.7336828750740387,0.0044901116759819,0.0054678970833867,0.006516428231638,0.004050346308021,0.0055741050005398,0.0059614320046105,0.2078891871407212,12.666
0.9453846696297584,0.8919437958825699,0.2129818619008422,0.1246861976279028,0.1726691217903333,0.1820867119086548,0.1821698139346406,0.0920339275741568,0.0044240086858771,0.0054545099431857,0.005356236014034,0.0041345204718561,0.0057624863492828,0.0060634875065582,0.2078891871407212,12.7
0.9486354837666476,0.8952145509663244,0.2177363486193146,0.1268951036065349,0.1769371362681065,-0.085708255172971,-0.0029184749138423,-0.0373450275415414,0.0044448138634789,0.0055475229643109,0.0014595385296676,0.0042339354478553,0.0058860216829991,-0.0028540848972599,0.2084956662456283,12.768
0.9457813988693876,0.8960320707299618,0.2243785516246443,0.1312859949733636,0.1819607703683051,-0.0870675384067613,0.1994655557156056,-0.0408193163300401,0.0044126727283131,0.005516999770855,0.0008175197636374,0.004380525505104,0.0060530024485237,-0.0028993490289451,0.2099137691055657,12.802
0.943883665155151,0.8933572552335132,0.2124642083785366,0.1246415541540362,0.1720625549618065,-0.0884916226714472,0.1810612841065953,0.0573980724802974,0.0044745520207454,0.0055731066292485,-0.0019977136882162,0.0041589279083064,0.0057236116309457,-0.0029467710349591,0.204644090098386,12.904
0.940936894120192,0.8955654806007838,0.217690054758415,0.1282262276204809,0.1759175786865609,0.0733853594003837,0.1569323237200716,4.861170632787717,0.0046518266072468,0.0057936263072961,0.0022082253672706,0.0042626977551306,0.0058633203465162,0.0024437324680327,0.2193137672009009,12.938
0.9433806265882252,0.898064409590001,0.2179754234409895,0.1279634766772756,0.1764614231523226,0.073193081304228,0.0085696301073433,-0.0057741170016717,0.0046557126699617,0.0058287192627073,0.0024989289892172,0.0042539446366407,0.005881405937202,0.0024373296074307,0.2193137672009009,12.972
0.945817956195656,0.900996795932476,0.2247580911630621,0.1315014037778675,0.1822733670828341,0.0747922906011154,0.2036837153775543,0.048024303209832,0.0045551172723807,0.005733575173862,0.002932386342475,0.0043713573933826,0.0060752048603115,0.0024905832770171,0.2195943256326686,13.006
0.9460976135257032,0.8992391573631663,0.2178531654981492,0.1274120586572985,0.1767092782687799,-0.1112369913955492,0.842119361763361,-1.346631195612251,0.0046215690967454,0.0058399493683032,-0.0030827936520779,0.0042536365614589,0.0058766008144021,-0.0037041918134717,0.2001619269003447,13.074
0.9423934217122314,0.8957187569721837,0.2249615881340514,0.1322444593111545,0.1819865904875823,-0.1179065576083203,0.2134661452222898,-0.2002872736567883,0.0046812726869014,0.0058705386792756,-0.0035204003909825,0.0044155501387348,0.0060515481676977,-0.003926288368357,0.2192056383630856,13.108
0.9384671333438748,0.8922352190208982,0.2183902307790514,0.1290741321227574,0.1761651535249928,-0.0821516488399235,-0.1973380587087095,1.073720984035941,0.0046760826237373,0.0058264466796329,-0.0034835379512855,0.0043061137221574,0.0058604672238731,-0.0027356499063694,0.2200960076608873,13.142
0.9357314834375048,0.8885895318352426,0.218282847230776,0.129491871614552,0.1757249458128659,-0.0828276081971203,-0.0032247311794401,-0.0202990797957002,0.0046870168997832,0.005793767137785,-0.0036456871856556,0.0043200703335651,0.0058457408213805,-0.0027581593529641,0.2200960076608873,13.176
0.932973324084541,0.8850163131518739,0.2246308343375417,0.1337559512365481,0.1804670530705986,-0.0856835961672987,0.1906302434464151,-0.0857654045098631,0.0046755453632414,0.0057412595630266,-0.0035732186833686,0.0044625651714038,0.0060032464262011,-0.002853263752371,0.2205750166054642,13.21
0.93012006033217,0.8787997100700581,0.1950354364283778,0.1165800400588145,0.1563582927851701,-0.08520369019576,-0.8887506879628791,0.0144115907368978,0.0045086449202582,0.0054851038623793,-0.0062166030818158,0.0038894312993041,0.0052012656731748,-0.0028372828835188,0.208497496027103,13.244
0.9272827774486512,0.8736997061533868,0.1948182201029898,0.1168928709698564,0.1558531218825004,-0.0594333094387935,-0.0065230127744123,0.7738853080170127,0.0044668023572391,0.0053644265339811,-0.0051000039166713,0.0038976006953862,0.0051861025972106,-0.0019791292043118,0.2065350005455593,13.278
0.9253036482443396,0.8697407918968567,0.2008147860503033,0.1208085817920007,0.1604115484054517,-0.0598587481150176,0.1800770554748794,-0.012775936222945,0.0042695897566116,0.0050838275216946,-0.00395891425653,0.0040281798886845,0.0053377421617545,-0.00199329631223,0.2000100861133131,13.312
0.9233103519321092,0.8676182921435361,0.1836190120063181,0.1107558886777441,0.1464550261799831,-0.0844059902020125,-0.5163896109304873,-0.7371544170268759,0.0040721315485048,0.0048129371839669,-0.0021224997533205,0.0036949589356813,0.0048718091401093,-0.002810719473727,0.2000100861133131,13.346
0.920499632458382,0.8657875975567996,0.1831794622822904,0.1109009813116727,0.1457933048741851,-0.0546342789265288,-0.0131996914122427,0.8940453836481592,0.0040792287142401,0.0048046628713855,-0.0018306945867365,0.0036973560512807,0.0048516014190253,-0.0018193214882534,0.1853313115988512,13.38
0.9186803109701288,0.8635990852103721,0.1888034868484234,0.1145790919217232,0.1500612819501289,-0.0551240637874057,0.1688896266105999,-0.0147082540803875,0.0039439247594894,0.0046275298047218,-0.0021885123464274,0.0038200052811081,0.0049935839364388,-0.0018356313241206,0.1854698613568933,13.414
0.916844679646008,0.8619144231681651,0.1723904943040514,0.1048698809542553,0.1368239401385426,-0.073676553671586,-0.4928826589901511,-0.5571318283537617,0.0038498061770151,0.0044976766999962,-0.0016846620422069,0.0034976955787851,0.0045519926621794,-0.0024534292372638,0.1745296858911512,13.448
0.9143912504087446,0.8604597822028998,0.1720607542740487,0.10500402143456,0.1363050206115865,-0.04276830251842,-0.0099021030030837,0.9281757103052848,0.0038563423132551,0.0044918098646704,-0.0014546409652653,0.0034998079281972,0.0045365096697207,-0.0014241844738633,0.174079062083222,13.482
0.9129670659348808,0.8584457953059597,0.1773970712538776,0.1084606654654112,0.140378078545952,-0.0437046904230208,0.1602497591540208,-0.0281197568949179,0.0037109251112148,0.0043090482368228,-0.0020139868969401,0.0036150818441176,0.0046720055541434,-0.0014553661910865,0.174079062083222,13.516
0.9115116997437944,0.8565777269414706,0.1610969838160405,0.098680208113978,0.1273359914604178,-0.0830570764774455,-0.4894921152503622,-1.1817533349677076,0.0036249208854794,0.004190236150958,-0.001868068364489,0.0032918574500063,0.0042357801637036,-0.0027658006466989,0.1633102835597716,13.55
0.9087458990970952,0.8548840301622603,0.1609862831186481,0.0989639645623315,0.1269752616475474,-0.0494577903125326,-0.0033243452670377,1.0089875725199056,0.0036328189925087,0.0041846729027574,-0.0016936967792102,0.0032989273417994,0.0042256019702724,-0.0016469444174073,0.1633102835597716,13.584
0.9070989546796876,0.8532614500941864,0.165947835633696,0.1022294342580267,0.1307204150956996,-0.0509053005835945,0.1489955710224594,-0.043468776908766,0.0034856043135731,0.0040018060334257,-0.0016225800680739,0.0034078733880804,0.0043501451846,-0.0016951465094336,0.1630531812925185,13.618
0.905403808170254,0.8516326589292973,0.1493534597960395,0.0922060414920393,0.1174925608939371,-0.0766242037589882,-0.4983296047344309,-0.7723394346965081,0.0033865158415093,0.0038748255301404,-0.0016287911648891,0.0030754003146708,0.0039086193759591,-0.0025515859851743,0.1513167593035204,13.652
0.9028522221850804,0.8500870636620168,0.1496279607626527,0.092675551928434,0.1174724168336979,-0.0438311041085622,0.0082432722706663,0.9847777672800592,0.003392907205906,0.0038687774139927,-0.0015455952672804,0.0030889005021125,0.0039096166805267,-0.0014595757668151,0.151375695909756,13.686
0.9013926464182652,0.8476588032297481,0.1541412874975,0.0956475156371986,0.1208763387260667,-0.0456539925756666,0.1355353373828036,-0.0547413954085394,0.0034038175678734,0.0038692747872539,-0.0024282604322687,0.0031880702318497,0.0040227994685827,-0.0015202779527697,0.151283163861857,13.72
0.8974692580731158,0.844469960953352,0.1494128730321242,0.0931724293460805,0.1168037030126327,-0.0734340561956966,-0.0039766250838115,-0.0380954638758613,0.0033815699316781,0.0038205242105444,-0.003188842276396,0.0031073456933323,0.0038858049222462,-0.0024453540713166,0.151283163861857,13.754
0.8950239040017989,0.8412636521370752,0.1537198307661367,0.0961517796760228,0.1199359063662892,-0.0754985569755004,0.1293380700904659,-0.0619970204145294,0.0033861763599492,0.0038011013832084,-0.0032063088162768,0.00320682128453,0.0039898768472307,-0.0025141019472841,0.1495819501545948,13.788
0.8925098020545148,0.8375275599142942,0.1376422051091631,0.0863649436054771,0.1071749650960321,-0.0607493082002331,-0.4828115812904975,0.442920383641659,0.0032995671676931,0.0036860379444372,-0.003736092222781,0.0028795157681967,0.0035660511023452,-0.0020229519630677,0.1429888053883,13.822
0.8904868500914471,0.8343283346953783,0.1374242703694697,0.0864444882651654,0.106830616094614,-0.0614484978335191,-0.0065445867775793,-0.0209966856842626,0.0032388092911115,0.003583435108788,-0.0031992252189159,0.0028821945182704,0.0035545480754183,-0.0020462349778561,0.1429888053883,13.856
0.8884406151135913,0.832120609321226,0.1415648866599504,0.0892740756092022,0.1098669948581787,-0.0621771230019195,0.1243428315459663,-0.0218806356877005,0.0031900206035739,0.0035119290682346,-0.0022077253741522,0.00297656622683,0.0036555280730878,-0.0020704981959639,0.1414634459535311,13.89
0.886370116917627,0.8299769350493026,0.1371281851307956,0.0866963541144602,0.1062444414570751,-0.0679985690296617,-0.1332342801548001,-0.1748181990312976,0.0031730200722843,0.0034779282376335,-0.0021436742719234,0.0028909473137256,0.0035347045972693,-0.0022643523486877,0.1414634459535311,13.924
0.8841057645689396,0.8277555528205703,0.1371868857876401,0.0869739216201255,0.1060932542159362,-0.0676945962205279,0.0017627824878225,0.0091283125866018,0.0031884751196067,0.0034791681543773,-0.0022213822287322,0.0029001668084929,0.0035296744026693,-0.0022542300541435,0.1390924286080367,13.958
0.8818515345147961,0.8254843126180677,0.1413570761241076,0.0898639449633597,0.109115967511538,-0.068952496762783,0.125230941035062,-0.0377747910587127,0.003194025158187,0.0034692822362731,-0.0022712402025026,0.002996592700195,0.0036301606201178,-0.0022961181422006,0.1390924286080367,13.992
0.8795554163725949,0.8234437877901546,0.1264280711293925,0.0805971037922267,0.0974072072785364,-0.0509485805629946,-0.4483184683097647,0.5406581441377892,0.0029770642462219,0.0032204503754735,-0.002040524827913,0.002686593146648,0.003241415457408,-0.0016965877327477,0.1390209794843335,14.026
0.8778588286398472,0.8214667030152101,0.1258302983271689,0.0803803903441928,0.0968104169251404,-0.0573318719667103,-0.0179511352019087,-0.1916904325440141,0.002948853006979,0.0031777921904028,-0.0019770847749445,0.002679702274752,0.0032212634908409,-0.0019091513364914,0.1275421460354172,14.06
0.8759496773033559,0.8194708273353853,0.1297299061360215,0.0830618622111738,0.0996522733913929,-0.0593584948934038,0.117105339605183,-0.0608595473481539,0.0029435356544913,0.0031595807670132,-0.0019958756798247,0.0027691962362053,0.0033157196629534,-0.0019766378799503,0.1275421460354172,14.094
0.8739730394234053,0.8179141178294541,0.1153503280172506,0.074030082228276,0.0884604154351652,-0.0420224182880442,-0.4318191627258516,0.5206029010618505,0.0027163919785524,0.0029049797055191,-0.0015567095059312,0.002467225018624,0.0029440370153302,-0.0013993465289918,0.1276490455261684,14.128
0.8725736928944139,0.8162906940549464,0.1146543575392898,0.0737063868028535,0.0878236314850135,-0.0471102328851064,-0.0209000143531767,-0.1527872251370028,0.0027011581362412,0.0028798618046246,-0.0016234237745077,0.0024566789337456,0.0029226313617849,-0.001568770755074,0.1166622073697029,14.162
0.8710049221393401,0.8145044647278529,0.1182056731001452,0.076131324855457,0.090424568170444,-0.0488670214323348,0.1066461129386002,-0.0527564128296822,0.0027092133214599,0.0028787084359236,-0.0017862293270934,0.0025375841868905,0.0030091059453297,-0.0016272718136967,0.1166622073697029,14.196
0.8693776503256432,0.8120946455930582,0.1148162916873621,0.0740911943923799,0.0877113205370207,-0.0694309678648012,-0.1017832256091036,-0.6175359289028949,0.0027215927612029,0.0028801262966475,-0.0024098191347946,0.0024705744410596,0.0029179632042612,-0.0023120512298978,0.116271302200209,14.23
0.8670655990957448,0.8096804908383393,0.1149194733747696,0.0743605546733168,0.0876184527905568,-0.070254782345546,0.0030985491713972,-0.0247391735959386,0.0027309267922861,0.0028757110597736,-0.0024141547547189,0.0024795805626776,0.0029148264280226,-0.0023394842521066,0.1166714539889524,14.264
0.8647261148436387,0.8070461732187184,0.1184980043021402,0.0768872575643945,0.0901672149276914,-0.0726835785656421,0.1074633912123301,-0.0729368234263102,0.0027414203346509,0.0028723836125423,-0.0026343176196208,0.0025639391672457,0.0029994990363407,-0.0024203631662358,0.1166714539889524,14.298
0.8623057516774022,0.8038131628255816,0.115094545956587,0.0748906788919847,0.0873964571596044,-0.0933955277460556,-0.1022059563229179,-0.621980455868274,0.0027559601588371,0.0028709357527663,-0.0032330103931368,0.0024983447136261,0.0029064506634691,-0.0031100710739436,0.1170729451937043,14.332
0.8591956806034586,0.8005701289122806,0.1151871908614246,0.0752226269149116,0.0872332811406649,-0.0943462957693178,0.0027821292744027,-0.0285515922901553,0.0027675052284257,0.0028638751578808,-0.0032430339133009,0.0025094360863758,0.0029009601116795,-0.0031417316491182,0.1171632599990696,14.366
0.8560539489543406,0.7981660998936025,0.1187534788388836,0.0778337454707945,0.08969000391529,-0.0976987090906369,0.107095735058826,-0.1006730727122855,0.0027683097175237,0.002846992854812,-0.002404029018678,0.0025966800788236,0.0029824883270267,-0.0032533670127182,0.1171632599990696,14.4
0.8528005819416222,0.7991276527263618,0.1151690112504827,0.0757669904169343,0.0867367529688194,0.0257628954728222,-0.107641669321346,3.707555692596373,0.0027570454202661,0.0028291891965399,0.0009615528327592,0.0025217652351858,0.0028894474463817,0.0008579044192449,0.1162150878584916,14.434
