Time,Theta_calculated,linear_velocity_x,world_velocity_x,world_velocity_y,angular_velocity_yaw,linear_acceleration_x,angular_acceleration_yaw,kinematic_delta_x,kinematic_delta_y,kinematic_delta_yaw
0.254,0.785385607612045,6.868061724847088e-06,4.856513995446278e-06,4.856392042282419e-06,-0.0002741318341032,0.0001456919313383,-0.0025707665990584,1.617206236774497e-07,1.617191474013593e-07,-9.128590075638648e-06
0.288,0.7853764790219694,-8.738998442282008e-06,-6.179539054403e-06,-6.179271061323935e-06,-0.0001938652752786,-0.0004686804854993,0.0024104071719106,-2.057767310981636e-07,-2.057716458198318e-07,-6.455713666778629e-06
0.321,0.7853700233083026,-3.526055150761843e-05,-2.493367668568408e-05,-2.493227345340145e-05,-0.0004508922924739,-0.000796443034995,-0.0077185290449041,-8.302872421846282e-07,-8.302488976496324e-07,-1.501471333938243e-05
0.353,0.7853550085949632,-7.068077281465482e-06,-4.998101053777111e-06,-4.997669688264784e-06,-0.0001241167188049,0.0008466208476322,0.0098130802903612,-1.66435019437081e-07,-1.6642414640694005e-07,-4.133086736203756e-06
0.387,0.785350875508227,0.0001842661107566,0.0001303019777273,0.000130289654899,0.0004543619085615,0.0057457714125547,0.0173717305515457,4.338968559866836e-06,4.338732812985102e-06,1.5130251555099765e-05
0.421,0.785366005759782,3.809306157269819e-05,2.693672833397945e-05,2.6934995946588977e-05,-0.0004300585711279,-0.0043895810565738,-0.0265591735642504,8.969882142531807e-07,8.969402045584318e-07,-1.4320950418561875e-05
0.454,0.7853516848093637,-7.710824291945934e-06,-5.452629558228509e-06,-5.452122720738805e-06,1.764611189470713e-05,-0.0013754920680073,0.0134445850757564,-1.8157023138297917e-07,-1.815580197271695e-07,5.876155260937475e-07
0.488,0.7853522724248896,-7.314346091720736e-06,-5.17226106515355e-06,-5.171786366756373e-06,0.00015222259634,1.190625225901496e-05,0.0040413358692307,-1.722336945923531e-07,-1.722230850931839e-07,5.069012458125002e-06
0.521,0.7853573414373478,-5.481099843603612e-06,-3.87588107914755e-06,-3.875564649939099e-06,0.0001921982757923,5.505243988339711e-05,0.0012004708544219,-1.290648065247559e-07,-1.290583363904038e-07,6.4002025838850045e-06
0.553,0.7853637416399317,-3.992184604536045e-06,-2.8229979731506106e-06,-2.8228036347366003e-06,0.000212383356436,4.4712169341368376e-05,0.0006061585778903,-9.400431985881133e-08,-9.400087376468745e-08,7.072365769321875e-06
0.5870000000000001,0.7853708140057009,-2.7581488252702534e-06,-1.950359076816548e-06,-1.9502523974652568e-06,0.0002306006151414,3.7058131509483225e-05,0.0005470648259864,-6.494589248460782e-08,-6.494446965148893e-08,7.679000484209998e-06
0.62,0.7853784930061852,-1.5152495272477483e-06,-1.071464291406581e-06,-1.0714221399920378e-06,0.0002304277070252,3.732430324391907e-05,-5.1924359207202926e-06,-3.56791760448084e-08,-3.567894213370332e-08,7.673242643941871e-06
0.654,0.7853861662488292,-4.616764795450377e-07,-3.264584859011215e-07,-3.264506528531487e-07,0.0002334901922294,3.163883026134266e-05,9.19665226476474e-05,-1.0870888826119491e-08,-1.0870985495772221e-08,7.775223401240621e-06
0.6880000000000001,0.7853939414722305,5.941391567387401e-07,4.201216004091668e-07,4.201180529801851e-07,0.0002406098467059,3.170617526377711e-05,0.0002138034377333,1.3989817591125341e-08,1.3990162864572704e-08,8.012307895308764e-06
0.7210000000000001,0.7854019537801256,1.64255846908106e-06,1.1614598295803631e-06,1.1614686343681734e-06,0.0002305903765346,3.1484063433703296e-05,-0.0003008849901286,3.867597820779189e-08,3.8677539627053084e-08,7.678659538604991e-06
0.754,0.7854096324396643,2.7760133118964203e-06,1.962915324360059e-06,1.9629603503939093e-06,0.0002246415371372,3.403768296742824e-05,-0.0001786438257497,6.536401507343219e-08,6.536764485373434e-08,7.48056318666938e-06
0.788,0.7854171130028509,4.188570762130613e-06,2.9617106645385458e-06,2.961822913162445e-06,0.0002218152772675,4.2419142649675446e-05,-8.487266875998017e-05,9.862336249633846e-08,9.863030555286621e-08,7.386448733008125e-06
0.8200000000000001,0.7854244994515838,5.536731786963971e-06,3.914957483567929e-06,3.915163698063304e-06,0.0002024355323325,4.048531606106179e-05,-0.0005819743223713,1.3036600778996756e-07,1.3037702741487096e-07,6.741103226673751e-06
0.8540000000000001,0.7854312405548106,7.185165789256764e-06,5.080511396319908e-06,5.08084750518743e-06,0.0001863311330752,4.950252259137518e-05,-0.0004836155933112,1.6917838023276157e-07,1.6919487097097e-07,6.204826731406879e-06
0.888,0.7854374453815418,9.314641335058547e-06,6.586187318589735e-06,6.586704775927724e-06,0.0001720008927238,6.394821458864218e-05,-0.000430337548092,2.1931665558995646e-07,2.1934065084254082e-07,5.727629727703114e-06
0.921,0.7854431730112696,-0.0001525456885057,-0.0001078612356628,-0.000107870945685,0.0021899661840864,-0.0048606705657895,0.0605995582991775,-3.591603062183144e-06,-3.592278550617872e-06,7.292587393007814e-05
0.953,0.7855160988851999,9.914435727662156e-06,7.009737891544415e-06,7.011391480283376e-06,0.000161877433832,0.0048786824094113,-0.0609035660737054,2.334207109635641e-07,2.334828962304441e-07,5.3905185466068725e-06
0.987,0.7855214894037463,8.49276420582432e-06,6.004550506714952e-06,6.006031723862272e-06,0.0001906839064792,-4.269283849362872e-05,0.0008650592386542,1.999483856988977e-07,2.0000400174849538e-07,6.3497740857581306e-06
1.021,0.7855278391778321,6.749430449369356e-06,4.771949113285472e-06,4.773186886252019e-06,0.0002057238626716,-5.23523650587076e-05,0.000451650336108,1.5890336530771418e-07,1.5894966278240361e-07,6.850604626964992e-06
1.054,0.7855346897824591,5.499584384027044e-06,3.888262452505776e-06,3.889324298315571e-06,0.0002230316427191,-3.7532914875144506e-05,0.0005197531545802,1.2947703254727037e-07,1.295166056465952e-07,7.426953702547504e-06
1.088,0.7855421167361616,4.5944732228107895e-06,3.248315464985238e-06,3.249250811350688e-06,0.0002447196150641,-2.718051535183947e-05,0.0006512904608121,1.0816710556008325e-07,1.0820185089196856e-07,8.149163181637498e-06
1.12,0.7855502658993434,3.6248699671126624e-06,2.562780240426369e-06,2.5635599696038937e-06,0.0002492536996676,-2.9117214885829643e-05,0.0001361586967998,8.533915587283619e-08,8.536797266389106e-08,8.300148198931891e-06
1.153,0.785558566047542,2.972739089684647e-06,2.101706768550786e-06,2.102381115394381e-06,0.0002585320834076,-1.9583509832673128e-05,0.0002786301423433,6.998565500290999e-08,7.001047113507615e-08,8.609118377474983e-06
1.187,0.7855671751659197,2.5233241950360504e-06,1.7839580630810803e-06,1.7845611848357378e-06,0.0002741517193658,-1.3495942782240142e-05,0.0004690581368835,5.9404786096448114e-08,5.9426904497593266e-08,9.12925225488376e-06
1.221,0.7855763044181746,2.034201888508992e-06,1.4381416891663598e-06,1.438654164521578e-06,0.000272172528305,-1.468835755336512e-05,-5.943516699302701e-05,4.788929963007755e-08,4.790800199170163e-08,9.063345192556862e-06
1.254,0.7855853677633671,1.7087553969279566e-06,1.2080463134933826e-06,1.2084987012758712e-06,0.0002770294111898,-9.773167915346405e-06,0.0001458523388845,4.0227251328485046e-08,4.0243697392537725e-08,9.225079392622516e-06
1.287,0.7855945928427597,1.4875447210720728e-06,1.0516463244036177e-06,1.052059554187762e-06,0.0002895756616252,-6.642963238915428e-06,0.0003767642773381,3.5019213810660435e-08,3.503419169589769e-08,9.642869532119996e-06
1.32,0.7856042357122919,0.0337042382231958,0.0238275836788543,0.0238374061137769,-0.0003527014249173,1.0120946149692134,-0.0192876001964724,0.000793453231371,0.000793790926501,-1.17449574497463e-05
1.353,0.7855924907548422,0.0670542993018263,0.0474053349046772,0.0474237627928688,4.356662994413153e-05,1.001503335694607,0.0118999415874305,0.0015785766783858,0.0015792322663907,1.45076877713958e-06
1.388,0.7855939415236193,0.1031203228931537,0.0729028026293553,0.0729313537675912,4.4885849490203415e-05,1.0830637715113347,3.961620258474133e-05,0.0024276310191511,0.0024286463756844,1.4946987880237738e-06
1.42,0.7855954362224074,0.1337808528706898,0.0945786849310791,0.0946160079030859,4.319074368073137e-05,0.9207366359620454,-5.090407836252395e-05,0.0031494283824139,0.0031507548714988,1.4382517645683549e-06
1.453,0.7855968744741718,0.1671439221496436,0.1181651130687623,0.1182120838366905,4.181043147985683e-05,1.0018939723409532,-4.145081684307922e-05,0.0039348460992149,0.0039365145364302,1.3922873682792326e-06
1.487,0.7855982667615402,0.2062426103695534,0.145806363258563,0.1458647276258363,3.975713730953124e-05,1.1741347813786744,-6.166048559536314e-05,0.004855287693888,0.0048573596064626,1.3239126724073904e-06
1.52,0.7855995906742125,0.2180174680279024,0.1541305745751408,0.1541926792893697,-4.376157706167074e-06,0.3535993290795491,-0.0013253241746455,0.0051324840400347,0.0051346802921621,-1.457260516153636e-07
1.553,0.7855994449481609,0.2180146053246872,0.154128573215656,0.1541906321842714,2.4681420558175243e-05,-8.596706352120624e-05,0.0008725999478781,0.0051324149090346,0.0051346146021935,8.218913045872357e-07
1.5870000000000002,0.7856002668394655,0.2246214035777813,0.1587992140699106,0.1588634147814758,1.2769346096524375e-05,0.1984023499427673,-0.0003577199538033,0.0052879462822153,0.0052902192313622,4.252192250142618e-07
1.62,0.7856006920586905,0.2180120657257194,0.1541265855188548,0.154189028268209,-0.0063169275420104,-0.1984786141760326,-0.1900809876308413,0.0051328908286246,0.0051340192401084,-0.0002103536871489
1.653,0.7853903383715417,0.218010277463982,0.1541577518373856,0.1541553392794602,-0.0062266731062478,-5.3701553675205205e-05,0.0027103434162953,0.0051339208499895,0.0051329050158693,-0.000207348214438
1.6880000000000002,0.7851829901571035,0.2246245923047553,0.1588677454971905,0.158799392028803,-0.00650682834438,0.1986280732964936,-0.0084130702141796,0.005290802392343,0.0052875130000373,-0.0002166773838678
1.721,0.7849663127732358,0.1948350636163466,0.1378286775602784,0.1377096861385234,0.0418843766911095,-0.8945804410933551,1.453189340405092,0.0045864378825469,0.0045889893857306,0.0013947497438139
1.754,0.7863610625170496,0.1945361206897183,0.1374252920815717,0.1376902006291637,0.0346780321140646,-0.0089772650639111,-0.2164067440554028,0.0045735562287185,0.004587782371109,0.0011547784693983
1.788,0.787515840986448,0.2005049802514055,0.1414778725087948,0.1420783540726796,0.0342283809584819,0.1792450318824981,-0.0135030377051839,0.0047084563684689,0.0047339522169981,0.0011398050859174
1.821,0.7886556460723654,0.2183611622511886,0.1539008697567532,0.154906808978188,0.0312519800211424,0.5362216816751695,-0.0893814095297149,0.0051221490881066,0.0051611268385677,0.001040690934704
1.854,0.7896963370070694,0.2178444337613937,0.1533757679611112,0.154699938988875,0.0253637570052514,-0.0155173720659127,-0.1768235139907201,0.0051051722417041,0.0051537283495807,0.0008446131082748
1.888,0.7905409501153443,0.2247003432608872,0.1580679162624835,0.1597021543686779,0.0258252797974968,0.2058831681529553,0.0138595433106705,0.005261307434558,0.0053204104717292,0.0008599818172566
1.92,0.791400931932601,0.2182765577056971,0.1534155626148784,0.1552685441144111,0.031740227866434,-0.1929064731288319,0.1776260681362514,0.005105939882331,0.0051732055049508,0.0010569495879522
1.953,0.7924578815205533,0.2184443764547413,0.1533691910065776,0.1555501104296897,0.0316486316267643,0.0050396020734011,-0.002750637827916,0.0051043985404849,0.0051825730427894,0.0010538994331712
1.987,0.7935117809537243,0.2251944772467974,0.1579393304150628,0.1605232708690548,0.0321328450328592,0.2027057294911723,0.0145409431259727,0.0052564516819517,0.0053483037294989,0.0010700237395942
2.02,0.794581804693319,0.2068051999321888,0.1448842568531523,0.147570128532513,0.0219093448176525,-0.5522305499882436,-0.3070120184746768,0.0048227909905244,0.0049159053837947,0.0007295811824278
2.053,0.7953113858757466,0.2069794762935013,0.144898558249328,0.1478002416236122,0.0224120217655685,0.0052335243637364,0.0150954038413201,0.0048232231221654,0.0049236086921336,0.0007463203247934
2.087,0.79605770620054,0.2130288164509194,0.1490199023670245,0.1522312232658004,0.0232898942260569,0.1816618665891319,0.0263625363510049,0.0049603328213542,0.0050712857965896,0.0007755534777276
2.12,0.7968332596782677,0.2176747400811932,0.1521491780784349,0.1556692650444258,0.0302382816786221,0.1395172261343492,0.208660283860815,0.0050638917876521,0.0051864000829033,0.0010069347798981
2.154,0.7978401944581658,0.2179239912712689,0.1521663929227826,0.1560008167814176,0.031080930900889,0.0074850207229943,0.0253047814494575,0.0050643864113703,0.0051975120916206,0.0010349949989996
2.187,0.7988751894571654,0.2243462843736698,0.1564844853292964,0.1607602599011856,0.0318273936574392,0.1928616547267542,0.0224162989955019,0.0052080282737639,0.0053561424531565,0.0010598522087927
2.221,0.799935041665958,0.2062472742179509,0.1437034701924429,0.1479434039657879,0.0215007827851726,-0.543513818490059,-0.3101084346026014,0.004783499636947,0.0049282880813498,0.0007159760667462
2.254,0.8006510177327043,0.2060182760610028,0.1434380718584701,0.1478818772286581,0.0220458129870306,-0.006876821529973,0.0163672733290683,0.0047746179225998,0.004926279289687,0.0007341255724681
2.287,0.8013851433051725,0.2124140710692917,0.1477791032453331,0.1525813692173304,0.0225669214976776,0.1920659161648345,0.0156489042236332,0.0049190707400439,0.0050828699092262,0.0007514784858726
2.32,0.8021366217910452,0.2063432730318862,0.1434441486617925,0.1483284279570343,0.0308902830788532,-0.1823062473695348,0.249950798233504,0.0047740868443202,0.0049418524851158,0.0010286464265258
2.353,0.8031652682175711,0.2065089506523784,0.1434065472317685,0.148595117384822,0.0307942161753095,0.0049753039186843,-0.0028848919983106,0.0047728379579122,0.0049507249488584,0.0010254473986378
2.388,0.8041907156162088,0.212953414804159,0.1477245838502018,0.1533838459650719,0.0312386936920417,0.1935274520054217,0.0133476731751411,0.0049165069624876,0.005110301490339,0.0010402484999449
2.4210000000000003,0.8052309641161539,0.2181285639226665,0.1511510389470138,0.1572686676493546,-0.0262608734053102,0.1554098834386653,-1.7267137266472057,0.0050355530921,0.0052349084002528,-0.0008744870843968
2.453,0.804356477031757,0.2185006960509238,0.1515466120803573,0.1574045061035544,-0.0271459952944196,0.0111751389867037,-0.0265802369101932,0.0050488048001867,0.0052393518094685,-0.0009039616433041
2.487,0.8034525153884527,0.2252407969031926,0.156367990217827,0.1621186856128029,-0.0282942036844919,0.202405430999065,-0.0344807324346043,0.0052095288007985,0.0053961638071725,-0.0009421969826935
2.52,0.8025103184057591,0.2070021787815378,0.1438465848748434,0.1488558431508424,0.0468447526307938,-0.5477062498995454,2.256425114573148,0.0047861608405711,0.0049606937643976,0.0015599302626054
2.5540000000000003,0.8040702486683646,0.2068792321104224,0.1435289071374363,0.1489915081289239,0.044444277862166,-0.0036920922256867,-0.0720863293882226,0.0047757770892859,0.0049650121989102,0.0014799944528101
2.588,0.8055502431211747,0.2129266062481877,0.147497347160877,0.1535652051373439,0.0460452272948791,0.1816028269599195,0.0480765595409349,0.0049076750322452,0.00511754648702,0.0015333060689194
2.62,0.8070835491900942,0.2179220705848069,0.1507166137343598,0.1573992731635611,0.0127397101490225,0.150013944042618,-1.0001656800557557,0.0050176854784037,0.0052425232225735,0.0004242323479624
2.653,0.8075077815380568,0.2179786667891758,0.1506889513443853,0.1575040923846617,0.0125663462073847,0.0016995857167855,-0.0052061243735074,0.0050167786802974,0.0052459990156706,0.0004184593287059
2.688,0.8079262408667627,0.2241167203383341,0.1548644176317203,0.1620040631799066,0.0115247189971055,0.1843259324071538,-0.0312800964047787,0.005155882055333,0.0053957894642194,0.0003837731426036
2.721,0.8083100140093663,0.2062706264009225,0.1424755529515754,0.1491586005799592,0.0009451220163489,-0.5359187368592047,-0.3177056150377378,0.0047442953850279,0.0049671156270022,3.147256314441904e-05
2.754,0.8083414865725107,0.206077565197272,0.1423375113505008,0.1490234737891382,0.0016046299586667,-0.0057976337432584,0.0198050433128464,0.0047396442328381,0.0049626678198735,5.343417762360137e-05
2.787,0.8083949207501342,0.2124851300768206,0.1467549974894888,0.1536648991006844,0.0013610562521801,0.1924193657522095,-0.0073145257203181,0.0048867612042116,0.0051172132416788,4.5323173197597824e-05
2.8200000000000003,0.8084402439233319,0.229326818627385,0.1583793627348656,0.1658516421427759,0.039607451658953,0.5057564129298624,1.1485404026057937,0.005270319735075,0.005526402290177,0.0013189281402431
2.853,0.8097591720635751,0.2181747560784555,0.1504692039771093,0.1579849449928335,0.0090588555931045,-0.334896773241127,-0.917375257232686,0.0050097648507921,0.0052617172426341,0.0003016598912503
2.887,0.8100608319548255,0.2248764769174963,0.1550420701417942,0.1628845798624664,0.0094396989142242,0.2012528780492717,0.01143673636996,0.0051619802325043,0.0054249326914642,0.0003143419738436
2.9210000000000003,0.8103751739286691,0.218439076418979,0.1505540330371275,0.1582691165168747,0.016779000548838,-0.1933153302858045,0.2203994484869003,0.0050119104650016,0.0052718248437682,0.0005587407182763
2.954,0.8109339146469453,0.2185643623474014,0.1505518778085143,0.1584440361031502,0.0166695349776729,0.0037623401928664,-0.003287254389342,0.005011846615368,0.0052776405110177,0.0005550955147565
2.987,0.8114890101617018,0.2252009863780278,0.1550326824371662,0.1633412123194064,0.0166053667733752,0.1992980189377279,-0.0019269731020318,0.0051610159058107,0.0054407542431489,0.0005529587135533
3.02,0.8120419688752553,0.2178609021781622,0.1498922275616399,0.1581002619051984,0.0285683688713719,-0.2204229489449118,0.3592493122521523,0.0049888400487651,0.0052671747976865,0.0009513266834166
3.053,0.812993295558672,0.206839115409898,0.1421661793581857,0.1502371362554721,0.0058585501595332,-0.3309845876355617,-0.6819765378930539,0.0047335829142788,0.0050034178302325,0.0001950897203124
3.087,0.8131883852789845,0.212850587167064,0.1462678639125883,0.1546320938350524,0.0073779704407268,0.1805246773923728,0.0456282366724806,0.0048700226083019,0.0051499081551222,0.0002456864156762
3.12,0.8134340716946605,0.2289377443129561,0.1572818599641765,0.1663577689719168,0.0341382108622599,0.4830978121889526,0.8036108234694618,0.0052342664358505,0.0055427552273748,0.0011368024217132
3.153,0.8145708741163739,0.2176368061374424,0.149338157740294,0.1583158047335823,0.0097045577364878,-0.339367512778189,-0.7337433371102722,0.0049720425217638,0.0052727821695632,0.000323161772625
3.187,0.814894035888999,0.2239502413181415,0.1536176607940444,0.1629580463758072,0.0143296911685064,0.1895926480690412,0.1388928958564123,0.0051141050547494,0.0054277874466406,0.0004771787159112
3.221,0.8153712146049101,0.2175179079354882,0.1491298869827233,0.1583487198595293,0.0180000930926562,-0.1931631646442443,0.1102222800044978,0.0049643783833352,0.0052745627130709,0.0005994030999854
3.253,0.8159706177048957,0.2176744542061458,0.1491422049980293,0.15855210721485,0.017927360381148,0.004701089208939,-0.0021841655107565,0.0049647928546544,0.0052813296279362,0.0005969811006922
3.287,0.8165675988055878,0.2244586722324595,0.1536928615083082,0.1635854512533028,0.0180174940579805,0.2037302710604709,0.002706717021997,0.0051162693940731,0.0054489947861125,0.0005999825521307
3.321,0.8171675813577187,0.2175849740139031,0.1488910867491034,0.1586652614887765,0.0272015892386745,-0.2064173639206144,0.275798654074897,0.0049556131877743,0.005285860250312,0.0009058129216478
3.353,0.8180733942793665,0.2068187849242136,0.1413872301904211,0.1509425749634907,0.0097220582861499,-0.3233089816723553,-0.5249108394151536,0.0047073179301216,0.0050272088891195,0.0003237445409287
3.387,0.8183971388202952,0.2131806500712283,0.1456860053203779,0.1556328288587672,0.0101510228888517,0.1910470014118528,0.0128818199009544,0.0048504028726537,0.0051834539509457,0.0003380290621987
3.42,0.818735167882494,0.218223273796844,0.1490782339728952,0.1593646051735927,0.0345415894020267,0.1514301419103814,0.7324494448400891,0.0049611853720482,0.0053097575323785,0.0011502349270874
3.454,0.8198854028095816,0.2185589247562212,0.1491238449845554,0.159781358260649,0.0343347487899071,0.0100796083897059,-0.0062114297933796,0.004962714400022,0.0053236192120644,0.0011433471347039
3.487,0.8210287499442854,0.2250917311901425,0.1533929649741064,0.1647327707125329,0.034525232940017,0.1961803733910297,0.005720244748045,0.0051047623242562,0.0054886004513849,0.0011496902569025
3.521,0.8221784402011879,0.2181684318993669,0.1484912887125163,0.1598367975590252,-0.0712867497724435,-0.2079068856088783,-3.177537018392212,0.0049510059940605,0.005316753470631,-0.0023738487674223
3.553,0.8198045914337656,0.2180451572622406,0.1487861801726201,0.1593937363736601,-0.0744796754226139,-0.0037019410548422,-0.0958836531582686,0.0049610902957685,0.0053017241655793,-0.002480173191573
3.587,0.8173244182421925,0.2242062332431666,0.1533963004089322,0.163517613870622,-0.075655168793669,0.1850172967245026,-0.0353001012328868,0.0051148821218621,0.0054387605492122,-0.0025193171208291
3.62,0.8148051011213634,0.2175183765645059,0.1492198279107361,0.1582646110207474,-0.0073709137984103,-0.2008365368967169,2.050578228085846,0.0049696008456283,0.0052696640651694,-0.000245451429487
3.653,0.8145596496918763,0.217397748128655,0.1491758958110119,0.1581402320739167,-0.0058648081643973,-0.0036224755510787,0.0452283974178082,0.0049680054117218,0.0052656469949295,-0.0001952981118744
3.687,0.8143643515800019,0.2240766900438907,0.1537907412195042,0.1629686194829586,-0.0056834936380394,0.2005688262833547,0.0054448806714087,0.0051216770634993,0.0054264346804705,-0.0001892603381467
3.721,0.8141750912418553,0.1950799983754022,0.1339162674759957,0.1418542881672757,0.0512185934395557,-0.8707715215762313,1.7087713837115674,0.0044553218245186,0.0047276043850955,0.0017055791615372
3.753,0.8158806704033925,0.19481827444098,0.1334947887247106,0.1418918653042022,0.0209437384801714,-0.0078595776102753,-0.909154803585116,0.0044436690885632,0.0047266046873075,0.0006974264913897
3.787,0.8165780968947821,0.2009115221595374,0.1375679603267384,0.1464257355385425,0.0203976326219711,0.1829804119686899,-0.0163995753213289,0.0045792955029276,0.0048775899218061,0.0006792411663116
3.82,0.8172573380610937,0.2179177704579869,0.1491045521676599,0.1589213239444646,0.0438966681843644,0.510698147100586,0.7056767436154135,0.0049612454545196,0.0052957694443842,0.0014617590505393
3.853,0.8187190971116332,0.2182682703772327,0.1491115348024027,0.1593950690653278,0.0125878607815159,0.0105255231004743,-0.9402044265119652,0.0049642348435164,0.0053089586653318,0.0004191757640244
3.887,0.8191382728756577,0.2250914359322871,0.1537039125912188,0.1644422749301708,0.0118236693630423,0.2048998665181513,-0.0229486912454537,0.0051171933758711,0.0054769994819212,0.0003937281897893
3.92,0.8195320010654469,0.2185942859621517,0.1492044389435189,0.1597544905624024,-0.0005831080995132,-0.1951096087127754,-0.3725758997764455,0.0049684926710227,0.0053198386811709,-1.941749971379192e-05
3.954,0.819512583565733,0.2186043079448427,0.149214381728043,0.1597589175525469,-0.0015541584454416,0.0003009604411714,-0.0291606710489005,0.0049689097776465,0.0053199057637707,-5.175347623320726e-05
3.988,0.8194608300894998,0.2250521414341503,0.1536240395277618,0.1644631291301168,-0.0020487286785011,0.1936286333125391,-0.0148519589507358,0.005115798565684,0.0054765119264068,-6.822266499408868e-05
4.021,0.8193926074245058,0.20635038503841,0.1408682214998688,0.1507866889913162,0.0447155690678003,-0.5616143061783878,1.4043332656547003,0.0046871086015169,0.0050247461885328,0.0014890284499577
4.054,0.8208816358744636,0.2065581749535408,0.1407851644355658,0.1511483281911787,-0.0001844222902719,0.0062399373913158,-1.3483480888310015,0.0046880982343912,0.0050332837963222,-6.141262266057269e-06
4.087,0.8208754946121976,0.2123574165953901,0.1447387446157807,0.1553910170830859,-0.0013638921297739,0.174151400656137,-0.0354195146997579,0.0048198527320429,0.0051744719326344,-4.541760792147188e-05
4.12,0.8208300770042759,0.2183244699066317,0.1488130294182293,0.1597506069953443,0.0364959210483059,0.179190790127375,1.1369313266690653,0.0049521732785394,0.0053227673107121,0.0012153141709085
4.153,0.8220453911751846,0.2174172066381995,0.1480011762368177,0.1592667371891444,-0.0079477333647759,-0.0272451431961616,-1.334644276669126,0.004929074350089,0.0053029919961302,-0.000264659521047
4.188,0.8217807316541377,0.2241313716951117,0.1526151193727263,0.1641447444080402,-0.0078677196177725,0.2016265782856505,0.0024028152253284,0.0050827308298793,0.0054654180039744,-0.0002619950632718
4.22,0.8215187365908658,0.2177087833783445,0.148283630099388,0.1594022565857422,0.0076650937782199,-0.1928705200230399,0.466450852732507,0.0049371007337594,0.0053087872628417,0.0002552476228147
4.253,0.8217739842136804,0.2178832611212021,0.148361744146709,0.1595678800716372,0.007675772103507,0.0052395718575868,0.0003206704290411,0.0049397002134846,0.0053143037677003,0.0002556032110467
4.287,0.8220295874247272,0.2246753950842663,0.1529446025205358,0.164581231360403,0.007468331064384,0.2039679868788044,-0.0062294606343229,0.0050923048959335,0.0054812521958924,0.0002486954244439
4.32,0.8222782828491713,0.2070998173034214,0.1409425430346302,0.151741668272238,0.0280027147060805,-0.5277951285539008,0.6166481574083023,0.0046909665950009,0.0050552439891912,0.0009324903997124
4.353,0.8232107732488837,0.2069332001141124,0.1406877060750596,0.1517508440464333,0.0003041511200394,-0.0050035191984699,-0.8317886962775111,0.0046848115728204,0.0050533856534242,1.0128232297312855e-05
4.3870000000000005,0.8232209014811811,0.2133533102564826,0.1450509626693325,0.1564603886806461,-0.0008986573859374,0.1927961003714793,-0.0361203755548597,0.0048302095967307,0.005210119317262,-2.992529095171559e-05
4.42,0.8231909761902294,0.2181606697094269,0.1483240947175396,0.1599813762107577,-0.0453167850424309,0.1443651487370661,-1.3338777074022072,0.0049431432741561,0.0053237131305496,-0.0015090489419129
4.453,0.8216819272483165,0.2185444803305877,0.1488267168586892,0.1600384273605254,-0.0470913604453033,0.0115258444793016,-0.0532905526388117,0.0049600393089258,0.005325453923848,-0.0015681423028286
4.487,0.8201137849454878,0.2249053200577374,0.1534164673463333,0.1644560443925511,-0.0485142229107009,0.1910162080225137,-0.0427286025644916,0.0051131210462378,0.0054723214287131,-0.0016155236229263
4.52,0.8184982613225615,0.2179873659465159,0.1489547841281048,0.1591570419354731,-0.0729962319778251,-0.2077463697063499,-0.735195467481209,0.0049665644209996,0.0052939580827193,-0.0024307745248615
4.553,0.8160674867976999,0.2176302291687726,0.1490965473171265,0.1585343376879733,-0.0734449760796346,-0.0107248281604609,-0.0134757988531362,0.0049712995727277,0.0052731792137892,-0.0024457177034518
4.587,0.813621769094248,0.2240172899539376,0.1538709162663265,0.1628112014747993,-0.0737323686566022,0.1918036271821326,-0.0086304077167462,0.0051304841765188,0.0054153816560171,-0.0024552878762648
4.62,0.8111664812179832,0.2174573819096639,0.1497526994448073,0.1576763836343244,-0.0514851701003624,-0.1969942355637747,0.6680840407279213,0.004991197557014,0.0052464088777396,-0.001714456164342
4.6530000000000005,0.809452025053641,0.2175051181171332,0.1500557414531634,0.1574539642692093,-0.0504979520007376,0.0014335197438231,0.0296461891779216,0.0050011965032352,0.0052390760232446,-0.0016815818016245
4.687,0.8077704432520164,0.2242506998808689,0.1549822504090177,0.1620767671667228,-0.0521483419940408,0.2025700229350064,-0.0495612610601534,0.0051655248223193,0.0053927374309828,-0.0017365397884015
4.72,0.806033903463615,0.2178477567429133,0.1508302918045895,0.1571873665154484,-0.0257369545857822,-0.1922805747133826,0.7931347570047622,0.0050248254280952,0.0052322494484478,-0.0008570405877065
4.753,0.8051768628759084,0.2180194204811329,0.1510839125259018,0.1571818026452002,-0.0255590399609977,0.0051550672138021,0.0053427815250576,0.0050332554233378,0.0052320755706654,-0.0008511160307012
4.788,0.8043257468452071,0.2248149275519104,0.1559309817349972,0.1619483886469102,-0.0268067360386022,0.2040692814047289,-0.0374683506788132,0.0051948403351978,0.0053906282711319,-0.0008926643100854
4.821,0.8034330825351218,0.2183770626000072,0.1516060626353446,0.1571755173111113,-0.0337809209695691,-0.1933292778349295,-0.2094349829119179,0.0050513589841221,0.0052311675166823,-0.0011249046682866
4.853,0.8023081778668351,0.2185367531738483,0.1518937669340248,0.1571196870362198,-0.0343914680684153,0.004795512727961,-0.0183347477130988,0.0050609916620335,0.0052292516427457,-0.0011452358866782
4.8870000000000005,0.8011629419801567,0.2252546763297197,0.1567484209775518,0.1617702127384736,-0.0356934406931344,0.2017394341102526,-0.0390982770185918,0.0052228550308919,0.0053839103345801,-0.0011885915750813
4.92,0.7999743504050754,0.2185070772553557,0.152239367220441,0.1567434779472425,0.0202036016223594,-0.2026306028337548,1.678589859324141,0.0050677491817289,0.0052213264046023,0.0006727799340245
4.954,0.8006471303391,0.2183032107891349,0.1519919384417642,0.1566995293214388,0.021480551291221,-0.0061221161027253,0.0383468369027499,0.0050593993205973,0.0052199675976864,0.0007153023579976
4.987,0.8013624326970975,0.2246553227912385,0.1562991587366843,0.1613709609460152,0.022653496144698,0.1907541141772849,0.0352235691734827,0.0052026671586451,0.0053756809495743,0.0007543614216184
5.021,0.8021167941187161,0.2176429970241759,0.151302506959129,0.1564481560822887,-0.0202641218382932,-0.2105803533652438,-1.2888173568465848,0.0050400654564707,0.0052080865493568,-0.0006747952572151
5.054,0.801441998861501,0.2173817812193367,0.1512263225710413,0.1561583752724488,-0.018690485667359,-0.0078443184636389,0.0472563414694957,0.0050373891899559,0.0051985696745403,-0.000622393172723
5.087,0.800819605688778,0.2240035742943101,0.155933038017515,0.1608181860090914,-0.0187905432615051,0.1988526448940936,-0.0030047325569383,0.005194178063531,0.0053536859013855,-0.0006257250906081
5.12,0.8001938805981698,0.2174810188026123,0.1514902345371639,0.1560407074429531,0.0008979326671199,-0.1958725372882215,0.5912455233821329,0.0050444818806217,0.0051962943149844,2.990115781509317e-05
5.153,0.8002237817559849,0.2176292727846939,0.1515888344136507,0.1561516111153052,0.001182434609825,0.0044520715339835,0.0085436018830379,0.0050477405226212,0.0052000114084374,3.93750725071751e-05
5.188,0.8002631568284921,0.2244118920919174,0.1563069016262443,0.1610243764660431,0.0008307299196949,0.2036822614781827,-0.0105617024063095,0.005204878329762,0.0053622490814342,2.7663306325842465e-05
5.22,0.8002908201348179,0.2180075688982409,0.1518418484307113,0.1564332226928352,0.025561815452136,-0.1923220178281233,0.7426752412144458,0.0050540504401977,0.0052114411413968,0.0008512084545561
5.253,0.801142028589374,0.2181773705618755,0.1518267989288002,0.1566843583524776,0.0258091932424823,0.0050991490580957,0.0074287624728623,0.0050535241250485,0.0052198245498625,0.0008594461349746
5.287,0.8020014747243487,0.2249734858593239,0.1564172130948746,0.1616994891374985,0.0261837661068215,0.2040875464699207,0.0112484343645416,0.0052062774339465,0.0053869284555475,0.0008719194113571
5.32,0.8028733941357058,0.2070483841150237,0.1438246256433972,0.1489412985816192,-0.0502820253982436,-0.5382913436726771,-2.296270015167124,0.0047934478490599,0.0049557934803499,-0.0016743914457615
5.353,0.8011990026899443,0.2071438118219039,0.1441402129481424,0.1487688064997918,-0.0486641026747141,0.0028656969033102,0.0485862679738593,0.0048038188523309,0.00495017027613,-0.0016205146190679
5.388,0.7995784880708763,0.2134006443536191,0.1487421743287039,0.1530215690238121,-0.0503341034721289,0.1878928688202742,-0.0501501740965419,0.0049573186054184,0.0050915270859194,-0.0016761256456218
5.421,0.7979023624252543,0.2178843304948034,0.1521290028271925,0.1559818834800143,0.0349933560078059,0.134645229464994,2.562386170568617,0.0050628030498057,0.0051972107022893,0.0011652787550599
5.453,0.7990676411803144,0.218014167673609,0.1520376824409856,0.1562521053438658,-0.040463749979801,0.0038990143785483,-2.265979158786999,0.0050662935090655,0.0051998461918528,-0.0013474428743273
5.488,0.797720198305987,0.2244436377218755,0.1567380433591846,0.160649096722524,-0.0416828533359718,0.1930771786266197,-0.0366097103955172,0.0052230207808674,0.0053460564338337,-0.0013880390160878
5.52,0.7963321592898991,0.2063193554973215,0.1442859678620841,0.1474762215780285,0.0235793639348915,-0.5442727394760962,1.95982634447037,0.0048027325266577,0.0049129042931862,0.0007851928190318
5.554,0.797117352108931,0.2058638096940138,0.1438518036117194,0.1472635961104727,0.0271329423754717,-0.0136800541533835,0.1067140672846906,0.0047879874161492,0.0049061012673019,0.0009035269811032
5.587,0.7980208790900342,0.2121877986715239,0.1481336235805552,0.1519213331627969,0.0280533268288936,0.1899095789042073,0.0276391727754325,0.0049304224106665,0.005061345638413,0.0009341757834021
5.621,0.7989550548734363,0.2177182174953821,0.1518488611190607,0.1560229009030749,-0.0068425428408212,0.1660786433591063,-1.0479240141055517,0.0050570937257855,0.0051950499650254,-0.0002278566765993
5.6530000000000005,0.798727198196837,0.2177333981131474,0.1518949983269048,0.1559991735143746,-0.0058713153281071,0.0004558744073668,0.0291659913727968,0.0050585460208735,0.0051943414923187,-0.0001955148004259
5.688,0.798531683396411,0.224517112587522,0.1566588951882437,0.1608288668213418,-0.0064664455175045,0.2037151493806158,-0.0178717774593823,0.0052172505501838,0.0053551050635472,-0.0002153326357329
5.72,0.7983163507606783,0.2180955064237558,0.1522117976434527,0.1561960901571583,-0.0139212326685844,-0.192841025938923,-0.2238674820144109,0.0050697929960906,0.005200218416033,-0.0004635770478638
5.753,0.7978527737128142,0.2182774826194527,0.1524112542544184,0.1562557806779657,-0.0145292206733948,0.0054647506215277,-0.0182578980423547,0.0050764879943872,0.0052021532610093,-0.000483823048424
5.787,0.7973689506643903,0.2250694905913076,0.1572316769224724,0.1610418435288728,-0.0153988777356962,0.2039642033590057,-0.0261158276967388,0.0052371222436551,0.0053614164936817,-0.0005127826285986
5.82,0.7968561680357915,0.2185872668810361,0.1527834302833487,0.1563253551839062,-0.0233350650001961,-0.1946613726808263,-0.2383239418768732,0.0050896449189506,0.0052037209951797,-0.0007770576645065
5.854,0.7960791103712851,0.2186286136954452,0.1529337806361853,0.1562361336782096,-0.0236892961502663,0.0012416460783536,-0.010637572074182,0.0050946811379111,0.0052007179848744,-0.0007888535618038
5.8870000000000005,0.7952902568094812,0.2250953641346572,0.1575842071619015,0.1607331347546885,-0.024320158651948,0.1941967098862443,-0.0189448198703198,0.0052496537034551,0.0053503538208603,-0.0008098612831098
5.92,0.7944803955263714,0.2067545425352467,0.1448637276831872,0.1475192911476004,0.050175752836656,-0.5507754234057215,2.237114459117239,0.0048197942166325,0.0049164806900349,0.0016708525694606
5.954,0.796151248095832,0.2064692931644555,0.1444175213708285,0.1475572720706647,0.0480663734489231,-0.0085660471709066,-0.0633447263583433,0.0048051072405644,0.004917564143434,0.0016006102358491
5.988,0.797751858331681,0.2125334509935139,0.1484158633345043,0.1521288904248175,0.048700133313775,0.182106841713466,0.0190318277733289,0.0049380747115467,0.0050699592892348,0.0016217144393487
6.021,0.7993735727710299,0.2178529526836973,0.1518774808831927,0.1561830329888003,-0.0063132799372895,0.1597447955010026,-1.652054451983923,0.0050580014789617,0.0052004268409631,-0.0002102322219117
6.053,0.7991633405491181,0.2174624640740067,0.1516380219291149,0.1558712083309934,-0.0045454358905483,-0.0117263846753916,0.0530884098120502,0.0050498737701315,0.0051901924658805,-0.0001513630151552
6.087,0.7990119775339628,0.2241000677609158,0.1562907785868418,0.1606052081943978,-0.0030905029429789,0.1993274380453184,0.0436916801071886,0.0052046909696983,0.0053479509664125,-0.0001029137480011
6.12,0.7989090637859615,0.2177048315969389,0.1518467001059767,0.1560063247678667,0.0272332200144369,-0.1920491340533616,0.9106223110335112,0.0050540735741558,0.0051973661431381,0.0009068662264807
6.154,0.7998159300124423,0.2178569859166387,0.1518111878430966,0.1562530945560777,0.0274479464588359,0.0045691987897832,0.0064482415735439,0.0050528685729892,0.0052056010870549,0.0009140166170792
6.188,0.8007299466295216,0.2246499228882243,0.156397433031442,0.1612681952365708,0.0278976988271467,0.2039921012488164,0.0135060771264491,0.0052054718583173,0.0053727146027428,0.0009289933709439
6.22,0.8016589400004656,0.2182144552366927,0.1517715796893547,0.1567894641640325,-0.0285957432983814,-0.1932572868327793,-1.6964997635293746,0.0050564131750308,0.0052187455524339,-0.0009522382518361
6.253,0.8007067017486295,0.2183982530750229,0.1520487717596297,0.1567768093584309,-0.0298199403630361,0.0055194546045112,-0.0367626746142568,0.0050657498208862,0.005218216597814,-0.0009930040140891
6.287,0.7997136977345403,0.2251767092524097,0.1569283646388113,0.1614869615836911,-0.0311268192077301,0.2035572425641669,-0.0392456109517696,0.0052284330807889,0.0053748722187061,-0.0010365230796174
6.321,0.7986771746549229,0.2186411717508385,0.1525361146182198,0.1566419347485116,-0.0017957616089232,-0.1962623874345691,0.8808125405047118,0.0050795430827789,0.0052160883293363,-5.979886157714276e-05
6.353,0.7986173757933458,0.2185405608340992,0.1524752853318484,0.1565607361143082,-0.0012172647359476,-0.0030213488510299,0.0173722784677334,0.005077467205652,0.0052134333566614,-4.05349157070578e-05
6.3870000000000005,0.7985768408776387,0.2249010906428201,0.1569195442260559,0.161111008972748,-0.0010695323402056,0.1910069011627872,0.0044364082805418,0.0052254489989479,0.0053649691549141,-3.561542692884778e-05
6.421,0.79854122545071,0.2062434183615889,0.1439068460198802,0.1477402019968968,0.0271490898106164,-0.5602904588958315,0.8474060705952589,0.0047898116353919,0.0049219743796912,0.0009040646906935
6.454,0.7994452901414033,0.206528834561255,0.1439721854529148,0.1480748774139008,-0.0097721079875213,0.0085710570470316,-1.1087446786227564,0.0047950140731028,0.0049301734812418,-0.0003254111959844
6.487,0.7991198789454188,0.2121752220087544,0.1479578024507097,0.1520750259852714,-0.0097982853799191,0.1695611846095916,-0.0007861078798163,0.0049277573245098,0.005063356350637,-0.0003262829031513
6.52,0.7987935960422676,0.218027087305151,0.1520895092295057,0.1562196913999513,0.0089631261805364,0.1757316905824792,0.5634057525662358,0.0050637389124083,0.005202935044021,0.0002984721018118
6.554,0.7990920681440795,0.2174920007096221,0.1516697284610971,0.1558815699215636,-0.0276613241011879,-0.0160686665324,-1.0998333417935269,0.0050529268031134,0.0051885928778598,-0.0009211220925695
6.587,0.79817094605151,0.2242213108964207,0.156510427178011,0.1605605257984224,-0.0290562155513978,0.2020813869909503,-0.0418886321384339,0.0052143159531499,0.0053442087508092,-0.0009675719778615
6.621,0.7972033740736484,0.2178388487677833,0.1522062166292654,0.1558429711340178,0.0124429810465241,-0.1916655293885108,1.2462221200577182,0.0050673265433661,0.0051906844777946,0.0004143512688492
6.654,0.7976177253424976,0.2179900543124978,0.1522472338517758,0.1560142415411119,0.0129438351794146,0.0045407070484821,0.0150406646513638,0.0050686478266522,0.0051964303479999,0.0004310297114745
6.688,0.7980487550539722,0.2247853472282137,0.1569238017112398,0.1609452477863205,0.0129682587612462,0.2040628503218013,0.000733440895845,0.0052243379012643,0.0053606704921327,0.0004318430167495
6.72,0.7984805980707217,0.2069094989904741,0.1443805911599965,0.1482085883772561,-0.0010163175599076,-0.5368122593915814,-0.4199572468814978,0.0048078952325913,0.0049353250019759,-3.384337474492405e-05
6.753,0.7984467546959767,0.2070306262882905,0.1444701320189949,0.1482904621873435,0.0041268383433788,0.0036374563908823,0.1544491262248205,0.0048104540710526,0.0049384633375297,0.0001374237168345
6.788,0.7985841784128112,0.2134125069984007,0.1489025284247071,0.1528820956556776,0.004069989991287,0.1916480693726811,-0.0017071577204747,0.0049580452640479,0.0050913720336022,0.0001355306667098
6.821,0.7987197090795212,0.1949376439407158,0.1359932885854266,0.1396657097675667,-0.0053456802468122,-0.5548006924229705,-0.2827528600029838,0.0045289320485738,0.0046505219068018,-0.0001780111522188
6.854,0.7985416979273022,0.1954602163739136,0.1363827744919951,0.1400158384140978,-0.0012896941331462,0.0156928658617944,0.1218013847947749,0.0045415879687107,0.0046624869188624,-4.294681463377081e-05
6.8870000000000005,0.7984987511126685,0.201169448056834,0.1403725915776208,0.1440995571307341,-0.0009241262602282,0.1714483988864983,0.0109780142017425,0.0046744208835319,0.0047985020193622,-3.077340446560051e-05
6.92,0.7984679777082029,0.2064696505200155,0.1440755331780663,0.1478917081019529,-0.031797332651667,0.1591652391345794,-0.9271233150582222,0.0048002598668495,0.0049223131979785,-0.0010588511773005
6.953,0.7974091265309022,0.2065114974709187,0.1442612804211458,0.1477690142043751,-0.0313584813120586,0.0012566651922891,0.0131787189071596,0.0048064072063274,0.0049182594211327,-0.0010442374276915
6.987,0.7963648891032107,0.212543645422796,0.1486338476680651,0.1519301831006521,-0.0340787919506851,0.1811455841404607,-0.0816910101689646,0.0049523132692262,0.0050565277830509,-0.0011348237719578
7.021,0.7952300653312531,0.2062043431984861,0.1443678903867923,0.1472349937317422,0.0245796689660707,-0.1903694361654647,1.7615153428455232,0.0048053820985775,0.0049049525358143,0.0008185029765701
7.053,0.7960485683078233,0.2177073103787723,0.1522940676433024,0.1555731016371929,9.89279723205348e-05,0.3454344498584462,-0.7351573871997068,0.0050713188724288,0.0051806563127456,3.2943014782738093e-06
7.087,0.7960518626093014,0.2242571185961482,0.1568753653542525,0.1602540950678536,0.0011540235719143,0.1966909374587336,0.0316845525403562,0.0052237801224926,0.0053366273290751,3.842898494474944e-05
7.12,0.7960902915942462,0.2178693932855628,0.1524009544604035,0.1556952844827911,0.0413249592780346,-0.1918235829004599,1.206334405589196,0.005071317685444,0.0051882068853671,0.0013761211439585
7.154,0.7974664127382047,0.2180216283548961,0.1522928941918324,0.1560137968552646,0.0417442808564714,0.0045716237037015,0.0125922395926968,0.0050676755437697,0.0051988461956,0.0013900845525204
7.188,0.7988564972907253,0.2248170050915223,0.1568158304589114,0.1610946339758203,0.0425792571747405,0.2040653674662521,0.0250743639119843,0.0052180949044715,0.0053682171166017,0.0014178892639188
7.221,0.8002743865546441,0.2183450301029176,0.1520794642212515,0.1566728717194559,-0.0153026570800228,-0.1943536032614029,-1.7381956232661666,0.005065509737157,0.0052159796889252,-0.0005095784807647
7.253,0.7997648080738794,0.2185375470016256,0.1522934418885232,0.1567334265791275,-0.0163862161052991,0.0057812882494911,-0.0325393100683585,0.0050727298119603,0.005217902913794,-0.0005456609963064
7.287,0.7992191470775729,0.2252551807188585,0.1570629244639575,0.1614655820895425,-0.0170907113288425,0.2017307422592449,-0.0211560127190203,0.0052316576357085,0.0053753809751643,-0.0005691206872504
7.32,0.7986500263903225,0.2185537149852603,0.1524793507647281,0.1565751382698589,0.005877092121109,-0.2012452172251703,0.6897238273258731,0.0050769866722562,0.0052145126747421,0.0001957071676329
7.353,0.7988457335579554,0.2183148039274241,0.1522820563188598,0.1564337845133501,0.0066391383425976,-0.0071745062413269,0.0228842709155734,0.0050703511819494,0.0052098692003978,0.0002210833068085
7.387,0.7990668168647638,0.2246554231858798,0.1566692623204014,0.1610118051908244,0.0074201124680111,0.1904089867404111,0.0234526764388435,0.0052163566437202,0.0053624030984478,0.0002470897451847
7.42,0.7993139066099485,0.1954530171438147,0.136269593099661,0.1401159516510277,0.0140659393054957,-0.8769491303923457,0.1995743795040445,0.0045366259522187,0.0046669807185207,0.000468395778873
7.453,0.7997823023888216,0.2060160396540017,0.1435649265052251,0.1477556106287288,-0.0031155475799238,0.3172078831887974,-0.5159605671297182,0.0047809055020398,0.0049200738595046,-0.0001037477344114
7.487,0.7996785546544102,0.2121422780605103,0.1478498588768218,0.1521340375156288,-0.0017096584806802,0.1839711233185777,0.0422188918691755,0.0049234809005159,0.0050659851165138,-5.6931627406653365e-05
7.52,0.7996216230270035,0.2069382365366837,0.1442314169514252,0.1483938411966501,-0.0040078780832778,-0.1562775232380347,-0.0690156036816079,0.0048031738823403,0.0049412547016459,-0.0001334623401731
7.554,0.7994881606868304,0.2177206156268624,0.1517673345042443,0.1561055496976862,-0.0204586436886163,0.3237951678732344,-0.4940169851453023,0.0050555573356073,0.0051966563536629,-0.0006812728348309
7.588,0.7988068878519995,0.22436610478314,0.1565092911145209,0.1607637731903215,-0.0206250219275262,0.1995642389272545,-0.004996343510805,0.0052135301943287,0.0053517089341635,-0.0006868132301866
7.62,0.7981200746218128,0.2179822072581153,0.1521633633349929,0.1560850842960431,0.0200418101004298,-0.1917086343851274,1.2212261870257073,0.0050652399108099,0.0051993873713005,0.0006673922763443
7.654,0.798787466898157,0.2181342899579845,0.1521652487190092,0.1562955710753063,0.0205147336899606,0.0045670480441205,0.0142019095955191,0.0050652592664022,0.0052064364825392,0.0006831406318756
7.687,0.7994706075300327,0.2249304937660043,0.1567959824394772,0.1612722757223251,0.0207468488121186,0.2040902044450387,0.0069704240888276,0.0052193832349026,0.0053722355102294,0.0006908700654435
7.721,0.8001614775954765,0.1959784613309894,0.1365168055721865,0.1406083891594948,-0.0143581812590794,-0.8694304034539009,-1.0542051072431835,0.0045470700345006,0.0046812294870748,-0.0004781274359273
7.753,0.7996833501595491,0.2067800676239246,0.1441120234849663,0.1482893153724279,0.0114958858839482,0.324372561349406,0.7763984127035345,0.0047979230801988,0.0049390128698317,0.0003828129999354
7.787,0.8000661631594845,0.2134057800375425,0.1486711096586637,0.1530977730285244,0.0116853331111672,0.1989703427512881,0.0056891059224928,0.0049496919016147,0.005099181082315,0.0003891215926018
7.82,0.8004552847520864,0.2180817459032906,0.15186777403261,0.1565114280383624,0.058859256004272,0.1404193953678096,1.416634321114256,0.0050520205093078,0.0052168467339599,0.0019600132249422
7.853,0.8024152979770286,0.2181495890923198,0.1516078671689182,0.1568575718084392,0.0580016973081093,0.0020373330038813,-0.0257525133982781,0.0050434288508141,0.0052282927363446,0.00193145652036
7.888,0.8043467544973888,0.2245445382974384,0.1557400424343382,0.1617568819610477,0.0606928204156971,0.1920405166702273,0.0808145077353694,0.0051806289328306,0.0053918063295618,0.0020210709198427
7.92,0.8063678254172315,0.2064169037126672,0.1428662203145193,0.1489871847890541,-0.0014481761439642,-0.5443734109540894,-1.8660959927826253,0.0047575024699066,0.0049612182739784,-4.822426559401017e-05
7.953,0.8063196011516375,0.2058571945456987,0.1424859969719742,0.148576327902961,-0.0010129824879772,-0.0168080830921475,0.0130688785581673,0.0047448050248504,0.0049475712670977,-3.373231684964395e-05
7.988,0.8062858688347878,0.2121589205646455,0.1468529611791753,0.1531196113111029,-0.0005686559060112,0.1892410215899955,0.0133431405995801,0.004890187863539,0.0050988981558553,-1.893624167017549e-05
8.02,0.8062669325931175,0.2071764934735923,0.1434070374094725,0.14952097200544,-0.0180204767055638,-0.1496224351667645,-0.5240787026892674,0.0047768854791776,0.0049776752151433,-0.0006000818742952
8.054,0.8056668507188224,0.217734871430217,0.150809789898442,0.1570505699051134,-0.0059740917366279,0.3170684071058469,0.3617533023704473,0.0050224205117569,0.0052293474761275,-0.0001989372548297
8.087,0.8054679134639926,0.2244473201124755,0.1554912391928024,0.1618612802369941,-0.006783732849824,0.2015750355032577,-0.0243135469428251,0.0051783993463175,0.0053894607706494,-0.0002258983038991
8.12,0.8052420151600934,0.2180738622720974,0.1511113961701634,0.1572308982158839,0.0543746376765993,-0.1913951303416829,1.8365877034961997,0.0050272007899667,0.0052404048372373,0.0018106754346307
8.153,0.8070526905947242,0.2182118590432686,0.1509218972133094,0.1576039224405744,0.054883066389376,0.0041440471823161,0.0152681295128124,0.0050208345964538,0.0052528632345625,0.0018276061107662
8.187,0.8088802967054904,0.2250069006723563,0.155324285737144,0.1627957972750699,0.0561647539103562,0.2040553041768077,0.0384891147441505,0.0051671580692426,0.0054259986052576,0.0018702863052148
8.22,0.8107505830107054,0.2185416825577532,0.1505652977372509,0.1583999941050086,0.0460666652307776,-0.1941506941322235,-0.3032459062936522,0.0050097104093933,0.0052786262887917,0.0015340199521848
8.254,0.8122846029628903,0.2185633604555983,0.1503370428917919,0.1586465129405476,0.0454687756580717,0.0006509879232754,-0.0179546418229989,0.0050021557686351,0.0052867796551902,0.0015141102294137
8.287,0.813798713192304,0.2250664063239925,0.1545625777613997,0.1636010293712963,0.0463793667089542,0.1952866627145414,0.0273450766030787,0.0051426563719717,0.0054519512290066,0.0015444329114081
8.32,0.8153431461037123,0.218316412536387,0.1496818011712193,0.1589258140797067,-0.0001577490688386,-0.2027025161443098,-1.397510984318105,0.0049843514308531,0.0052922791000654,-5.253043992325957e-06
8.354,0.8153378930597199,0.2180336951974786,0.1494887986558114,0.1587192216396907,-0.0014404016638215,-0.0084900101774299,-0.0385180959454325,0.0049780373896329,0.0052852931968985,-4.79653754052567e-05
8.387,0.8152899276843145,0.2242258270762231,0.1537420924118964,0.1632194551786894,-0.0012469827319476,0.185949906268603,0.0058083763325483,0.0051196562806757,0.0054351658429061,-4.152452497385717e-05
8.421,0.8152484031593407,0.1969565085318992,0.1350506362226708,0.1433638444968881,-0.0209006704684278,-0.8188984547845,-0.5902008329273343,0.0044987872401092,0.0047725071190288,-0.0006959923265986
8.453,0.8145524108327422,0.2059509666271602,0.1413223272401807,0.149812551136682,0.0011338841706646,0.2701038467045346,0.6616983375102857,0.0047058766730985,0.0049889058840472,3.775834288313185e-05
8.488,0.8145901691756253,0.2122248844716331,0.1456216232177573,0.1543818138267055,0.0003136622510633,0.1884059412754615,-0.0246312888769155,0.0048491086557871,0.0051410006099728,1.0444952960408923e-05
8.52,0.8146006141285856,0.2084999430365068,0.143064108675633,0.1516736201686808,-0.0396237574000477,-0.1118601031569452,-1.1993219114447762,0.0047673022064645,0.0050476469409544,-0.0013194711214215
8.553,0.8132811430071641,0.2177820633484603,0.1496420271757143,0.1582286030370475,-0.0182772708430696,0.2787423517103151,0.641035632341683,0.0049846165070632,0.0052675583084561,-0.0006086331190742
8.587,0.8126725098880899,0.2245643219864922,0.154401514461943,0.1630622796391346,-0.0194434837240936,0.2036714305715282,-0.0350214078385588,0.0051432597823911,0.0054283736095652,-0.0006474680080123
8.621,0.8120250418800775,0.2067934899560213,0.1422801886587268,0.1500663033576433,0.0387026701500641,-0.5336586195336595,1.7461307469717062,0.0047346459905386,0.0050003190852897,0.0012887989159971
8.654,0.8133138407960746,0.2068327875447934,0.1421136664155909,0.1502781016032203,0.0382492155653,0.0011801077709341,-0.0136172547977202,0.0047291339812107,0.0050073326250818,0.0012736988783244
8.688,0.8145875396743992,0.2132666579695728,0.1463368613155975,0.1551392613808972,0.039001655850974,0.1932093220654462,0.0225958043745957,0.0048695964335792,0.0051693615214619,0.0012987551398374
8.72,0.8158862948142366,0.207082219689774,0.1418975297946997,0.1508248545492622,0.0133439552644311,-0.1857188672612263,-0.7705015191154048,0.0047240086360368,0.0050235766325789,0.0004443537103055
8.753,0.8163306485245421,0.2071111713470803,0.1418503251781939,0.1509089876170413,0.0122079809958059,0.0008694191383287,-0.0341133414001558,0.0047225311389868,0.0050262885804767,0.0004065257671603
8.787,0.8167371742917025,0.2132615235226481,0.145999515681023,0.1554497308975082,0.0121167187805355,0.1846952605275609,-0.0027406070651765,0.0048606744131486,0.0051775177610609,0.0004034867353918
8.82,0.8171406610270943,0.2200573862598541,0.1505872519911762,0.1604641168151453,-0.0526390016528154,0.2040799620782583,-1.9446162292297609,0.0050191691001654,0.0053391204208387,-0.0017528787550387
8.853,0.8153877822720556,0.2179727301723718,0.1494390833164215,0.1586822972998099,-0.0002654143891414,-0.0626022849093772,1.572780398308531,0.0049762784793606,0.0052841609904115,-8.83829915840906e-06
8.887,0.8153789439728972,0.22445631682224,0.1538855846716139,0.1634009332644136,0.0020279631861845,0.194702301797843,0.0688701974572347,0.0051241379168762,0.0054414884396088,6.753117409994403e-05
8.92,0.8154464751469971,0.2174218892089554,0.1490521441443245,0.1582900383257607,0.0377563236440564,-0.2112440724710081,1.0729237374736302,0.0049600552581686,0.0052742393934226,0.001257285577347
8.953,0.8167037607243443,0.217402953070862,0.1488400464047728,0.1584635118573248,0.0368365158728219,-0.0005686527955982,-0.0276218549920243,0.004953069578806,0.0052799356938547,0.0012266559785649
8.987,0.8179304167029091,0.2241180270004384,0.1532368713152839,0.1635461748133301,0.0382471377451458,0.2016538717590494,0.0423610171869037,0.0050992498651743,0.005449399705005,0.0012736296869133
9.02,0.8192040463898225,0.2177000137353512,0.148646211437005,0.1590521920810816,-0.0018621846347095,-0.1927331310836997,-1.204484155551214,0.0049500165563181,0.0052963466705815,-6.201074833582787e-05
9.054,0.8191420356414866,0.2178957274930975,0.1487897168942576,0.1591859548021523,-0.0026249748635843,0.0058772900224129,-0.0229066134797245,0.0049548626916281,0.0053007379515959,-8.741166295735959e-05
9.087,0.8190546239785292,0.2246408352783086,0.1534099468249964,0.1641002531676534,-0.0037860196035101,0.2025557893456784,-0.0348662084061787,0.005108827077154,0.0054642805328719,-0.0001260744527968
9.12,0.8189285495257324,0.197219083837875,0.1347014629929621,0.1440516674579174,-0.0451568132098374,-0.8234760192322401,-1.2423661743641838,0.0044891034566287,0.0047936025674049,-0.0015037218798875
9.154,0.8174248276458448,0.1954820751741961,0.1337296335627242,0.1425820003422226,0.00403477697298,-0.0521624223326989,1.47722493041494,0.0044528182007469,0.0047483356675815,0.0001343580732002
9.187,0.8175591857190452,0.2015089084893095,0.1378328519884899,0.146996411906114,0.0044604617967669,0.1809859854388388,0.0127833280416474,0.0045894089553834,0.0048953789942668,0.0001485333778323
9.22,0.8177077190968773,0.2193568083659833,0.1500171133101668,0.1600383550608894,-0.0188339311048792,0.5359729692694856,-0.6995313183677531,0.004997173832845,0.0053277730825264,-0.0006271699057924
9.253,0.8170805491910849,0.2182868102982136,0.1493851988218859,0.1591640472063773,0.0258225481713508,-0.0321320741071997,1.3410354137006029,0.0049721811521816,0.0053023633239179,0.0008598908541059
9.287,0.8179404400451908,0.2249095476023776,0.1537764149251692,0.1641253143651775,0.0281824321977337,0.1988810001250455,0.0708673881796683,0.005118120654985,0.0054678392784564,0.0009384749921845
9.321,0.8188789150373755,0.2180064529587921,0.1489072268202967,0.1592276713776935,-0.0014019611136751,-0.2073001394470125,-0.8884202195618282,0.0049586678473833,0.0053022279682155,-4.668530508538105e-05
9.354,0.8188322297322901,0.2176971337876604,0.1487033721961028,0.158994808584651,-0.0030041562628806,-0.0092888639979487,-0.0481139684446111,0.0049520206396632,0.00529434160776,-0.0001000384035539
9.388,0.8187321913287361,0.2239686877650684,0.1530036741606402,0.1635599241640548,-0.0006625315994402,0.1883349542765173,0.0703190589621739,0.0050950140454452,0.0054465532425809,-2.2062302261360855e-05
9.42,0.8187101290264749,0.2081593847606165,0.1422069403288928,0.1520115639884449,-0.0175480684379483,-0.4747538439775364,-0.5070731783335765,0.0047369062904217,0.0050606606750269,-0.0005843506789836
9.454,0.818125778347491,0.2060618325233084,0.1408618776630162,0.1503975074398291,0.0011268005578931,-0.0629895566759186,0.5608068767519985,0.0046905436805753,0.0050083838937186,3.752245857784331e-05
9.488,0.8181633008060689,0.2123665132093561,0.1451658804129962,0.1550045260520458,0.0017277821680639,0.1893297503317652,0.0180474958009241,0.0048338105162177,0.0051618504705274,5.7535146196530106e-05
9.52,0.8182208359522655,0.2177767334422657,0.1488549608661878,0.1589619648038781,0.0442645948241979,0.1624690760633514,1.2773817614454654,0.0049529006035581,0.005297146939051,0.0014740110076457
9.553,0.8196948469599113,0.2179483195904296,0.1487375855424564,0.1593066246560152,0.0434935742153219,0.0051527371820974,-0.0231537720383177,0.0049490515683387,0.0053085576617486,0.0014483360213702
9.588,0.8211431829812814,0.2247426501558747,0.1531362545430924,0.1644948216315611,0.0443970781593511,0.2040339509142671,0.0271322505714472,0.0050953174336721,0.0054815091022513,0.0014784227027063
9.62,0.8226216056839879,0.197061433780295,0.1340613050681767,0.1444325973143281,-0.0277561753810114,-0.8312677590264169,-2.1667643705814594,0.0044664031727892,0.0048075977795121,-0.0009242806401876
9.653,0.8216973250438001,0.2067397174958535,0.1407854542605792,0.1513960589279248,0.0346313288526269,0.2906391506173718,1.873498625634787,0.004685184272874,0.0050442497161359,0.0011532232507924
9.687,0.8228505482945926,0.2133761873543714,0.1451244578221434,0.1564234287813585,0.0353621108882767,0.1992933891446825,0.0219454064759696,0.0048295109992481,0.0052118049732609,0.0011775582925796
9.72,0.8240281065871723,0.2071246482071867,0.1406936731237893,0.1520062835473823,-0.0006433525907087,-0.1877339083238643,-1.081245149519085,0.0046850899811315,0.0050618178811608,-2.142364127060148e-05
9.754,0.8240066829459016,0.2070098468328066,0.1406189466222456,0.1519190196670321,-0.0021111344503505,-0.0034474887201241,-0.0440775333225776,0.0046827252242807,0.0050587975508436,-7.03007771966746e-05
9.787,0.8239363821687051,0.21303833702667,0.1447250079258852,0.1563329943548114,-0.002119092309567,0.1810357415574593,-0.0002389747512442,0.0048194610764494,0.0052057791799017,-7.056577390858187e-05
9.821,0.8238658163947964,0.208046359811122,0.141344541715635,0.1526597797648613,-0.0258119404272222,-0.1499092256921314,-0.7114969404701279,0.0047088936163498,0.0050816063402659,-0.0008595376162265
9.853,0.8230062787785699,0.2179328481551636,0.148198717097562,0.1597869411299258,0.0010746260323403,0.2968915418631119,0.8074043981850653,0.0049348552642393,0.0053210553997978,3.5785046876934955e-05
9.887,0.823042063825447,0.2244059887798589,0.1525946949105411,0.1645384662789374,-0.0016205729292,0.194388607348205,-0.0809369057519652,0.0050814823854523,0.0054790576177036,-5.3965078542361765e-05
9.92,0.8229880987469045,0.2173562939596847,0.1478095458782122,0.1593615282029059,0.0302764069236561,-0.2117025471523775,0.9578672628485356,0.0049193152436893,0.0053092809762856,0.0010082043505577
9.953,0.8239963030974623,0.2175088104814532,0.1477524053378736,0.1596223961539528,0.0305407438486656,0.0045800757287848,0.0079380457960805,0.0049173845666858,0.0053179885329844,0.0010170067701605
9.987,0.8250133098676228,0.224259741525869,0.152170817180119,0.164731521173042,0.0313852922598188,0.2027306619944665,0.0253618141487438,0.0050643518185996,0.005488270231577,0.0010451302322519
10.021,0.8260584400998748,0.2178488396031699,0.147653392805701,0.1601767539607823,-0.0081465930862684,-0.1925195772582314,-1.1871437040867052,0.0049175144493937,0.005333280658726,-0.0002712815497727
10.053,0.825787158550102,0.2180294872825082,0.1478193156217212,0.1602694832268432,-0.0093126426727974,0.0054248552353847,-0.035016504099969,0.0049231436577415,0.0053362722776818,-0.0003101110010041
10.088,0.8254770475490978,0.224823147675227,0.1524765143048974,0.1652161018666925,-0.0101108264494365,0.2040138256071714,-0.023969482781955,0.0050783249471067,0.0055009050833543,-0.0003366905207662
10.12,0.8251403570283317,0.2184109855988651,0.1481817762451848,0.1604541050241147,0.0305232507677879,-0.192557419710568,1.2202425590758097,0.0049316697413656,0.0053456904474049,0.0010164242505673
10.153,0.8261567812788989,0.2185402141437508,0.1481061893488864,0.1606996635794496,0.0309626350571847,0.0038807370836571,0.0131947234053102,0.0049291092659753,0.0053539022886247,0.0010310557474042
10.187,0.8271878370263032,0.2251682362639012,0.1524272484639247,0.1657307109376924,0.0313396939717105,0.1990397033078173,0.0113230905262992,0.0050728773663439,0.00552154396329,0.0010436118092579
10.22,0.8282314488355612,0.2184869876340829,0.1477364817778365,0.1609673746984862,0.0211582029905743,-0.2006380969915408,-0.3057504799139978,0.0049176687945091,0.0053620079850329,0.0007045681595861
10.253,0.8289360169951474,0.2182929181790463,0.1474919075611259,0.1609283546523237,0.0207054155384657,-0.0058279115626601,-0.0135972207840437,0.0049095653659059,0.0053606686383059,0.0006894903374309
10.287,0.8296255073325783,0.2246249649014484,0.1516560083710573,0.1657010258928252,0.0216018047508522,0.1901515532252879,0.0269185949665621,0.0050480907359628,0.0055197234553925,0.0007193400982033
10.32,0.8303448474307816,0.2176365214755507,0.1468222213388331,0.1606514575131784,-0.011730180251763,-0.2098631659428727,-1.0009605105890482,0.0048901575235156,0.0053487999058254,-0.0003906150023837
10.353,0.8299542324283978,0.2173720460636941,0.1467064660289993,0.1603989377620651,-0.0094445429401903,-0.0079422045602588,0.0686377571042839,0.0048860981092277,0.0053405776632307,-0.0003145032799083
10.387,0.8296397291484895,0.2240007048893437,0.1512321879006799,0.1652426734645028,-0.0087530926890286,0.1990588235930814,0.0207642718066603,0.0050367646459887,0.005501910243212,-0.0002914779865446
10.421,0.8293482511619449,0.1971985182128346,0.133179313413033,0.1454322043571189,-0.0292527450159359,-0.8048704707660382,-0.6156051749822028,0.0044371684260333,0.0048407873115006,-0.0009741164090306
10.454,0.8283741347529142,0.2062414511091913,0.1394346157434917,0.1519655358562913,-0.0113952266676507,0.2715595464371377,0.5362618122608173,0.004644069187837,0.0050596295813266,-0.0003794610480327
10.487,0.8279946737048814,0.2125683200655135,0.1437714750667645,0.1565728381699754,-0.0120029500874385,0.1899960647544196,-0.0182499525461817,0.0047885665279957,0.0052129787012038,-0.0003996982379117
10.52,0.8275949754669697,0.2178593153408621,0.1474141897473789,0.1604111527977808,0.0635106010017402,0.158888747007467,2.2676742068822464,0.0049031731470165,0.0053469398835672,0.0021149030133579
10.554,0.8297098784803278,0.2181518775733885,0.1472721120771106,0.1609383940927137,0.062509385643732,0.0087856526284182,-0.0300665272675128,0.0048985126331524,0.0053644103156218,0.0020815625419362
10.587,0.8317914410222641,0.2249461108349947,0.1515130642040646,0.1662664853639625,0.0639759187677044,0.2040310288770644,0.0440400337529255,0.0050394139787876,0.0055421073860409,0.0021303980949645
10.621,0.8339218391172285,0.1738912370568408,0.1168508299544752,0.1287790583290184,-0.0367811154860934,-1.5331793927373545,-3.025736764378314,0.0038937040553165,0.0042860075079915,-0.0012248111456869
10.653,0.8326970279715418,0.1955237480437188,0.1315646230534306,0.1446384665636094,0.0547320986739461,0.6496249545609014,2.7481445693705577,0.0043766498084815,0.0048205056735235,0.0018225788858424
10.687,0.8345196068573841,0.2015153983406565,0.1353243848755374,0.1493176701748687,0.0549302500420567,0.1799294383464761,0.0059504915348509,0.0045016894322937,0.0049764535782676,0.0018291773264004
10.72,0.8363487841837846,0.2175299763422223,0.1457836355606648,0.1614509901182494,0.0797216757140233,0.4809182583052793,0.7444872574164152,0.0048473854399047,0.0053828163392366,0.0026547318012769
10.754,0.8390035159850616,0.2180559325083637,0.1457059595613199,0.1622287368205988,0.077289994994145,0.0157944794637073,-0.0730234450413904,0.0048449831962745,0.0054085157463834,0.002573756833305
10.787,0.8415772728183666,0.2247110388582711,0.1497221542185088,0.1675658900878472,0.0792065180516729,0.199853043540762,0.0575532449708087,0.0049783130491722,0.00558657532032,0.0026375770511207
10.821,0.8442148498694874,0.2178954404978121,0.1447519389507438,0.1628658931751388,0.0392982678815066,-0.2046726234372064,-1.198445951056044,0.0048166214156685,0.0054266471318647,0.0013086323204541
10.853,0.8455234821899416,0.2175720906309468,0.1443241927097652,0.1628132120566249,0.0391718706263577,-0.0097102062121712,-0.0037957133678346,0.0048023900588435,0.0054248732480435,0.0013044232918577
10.887,0.8468279054817992,0.2239906644812866,0.1483631181741235,0.1678100203814402,0.0409308040146717,0.1927499654756674,0.0528208224718903,0.0049366118403829,0.0055915008661917,0.0013629957736885
10.92,0.8481909012554878,0.2175289962700771,0.143860888640244,0.1631652810432003,0.0030489983466405,-0.1940440904267099,-1.1375917618027376,0.0047902235281879,0.0054337071919479,0.0001015316449431
10.953,0.8482924329004309,0.2176755994305955,0.1439412650048879,0.1632898613394649,0.0023334275840927,0.0044024973128631,-0.0214886114879224,0.0047929645869355,0.0054377987820522,7.77031385502891e-05
10.987,0.8483701360389813,0.2244562606197115,0.1484119954076994,0.1683879228165989,0.0019441069696553,0.2036234591326132,-0.011691309742866,0.0049418675315381,0.0056075398486969,6.473876208952234e-05
11.02,0.8484348748010708,0.2180293595738345,0.14415189564071,0.1635757702698241,-0.0203444199705127,-0.1930000314077171,-0.6693251333383817,0.004802034497439,0.0054455070136432,-0.000677469185018
11.053,0.8477574056160527,0.2182189411152746,0.1443881198131754,0.1636202222168391,-0.0214353912780245,0.0056931393825858,-0.03276190112648,0.0048100001764078,0.0054468973149121,-0.0007137985295582
11.087,0.8470436070864944,0.2250107952044038,0.149002449762564,0.1686064290686235,-0.022675162139596,0.2039595822561318,-0.0372303562033482,0.004963830374987,0.0056127826015695,-0.0007550828992485
11.121,0.8462885241872459,0.2185490294419695,0.1448470743002197,0.1636551353813669,-0.001005071866354,-0.1940470198929207,0.6507534616589186,0.0048234303464605,0.0054496958524948,-3.346889314959079e-05
11.153,0.8462550552940963,0.2185908702973104,0.1448802833601476,0.1636816179991477,-0.0014967773586326,0.0012564821423667,-0.0147659306990562,0.0048245808346992,0.0054505382206009,-4.984268604246723e-05
11.187,0.8462052126080538,0.2251201327914681,0.1492162282381437,0.1685633157553282,-0.0028150848076117,0.1960739487735068,-0.0395888122816543,0.0049690930132341,0.0056129878995981,-9.374232409347094e-05
11.22,0.8461114702839604,0.2182917899253324,0.1447055238568464,0.1634368896978925,0.0040536978150263,-0.2050553413253973,0.2062697484275699,0.0048182582581327,0.0054428341411101,0.0001349881372403
11.254,0.8462464584212007,0.2179682934222459,0.1444690475156716,0.1632141882537205,0.0042723104604259,-0.0097146097022971,0.0065649443062959,0.0048103644048303,0.0054354350615131,0.0001422679383321
11.287,0.8463887263595329,0.2242298959982728,0.1485953393134631,0.167924004816801,0.004825864195608,0.1880361133942011,0.0166232352907526,0.0049477052518726,0.0055923290521209,0.0001607012777137
11.32,0.8465494276372467,0.217562136796581,0.14415048418262,0.1629537396852568,0.0944415696442973,-0.2002330090598145,2.691162325786465,0.0047916022997599,0.0054339588454562,0.0031449042691551
11.353,0.8496943319064018,0.2174169333339219,0.1435414330832574,0.1632972133526221,0.0960129391356488,-0.0043604643441167,0.047188273013557,0.0047711602668787,0.0054454891092178,0.0031972308732171
11.388,0.8528915627796189,0.2240979418494568,0.1474134223727736,0.1687873527415747,0.0996851926900251,0.2006308863523988,0.1102778845158046,0.004899458414783,0.0056288175668294,0.0033195169165778
11.42,0.8562110796961967,0.2176627895724135,0.1426353365346396,0.1644148738286621,0.0590167639506973,-0.1932478161274248,-1.2212741363161497,0.0047443049393743,0.0054797385908473,0.0019652582395582
11.453,0.858176337935755,0.2178265957179483,0.1424190430883724,0.1648188155759615,0.0581007448480049,0.0049191034695125,-0.0275080811619326,0.0047371727892562,0.0054931104521621,0.0019347548034385
11.487,0.8601110927391936,0.2246168419686179,0.1465295321037189,0.1702404826045212,0.0594221948593705,0.2039112988189076,0.039683183524492,0.004873750196235,0.0056738931754897,0.001978759088817
11.52,0.8620898518280105,0.2067753911322666,0.1345802318503809,0.1569847877120568,0.0341278772132664,-0.5357793043949348,-0.7595891185016257,0.0044784846164065,0.0052301950678721,0.0011364583112017
11.553,0.8632263101392124,0.2068775385339148,0.1344681330060603,0.1572152573884478,0.0347348015600022,0.0030674895389861,0.0182259563584345,0.0044746943293646,0.0052379127466205,0.001156668891948
11.587,0.8643829790311603,0.2132921151722412,0.1384499603987682,0.1622502229897639,0.035049508790952,0.192629929078869,0.0094506675960883,0.0046071617500859,0.0054056795470642,0.0011671486427387
11.62,0.865550127673899,0.206103992018502,0.1336010013488906,0.1569382934931321,0.0709591881357317,-0.2158595541663425,1.0783687490924851,0.0044426691062152,0.0052313523490232,0.0023629409649198
11.653,0.8679130686388189,0.1954730276835916,0.126357722233191,0.1491423165430586,0.0232279754576331,-0.3192481782255374,-1.433369750093053,0.0042057286031528,0.0049681187671573,0.0007734915827391
11.687,0.8686865602215581,0.2014414680544448,0.1300969213118124,0.1537968013877987,0.0242650913347753,0.1792324435691668,0.0311446209352024,0.004330093552787,0.0051232375765028,0.000808027541448
11.72,0.8694945877630061,0.2281850581453567,0.1472279125403668,0.1743340544179648,0.0633924588827095,0.8031108135408962,1.1749960224604863,0.0048964854637782,0.0058105558907425,0.0021109688807942
11.753,0.8716055566438003,0.2180165578259925,0.1403151390198097,0.1668618627732108,0.0136498263909441,-0.3053603699508743,-1.4937727475004632,0.0046711613649744,0.0055576204054489,0.0004545392188184
11.787,0.8720600958626187,0.2245826113781736,0.1444628970825494,0.1719529607187864,0.014567888081501,0.1971787853507819,0.0275694201368459,0.0048091534943126,0.0057272605906882,0.0004851106731139
11.82,0.8725452065357329,0.2164375546515456,0.1391431772493717,0.1657841708019518,0.0712725751905369,-0.2445962980969375,1.7028434567278028,0.0046268428233754,0.0055261642787332,0.0023733767538448
11.853,0.8749185832895777,0.2061719327849783,0.1321684445814513,0.1582351671570306,0.0246550221318319,-0.3082769329299487,-1.399926518279429,0.0043989794762853,0.0052710924306284,0.00082101223699
11.888,0.8757395955265677,0.2123361070848926,0.1359862030942073,0.1630778186633241,0.0256147300841314,0.1851103393367677,0.0288200586276115,0.0045259557808923,0.0054324788007125,0.0008529705118015
11.921,0.8765925660383692,0.2053433975927917,0.1313733015720668,0.157819411255416,0.0651228609845009,-0.2099912760390686,1.186430357368454,0.0043689630777931,0.0052601806316299,0.0021685912707838
11.953,0.878761157309153,0.1950562797281662,0.1244664808572899,0.1501833792548114,0.0178642019614036,-0.3089224583971611,-1.419178949642562,0.004143183235576,0.0050023910608234,0.0005948779253147
11.987,0.8793560352344679,0.2009857770101441,0.1281580462361597,0.1548250552891932,0.0189259295809237,0.1780629814407783,0.0318837122979004,0.0042659732672187,0.0051570723748163,0.0006302334550447
12.02,0.8799862686895127,0.2284409034487381,0.1455538006486985,0.1760662871909174,0.1357992407425875,0.824478271429248,3.509709043893808,0.0048335947162686,0.0058740072651105,0.0045221147167281
12.053,0.8845083834062408,0.2183448866475779,0.1383585812634499,0.1689123811800336,0.0901423609696608,-0.3031836877225262,-1.3710774706584594,0.0045988210639977,0.0056317466043435,0.0030017406202897
12.087,0.8875101240265305,0.2251230276699256,0.1421302722031024,0.1745833992988626,0.0930480787889068,0.203547778448878,0.0872587933707501,0.0047238506464268,0.0058210097071323,0.0030985010236705
12.12,0.8906086250502011,0.2069592054540077,0.1301647084127052,0.160901402747116,0.0191959424197582,-0.54546012660414,-2.2177818729474046,0.0043327047143755,0.005359456102742,0.0006392248825779
12.153,0.8912478499327791,0.2070285963284423,0.130105437776975,0.1610385505355373,0.0203445648227951,0.0020838100430805,0.0344931652563628,0.0043306268908649,0.0053641052792336,0.000677474008599
12.187,0.8919253239413782,0.2131024313623813,0.1338101590787279,0.1658538138840466,0.0193728137694927,0.1823974484666355,-0.0291817133123841,0.0044540271628658,0.0055244248197431,0.0006451146985241
12.221,0.8925704386399023,0.1953244667300731,0.122549018665741,0.1520966315453808,-0.0157287958165369,-0.5338728117810249,-1.05410238997086,0.0040821449523187,0.0050638001342219,-0.0005237689006906
12.253,0.8920466697392115,0.1948715166473622,0.1223442940810285,0.15167986585654,-0.0171756654454489,-0.0136021045859154,-0.0434495384057647,0.0040754458081077,0.005049825348451,-0.0005719496593334
12.288,0.8914747200798782,0.20056000892672,0.1260049100721708,0.1560355081973015,-0.0149138108285167,0.1708255939747088,0.0679235620700353,0.0041971883461253,0.0051949929883374,-0.0004966299005896
12.32,0.8909780901792885,0.2520102784300118,0.1584266847568715,0.1959851167597145,0.2037884926294442,1.5450531382369903,6.567636740479308,0.0052533417656082,0.0065442207419939,0.0067861568045604
12.353,0.897764246983849,0.2241976994505247,0.1397558193524381,0.1753080699683745,0.1336157922570846,-0.8352125819665789,-2.10728829947026,0.004640792743491,0.0058481511958239,0.0044494058821609
12.388,0.90221365286601,0.2242571659515513,0.1390112835464567,0.1759748264024949,0.0622006706752243,0.0017857808116109,-2.1445982457015096,0.004622929979797,0.0058648096337934,0.0020712823334849
12.421,0.9042849351994948,0.212965079950122,0.1316651851100903,0.1673869896619434,0.1493335240743512,-0.339101681724603,2.616602204177985,0.0043705033212931,0.0055849201479001,0.0049728063516758
12.453,0.9092577415511708,0.20650997150783,0.1268656004245861,0.1629462726209901,0.0758511065614135,-0.1938471003691306,-2.206679204592724,0.0042176990603872,0.0054314934294136,0.002525841848495
12.487,0.911783583399666,0.2128801081191018,0.1303542876286093,0.1683024067850436,0.0780649195363937,0.1912953937318869,0.0664808701195277,0.0043334378702171,0.0056101603267705,0.0025995618205619
12.521,0.9143831452202278,0.217973199757883,0.1330245438439762,0.1726753791013415,0.2083755244631489,0.1529456948582939,3.9132313791818367,0.0044096597887481,0.0057654679804926,0.0069389049646228
12.554,0.9213220501848508,0.2184074661000035,0.1320858032682494,0.1739401098746505,0.2089843785843431,0.0130410312949103,0.0182839075433706,0.004378194409302,0.0058075186438014,0.0069591798068586
12.588,0.9282812299917094,0.2250743948925163,0.1348670304761364,0.1801925839949615,0.213304481446525,0.200208071847231,0.1297328186841395,0.004469648315224,0.0060163687745911,0.0071030392321692
12.621,0.9353842692238784,0.201532095961344,0.1196111530233379,0.1621985134796247,0.1212903423804699,-0.7069759438790478,-2.763187359340993,0.0039720650042546,0.0054092893849041,0.0040389684012696
12.654,0.9394232376251482,0.2069156070968186,0.1221327018562599,0.1670259608490097,0.1790219821204354,0.1616670010653036,1.7336828750740387,0.004050346308021,0.0055741050005398,0.0059614320046105
12.688,0.9453846696297586,0.2129818619008422,0.1246861976279028,0.1726691217903333,0.1820867119086548,0.1821698139346406,0.0920339275741568,0.0041345204718561,0.0057624863492828,0.0060634875065582
12.72,0.9514481571363168,0.2178335338339455,0.1264533524068369,0.1773724841334106,-0.0844646657558376,0.1456958538469481,-8.004545875810587,0.0042191235237039,0.0059006269741555,-0.0028126733696693
12.754,0.9486354837666476,0.2177363486193146,0.1268951036065349,0.1769371362681065,-0.085708255172971,-0.0029184749138423,-0.0373450275415414,0.0042339354478553,0.0058860216829991,-0.0028540848972599
12.787,0.9457813988693876,0.2243785516246443,0.1312859949733636,0.1819607703683052,-0.0870675384067613,0.1994655557156056,-0.0408193163300401,0.004380525505104,0.0060530024485237,-0.0028993490289451
12.82,0.9428820498404424,0.1898756985969141,0.1115440277875391,0.1536577716309815,0.1204815164642848,-1.0361217125444495,6.232704350481867,0.0037040774384616,0.0051242877491132,0.0040120344982606
12.853,0.9468940843387031,0.206434867617787,0.1206006285842749,0.1675435553921757,-0.0904029784850411,0.4972723429691569,-6.3328677161959765,0.0040243227499923,0.0055731975779449,-0.0030104191835518
12.887,0.9438836651551512,0.2124642083785366,0.1246415541540362,0.1720625549618065,-0.0884916226714472,0.1810612841065953,0.0573980724802974,0.0041589279083064,0.0057236116309457,-0.0029467710349591
12.921,0.940936894120192,0.217690054758415,0.1282262276204809,0.1759175786865609,0.0733853594003837,0.1569323237200716,4.861170632787717,0.0042626977551306,0.0058633203465162,0.0024437324680327
12.954,0.9433806265882247,0.2179754234409895,0.1279634766772756,0.1764614231523225,0.073193081304228,0.0085696301073433,-0.0057741170016717,0.0042539446366407,0.005881405937202,0.0024373296074307
12.988,0.9458179561956556,0.2247580911630621,0.1315014037778676,0.1822733670828341,0.0747922906011154,0.2036837153775543,0.048024303209832,0.0043713573933826,0.0060752048603115,0.0024905832770171
13.02,0.9483085394726728,0.1898105907514292,0.1106706056145768,0.1542079032161107,-0.0663941725816613,-1.0494744868358217,-4.239833729212515,0.0036909404261642,0.005131091341088,-0.0022109259469693
13.054,0.9460976135257034,0.2178531654981492,0.1274120586572985,0.17670927826878,-0.1112369913955492,0.842119361763361,-1.346631195612251,0.0042536365614589,0.0058766008144021,-0.0037041918134717
13.088,0.9423934217122316,0.2249615881340514,0.1322444593111544,0.1819865904875824,-0.1179065576083203,0.2134661452222898,-0.2002872736567883,0.0044155501387348,0.0060515481676977,-0.003926288368357
13.12,0.9384671333438744,0.2183902307790514,0.1290741321227575,0.1761651535249928,-0.0821516488399235,-0.1973380587087095,1.073720984035941,0.0043061137221574,0.0058604672238731,-0.0027356499063694
13.154,0.9357314834375052,0.218282847230776,0.129491871614552,0.175724945812866,-0.0828276081971203,-0.0032247311794401,-0.0202990797957002,0.0043200703335651,0.0058457408213805,-0.0027581593529641
13.187,0.932973324084541,0.2246308343375417,0.1337559512365481,0.1804670530705986,-0.0856835961672987,0.1906302434464151,-0.0857654045098631,0.0044625651714038,0.0060032464262011,-0.002853263752371
13.22,0.93012006033217,0.1950354364283778,0.1165800400588145,0.1563582927851701,-0.08520369019576,-0.8887506879628791,0.0144115907368978,0.0038894312993041,0.0052012656731748,-0.0028372828835188
13.253,0.9272827774486512,0.1948182201029898,0.1168928709698564,0.1558531218825004,-0.0594333094387935,-0.0065230127744123,0.7738853080170127,0.0038976006953862,0.0051861025972106,-0.0019791292043118
13.287,0.9253036482443392,0.2008147860503033,0.1208085817920007,0.1604115484054517,-0.0598587481150176,0.1800770554748794,-0.012775936222945,0.0040281798886845,0.0053377421617545,-0.00199329631223
13.32,0.9233103519321092,0.1836190120063181,0.1107558886777441,0.1464550261799831,-0.0844059902020125,-0.5163896109304873,-0.7371544170268759,0.0036949589356813,0.0048718091401093,-0.002810719473727
13.353,0.9204996324583824,0.1831794622822904,0.1109009813116727,0.1457933048741851,-0.0546342789265288,-0.0131996914122427,0.8940453836481592,0.0036973560512807,0.0048516014190253,-0.0018193214882534
13.387,0.9186803109701288,0.1888034868484234,0.1145790919217232,0.1500612819501289,-0.0551240637874057,0.1688896266105999,-0.0147082540803875,0.0038200052811081,0.0049935839364388,-0.0018356313241206
13.421,0.9168446796460082,0.1723904943040514,0.1048698809542553,0.1368239401385426,-0.073676553671586,-0.4928826589901511,-0.5571318283537617,0.0034976955787851,0.0045519926621794,-0.0024534292372638
13.453,0.9143912504087444,0.1720607542740487,0.10500402143456,0.1363050206115865,-0.04276830251842,-0.0099021030030837,0.9281757103052848,0.0034998079281972,0.0045365096697207,-0.0014241844738633
13.487,0.912967065934881,0.1773970712538776,0.1084606654654112,0.140378078545952,-0.0437046904230208,0.1602497591540208,-0.0281197568949179,0.0036150818441176,0.0046720055541434,-0.0014553661910865
13.52,0.9115116997437944,0.1610969838160405,0.098680208113978,0.1273359914604178,-0.0830570764774455,-0.4894921152503622,-1.1817533349677076,0.0032918574500063,0.0042357801637036,-0.0027658006466989
13.553,0.9087458990970956,0.1609862831186481,0.0989639645623315,0.1269752616475475,-0.0494577903125326,-0.0033243452670377,1.0089875725199056,0.0032989273417994,0.0042256019702724,-0.0016469444174073
13.587,0.9070989546796882,0.165947835633696,0.1022294342580266,0.1307204150956996,-0.0509053005835945,0.1489955710224594,-0.043468776908766,0.0034078733880804,0.0043501451846,-0.0016951465094336
13.62,0.9054038081702545,0.1493534597960395,0.0922060414920393,0.1174925608939371,-0.0766242037589882,-0.4983296047344309,-0.7723394346965081,0.0030754003146708,0.0039086193759591,-0.0025515859851743
13.653,0.90285222218508,0.1496279607626527,0.092675551928434,0.1174724168336979,-0.0438311041085622,0.0082432722706663,0.9847777672800592,0.0030889005021125,0.0039096166805267,-0.0014595757668151
13.687,0.901392646418265,0.1541412874975,0.0956475156371986,0.1208763387260667,-0.0456539925756666,0.1355353373828036,-0.0547413954085394,0.0031880702318497,0.0040227994685827,-0.0015202779527697
13.721,0.8998723684654955,0.1495452946474151,0.0929737962257745,0.117130988071263,-0.0721654772486304,-0.138017803305854,-0.7961406808697824,0.0031006621255837,0.0038967770341371,-0.0024031103923793
13.753,0.897469258073116,0.1494128730321242,0.0931724293460805,0.1168037030126327,-0.0734340561956966,-0.0039766250838115,-0.0380954638758613,0.0031073456933323,0.0038858049222462,-0.0024453540713166
13.787,0.8950239040017992,0.1537198307661367,0.0961517796760227,0.1199359063662892,-0.0754985569755004,0.1293380700904659,-0.0619970204145294,0.00320682128453,0.0039898768472307,-0.0025141019472841
13.82,0.892509802054515,0.1376422051091631,0.0863649436054771,0.1071749650960321,-0.0607493082002331,-0.4828115812904975,0.442920383641659,0.0028795157681967,0.0035660511023452,-0.0020229519630677
13.853,0.8904868500914473,0.1374242703694697,0.0864444882651654,0.106830616094614,-0.0614484978335191,-0.0065445867775793,-0.0209966856842626,0.0028821945182704,0.0035545480754183,-0.0020462349778561
13.888,0.8884406151135911,0.1415648866599504,0.0892740756092022,0.1098669948581786,-0.0621771230019195,0.1243428315459663,-0.0218806356877005,0.00297656622683,0.0036555280730878,-0.0020704981959639
13.92,0.8863701169176272,0.1371281851307956,0.0866963541144602,0.1062444414570751,-0.0679985690296617,-0.1332342801548001,-0.1748181990312976,0.0028909473137256,0.0035347045972693,-0.0022643523486877
13.953,0.8841057645689395,0.1371868857876401,0.0869739216201255,0.1060932542159362,-0.0676945962205279,0.0017627824878225,0.0091283125866018,0.0029001668084929,0.0035296744026693,-0.0022542300541435
13.987,0.8818515345147958,0.1413570761241076,0.0898639449633597,0.109115967511538,-0.068952496762783,0.125230941035062,-0.0377747910587127,0.002996592700195,0.0036301606201178,-0.0022961181422006
14.02,0.8795554163725953,0.1264280711293925,0.0805971037922266,0.0974072072785365,-0.0509485805629946,-0.4483184683097647,0.5406581441377892,0.002686593146648,0.003241415457408,-0.0016965877327477
14.054,0.8778588286398474,0.1258302983271689,0.0803803903441928,0.0968104169251404,-0.0573318719667103,-0.0179511352019087,-0.1916904325440141,0.002679702274752,0.0032212634908409,-0.0019091513364914
14.087,0.875949677303356,0.1297299061360215,0.0830618622111738,0.0996522733913929,-0.0593584948934038,0.117105339605183,-0.0608595473481539,0.0027691962362053,0.0033157196629534,-0.0019766378799503
14.12,0.8739730394234057,0.1153503280172506,0.074030082228276,0.0884604154351652,-0.0420224182880442,-0.4318191627258516,0.5206029010618505,0.002467225018624,0.0029440370153302,-0.0013993465289918
14.153,0.8725736928944139,0.1146543575392898,0.0737063868028535,0.0878236314850135,-0.0471102328851064,-0.0209000143531767,-0.1527872251370028,0.0024566789337456,0.0029226313617849,-0.001568770755074
14.187,0.8710049221393398,0.1182056731001452,0.076131324855457,0.090424568170444,-0.0488670214323348,0.1066461129386002,-0.0527564128296822,0.0025375841868905,0.0030091059453297,-0.0016272718136967
14.22,0.869377650325643,0.1148162916873621,0.0740911943923799,0.0877113205370206,-0.0694309678648012,-0.1017832256091036,-0.6175359289028949,0.0024705744410596,0.0029179632042612,-0.0023120512298978
14.253,0.8670655990957451,0.1149194733747696,0.0743605546733168,0.0876184527905569,-0.070254782345546,0.0030985491713972,-0.0247391735959386,0.0024795805626776,0.0029148264280226,-0.0023394842521066
14.287,0.8647261148436384,0.1184980043021402,0.0768872575643945,0.0901672149276914,-0.0726835785656421,0.1074633912123301,-0.0729368234263102,0.0025639391672457,0.0029994990363407,-0.0024203631662358
14.321,0.8623057516774025,0.115094545956587,0.0748906788919846,0.0873964571596044,-0.0933955277460556,-0.1022059563229179,-0.621980455868274,0.0024983447136261,0.0029064506634691,-0.0031100710739436
14.353,0.8591956806034589,0.1151871908614246,0.0752226269149116,0.0872332811406649,-0.0943462957693178,0.0027821292744027,-0.0285515922901553,0.0025094360863758,0.0029009601116795,-0.0031417316491182
14.387,0.8560539489543406,0.1187534788388836,0.0778337454707945,0.08969000391529,-0.0976987090906369,0.107095735058826,-0.1006730727122855,0.0025966800788236,0.0029824883270267,-0.0032533670127182
14.42,0.8528005819416223,0.1151690112504827,0.0757669904169343,0.0867367529688194,0.0257628954728222,-0.107641669321346,3.707555692596373,0.0025217652351858,0.0028894474463817,0.0008579044192449
14.454,0.8536584863608674,0.1152570861940461,0.0757504362116799,0.0868681030740397,0.0262555942504867,0.0026448932001008,0.0147957590890223,0.0025211883067415,0.0028938418400158,0.0008743112885412
14.488,0.8545327976494086,0.1187053650063223,0.0779384972889142,0.0895352127468859,0.0265401600589533,0.103551916284571,0.0085455197737744,0.0025939966560446,0.0029827016357517,0.0008837873299631
14.52,0.8554165849793716,0.1150619964802866,0.0754696363844065,0.086853883148855,0.1453230732549791,-0.1094104662473185,3.567054450331103,0.0025060945711335,0.0028983353387932,0.0048392583393908
14.553,0.8602558433187625,0.1150907517893164,0.0750672014234853,0.0872398785984708,0.1448113988767403,0.0008635227936866,-0.015365596944107,0.0024926870955089,0.0029111351267828,0.0048222195825954
14.588,0.8650780629013579,0.1185035102969444,0.0768590897089388,0.090198460529054,0.1500111767289022,0.1024852404693104,0.1561494850499047,0.002551857193713,0.0030100208682538,0.0049953721850724
14.62,0.8700734350864305,0.1152249037004895,0.074293609200815,0.0880751841593514,-0.335550005608753,-0.0984566545481948,-14.581416887016672,0.0024902747459502,0.0029190521314906,-0.0111738151867714
14.653,0.8588996198996588,0.1147081850432757,0.0749355293604196,0.0868483399691443,-0.1469779137468765,-0.0155170767932079,5.66282558143773,0.0025023842884183,0.0028859630224737,-0.0048943645277709
14.687,0.854005255371888,0.1179640688497527,0.0774987116123557,0.0889352080900142,-0.1536405460682526,0.0977742884827931,-0.2000790486899711,0.0025882346862383,0.0029549602754655,-0.0051162301840728
14.72,0.8488890251878151,0.1149423537479002,0.075955906436703,0.0862696062497461,-0.2813543286405881,-0.0907421952508268,-3.8352487258959616,0.0025427163314717,0.0028609190925921,-0.0093690991437315
14.754,0.8395199260440835,0.1144675756020012,0.0764437629729029,0.0852008037916457,-0.2845581503997015,-0.0142576019789475,-0.0962108636370383,0.0025589459283502,0.002825115854322,-0.00947578640831
14.788,0.8300441396357734,0.1179109762524804,0.0795714190427143,0.0870137207131253,-0.2927764165763236,0.103405424939316,-0.2467947800787411,0.0026637747467725,0.0028846278425041,-0.0097494546719915
14.82,0.8202946849637818,0.1140802534568244,0.0778033853950752,0.0834322326792152,-0.2860445142755654,-0.11503672059027,0.2021592282509972,0.0026040107412011,0.0027659448225563,-0.0095252823253763
14.853,0.8107694026384055,0.1141265292825772,0.0786264406977943,0.0827209012842776,-0.285889498703463,0.0013896644370205,0.0046551222853557,0.0026312984872608,0.0027421344584015,-0.0095201203068253
14.887,0.8012492823315802,0.1176701469617754,0.0818760632645815,0.0845137488832443,-0.2949916759823869,0.1064149453212675,-0.2733386570247409,0.0027402165660663,0.0028009057146446,-0.0098232228102134
14.92,0.7914260595213667,0.11534938994333,0.0810711956310222,0.082054512363763,-0.058710812571863,-0.0696924029563188,7.095521423739456,0.002702305850795,0.002729808428868,-0.001955070058643
14.954,0.7894709894627238,0.114412388897232,0.0805716070948977,0.0812306029973734,-0.0645307276537686,-0.0281381695524918,-0.1747722246818511,0.002685904851694,0.0027021279724783,-0.0021488732308704
14.987,0.7873221162318531,0.1179500269916695,0.0832426457174261,0.083563573411497,-0.0669715467136375,0.1062353782113357,-0.0732978696657335,0.0027750457892623,0.0027796085631614,-0.0022301525055641
15.02,0.7850919637262892,0.1156281978921515,0.0817865143317776,0.0817364436542505,-0.1960503725829806,-0.0697245975831252,-3.8762410170973887,0.0027323221682778,0.0027129484529928,-0.0065284774070132
15.053,0.7785634863192759,0.1147176432166283,0.0816701372767051,0.0805613203862857,-0.2029375988182178,-0.0273439842499451,-0.2068236106677842,0.0027286258464655,0.0026735165061741,-0.0067578220406466
15.087,0.7718056642786291,0.1182579865792536,0.0847498833133513,0.0824767159151737,-0.2096293950159688,0.1063166174962571,-0.2009548407733027,0.0028316998957642,0.0027366376218055,-0.0069806588540317
15.12,0.7648250054245973,0.0821651892698954,0.0592824746443379,0.0568920603230465,-0.1969121882653423,-1.0838677870678162,0.3818981006194156,0.001980279834306,0.0018880446384486,-0.0065571758692358
15.154,0.7582678295553615,0.0487326175920959,0.0353812571709447,0.0335117092727441,-0.1969840010016003,-1.00398113146545,-0.0021565386263681,0.0011818334799532,0.0011120825413365,-0.0065595672333532
15.187,0.7517082623220083,0.0161747575559291,0.0118160386257319,0.0110455426841916,-0.2029531855140597,-0.9777135145996012,-0.1792547901639458,0.000394709399574,0.0003664891163119,-0.0067583410776181
15.221,0.74494992124439,0.0001832009285696,0.0001346750061628,0.0001241983210185,0.002214240227944,-0.4802269257465316,6.1611839562163295,4.4844732953609455e-06,4.136025729642965e-06,7.373419959053607e-05
15.254,0.7450236554439805,0.0002159087906595,0.0001587084773015,0.0001463838280572,-0.0021054732097771,0.0009822180807767,-0.1297211242558915,5.285101971481086e-06,4.874462557934454e-06,-7.01122578855795e-05
15.288,0.744953543186095,0.0001310666141832,9.634961051606798e-05,8.885499370807958e-05,-0.0018096193122804,-0.0025478131073963,0.0088845014263291,3.2084940295154192e-06,2.9588149032021024e-06,-6.026032309893736e-05
15.32,0.744893282862996,0.0001244199668432,9.14686138555826e-05,8.434346938926758e-05,-0.0017652688526872,-0.0001995990192186,0.0013318456334271,3.04595212658469e-06,2.808586249193968e-06,-5.8783452794486383e-05
15.353,0.7448344994102016,0.0001240063722731,9.11694969298323e-05,8.40577372638411e-05,-0.0017622126774984,-1.242025735987259e-05,9.17770326965818e-05,3.035991230333034e-06,2.7990716916018897e-06,-5.868168216069947e-05
15.388,0.7447758177280408,0.0001275132844197,9.375285106411747e-05,8.642939674009062e-05,-0.0018119803431867,0.0001053126770733,-0.0014945244951422,3.122020633411952e-06,2.878043921159777e-06,-6.03389454281178e-05
15.42,0.7447154787826128,0.0001235606691839,9.0851783978051e-05,8.374480471758916e-05,-0.0017555919676242,-0.000118697154228,0.0016933446114856,3.0254109067208787e-06,2.78865154890406e-06,-5.846121252188752e-05
15.453,0.7446570175700907,0.0001233894127097,9.073075126799496e-05,8.362342939159687e-05,-0.0017529917873969,-5.142837061471364e-06,7.808349030889413e-05,3.021380329531891e-06,2.784609948559932e-06,-5.837462652031889e-05
15.487,0.7445986429435706,0.0001269751561462,9.337244472096576e-05,8.604810773745168e-05,-0.0018038239368976,0.0001076799830771,-0.0015264909759953,3.109352489428035e-06,2.8653476427652677e-06,-6.006733709869039e-05
15.52,0.7445385756064717,0.0001231144411853,9.053844091509566e-05,8.34263528212556e-05,-0.0017489288367483,-0.0001159373862119,0.0016485015059831,3.0149760977121484e-06,2.778047609238164e-06,-5.8239330263720746e-05
15.553,0.7444803362762081,0.0001230104380427,9.046681137268511e-05,8.335060832124607e-05,-0.0017474548687176,-3.1232174977351715e-06,4.426330422560199e-05,3.0125907240535494e-06,2.775525430832324e-06,-5.819024712829802e-05
15.588,0.7444221460290797,0.0001266484749946,9.314736318621328e-05,8.581028463953181e-05,-0.0017991891279805,0.0001092503589156,-0.0015535813592466,3.1018569153988805e-06,2.8574285039729e-06,-5.991299796175298e-05
15.62,0.7443622330311181,0.000122853541449,9.036125411438364e-05,8.323362542538805e-05,-0.0017453732126209,-0.0001139619683347,0.001616093554344,3.009075506857908e-06,2.77163006282949e-06,-5.812092798027636e-05
15.654,0.7443041121031378,0.0001227997555128,9.032652882008018e-05,8.319193557875143e-05,-0.0017447425551087,-1.615193278839298e-06,1.8938664029997865e-05,3.0079191025620577e-06,2.7702418416087137e-06,-5.809992708512013e-05
15.688,0.7442460121760527,0.0001264790772356,9.303786703623796e-05,8.567912392012029e-05,-0.0017971955444,0.0001104901418236,-0.0015751648435843,3.098210522900923e-06,2.853061018305709e-06,-5.984661162852234e-05
15.72,0.7441861655644242,0.0001227311174802,9.028584755037296e-05,8.313478772482373e-05,-0.0017441441647904,-0.0001125513440061,0.0015931345228118,3.006564357308157e-06,2.768338870372482e-06,-5.808000068752151e-05
15.753,0.7441280855637367,0.0001227148740706,9.027872593526035e-05,8.311854162385322e-05,-0.0017441449688319,-4.877900774885442e-07,-2.414539092574933e-08,3.0063271986412625e-06,2.7677978790777136e-06,-5.8080027462104056e-05
15.787,0.7440700055362744,0.0001264272644164,9.301482606118658e-05,8.562765511579584e-05,-0.0017971796756043,0.0001114831935676,-0.0015926338370075,3.09744322792464e-06,2.8513471212688595e-06,-5.9846083197623306e-05
15.82,0.7440101594530769,0.0001227122276113,9.02865799985769e-05,8.310610252859281e-05,-0.0017446575313489,-0.0001115626668201,0.001577241569231,3.006588755744948e-06,2.7673836272354552e-06,-5.809709579391865e-05
15.853,0.7439520623572831,0.0001227240598422,9.030011420094132e-05,8.310886980022722e-05,-0.0017451314482066,3.553222513747771e-07,-1.42317374687411e-05,3.0070394680345007e-06,2.767475746216573e-06,-5.811287722528036e-05
15.887,0.7438939494800577,0.000126463385556,9.305647916955536e-05,8.563573769675892e-05,-0.0017986455705652,0.0001122920634767,-0.0016070307014612,3.0988303507005653e-06,2.8516161714867977e-06,-5.9894897499823686e-05
15.92,0.7438340545825579,0.0001227707744098,9.034429728188712e-05,8.312984420666318e-05,-0.0017464766906425,-0.0001108892236115,0.0015666330307115,3.0085108381594474e-06,2.768174102288448e-06,-5.815767379839798e-05
15.953,0.7437758969087596,0.0001228036120533,9.037329755609167e-05,8.31468232838103e-05,-0.001747305375263,9.861154220797511e-07,-2.488542403674915e-05,3.0094765948319305e-06,2.7687394480804844e-06,-5.818526899625809e-05
15.988,0.7437177116397632,0.0001265652961311,9.31465717475672e-05,8.56883326739899e-05,-0.0018012225671993,0.0001129634858205,-0.0016191348929841,3.1018305864334787e-06,2.853367398961895e-06,-5.998071148773932e-05
16.02,0.7436577309282755,0.0001228872675501,9.04446922674751e-05,8.31927771298767e-05,-0.001749275335954,-0.0001104513087399,0.0015599769142733,3.011854154892993e-06,2.770269573044587e-06,-5.82508686872707e-05
16.054,0.7435994800595883,0.0001229358306438,9.048528238452794e-05,8.322038288718448e-05,-0.0017503703490512,1.4583511629590725e-06,-3.288327619260171e-05,3.013205871538836e-06,2.7711887674328523e-06,-5.828733262340792e-05
16.088,0.7435411927269647,0.0001267164588094,9.327296314990728e-05,8.577421103366702e-05,-0.0018046336709591,0.0001135323773454,-0.0016295291864235,3.106039632209776e-06,2.8562268985580734e-06,-6.009430124294113e-05
16.121,0.7434810984257219,0.0001230471523651,9.057707930758736e-05,8.328501911683148e-05,-0.0017528096242435,-0.0001101893827108,0.0015562776791489,3.016262857421382e-06,2.7733409806749914e-06,-5.8368560487309655e-05
16.153,0.7434227298652346,0.0001231074980901,9.06263642675316e-05,8.33205748040061e-05,-0.0017541048815263,1.8121839331412023e-06,-3.889661509942462e-05,3.017904126107819e-06,2.774524892671877e-06,-5.841169255482726e-05
16.187,0.7433643181726798,0.0001269045244004,9.342658607653477e-05,8.588498895258205e-05,-0.0018086719015779,0.0001140248141221,-0.0016386492507992,3.11115553247755e-06,2.859915504587241e-06,-6.022877432254603e-05
16.221,0.7433040893983572,0.0001232395602767,9.073347784006572e-05,8.339919194009569e-05,-0.0017568973543338,-0.0001100589826923,0.0015547912085306,3.021471180778487e-06,2.77714264343075e-06,-5.850468189931846e-05
16.253,0.7432455847164579,0.0001233087446105,9.078929570735926e-05,8.344069919645854e-05,-0.0017583434784992,2.077607620943273e-06,-4.342715211295401e-05,3.0233300057399894e-06,2.778524731249105e-06,-5.855283783402499e-05
16.287,0.7431870318786239,0.0001271202717704,9.360066904451644e-05,8.601440722000405e-05,-0.001813182608557,0.0001144602750713,-0.0016468207224568,3.1169527860842027e-06,2.8642247970123918e-06,-6.03789808649502e-05
16.321,0.7431266528977589,0.0001234563759842,9.09079281687831e-05,8.352978730506448e-05,-0.0017614023912139,-0.0001100269004854,0.0015549614817746,3.027280657968717e-06,2.7814911450209343e-06,-5.86546996274251e-05
16.353,0.7430679981981315,0.0001235322006747,9.096866445395876e-05,8.357575420537938e-05,-0.0017629624920272,2.277017730640457e-06,-4.684987427329407e-05,3.029303274228421e-06,2.7830217301859865e-06,-5.870665098450801e-05
16.387,0.743009291547147,0.0001273568158314,9.37901553783663e-05,8.615779298948057e-05,-0.0018180502483578,0.0001148533080093,-0.001654286976893,3.1232629977241777e-06,2.8689991787384007e-06,-6.0541073270314886e-05
16.42,0.7429487504738767,0.0001236915400054,9.109597978499282e-05,8.36726928928116e-05,-0.0017662230289568,-0.0001100683431216,0.0015563729549849,3.033543080231231e-06,2.786249552584123e-06,-5.881522686426167e-05
16.453,0.7428899352470123,0.0001237723637199,9.116042888177057e-05,8.37220056312258e-05,-0.0017678695467617,2.4271385732104344e-06,-4.944497912856747e-05,3.035689339250277e-06,2.7878915473807705e-06,-5.887005590716754e-05
16.487,0.7428310651911051,0.0001276090157311,9.39912689911516e-05,8.631165766744417e-05,-0.0018231885030964,0.0001152147751106,-0.0016612299199586,3.1299604176748616e-06,2.874122486096332e-06,-6.07121771531105e-05
16.52,0.742770353013952,0.000123940528154,9.129430943172144e-05,8.382483870844638e-05,-0.0017712832876193,-0.0001101647921037,0.0015587151794913,3.040147778020029e-06,2.7913156407946137e-06,-5.8983733477724345e-05
16.554,0.7427113692804744,0.0001240251255034,9.136157116349657e-05,8.387666582952356e-05,-0.0017729956349043,2.5404609413199177e-06,-5.142184038998276e-05,3.042387702551599e-06,2.793041359250752e-06,-5.90407546423144e-05
16.587,0.742652328525832,0.0001278730333846,9.420119042053375e-05,8.647339700944996e-05,-0.0018285328896993,0.0001155527892269,-0.0016677854292796,3.13695115336609e-06,2.87950800261512e-06,-6.089014522698832e-05
16.621,0.7425914383806052,0.0001241999626354,9.150043569599742e-05,8.398393290435571e-05,-0.0017765264102321,-0.0001103024249026,0.0015617561401575,3.047012116481036e-06,2.7966130952646997e-06,-5.915832946072897e-05
16.654,0.7425322800511444,0.00012428741863,9.156983785058656e-05,8.403765361872996e-05,-0.0017782892087238,2.626306145297656e-06,-5.293689164451946e-05,3.049323320813091e-06,2.798401866213052e-06,-5.9217030650504655e-05
16.688,0.7424730630204938,0.0001281460030912,9.441781434144873e-05,8.664106672501551e-05,-0.0018340352443633,0.0001158734072431,-0.0016740551243086,3.144165094126973e-06,2.8850909870415124e-06,-6.107337363729926e-05
16.721,0.7424119896468566,0.0001244673214401,9.17125057045898e-05,8.414826441389565e-05,-0.0017819100029028,-0.0001104709204537,0.0015653225663807,3.054074392087207e-06,2.8020849405568444e-06,-5.933760309666525e-05
16.754,0.7423526520437599,0.0001245569530276,9.178354643724762e-05,8.420341531635073e-05,-0.0017837117672621,2.691639264787963e-06,-5.4107037817776704e-05,3.056440164026884e-06,2.803921333431253e-06,-5.939760184983101e-05
16.788,0.74229325444191,0.0001284257853734,9.463956886666384e-05,8.681321531603362e-05,-0.0018396595919736,0.0001161811515237,-0.0016801148561986,3.1515498935983503e-06,2.890823107200723e-06,-6.126066441272116e-05
16.821,0.7422319937774973,0.0001247407217644,9.192913613046204e-05,8.431655588683675e-05,-0.001787402402679,-0.00011066257084,0.0015692849637994,3.061288537922342e-06,2.8076886432096028e-06,-5.9520500009213605e-05
16.853,0.7421724732774881,0.0001248320189281,9.200144071838642e-05,8.437279096613495e-05,-0.0017892345547907,2.741656567654717e-06,-5.50195829341286e-05,3.063696398624366e-06,2.809561136458345e-06,-5.958151067453343e-05
0.524,-2.356207423617368,-3.5787646167564816e-05,2.5306014574882525e-05,2.530535999646419e-05,-0.0004569586456968,-0.0008101590758923,-0.0078907830266918,8.42685798065503e-07,8.426729752411632e-07,-1.5216722901703858e-05
0.557,-2.356222640340269,-6.752915233064445e-06,4.775166570047325e-06,4.7748977343244e-06,-0.0001196497857196,0.0008719138418768,0.0101293951945105,1.5901130707194745e-07,1.590058343512076e-07,-3.984337864463072e-06
0.5910000000000001,-2.3562266246781336,0.0001840342127898,-0.0001301360214866,-0.0001301276580471,0.0004487723063044,0.0057293431838727,0.0170697324932161,-4.3334410925499415e-06,-4.333339439841003e-06,1.4944117799939436e-05
0.624,-2.356211680560333,3.814002813970722e-05,-2.696953613652904e-05,-2.6968608919966807e-05,-0.0004287508839829,-0.004381206746252,-0.0263520477563791,-8.980803493459424e-07,-8.980598811633373e-07,-1.4277404436631882e-05
0.657,-2.35622595796477,-7.678703963036062e-06,5.429834499718368e-06,5.4294927808787e-06,1.823179990326593e-05,-0.0013759379009832,0.0134229034200061,1.8081109562635534e-07,1.8080450307018444e-07,6.071189367787556e-07
0.6900000000000001,-2.356225350845833,-7.25603161586936e-06,5.130947497148344e-06,5.130630818135609e-06,0.0001529939398829,1.2692863278279336e-05,0.0040469111105006,1.708579067378164e-07,1.708526512750501e-07,5.094698198101873e-06
0.7240000000000001,-2.356220256147635,-5.424770306900895e-06,3.835990704534176e-06,3.835793033697338e-06,0.000192905329313,5.499283210115512e-05,0.0011985402231268,1.277364281721467e-07,1.277339703769901e-07,6.423747466125001e-06
0.757,-2.3562138324001687,-3.942944385491001e-06,2.788136639975829e-06,2.788028784625313e-06,0.0002129829277317,4.449927691921603e-05,0.0006029308834425,9.284342011330905e-08,9.284288856448938e-08,7.092331493465624e-06
0.791,-2.3562067400686755,-2.7155858493648583e-06,1.920232691160897e-06,1.920185646511201e-06,0.0002310991567939,3.685761369748175e-05,0.000544030902771,6.394267557595787e-08,6.394325507273767e-08,7.69560192123937e-06
0.8230000000000001,-2.3561990444667544,-1.480854644500002e-06,1.0471271299492588e-06,1.0471175921841134e-06,0.0002308070306264,3.70790151611068e-05,-8.772557584605108e-06,3.486874844721982e-08,3.486960079497023e-08,7.685874119859378e-06
0.8560000000000001,-2.3561913585926346,-4.32689268000009e-07,3.0595655741148254e-07,3.059584736844167e-07,0.000233780946295,3.147643773273252e-05,8.930677683595235e-05,1.0188181931409509e-08,1.0188588600374065e-08,7.784905511624998e-06
0.89,-2.356183573687123,6.197980759369472e-07,-4.382586381303363e-07,-4.38268206740216e-07,0.0002408305334552,3.160622654465333e-05,0.0002116993141215,-1.4593765372030598e-08,-1.4594578552339257e-08,8.019656764061259e-06
0.924,-2.356175554030359,1.6646311814594398e-06,-1.1770497071475128e-06,-1.1770942855995033e-06,0.0002307386839393,3.137636953520998e-05,-0.0003030585440237,-3.9195097699229545e-08,-3.9197897221818713e-08,7.683598175178745e-06
0.956,-2.356167870432184,2.79633944759461e-06,-1.9772579496594663e-06,-1.9773632207265754e-06,0.0002247328612622,3.398523321727238e-05,-0.0001803550353461,-6.584159171203134e-08,-6.584729318064309e-08,7.4836042800337535e-06
0.991,-2.3561603868279035,4.208550691707217e-06,-2.9757932433203653e-06,-2.9759962193655687e-06,0.0002218562169163,4.240874606944765e-05,-8.638571609278066e-05,-9.909226721261796e-08,-9.91023217598589e-08,7.38781202331563e-06
1.024,-2.3561529990158805,5.555761160409889e-06,-3.928353389030387e-06,-3.9286793865639526e-06,0.0002024296047812,4.045677083191208e-05,-0.0005833817457998,-1.3081203488346122e-07,-1.3082715633577836e-07,6.74090583921562e-06
1.057,-2.356146258110041,7.204059003662169e-06,-5.09379327152537e-06,-5.094284663739242e-06,0.0001862874575021,4.949843373129968e-05,-0.0004847491675391,-1.696205957298375e-07,-1.6964239921007814e-07,6.203372334823126e-06
1.09,-2.3561400547377063,9.333777797369384e-06,-6.599618292050038e-06,-6.600336837609441e-06,0.0001719268711912,6.395551933054698e-05,-0.0004312488381675,-2.197638172741415e-07,-2.1979468811145325e-07,5.725164810667499e-06
1.124,-2.356134329572896,-0.000152596508856,0.0001078955345495,0.0001079085174549,0.0021907357589475,-0.0048627713709735,0.060624891524215,3.5927437506866075e-06,3.5935311493571974e-06,7.295150077295437e-05
1.156,-2.356061378072123,9.907283248499993e-06,-7.004574588175885e-06,-7.006439623995143e-06,0.0001620803068146,0.0048799937568933,-0.0609205841481346,-2.3324868656663283e-07,-2.3331808566215807e-07,5.3972742169293735e-06
1.191,-2.356055980797906,8.486071096621616e-06,-5.999727226782271e-06,-6.001389494202516e-06,0.0001908665951202,-4.2679043599951234e-05,0.0008644531022695,-1.9978769683257195e-07,-1.99849489035424e-07,6.355857617505008e-06
1.223,-2.3560496249402885,6.7440496780720615e-06,-4.76807238189597e-06,-4.7694540380744594e-06,0.0002058729147774,-5.231295551199864e-05,0.0004506402299461,-1.5877421176542782e-07,-1.588254172281314e-07,6.855568062089993e-06
1.257,-2.3560427693722263,5.495408193743264e-06,-3.885250791569544e-06,-3.886429917349448e-06,0.0002231539257768,-3.749674127113505e-05,0.0005189492792606,-1.293766966689801e-07,-1.2942027025112198e-07,7.431025728369385e-06
1.29,-2.356035338346498,4.591308673441446e-06,-3.246028762688305e-06,-3.247062150101054e-06,0.0002448211428171,-2.7150135744799352e-05,0.0006506671783861,-1.0809091857162515e-07,-1.0812900820839109e-07,8.15254405581e-06
1.324,-2.356027185802442,3.622692977378385e-06,-2.5612021625389363e-06,-2.5620593066813554e-06,0.000249332715967,-2.9087558440332145e-05,0.0001354826771737,-8.528657438148849e-08,-8.53180320299585e-08,8.30277944170125e-06
1.356,-2.356018883023,2.971228664918894e-06,-2.100606958589848e-06,-2.1013448514605185e-06,0.0002585958257356,-1.9563492866651367e-05,0.0002781714645253,-6.994900541422057e-08,-6.997598941960165e-08,8.611240996998746e-06
1.39,-2.3560102717820035,2.52227294827478e-06,-1.7831877189286006e-06,-1.7838448320022025e-06,0.0002742049173348,-1.348215365297641e-05,0.0004687414894641,-5.9379111559005625e-08,-5.940307198667201e-08,9.13102374725062e-06
1.423,-2.356001140758256,2.033526043009008e-06,-1.4376420068263972e-06,-1.4381980488806273e-06,0.0002722147524547,-1.4677084242215378e-05,-5.976471111481647e-05,-4.787264234734612e-08,-4.7892831168279155e-08,9.06475125674251e-06
1.456,-2.3559920760069994,1.7083126099639704e-06,-1.207714898023592e-06,-1.2082039142685217e-06,0.0002770644152275,-9.76616916051164e-06,0.0001456355187045,-4.0216200144441754e-08,-4.0233896007035464e-08,9.226245027078755e-06
1.49,-2.3559828497619724,1.487252566572068e-06,-1.0514237807179295e-06,-1.051868922497484e-06,0.0002896057993527,-6.638439741498575e-06,0.0003766181418969,-3.501178997028985e-08,-3.5027856770756434e-08,9.64387311844687e-06
1.524,-2.3559732058888536,0.0337042434666551,-0.0238272247686113,-0.0238377722844573,-0.0003524327556378,1.0120947812038616,-0.0192804370868058,-0.000793440976253,-0.0007938034230733,-1.1736010762741258e-05
1.557,-2.3559849418996164,0.0670542993737103,-0.0474046131159781,-0.0474244843917527,4.356176068446576e-05,1.0015031803920476,0.0118917272168871,-0.001578552046307,-0.0015792568914094,1.45060663079271e-06
1.59,-2.3559834912929856,0.103120322915163,-0.0729016925648762,-0.0729324634117329,4.487986455751978e-05,1.0830637700135946,3.9582698890511146e-05,-0.0024275931368212,-0.0024286842431726,1.4944994897654088e-06
1.623,-2.355981996793496,0.1337808528861818,-0.0945772448211365,-0.0946174474449454,4.31845309195231e-05,0.9207366357663286,-5.091092005996042e-05,-0.003149379236735,-0.0031508039968559,1.4380448796201193e-06
1.657,-2.3559805587486164,0.1671439221688851,-0.1181633138373778,-0.1182138823529947,4.180408438217832e-05,1.001893972453555,-4.14548509713148e-05,-0.0039347846980322,-0.0039365759120978,1.392076009926538e-06
1.69,-2.3559791666726064,0.2062426103993773,-0.1458041431789012,-0.1458669468255775,3.975093641987964e-05,1.1741347816964625,-6.165609496392429e-05,-0.0048552119303314,-0.0048574353380881,1.323706182781992e-06
1.723,-2.3559778429664235,0.2180174680400964,-0.1541282277611703,-0.1541950251396434,-4.375368528634942e-06,0.3535993285501211,-0.0013251142627181,-0.0051324039382966,-0.0051347603358553,-1.4569977200354357e-07
1.756,-2.355977988666196,0.2180146053970927,-0.1541262264713573,-0.1541929780507203,2.46785412192658e-05,-8.59652553663125e-05,0.0008724897822192,-0.0051323348237562,-0.0051346946581374,8.217954226015512e-07
1.79,-2.355977166870773,0.2246214037820637,-0.1587967963138976,-0.1588658318124682,1.2770611675257276e-05,0.1984023539030345,-0.000357595481802,-0.0052878637706966,-0.0052903017140157,4.252613687860674e-07
1.823,-2.355976741609404,0.2180120569378562,-0.1541242325434621,-0.1541913678296029,-0.0060505883839793,-0.1984788842104353,-0.1820828527223609,-0.0051327877762516,-0.0051341218555334,-0.0002014845931865
1.856,-2.3561782262025908,0.2180107163849488,-0.1541543487012207,-0.1541593631122711,-0.0059657912681032,-4.025684406615225e-05,0.0025464599362193,-0.0051337833037326,-0.0051330632588814,-0.0001986608492278
1.891,-2.3563768870518187,0.224624592372343,-0.1588625405903015,-0.1588045991010212,-0.006232120415299,0.1986148945163402,-0.0079978722881607,-0.0052906029042228,-0.0052877126096261,-0.0002075296098294
1.923,-2.356584416661648,0.1948342878169382,-0.1378223552900557,-0.1377149160092514,0.0419711983127013,-0.8946037404025455,1.4475471089489598,-0.004586218858778,-0.0045891717510536,0.0013976409038129
1.956,-2.355186775757835,0.1945351973456744,-0.1374184690693056,-0.1376957056881905,0.0350102590535318,-0.0089816958337479,-0.2090372149900747,-0.0045733017980526,-0.0045879925753043,0.0011658416264826
1.99,-2.3540209341313525,0.2005048541948726,-0.1414698442251167,-0.1420861700892397,0.0345860276760022,0.1792689744503964,-0.0127396810068953,-0.0047081588904378,-0.0047342421435034,0.0011517147216108
2.023,-2.3528692194097416,0.2183621533532561,-0.1538910670444309,-0.1549179444125095,0.0313214372518179,0.5362552299814862,-0.0980357484740041,-0.0051218145409403,-0.0051615053308634,0.0010430038604855
2.057,-2.351826215549256,0.2178445545606935,-0.1533650080027244,-0.1547107761989166,0.025716260675971,-0.0155435072841607,-0.1683236208963034,-0.0051047815771583,-0.0051541209573085,0.0008563514805098
2.09,-2.3509698640687464,0.2247003236405945,-0.158054832002782,-0.1597150760722365,0.0261889399362907,0.2058789513483787,0.014194572381975,-0.0052608373068981,-0.0053208744078038,0.0008720916998784
2.124,-2.350097772368868,0.2182765391265145,-0.1534009615114954,-0.1552829434947622,0.0320834214997655,-0.1929064418642656,0.1770114583626071,-0.0051054218838735,-0.0051737158373048,0.0010683779359421
2.156,-2.3490293944329257,0.2184443669601114,-0.1533527919866617,-0.1555662644871937,0.0319913932946435,0.0050398748827904,-0.0027636097634237,-0.0051038206205071,-0.0051831417278728,0.0010653133967116
2.19,-2.347964081036214,0.2251945467715899,-0.1579206303234914,-0.1605417653257026,0.0324861154538674,0.2027081024468014,0.0148565212980133,-0.0052557951440974,-0.0053489521474025,0.0010817876446137
2.224,-2.3468822933916003,0.2185770356244951,-0.1531113555452008,-0.1559898500079505,-0.0250875445091201,-0.198724058471317,-1.7289387376272554,-0.0051007101577438,-0.0051923976438061,-0.0008354152321537
2.256,-2.3477177086237537,0.2184886905925697,-0.1531796808032657,-0.1557988873704344,-0.025991510748829,-0.0026530039617219,-0.0271461333245918,-0.0051030608583871,-0.0051859608508896,-0.000865517307936
2.291,-2.34858322593169,0.2248295600014515,-0.1577638858496049,-0.1601839173327932,-0.02645608901493,0.1904164987652188,-0.0139512992823121,-0.005255817409245,-0.0053318775824101,-0.0008809877641971
2.323,-2.349464213695887,0.2179628474055868,-0.1530822342109677,-0.1551567994582562,0.0303017896251658,-0.2062075854614037,1.7044408000028823,-0.0050949639382335,-0.0051693583257125,0.001009049594518
2.357,-2.348455164101369,0.217593590788835,-0.1526665201089186,-0.1550480712237729,0.0316897086321208,-0.0110887872898421,0.0416792494581069,-0.0050810031389551,-0.0051658479098137,0.0010552672974496
2.39,-2.34739989680392,0.2239386386702588,-0.1569498133064793,-0.1597349992723886,0.0323612273916068,0.1905419784211339,0.0201657285130917,-0.0052234928912856,-0.005322058079362,0.0010776288721405
2.423,-2.346322267931779,0.2072678668551518,-0.1451065178145294,-0.1480002267512674,0.0298411104277884,-0.5006237782314409,-0.0756791881026534,-0.0048295337741372,-0.0049308700266082,0.0009937089772453
2.456,-2.3453285589545336,0.2060771958738577,-0.144126643408813,-0.1472933172922016,0.0314102930053882,-0.0357558853241465,0.0471225999279203,-0.0047967877266859,-0.0049074386163907,0.0010459627570794
2.49,-2.3442825961974543,0.2124460696400181,-0.1484220119645696,-0.1520007857541552,0.0322440221531292,0.1912574704552675,0.0250369113435756,-0.0049396691504672,-0.0050643425000318,0.0010737259376992
2.523,-2.343208870259755,0.206374413645217,-0.144021521816951,-0.1478113658043137,0.0386873099133959,-0.18233201185589,0.1934921249329333,-0.0047926810984763,-0.0049252683650831,0.001288287420116
2.556,-2.3419205828396388,0.2065446283192303,-0.1439496085720686,-0.1481188498452416,0.038563598476427,0.00511155177217,-0.0037150581672347,-0.0047902898283878,-0.0049354961423921,0.001284167829265
2.59,-2.340636415010374,0.212982225593673,-0.1482399796758397,-0.1529259194660632,0.0393966389148143,0.1933212394727556,0.0250162293809989,-0.0049329836007369,-0.0050957335036092,0.0013119080758633
2.623,-2.3393245069345103,0.2181540432425507,-0.1516340433075962,-0.1568384630543883,0.0791560753333168,0.1553098393056373,1.1939770696247,-0.0050424568869897,-0.0052294348525794,0.0026358973085994
2.656,-2.336688609625911,0.2185291778798593,-0.15148014290865,-0.1575079930962938,0.0787244905362562,0.0112653044236789,-0.0129605044162333,-0.0050373400912811,-0.0052516871750768,0.0026215255348573
2.69,-2.334067084091054,0.2252564071501235,-0.1557171679965791,-0.1627655140172739,0.0808161441855564,0.2020188970049334,0.0628124219009071,-0.0051780120340397,-0.0054271294315403,0.002691177601379
2.723,-2.331375906489675,0.195609075635633,-0.1348414398437882,-0.1417063744927547,0.0201696219804769,-0.8903102556904063,-1.8212168830354205,-0.0044885738641102,-0.004720387893344,0.0006716484119498
2.756,-2.3307042580777244,0.2066697375224416,-0.142365421583738,-0.1498147761233165,0.0704483587546503,0.33215200861287,1.509871975200402,-0.0047348478718549,-0.0049944494610508,0.0023459303465298
2.79,-2.3283583277311948,0.2129126836612567,-0.1463034296159183,-0.1546839272402223,0.0716834031223448,0.187475860024479,0.0370884194502862,-0.0048656850510829,-0.005156847570307,0.002387057323974
2.823,-2.325971270407221,0.2178846685398888,-0.1493416520526462,-0.1586530798532558,-0.0007763956966402,0.1493088552141762,-2.175969934504057,-0.0049730769791959,-0.0052831475909971,-2.5853976698120287e-05
2.857,-2.325997124383919,0.2177916212982136,-0.1492819759898997,-0.158581467871424,-0.0028549314455078,-0.0027942114617174,-0.0624184909569862,-0.0049712725162753,-0.0052805908693863,-9.506921713541283e-05
2.891,-2.3260921936010543,0.224213069174029,-0.1536989804425143,-0.1632425306082013,-0.0024873769594596,0.1928362725470086,0.0110376722537022,-0.0051183308694104,-0.0054358304926671,-8.282965275000498e-05
2.924,-2.3261750232538043,0.2062616972940174,-0.1414056795053353,-0.1501609855263453,-0.004632571595369,-0.5390802366369845,-0.0644202593366196,-0.004709130130785,-0.0050000585024391,-0.0001542646341257
2.956,-2.3263292878879303,0.2060958930769475,-0.1413151542618312,-0.1500184799254392,-0.0039211600136628,-0.0049791056177149,0.0213637111623495,-0.0047060561670178,-0.0049953690044722,-0.0001305746284549
2.991,-2.3264598625163853,0.2125025384492153,-0.1457282380854005,-0.1546628897696052,-0.0043292900578167,0.1923917529209537,-0.0122561574820995,-0.0048530549504359,-0.0051499871792987,-0.0001441653589252
3.024,-2.3266040278753106,0.2178514741546616,-0.1494192438157772,-0.1585343949081099,0.0378740598951302,0.1606286998632542,1.2673678664548622,-0.004972262104429,-0.0052823959264172,0.0012612061945078
3.056,-2.3253428216808025,0.2180875367191955,-0.1493808734901102,-0.1588947082428428,0.0370234532140942,0.0070889659019189,-0.025543744175253,-0.0049710516480247,-0.0052943231480112,0.0012328809920293
3.09,-2.324109940688773,0.2248833003974118,-0.1538335687736507,-0.1640357641369559,0.0376619262808879,0.2040769873338219,0.01917336536918,-0.0051191605010025,-0.0054656679926815,0.0012541421451535
3.123,-2.32285579854362,0.2184267712369931,-0.1492169831956736,-0.1595134675160684,0.0004778040070343,-0.1938897645771371,-1.1166403085241323,-0.0049688145818664,-0.0053119022622859,1.5910873434243912e-05
3.157,-2.322839887670185,0.2185794067255703,-0.1493187154542844,-0.1596273105066447,-0.0009072755432803,0.0045836483056213,-0.0415939804899302,-0.0049723247736267,-0.0053155786362292,-3.021227559123485e-05
3.191,-2.3228700999457765,0.225240054615087,-0.1538737906679134,-0.1644868953701009,-0.001546123913539,0.2000194561416418,-0.0191846357435039,-0.005124067391411,-0.0054773479787324,-5.148592632084893e-05
3.223,-2.322921585872097,0.2184637148275183,-0.1492527164123021,-0.1595306282184966,-0.0269872588277308,-0.2034936873143744,-0.7639980454712267,-0.0049724331576434,-0.0053102002547598,-0.0008986757189634
3.256,-2.3238202615910604,0.2182254155084107,-0.1492330618603293,-0.1592225650515957,-0.0273818822374132,-0.0071561357089369,-0.011850552843315,-0.0049718090024187,-0.0052999093659404,-0.0009118166785058
3.291,-2.324732078269567,0.2245264412624009,-0.1536913170143286,-0.1636798762840427,-0.0279064979113577,0.189219992612318,-0.0157542244427778,-0.0051203822122061,-0.0054482273134024,-0.0009292863804482
3.324,-2.3256613646500157,0.2174861094672829,-0.1490193885393326,-0.1584090579814753,-0.0035496811785845,-0.2114213752287682,0.7314359379211157,-0.0049625891714225,-0.0052747925167067,-0.0001182043832468
3.356,-2.325779569033262,0.2173948318840163,-0.1489755617636821,-0.1583249662152973,-0.0025305638225783,-0.0027410685665663,0.0306041248049938,-0.0049610401544621,-0.0052720765109949,-8.426777529185747e-05
3.391,-2.3258638368085536,0.2239977776591355,-0.1535141514744724,-0.1631208438345764,-0.0018200348865693,0.19828665991349,0.0213372052855546,-0.0051121155958963,-0.0054318353014252,-6.060716172275882e-05
3.424,-2.3259244439702766,0.2175390727681368,-0.1490973576206034,-0.1584084155951779,0.0232798133753632,-0.1939551018317936,0.7537491970550318,-0.0049628286254571,-0.0052769883533638,0.0007752177853995
3.457,-2.3251492261848767,0.2176958226595979,-0.1490818568420253,-0.1586381768805131,0.0236554116809839,0.0047072039477819,0.011279228397017,-0.004962276332266,-0.0052846702250545,0.0007877252089767
3.49,-2.3243615009759,0.2244826448216535,-0.1536006830081944,-0.1637048808238191,0.0240050825524729,0.2038084733350026,0.0105006267714439,-0.005112652837998,-0.0054534824233126,0.0007993692489973
3.524,-2.323562131726902,0.1840824872425155,-0.1258498072668729,-0.1343435451381339,0.0139349193248602,-1.2132179453194596,-0.3024073041325155,-0.0041897026013029,-0.0044746664141389,0.0004640328135178
3.556,-2.323098098913385,0.2060296699611832,-0.1407844276868576,-0.1504259612739704,0.0220651798965516,0.6590745561161476,0.2441519691198629,-0.0046862159111598,-0.0050109670155015,0.0007347704905551
