Time,header.seq,header.stamp.secs,header.stamp.nsecs,header.frame_id,orientation.x,orientation.y,orientation.z,orientation.w,orientation_covariance_0,orientation_covariance_1,orientation_covariance_2,orientation_covariance_3,orientation_covariance_4,orientation_covariance_5,orientation_covariance_6,orientation_covariance_7,orientation_covariance_8,angular_velocity.x,angular_velocity.y,angular_velocity.z,angular_velocity_covariance_0,angular_velocity_covariance_1,angular_velocity_covariance_2,angular_velocity_covariance_3,angular_velocity_covariance_4,angular_velocity_covariance_5,angular_velocity_covariance_6,angular_velocity_covariance_7,angular_velocity_covariance_8,linear_acceleration.x,linear_acceleration.y,linear_acceleration.z,linear_acceleration_covariance_0,linear_acceleration_covariance_1,linear_acceleration_covariance_2,linear_acceleration_covariance_3,linear_acceleration_covariance_4,linear_acceleration_covariance_5,linear_acceleration_covariance_6,linear_acceleration_covariance_7,linear_acceleration_covariance_8
0.36800000000000005,0,0,368000000,base_footprint,-7.195012902795099e-06,-0.0013205943660936723,-1.2669240044955847e-06,0.9999991279881933,0.0,0.0,0.0,0.0,0.0,0.0,0.0,0.0,0.0,-9.473154917645915e-05,-0.1572551524284033,-7.655572347445118e-05,0.0,0.0,0.0,0.0,0.0,0.0,0.0,0.0,0.0,0.0035682639771458576,3.028945322782665e-06,-0.1395066968280861,0.0,0.0,0.0,0.0,0.0,0.0,0.0,0.0,0.0
0.402,1,0,402000000,base_footprint,-2.092064536496807e-05,-0.0009557442394195291,-2.164812715539187e-06,0.9999995430551901,0.0,0.0,0.0,0.0,0.0,0.0,0.0,0.0,0.0,-0.00044788862143039956,0.047663647742826956,-5.327492687465244e-05,0.0,0.0,0.0,0.0,0.0,0.0,0.0,0.0,0.0,-0.002035652395462023,-0.00015144757473903127,0.005210801734993045,0.0,0.0,0.0,0.0,0.0,0.0,0.0,0.0,0.0
0.438,2,0,436000000,base_footprint,-2.8651775830251612e-05,-0.00014287503682716492,-2.4578405417840035e-06,0.9999999893798792,0.0,0.0,0.0,0.0,0.0,0.0,0.0,0.0,0.0,-0.00044259805576696444,0.04764119308322355,-9.106831982482107e-06,0.0,0.0,0.0,0.0,0.0,0.0,0.0,0.0,0.0,-0.0002106939302697424,0.00012313804731878727,6.599517077983101e-05,0.0,0.0,0.0,0.0,0.0,0.0,0.0,0.0,0.0
0.47100000000000003,3,0,470000000,base_footprint,-3.9487306510178366e-05,0.0009421270284266035,-2.9004861382951346e-06,0.9999995554144023,0.0,0.0,0.0,0.0,0.0,0.0,0.0,0.0,0.0,-0.0006059481299752355,0.0678045106840262,-2.615228606554037e-05,0.0,0.0,0.0,0.0,0.0,0.0,0.0,0.0,0.0,-0.0011837450606026452,-2.969954798028195e-05,0.002982642040729168,0.0,0.0,0.0,0.0,0.0,0.0,0.0,0.0,0.0
0.504,4,0,504000000,base_footprint,-4.997031448206851e-05,0.002096602375732993,-3.00717248902071e-06,0.9999978008737834,0.0,0.0,0.0,0.0,0.0,0.0,0.0,0.0,0.0,-0.0006029471083381931,0.06772900658380364,-4.67922545073227e-06,0.0,0.0,0.0,0.0,0.0,0.0,0.0,0.0,0.0,-0.00023008493892479387,3.9250073939296165e-05,0.0001505556401529398,0.0,0.0,0.0,0.0,0.0,0.0,0.0,0.0,0.0
0.538,5,0,538000000,base_footprint,-6.042685521689313e-05,0.003249782969046222,-2.9057479857290416e-06,0.9999947176114512,0.0,0.0,0.0,0.0,0.0,0.0,0.0,0.0,0.0,-0.0006023657487622831,0.06765294135767277,2.034315701013485e-06,0.0,0.0,0.0,0.0,0.0,0.0,0.0,0.0,0.0,-0.00023214987785945076,1.0445087485424162e-05,0.00015292055270075319,0.0,0.0,0.0,0.0,0.0,0.0,0.0,0.0,0.0
0.5720000000000001,6,0,572000000,base_footprint,-7.932548802205828e-06,0.0038897211639471207,-8.705211235024188e-06,0.9999924349366653,0.0,0.0,0.0,0.0,0.0,0.0,0.0,0.0,0.0,-2.7377032319755768e-05,-0.029943199273520682,-0.000599743015721066,0.0,0.0,0.0,0.0,0.0,0.0,0.0,0.0,0.0,0.007904990396964915,0.00545349587897695,0.13093151938195716,0.0,0.0,0.0,0.0,0.0,0.0,0.0,0.0,0.0
0.606,7,0,606000000,base_footprint,-7.181738671195935e-06,0.0038605051997693753,-1.4048750383161642e-05,0.9999925480975635,0.0,0.0,0.0,0.0,0.0,0.0,0.0,0.0,0.0,4.5326593431561255e-05,0.00010366543804345342,7.136361155851158e-05,0.0,0.0,0.0,0.0,0.0,0.0,0.0,0.0,0.0,-0.0062176820772733175,-0.00531861234279467,0.0007899273890006912,0.0,0.0,0.0,0.0,0.0,0.0,0.0,0.0,0.0
0.64,8,0,640000000,base_footprint,-7.3136023742700986e-06,0.0038607285928496837,-1.0710353513857672e-05,0.9999925472754946,0.0,0.0,0.0,0.0,0.0,0.0,0.0,0.0,0.0,3.15499526150021e-05,-0.00019274203694257335,0.0002841662091137235,0.0,0.0,0.0,0.0,0.0,0.0,0.0,0.0,0.0,-5.058267592603412e-05,0.0004150877579179221,0.00029733613949274736,0.0,0.0,0.0,0.0,0.0,0.0,0.0,0.0,0.0
0.674,9,0,674000000,base_footprint,-7.371494978769681e-06,0.0038606231472880113,-5.73607865193718e-06,0.9999925477230683,0.0,0.0,0.0,0.0,0.0,0.0,0.0,0.0,0.0,3.440089573061607e-05,-0.00018096476697807302,0.00032823725116776133,0.0,0.0,0.0,0.0,0.0,0.0,0.0,0.0,0.0,-1.3199322249823732e-05,8.655223107395105e-05,-1.8263832902665953e-05,0.0,0.0,0.0,0.0,0.0,0.0,0.0,0.0,0.0
0.7080000000000001,10,0,708000000,base_footprint,-7.4075689311602985e-06,0.0038605996297469128,-3.5726220198068427e-07,0.9999925478299823,0.0,0.0,0.0,0.0,0.0,0.0,0.0,0.0,0.0,3.512120547167755e-05,-0.00017906480924055956,0.00033968899931589847,0.0,0.0,0.0,0.0,0.0,0.0,0.0,0.0,0.0,-3.379203769485786e-06,2.253557576287724e-05,-3.4003954743156104e-06,0.0,0.0,0.0,0.0,0.0,0.0,0.0,0.0,0.0
0.743,11,0,742000000,base_footprint,-7.4366203070041625e-06,0.003860593522050128,5.127256097190909e-06,0.9999925478402654,0.0,0.0,0.0,0.0,0.0,0.0,0.0,0.0,0.0,3.5344813833366135e-05,-0.00017855479431107626,0.00034273092002991344,0.0,0.0,0.0,0.0,0.0,0.0,0.0,0.0,0.0,-9.046228453590368e-07,5.9824446716178195e-06,-9.014566480112589e-07,0.0,0.0,0.0,0.0,0.0,0.0,0.0,0.0,0.0
0.776,12,0,776000000,base_footprint,-7.463447984270011e-06,0.003860592104839019,1.063993310655745e-05,0.9999925478020769,0.0,0.0,0.0,0.0,0.0,0.0,0.0,0.0,0.0,3.54297488533397e-05,-0.00017841884784040654,0.0003435487494407463,0.0,0.0,0.0,0.0,0.0,0.0,0.0,0.0,0.0,-2.4978591695230096e-07,1.6045921579975182e-06,-2.3445355278509528e-07,0.0,0.0,0.0,0.0,0.0,0.0,0.0,0.0,0.0
0.81,13,0,810000000,base_footprint,-7.489355331958951e-06,0.0038605919303944577,1.6160241416340248e-05,0.9999925477285835,0.0,0.0,0.0,0.0,0.0,0.0,0.0,0.0,0.0,3.547615405078604e-05,-0.00017838213047745676,0.00034377776543932013,0.0,0.0,0.0,0.0,0.0,0.0,0.0,0.0,0.0,-7.638689863901081e-08,4.4552181671972364e-07,-5.8200342260191715e-08,0.0,0.0,0.0,0.0,0.0,0.0,0.0,0.0,0.0
0.8440000000000001,14,0,844000000,base_footprint,-7.514718281113484e-06,0.0038605920873687957,2.1682746732729745e-05,0.9999925476232924,0.0,0.0,0.0,0.0,0.0,0.0,0.0,0.0,0.0,3.551061945975407e-05,-0.00017837168467168637,0.0003438509244133221,0.0,0.0,0.0,0.0,0.0,0.0,0.0,0.0,0.0,-3.047866699416514e-08,1.386580469681962e-07,-1.203037917418435e-08,0.0,0.0,0.0,0.0,0.0,0.0,0.0,0.0,0.0
0.877,15,0,878000000,base_footprint,-7.539664350834355e-06,0.003860592334252902,2.720601040047605e-05,0.9999925474871376,0.0,0.0,0.0,0.0,0.0,0.0,0.0,0.0,0.0,3.554034720589633e-05,-0.00017836820597545255,0.0003438828391191127,0.0,0.0,0.0,0.0,0.0,0.0,0.0,0.0,0.0,-1.8324932104584675e-08,5.7396519705455734e-08,-2.405120216638726e-10,0.0,0.0,0.0,0.0,0.0,0.0,0.0,0.0,0.0
0.912,16,0,912000000,base_footprint,-7.564252698906864e-06,0.0038605926069081933,3.2729651517476855e-05,0.9999925473203667,0.0,0.0,0.0,0.0,0.0,0.0,0.0,0.0,0.0,3.5567390294904394e-05,-0.00017836658262901728,0.0003439038490295675,0.0,0.0,0.0,0.0,0.0,0.0,0.0,0.0,0.0,-1.5108174292314314e-08,3.585983518397572e-08,2.488239075372584e-09,0.0,0.0,0.0,0.0,0.0,0.0,0.0,0.0,0.0
0.9460000000000001,17,0,946000000,base_footprint,-7.588522027543067e-06,0.0038605928881675646,3.825356919959633e-05,0.9999925471230426,0.0,0.0,0.0,0.0,0.0,0.0,0.0,0.0,0.0,3.55924250577696e-05,-0.00017836546045710264,0.00034392198450800975,0.0,0.0,0.0,0.0,0.0,0.0,0.0,0.0,0.0,-1.4257613772831083e-08,3.0136020881073116e-08,2.8547341496433084e-09,0.0,0.0,0.0,0.0,0.0,0.0,0.0,0.0,0.0
0.9800000000000001,18,0,980000000,base_footprint,-7.61250348304534e-06,0.0038605931733157175,4.377773669448021e-05,0.9999925468951805,0.0,0.0,0.0,0.0,0.0,0.0,0.0,0.0,0.0,3.5615751086783565e-05,-0.0001783644800094661,0.00034393937020899207,0.0,0.0,0.0,0.0,0.0,0.0,0.0,0.0,0.0,-1.4033537314877075e-08,2.8600218831328905e-08,2.6288105578837107e-09,0.0,0.0,0.0,0.0,0.0,0.0,0.0,0.0,0.0
1.014,19,1,14000000,base_footprint,-7.636224270242439e-06,0.0038605934609487135,4.930214687920824e-05,0.9999925466367816,0.0,0.0,0.0,0.0,0.0,0.0,0.0,0.0,0.0,3.5637557079897936e-05,-0.00017836354544505808,0.0003439565676406223,0.0,0.0,0.0,0.0,0.0,0.0,0.0,0.0,0.0,-1.3975361377620014e-08,2.8175127363063163e-08,2.276364411521351e-09,0.0,0.0,0.0,0.0,0.0,0.0,0.0,0.0,0.0
1.049,20,1,48000000,base_footprint,-7.65970878923464e-06,0.00386059375055398,5.482679783184191e-05,0.9999925463478437,0.0,0.0,0.0,0.0,0.0,0.0,0.0,0.0,0.0,3.565799215790845e-05,-0.00017836263053334266,0.0003439737245617889,0.0,0.0,0.0,0.0,0.0,0.0,0.0,0.0,0.0,-1.3961138902116459e-08,2.804585395570919e-08,1.917367434777866e-09,0.0,0.0,0.0,0.0,0.0,0.0,0.0,0.0,0.0
1.082,21,1,82000000,base_footprint,-7.682979100015692e-06,0.003860594041867669,6.035168901145056e-05,0.999992546028364,0.0,0.0,0.0,0.0,0.0,0.0,0.0,0.0,0.0,3.567718577450511e-05,-0.00017836172759833633,0.00034399087924699386,0.0,0.0,0.0,0.0,0.0,0.0,0.0,0.0,0.0,-1.3958566712216101e-08,2.7996439620628405e-08,1.5812255649943162e-09,0.0,0.0,0.0,0.0,0.0,0.0,0.0,0.0,0.0
1.116,22,1,116000000,base_footprint,-7.706055194037251e-06,0.0038605943347037697,6.587682024659881e-05,0.9999925456783386,0.0,0.0,0.0,0.0,0.0,0.0,0.0,0.0,0.0,3.56952538455052e-05,-0.00017836083403867273,0.0003440080411647572,0.0,0.0,0.0,0.0,0.0,0.0,0.0,0.0,0.0,-1.3959113319134814e-08,2.7969767126106917e-08,1.273845148666822e-09,0.0,0.0,0.0,0.0,0.0,0.0,0.0,0.0,0.0
1.1480000000000001,23,1,150000000,base_footprint,-7.728955200379093e-06,0.0038605946289074536,7.1402191467255e-05,0.9999925452977645,0.0,0.0,0.0,0.0,0.0,0.0,0.0,0.0,0.0,3.5712301176562984e-05,-0.00017835994861486508,0.00034402521210792755,0.0,0.0,0.0,0.0,0.0,0.0,0.0,0.0,0.0,-1.3960491229091919e-08,2.7950351200343328e-08,9.939341236209906e-10,0.0,0.0,0.0,0.0,0.0,0.0,0.0,0.0,0.0
1.184,24,1,184000000,base_footprint,-7.751695562740828e-06,0.0038605949243420176,7.692780263323672e-05,0.999992544886638,0.0,0.0,0.0,0.0,0.0,0.0,0.0,0.0,0.0,3.572842257543171e-05,-0.00017835907040197738,0.0003440423919964611,0.0,0.0,0.0,0.0,0.0,0.0,0.0,0.0,0.0,-1.3962117433400376e-08,2.7934151205073812e-08,7.401040242878885e-10,0.0,0.0,0.0,0.0,0.0,0.0,0.0,0.0,0.0
1.218,25,1,218000000,base_footprint,-7.7742911969421e-06,0.0038605952208842316,8.245365371564358e-05,0.9999925444449553,0.0,0.0,0.0,0.0,0.0,0.0,0.0,0.0,0.0,3.574370411988773e-05,-0.00017835819872491718,0.0003440595802626253,0.0,0.0,0.0,0.0,0.0,0.0,0.0,0.0,0.0,-1.3963824436565554e-08,2.7919899701189695e-08,5.095459844539816e-10,0.0,0.0,0.0,0.0,0.0,0.0,0.0,0.0,0.0
1.252,26,1,252000000,base_footprint,-7.796755633086875e-06,0.003860595518422575,8.797974469056067e-05,0.999992543972713,0.0,0.0,0.0,0.0,0.0,0.0,0.0,0.0,0.0,3.575822383283457e-05,-0.00017835733295529688,0.00034407677626294614,0.0,0.0,0.0,0.0,0.0,0.0,0.0,0.0,0.0,-1.3965566046056354e-08,2.790715985270579e-08,3.0037432674747653e-10,0.0,0.0,0.0,0.0,0.0,0.0,0.0,0.0,0.0
1.286,27,1,286000000,base_footprint,-7.819101144516574e-06,0.0038605958168559085,9.350607553854041e-05,0.9999925434699074,0.0,0.0,0.0,0.0,0.0,0.0,0.0,0.0,0.0,3.577205256007752e-05,-0.00017835647256577317,0.0003440939793996033,0.0,0.0,0.0,0.0,0.0,0.0,0.0,0.0,0.0,-1.3967330892922604e-08,2.7895768134122e-08,1.1091848667764257e-10,0.0,0.0,0.0,0.0,0.0,0.0,0.0,0.0,0.0
1.32,28,1,320000000,base_footprint,-7.841338864269512e-06,0.0038605961160924213,9.903264624295881e-05,0.9999925429365346,0.0,0.0,0.0,0.0,0.0,0.0,0.0,0.0,0.0,3.5785254485919985e-05,-0.00017835561701705358,0.0003441111890548625,0.0,0.0,0.0,0.0,0.0,0.0,0.0,0.0,0.0,-1.3969101816437245e-08,2.7885446248876416e-08,-6.127911183969448e-11,0.0,0.0,0.0,0.0,0.0,0.0,0.0,0.0,0.0
1.354,29,1,354000000,base_footprint,-7.863478891346835e-06,0.0038605964160487536,0.00010455945678989149,0.999992542372591,0.0,0.0,0.0,0.0,0.0,0.0,0.0,0.0,0.0,3.5797887899557436e-05,-0.00017835476581763468,0.0003441284047646801,0.0,0.0,0.0,0.0,0.0,0.0,0.0,0.0,0.0,-1.3970904788965226e-08,2.7876287735361347e-08,-2.1768151765538195e-10,0.0,0.0,0.0,0.0,0.0,0.0,0.0,0.0,0.0
1.388,30,1,388000000,base_footprint,-7.885530386576137e-06,0.00386059671664934,0.00011008650716813282,0.9999925417780728,0.0,0.0,0.0,0.0,0.0,0.0,0.0,0.0,0.0,3.5810005569702466e-05,-0.00017835391863292444,0.0003441456260351478,0.0,0.0,0.0,0.0,0.0,0.0,0.0,0.0,0.0,-1.3972706643049528e-08,2.7868036564546182e-08,-3.590361240401499e-10,0.0,0.0,0.0,0.0,0.0,0.0,0.0,0.0,0.0
1.4220000000000002,31,1,422000000,base_footprint,-7.90750165962084e-06,0.003860597017825405,0.00011561379736893692,0.9999925411529765,0.0,0.0,0.0,0.0,0.0,0.0,0.0,0.0,0.0,3.582165549097894e-05,-0.00017835307500910184,0.00034416285248277834,0.0,0.0,0.0,0.0,0.0,0.0,0.0,0.0,0.0,-1.3974538031364281e-08,2.786074047926718e-08,-4.876724385024649e-10,0.0,0.0,0.0,0.0,0.0,0.0,0.0,0.0,0.0
1.456,32,1,456000000,base_footprint,-7.92940024857263e-06,0.003860597319514696,0.00012114132738548255,0.999992540497298,0.0,0.0,0.0,0.0,0.0,0.0,0.0,0.0,0.0,3.5832881149262305e-05,-0.00017835223466271266,0.00034418008366049707,0.0,0.0,0.0,0.0,0.0,0.0,0.0,0.0,0.0,-1.3976359432843991e-08,2.7854114743723213e-08,-6.042662764525241e-10,0.0,0.0,0.0,0.0,0.0,0.0,0.0,0.0,0.0
1.49,33,1,490000000,base_footprint,-7.951232991115827e-06,0.0038605976216605437,0.00012666909721266602,0.9999925398110335,0.0,0.0,0.0,0.0,0.0,0.0,0.0,0.0,0.0,3.5843721949896636e-05,-0.0001783513972317054,0.0003441973192860067,0.0,0.0,0.0,0.0,0.0,0.0,0.0,0.0,0.0,-1.3978211359189538e-08,2.7848336291525656e-08,-7.100415278299064e-10,0.0,0.0,0.0,0.0,0.0,0.0,0.0,0.0,0.0
1.524,34,1,524000000,base_footprint,-7.973006089693348e-06,0.003860597924211733,0.00013219710684739548,0.9999925390941794,0.0,0.0,0.0,0.0,0.0,0.0,0.0,0.0,0.0,3.585421368127913e-05,-0.00017835056237964177,0.0003442145589823344,0.0,0.0,0.0,0.0,0.0,0.0,0.0,0.0,0.0,-1.3980056734669381e-08,2.7843092034823426e-08,-8.060891010574558e-10,0.0,0.0,0.0,0.0,0.0,0.0,0.0,0.0,0.0
1.558,35,1,558000000,base_footprint,-7.994725170730307e-06,0.0038605982271214087,0.00013772535628808942,0.9999925383467316,0.0,0.0,0.0,0.0,0.0,0.0,0.0,0.0,0.0,3.58643887600668e-05,-0.0001783497300211423,0.0003442318025101271,0.0,0.0,0.0,0.0,0.0,0.0,0.0,0.0,0.0,-1.3981918366437154e-08,2.7838530794931783e-08,-8.931801129624506e-10,0.0,0.0,0.0,0.0,0.0,0.0,0.0,0.0,0.0
1.592,36,1,592000000,base_footprint,-8.016395337705834e-06,0.0038605985303474945,0.00014325384553445073,0.9999925375686864,0.0,0.0,0.0,0.0,0.0,0.0,0.0,0.0,0.0,3.587427675273264e-05,-0.00017834889976933192,0.000344249049572641,0.0,0.0,0.0,0.0,0.0,0.0,0.0,0.0,0.0,-1.398378079382598e-08,2.7834440509886376e-08,-9.721109190399554e-10,0.0,0.0,0.0,0.0,0.0,0.0,0.0,0.0,0.0
1.626,37,1,626000000,base_footprint,-7.835893030118862e-06,0.0038556816287989622,0.00015101816202666007,0.9999925553979344,0.0,0.0,0.0,0.0,0.0,0.0,0.0,0.0,0.0,4.2882414664727475e-05,-0.00030737701615429156,0.00047234373840201744,0.0,0.0,0.0,0.0,0.0,0.0,0.0,0.0,0.0,0.5758851351721529,0.000419652160820149,-0.0043136038039389875,0.0,0.0,0.0,0.0,0.0,0.0,0.0,0.0,0.0
1.6600000000000001,38,1,660000000,base_footprint,-7.90370777714787e-06,0.003855802128434897,0.00015883731839752733,0.9999925537213686,0.0,0.0,0.0,0.0,0.0,0.0,0.0,0.0,0.0,4.342447443861311e-05,-0.00029671453303524946,0.0006006695383366774,0.0,0.0,0.0,0.0,0.0,0.0,0.0,0.0,0.0,0.7859976573226826,0.0004987338393806103,-0.006091334236027557,0.0,0.0,0.0,0.0,0.0,0.0,0.0,0.0,0.0
1.694,39,1,694000000,base_footprint,-8.01076445370431e-06,0.0038564980070852017,0.00016872485230521423,0.9999925494176812,0.0,0.0,0.0,0.0,0.0,0.0,0.0,0.0,0.0,4.29017194959659e-05,-0.0002892593052900183,0.0007150503580161803,0.0,0.0,0.0,0.0,0.0,0.0,0.0,0.0,0.0,0.7858154282769377,0.0004870843382371273,-0.0060777801686268534,0.0,0.0,0.0,0.0,0.0,0.0,0.0,0.0,0.0
1.7280000000000002,40,1,728000000,base_footprint,-8.15115497348793e-06,0.0038575123911831558,0.00018046013347535836,0.9999925434551253,0.0,0.0,0.0,0.0,0.0,0.0,0.0,0.0,0.0,4.210955748680333e-05,-0.00022255299391023427,0.0008149249457663582,0.0,0.0,0.0,0.0,0.0,0.0,0.0,0.0,0.0,0.7765631325768723,0.0004740099275214734,-0.006072968749131831,0.0,0.0,0.0,0.0,0.0,0.0,0.0,0.0,0.0
1.762,41,1,762000000,base_footprint,-8.3221952008916e-06,0.0038589921489281436,0.0001937619545809354,0.9999925352554592,0.0,0.0,0.0,0.0,0.0,0.0,0.0,0.0,0.0,4.121083800332297e-05,-0.00014659360294379047,0.0008988741452682692,0.0,0.0,0.0,0.0,0.0,0.0,0.0,0.0,0.0,0.7478759243729577,0.00045261003288861435,-0.0058620019286364684,0.0,0.0,0.0,0.0,0.0,0.0,0.0,0.0,0.0
1.7970000000000002,42,1,796000000,base_footprint,-8.514060500996328e-06,0.003860990303591377,0.00020782383288176358,0.9999925247173806,0.0,0.0,0.0,0.0,0.0,0.0,0.0,0.0,0.0,4.09550631071453e-05,-0.0001343142139728555,0.0009220940849323025,0.0,0.0,0.0,0.0,0.0,0.0,0.0,0.0,0.0,0.6861933936225307,0.00033012230574703465,-0.0053134247809537485,0.0,0.0,0.0,0.0,0.0,0.0,0.0,0.0,0.0
1.83,43,1,830000000,base_footprint,-8.824011616828438e-06,0.003863483556171816,0.0002228616222065648,0.9999925118467865,0.0,0.0,0.0,0.0,0.0,0.0,0.0,0.0,0.0,3.1734349200801e-05,-5.658545254052741e-05,0.0009892740070109704,0.0,0.0,0.0,0.0,0.0,0.0,0.0,0.0,0.0,0.5799152789905988,0.00038812341729319396,-0.004567378336574347,0.0,0.0,0.0,0.0,0.0,0.0,0.0,0.0,0.0
1.864,44,1,864000000,base_footprint,-9.192503511549116e-06,0.0038661405991632838,0.0002403720008065097,0.9999924975186898,0.0,0.0,0.0,0.0,0.0,0.0,0.0,0.0,0.0,2.9586134281438156e-05,-5.251566527276722e-05,0.001104893251871993,0.0,0.0,0.0,0.0,0.0,0.0,0.0,0.0,0.0,0.42841608162427175,0.000429768283421001,-0.0033004983769483968,0.0,0.0,0.0,0.0,0.0,0.0,0.0,0.0,0.0
1.8980000000000001,45,1,898000000,base_footprint,-9.611912798034612e-06,0.003866993694286679,0.00024435016830249185,0.9999924932520118,0.0,0.0,0.0,0.0,0.0,0.0,0.0,0.0,0.0,-1.2382689530391505e-06,-0.00031869320362912376,-0.0011174070310809297,0.0,0.0,0.0,0.0,0.0,0.0,0.0,0.0,0.0,0.24147427492243306,-0.004193524594788435,-0.0013484339542912708,0.0,0.0,0.0,0.0,0.0,0.0,0.0,0.0,0.0
1.932,46,1,932000000,base_footprint,-7.523444189378405e-06,0.0038605099899189513,0.00019066965400425833,0.9999925299976489,0.0,0.0,0.0,0.0,0.0,0.0,0.0,0.0,0.0,0.0003028031730781984,-0.0007209524553103843,-0.0042461611104145465,0.0,0.0,0.0,0.0,0.0,0.0,0.0,0.0,0.0,0.031962913715970605,-0.006033482617816636,0.00016561481771354007,0.0,0.0,0.0,0.0,0.0,0.0,0.0,0.0,0.0
1.9660000000000002,47,1,966000000,base_footprint,-7.718062204553625e-06,0.0038473522124226043,0.000195262207610756,0.9999925798194983,0.0,0.0,0.0,0.0,0.0,0.0,0.0,0.0,0.0,0.0002096336810492721,0.0006520120888570831,0.007729484644557914,0.0,0.0,0.0,0.0,0.0,0.0,0.0,0.0,0.0,0.046257178762980904,0.023243627653920098,-0.002881032763819614,0.0,0.0,0.0,0.0,0.0,0.0,0.0,0.0,0.0
2.0,48,2,0,base_footprint,-8.138681159920522e-06,0.003852601069103419,0.00026578573506332807,0.9999925433505529,0.0,0.0,0.0,0.0,0.0,0.0,0.0,0.0,0.0,4.835708001508964e-05,-0.00018271969169487417,0.002533423577289321,0.0,0.0,0.0,0.0,0.0,0.0,0.0,0.0,0.0,0.2248854483109247,-0.009974823931144646,-5.760737051233303e-05,0.0,0.0,0.0,0.0,0.0,0.0,0.0,0.0,0.0
2.034,49,2,34000000,base_footprint,-5.811230223235117e-06,0.003854187362317837,0.0003029958414359676,0.9999925266718376,0.0,0.0,0.0,0.0,0.0,0.0,0.0,0.0,0.0,0.002155296425397369,0.0024506680319135977,0.0010882009213713784,0.0,0.0,0.0,0.0,0.0,0.0,0.0,0.0,0.0,0.37801402463749567,-0.002488936672972529,-0.006878637615055275,0.0,0.0,0.0,0.0,0.0,0.0,0.0,0.0,0.0
2.068,50,2,68000000,base_footprint,-6.894231941630684e-06,0.003867364196868566,-0.00041759905897719243,0.9999924345002138,0.0,0.0,0.0,0.0,0.0,0.0,0.0,0.0,0.0,-0.0003207054050723128,-0.0007509387715141479,-0.06063233486755804,0.0,0.0,0.0,0.0,0.0,0.0,0.0,0.0,0.0,0.18339380433918062,-0.005435390915207631,0.003453703585891056,0.0,0.0,0.0,0.0,0.0,0.0,0.0,0.0,0.0
2.102,51,2,102000000,base_footprint,-2.4940594348657045e-06,0.003865931238130446,-0.0014510480295644422,0.9999914744781866,0.0,0.0,0.0,0.0,0.0,0.0,0.0,0.0,0.0,-0.0004539331686282194,0.004827216708447424,-0.060148193994906764,0.0,0.0,0.0,0.0,0.0,0.0,0.0,0.0,0.0,-0.026041145478822185,-0.014052413150709268,-0.008128379446698482,0.0,0.0,0.0,0.0,0.0,0.0,0.0,0.0,0.0
2.136,52,2,136000000,base_footprint,2.357072430533691e-06,0.0038618236575990207,-0.0027494292676637083,0.9999887634124616,0.0,0.0,0.0,0.0,0.0,0.0,0.0,0.0,0.0,-0.0007912780187412942,0.0004367344339577535,-0.07678763504085388,0.0,0.0,0.0,0.0,0.0,0.0,0.0,0.0,0.0,-0.294375139438567,-0.012452344635983619,0.009052664321564454,0.0,0.0,0.0,0.0,0.0,0.0,0.0,0.0,0.0
2.169,53,2,170000000,base_footprint,7.4744247974084825e-06,0.0038609402137830197,-0.0039861856575161845,0.9999846015857957,0.0,0.0,0.0,0.0,0.0,0.0,0.0,0.0,0.0,-0.0005279102244020055,-0.00018194555628551335,-0.07302441233888446,0.0,0.0,0.0,0.0,0.0,0.0,0.0,0.0,0.0,-0.001074334780235324,-0.016169010726472713,0.0007300873558111385,0.0,0.0,0.0,0.0,0.0,0.0,0.0,0.0,0.0
2.204,54,2,204000000,base_footprint,1.1794704443865029e-05,0.003861954120966895,-0.0052185958685071416,0.9999789254921395,0.0,0.0,0.0,0.0,0.0,0.0,0.0,0.0,0.0,-0.0007884157202892742,-1.9866874769620984e-06,-0.06264304211675167,0.0,0.0,0.0,0.0,0.0,0.0,0.0,0.0,0.0,0.0037919455194063284,-0.015082520398780046,-0.000543272802026584,0.0,0.0,0.0,0.0,0.0,0.0,0.0,0.0,0.0
2.238,55,2,238000000,base_footprint,1.5227055794068935e-05,0.003864345630754723,-0.006248551935685331,0.9999730107356348,0.0,0.0,0.0,0.0,0.0,0.0,0.0,0.0,0.0,-0.0004743793933422602,-7.206429938052299e-06,-0.06089683750063752,0.0,0.0,0.0,0.0,0.0,0.0,0.0,0.0,0.0,0.0030732107941969684,-0.013308894467930116,0.00011107835634657192,0.0,0.0,0.0,0.0,0.0,0.0,0.0,0.0,0.0
2.2720000000000002,56,2,272000000,base_footprint,1.82693950145488e-05,0.003868661749005019,-0.007285309248984334,0.9999659781170797,0.0,0.0,0.0,0.0,0.0,0.0,0.0,0.0,0.0,-0.0005640526758729678,0.00015127507903899635,-0.06106424459010223,0.0,0.0,0.0,0.0,0.0,0.0,0.0,0.0,0.0,0.004348101372714806,-0.013185735201851456,-0.00045360789841517745,0.0,0.0,0.0,0.0,0.0,0.0,0.0,0.0,0.0
2.306,57,2,306000000,base_footprint,2.185546645485958e-05,0.0038700513352261765,-0.008307327564214552,0.9999580043850553,0.0,0.0,0.0,0.0,0.0,0.0,0.0,0.0,0.0,0.000185983339035671,-0.0022568821209500546,-0.052906351896882656,0.0,0.0,0.0,0.0,0.0,0.0,0.0,0.0,0.0,0.08419601382810811,-0.015419952620115968,0.006030226202192182,0.0,0.0,0.0,0.0,0.0,0.0,0.0,0.0,0.0
2.34,58,2,340000000,base_footprint,2.835081211190018e-05,0.003873726855400931,-0.009377457156634121,0.9999485270421457,0.0,0.0,0.0,0.0,0.0,0.0,0.0,0.0,0.0,-0.002044488461982041,0.0009053602582924252,-0.05655105348568535,0.0,0.0,0.0,0.0,0.0,0.0,0.0,0.0,0.0,0.26616707541039264,-0.020096457223329003,-0.010737567516864258,0.0,0.0,0.0,0.0,0.0,0.0,0.0,0.0,0.0
2.374,59,2,374000000,base_footprint,2.9809933950696347e-05,0.003878419840884829,-0.01027404940371465,0.9999396986217498,0.0,0.0,0.0,0.0,0.0,0.0,0.0,0.0,0.0,-0.0004437186009232781,-7.055636665063861e-05,-0.05415125553293888,0.0,0.0,0.0,0.0,0.0,0.0,0.0,0.0,0.0,-0.019032598833560982,-0.016725817063209247,0.0024260428938600483,0.0,0.0,0.0,0.0,0.0,0.0,0.0,0.0,0.0
2.408,60,2,408000000,base_footprint,3.497510897475799e-05,0.0038759051293498475,-0.011220260739758056,0.9999295384601368,0.0,0.0,0.0,0.0,0.0,0.0,0.0,0.0,0.0,-0.0008257321489261861,-0.0007045089963257284,-0.05757171424755922,0.0,0.0,0.0,0.0,0.0,0.0,0.0,0.0,0.0,-0.013936729639349688,-0.0064152274940892755,0.0013888949338641578,0.0,0.0,0.0,0.0,0.0,0.0,0.0,0.0,0.0
2.442,61,2,442000000,base_footprint,3.452977835115942e-05,0.003873308770111748,-0.01225792751890294,0.9999173663357425,0.0,0.0,0.0,0.0,0.0,0.0,0.0,0.0,0.0,-7.123272788189991e-05,0.0006325433700080897,-0.06952516314736792,0.0,0.0,0.0,0.0,0.0,0.0,0.0,0.0,0.0,-0.0841058160824305,-0.012827571022362176,-0.00213657242654797,0.0,0.0,0.0,0.0,0.0,0.0,0.0,0.0,0.0
2.476,62,2,476000000,base_footprint,3.673327472980551e-05,0.003868127439781504,-0.013415456268887871,0.9999025261363598,0.0,0.0,0.0,0.0,0.0,0.0,0.0,0.0,0.0,-0.0005857932162953959,-2.5084748815150727e-06,-0.06061749562257769,0.0,0.0,0.0,0.0,0.0,0.0,0.0,0.0,0.0,0.025888554561503182,-0.016150475685347575,0.0015857531479263292,0.0,0.0,0.0,0.0,0.0,0.0,0.0,0.0,0.0
2.51,63,2,510000000,base_footprint,4.462136062936709e-05,0.0038702294746917245,-0.014239282127083776,0.9998911251617612,0.0,0.0,0.0,0.0,0.0,0.0,0.0,0.0,0.0,-2.940828882802889e-05,-0.000220653709813984,-0.039924195139281915,0.0,0.0,0.0,0.0,0.0,0.0,0.0,0.0,0.0,0.033737631424296734,-0.011494313741837217,1.0260818941472069e-06,0.0,0.0,0.0,0.0,0.0,0.0,0.0,0.0,0.0
2.544,64,2,544000000,base_footprint,4.7512982167028224e-05,0.003868379734008022,-0.014924230493668991,0.9998811432990032,0.0,0.0,0.0,0.0,0.0,0.0,0.0,0.0,0.0,-0.0002575711316269244,-0.00025639783099911295,-0.03988689613473397,0.0,0.0,0.0,0.0,0.0,0.0,0.0,0.0,0.0,0.006169895296931817,-0.009125729298941329,-0.00015450034449181513,0.0,0.0,0.0,0.0,0.0,0.0,0.0,0.0,0.0
2.5780000000000003,65,2,578000000,base_footprint,5.035769572606496e-05,0.0038651265696070343,-0.015604881370946457,0.9998707646181592,0.0,0.0,0.0,0.0,0.0,0.0,0.0,0.0,0.0,-0.0002798190485850192,-0.0003729199882084993,-0.040173366751325316,0.0,0.0,0.0,0.0,0.0,0.0,0.0,0.0,0.0,0.00433264458285845,-0.009178331027235304,0.00040133333801056325,0.0,0.0,0.0,0.0,0.0,0.0,0.0,0.0,0.0
2.6109999999999998,66,2,612000000,base_footprint,5.2882563027843064e-05,0.0038627565812700436,-0.016252718232872537,0.9998604529958526,0.0,0.0,0.0,0.0,0.0,0.0,0.0,0.0,0.0,-0.0003131297781588056,-0.00038370274186024487,-0.03282623224406076,0.0,0.0,0.0,0.0,0.0,0.0,0.0,0.0,0.0,0.0029699271162048754,-0.009039583376426191,-7.64785170770222e-05,0.0,0.0,0.0,0.0,0.0,0.0,0.0,0.0,0.0
2.646,67,2,646000000,base_footprint,5.4728393971236516e-05,0.0038620623638175172,-0.016816747879846824,0.99985112815351,0.0,0.0,0.0,0.0,0.0,0.0,0.0,0.0,0.0,-0.00024785003002011094,-0.00017422082624846854,-0.033360498082492265,0.0,0.0,0.0,0.0,0.0,0.0,0.0,0.0,0.0,0.005236738909947457,-0.00738788014863388,-0.00037409900727841254,0.0,0.0,0.0,0.0,0.0,0.0,0.0,0.0,0.0
2.68,68,2,680000000,base_footprint,5.644644760756626e-05,0.0038630751862210274,-0.0173864868387178,0.999841379189375,0.0,0.0,0.0,0.0,0.0,0.0,0.0,0.0,0.0,-0.00026763703417744715,-9.00765510369953e-05,-0.03367845467370198,0.0,0.0,0.0,0.0,0.0,0.0,0.0,0.0,0.0,0.005067818535057062,-0.007859057778517302,-0.0002199950709393292,0.0,0.0,0.0,0.0,0.0,0.0,0.0,0.0,0.0
2.713,69,2,714000000,base_footprint,5.763472615636616e-05,0.0038658224872300732,-0.017921776699615425,0.9998319168813651,0.0,0.0,0.0,0.0,0.0,0.0,0.0,0.0,0.0,-0.00022121177175475238,-0.0001465880941683051,-0.027254631781916717,0.0,0.0,0.0,0.0,0.0,0.0,0.0,0.0,0.0,0.003061628274263072,-0.0077060273483735035,-3.7363454237900536e-05,0.0,0.0,0.0,0.0,0.0,0.0,0.0,0.0,0.0
2.748,70,2,748000000,base_footprint,5.836924518154866e-05,0.003870382861021391,-0.01838823032551449,0.9998234292689065,0.0,0.0,0.0,0.0,0.0,0.0,0.0,0.0,0.0,-0.0003413500713746652,0.00015348955698533636,-0.027448549281380703,0.0,0.0,0.0,0.0,0.0,0.0,0.0,0.0,0.0,0.004130898476545987,-0.0063508171941089354,-0.0006672825458820278,0.0,0.0,0.0,0.0,0.0,0.0,0.0,0.0,0.0
2.782,71,2,782000000,base_footprint,6.041307181524086e-05,0.0038747409711785467,-0.018851168432232744,0.9998147909395053,0.0,0.0,0.0,0.0,0.0,0.0,0.0,0.0,0.0,-0.00020146404271272208,6.854976726387107e-05,-0.026795097258886,0.0,0.0,0.0,0.0,0.0,0.0,0.0,0.0,0.0,0.0017591605988212535,-0.006874751896690284,4.6012034958286394e-05,0.0,0.0,0.0,0.0,0.0,0.0,0.0,0.0,0.0
2.816,72,2,816000000,base_footprint,6.235976314295953e-05,0.003865017307740951,-0.019428257696056078,0.9998037810267405,0.0,0.0,0.0,0.0,0.0,0.0,0.0,0.0,0.0,-0.0016765933760620473,0.0007493183002168472,-0.060360400032405254,0.0,0.0,0.0,0.0,0.0,0.0,0.0,0.0,0.0,-0.19204827459500132,0.007377358561489893,-0.0001954062000777184,0.0,0.0,0.0,0.0,0.0,0.0,0.0,0.0,0.0
2.85,73,2,850000000,base_footprint,6.752977157429363e-05,0.003874223857762954,-0.0207041179822075,0.9997781380525427,0.0,0.0,0.0,0.0,0.0,0.0,0.0,0.0,0.0,-0.0007720888777380829,0.0006110998891036745,-0.04368992569379488,0.0,0.0,0.0,0.0,0.0,0.0,0.0,0.0,0.0,-0.12585967714185567,0.0035985404416194224,0.0014213215495396502,0.0,0.0,0.0,0.0,0.0,0.0,0.0,0.0,0.0
2.884,74,2,884000000,base_footprint,7.26023585376131e-05,0.003879831670906008,-0.021429736132804994,0.999762825896413,0.0,0.0,0.0,0.0,0.0,0.0,0.0,0.0,0.0,-0.00044496329446820475,-0.0009733375215425048,-0.046849582205713225,0.0,0.0,0.0,0.0,0.0,0.0,0.0,0.0,0.0,-0.027464192134171575,-0.02020777539753803,0.0035372845422519854,0.0,0.0,0.0,0.0,0.0,0.0,0.0,0.0,0.0
2.918,75,2,918000000,base_footprint,7.074446826649715e-05,0.003870506919380558,-0.02210064398033011,0.9997482561660521,0.0,0.0,0.0,0.0,0.0,0.0,0.0,0.0,0.0,-0.0003989185445655159,0.0007079722184176076,-0.041891044523140165,0.0,0.0,0.0,0.0,0.0,0.0,0.0,0.0,0.0,-0.09472798143040752,0.006978278736083344,-0.0026692748860736013,0.0,0.0,0.0,0.0,0.0,0.0,0.0,0.0,0.0
2.952,76,2,952000000,base_footprint,7.274913731037586e-05,0.003865060026040924,-0.022938071010600747,0.9997294138500031,0.0,0.0,0.0,0.0,0.0,0.0,0.0,0.0,0.0,-0.0007432382859146414,-0.0008156228721594024,-0.046035987604845736,0.0,0.0,0.0,0.0,0.0,0.0,0.0,0.0,0.0,-0.001348046444221771,-0.01166895505073767,0.0032528195601841028,0.0,0.0,0.0,0.0,0.0,0.0,0.0,0.0,0.0
2.99,77,2,986000000,base_footprint,8.191024616456256e-05,0.0038692512819575036,-0.02349522675858922,0.9997164580543781,0.0,0.0,0.0,0.0,0.0,0.0,0.0,0.0,0.0,-5.0220689170755074e-05,-1.1648598038157876e-05,-0.02087120799582412,0.0,0.0,0.0,0.0,0.0,0.0,0.0,0.0,0.0,0.06091084252582836,-0.013265354233395834,-0.001965939442030287,0.0,0.0,0.0,0.0,0.0,0.0,0.0,0.0,0.0
3.02,78,3,20000000,base_footprint,7.948490931340749e-05,0.0038505204497569874,-0.02416119005505873,0.999700657231723,0.0,0.0,0.0,0.0,0.0,0.0,0.0,0.0,0.0,-0.001169088222007155,-0.001611168458640715,-0.0777488362610001,0.0,0.0,0.0,0.0,0.0,0.0,0.0,0.0,0.0,0.2781105090555873,-0.03403667433738234,0.000538885393296706,0.0,0.0,0.0,0.0,0.0,0.0,0.0,0.0,0.0
3.055,79,3,54000000,base_footprint,8.58781838396191e-05,0.003862959566402475,-0.024894000700788364,0.9996826290865692,0.0,0.0,0.0,0.0,0.0,0.0,0.0,0.0,0.0,-0.0004548978457182049,-0.0007859664773751001,-0.011305723887178681,0.0,0.0,0.0,0.0,0.0,0.0,0.0,0.0,0.0,0.06121751864096401,-0.01577757855288534,-0.0024778269505749944,0.0,0.0,0.0,0.0,0.0,0.0,0.0,0.0,0.0
3.088,80,3,88000000,base_footprint,8.6066013532548e-05,0.003861764416498174,-0.02508629087087965,0.9996778267914992,0.0,0.0,0.0,0.0,0.0,0.0,0.0,0.0,0.0,-0.00019623971805139717,-0.00021215206646139597,-0.01129001312135071,0.0,0.0,0.0,0.0,0.0,0.0,0.0,0.0,0.0,0.005347988801485025,-0.0029695887883191842,-0.00046329971196594103,0.0,0.0,0.0,0.0,0.0,0.0,0.0,0.0,0.0
3.122,81,3,122000000,base_footprint,8.660047436908547e-05,0.0038611535968270864,-0.025363128764018535,0.9996708436743365,0.0,0.0,0.0,0.0,0.0,0.0,0.0,0.0,0.0,-0.00026583909544401464,-0.00016705632597445398,-0.019787204963529193,0.0,0.0,0.0,0.0,0.0,0.0,0.0,0.0,0.0,0.00740714394833073,-0.0043888078587291345,-0.00017405847856714465,0.0,0.0,0.0,0.0,0.0,0.0,0.0,0.0,0.0
3.156,82,3,156000000,base_footprint,8.745167641265711e-05,0.0038619263577841867,-0.025699863653831895,0.9996622404018198,0.0,0.0,0.0,0.0,0.0,0.0,0.0,0.0,0.0,-0.00025787644253678715,-6.377767002463935e-05,-0.019899954882330626,0.0,0.0,0.0,0.0,0.0,0.0,0.0,0.0,0.0,0.004988075438571053,-0.004976194558116025,-0.0002192324216348724,0.0,0.0,0.0,0.0,0.0,0.0,0.0,0.0,0.0
3.19,83,3,190000000,base_footprint,8.825936412247525e-05,0.003864081262591572,-0.026039018174338267,0.9996534552627713,0.0,0.0,0.0,0.0,0.0,0.0,0.0,0.0,0.0,-0.0002647835364027453,1.9797057281734613e-05,-0.020025904739710026,0.0,0.0,0.0,0.0,0.0,0.0,0.0,0.0,0.0,0.004821488812621973,-0.0050874392702162175,-0.00021990434286423038,0.0,0.0,0.0,0.0,0.0,0.0,0.0,0.0,0.0
3.224,84,3,224000000,base_footprint,8.86094116056033e-05,0.003867873100758352,-0.026309068305942408,0.9996463697882977,0.0,0.0,0.0,0.0,0.0,0.0,0.0,0.0,0.0,-0.00022205417999135677,0.00012699117739235205,-0.013654536822632835,0.0,0.0,0.0,0.0,0.0,0.0,0.0,0.0,0.0,0.002680918880159496,-0.004040552096050995,-0.0002623381026540118,0.0,0.0,0.0,0.0,0.0,0.0,0.0,0.0,0.0
3.258,85,3,258000000,base_footprint,8.851899981028196e-05,0.0038734684152208773,-0.026538273348496077,0.9996402895314411,0.0,0.0,0.0,0.0,0.0,0.0,0.0,0.0,0.0,-0.0001345935530042076,0.00015184024445548307,-0.013172644782488904,0.0,0.0,0.0,0.0,0.0,0.0,0.0,0.0,0.0,0.002444782085614779,-0.003709507142264938,-0.0001767197176864427,0.0,0.0,0.0,0.0,0.0,0.0,0.0,0.0,0.0
3.292,86,3,292000000,base_footprint,8.987874044493201e-05,0.0038760157280354145,-0.026747894736403894,0.999634692550763,0.0,0.0,0.0,0.0,0.0,0.0,0.0,0.0,0.0,-3.8848807382282394e-05,2.4561903483460227e-05,-0.01145534309518718,0.0,0.0,0.0,0.0,0.0,0.0,0.0,0.0,0.0,-0.0032204978620103118,-0.0029467726617270337,0.00025093052424153165,0.0,0.0,0.0,0.0,0.0,0.0,0.0,0.0,0.0
3.326,87,3,326000000,base_footprint,9.417022037876079e-05,0.003875919264294327,-0.026858260670878657,0.9996317332975987,0.0,0.0,0.0,0.0,0.0,0.0,0.0,0.0,0.0,0.00045332765728684014,-0.0004361803809360356,-0.0043543553952408165,0.0,0.0,0.0,0.0,0.0,0.0,0.0,0.0,0.0,-0.008064795951487472,0.0037533627118629983,0.0009479480564965132,0.0,0.0,0.0,0.0,0.0,0.0,0.0,0.0,0.0
3.36,88,3,360000000,base_footprint,9.836404712882546e-05,0.003874383762514569,-0.026936695314546805,0.9996296283726821,0.0,0.0,0.0,0.0,0.0,0.0,0.0,0.0,0.0,-6.577974053986249e-06,-0.0004679639461047173,-0.002264170022836437,0.0,0.0,0.0,0.0,0.0,0.0,0.0,0.0,0.0,-0.018573888792070496,-0.004041700028741496,0.00018964433973563244,0.0,0.0,0.0,0.0,0.0,0.0,0.0,0.0,0.0
3.394,89,3,394000000,base_footprint,8.982328094256049e-05,0.003871849993041748,-0.02705945839018544,0.9996263233934166,0.0,0.0,0.0,0.0,0.0,0.0,0.0,0.0,0.0,-0.00041349747940486403,0.0002600866002647613,-0.024896991417172658,0.0,0.0,0.0,0.0,0.0,0.0,0.0,0.0,0.0,-0.038633218306244804,0.010225726162439552,-0.0009322080031657084,0.0,0.0,0.0,0.0,0.0,0.0,0.0,0.0,0.0
3.4290000000000003,90,3,428000000,base_footprint,9.182101186084961e-05,0.003868667232132064,-0.02758573480186068,0.9996119508180114,0.0,0.0,0.0,0.0,0.0,0.0,0.0,0.0,0.0,5.095955762289251e-05,-0.0006585049638421237,-0.028680763381050373,0.0,0.0,0.0,0.0,0.0,0.0,0.0,0.0,0.0,-0.0180419266551713,-0.008193604418172839,0.000983492240954161,0.0,0.0,0.0,0.0,0.0,0.0,0.0,0.0,0.0
3.462,91,3,462000000,base_footprint,9.861712360809022e-05,0.003870975781615828,-0.02786254887263592,0.9996042637921675,0.0,0.0,0.0,0.0,0.0,0.0,0.0,0.0,0.0,-0.00028624940546467716,-0.000670967131993826,-0.008268923654770647,0.0,0.0,0.0,0.0,0.0,0.0,0.0,0.0,0.0,0.049003743287988004,-0.011009564048295482,0.00042760972178217387,0.0,0.0,0.0,0.0,0.0,0.0,0.0,0.0,0.0
3.496,92,3,496000000,base_footprint,9.864970026049511e-05,0.003865455043355078,-0.028023938159082214,0.9995997736172215,0.0,0.0,0.0,0.0,0.0,0.0,0.0,0.0,0.0,-8.080286966217631e-05,-0.00023527233250478013,-0.009724389610087432,0.0,0.0,0.0,0.0,0.0,0.0,0.0,0.0,0.0,0.0012903361321675677,-0.0023857341370465456,-0.0007627112357143175,0.0,0.0,0.0,0.0,0.0,0.0,0.0,0.0,0.0
3.5300000000000002,93,3,530000000,base_footprint,9.87507134465768e-05,0.0038638491685343856,-0.028094246062362254,0.9995978062481364,0.0,0.0,0.0,0.0,0.0,0.0,0.0,0.0,0.0,-0.00010868922275058678,-0.00022034527985675086,-0.003078843518645547,0.0,0.0,0.0,0.0,0.0,0.0,0.0,0.0,0.0,0.0032422277020111865,-0.0012121774358861321,1.7958636648697716e-05,0.0,0.0,0.0,0.0,0.0,0.0,0.0,0.0,0.0
3.564,94,3,564000000,base_footprint,9.81489625985992e-05,0.0038621319012280635,-0.02814625298326913,0.9995963499067814,0.0,0.0,0.0,0.0,0.0,0.0,0.0,0.0,0.0,-0.00013802925192045204,-0.00021221270708966238,-0.0031205566172916553,0.0,0.0,0.0,0.0,0.0,0.0,0.0,0.0,0.0,0.005305489016161249,-0.001418727673075842,-4.043210548036076e-05,0.0,0.0,0.0,0.0,0.0,0.0,0.0,0.0,0.0
3.598,95,3,598000000,base_footprint,9.777243320862289e-05,0.0038616202013718095,-0.028200417308121877,0.9995948253135464,0.0,0.0,0.0,0.0,0.0,0.0,0.0,0.0,0.0,-0.00012277040175296566,-0.00014229926538634533,-0.0032998381211844265,0.0,0.0,0.0,0.0,0.0,0.0,0.0,0.0,0.0,0.005448855894350587,-0.001406137892783196,-0.00016626746365175655,0.0,0.0,0.0,0.0,0.0,0.0,0.0,0.0,0.0
3.632,96,3,632000000,base_footprint,0.00010044807672769715,0.003862765857729856,-0.028984434733343133,0.9995723943233431,0.0,0.0,0.0,0.0,0.0,0.0,0.0,0.0,0.0,-0.0006859641856307127,-0.00013426047054878096,-0.07260155708585565,0.0,0.0,0.0,0.0,0.0,0.0,0.0,0.0,0.0,-0.32931517583525494,0.028643054692887217,0.0024585157584238754,0.0,0.0,0.0,0.0,0.0,0.0,0.0,0.0,0.0
3.666,97,3,666000000,base_footprint,0.00010026571175410965,0.0038646044752614593,-0.029166994260157255,0.9995670769012277,0.0,0.0,0.0,0.0,0.0,0.0,0.0,0.0,0.0,-0.00012580566738948828,4.1660671539458404e-05,-0.0022486881674023884,0.0,0.0,0.0,0.0,0.0,0.0,0.0,0.0,0.0,-0.000566017631342261,-0.0027831271275179695,-0.0002949589727297668,0.0,0.0,0.0,0.0,0.0,0.0,0.0,0.0,0.0
3.7,98,3,700000000,base_footprint,9.963462820956567e-05,0.003868310112062456,-0.02920506042755058,0.9995659511484177,0.0,0.0,0.0,0.0,0.0,0.0,0.0,0.0,0.0,-0.0001457620834664101,0.00010968489144676359,-0.0022119061982107265,0.0,0.0,0.0,0.0,0.0,0.0,0.0,0.0,0.0,0.004282859397892415,-0.0013685909821389776,-0.00021024988751267717,0.0,0.0,0.0,0.0,0.0,0.0,0.0,0.0,0.0
3.7350000000000003,99,3,734000000,base_footprint,0.00010330264822235437,0.003873264505193828,-0.03024540066397997,0.9995349933290535,0.0,0.0,0.0,0.0,0.0,0.0,0.0,0.0,0.0,-0.0005462987175467981,6.51562548121379e-05,-0.06607525038639009,0.0,0.0,0.0,0.0,0.0,0.0,0.0,0.0,0.0,0.017657641056545405,-0.015044922365460244,-2.6664538234090602e-05,0.0,0.0,0.0,0.0,0.0,0.0,0.0,0.0,0.0
3.768,100,3,768000000,base_footprint,0.00010799813397538506,0.0038757168817576755,-0.031353222448903297,0.999500846721565,0.0,0.0,0.0,0.0,0.0,0.0,0.0,0.0,0.0,-0.00047429862843579673,3.1952356947890565e-05,-0.06430985496631575,0.0,0.0,0.0,0.0,0.0,0.0,0.0,0.0,0.0,-0.004317782157770775,-0.013392048866453796,-1.198060976653318e-05,0.0,0.0,0.0,0.0,0.0,0.0,0.0,0.0,0.0
3.802,101,3,802000000,base_footprint,0.00011490188515291321,0.003875120668752096,-0.03243549382371217,0.9994663120774864,0.0,0.0,0.0,0.0,0.0,0.0,0.0,0.0,0.0,-0.0008108018036283132,-0.0003070514999164262,-0.06257992729116378,0.0,0.0,0.0,0.0,0.0,0.0,0.0,0.0,0.0,-0.0013863756221814479,-0.009275123187821668,-0.006427309476583313,0.0,0.0,0.0,0.0,0.0,0.0,0.0,0.0,0.0
3.8360000000000003,102,3,836000000,base_footprint,0.00012956373645201015,0.0038674223935132885,-0.03306744554335622,0.9994456314890298,0.0,0.0,0.0,0.0,0.0,0.0,0.0,0.0,0.0,0.0010515926712079983,-0.0002744723921781737,-0.03465043744864563,0.0,0.0,0.0,0.0,0.0,0.0,0.0,0.0,0.0,0.06968490205185107,-0.0213089835208096,0.008063283850639862,0.0,0.0,0.0,0.0,0.0,0.0,0.0,0.0,0.0
3.87,103,3,870000000,base_footprint,0.00012771939172049918,0.003852431550944048,-0.034092596892586716,0.9994112453319813,0.0,0.0,0.0,0.0,0.0,0.0,0.0,0.0,0.0,-0.0009506913278549182,-0.0007541293390330031,-0.09814413262044323,0.0,0.0,0.0,0.0,0.0,0.0,0.0,0.0,0.0,0.08710738669244773,-0.015189880855049619,-0.0012765903390773408,0.0,0.0,0.0,0.0,0.0,0.0,0.0,0.0,0.0
3.904,104,3,904000000,base_footprint,0.00012528307596160751,0.0038664673751822192,-0.036781005834840765,0.9993158621496834,0.0,0.0,0.0,0.0,0.0,0.0,0.0,0.0,0.0,-0.0003565484519884833,-0.0019424277953721814,-0.18221327085727176,0.0,0.0,0.0,0.0,0.0,0.0,0.0,0.0,0.0,0.059757846364514665,-0.04614935594211131,0.0007098101302438131,0.0,0.0,0.0,0.0,0.0,0.0,0.0,0.0,0.0
3.938,105,3,938000000,base_footprint,0.0001368262197671934,0.0038593487292646186,-0.03969663630313822,0.9992043153290462,0.0,0.0,0.0,0.0,0.0,0.0,0.0,0.0,0.0,-0.0014595968452467275,0.0004434868669633532,-0.15705960241808922,0.0,0.0,0.0,0.0,0.0,0.0,0.0,0.0,0.0,0.04158491723395911,-0.048409203395459934,-0.002048098643827674,0.0,0.0,0.0,0.0,0.0,0.0,0.0,0.0,0.0
3.972,106,3,972000000,base_footprint,0.0001540328209234451,0.003865782867080272,-0.042072324522463206,0.9991070770973407,0.0,0.0,0.0,0.0,0.0,0.0,0.0,0.0,0.0,-0.0012045326477864637,-0.00037503279643757526,-0.13487588418051236,0.0,0.0,0.0,0.0,0.0,0.0,0.0,0.0,0.0,0.04683292874459237,-0.03827597725313715,-0.0005389381551245612,0.0,0.0,0.0,0.0,0.0,0.0,0.0,0.0,0.0
4.006,107,4,6000000,base_footprint,0.00015925267419542705,0.0038621455256977973,-0.04426434390792694,0.9990123754633499,0.0,0.0,0.0,0.0,0.0,0.0,0.0,0.0,0.0,-0.001623044421627262,-0.0022252643529169095,-0.07125760702549506,0.0,0.0,0.0,0.0,0.0,0.0,0.0,0.0,0.0,-0.03613921194529942,-0.022463726275548053,0.0029247845032325105,0.0,0.0,0.0,0.0,0.0,0.0,0.0,0.0,0.0
4.039,108,4,40000000,base_footprint,0.0001639030919022896,0.003860830914665826,-0.04497421828509277,0.9989806738921778,0.0,0.0,0.0,0.0,0.0,0.0,0.0,0.0,0.0,-0.00048748220721397587,-0.00024961359390974016,-0.04081138145197022,0.0,0.0,0.0,0.0,0.0,0.0,0.0,0.0,0.0,0.015728553418278078,-0.014498061210089503,-0.0030039852684433043,0.0,0.0,0.0,0.0,0.0,0.0,0.0,0.0,0.0
4.076,109,4,74000000,base_footprint,0.00016552421258106282,0.003859958637619695,-0.04566808354683283,0.9989491976403057,0.0,0.0,0.0,0.0,0.0,0.0,0.0,0.0,0.0,-0.0004493947717454206,-0.00011364241500689626,-0.040998293378268984,0.0,0.0,0.0,0.0,0.0,0.0,0.0,0.0,0.0,0.0038605035709801012,-0.009903414384177906,-0.00024861952781005266,0.0,0.0,0.0,0.0,0.0,0.0,0.0,0.0,0.0
4.108,110,4,108000000,base_footprint,0.00016711848153517394,0.0038608963588863503,-0.0463492926188389,0.9989178187541017,0.0,0.0,0.0,0.0,0.0,0.0,0.0,0.0,0.0,-0.0003221394031046528,7.380048171454228e-05,-0.035446753624181454,0.0,0.0,0.0,0.0,0.0,0.0,0.0,0.0,0.0,0.002309602878707256,-0.009654942653502611,-0.0002893799884217777,0.0,0.0,0.0,0.0,0.0,0.0,0.0,0.0,0.0
4.142,111,4,142000000,base_footprint,0.00016841491336333918,0.003862675139155858,-0.04695515869070782,0.9988895156369981,0.0,0.0,0.0,0.0,0.0,0.0,0.0,0.0,0.0,-0.0004285833126592629,5.4619325781912826e-05,-0.03578673192094635,0.0,0.0,0.0,0.0,0.0,0.0,0.0,0.0,0.0,0.003529291193826247,-0.008807828496856447,-0.00014660836710764648,0.0,0.0,0.0,0.0,0.0,0.0,0.0,0.0,0.0
4.176,112,4,176000000,base_footprint,0.0001694414366285199,0.0038663988674968956,-0.04756117838821717,0.9988608294250613,0.0,0.0,0.0,0.0,0.0,0.0,0.0,0.0,0.0,-0.0004343856663487711,0.0001615848798434745,-0.0355586664837934,0.0,0.0,0.0,0.0,0.0,0.0,0.0,0.0,0.0,0.0026369730713191246,-0.008768997617224354,-0.000256142910240373,0.0,0.0,0.0,0.0,0.0,0.0,0.0,0.0,0.0
4.211,113,4,210000000,base_footprint,0.00017622570471522705,0.0038557593184240894,-0.04823252183719835,0.9988286769520606,0.0,0.0,0.0,0.0,0.0,0.0,0.0,0.0,0.0,-0.0005880932133888511,-0.0029787977226327952,-0.06593520566652186,0.0,0.0,0.0,0.0,0.0,0.0,0.0,0.0,0.0,-0.15231874644953602,0.020893393098719844,0.006139524686886581,0.0,0.0,0.0,0.0,0.0,0.0,0.0,0.0,0.0
4.244,114,4,244000000,base_footprint,0.00018053531013625818,0.003869289547853517,-0.05010840364670449,0.9987362734422814,0.0,0.0,0.0,0.0,0.0,0.0,0.0,0.0,0.0,-0.002048894460764275,0.0014213079715719524,-0.08044813410406751,0.0,0.0,0.0,0.0,0.0,0.0,0.0,0.0,0.0,-0.29523188781041076,0.03706569412841584,-0.00521990656714966,0.0,0.0,0.0,0.0,0.0,0.0,0.0,0.0,0.0
4.2780000000000005,115,4,278000000,base_footprint,0.00018814642653240858,0.003868111172965918,-0.05061115083435374,0.9987109260081709,0.0,0.0,0.0,0.0,0.0,0.0,0.0,0.0,0.0,0.0003213148806694654,-0.000616988958587081,-0.024103394802999237,0.0,0.0,0.0,0.0,0.0,0.0,0.0,0.0,0.0,0.09428841960450511,-0.02383621997234397,0.003154026503265988,0.0,0.0,0.0,0.0,0.0,0.0,0.0,0.0,0.0
4.312,116,4,312000000,base_footprint,0.00019186380837633155,0.0038674976343669914,-0.05088837603714364,0.9986968403047191,0.0,0.0,0.0,0.0,0.0,0.0,0.0,0.0,0.0,-0.00011296051742617386,-0.00010933838509121563,0.0013716664578784002,0.0,0.0,0.0,0.0,0.0,0.0,0.0,0.0,0.0,-0.0308498557383047,0.0018290833921016884,-0.001022132180589711,0.0,0.0,0.0,0.0,0.0,0.0,0.0,0.0,0.0
4.347,117,4,346000000,base_footprint,0.00018902532223128815,0.0038692872442450464,-0.05101201982278677,0.9986905259985441,0.0,0.0,0.0,0.0,0.0,0.0,0.0,0.0,0.0,-0.00045647346993612565,-0.0007315236205236931,-0.009211382984236469,0.0,0.0,0.0,0.0,0.0,0.0,0.0,0.0,0.0,0.009928453527537826,0.0032778341177011542,0.0015241542271100497,0.0,0.0,0.0,0.0,0.0,0.0,0.0,0.0,0.0
4.382,118,4,380000000,base_footprint,0.00018450209877584267,0.0038658929818212937,-0.05132452171199357,0.9986745287136665,0.0,0.0,0.0,0.0,0.0,0.0,0.0,0.0,0.0,0.0003063096479555764,-0.00026855151911703306,-0.03353115274033508,0.0,0.0,0.0,0.0,0.0,0.0,0.0,0.0,0.0,-0.052737350502680316,-6.284647679016039e-05,-0.0004678441111762704,0.0,0.0,0.0,0.0,0.0,0.0,0.0,0.0,0.0
4.414,119,4,414000000,base_footprint,0.00018656661771728408,0.0038592040751978347,-0.051887041018499114,0.9986454860014878,0.0,0.0,0.0,0.0,0.0,0.0,0.0,0.0,0.0,-0.0006823299450838523,0.0003334108975090314,-0.017597109316938125,0.0,0.0,0.0,0.0,0.0,0.0,0.0,0.0,0.0,-0.024174401572593162,-0.0018867184850573941,0.0006293075780835621,0.0,0.0,0.0,0.0,0.0,0.0,0.0,0.0,0.0
4.448,120,4,448000000,base_footprint,0.0001928010205805093,0.003865206883546508,-0.051932636233289406,0.9986430915484144,0.0,0.0,0.0,0.0,0.0,0.0,0.0,0.0,0.0,0.0003835637570922944,0.00024734115662190684,0.01160995626560109,0.0,0.0,0.0,0.0,0.0,0.0,0.0,0.0,0.0,0.06819670108176801,-0.017546052950663936,-0.0017894513144267616,0.0,0.0,0.0,0.0,0.0,0.0,0.0,0.0,0.0
4.482,121,4,482000000,base_footprint,0.0001907462382574583,0.003861137002130458,-0.051771374367895015,0.998651480764427,0.0,0.0,0.0,0.0,0.0,0.0,0.0,0.0,0.0,2.0516066961118892e-05,-0.00020108766889240478,0.009168280534116986,0.0,0.0,0.0,0.0,0.0,0.0,0.0,0.0,0.0,0.00017813734642828475,0.0033229255682428378,0.0006157944040626156,0.0,0.0,0.0,0.0,0.0,0.0,0.0,0.0,0.0
4.516,122,4,516000000,base_footprint,0.00019091756574736375,0.0038579600451895167,-0.05215371808765797,0.9986315984307756,0.0,0.0,0.0,0.0,0.0,0.0,0.0,0.0,0.0,0.0002657441565096616,0.001505971819812996,-0.0763592118717086,0.0,0.0,0.0,0.0,0.0,0.0,0.0,0.0,0.0,0.004543666268243954,-0.0021264613894212206,-0.0022179338178037033,0.0,0.0,0.0,0.0,0.0,0.0,0.0,0.0,0.0
4.55,123,4,550000000,base_footprint,0.00019414787512631404,0.0038543415433344302,-0.05345968427087409,0.9985625511281346,0.0,0.0,0.0,0.0,0.0,0.0,0.0,0.0,0.0,-0.0008242543606387474,-0.0006528027086597716,-0.05536707994969021,0.0,0.0,0.0,0.0,0.0,0.0,0.0,0.0,0.0,0.22888272045201563,-0.06928041801462011,0.0007701464844110077,0.0,0.0,0.0,0.0,0.0,0.0,0.0,0.0,0.0
4.584,124,4,584000000,base_footprint,0.00019558302772171204,0.0038587031368573937,-0.05364808911869562,0.998552429615638,0.0,0.0,0.0,0.0,0.0,0.0,0.0,0.0,0.0,-0.00020814376598066246,-0.00015669457861726792,-0.0030556289054648753,0.0,0.0,0.0,0.0,0.0,0.0,0.0,0.0,0.0,0.11282354159256112,-0.027892162693281847,-0.0013363297310562724,0.0,0.0,0.0,0.0,0.0,0.0,0.0,0.0,0.0
4.618,125,4,618000000,base_footprint,0.00019469675521246842,0.0038601480368458843,-0.0537003018045707,0.9985496176637421,0.0,0.0,0.0,0.0,0.0,0.0,0.0,0.0,0.0,-0.00017689219225133163,-2.9303977437573676e-06,-0.003150763413389092,0.0,0.0,0.0,0.0,0.0,0.0,0.0,0.0,0.0,0.004850620819904683,-0.0019907661920132514,-0.0002794873175925278,0.0,0.0,0.0,0.0,0.0,0.0,0.0,0.0,0.0
4.652,126,4,652000000,base_footprint,0.0001936684198465354,0.003863219392134895,-0.053752660678300375,0.9985467888378967,0.0,0.0,0.0,0.0,0.0,0.0,0.0,0.0,0.0,-0.0001809920139765723,9.472038790831592e-05,-0.0030291246592051768,0.0,0.0,0.0,0.0,0.0,0.0,0.0,0.0,0.0,0.004404319311838667,-0.0018709718734807024,-0.0002451193647850175,0.0,0.0,0.0,0.0,0.0,0.0,0.0,0.0,0.0
4.686,127,4,686000000,base_footprint,0.0001926306225109652,0.0038677922747789124,-0.05379854137911685,0.9985443004803752,0.0,0.0,0.0,0.0,0.0,0.0,0.0,0.0,0.0,-0.00010113223005282172,6.961629760409289e-05,-0.002179978332931376,0.0,0.0,0.0,0.0,0.0,0.0,0.0,0.0,0.0,0.0024439004386282172,-0.0015539150408123226,-9.957449435798109e-06,0.0,0.0,0.0,0.0,0.0,0.0,0.0,0.0,0.0
4.72,128,4,720000000,base_footprint,0.000192917136476222,0.0038712179762428536,-0.053766170814549076,0.998546030651717,0.0,0.0,0.0,0.0,0.0,0.0,0.0,0.0,0.0,8.430600635498399e-05,-0.00013362534407576932,0.0060021683337428055,0.0,0.0,0.0,0.0,0.0,0.0,0.0,0.0,0.0,-0.00421196724457142,0.001021114506139858,0.00022237390436806163,0.0,0.0,0.0,0.0,0.0,0.0,0.0,0.0,0.0
4.754,129,4,754000000,base_footprint,0.0001975285850100187,0.003869624649476384,-0.05366557762688587,0.9985514472301881,0.0,0.0,0.0,0.0,0.0,0.0,0.0,0.0,0.0,0.0006034750632649219,-0.0003566156116148171,0.005126714628113368,0.0,0.0,0.0,0.0,0.0,0.0,0.0,0.0,0.0,0.0033051003632369627,0.00536646504209964,0.00040060544270195713,0.0,0.0,0.0,0.0,0.0,0.0,0.0,0.0,0.0
4.788,130,4,788000000,base_footprint,0.00020245457650349292,0.003869562838759908,-0.053545363823868694,0.9985578999279666,0.0,0.0,0.0,0.0,0.0,0.0,0.0,0.0,0.0,0.00023849795844989058,-0.00016107105831552942,0.013041462864510868,0.0,0.0,0.0,0.0,0.0,0.0,0.0,0.0,0.0,-0.023936451820178582,0.003435243366899838,-0.0001457788838875261,0.0,0.0,0.0,0.0,0.0,0.0,0.0,0.0,0.0
4.822,131,4,822000000,base_footprint,0.0001989815087386581,0.0038701458690449933,-0.05325573398266244,0.9985733869752786,0.0,0.0,0.0,0.0,0.0,0.0,0.0,0.0,0.0,0.00022309496738851734,-1.1430191812878393e-05,0.019009341422075634,0.0,0.0,0.0,0.0,0.0,0.0,0.0,0.0,0.0,-0.002907708077714524,0.007123167377587371,-0.00015627658637575926,0.0,0.0,0.0,0.0,0.0,0.0,0.0,0.0,0.0
4.856,132,4,856000000,base_footprint,0.00019158363956282303,0.00386583077882719,-0.053053479476711185,0.9985841711961556,0.0,0.0,0.0,0.0,0.0,0.0,0.0,0.0,0.0,-0.00014003086441840353,-3.7243963175847235e-05,-0.0013368834767344285,0.0,0.0,0.0,0.0,0.0,0.0,0.0,0.0,0.0,-0.04047724209047968,0.011287178761457836,0.0004082960768086413,0.0,0.0,0.0,0.0,0.0,0.0,0.0,0.0,0.0
4.89,133,4,890000000,base_footprint,0.00019203200462838063,0.003861500652560829,-0.05322271671080779,0.9985751821281864,0.0,0.0,0.0,0.0,0.0,0.0,0.0,0.0,0.0,0.0015082233662214524,-0.00029783011747943423,-0.008113720997270795,0.0,0.0,0.0,0.0,0.0,0.0,0.0,0.0,0.0,-0.013877107161641134,0.0012661193694245437,-0.0012863652612849269,0.0,0.0,0.0,0.0,0.0,0.0,0.0,0.0,0.0
4.924,134,4,924000000,base_footprint,0.00019689103928690116,0.0038643610322512123,-0.052922679985579334,0.9985911164690356,0.0,0.0,0.0,0.0,0.0,0.0,0.0,0.0,0.0,0.0013635322568206869,0.0005497107082724121,0.04128953257661019,0.0,0.0,0.0,0.0,0.0,0.0,0.0,0.0,0.0,0.04544560507691495,-0.011954468448251494,0.00020948802931350672,0.0,0.0,0.0,0.0,0.0,0.0,0.0,0.0,0.0
4.958,135,4,958000000,base_footprint,0.0001933608855546597,0.0038607279663493486,-0.052257149269652005,0.998626180180225,0.0,0.0,0.0,0.0,0.0,0.0,0.0,0.0,0.0,0.0003387173579603913,-0.0003062704960376369,0.03868272269505967,0.0,0.0,0.0,0.0,0.0,0.0,0.0,0.0,0.0,0.002827206288140727,0.011169220742911164,0.0013540678881211214,0.0,0.0,0.0,0.0,0.0,0.0,0.0,0.0,0.0
4.992,136,4,992000000,base_footprint,0.00019041033337468017,0.0038595328614504385,-0.05160295916254479,0.9986602036507038,0.0,0.0,0.0,0.0,0.0,0.0,0.0,0.0,0.0,0.00026140041943204434,-0.00030412658852592347,0.03833420880989335,0.0,0.0,0.0,0.0,0.0,0.0,0.0,0.0,0.0,0.006796469013151838,0.006834715939407638,4.9974529110005694e-05,0.0,0.0,0.0,0.0,0.0,0.0,0.0,0.0,0.0
5.026,137,5,26000000,base_footprint,0.00018713175937078052,0.003858258075698835,-0.051130064343865966,0.998684532445816,0.0,0.0,0.0,0.0,0.0,0.0,0.0,0.0,0.0,0.0003715986124593784,0.0006936299472056469,0.011289343631175203,0.0,0.0,0.0,0.0,0.0,0.0,0.0,0.0,0.0,-0.3219933412214951,0.07411352701877713,0.0011745167757434849,0.0,0.0,0.0,0.0,0.0,0.0,0.0,0.0,0.0
5.06,138,5,60000000,base_footprint,0.00018553068011134937,0.0038588148011737024,-0.05094026612777537,0.9986942296887112,0.0,0.0,0.0,0.0,0.0,0.0,0.0,0.0,0.0,2.6441623631842354e-05,-0.00014484028031370685,0.011039488938850196,0.0,0.0,0.0,0.0,0.0,0.0,0.0,0.0,0.0,0.007858606470326933,-0.00020998506851901776,0.0010298785895894427,0.0,0.0,0.0,0.0,0.0,0.0,0.0,0.0,0.0
5.094,139,5,94000000,base_footprint,0.00018373461545427976,0.0038605340877275887,-0.050753046545019866,0.99870375526707,0.0,0.0,0.0,0.0,0.0,0.0,0.0,0.0,0.0,-5.260576682533039e-05,-6.719845705587957e-05,0.010927988828716699,0.0,0.0,0.0,0.0,0.0,0.0,0.0,0.0,0.0,0.005246630393267153,0.0006599672430232819,-0.0002911521283761519,0.0,0.0,0.0,0.0,0.0,0.0,0.0,0.0,0.0
5.128,140,5,128000000,base_footprint,0.00018195618047148988,0.0038623419771344207,-0.05049929267372314,0.9987166117802656,0.0,0.0,0.0,0.0,0.0,0.0,0.0,0.0,0.0,-2.4361550178378685e-05,-8.428885899351905e-07,0.016207213133212786,0.0,0.0,0.0,0.0,0.0,0.0,0.0,0.0,0.0,0.003742354663786912,0.001831581559946909,-0.00018075103301043877,0.0,0.0,0.0,0.0,0.0,0.0,0.0,0.0,0.0
5.162,141,5,162000000,base_footprint,0.00017972221617128053,0.0038659737479761445,-0.05021932162917227,0.9987307152991797,0.0,0.0,0.0,0.0,0.0,0.0,0.0,0.0,0.0,-3.052027867500989e-06,9.545005611786467e-05,0.016875059414117377,0.0,0.0,0.0,0.0,0.0,0.0,0.0,0.0,0.0,0.003902168841722501,0.002510209809400834,-0.00023941063468725432,0.0,0.0,0.0,0.0,0.0,0.0,0.0,0.0,0.0
5.196,142,5,196000000,base_footprint,0.00017783573677329945,0.0038697144990386323,-0.04991783145285039,0.9987458154040956,0.0,0.0,0.0,0.0,0.0,0.0,0.0,0.0,0.0,9.570321031893347e-05,3.9459551267918226e-05,0.018817241278157464,0.0,0.0,0.0,0.0,0.0,0.0,0.0,0.0,0.0,0.0003781995100643298,0.0033073670633855233,-3.716399130326502e-05,0.0,0.0,0.0,0.0,0.0,0.0,0.0,0.0,0.0
5.23,143,5,230000000,base_footprint,0.00018234880603140642,0.0038642721308374066,-0.04964265714899458,0.9987595510136558,0.0,0.0,0.0,0.0,0.0,0.0,0.0,0.0,0.0,0.0005295906542700171,-0.0001923467359002324,-0.0008617339529600006,0.0,0.0,0.0,0.0,0.0,0.0,0.0,0.0,0.0,0.15413868203281358,-0.022352627744312716,-0.0004896755778615082,0.0,0.0,0.0,0.0,0.0,0.0,0.0,0.0,0.0
5.264,144,5,264000000,base_footprint,0.00018795036314425448,0.0038659379589849954,-0.049095141091531465,0.9987866069984924,0.0,0.0,0.0,0.0,0.0,0.0,0.0,0.0,0.0,0.001340171962714614,0.0009420764903341505,0.05720291829172594,0.0,0.0,0.0,0.0,0.0,0.0,0.0,0.0,0.0,0.09658940246217992,-0.01707725686302836,-0.003518487994424521,0.0,0.0,0.0,0.0,0.0,0.0,0.0,0.0,0.0
5.298,145,5,298000000,base_footprint,0.00018007920140921608,0.00387168796068765,-0.048333140123196575,0.998823750803738,0.0,0.0,0.0,0.0,0.0,0.0,0.0,0.0,0.0,-0.0007859430007537852,0.000188483420565255,0.02535571755000656,0.0,0.0,0.0,0.0,0.0,0.0,0.0,0.0,0.0,0.058192735050749046,-0.0003080575769709719,0.001655101382105069,0.0,0.0,0.0,0.0,0.0,0.0,0.0,0.0,0.0
5.332,146,5,332000000,base_footprint,0.0001722720907805104,0.0038677707134901224,-0.04804829376576482,0.9988375103780562,0.0,0.0,0.0,0.0,0.0,0.0,0.0,0.0,0.0,-0.0002880604320922176,-0.00012927194030973934,0.006290961979639141,0.0,0.0,0.0,0.0,0.0,0.0,0.0,0.0,0.0,-0.023915531829077952,0.010998738397560765,0.0005450789014450775,0.0,0.0,0.0,0.0,0.0,0.0,0.0,0.0,0.0
5.366,147,5,366000000,base_footprint,0.00017236377792129276,0.0038644462713383404,-0.04814476406036722,0.9988328779326978,0.0,0.0,0.0,0.0,0.0,0.0,0.0,0.0,0.0,-0.0005301518086626068,-0.000435246867804429,-0.006416936205373303,0.0,0.0,0.0,0.0,0.0,0.0,0.0,0.0,0.0,-0.026831830706094174,0.003711040266070679,0.0015101111867669799,0.0,0.0,0.0,0.0,0.0,0.0,0.0,0.0,0.0
5.4,148,5,400000000,base_footprint,0.00017838369219905922,0.003867236592566519,-0.04804206576765994,0.9988378109468882,0.0,0.0,0.0,0.0,0.0,0.0,0.0,0.0,0.0,6.60790004091685e-05,-0.00038964713692349437,0.016128912221181943,0.0,0.0,0.0,0.0,0.0,0.0,0.0,0.0,0.0,0.052885302366903864,-0.011051828521364649,-0.0009580033645429956,0.0,0.0,0.0,0.0,0.0,0.0,0.0,0.0,0.0
5.434,149,5,434000000,base_footprint,0.00017524022013945054,0.003862202414154857,-0.047598999675480466,0.9988590430652721,0.0,0.0,0.0,0.0,0.0,0.0,0.0,0.0,0.0,0.0002745222062602308,-0.0002940313937150636,0.02656422627650789,0.0,0.0,0.0,0.0,0.0,0.0,0.0,0.0,0.0,-0.0023538161755284454,0.006681744457912135,-0.0003142497965473102,0.0,0.0,0.0,0.0,0.0,0.0,0.0,0.0,0.0
5.468,150,5,468000000,base_footprint,0.0001731907395760581,0.0038606422376943417,-0.047151954881796035,0.998880252381288,0.0,0.0,0.0,0.0,0.0,0.0,0.0,0.0,0.0,0.00016299661046762794,-0.00030331985760599514,0.026085140159858376,0.0,0.0,0.0,0.0,0.0,0.0,0.0,0.0,0.0,0.0058680824776339855,0.004631357302808945,5.00625736875736e-05,0.0,0.0,0.0,0.0,0.0,0.0,0.0,0.0,0.0
5.502,151,5,502000000,base_footprint,0.00017065537344963306,0.003859219854536488,-0.04671176705927212,0.9989009400921887,0.0,0.0,0.0,0.0,0.0,0.0,0.0,0.0,0.0,0.0005520434285660362,-0.00020251303776720565,0.0217874438083917,0.0,0.0,0.0,0.0,0.0,0.0,0.0,0.0,0.0,0.0068620560124557145,0.0041799997006795615,-0.0007354687735376441,0.0,0.0,0.0,0.0,0.0,0.0,0.0,0.0,0.0
5.536,152,5,536000000,base_footprint,0.00016835099861314752,0.0038593556737809946,-0.0464527160730906,0.9989130203381862,0.0,0.0,0.0,0.0,0.0,0.0,0.0,0.0,0.0,6.0565242855885826e-05,-0.0001634306981580664,0.015047774668052922,0.0,0.0,0.0,0.0,0.0,0.0,0.0,0.0,0.0,0.008696050007010486,0.0018563875276532333,0.0003767322634205458,0.0,0.0,0.0,0.0,0.0,0.0,0.0,0.0,0.0
5.57,153,5,570000000,base_footprint,0.0001661469891065227,0.003861324761009763,-0.04619772718168,0.9989248382984153,0.0,0.0,0.0,0.0,0.0,0.0,0.0,0.0,0.0,-4.09875368236608e-06,-5.7833596139473235e-05,0.014974253309182492,0.0,0.0,0.0,0.0,0.0,0.0,0.0,0.0,0.0,0.00569406331952052,0.00200170921963829,-0.0003446664366083893,0.0,0.0,0.0,0.0,0.0,0.0,0.0,0.0,0.0
5.604,154,5,604000000,base_footprint,0.0001643190886526675,0.0038632439559784337,-0.04593908995031636,0.9989367589391785,0.0,0.0,0.0,0.0,0.0,0.0,0.0,0.0,0.0,-0.0003446913920959493,0.0001921305168237124,0.019280556025227286,0.0,0.0,0.0,0.0,0.0,0.0,0.0,0.0,0.0,0.005228473681067906,0.0017094044540501576,-0.0006448855472565845,0.0,0.0,0.0,0.0,0.0,0.0,0.0,0.0,0.0
5.638,155,5,638000000,base_footprint,0.00016221252472408857,0.0038666834079468153,-0.04558945385975449,0.9989527637197311,0.0,0.0,0.0,0.0,0.0,0.0,0.0,0.0,0.0,3.255817114691518e-05,0.00010509778239437887,0.02091782504586993,0.0,0.0,0.0,0.0,0.0,0.0,0.0,0.0,0.0,0.0033554321548055327,0.0034415356646643747,0.00021078842087025328,0.0,0.0,0.0,0.0,0.0,0.0,0.0,0.0,0.0
5.671,156,5,672000000,base_footprint,0.00015992449388934222,0.0038704616601887114,-0.04521893246330645,0.998969590176584,0.0,0.0,0.0,0.0,0.0,0.0,0.0,0.0,0.0,0.00013947060446690504,5.3420376285477156e-05,0.022953262062392135,0.0,0.0,0.0,0.0,0.0,0.0,0.0,0.0,0.0,0.0007103322672595302,0.004269849312784485,-4.5298874935950525e-05,0.0,0.0,0.0,0.0,0.0,0.0,0.0,0.0,0.0
5.706,157,5,706000000,base_footprint,0.00015954351831295338,0.0038673488797458496,-0.04485068443396837,0.9989862032402212,0.0,0.0,0.0,0.0,0.0,0.0,0.0,0.0,0.0,-0.0017989805679894172,-0.004087455585594377,0.0029852544911263146,0.0,0.0,0.0,0.0,0.0,0.0,0.0,0.0,0.0,-0.04055737656076798,0.016818472113656332,0.005909582622390035,0.0,0.0,0.0,0.0,0.0,0.0,0.0,0.0,0.0
5.74,158,5,740000000,base_footprint,0.00016781046623433348,0.0038813271690950617,-0.04596971870981428,0.9989352792352438,0.0,0.0,0.0,0.0,0.0,0.0,0.0,0.0,0.0,-0.0033265723423381182,-0.0049302413264170255,-0.08989618735473204,0.0,0.0,0.0,0.0,0.0,0.0,0.0,0.0,0.0,-0.18510508983376575,0.014700703928406847,0.006236336213486585,0.0,0.0,0.0,0.0,0.0,0.0,0.0,0.0,0.0
5.774,159,5,774000000,base_footprint,0.0001723000166911016,0.0038655469610706394,-0.0465826035957464,0.9989069470684633,0.0,0.0,0.0,0.0,0.0,0.0,0.0,0.0,0.0,0.0011705644762409254,0.0012526845991685047,0.012956406663962543,0.0,0.0,0.0,0.0,0.0,0.0,0.0,0.0,0.0,-0.06346514794868252,0.00872427422923207,-0.011432479380981584,0.0,0.0,0.0,0.0,0.0,0.0,0.0,0.0,0.0
5.808,160,5,808000000,base_footprint,0.00016792793265843627,0.0038718539557889217,-0.04605204169978756,0.9989315241809298,0.0,0.0,0.0,0.0,0.0,0.0,0.0,0.0,0.0,2.416867775766338e-05,-0.0005644755012496677,0.01883337390761589,0.0,0.0,0.0,0.0,0.0,0.0,0.0,0.0,0.0,-0.10212636451465022,0.023287599253715298,0.0035542826242321293,0.0,0.0,0.0,0.0,0.0,0.0,0.0,0.0,0.0
5.8420000000000005,161,5,842000000,base_footprint,0.0001656805841105629,0.0038659226071620424,-0.04585621494942841,0.9989405561608015,0.0,0.0,0.0,0.0,0.0,0.0,0.0,0.0,0.0,-0.00033819877961418853,-3.7642159214976506e-05,0.010808318607706919,0.0,0.0,0.0,0.0,0.0,0.0,0.0,0.0,0.0,-0.021818320984744993,0.00886215737745861,-1.3601510602546829e-05,0.0,0.0,0.0,0.0,0.0,0.0,0.0,0.0,0.0
5.876,162,5,876000000,base_footprint,0.00016902486216596732,0.0038681228615282284,-0.04548005237022547,0.9989577437972668,0.0,0.0,0.0,0.0,0.0,0.0,0.0,0.0,0.0,3.121421639570509e-05,-0.0007199393353930911,0.029540518560211847,0.0,0.0,0.0,0.0,0.0,0.0,0.0,0.0,0.0,0.04427310806057199,-0.005000986950876225,0.0002800402918408763,0.0,0.0,0.0,0.0,0.0,0.0,0.0,0.0,0.0
5.91,163,5,910000000,base_footprint,0.00016376586832558858,0.003850361897917696,-0.04508192647127016,0.9989758594679026,0.0,0.0,0.0,0.0,0.0,0.0,0.0,0.0,0.0,0.00021262104058735696,0.0012102102119782038,-0.005667082528574991,0.0,0.0,0.0,0.0,0.0,0.0,0.0,0.0,0.0,0.14386704747672446,-0.019839188015581717,-0.004397370550502517,0.0,0.0,0.0,0.0,0.0,0.0,0.0,0.0,0.0
5.944,164,5,944000000,base_footprint,0.00016508347318999444,0.003854883537096263,-0.04562696068414528,0.998951096440206,0.0,0.0,0.0,0.0,0.0,0.0,0.0,0.0,0.0,0.0008897855604433273,-0.0016236537533700166,0.027213906808633136,0.0,0.0,0.0,0.0,0.0,0.0,0.0,0.0,0.0,0.1786920561443397,-0.04206121943150691,0.0013196364140047449,0.0,0.0,0.0,0.0,0.0,0.0,0.0,0.0,0.0
5.978,165,5,978000000,base_footprint,0.00016541036992816894,0.003859344500349131,-0.045087009181933584,0.9989755951485829,0.0,0.0,0.0,0.0,0.0,0.0,0.0,0.0,0.0,0.0002183133123987562,-0.00017495295969457465,0.031520590702669986,0.0,0.0,0.0,0.0,0.0,0.0,0.0,0.0,0.0,0.023768772596763015,0.0028157642570478154,-0.00045937186324132145,0.0,0.0,0.0,0.0,0.0,0.0,0.0,0.0,0.0
6.012,166,6,12000000,base_footprint,0.00016545836398044295,0.0038585795010066953,-0.045112359754671164,0.9989744536198758,0.0,0.0,0.0,0.0,0.0,0.0,0.0,0.0,0.0,-0.0013250152320360962,-0.0005467727963017727,-0.15525943009741344,0.0,0.0,0.0,0.0,0.0,0.0,0.0,0.0,0.0,0.01446810919087975,-0.0009497916143635511,0.00047574029820877126,0.0,0.0,0.0,0.0,0.0,0.0,0.0,0.0,0.0
6.046,167,6,46000000,base_footprint,0.00017547630362882733,0.0038631887502401777,-0.048327220747689886,0.998824070953214,0.0,0.0,0.0,0.0,0.0,0.0,0.0,0.0,0.0,-0.0004885868013349315,0.0007968140468615745,-0.12622293697263387,0.0,0.0,0.0,0.0,0.0,0.0,0.0,0.0,0.0,0.0285481911649627,-0.05090403071081834,-0.0019025259287374537,0.0,0.0,0.0,0.0,0.0,0.0,0.0,0.0,0.0
6.08,168,6,80000000,base_footprint,0.00018203774450462352,0.0038642283512503478,-0.05048786745445391,0.9987171821098356,0.0,0.0,0.0,0.0,0.0,0.0,0.0,0.0,0.0,-0.001160438083329273,0.00016687376043664795,-0.12746238279230623,0.0,0.0,0.0,0.0,0.0,0.0,0.0,0.0,0.0,0.0005221677086919853,-0.026703357152653148,0.00038523715092217414,0.0,0.0,0.0,0.0,0.0,0.0,0.0,0.0,0.0
6.114,169,6,114000000,base_footprint,0.00019021835024465752,0.00386693932728635,-0.05229083631185006,0.9986243933707136,0.0,0.0,0.0,0.0,0.0,0.0,0.0,0.0,0.0,-0.0009951167831548135,0.00481700443398244,-0.04788333501968357,0.0,0.0,0.0,0.0,0.0,0.0,0.0,0.0,0.0,-0.0652703145029029,-0.015900968825048288,-0.006631956725011124,0.0,0.0,0.0,0.0,0.0,0.0,0.0,0.0,0.0
6.148,170,6,148000000,base_footprint,0.00018783341383809334,0.0038706270466339478,-0.052681520744317284,0.998603845544839,0.0,0.0,0.0,0.0,0.0,0.0,0.0,0.0,0.0,6.236437745151122e-05,0.001868015241590541,0.04302251396062109,0.0,0.0,0.0,0.0,0.0,0.0,0.0,0.0,0.0,0.01635708850232425,-0.009486471660143797,0.003601560396708978,0.0,0.0,0.0,0.0,0.0,0.0,0.0,0.0,0.0
6.182,171,6,182000000,base_footprint,0.00018838085208669489,0.0038714977247945193,-0.05201912776389028,0.9986385664316723,0.0,0.0,0.0,0.0,0.0,0.0,0.0,0.0,0.0,0.0005614731312115237,-0.0003631550694946426,0.03825498892797651,0.0,0.0,0.0,0.0,0.0,0.0,0.0,0.0,0.0,0.009295124459275559,0.011406102943554323,0.0038839770690438126,0.0,0.0,0.0,0.0,0.0,0.0,0.0,0.0,0.0
6.216,172,6,216000000,base_footprint,0.0001921499286441611,0.0038704470846791217,-0.05127964909011017,0.9986768147438715,0.0,0.0,0.0,0.0,0.0,0.0,0.0,0.0,0.0,0.0011915572602416281,0.00038896361698300227,0.054963585643260204,0.0,0.0,0.0,0.0,0.0,0.0,0.0,0.0,0.0,0.00938613476670989,0.005332528226075999,-0.0011728958349817113,0.0,0.0,0.0,0.0,0.0,0.0,0.0,0.0,0.0
6.25,173,6,250000000,base_footprint,0.00019087399076674196,0.003871123414654806,-0.05014184314318017,0.9987345861322883,0.0,0.0,0.0,0.0,0.0,0.0,0.0,0.0,0.0,1.575573934741255e-05,0.0004627118485176512,0.06895504179072318,0.0,0.0,0.0,0.0,0.0,0.0,0.0,0.0,0.0,-0.06096642367729732,0.026766687332274844,-1.9589363387518307e-05,0.0,0.0,0.0,0.0,0.0,0.0,0.0,0.0,0.0
6.284,174,6,284000000,base_footprint,0.00017534479315297472,0.00386564824322264,-0.04914159732704519,0.9987843257831042,0.0,0.0,0.0,0.0,0.0,0.0,0.0,0.0,0.0,0.00018934459676624903,0.0003209239295826972,0.04937793506572226,0.0,0.0,0.0,0.0,0.0,0.0,0.0,0.0,0.0,-0.009842545869282905,0.022797810287820502,0.0006716918933578616,0.0,0.0,0.0,0.0,0.0,0.0,0.0,0.0,0.0
6.318,175,6,318000000,base_footprint,0.00017471838173914334,0.0038653861751934354,-0.048593231359819966,0.9988111563900429,0.0,0.0,0.0,0.0,0.0,0.0,0.0,0.0,0.0,-0.0002397558734685056,-0.0006485425710498901,0.025352805690296774,0.0,0.0,0.0,0.0,0.0,0.0,0.0,0.0,0.0,-0.010976232178054305,0.008476456436377126,0.0021346982273399615,0.0,0.0,0.0,0.0,0.0,0.0,0.0,0.0,0.0
6.352,176,6,352000000,base_footprint,0.00017795285812599235,0.003867412716509156,-0.047963627201628556,0.9988415799902023,0.0,0.0,0.0,0.0,0.0,0.0,0.0,0.0,0.0,0.0001821367411076,-0.0006255166114257127,0.0458025896253384,0.0,0.0,0.0,0.0,0.0,0.0,0.0,0.0,0.0,0.04862107161902431,-0.00409087297153311,-0.0005754661862649745,0.0,0.0,0.0,0.0,0.0,0.0,0.0,0.0,0.0
6.386,177,6,386000000,base_footprint,0.00017364272082293428,0.003862243131306951,-0.047216547029165425,0.9988771949608435,0.0,0.0,0.0,0.0,0.0,0.0,0.0,0.0,0.0,0.0004052610801417145,-0.0002962042520721057,0.0437644849718007,0.0,0.0,0.0,0.0,0.0,0.0,0.0,0.0,0.0,0.0017182894697693883,0.009706615219207645,-0.0006739812154994049,0.0,0.0,0.0,0.0,0.0,0.0,0.0,0.0,0.0
6.42,178,6,420000000,base_footprint,0.0001721184719058453,0.003864225551370636,-0.04673537601939716,0.9988998161800038,0.0,0.0,0.0,0.0,0.0,0.0,0.0,0.0,0.0,-0.0003400340919027353,0.0002648968006254499,-0.03735251523149882,0.0,0.0,0.0,0.0,0.0,0.0,0.0,0.0,0.0,-0.3117443233808693,0.06645756084894193,0.0017855378694137934,0.0,0.0,0.0,0.0,0.0,0.0,0.0,0.0,0.0
6.454,179,6,454000000,base_footprint,0.00017082671647981033,0.003859989400091522,-0.04680254173847131,0.9988966880448061,0.0,0.0,0.0,0.0,0.0,0.0,0.0,0.0,0.0,-5.433684908087464e-05,-0.0015048901449114887,0.04116366236870965,0.0,0.0,0.0,0.0,0.0,0.0,0.0,0.0,0.0,-0.010647083672141962,-0.0017854771275281783,0.0024819978232824475,0.0,0.0,0.0,0.0,0.0,0.0,0.0,0.0,0.0
6.488,180,6,488000000,base_footprint,0.0001672987691810325,0.003859084566642187,-0.04610657357674356,0.9989290582170697,0.0,0.0,0.0,0.0,0.0,0.0,0.0,0.0,0.0,0.0002707797314936967,-0.0001840292461624116,0.04085691406641919,0.0,0.0,0.0,0.0,0.0,0.0,0.0,0.0,0.0,0.006140853973958683,0.008814029793022383,-0.001897602045421003,0.0,0.0,0.0,0.0,0.0,0.0,0.0,0.0,0.0
6.522,181,6,522000000,base_footprint,0.0001629540747361105,0.0038604770807085173,-0.04526223442215575,0.998967667293488,0.0,0.0,0.0,0.0,0.0,0.0,0.0,0.0,0.0,0.0003990699978288845,-4.6241071663363096e-05,0.05576772936482499,0.0,0.0,0.0,0.0,0.0,0.0,0.0,0.0,0.0,0.0029257544298277607,0.00965042430795099,-0.00023392845487172704,0.0,0.0,0.0,0.0,0.0,0.0,0.0,0.0,0.0
6.556,182,6,556000000,base_footprint,0.00015803945953096093,0.0038636500434194904,-0.04431593313868192,0.9990100826828122,0.0,0.0,0.0,0.0,0.0,0.0,0.0,0.0,0.0,0.0003119888263364256,-1.801534398385008e-05,0.055714084359170614,0.0,0.0,0.0,0.0,0.0,0.0,0.0,0.0,0.0,0.006924800156499038,0.010402018565508835,-0.00029430900827772077,0.0,0.0,0.0,0.0,0.0,0.0,0.0,0.0,0.0
6.589,183,6,590000000,base_footprint,0.00015418323107098628,0.0038662988095538647,-0.04336632162592146,0.999051745461507,0.0,0.0,0.0,0.0,0.0,0.0,0.0,0.0,0.0,0.0003477924589063408,-5.0476178009007724e-05,0.056011006662462046,0.0,0.0,0.0,0.0,0.0,0.0,0.0,0.0,0.0,0.005848630257655033,0.009696317800217208,-4.456207210207149e-06,0.0,0.0,0.0,0.0,0.0,0.0,0.0,0.0,0.0
6.624,184,6,624000000,base_footprint,0.00015081364612518566,0.003868493977831195,-0.04241699669436157,0.9990924934164096,0.0,0.0,0.0,0.0,0.0,0.0,0.0,0.0,0.0,0.0003271699660587318,-1.0549091262593648e-05,0.05601290776041933,0.0,0.0,0.0,0.0,0.0,0.0,0.0,0.0,0.0,0.006879398932065427,0.009236860717527834,-0.00024868109167953045,0.0,0.0,0.0,0.0,0.0,0.0,0.0,0.0,0.0
6.658,185,6,658000000,base_footprint,0.00015152752649624714,0.003864066118790689,-0.04177142871573276,0.9991197094320005,0.0,0.0,0.0,0.0,0.0,0.0,0.0,0.0,0.0,0.0002369761958534223,0.00010522756513837878,0.008406831226605323,0.0,0.0,0.0,0.0,0.0,0.0,0.0,0.0,0.0,0.1425515161031446,-0.014120845534294997,-0.0011278384751824638,0.0,0.0,0.0,0.0,0.0,0.0,0.0,0.0,0.0
6.692,186,6,692000000,base_footprint,0.00015312757526535635,0.0038625467812764855,-0.041494807688660464,0.9991312417391368,0.0,0.0,0.0,0.0,0.0,0.0,0.0,0.0,0.0,-0.0003097726010847908,-0.00043530840167807955,0.05023708062061313,0.0,0.0,0.0,0.0,0.0,0.0,0.0,0.0,0.0,0.1758007130062622,-0.022356062665960134,0.00014675994335220543,0.0,0.0,0.0,0.0,0.0,0.0,0.0,0.0,0.0
6.726,187,6,726000000,base_footprint,0.0001549102507710352,0.0038711822469325763,-0.04050094634095147,0.9991719888469216,0.0,0.0,0.0,0.0,0.0,0.0,0.0,0.0,0.0,0.00019789169247719349,0.0003504943471901978,0.06194560641250867,0.0,0.0,0.0,0.0,0.0,0.0,0.0,0.0,0.0,-0.03801175877601527,0.015621636238284348,-0.002061210549064211,0.0,0.0,0.0,0.0,0.0,0.0,0.0,0.0,0.0
6.76,188,6,760000000,base_footprint,0.00013931090602328094,0.0038666316175039826,-0.039728832615530896,0.9992030072069505,0.0,0.0,0.0,0.0,0.0,0.0,0.0,0.0,0.0,-0.00018334206140058622,0.00018585705231175003,0.03707415298113202,0.0,0.0,0.0,0.0,0.0,0.0,0.0,0.0,0.0,-3.7497923164969e-05,0.02197327944115991,0.0006849713742043731,0.0,0.0,0.0,0.0,0.0,0.0,0.0,0.0,0.0
6.7940000000000005,189,6,794000000,base_footprint,0.00013794585859444957,0.0038660145312282173,-0.03933196130695322,0.9992187106546458,0.0,0.0,0.0,0.0,0.0,0.0,0.0,0.0,0.0,0.0011485857762977233,-0.0004700179920704574,0.02131770254205334,0.0,0.0,0.0,0.0,0.0,0.0,0.0,0.0,0.0,-0.031245151873835794,0.003265410866117756,-0.0008438493172561132,0.0,0.0,0.0,0.0,0.0,0.0,0.0,0.0,0.0
6.828,190,6,828000000,base_footprint,0.00014089667570967842,0.0038686870145183423,-0.038799880563650774,0.9992395021600963,0.0,0.0,0.0,0.0,0.0,0.0,0.0,0.0,0.0,0.0012902447175941183,0.0005348898057223389,0.04489296669347987,0.0,0.0,0.0,0.0,0.0,0.0,0.0,0.0,0.0,0.060969718534990676,-0.007857477599707233,0.00029013526621642983,0.0,0.0,0.0,0.0,0.0,0.0,0.0,0.0,0.0
6.862,191,6,862000000,base_footprint,0.00013775967772657196,0.0038644438228443933,-0.03806412709999126,0.9992678166159096,0.0,0.0,0.0,0.0,0.0,0.0,0.0,0.0,0.0,0.00038461078932501325,-0.000384944359212121,0.042744019653870306,0.0,0.0,0.0,0.0,0.0,0.0,0.0,0.0,0.0,0.0030552074120826,0.010933030254400134,0.0014042002484437944,0.0,0.0,0.0,0.0,0.0,0.0,0.0,0.0,0.0
6.896,192,6,896000000,base_footprint,0.00013503158290650936,0.003862495005174924,-0.03734057960386345,0.9992951235814443,0.0,0.0,0.0,0.0,0.0,0.0,0.0,0.0,0.0,0.00036783402662721583,-0.00027721395877052007,0.04237929002553285,0.0,0.0,0.0,0.0,0.0,0.0,0.0,0.0,0.0,0.006395740993010086,0.0083805364169575,-0.00016496326651307022,0.0,0.0,0.0,0.0,0.0,0.0,0.0,0.0,0.0
6.93,193,6,930000000,base_footprint,0.00013118983801725035,0.003860568851554025,-0.03652728635160947,0.9993251903905738,0.0,0.0,0.0,0.0,0.0,0.0,0.0,0.0,0.0,0.0003418612183643562,-0.00030825865140400675,0.04891572279520639,0.0,0.0,0.0,0.0,0.0,0.0,0.0,0.0,0.0,0.005324678973487309,0.009409663523285476,4.130492535359173e-05,0.0,0.0,0.0,0.0,0.0,0.0,0.0,0.0,0.0
6.964,194,6,964000000,base_footprint,0.00012722887407199806,0.0038602506208508876,-0.035697476863428466,0.9993551783142683,0.0,0.0,0.0,0.0,0.0,0.0,0.0,0.0,0.0,0.00034974376413104193,-0.00019989158878007035,0.0487251027316424,0.0,0.0,0.0,0.0,0.0,0.0,0.0,0.0,0.0,0.007142400246520479,0.009713650636542892,-0.0002450337413086672,0.0,0.0,0.0,0.0,0.0,0.0,0.0,0.0,0.0
6.998,195,6,998000000,base_footprint,0.00012320173502700465,0.003861537638513976,-0.034871026890444676,0.9993843529053299,0.0,0.0,0.0,0.0,0.0,0.0,0.0,0.0,0.0,0.00033864926139471057,-0.00011030805841565484,0.04852563199289382,0.0,0.0,0.0,0.0,0.0,0.0,0.0,0.0,0.0,0.00702606535193354,0.00969420730527914,-0.000236667132384709,0.0,0.0,0.0,0.0,0.0,0.0,0.0,0.0,0.0
7.032,196,7,32000000,base_footprint,0.00011952292017807283,0.0038647187385997144,-0.03420462259339627,0.9994073711238008,0.0,0.0,0.0,0.0,0.0,0.0,0.0,0.0,0.0,0.00017597949014812924,2.788121355348941e-05,0.038050164741827715,0.0,0.0,0.0,0.0,0.0,0.0,0.0,0.0,0.0,0.008937442251171622,0.007330168207412832,-0.00043073219220514066,0.0,0.0,0.0,0.0,0.0,0.0,0.0,0.0,0.0
7.066,197,7,66000000,base_footprint,0.00011774217416261483,0.0038662917954482077,-0.033558728216095686,0.9994292619715771,0.0,0.0,0.0,0.0,0.0,0.0,0.0,0.0,0.0,0.0001842551914442003,-1.3759764999456236e-05,0.03795642496768572,0.0,0.0,0.0,0.0,0.0,0.0,0.0,0.0,0.0,0.006419518132929077,0.005771252098339877,-1.4279289611383857e-05,0.0,0.0,0.0,0.0,0.0,0.0,0.0,0.0,0.0
7.1,198,7,100000000,base_footprint,0.00011418965609703004,0.003869984913675058,-0.03290800046071007,0.9994508860785349,0.0,0.0,0.0,0.0,0.0,0.0,0.0,0.0,0.0,0.0002065796491500755,6.809719166861289e-05,0.03880297001664255,0.0,0.0,0.0,0.0,0.0,0.0,0.0,0.0,0.0,0.0033701009552835237,0.007689588546403971,-0.00031298784765657354,0.0,0.0,0.0,0.0,0.0,0.0,0.0,0.0,0.0
7.134,199,7,134000000,base_footprint,0.00011278590672605432,0.0038804248959877575,-0.033069492688676615,0.9994455153910489,0.0,0.0,0.0,0.0,0.0,0.0,0.0,0.0,0.0,0.00021488666011220577,0.0005591476417457086,-0.04801137499686378,0.0,0.0,0.0,0.0,0.0,0.0,0.0,0.0,0.0,-0.3961206020977152,0.050622387924973006,0.0019216988596380167,0.0,0.0,0.0,0.0,0.0,0.0,0.0,0.0,0.0
7.168,200,7,168000000,base_footprint,0.00011598107795274155,0.0038793074958014947,-0.032631933658537234,0.9994599013604536,0.0,0.0,0.0,0.0,0.0,0.0,0.0,0.0,0.0,0.0009760692542210813,-0.00043188497816481775,0.054191204816964954,0.0,0.0,0.0,0.0,0.0,0.0,0.0,0.0,0.0,0.03439442631565099,-0.0010583705584457288,0.0016154242907459584,0.0,0.0,0.0,0.0,0.0,0.0,0.0,0.0,0.0
7.202,201,7,202000000,base_footprint,0.00011632727201038997,0.0038746653714463236,-0.03172777306048309,0.9994890303814484,0.0,0.0,0.0,0.0,0.0,0.0,0.0,0.0,0.0,0.00027306601114104135,-0.0003868437015014172,0.05265094903124796,0.0,0.0,0.0,0.0,0.0,0.0,0.0,0.0,0.0,-0.015587688250389836,0.01610860409537961,0.0004953749675630256,0.0,0.0,0.0,0.0,0.0,0.0,0.0,0.0,0.0
7.236,202,7,236000000,base_footprint,0.00010640950073821344,0.0038696876957842285,-0.031070957542490105,0.9995096846912229,0.0,0.0,0.0,0.0,0.0,0.0,0.0,0.0,0.0,-0.0002374283187913563,-0.0001623221692406002,0.025594967135352316,0.0,0.0,0.0,0.0,0.0,0.0,0.0,0.0,0.0,-0.025926038213857718,0.022843437397184575,-0.0004458959096058577,0.0,0.0,0.0,0.0,0.0,0.0,0.0,0.0,0.0
7.27,203,7,270000000,base_footprint,0.00010431047717916572,0.0038672951824619377,-0.030796204957310974,0.9995181973868827,0.0,0.0,0.0,0.0,0.0,0.0,0.0,0.0,0.0,0.00017806989526849757,-0.00012314806162793966,0.01626892107026702,0.0,0.0,0.0,0.0,0.0,0.0,0.0,0.0,0.0,-0.02561616951686393,-0.0005624269427191204,0.00016962798326520964,0.0,0.0,0.0,0.0,0.0,0.0,0.0,0.0,0.0
7.304,204,7,304000000,base_footprint,0.0001093391457595545,0.003865300932169713,-0.030311464852310187,0.9995330222619772,0.0,0.0,0.0,0.0,0.0,0.0,0.0,0.0,0.0,0.0009085766713337315,-0.005970320697777786,0.033680299064114815,0.0,0.0,0.0,0.0,0.0,0.0,0.0,0.0,0.0,0.10123058034703296,-0.010121716014948379,0.009613886787353197,0.0,0.0,0.0,0.0,0.0,0.0,0.0,0.0,0.0
7.338,205,7,338000000,base_footprint,0.0001063064468479881,0.0038675172916466313,-0.030661666191595157,0.999522332534543,0.0,0.0,0.0,0.0,0.0,0.0,0.0,0.0,0.0,-0.001016390826221107,-0.0027450087096251114,-0.008520662420343276,0.0,0.0,0.0,0.0,0.0,0.0,0.0,0.0,0.0,0.2523164058916491,-0.03152595602021644,-0.006927208098110527,0.0,0.0,0.0,0.0,0.0,0.0,0.0,0.0,0.0
7.372,206,7,372000000,base_footprint,0.000107508727801942,0.0038641691143413417,-0.030084605218015748,0.999539880729031,0.0,0.0,0.0,0.0,0.0,0.0,0.0,0.0,0.0,0.00034882037631866813,-0.00019870761783703566,0.03883813030103966,0.0,0.0,0.0,0.0,0.0,0.0,0.0,0.0,0.0,0.05012187143700611,-0.001291032668183565,-0.005319068780689639,0.0,0.0,0.0,0.0,0.0,0.0,0.0,0.0,0.0
7.406,207,7,406000000,base_footprint,0.00010447943371066242,0.0038616534173546153,-0.029414376778438975,0.999559838706852,0.0,0.0,0.0,0.0,0.0,0.0,0.0,0.0,0.0,0.000684029859503375,-0.00017921089018763523,0.0454616915852057,0.0,0.0,0.0,0.0,0.0,0.0,0.0,0.0,0.0,0.004880934259230985,0.007982383677379624,-7.63062924567105e-05,0.0,0.0,0.0,0.0,0.0,0.0,0.0,0.0,0.0
7.44,208,7,440000000,base_footprint,0.00010078239940203433,0.003860865488718237,-0.02864287298160114,0.9995822474353704,0.0,0.0,0.0,0.0,0.0,0.0,0.0,0.0,0.0,0.00033583936779904485,-0.00021226335323319207,0.0451892003806292,0.0,0.0,0.0,0.0,0.0,0.0,0.0,0.0,0.0,0.006293094265945556,0.008894023017063867,-5.0468040733655454e-05,0.0,0.0,0.0,0.0,0.0,0.0,0.0,0.0,0.0
7.474,209,7,474000000,base_footprint,9.714579994641151e-05,0.003861795383863047,-0.02787696354036596,0.9996038975528636,0.0,0.0,0.0,0.0,0.0,0.0,0.0,0.0,0.0,0.0003243934435261671,-0.0001252774862106154,0.04493048835543495,0.0,0.0,0.0,0.0,0.0,0.0,0.0,0.0,0.0,0.0066909184982042735,0.00911375579920201,-0.00022723430563085096,0.0,0.0,0.0,0.0,0.0,0.0,0.0,0.0,0.0
7.508,210,7,508000000,base_footprint,9.396295868797453e-05,0.0038638387457954034,-0.027144553321709463,0.9996240469026713,0.0,0.0,0.0,0.0,0.0,0.0,0.0,0.0,0.0,0.00015783222545040908,-0.0003103791910293016,0.03424191525759702,0.0,0.0,0.0,0.0,0.0,0.0,0.0,0.0,0.0,0.00925110778662084,0.008347103703109853,4.9127016929402195e-05,0.0,0.0,0.0,0.0,0.0,0.0,0.0,0.0,0.0
7.542,211,7,542000000,base_footprint,8.977660587948634e-05,0.0038689486868229454,-0.02655660053923273,0.9996398202072682,0.0,0.0,0.0,0.0,0.0,0.0,0.0,0.0,0.0,0.00018938790814509158,0.0001188587659108162,0.03466284498700901,0.0,0.0,0.0,0.0,0.0,0.0,0.0,0.0,0.0,0.005359893555911776,0.007025819023732466,-0.0006963718006237743,0.0,0.0,0.0,0.0,0.0,0.0,0.0,0.0,0.0
7.5760000000000005,212,7,576000000,base_footprint,8.790842357483962e-05,0.003872538451440399,-0.025968075571121678,0.9996552679645038,0.0,0.0,0.0,0.0,0.0,0.0,0.0,0.0,0.0,0.00019640963597079521,9.819818053288455e-05,0.03475012163807684,0.0,0.0,0.0,0.0,0.0,0.0,0.0,0.0,0.0,0.005061968257276739,0.005493994444735468,-0.00019750706031961237,0.0,0.0,0.0,0.0,0.0,0.0,0.0,0.0,0.0
7.61,213,7,610000000,base_footprint,8.408681019353461e-05,0.003876422074187585,-0.02534445864166763,0.9996712583131877,0.0,0.0,0.0,0.0,0.0,0.0,0.0,0.0,0.0,0.0001596267914752675,0.00017151762758626428,0.04293760199158844,0.0,0.0,0.0,0.0,0.0,0.0,0.0,0.0,0.0,-0.0007128968380676161,0.007124658084768654,-0.0001678486313539414,0.0,0.0,0.0,0.0,0.0,0.0,0.0,0.0,0.0
7.644,214,7,644000000,base_footprint,8.424715331533172e-05,0.0038760354700076334,-0.024619474684922208,0.9996893771155573,0.0,0.0,0.0,0.0,0.0,0.0,0.0,0.0,0.0,0.0007731455312518694,-0.0003843282743104308,0.04109903662009763,0.0,0.0,0.0,0.0,0.0,0.0,0.0,0.0,0.0,0.0008214851238808817,0.012853539730441033,0.0011327513400623687,0.0,0.0,0.0,0.0,0.0,0.0,0.0,0.0,0.0
7.678,215,7,678000000,base_footprint,8.746896441746819e-05,0.0038739498565983676,-0.023949271774749068,0.9997056653051177,0.0,0.0,0.0,0.0,0.0,0.0,0.0,0.0,0.0,0.00042614364420507847,-0.0005671935445360837,0.04073557805896314,0.0,0.0,0.0,0.0,0.0,0.0,0.0,0.0,0.0,-0.018830353128237807,0.007204552359925125,0.0005036828287396014,0.0,0.0,0.0,0.0,0.0,0.0,0.0,0.0,0.0
7.712,216,7,712000000,base_footprint,7.568816985419422e-05,0.0038731721621238576,-0.02330905511365872,0.9997208014032777,0.0,0.0,0.0,0.0,0.0,0.0,0.0,0.0,0.0,-0.0002423942101804886,0.0008060824976966312,0.011780806558126631,0.0,0.0,0.0,0.0,0.0,0.0,0.0,0.0,0.0,-0.04940624632199643,0.015721438404446928,-0.0020784386368128617,0.0,0.0,0.0,0.0,0.0,0.0,0.0,0.0,0.0
7.746,217,7,746000000,base_footprint,7.487895080146815e-05,0.003869384442219106,-0.023118974048850313,0.9997252298987506,0.0,0.0,0.0,0.0,0.0,0.0,0.0,0.0,0.0,-6.0468258906691765e-05,-0.0001660608324060908,0.017157045698765163,0.0,0.0,0.0,0.0,0.0,0.0,0.0,0.0,0.0,-0.0034409198213988306,0.004566527584088708,0.0018537104086486834,0.0,0.0,0.0,0.0,0.0,0.0,0.0,0.0,0.0
7.78,218,7,780000000,base_footprint,7.708188499670927e-05,0.0038714480259533137,-0.022612553727492726,0.9997368045453198,0.0,0.0,0.0,0.0,0.0,0.0,0.0,0.0,0.0,0.00017171355486251107,-0.0008147341135740821,0.03371367906563339,0.0,0.0,0.0,0.0,0.0,0.0,0.0,0.0,0.0,0.03556198625243688,0.0035530858887681035,0.0007994485434708457,0.0,0.0,0.0,0.0,0.0,0.0,0.0,0.0,0.0
7.814,219,7,814000000,base_footprint,7.562481534986215e-05,0.003867259643476161,-0.022017946522865654,0.9997500930805926,0.0,0.0,0.0,0.0,0.0,0.0,0.0,0.0,0.0,0.00035690565929463784,-0.0002974830726156403,0.03678378307789891,0.0,0.0,0.0,0.0,0.0,0.0,0.0,0.0,0.0,0.004965602002005096,0.005810439362604551,-0.0007887500160150051,0.0,0.0,0.0,0.0,0.0,0.0,0.0,0.0,0.0
7.848,220,7,848000000,base_footprint,7.353305907540956e-05,0.0038641833065995055,-0.02139710332687497,0.999763585378804,0.0,0.0,0.0,0.0,0.0,0.0,0.0,0.0,0.0,0.0002859688335531816,-0.0003838343411378611,0.03639110948870283,0.0,0.0,0.0,0.0,0.0,0.0,0.0,0.0,0.0,0.005826063716441736,0.007183404159625161,0.00018235123435321536,0.0,0.0,0.0,0.0,0.0,0.0,0.0,0.0,0.0
7.882,221,7,882000000,base_footprint,7.082054120872568e-05,0.003861977368241731,-0.020780640522477148,0.9997765975930492,0.0,0.0,0.0,0.0,0.0,0.0,0.0,0.0,0.0,0.0002883070938833993,-0.0002758421598923081,0.03614389835910621,0.0,0.0,0.0,0.0,0.0,0.0,0.0,0.0,0.0,0.006302566699473044,0.007474537892659989,-0.00023997008378821724,0.0,0.0,0.0,0.0,0.0,0.0,0.0,0.0,0.0
7.916,222,7,916000000,base_footprint,6.964228732130041e-05,0.003864408696371613,-0.02038343755374686,0.9997847653214526,0.0,0.0,0.0,0.0,0.0,0.0,0.0,0.0,0.0,-0.00027461314885859797,0.0009527796393192535,-0.03942165686910864,0.0,0.0,0.0,0.0,0.0,0.0,0.0,0.0,0.0,-0.30180247995819115,0.030338602549517986,0.000964549093089306,0.0,0.0,0.0,0.0,0.0,0.0,0.0,0.0,0.0
7.95,223,7,950000000,base_footprint,7.011636227155025e-05,0.00386306081443106,-0.02084507544482789,0.9997752520814562,0.0,0.0,0.0,0.0,0.0,0.0,0.0,0.0,0.0,0.00024505078136780566,-0.0005307727301953895,0.027155279648459946,0.0,0.0,0.0,0.0,0.0,0.0,0.0,0.0,0.0,-0.024085811380382908,-0.007013553313930003,0.0019546163530953205,0.0,0.0,0.0,0.0,0.0,0.0,0.0,0.0,0.0
7.984,224,7,984000000,base_footprint,6.773906090027333e-05,0.0038648456953038444,-0.02039900196415116,0.9997844463173239,0.0,0.0,0.0,0.0,0.0,0.0,0.0,0.0,0.0,0.0001756464548161074,-2.984381243612088e-05,0.026040399789600936,0.0,0.0,0.0,0.0,0.0,0.0,0.0,0.0,0.0,0.005256223791315959,0.007649713778493701,-0.000945108643526882,0.0,0.0,0.0,0.0,0.0,0.0,0.0,0.0,0.0
8.018,225,8,18000000,base_footprint,6.472651907284333e-05,0.0038689353565803473,-0.019906891432091633,0.9997943502656911,0.0,0.0,0.0,0.0,0.0,0.0,0.0,0.0,0.0,0.0002188599610549119,5.3816777380384404e-05,0.03226360773840225,0.0,0.0,0.0,0.0,0.0,0.0,0.0,0.0,0.0,0.00330218634319219,0.0053805869497460974,-0.0002211513529682808,0.0,0.0,0.0,0.0,0.0,0.0,0.0,0.0,0.0
8.052,226,8,52000000,base_footprint,6.280505379196411e-05,0.003873023801968359,-0.0193597192243069,0.9998050795098566,0.0,0.0,0.0,0.0,0.0,0.0,0.0,0.0,0.0,0.0001848309232366693,0.00010460417654796614,0.032029006300930966,0.0,0.0,0.0,0.0,0.0,0.0,0.0,0.0,0.0,0.005061313979496111,0.005058217059939089,-0.00025634014477482177,0.0,0.0,0.0,0.0,0.0,0.0,0.0,0.0,0.0
8.086,227,8,86000000,base_footprint,5.9575705418127636e-05,0.0038764925402300227,-0.018805472611879377,0.9998156447346505,0.0,0.0,0.0,0.0,0.0,0.0,0.0,0.0,0.0,0.0002651625629982699,2.602110309186779e-05,0.03348976406343785,0.0,0.0,0.0,0.0,0.0,0.0,0.0,0.0,0.0,0.0012606904487765303,0.005772329550607085,2.5926363234060003e-05,0.0,0.0,0.0,0.0,0.0,0.0,0.0,0.0,0.0
8.12,228,8,120000000,base_footprint,6.181774060344655e-05,0.0038697461780556933,-0.018267628285230285,0.9998256422996548,0.0,0.0,0.0,0.0,0.0,0.0,0.0,0.0,0.0,0.0006052808803333637,-3.5981316425995954e-05,0.0191153195677533,0.0,0.0,0.0,0.0,0.0,0.0,0.0,0.0,0.0,0.10905760749838406,-0.0021091640070363396,-0.0009964259396617664,0.0,0.0,0.0,0.0,0.0,0.0,0.0,0.0,0.0
8.154,229,8,154000000,base_footprint,6.488703212549954e-05,0.003865109204599723,-0.018083464683949304,0.9998290078936168,0.0,0.0,0.0,0.0,0.0,0.0,0.0,0.0,0.0,-0.0003416191601400698,2.4735347155917033e-05,0.018299448628892153,0.0,0.0,0.0,0.0,0.0,0.0,0.0,0.0,0.0,0.06037523216794566,0.004922394146757662,0.00018297906044505765,0.0,0.0,0.0,0.0,0.0,0.0,0.0,0.0,0.0
8.188,230,8,188000000,base_footprint,5.4388389960343004e-05,0.0038701584263303225,-0.017901209219665273,0.9998322687451792,0.0,0.0,0.0,0.0,0.0,0.0,0.0,0.0,0.0,-0.0004599384174849239,0.0007340613341520009,-0.02002302036729053,0.0,0.0,0.0,0.0,0.0,0.0,0.0,0.0,0.0,-0.003527998061935415,0.0032566164426774086,-0.0021350285362206193,0.0,0.0,0.0,0.0,0.0,0.0,0.0,0.0,0.0
8.222,231,8,222000000,base_footprint,4.770098233900725e-05,0.0038618350627977445,-0.01837605704822234,0.999823686697772,0.0,0.0,0.0,0.0,0.0,0.0,0.0,0.0,0.0,-0.0008525004597525391,-0.0025575998065985772,-0.021891459569928957,0.0,0.0,0.0,0.0,0.0,0.0,0.0,0.0,0.0,0.028529901247678596,-0.010299790283729647,0.005348437767589943,0.0,0.0,0.0,0.0,0.0,0.0,0.0,0.0,0.0
8.256,232,8,256000000,base_footprint,5.6188786191982784e-05,0.0038662347602166605,-0.018399853051078954,0.9998232316161182,0.0,0.0,0.0,0.0,0.0,0.0,0.0,0.0,0.0,0.0015260185613235637,0.001328882112114202,0.02290853421207717,0.0,0.0,0.0,0.0,0.0,0.0,0.0,0.0,0.0,0.09409271904506378,-0.01089039998706461,-0.006814502821483577,0.0,0.0,0.0,0.0,0.0,0.0,0.0,0.0,0.0
8.29,233,8,290000000,base_footprint,5.84454625366129e-05,0.003867706990333019,-0.01792007077075388,0.9998319401231069,0.0,0.0,0.0,0.0,0.0,0.0,0.0,0.0,0.0,0.00019897246518435952,-0.0003607666133427668,0.028039333487229628,0.0,0.0,0.0,0.0,0.0,0.0,0.0,0.0,0.0,0.01626388530837785,0.007169936889643128,0.002861821886046701,0.0,0.0,0.0,0.0,0.0,0.0,0.0,0.0,0.0
8.324,234,8,324000000,base_footprint,5.696958606427241e-05,0.003865199494531982,-0.01741828179470692,0.9998408175538014,0.0,0.0,0.0,0.0,0.0,0.0,0.0,0.0,0.0,0.00016901013799564427,-0.0002592937567076743,0.03031183229861003,0.0,0.0,0.0,0.0,0.0,0.0,0.0,0.0,0.0,0.004539695280041857,0.005984312471026448,-8.011651806043554e-05,0.0,0.0,0.0,0.0,0.0,0.0,0.0,0.0,0.0
8.358,235,8,358000000,base_footprint,5.4660282467056854e-05,0.0038628119601060527,-0.016903891008921805,0.9998496557806944,0.0,0.0,0.0,0.0,0.0,0.0,0.0,0.0,0.0,0.00025428630499730286,-0.00031167423792235056,0.030218187806340183,0.0,0.0,0.0,0.0,0.0,0.0,0.0,0.0,0.0,0.005909875949284047,0.006126069775560428,0.00015849122770870643,0.0,0.0,0.0,0.0,0.0,0.0,0.0,0.0,0.0
8.392,236,8,392000000,base_footprint,5.274362586634952e-05,0.0038617006553108035,-0.01639196677537714,0.9998581838997936,0.0,0.0,0.0,0.0,0.0,0.0,0.0,0.0,0.0,0.0002522507077407682,-0.00020680276375844762,0.03001080810469406,0.0,0.0,0.0,0.0,0.0,0.0,0.0,0.0,0.0,0.006070094434105558,0.006193342990805803,-0.0002388718415248899,0.0,0.0,0.0,0.0,0.0,0.0,0.0,0.0,0.0
8.426,237,8,426000000,base_footprint,5.020674229787315e-05,0.00386238393588798,-0.0157966483632714,0.9998677639418634,0.0,0.0,0.0,0.0,0.0,0.0,0.0,0.0,0.0,0.0002957678821444304,-0.0001339558480141783,0.03699815095365533,0.0,0.0,0.0,0.0,0.0,0.0,0.0,0.0,0.0,0.00420164647315991,0.0073000684996154825,-0.0001941539637757285,0.0,0.0,0.0,0.0,0.0,0.0,0.0,0.0,0.0
8.46,238,8,460000000,base_footprint,4.733811476371817e-05,0.003864705460521586,-0.015169973531307758,0.9998774593488273,0.0,0.0,0.0,0.0,0.0,0.0,0.0,0.0,0.0,0.0002786892309130073,-3.171215197788256e-05,0.03675391204032799,0.0,0.0,0.0,0.0,0.0,0.0,0.0,0.0,0.0,0.005964658235294671,0.007593054649997388,-0.00026056468427082573,0.0,0.0,0.0,0.0,0.0,0.0,0.0,0.0,0.0
8.494,239,8,494000000,base_footprint,4.415777068228754e-05,0.003868940090621554,-0.014546932893152318,0.9998867016297741,0.0,0.0,0.0,0.0,0.0,0.0,0.0,0.0,0.0,0.00022805988178643377,0.00011937978229443954,0.0365990277455974,0.0,0.0,0.0,0.0,0.0,0.0,0.0,0.0,0.0,0.005421420823387776,0.007560167334839404,-0.0003901321650901957,0.0,0.0,0.0,0.0,0.0,0.0,0.0,0.0,0.0
8.528,240,8,528000000,base_footprint,4.250702397438197e-05,0.0038729892709985633,-0.014052398335548362,0.9998937584805092,0.0,0.0,0.0,0.0,0.0,0.0,0.0,0.0,0.0,0.00013626099904352773,6.0393938593019125e-05,0.02680304461411442,0.0,0.0,0.0,0.0,0.0,0.0,0.0,0.0,0.0,0.0073302081140649514,0.0043570281271420215,-0.0001897266812593841,0.0,0.0,0.0,0.0,0.0,0.0,0.0,0.0,0.0
8.562,241,8,562000000,base_footprint,3.9704228790449136e-05,0.0038769759165127493,-0.013587837822999804,0.9999001640887019,0.0,0.0,0.0,0.0,0.0,0.0,0.0,0.0,0.0,0.00024755059216766037,2.2553926373965482e-05,0.027749299555044283,0.0,0.0,0.0,0.0,0.0,0.0,0.0,0.0,0.0,0.0006938823655394992,0.005198548350826238,0.00010643630488982391,0.0,0.0,0.0,0.0,0.0,0.0,0.0,0.0,0.0
8.596,242,8,596000000,base_footprint,3.84739974116721e-05,0.0038782817539314562,-0.01311250364229705,0.9999065054786971,0.0,0.0,0.0,0.0,0.0,0.0,0.0,0.0,0.0,0.00024665938209257924,-0.00018569409313698557,0.02805914919674549,0.0,0.0,0.0,0.0,0.0,0.0,0.0,0.0,0.0,-0.0056495186478601805,0.0050947630513395546,0.0004387483979923112,0.0,0.0,0.0,0.0,0.0,0.0,0.0,0.0,0.0
8.63,243,8,630000000,base_footprint,3.311709210635252e-05,0.003874296625477112,-0.013066268263275706,0.9999071263685384,0.0,0.0,0.0,0.0,0.0,0.0,0.0,0.0,0.0,0.0003548856496567353,0.001115914873777764,-0.027218964234209417,0.0,0.0,0.0,0.0,0.0,0.0,0.0,0.0,0.0,-0.12491814551765311,0.023273357423115124,-0.0015324168568538385,0.0,0.0,0.0,0.0,0.0,0.0,0.0,0.0,0.0
8.664,244,8,664000000,base_footprint,4.649319110404542e-05,0.003874697331913933,-0.013654261748336496,0.9998992677740479,0.0,0.0,0.0,0.0,0.0,0.0,0.0,0.0,0.0,-0.0014077644928805388,-0.001481731033254443,-0.027828164254434615,0.0,0.0,0.0,0.0,0.0,0.0,0.0,0.0,0.0,-0.1379101101959065,-0.011431032362649331,0.006843793955823935,0.0,0.0,0.0,0.0,0.0,0.0,0.0,0.0,0.0
8.698,245,8,698000000,base_footprint,4.3167598178201784e-05,0.0038746818705229272,-0.014371262090045148,0.9998892197653199,0.0,0.0,0.0,0.0,0.0,0.0,0.0,0.0,0.0,-0.0001531539075234605,-1.511175205347977e-05,-0.052563635752754315,0.0,0.0,0.0,0.0,0.0,0.0,0.0,0.0,0.0,-0.11518667235879444,-0.0034178705976972597,-0.0021147971533878682,0.0,0.0,0.0,0.0,0.0,0.0,0.0,0.0,0.0
8.732,246,8,732000000,base_footprint,4.871073404378577e-05,0.003871662505145408,-0.015098269814627708,0.99987851767368,0.0,0.0,0.0,0.0,0.0,0.0,0.0,0.0,0.0,-0.00036760134476875327,-8.740510636924927e-05,-0.042277625299302325,0.0,0.0,0.0,0.0,0.0,0.0,0.0,0.0,0.0,0.015994795396108687,-0.009688666063537372,-0.00044444208094210667,0.0,0.0,0.0,0.0,0.0,0.0,0.0,0.0,0.0
8.766,247,8,766000000,base_footprint,5.1442820906372636e-05,0.003870007274976672,-0.01581692231454932,0.9998674138933739,0.0,0.0,0.0,0.0,0.0,0.0,0.0,0.0,0.0,-0.0001441172478865477,-0.00039000025619757,-0.041689680661104,0.0,0.0,0.0,0.0,0.0,0.0,0.0,0.0,0.0,0.007009069626543981,-0.007947994756574903,0.0006185606917595867,0.0,0.0,0.0,0.0,0.0,0.0,0.0,0.0,0.0
8.8,248,8,800000000,base_footprint,5.4883593128600504e-05,0.003865980327138877,-0.016529284293982358,0.9998559065908599,0.0,0.0,0.0,0.0,0.0,0.0,0.0,0.0,0.0,-0.0002974018968837694,-0.0003715812441569854,-0.04209602661262941,0.0,0.0,0.0,0.0,0.0,0.0,0.0,0.0,0.0,0.00416466192763882,-0.008852292430825059,4.380354491469642e-05,0.0,0.0,0.0,0.0,0.0,0.0,0.0,0.0,0.0
8.834,249,8,834000000,base_footprint,5.7399127854937646e-05,0.0038605369194895556,-0.017843080693695074,0.9998333448287229,0.0,0.0,0.0,0.0,0.0,0.0,0.0,0.0,0.0,-0.000438097888939,0.0008480633480121175,-0.0833628151780534,0.0,0.0,0.0,0.0,0.0,0.0,0.0,0.0,0.0,0.59926307603854,-0.056928703353958124,-0.006106549340272439,0.0,0.0,0.0,0.0,0.0,0.0,0.0,0.0,0.0
8.868,250,8,868000000,base_footprint,6.347113151988258e-05,0.0038621711032502375,-0.018844144151500288,0.9998149718007739,0.0,0.0,0.0,0.0,0.0,0.0,0.0,0.0,0.0,-0.0003463283575225928,0.00024409924427395798,-0.05165136871670161,0.0,0.0,0.0,0.0,0.0,0.0,0.0,0.0,0.0,-0.24789736310404537,0.0032441344917427907,0.0025628233098725964,0.0,0.0,0.0,0.0,0.0,0.0,0.0,0.0,0.0
8.902,251,8,902000000,base_footprint,6.644383108111402e-05,0.00386247577204545,-0.01972462306332599,0.9997979876510743,0.0,0.0,0.0,0.0,0.0,0.0,0.0,0.0,0.0,-0.0003478607055752849,-0.00016202050503640674,-0.04890562201515008,0.0,0.0,0.0,0.0,0.0,0.0,0.0,0.0,0.0,0.004827629018644019,-0.011650831783936486,0.0005241585768918802,0.0,0.0,0.0,0.0,0.0,0.0,0.0,0.0,0.0
8.936,252,8,936000000,base_footprint,6.856928256268176e-05,0.0038645709844576624,-0.02047588353411681,0.999782875719952,0.0,0.0,0.0,0.0,0.0,0.0,0.0,0.0,0.0,-0.00037116335684715,-1.3438570095111827e-05,-0.04432246044981942,0.0,0.0,0.0,0.0,0.0,0.0,0.0,0.0,0.0,0.002526223305313668,-0.010526560062890683,-0.0004849878513707182,0.0,0.0,0.0,0.0,0.0,0.0,0.0,0.0,0.0
8.97,253,8,970000000,base_footprint,7.028216800853338e-05,0.003868562713460603,-0.021231584505108057,0.999767097429372,0.0,0.0,0.0,0.0,0.0,0.0,0.0,0.0,0.0,-0.00040567902670724394,0.0001101554586225226,-0.044569237275878186,0.0,0.0,0.0,0.0,0.0,0.0,0.0,0.0,0.0,0.004151040323868628,-0.010402693650673901,-0.0003133778325130015,0.0,0.0,0.0,0.0,0.0,0.0,0.0,0.0,0.0
9.004,254,9,4000000,base_footprint,7.334663383778328e-05,0.003873180212640533,-0.02198287370153291,0.9997508421397475,0.0,0.0,0.0,0.0,0.0,0.0,0.0,0.0,0.0,-0.0004840948798041444,2.5492680301024545e-05,-0.03981940824119657,0.0,0.0,0.0,0.0,0.0,0.0,0.0,0.0,0.0,0.0026202504682286782,-0.010717301795056648,0.00022915226490649655,0.0,0.0,0.0,0.0,0.0,0.0,0.0,0.0,0.0
9.038,255,9,38000000,base_footprint,7.578867453797162e-05,0.003876366492326649,-0.02262006101127083,0.9997366157537396,0.0,0.0,0.0,0.0,0.0,0.0,0.0,0.0,0.0,-0.00026564343309278763,3.736978672657606e-05,-0.0368893598663193,0.0,0.0,0.0,0.0,0.0,0.0,0.0,0.0,0.0,-0.0045119532727816245,-0.00841230551759008,-0.0003120064966769602,0.0,0.0,0.0,0.0,0.0,0.0,0.0,0.0,0.0
9.072,256,9,72000000,base_footprint,7.873542108009344e-05,0.0038777581292715555,-0.023240033470194085,0.9997223902848875,0.0,0.0,0.0,0.0,0.0,0.0,0.0,0.0,0.0,-0.00016131877724825605,-0.0001548709444366432,-0.03615160576256747,0.0,0.0,0.0,0.0,0.0,0.0,0.0,0.0,0.0,-0.007395505954650369,-0.008041876523168387,0.0005016187972157408,0.0,0.0,0.0,0.0,0.0,0.0,0.0,0.0,0.0
9.106,257,9,106000000,base_footprint,8.594155816211495e-05,0.0038763364114534466,-0.02387679585747172,0.9997073898144669,0.0,0.0,0.0,0.0,0.0,0.0,0.0,0.0,0.0,-0.0004407258166396913,-0.00018315807641901575,-0.03730992517217174,0.0,0.0,0.0,0.0,0.0,0.0,0.0,0.0,0.0,-0.011339702876400671,-0.007361289640463718,0.00032332632690269835,0.0,0.0,0.0,0.0,0.0,0.0,0.0,0.0,0.0
9.14,258,9,140000000,base_footprint,7.955762953639157e-05,0.003870008942575139,-0.024421136452273597,0.9996942656611307,0.0,0.0,0.0,0.0,0.0,0.0,0.0,0.0,0.0,-0.0007054741958082296,0.0010533805243558769,-0.04239997106391658,0.0,0.0,0.0,0.0,0.0,0.0,0.0,0.0,0.0,-0.05532769246238538,0.004837035455952866,-0.0021581947531342286,0.0,0.0,0.0,0.0,0.0,0.0,0.0,0.0,0.0
9.174,259,9,174000000,base_footprint,8.245769624597118e-05,0.0038674116698058565,-0.02530254980483768,0.9996723549749079,0.0,0.0,0.0,0.0,0.0,0.0,0.0,0.0,0.0,-0.0005815070720494223,-0.0008253534061133522,-0.04964494899209997,0.0,0.0,0.0,0.0,0.0,0.0,0.0,0.0,0.0,-0.01996392840724865,-0.013591830726294597,0.004085148934837239,0.0,0.0,0.0,0.0,0.0,0.0,0.0,0.0,0.0
9.208,260,9,208000000,base_footprint,9.168411555700271e-05,0.0038701525816184556,-0.025917397240776904,0.9996565920521316,0.0,0.0,0.0,0.0,0.0,0.0,0.0,0.0,0.0,-7.21731006074784e-05,-0.0005141939357722861,-0.022618335869811507,0.0,0.0,0.0,0.0,0.0,0.0,0.0,0.0,0.0,0.05318481953274552,-0.014436486401333283,-0.0014352675536382408,0.0,0.0,0.0,0.0,0.0,0.0,0.0,0.0,0.0
9.242,261,9,242000000,base_footprint,9.127252504741019e-05,0.0038655417157480456,-0.026340192488281462,0.999645558943894,0.0,0.0,0.0,0.0,0.0,0.0,0.0,0.0,0.0,-0.00020044145187598386,-0.00017406127418290765,-0.025158365695086067,0.0,0.0,0.0,0.0,0.0,0.0,0.0,0.0,0.0,-0.00022664236103753634,-0.004274781936260303,-0.000512159247246033,0.0,0.0,0.0,0.0,0.0,0.0,0.0,0.0,0.0
9.276,262,9,276000000,base_footprint,9.32842501770121e-05,0.0038642454645313675,-0.026763918891156018,0.9996343089103266,0.0,0.0,0.0,0.0,0.0,0.0,0.0,0.0,0.0,-0.00024141235232674367,-0.0002317835336320391,-0.024785763784391828,0.0,0.0,0.0,0.0,0.0,0.0,0.0,0.0,0.0,0.004922010122586368,-0.006190866737400257,0.00012038807433304498,0.0,0.0,0.0,0.0,0.0,0.0,0.0,0.0,0.0
9.31,263,9,310000000,base_footprint,9.444959814232646e-05,0.0038628561627837197,-0.027034710163579667,0.9996270273796675,0.0,0.0,0.0,0.0,0.0,0.0,0.0,0.0,0.0,-8.874703637160212e-05,0.00046309298759313446,0.01576782664082668,0.0,0.0,0.0,0.0,0.0,0.0,0.0,0.0,0.0,-0.006547284236577484,-0.004786413950049893,-0.0004187738700311503,0.0,0.0,0.0,0.0,0.0,0.0,0.0,0.0,0.0
9.344,264,9,344000000,base_footprint,9.227479532996517e-05,0.0038615148282623696,-0.026789112397519858,0.9996336447146756,0.0,0.0,0.0,0.0,0.0,0.0,0.0,0.0,0.0,4.622820047928144e-06,-0.00015417121094775217,0.014214121330003682,0.0,0.0,0.0,0.0,0.0,0.0,0.0,0.0,0.0,0.006973741511914217,0.0037445485680276417,0.00028789132327398416,0.0,0.0,0.0,0.0,0.0,0.0,0.0,0.0,0.0
9.378,265,9,378000000,base_footprint,9.103140662264603e-05,0.003862060720679252,-0.02654756904069408,0.9996400866203309,0.0,0.0,0.0,0.0,0.0,0.0,0.0,0.0,0.0,2.2036885481696705e-05,-0.00011868252025053837,0.014160004414295685,0.0,0.0,0.0,0.0,0.0,0.0,0.0,0.0,0.0,0.005482683283655078,0.0021808643904994885,-0.00012715428893668757,0.0,0.0,0.0,0.0,0.0,0.0,0.0,0.0,0.0
9.411,266,9,412000000,base_footprint,9.044194098629493e-05,0.0038628075505214273,-0.02635053595890366,0.999645296989268,0.0,0.0,0.0,0.0,0.0,0.0,0.0,0.0,0.0,-0.002225990948767128,8.490376004562963e-05,-0.0035006693546196775,0.0,0.0,0.0,0.0,0.0,0.0,0.0,0.0,0.0,-0.26810706842332166,0.029630523387967282,-0.00111055450262819,0.0,0.0,0.0,0.0,0.0,0.0,0.0,0.0,0.0
9.446,267,9,446000000,base_footprint,8.983176917312622e-05,0.0038676727680054465,-0.026549388894405317,0.999640016699485,0.0,0.0,0.0,0.0,0.0,0.0,0.0,0.0,0.0,-0.00021356791566995672,9.160006429468481e-05,-0.012207646042511592,0.0,0.0,0.0,0.0,0.0,0.0,0.0,0.0,0.0,-0.053695630283728965,0.00479338117119924,0.0031484507231271815,0.0,0.0,0.0,0.0,0.0,0.0,0.0,0.0,0.0
9.48,268,9,480000000,base_footprint,8.977935143029063e-05,0.0038729497646939276,-0.02675526254010466,0.9996345072706316,0.0,0.0,0.0,0.0,0.0,0.0,0.0,0.0,0.0,-0.00014691497890008604,0.0002072882417191477,-0.011926754695390078,0.0,0.0,0.0,0.0,0.0,0.0,0.0,0.0,0.0,0.002747044797490632,-0.003110634132634921,-0.0003144991462427357,0.0,0.0,0.0,0.0,0.0,0.0,0.0,0.0,0.0
9.514,269,9,514000000,base_footprint,9.168428458351772e-05,0.0038748946757519733,-0.027006416741706386,0.9996277458334263,0.0,0.0,0.0,0.0,0.0,0.0,0.0,0.0,0.0,-0.0002210530167050156,-0.00011286261945798837,-0.021990780597210265,0.0,0.0,0.0,0.0,0.0,0.0,0.0,0.0,0.0,0.002941963405531427,-0.003171722631640078,0.000542426060963431,0.0,0.0,0.0,0.0,0.0,0.0,0.0,0.0,0.0
9.551,270,9,548000000,base_footprint,9.389368757958945e-05,0.003876673987841951,-0.02734768368289941,0.9996184606038183,0.0,0.0,0.0,0.0,0.0,0.0,0.0,0.0,0.0,0.00012417726920451466,-0.00036698763474775115,-0.01978373163047151,0.0,0.0,0.0,0.0,0.0,0.0,0.0,0.0,0.0,-0.008549863619053086,-0.0029045868221787927,0.0005479471060899514,0.0,0.0,0.0,0.0,0.0,0.0,0.0,0.0,0.0
9.582,271,9,582000000,base_footprint,0.00010115428204829154,0.003875460071533524,-0.027716590760927966,0.9996083038738905,0.0,0.0,0.0,0.0,0.0,0.0,0.0,0.0,0.0,-9.598756890869686e-05,-9.064349186970068e-05,-0.02221468164441089,0.0,0.0,0.0,0.0,0.0,0.0,0.0,0.0,0.0,-0.008464131839286543,-0.00435454824519375,-0.0004120243260303536,0.0,0.0,0.0,0.0,0.0,0.0,0.0,0.0,0.0
9.616,272,9,616000000,base_footprint,0.0001035106067350212,0.003855629851931945,-0.02815743709158686,0.999596059486247,0.0,0.0,0.0,0.0,0.0,0.0,0.0,0.0,0.0,-0.0008129522804414609,0.0005945029739038344,-0.051176712692786355,0.0,0.0,0.0,0.0,0.0,0.0,0.0,0.0,0.0,0.0006109708481322458,0.012519547960795463,-0.0006198633842745418,0.0,0.0,0.0,0.0,0.0,0.0,0.0,0.0,0.0
9.65,273,9,650000000,base_footprint,9.223471506312384e-05,0.0038629157301153403,-0.029810403366429775,0.9995481025073031,0.0,0.0,0.0,0.0,0.0,0.0,0.0,0.0,0.0,-0.0006095770749301686,-0.00019812746579981399,-0.11880942086649235,0.0,0.0,0.0,0.0,0.0,0.0,0.0,0.0,0.0,0.0915458005082059,-0.04796976351790464,-1.1094868719620364e-05,0.0,0.0,0.0,0.0,0.0,0.0,0.0,0.0,0.0
9.684,274,9,684000000,base_footprint,0.00010367587232588821,0.0038593694378378355,-0.031517741728138635,0.999495736096565,0.0,0.0,0.0,0.0,0.0,0.0,0.0,0.0,0.0,-0.0005009941503776167,-0.00026707715589498687,-0.07758006762039235,0.0,0.0,0.0,0.0,0.0,0.0,0.0,0.0,0.0,0.07893501754286429,-0.030004385664822445,-0.0001864328250179512,0.0,0.0,0.0,0.0,0.0,0.0,0.0,0.0,0.0
9.718,275,9,718000000,base_footprint,0.0001073064741770646,0.0038562497101086233,-0.031791315689515355,0.9994870834934404,0.0,0.0,0.0,0.0,0.0,0.0,0.0,0.0,0.0,9.196978487285634e-05,0.0009570739082300614,0.06033420414142431,0.0,0.0,0.0,0.0,0.0,0.0,0.0,0.0,0.0,0.07001798016308852,-0.015013810805774106,-0.001585805786148248,0.0,0.0,0.0,0.0,0.0,0.0,0.0,0.0,0.0
9.752,276,9,752000000,base_footprint,0.00010683217559873566,0.0038621063104903536,-0.030468490717145445,0.9995282606285587,0.0,0.0,0.0,0.0,0.0,0.0,0.0,0.0,0.0,0.0006078703538313748,-0.00025566932991791843,0.07972060103363189,0.0,0.0,0.0,0.0,0.0,0.0,0.0,0.0,0.0,0.05264066974811518,0.010224880561963842,0.00037490326138761516,0.0,0.0,0.0,0.0,0.0,0.0,0.0,0.0,0.0
9.786,277,9,786000000,base_footprint,0.00010145246011474745,0.0038610333749503215,-0.029114307541941244,0.9995686265709971,0.0,0.0,0.0,0.0,0.0,0.0,0.0,0.0,0.0,0.0004977820265848867,-0.00023561391356178728,0.079731015978914,0.0,0.0,0.0,0.0,0.0,0.0,0.0,0.0,0.0,0.006985091695520098,0.016566601105166338,5.7579495212641577e-05,0.0,0.0,0.0,0.0,0.0,0.0,0.0,0.0,0.0
9.82,278,9,820000000,base_footprint,9.596984187185393e-05,0.0038605687523780245,-0.02784513786308117,0.9996047894523533,0.0,0.0,0.0,0.0,0.0,0.0,0.0,0.0,0.0,0.00042227164370787915,-0.00021949668312962292,0.07024467778084731,0.0,0.0,0.0,0.0,0.0,0.0,0.0,0.0,0.0,0.009943641471449532,0.015387795160221812,-0.00014941413107496813,0.0,0.0,0.0,0.0,0.0,0.0,0.0,0.0,0.0
9.854,279,9,854000000,base_footprint,9.095508639262209e-05,0.003861402704228208,-0.02665101602690506,0.9996373365581449,0.0,0.0,0.0,0.0,0.0,0.0,0.0,0.0,0.0,0.0004455454339544726,-9.665627263095582e-05,0.0702788447183717,0.0,0.0,0.0,0.0,0.0,0.0,0.0,0.0,0.0,0.006934711467938472,0.01467725676534248,-0.0002391397641728709,0.0,0.0,0.0,0.0,0.0,0.0,0.0,0.0,0.0
9.888,280,9,888000000,base_footprint,8.599526572322208e-05,0.003863653144291025,-0.02545767337694447,0.9996684308586662,0.0,0.0,0.0,0.0,0.0,0.0,0.0,0.0,0.0,0.00044855289083770423,-1.430763574060242e-05,0.07021317540641914,0.0,0.0,0.0,0.0,0.0,0.0,0.0,0.0,0.0,0.006941118558506034,0.014637420197512862,-0.000222875716448815,0.0,0.0,0.0,0.0,0.0,0.0,0.0,0.0,0.0
9.922,281,9,922000000,base_footprint,8.0682551713987e-05,0.0038675505312115383,-0.02419858483872474,0.9996996869235368,0.0,0.0,0.0,0.0,0.0,0.0,0.0,0.0,0.0,0.0005063647140304594,9.256687266437045e-05,0.07683242650985907,0.0,0.0,0.0,0.0,0.0,0.0,0.0,0.0,0.0,0.004771504511071001,0.01563331981518855,-0.0002600249760879628,0.0,0.0,0.0,0.0,0.0,0.0,0.0,0.0,0.0
9.956,282,9,956000000,base_footprint,7.518182667358532e-05,0.003872515269438061,-0.022892276517135768,0.9997304344917403,0.0,0.0,0.0,0.0,0.0,0.0,0.0,0.0,0.0,0.0005757474350621652,8.119961195897885e-05,0.07706320249995637,0.0,0.0,0.0,0.0,0.0,0.0,0.0,0.0,0.0,0.005281566514278476,0.015552119319973124,-0.00013877347177163648,0.0,0.0,0.0,0.0,0.0,0.0,0.0,0.0,0.0
9.99,283,9,990000000,base_footprint,7.037026159246193e-05,0.003875940891326728,-0.02157828004189344,0.9997596460953337,0.0,0.0,0.0,0.0,0.0,0.0,0.0,0.0,0.0,0.0006452675111463668,4.298215055938906e-06,0.07729660552023694,0.0,0.0,0.0,0.0,0.0,0.0,0.0,0.0,0.0,0.0023567082198485373,0.01603893609352179,0.00010452407305213492,0.0,0.0,0.0,0.0,0.0,0.0,0.0,0.0,0.0
10.024,284,10,24000000,base_footprint,6.631017656969969e-05,0.0038772737081975337,-0.02036389662122619,0.9997851139449678,0.0,0.0,0.0,0.0,0.0,0.0,0.0,0.0,0.0,0.0004957111825525514,-5.313886740684281e-05,0.06685781802875705,0.0,0.0,0.0,0.0,0.0,0.0,0.0,0.0,0.0,0.005245787015081171,0.015584104391611099,0.0001508669727820767,0.0,0.0,0.0,0.0,0.0,0.0,0.0,0.0,0.0
10.058,285,10,58000000,base_footprint,6.756036592983088e-05,0.0038752350977410218,-0.019269526033984668,0.9998068130168747,0.0,0.0,0.0,0.0,0.0,0.0,0.0,0.0,0.0,0.0006593396103322259,-0.0003714933860630047,0.06100023119318956,0.0,0.0,0.0,0.0,0.0,0.0,0.0,0.0,0.0,-0.007654356237781828,0.014977624160116672,0.0007036142665188309,0.0,0.0,0.0,0.0,0.0,0.0,0.0,0.0,0.0
10.092,286,10,92000000,base_footprint,5.9793352480282715e-05,0.003870950678040037,-0.018267375597948533,0.999825642376893,0.0,0.0,0.0,0.0,0.0,0.0,0.0,0.0,0.0,0.0005117312013059417,0.0007654309916300989,0.051016989369921446,0.0,0.0,0.0,0.0,0.0,0.0,0.0,0.0,0.0,-0.0888603629579275,0.022513245175801944,-0.0017497103601697658,0.0,0.0,0.0,0.0,0.0,0.0,0.0,0.0,0.0
10.126,287,10,126000000,base_footprint,5.6499279055495856e-05,0.0038732811778295355,-0.01761088531120735,0.9998374123922872,0.0,0.0,0.0,0.0,0.0,0.0,0.0,0.0,0.0,-0.0008000149854269636,0.000578282235834808,0.0044335999265212945,0.0,0.0,0.0,0.0,0.0,0.0,0.0,0.0,0.0,-0.1837875936327412,0.01884926455857478,0.0020441166142612785,0.0,0.0,0.0,0.0,0.0,0.0,0.0,0.0,0.0
10.16,288,10,160000000,base_footprint,5.7892404134555154e-05,0.0038735964105612434,-0.017138427437673544,0.9998456211857314,0.0,0.0,0.0,0.0,0.0,0.0,0.0,0.0,0.0,0.0001830642485827474,4.0740804934171135e-05,0.05875594854319933,0.0,0.0,0.0,0.0,0.0,0.0,0.0,0.0,0.0,-0.09049571723117038,0.012118179789822929,0.001859454941840233,0.0,0.0,0.0,0.0,0.0,0.0,0.0,0.0,0.0
10.194,289,10,194000000,base_footprint,5.305014549773495e-05,0.0038692531501637968,-0.016150618077967593,0.9998620822900736,0.0,0.0,0.0,0.0,0.0,0.0,0.0,0.0,0.0,0.0006141005627541659,-0.0003155598749668292,0.05805200127732097,0.0,0.0,0.0,0.0,0.0,0.0,0.0,0.0,0.0,-0.0007651853961886732,0.014003568331755872,0.0007344229193795347,0.0,0.0,0.0,0.0,0.0,0.0,0.0,0.0,0.0
10.228,290,10,228000000,base_footprint,4.9415648593951794e-05,0.0038653606483779906,-0.01506005730394745,0.9998791183033845,0.0,0.0,0.0,0.0,0.0,0.0,0.0,0.0,0.0,0.0005394499644807956,-0.0004002344736609301,0.06592527445250869,0.0,0.0,0.0,0.0,0.0,0.0,0.0,0.0,0.0,0.0036132548591287002,0.012714007343683855,0.00020027545340076117,0.0,0.0,0.0,0.0,0.0,0.0,0.0,0.0,0.0
10.262,291,10,262000000,base_footprint,4.511396473112384e-05,0.0038626964924139313,-0.013941960064133471,0.9998953441686323,0.0,0.0,0.0,0.0,0.0,0.0,0.0,0.0,0.0,0.0005381523421890893,-0.000302078609151844,0.0656502422078159,0.0,0.0,0.0,0.0,0.0,0.0,0.0,0.0,0.0,0.006062192532136669,0.013317948994057603,-0.0002170958694090996,0.0,0.0,0.0,0.0,0.0,0.0,0.0,0.0,0.0
10.296,292,10,296000000,base_footprint,4.0780348048586357e-05,0.003861684719523214,-0.01282866073498182,0.999910251568528,0.0,0.0,0.0,0.0,0.0,0.0,0.0,0.0,0.0,0.0005317994671001457,-0.00022632943214537558,0.06535603523393385,0.0,0.0,0.0,0.0,0.0,0.0,0.0,0.0,0.0,0.0060861800483029745,0.013265774372169834,-0.00018870544106846143,0.0,0.0,0.0,0.0,0.0,0.0,0.0,0.0,0.0
10.33,293,10,330000000,base_footprint,3.96634702192842e-05,0.0038627030182378764,-0.01257579099794327,0.999913459971901,0.0,0.0,0.0,0.0,0.0,0.0,0.0,0.0,0.0,-0.00031990020550985823,-0.00011932434625855863,-0.03401975634294231,0.0,0.0,0.0,0.0,0.0,0.0,0.0,0.0,0.0,0.3887643644084091,-0.014535313644633398,-0.003340743761768353,0.0,0.0,0.0,0.0,0.0,0.0,0.0,0.0,0.0
10.364,294,10,364000000,base_footprint,3.664705069073377e-05,0.003863930558285592,-0.01192249455570213,0.9999214583262046,0.0,0.0,0.0,0.0,0.0,0.0,0.0,0.0,0.0,0.00042975436218454534,-6.094054674861345e-05,0.05597348759240656,0.0,0.0,0.0,0.0,0.0,0.0,0.0,0.0,0.0,-0.03453673092777216,0.008410539136769167,0.00023012808358992542,0.0,0.0,0.0,0.0,0.0,0.0,0.0,0.0,0.0
10.398,295,10,398000000,base_footprint,3.226948826810672e-05,0.0038677416391877753,-0.010974133758617504,0.9999323016692383,0.0,0.0,0.0,0.0,0.0,0.0,0.0,0.0,0.0,0.0004100308011058578,6.0496157598267686e-05,0.0556601417945813,0.0,0.0,0.0,0.0,0.0,0.0,0.0,0.0,0.0,0.005739384522654695,0.011525460682600457,-0.00028769305917225406,0.0,0.0,0.0,0.0,0.0,0.0,0.0,0.0,0.0
10.432,296,10,432000000,base_footprint,2.824989324987544e-05,0.0038731626845691543,-0.010044970228592784,0.9999420465136313,0.0,0.0,0.0,0.0,0.0,0.0,0.0,0.0,0.0,0.00037613888909611307,0.00013196512048907862,0.054608481189264334,0.0,0.0,0.0,0.0,0.0,0.0,0.0,0.0,0.0,0.0045263869880566125,0.01112235174885352,-0.00031046023057290347,0.0,0.0,0.0,0.0,0.0,0.0,0.0,0.0,0.0
10.466,297,10,466000000,base_footprint,2.4084647077195606e-05,0.003876703664196163,-0.009124352764961392,0.9999508571801169,0.0,0.0,0.0,0.0,0.0,0.0,0.0,0.0,0.0,0.00036919156657516845,4.7348865698377934e-05,0.05355374568409385,0.0,0.0,0.0,0.0,0.0,0.0,0.0,0.0,0.0,0.004207914344756061,0.010060679104508136,1.3037405333720397e-05,0.0,0.0,0.0,0.0,0.0,0.0,0.0,0.0,0.0
10.5,298,10,500000000,base_footprint,1.9591993776753e-05,0.003878845120795469,-0.00820605546611995,0.9999588065667353,0.0,0.0,0.0,0.0,0.0,0.0,0.0,0.0,0.0,0.0004066106328956869,-6.671112655168523e-05,0.05449681162363861,0.0,0.0,0.0,0.0,0.0,0.0,0.0,0.0,0.0,-0.0021757239598164347,0.010717530092281762,0.00022839256020126854,0.0,0.0,0.0,0.0,0.0,0.0,0.0,0.0,0.0
10.533,299,10,534000000,base_footprint,1.8389344590639338e-05,0.0038744297644575875,-0.007471910896876604,0.9999645788743627,0.0,0.0,0.0,0.0,0.0,0.0,0.0,0.0,0.0,0.00047765983389208805,-0.00036482158189838666,0.03758462029507315,0.0,0.0,0.0,0.0,0.0,0.0,0.0,0.0,0.0,-0.001061972606943852,0.01471251066480075,0.0006967930733120251,0.0,0.0,0.0,0.0,0.0,0.0,0.0,0.0,0.0
10.568,300,10,568000000,base_footprint,1.7418344976064708e-05,0.003871380885350368,-0.007016886292797929,0.9999678871910817,0.0,0.0,0.0,0.0,0.0,0.0,0.0,0.0,0.0,0.0007554409699761738,0.00033866340205238613,0.019949052613141248,0.0,0.0,0.0,0.0,0.0,0.0,0.0,0.0,0.0,-0.07378288540781995,0.010314610537471638,-0.0008784157500177748,0.0,0.0,0.0,0.0,0.0,0.0,0.0,0.0,0.0
10.602,301,10,602000000,base_footprint,1.1329089034340255e-05,0.0038730096685644106,-0.006528161277010979,0.9999711909740703,0.0,0.0,0.0,0.0,0.0,0.0,0.0,0.0,0.0,0.00039630732881423304,0.000145136234518686,0.03226777629223236,0.0,0.0,0.0,0.0,0.0,0.0,0.0,0.0,0.0,0.019328427135074513,0.004540255099516571,0.0008375229151536707,0.0,0.0,0.0,0.0,0.0,0.0,0.0,0.0,0.0
10.636,302,10,636000000,base_footprint,1.2395981461382747e-05,0.003873264577185002,-0.00579126558699156,0.9999757291608411,0.0,0.0,0.0,0.0,0.0,0.0,0.0,0.0,0.0,0.0003763792186336379,-8.441482974753578e-05,0.04513489546277001,0.0,0.0,0.0,0.0,0.0,0.0,0.0,0.0,0.0,0.01926775092229884,0.0075409393336335175,-0.00015229720196010732,0.0,0.0,0.0,0.0,0.0,0.0,0.0,0.0,0.0
10.67,303,10,670000000,base_footprint,9.109574101030724e-06,0.003870595489934284,-0.005024043858513535,0.9999798884932021,0.0,0.0,0.0,0.0,0.0,0.0,0.0,0.0,0.0,0.0004983503657783532,-0.0004442767543947642,0.04520415922842002,0.0,0.0,0.0,0.0,0.0,0.0,0.0,0.0,0.0,0.003034268534073912,0.009603857970708935,0.0007626089511739414,0.0,0.0,0.0,0.0,0.0,0.0,0.0,0.0,0.0
10.704,304,10,704000000,base_footprint,7.3173376229461795e-06,0.0038657118120473846,-0.004264992676860379,0.9999834328908201,0.0,0.0,0.0,0.0,0.0,0.0,0.0,0.0,0.0,6.400962449516403e-05,-0.0004597982422851282,0.03885133775089043,0.0,0.0,0.0,0.0,0.0,0.0,0.0,0.0,0.0,0.006156159836270445,0.008671594642224497,-2.625975046510813e-05,0.0,0.0,0.0,0.0,0.0,0.0,0.0,0.0,0.0
10.738,305,10,738000000,base_footprint,4.961300272516383e-06,0.0038629893179631517,-0.003633553490283497,0.9999859371900928,0.0,0.0,0.0,0.0,0.0,0.0,0.0,0.0,0.0,0.00034494741871166226,-0.0002924421378531273,0.03709529480218712,0.0,0.0,0.0,0.0,0.0,0.0,0.0,0.0,0.0,0.006962904473444912,0.008804207981451324,-0.0002840760884265541,0.0,0.0,0.0,0.0,0.0,0.0,0.0,0.0,0.0
10.772,306,10,772000000,base_footprint,2.7911493951734914e-06,0.0038619884936915857,-0.003006214752453894,0.9999880237832582,0.0,0.0,0.0,0.0,0.0,0.0,0.0,0.0,0.0,0.0003313191745258577,-0.00020905795475185927,0.03675114311994131,0.0,0.0,0.0,0.0,0.0,0.0,0.0,0.0,0.0,0.005769888894596986,0.007981300972823877,-0.00020612596023840562,0.0,0.0,0.0,0.0,0.0,0.0,0.0,0.0,0.0
10.806000000000001,307,10,806000000,base_footprint,2.134269944895852e-07,0.0038700963004206033,-0.002391842873876635,0.9999896506675691,0.0,0.0,0.0,0.0,0.0,0.0,0.0,0.0,0.0,-0.00031188750878244955,0.0005508570510648749,0.0293196979222685,0.0,0.0,0.0,0.0,0.0,0.0,0.0,0.0,0.0,-0.12516307906911825,0.007140643391864102,-0.0009466664035729447,0.0,0.0,0.0,0.0,0.0,0.0,0.0,0.0,0.0
10.84,308,10,840000000,base_footprint,1.1587401446549216e-06,0.0038639482160892653,-0.0027536146693677628,0.9999887436911945,0.0,0.0,0.0,0.0,0.0,0.0,0.0,0.0,0.0,-0.0024489364737048137,0.0006865253759571502,0.02457084220615144,0.0,0.0,0.0,0.0,0.0,0.0,0.0,0.0,0.0,-0.1967690586676802,0.0039439071629937365,0.00048306642953200365,0.0,0.0,0.0,0.0,0.0,0.0,0.0,0.0,0.0
10.874,309,10,874000000,base_footprint,-7.01863724017251e-07,0.003868017797307352,-0.00228399310265546,0.9999899108557717,0.0,0.0,0.0,0.0,0.0,0.0,0.0,0.0,0.0,0.00021158421379125536,5.293565087391497e-05,0.027179470292428787,0.0,0.0,0.0,0.0,0.0,0.0,0.0,0.0,0.0,-0.0004368296900947156,0.0012144540627132597,0.0023723902931833663,0.0,0.0,0.0,0.0,0.0,0.0,0.0,0.0,0.0
10.908,310,10,908000000,base_footprint,-3.412594519814419e-06,0.0038729660999846653,-0.001805404079361726,0.9999908702773506,0.0,0.0,0.0,0.0,0.0,0.0,0.0,0.0,0.0,3.652538512323895e-05,-2.9626223406511302e-05,0.03434341648317231,0.0,0.0,0.0,0.0,0.0,0.0,0.0,0.0,0.0,0.0025883765863474245,0.004995198260831591,-0.000364364221857543,0.0,0.0,0.0,0.0,0.0,0.0,0.0,0.0,0.0
10.942,311,10,942000000,base_footprint,-5.808784265143092e-06,0.003876457833042186,-0.0012364471885007793,0.9999917220853765,0.0,0.0,0.0,0.0,0.0,0.0,0.0,0.0,0.0,0.00021050839707210101,3.963978342722417e-05,0.03331625508012062,0.0,0.0,0.0,0.0,0.0,0.0,0.0,0.0,0.0,0.0030440914384874482,0.005273435796253909,9.046312324209691e-05,0.0,0.0,0.0,0.0,0.0,0.0,0.0,0.0,0.0
10.976,312,10,976000000,base_footprint,-8.332747597747582e-06,0.0038784807124782705,-0.0006671258109340406,0.9999922561005564,0.0,0.0,0.0,0.0,0.0,0.0,0.0,0.0,0.0,0.00024037610082053765,-5.2036924996430113e-05,0.033423553119487144,0.0,0.0,0.0,0.0,0.0,0.0,0.0,0.0,0.0,-0.003950975945615163,0.006552615864814385,0.00019844639776054652,0.0,0.0,0.0,0.0,0.0,0.0,0.0,0.0,0.0
11.01,313,11,10000000,base_footprint,-1.0614938606982402e-05,0.00386883412549038,-0.00014013778627528677,0.9999925061575379,0.0,0.0,0.0,0.0,0.0,0.0,0.0,0.0,0.0,0.00046900447227265926,-0.004705765866235852,0.020389702392384093,0.0,0.0,0.0,0.0,0.0,0.0,0.0,0.0,0.0,0.021709287314473975,0.005131227301062812,0.007303997347605124,0.0,0.0,0.0,0.0,0.0,0.0,0.0,0.0,0.0
11.043,314,11,44000000,base_footprint,-7.893899977342171e-06,0.0038625921846738,-6.479259850213514e-05,0.9999925380327698,0.0,0.0,0.0,0.0,0.0,0.0,0.0,0.0,0.0,-0.0003664082068899863,0.000781201374764901,0.002958126868828052,0.0,0.0,0.0,0.0,0.0,0.0,0.0,0.0,0.0,-0.027859876929570315,0.011612095596289524,-0.01222623533563542,0.0,0.0,0.0,0.0,0.0,0.0,0.0,0.0,0.0
11.078,315,11,78000000,base_footprint,-1.0805420800167998e-05,0.003856152699346659,-1.2026084716010479e-05,0.9999925648848473,0.0,0.0,0.0,0.0,0.0,0.0,0.0,0.0,0.0,0.00012602093486580444,0.0002538186915085822,0.0015158707548599381,0.0,0.0,0.0,0.0,0.0,0.0,0.0,0.0,0.0,0.11419593735994875,-0.0027720369919122293,0.004462737726339707,0.0,0.0,0.0,0.0,0.0,0.0,0.0,0.0,0.0
11.112,316,11,112000000,base_footprint,-1.2433750908279304e-05,0.0038728180571367047,6.115252784654966e-05,0.9999924986648984,0.0,0.0,0.0,0.0,0.0,0.0,0.0,0.0,0.0,0.0023206080367270195,0.0015266009898790797,0.024121943116980873,0.0,0.0,0.0,0.0,0.0,0.0,0.0,0.0,0.0,0.1952786050632085,-0.0034404326625937375,-0.003921551678832961,0.0,0.0,0.0,0.0,0.0,0.0,0.0,0.0,0.0
11.146,317,11,146000000,base_footprint,-1.1661014154843124e-05,0.0038714877549688264,0.0004881956673401923,0.9999923865268047,0.0,0.0,0.0,0.0,0.0,0.0,0.0,0.0,0.0,9.733038321944006e-05,-0.0003173873941199386,0.024884211361081224,0.0,0.0,0.0,0.0,0.0,0.0,0.0,0.0,0.0,0.00389669294245293,0.007854080445200879,0.0026165625125638926,0.0,0.0,0.0,0.0,0.0,0.0,0.0,0.0,0.0
11.18,318,11,180000000,base_footprint,-1.2836633912315544e-05,0.0038666372995209016,0.0009115074448265237,0.9999921090215627,0.0,0.0,0.0,0.0,0.0,0.0,0.0,0.0,0.0,0.000279817249644786,-0.0004140260492292763,0.024784554437025617,0.0,0.0,0.0,0.0,0.0,0.0,0.0,0.0,0.0,0.004773738569601623,0.004983658790905939,0.0003933151739083264,0.0,0.0,0.0,0.0,0.0,0.0,0.0,0.0,0.0
11.214,319,11,214000000,base_footprint,-1.3937855385405754e-05,0.0038633366293695705,0.0013841766318293347,0.9999915792099833,0.0,0.0,0.0,0.0,0.0,0.0,0.0,0.0,0.0,0.0003096373980934437,-0.0003625554759467565,0.03366317164758029,0.0,0.0,0.0,0.0,0.0,0.0,0.0,0.0,0.0,0.0028202041786449293,0.0057607101373610406,-0.00015564521205692052,0.0,0.0,0.0,0.0,0.0,0.0,0.0,0.0,0.0
11.248,320,11,248000000,base_footprint,-1.580369117208503e-05,0.0038621030434842084,0.0019498041759238387,0.9999906410432052,0.0,0.0,0.0,0.0,0.0,0.0,0.0,0.0,0.0,0.0003123700227130269,-0.00021913878402834058,0.03308168604055286,0.0,0.0,0.0,0.0,0.0,0.0,0.0,0.0,0.0,0.005892582025388145,0.007585019040387482,-0.00027851641794707026,0.0,0.0,0.0,0.0,0.0,0.0,0.0,0.0,0.0
11.282,321,11,282000000,base_footprint,-1.782229292875504e-05,0.0038623297640335715,0.002508159791134324,0.999989395556584,0.0,0.0,0.0,0.0,0.0,0.0,0.0,0.0,0.0,0.00029446120081000744,-0.00014254666977517032,0.032663207541296806,0.0,0.0,0.0,0.0,0.0,0.0,0.0,0.0,0.0,0.00558532901061646,0.007199955789360978,-0.00020401142231505904,0.0,0.0,0.0,0.0,0.0,0.0,0.0,0.0,0.0
11.316,322,11,316000000,base_footprint,-1.9888698659433712e-05,0.0038643525680916216,0.002996678758350596,0.9999880430785603,0.0,0.0,0.0,0.0,0.0,0.0,0.0,0.0,0.0,0.00015429565983953133,7.574994759086749e-05,0.023024069466136714,0.0,0.0,0.0,0.0,0.0,0.0,0.0,0.0,0.0,0.007791386117186193,0.007572069076408499,-0.0004940139514208383,0.0,0.0,0.0,0.0,0.0,0.0,0.0,0.0,0.0
11.35,323,11,350000000,base_footprint,-2.161004811146899e-05,0.0038681790614874785,0.0033849465204796913,0.9999867893431431,0.0,0.0,0.0,0.0,0.0,0.0,0.0,0.0,0.0,0.0001778901054542791,4.909136573899568e-05,0.022689407250425158,0.0,0.0,0.0,0.0,0.0,0.0,0.0,0.0,0.0,0.004956101824580766,0.003690958122591671,-3.652059169903123e-05,0.0,0.0,0.0,0.0,0.0,0.0,0.0,0.0,0.0
11.384,324,11,384000000,base_footprint,-2.3288237388152075e-05,0.003872122428047447,0.0037810718379909856,0.9999853547034159,0.0,0.0,0.0,0.0,0.0,0.0,0.0,0.0,0.0,0.00018209204425677385,-5.113648354599473e-05,0.024105410156277454,0.0,0.0,0.0,0.0,0.0,0.0,0.0,0.0,0.0,0.004775170331723262,0.0027806287496997583,-9.391071565555297e-05,0.0,0.0,0.0,0.0,0.0,0.0,0.0,0.0,0.0
11.418,325,11,418000000,base_footprint,-2.402051800331767e-05,0.003873902025644692,0.004110488471538478,0.9999840479680843,0.0,0.0,0.0,0.0,0.0,0.0,0.0,0.0,0.0,4.892008111217236e-06,0.00010136383843442893,0.01415321115035842,0.0,0.0,0.0,0.0,0.0,0.0,0.0,0.0,0.0,0.004484630421889097,0.005275618877214527,-0.0003563672079299218,0.0,0.0,0.0,0.0,0.0,0.0,0.0,0.0,0.0
11.452,326,11,452000000,base_footprint,-2.431377273836956e-05,0.003876071612295335,0.004354630679433004,0.9999830061902766,0.0,0.0,0.0,0.0,0.0,0.0,0.0,0.0,0.0,0.00019766981067624663,-0.00011420344526796978,0.014650241804512543,0.0,0.0,0.0,0.0,0.0,0.0,0.0,0.0,0.0,-0.005710444385210647,0.000997322729781791,0.0005040800288796845,0.0,0.0,0.0,0.0,0.0,0.0,0.0,0.0,0.0
