Time,header.seq,header.stamp.secs,header.stamp.nsecs,header.frame_id,orientation.x,orientation.y,orientation.z,orientation.w,orientation_covariance_0,orientation_covariance_1,orientation_covariance_2,orientation_covariance_3,orientation_covariance_4,orientation_covariance_5,orientation_covariance_6,orientation_covariance_7,orientation_covariance_8,angular_velocity.x,angular_velocity.y,angular_velocity.z,angular_velocity_covariance_0,angular_velocity_covariance_1,angular_velocity_covariance_2,angular_velocity_covariance_3,angular_velocity_covariance_4,angular_velocity_covariance_5,angular_velocity_covariance_6,angular_velocity_covariance_7,angular_velocity_covariance_8,linear_acceleration.x,linear_acceleration.y,linear_acceleration.z,linear_acceleration_covariance_0,linear_acceleration_covariance_1,linear_acceleration_covariance_2,linear_acceleration_covariance_3,linear_acceleration_covariance_4,linear_acceleration_covariance_5,linear_acceleration_covariance_6,linear_acceleration_covariance_7,linear_acceleration_covariance_8
0.43400000000000005,0,0,432000000,base_footprint,0.0013143384656014807,-6.267174880511466e-06,0.9999991351692779,4.6214898487392426e-05,0.0,0.0,0.0,0.0,0.0,0.0,0.0,0.0,0.0,-1.6980355118362776e-05,-0.1569133548914,5.901202903403473e-06,0.0,0.0,0.0,0.0,0.0,0.0,0.0,0.0,0.0,0.00021882259904275968,-2.03598375664187e-06,-0.13918362111694207,0.0,0.0,0.0,0.0,0.0,0.0,0.0,0.0,0.0
0.467,1,0,466000000,base_footprint,0.0009554417895071302,-1.7732122100784638e-05,0.9999995423200252,4.665081889743661e-05,0.0,0.0,0.0,0.0,0.0,0.0,0.0,0.0,0.0,-0.00028337632992349624,0.04758799142272875,2.6468244875220054e-06,0.0,0.0,0.0,0.0,0.0,0.0,0.0,0.0,0.0,-0.0003408917599287307,2.3265465853180583e-06,0.005131748679945543,0.0,0.0,0.0,0.0,0.0,0.0,0.0,0.0,0.0
0.5,2,0,500000000,base_footprint,0.0001442680945152505,-2.2781257577155877e-05,0.9999999882474448,4.661374986343369e-05,0.0,0.0,0.0,0.0,0.0,0.0,0.0,0.0,0.0,-0.0002837837375476409,0.04756041008294899,3.2315359380251014e-06,0.0,0.0,0.0,0.0,0.0,0.0,0.0,0.0,0.0,-0.000214976847746328,2.998747221342312e-07,7.846402313990019e-05,0.0,0.0,0.0,0.0,0.0,0.0,0.0,0.0,0.0
0.535,3,0,534000000,base_footprint,-0.0009389499799981795,-3.0715217152883674e-05,0.9999995576302639,4.657023893846026e-05,0.0,0.0,0.0,0.0,0.0,0.0,0.0,0.0,0.0,-0.0004203212577189502,0.06777050692349584,6.819772988770117e-06,0.0,0.0,0.0,0.0,0.0,0.0,0.0,0.0,0.0,-0.0003673309727730065,3.44486204116624e-08,0.0028139967223474826,0.0,0.0,0.0,0.0,0.0,0.0,0.0,0.0,0.0
0.5680000000000001,4,0,568000000,base_footprint,-0.002092468497588257,-3.817498468482086e-05,0.9999978089770054,4.646983662155763e-05,0.0,0.0,0.0,0.0,0.0,0.0,0.0,0.0,0.0,-0.0004207755261393115,0.06769334313062904,8.03064481510863e-06,0.0,0.0,0.0,0.0,0.0,0.0,0.0,0.0,0.0,-0.00029585065334290013,3.970697042179579e-07,0.00015093957460049045,0.0,0.0,0.0,0.0,0.0,0.0,0.0,0.0,0.0
0.6020000000000001,5,0,602000000,base_footprint,-0.0032446826301795045,-4.5641898063222704e-05,0.999994733887676,4.635043474905583e-05,0.0,0.0,0.0,0.0,0.0,0.0,0.0,0.0,0.0,-0.0004212576839605158,0.06761697244587432,9.061244986367185e-06,0.0,0.0,0.0,0.0,0.0,0.0,0.0,0.0,0.0,-0.000294711323579689,4.589119685188194e-08,0.0001497907256323983,0.0,0.0,0.0,0.0,0.0,0.0,0.0,0.0,0.0
0.637,6,0,636000000,base_footprint,-0.003936843275214827,-6.8278122561128905e-06,0.9999922494422285,4.7685211079760545e-05,0.0,0.0,0.0,0.0,0.0,0.0,0.0,0.0,0.0,-4.566823077494664e-05,-0.024601802989128712,-0.0001274772500912432,0.0,0.0,0.0,0.0,0.0,0.0,0.0,0.0,0.0,0.0009362207868918883,0.00015259720156454782,0.13220735442215306,0.0,0.0,0.0,0.0,0.0,0.0,0.0,0.0,0.0
0.673,7,0,670000000,base_footprint,-0.003852785283229284,-6.878840237996296e-06,0.9999925768028257,4.8347573084518076e-05,0.0,0.0,0.0,0.0,0.0,0.0,0.0,0.0,0.0,8.267225892068879e-05,-0.000947393252781674,9.497934361464165e-06,0.0,0.0,0.0,0.0,0.0,0.0,0.0,0.0,0.0,-0.0010244578957106499,-0.00013511091398164408,0.0005630172074973087,0.0,0.0,0.0,0.0,0.0,0.0,0.0,0.0,0.0
0.7040000000000001,8,0,704000000,base_footprint,-0.0038531032113110213,-6.875268870228815e-06,0.9999925755838447,4.822408793604715e-05,0.0,0.0,0.0,0.0,0.0,0.0,0.0,0.0,0.0,3.850280044278241e-05,-0.0001628401448581696,9.087462230120563e-06,0.0,0.0,0.0,0.0,0.0,0.0,0.0,0.0,0.0,-1.6315238767311524e-05,-1.4120513855794713e-06,-0.0008733597945344641,0.0,0.0,0.0,0.0,0.0,0.0,0.0,0.0,0.0
0.7380000000000001,9,0,738000000,base_footprint,-0.0038531018079711933,-6.875956101648118e-06,0.9999925755963621,4.8076322566680484e-05,0.0,0.0,0.0,0.0,0.0,0.0,0.0,0.0,0.0,3.871533685997682e-05,-0.0001807850359416175,9.762092612639765e-06,0.0,0.0,0.0,0.0,0.0,0.0,0.0,0.0,0.0,1.809658338789782e-07,1.315632557691578e-06,1.9514691703173132e-05,0.0,0.0,0.0,0.0,0.0,0.0,0.0,0.0,0.0
0.772,10,0,772000000,base_footprint,-0.0038531016370920127,-6.876598599275118e-06,0.9999925756043501,4.792353382888699e-05,0.0,0.0,0.0,0.0,0.0,0.0,0.0,0.0,0.0,3.871122221711987e-05,-0.00018040491969233485,9.859188774456866e-06,0.0,0.0,0.0,0.0,0.0,0.0,0.0,0.0,0.0,-3.6336513530958735e-08,1.888075577859938e-07,-4.2472268148805715e-07,0.0,0.0,0.0,0.0,0.0,0.0,0.0,0.0,0.0
0.806,11,0,806000000,base_footprint,-0.003853101627857904,-6.87723253474501e-06,0.9999925756117262,4.7770025482364684e-05,0.0,0.0,0.0,0.0,0.0,0.0,0.0,0.0,0.0,3.871155771984309e-05,-0.00018041050900687852,9.87315584602501e-06,0.0,0.0,0.0,0.0,0.0,0.0,0.0,0.0,0.0,-3.96638695618146e-09,2.7169805790397646e-08,4.964167748010605e-09,0.0,0.0,0.0,0.0,0.0,0.0,0.0,0.0,0.0
0.8400000000000001,12,0,840000000,base_footprint,-0.0038531016253237206,-6.87786278403665e-06,0.999992575619058,4.7616411692306825e-05,0.0,0.0,0.0,0.0,0.0,0.0,0.0,0.0,0.0,3.8711811665699207e-05,-0.00018041015314971897,9.875075665826072e-06,0.0,0.0,0.0,0.0,0.0,0.0,0.0,0.0,0.0,-5.740592540649266e-10,3.734036997022757e-09,-5.206040077012712e-10,0.0,0.0,0.0,0.0,0.0,0.0,0.0,0.0,0.0
0.8730000000000001,13,0,874000000,base_footprint,-0.0038531016244440974,-6.878490439300146e-06,0.9999925756263607,4.7462782124459694e-05,0.0,0.0,0.0,0.0,0.0,0.0,0.0,0.0,0.0,3.871205515063708e-05,-0.00018041010119536238,9.875251814902946e-06,0.0,0.0,0.0,0.0,0.0,0.0,0.0,0.0,0.0,-5.865270505152875e-11,3.4205349134663743e-10,-3.499268744899313e-11,0.0,0.0,0.0,0.0,0.0,0.0,0.0,0.0,0.0
0.907,14,0,908000000,base_footprint,-0.0038531016237758915,-6.879115800192219e-06,0.9999925756336389,4.730914987530147e-05,0.0,0.0,0.0,0.0,0.0,0.0,0.0,0.0,0.0,3.871229081129911e-05,-0.00018041007300015008,9.875189761031286e-06,0.0,0.0,0.0,0.0,0.0,0.0,0.0,0.0,0.0,1.1367439517237267e-11,-1.2144743034658755e-10,1.1396991622869409e-11,0.0,0.0,0.0,0.0,0.0,0.0,0.0,0.0,0.0
0.9440000000000001,15,0,942000000,base_footprint,-0.0038531016231300196,-6.8797390316605385e-06,0.9999925756408937,4.7155516866463744e-05,0.0,0.0,0.0,0.0,0.0,0.0,0.0,0.0,0.0,3.8712519661295614e-05,-0.0001804100481212602,9.875107445689469e-06,0.0,0.0,0.0,0.0,0.0,0.0,0.0,0.0,0.0,1.7330532835594865e-11,-1.609914516412657e-10,1.649490810213187e-11,0.0,0.0,0.0,0.0,0.0,0.0,0.0,0.0,0.0
0.9810000000000001,16,0,976000000,base_footprint,-0.0038531016224789545,-6.880360272161518e-06,0.9999925756481247,4.700188338203065e-05,0.0,0.0,0.0,0.0,0.0,0.0,0.0,0.0,0.0,3.8712742090639486e-05,-0.00018041002332995417,9.875036658672528e-06,0.0,0.0,0.0,0.0,0.0,0.0,0.0,0.0,0.0,1.3947458655781085e-11,-1.3868975739594023e-10,1.53444117432752e-11,0.0,0.0,0.0,0.0,0.0,0.0,0.0,0.0,0.0
1.011,17,1,10000000,base_footprint,-0.003853101621818812,-6.880979648386592e-06,0.9999925756553323,4.684824946414197e-05,0.0,0.0,0.0,0.0,0.0,0.0,0.0,0.0,0.0,3.871295856504348e-05,-0.00018040999810470487,9.874981251310202e-06,0.0,0.0,0.0,0.0,0.0,0.0,0.0,0.0,0.0,9.42807327698881e-12,-1.0888838700315783e-10,1.3483908205694667e-11,0.0,0.0,0.0,0.0,0.0,0.0,0.0,0.0,0.0
1.044,18,1,44000000,base_footprint,-0.00385310162114975,-6.88159727870321e-06,0.9999925756625164,4.66946151203081e-05,0.0,0.0,0.0,0.0,0.0,0.0,0.0,0.0,0.0,3.8713169473633464e-05,-0.0001804099725300439,9.874940675923078e-06,0.0,0.0,0.0,0.0,0.0,0.0,0.0,0.0,0.0,5.073103203490705e-12,-8.014558153548717e-11,1.149503246905339e-11,0.0,0.0,0.0,0.0,0.0,0.0,0.0,0.0,0.0
1.071,19,1,78000000,base_footprint,-0.0038531016204726163,-6.882213273703895e-06,0.9999925756696769,4.6540980360277216e-05,0.0,0.0,0.0,0.0,0.0,0.0,0.0,0.0,0.0,3.8713375189271294e-05,-0.00018040994645528353,9.87491368852855e-06,0.0,0.0,0.0,0.0,0.0,0.0,0.0,0.0,0.0,1.07878056043836e-12,-5.3813800968464375e-11,9.607412903885189e-12,0.0,0.0,0.0,0.0,0.0,0.0,0.0,0.0,0.0
1.113,20,1,112000000,base_footprint,-0.0038531016197875453,-6.882827738562633e-06,0.9999925756768141,4.6387345186186805e-05,0.0,0.0,0.0,0.0,0.0,0.0,0.0,0.0,0.0,3.8713575827302995e-05,-0.0001804099200696897,9.874899745196849e-06,0.0,0.0,0.0,0.0,0.0,0.0,0.0,0.0,0.0,-2.751804486453801e-12,-2.8538812703901183e-11,7.90587238557397e-12,0.0,0.0,0.0,0.0,0.0,0.0,0.0,0.0,0.0
1.145,21,1,146000000,base_footprint,-0.0038531016190949787,-6.883440778154074e-06,0.9999925756839274,4.62337096086907e-05,0.0,0.0,0.0,0.0,0.0,0.0,0.0,0.0,0.0,3.871377345758381e-05,-0.00018040989335300675,9.874899103749481e-06,0.0,0.0,0.0,0.0,0.0,0.0,0.0,0.0,0.0,-6.656685009566127e-12,-2.7300211631271753e-12,6.650526366478568e-12,0.0,0.0,0.0,0.0,0.0,0.0,0.0,0.0,0.0
1.185,22,1,180000000,base_footprint,-0.0038531016183954384,-6.884052474840068e-06,0.9999925756910174,4.608007362307235e-05,0.0,0.0,0.0,0.0,0.0,0.0,0.0,0.0,0.0,3.871396697598993e-05,-0.00018040986625281693,9.874909852293192e-06,0.0,0.0,0.0,0.0,0.0,0.0,0.0,0.0,0.0,-1.0004478386098818e-11,1.934483204439056e-11,5.1862690128236826e-12,0.0,0.0,0.0,0.0,0.0,0.0,0.0,0.0,0.0
1.213,23,1,214000000,base_footprint,-0.003853101617689624,-6.884662913204665e-06,0.9999925756980836,4.5926437235686534e-05,0.0,0.0,0.0,0.0,0.0,0.0,0.0,0.0,0.0,3.8714156424945834e-05,-0.00018040983885828416,9.874931373275227e-06,0.0,0.0,0.0,0.0,0.0,0.0,0.0,0.0,0.0,-1.316817571696715e-11,4.0220497727809564e-11,3.659920310746665e-12,0.0,0.0,0.0,0.0,0.0,0.0,0.0,0.0,0.0
1.28,24,1,248000000,base_footprint,-0.003853101616977305,-6.885272173195812e-06,0.9999925757051266,4.57728004460592e-05,0.0,0.0,0.0,0.0,0.0,0.0,0.0,0.0,0.0,3.871434202571209e-05,-0.0001804098112312068,9.874963506019317e-06,0.0,0.0,0.0,0.0,0.0,0.0,0.0,0.0,0.0,-1.62837931534086e-11,6.078759031108043e-11,2.3995707266196266e-12,0.0,0.0,0.0,0.0,0.0,0.0,0.0,0.0,0.0
1.282,25,1,282000000,base_footprint,-0.0038531016162593906,-6.885880329715583e-06,0.9999925757121458,4.561916325260613e-05,0.0,0.0,0.0,0.0,0.0,0.0,0.0,0.0,0.0,3.871452409470527e-05,-0.0001804097831019944,9.875004159297225e-06,0.0,0.0,0.0,0.0,0.0,0.0,0.0,0.0,0.0,-1.8792676409216764e-11,7.72959770737168e-11,9.305939221806674e-13,0.0,0.0,0.0,0.0,0.0,0.0,0.0,0.0,0.0
1.319,26,1,316000000,base_footprint,-0.003853101615536528,-6.886487452704722e-06,0.9999925757191414,4.546552566384955e-05,0.0,0.0,0.0,0.0,0.0,0.0,0.0,0.0,0.0,3.871470298750416e-05,-0.00018040975484942816,9.875053512114547e-06,0.0,0.0,0.0,0.0,0.0,0.0,0.0,0.0,0.0,-2.1345240361783976e-11,9.415624283213074e-11,-1.0474590843735639e-13,0.0,0.0,0.0,0.0,0.0,0.0,0.0,0.0,0.0
1.347,27,1,350000000,base_footprint,-0.0038531016148084527,-6.887093607574266e-06,0.9999925757261136,4.531188767848249e-05,0.0,0.0,0.0,0.0,0.0,0.0,0.0,0.0,0.0,3.871487866179129e-05,-0.0001804097264435538,9.8751121047321e-06,0.0,0.0,0.0,0.0,0.0,0.0,0.0,0.0,0.0,-2.4059419509673816e-11,1.1206597393900204e-10,-8.819506368108399e-13,0.0,0.0,0.0,0.0,0.0,0.0,0.0,0.0,0.0
1.392,28,1,384000000,base_footprint,-0.0038531016140753815,-6.887698855925778e-06,0.9999925757330621,4.5158249297406236e-05,0.0,0.0,0.0,0.0,0.0,0.0,0.0,0.0,0.0,3.871505144841111e-05,-0.00018040969781326174,9.875178613389639e-06,0.0,0.0,0.0,0.0,0.0,0.0,0.0,0.0,0.0,-2.6383533273729756e-11,1.274072411305395e-10,-2.083805413355896e-12,0.0,0.0,0.0,0.0,0.0,0.0,0.0,0.0,0.0
1.423,29,1,418000000,base_footprint,-0.0038531016133384983,-6.8883032555049776e-06,0.999992575739987,4.500461053086259e-05,0.0,0.0,0.0,0.0,0.0,0.0,0.0,0.0,0.0,3.87152215994427e-05,-0.00018040966880520162,9.875250543789565e-06,0.0,0.0,0.0,0.0,0.0,0.0,0.0,0.0,0.0,-2.7979975641073452e-11,1.3790642858564056e-10,-3.344660075429109e-12,0.0,0.0,0.0,0.0,0.0,0.0,0.0,0.0,0.0
1.453,30,1,452000000,base_footprint,-0.003853101612597116,-6.888906859956377e-06,0.9999925757468885,4.485097136690258e-05,0.0,0.0,0.0,0.0,0.0,0.0,0.0,0.0,0.0,3.871538919610171e-05,-0.0001804096396916823,9.87533129137701e-06,0.0,0.0,0.0,0.0,0.0,0.0,0.0,0.0,0.0,-3.056942224671007e-11,1.5500381243951703e-10,-3.899367496828402e-12,0.0,0.0,0.0,0.0,0.0,0.0,0.0,0.0,0.0
1.487,31,1,486000000,base_footprint,-0.0038531016118519934,-6.8895097199289445e-06,0.9999925757537662,4.4697331815018864e-05,0.0,0.0,0.0,0.0,0.0,0.0,0.0,0.0,0.0,3.8715554318051886e-05,-0.00018040961040395812,9.875416812019542e-06,0.0,0.0,0.0,0.0,0.0,0.0,0.0,0.0,0.0,-3.197183348950347e-11,1.642440806107697e-10,-4.8614715300143725e-12,0.0,0.0,0.0,0.0,0.0,0.0,0.0,0.0,0.0
1.52,32,1,520000000,base_footprint,-0.0038531016111036697,-6.890111882331984e-06,0.9999925757606206,4.454369189244035e-05,0.0,0.0,0.0,0.0,0.0,0.0,0.0,0.0,0.0,3.871571726409185e-05,-0.00018040958080168415,9.875507201662463e-06,0.0,0.0,0.0,0.0,0.0,0.0,0.0,0.0,0.0,-3.340594901749229e-11,1.7367485022048952e-10,-5.8168656282395236e-12,0.0,0.0,0.0,0.0,0.0,0.0,0.0,0.0,0.0
1.554,33,1,554000000,base_footprint,-0.0038531016103514927,-6.890713391655923e-06,0.9999925757674513,4.439005160134508e-05,0.0,0.0,0.0,0.0,0.0,0.0,0.0,0.0,0.0,3.8715878035449006e-05,-0.00018040955137428708,9.875605149744679e-06,0.0,0.0,0.0,0.0,0.0,0.0,0.0,0.0,0.0,-3.561803048986467e-11,1.883321919636046e-10,-6.167446479286754e-12,0.0,0.0,0.0,0.0,0.0,0.0,0.0,0.0,0.0
1.576,34,1,588000000,base_footprint,-0.0038531016095963554,-6.891314288975741e-06,0.9999925757742585,4.423641092659535e-05,0.0,0.0,0.0,0.0,0.0,0.0,0.0,0.0,0.0,3.871603690098138e-05,-0.00018040952155816734,9.87570781555868e-06,0.0,0.0,0.0,0.0,0.0,0.0,0.0,0.0,0.0,-3.7010745027693865e-11,1.9747303888139992e-10,-7.0000835710774036e-12,0.0,0.0,0.0,0.0,0.0,0.0,0.0,0.0,0.0
1.6219999999999999,35,1,622000000,base_footprint,-0.0038531016088378415,-6.891914614442075e-06,0.999992575781042,4.408276987007039e-05,0.0,0.0,0.0,0.0,0.0,0.0,0.0,0.0,0.0,3.8716194005942726e-05,-0.00018040949138283527,9.875815227726042e-06,0.0,0.0,0.0,0.0,0.0,0.0,0.0,0.0,0.0,-3.840827382488259e-11,2.0667181488096518e-10,-8.040599287896553e-12,0.0,0.0,0.0,0.0,0.0,0.0,0.0,0.0,0.0
1.653,36,1,656000000,base_footprint,-0.0038531016080767273,-6.892514403223684e-06,0.999992575787802,4.392912843249295e-05,0.0,0.0,0.0,0.0,0.0,0.0,0.0,0.0,0.0,3.871634929147144e-05,-0.00018040946148787434,9.87592767632572e-06,0.0,0.0,0.0,0.0,0.0,0.0,0.0,0.0,0.0,-3.988099498246658e-11,2.164330969966093e-10,-7.964351852381265e-12,0.0,0.0,0.0,0.0,0.0,0.0,0.0,0.0,0.0
1.689,37,1,690000000,base_footprint,-0.0038531016073129767,-6.893113689728158e-06,0.9999925757945384,4.377548661940793e-05,0.0,0.0,0.0,0.0,0.0,0.0,0.0,0.0,0.0,3.8716503036852685e-05,-0.00018040943129405275,9.87604449446366e-06,0.0,0.0,0.0,0.0,0.0,0.0,0.0,0.0,0.0,-4.1166306195527265e-11,2.2490127407589534e-10,-9.044385297763966e-12,0.0,0.0,0.0,0.0,0.0,0.0,0.0,0.0,0.0
1.7280000000000002,38,1,724000000,base_footprint,-0.003853101606546811,-6.893712505956846e-06,0.9999925758012513,4.362184443122215e-05,0.0,0.0,0.0,0.0,0.0,0.0,0.0,0.0,0.0,3.871665524659471e-05,-0.00018040940103669815,9.876164881390584e-06,0.0,0.0,0.0,0.0,0.0,0.0,0.0,0.0,0.0,-4.2216176494928075e-11,2.318158811235922e-10,-9.242152358145694e-12,0.0,0.0,0.0,0.0,0.0,0.0,0.0,0.0,0.0
1.759,39,1,758000000,base_footprint,-0.003853101605778012,-6.8943108819400645e-06,0.9999925758079404,4.346820186381389e-05,0.0,0.0,0.0,0.0,0.0,0.0,0.0,0.0,0.0,3.871680602205782e-05,-0.00018040937056236907,9.876288469226086e-06,0.0,0.0,0.0,0.0,0.0,0.0,0.0,0.0,0.0,-4.315792829982231e-11,2.3801590609012363e-10,-1.0031004252190758e-11,0.0,0.0,0.0,0.0,0.0,0.0,0.0,0.0,0.0
1.792,40,1,792000000,base_footprint,-0.0038531016050072915,-6.8949088452647355e-06,0.9999925758146062,4.3314558922932526e-05,0.0,0.0,0.0,0.0,0.0,0.0,0.0,0.0,0.0,3.871695545597918e-05,-0.00018040934001861063,9.876416799711847e-06,0.0,0.0,0.0,0.0,0.0,0.0,0.0,0.0,0.0,-4.4550745299660666e-11,2.472122572697834e-10,-1.0413010814343742e-11,0.0,0.0,0.0,0.0,0.0,0.0,0.0,0.0,0.0
1.824,41,1,826000000,base_footprint,-0.0038531016042344136,-6.895506422400773e-06,0.9999925758212482,4.316091560802328e-05,0.0,0.0,0.0,0.0,0.0,0.0,0.0,0.0,0.0,3.871710373457632e-05,-0.0001804093094098236,9.87654742869003e-06,0.0,0.0,0.0,0.0,0.0,0.0,0.0,0.0,0.0,-4.5225988439113177e-11,2.5166271378566353e-10,-1.0834002928890508e-11,0.0,0.0,0.0,0.0,0.0,0.0,0.0,0.0,0.0
1.8650000000000002,42,1,860000000,base_footprint,-0.0038531016034596176,-6.8961036378426964e-06,0.9999925758278667,4.3007271916572846e-05,0.0,0.0,0.0,0.0,0.0,0.0,0.0,0.0,0.0,3.8717250783048816e-05,-0.00018040927876435866,9.87668217875374e-06,0.0,0.0,0.0,0.0,0.0,0.0,0.0,0.0,0.0,-4.643504355580052e-11,2.59653156417761e-10,-1.1214242384997959e-11,0.0,0.0,0.0,0.0,0.0,0.0,0.0,0.0,0.0
1.901,43,1,894000000,base_footprint,-0.003847807422296854,-6.955402731787905e-06,0.999992596257704,4.1945681429803696e-05,0.0,0.0,0.0,0.0,0.0,0.0,0.0,0.0,0.0,4.0562224061266335e-05,-0.00028888485143704874,-2.20679271459796e-05,0.0,0.0,0.0,0.0,0.0,0.0,0.0,0.0,0.0,0.6686100995575108,-0.00011833205227826037,0.005251451881457736,0.0,0.0,0.0,0.0,0.0,0.0,0.0,0.0,0.0
1.923,44,1,928000000,base_footprint,-0.0038482154812478036,-6.997313451611183e-06,0.9999925946463619,4.2907860414103566e-05,0.0,0.0,0.0,0.0,0.0,0.0,0.0,0.0,0.0,3.547746416799957e-05,-0.00014033217855229378,-7.312149457925942e-05,0.0,0.0,0.0,0.0,0.0,0.0,0.0,0.0,0.0,0.7859876821392338,-0.00016667731328184912,0.00587225705399186,0.0,0.0,0.0,0.0,0.0,0.0,0.0,0.0,0.0
1.963,45,1,962000000,base_footprint,-0.003848906001483947,-7.057468785703693e-06,0.999992591887525,4.5197941178090895e-05,0.0,0.0,0.0,0.0,0.0,0.0,0.0,0.0,0.0,3.447030835178053e-05,-0.00012861501282013355,-0.0001531064507219338,0.0,0.0,0.0,0.0,0.0,0.0,0.0,0.0,0.0,0.7853888478981202,-0.0002263233652751929,0.006024079071577308,0.0,0.0,0.0,0.0,0.0,0.0,0.0,0.0,0.0
1.993,46,1,996000000,base_footprint,-0.0038499661277522027,-7.134871310982339e-06,0.9999925876006962,4.95335539559354e-05,0.0,0.0,0.0,0.0,0.0,0.0,0.0,0.0,0.0,3.3822434723823484e-05,-8.570029436128862e-05,-0.00027605618545024723,0.0,0.0,0.0,0.0,0.0,0.0,0.0,0.0,0.0,0.7745203781931955,-0.000315458225152726,0.005909223976028455,0.0,0.0,0.0,0.0,0.0,0.0,0.0,0.0,0.0
2.029,47,2,30000000,base_footprint,-0.003851437825032746,-7.220737190698139e-06,0.9999925815316575,5.706305496933704e-05,0.0,0.0,0.0,0.0,0.0,0.0,0.0,0.0,0.0,3.4522240187338815e-05,-5.311649874719585e-05,-0.0004732666329118881,0.0,0.0,0.0,0.0,0.0,0.0,0.0,0.0,0.0,0.742755910580919,-0.0004676363156893069,0.0056819022319908805,0.0,0.0,0.0,0.0,0.0,0.0,0.0,0.0,0.0
2.06,48,2,64000000,base_footprint,-0.0038533346166450743,-7.68668677823277e-06,0.999992573472765,6.893884072135866e-05,0.0,0.0,0.0,0.0,0.0,0.0,0.0,0.0,0.0,1.4396006841413968e-05,-3.518211211830892e-05,-0.0007517787799417774,0.0,0.0,0.0,0.0,0.0,0.0,0.0,0.0,0.0,0.676950163945951,-0.0006344135475526652,0.005181938817321057,0.0,0.0,0.0,0.0,0.0,0.0,0.0,0.0,0.0
2.103,49,2,98000000,base_footprint,-0.0038554042965705895,-8.27960970733311e-06,0.9999925644740588,8.237568602009213e-05,0.0,0.0,0.0,0.0,0.0,0.0,0.0,0.0,0.0,4.71427793683665e-05,-5.756180577510374e-05,-0.0008113839126739354,0.0,0.0,0.0,0.0,0.0,0.0,0.0,0.0,0.0,0.5728155628204957,-0.00020978473324114306,0.004396073640783243,0.0,0.0,0.0,0.0,0.0,0.0,0.0,0.0,0.0
2.129,50,2,132000000,base_footprint,-0.003857252499834467,-6.622986027714941e-06,0.9999922436500932,0.0007963660849832413,0.0,0.0,0.0,0.0,0.0,0.0,0.0,0.0,0.0,0.000755494324319108,-8.233357762529681e-05,-0.08076299569267224,0.0,0.0,0.0,0.0,0.0,0.0,0.0,0.0,0.0,0.24399161671417116,-0.008631533679502186,0.001811885982099496,0.0,0.0,0.0,0.0,0.0,0.0,0.0,0.0,0.0
2.166,51,2,166000000,base_footprint,-0.003859123116254328,1.3440308753537867e-06,0.9999892044406011,0.0025880821511191803,0.0,0.0,0.0,0.0,0.0,0.0,0.0,0.0,0.0,0.002750277895095037,0.0008488357526623345,-0.1177228209993591,0.0,0.0,0.0,0.0,0.0,0.0,0.0,0.0,0.0,0.10593947149031525,-0.018352885659361395,-0.0020823033270394487,0.0,0.0,0.0,0.0,0.0,0.0,0.0,0.0,0.0
2.2,52,2,200000000,base_footprint,-0.0038537387676111996,1.2576506353471027e-05,0.9999852329183588,0.0038317730306194906,0.0,0.0,0.0,0.0,0.0,0.0,0.0,0.0,0.0,0.005521710850077425,-0.006826492136986055,-0.03330106818800797,0.0,0.0,0.0,0.0,0.0,0.0,0.0,0.0,0.0,0.09111522775587745,-0.0151389864296444,0.017830591309382093,0.0,0.0,0.0,0.0,0.0,0.0,0.0,0.0,0.0
2.234,53,2,234000000,base_footprint,-0.003849511774235867,1.1945471389231328e-05,0.9999834990171774,0.00426413059937657,0.0,0.0,0.0,0.0,0.0,0.0,0.0,0.0,0.0,-0.001270758120871337,-0.002021494238818738,-0.03562699166232901,0.0,0.0,0.0,0.0,0.0,0.0,0.0,0.0,0.0,0.042255177439188045,-0.00014068264134916835,-0.010921409189808478,0.0,0.0,0.0,0.0,0.0,0.0,0.0,0.0,0.0
2.269,54,2,268000000,base_footprint,-0.003851640003112745,1.836641824031604e-05,0.9999789082046907,0.005229500713844315,0.0,0.0,0.0,0.0,0.0,0.0,0.0,0.0,0.0,0.0034751022754818586,0.004193819124006979,-0.08760515158996145,0.0,0.0,0.0,0.0,0.0,0.0,0.0,0.0,0.0,0.15313230060355687,-0.017384550849940297,-0.007011779792028328,0.0,0.0,0.0,0.0,0.0,0.0,0.0,0.0,0.0
2.302,55,2,302000000,base_footprint,-0.0038497036121895897,2.7194485643425964e-05,0.9999601782457196,0.008051146834280577,0.0,0.0,0.0,0.0,0.0,0.0,0.0,0.0,0.0,0.0016491585512222193,-0.00041895275825092456,-0.22215393923698692,0.0,0.0,0.0,0.0,0.0,0.0,0.0,0.0,0.0,0.2199408390907066,-0.037736532661069015,0.007191683876353622,0.0,0.0,0.0,0.0,0.0,0.0,0.0,0.0,0.0
2.335,56,2,336000000,base_footprint,-0.0038491383982052056,4.5042730757384976e-05,0.9999085973762362,0.012960671195272284,0.0,0.0,0.0,0.0,0.0,0.0,0.0,0.0,0.0,0.0026364346256321208,0.00027848216348905816,-0.35602542156658673,0.0,0.0,0.0,0.0,0.0,0.0,0.0,0.0,0.0,0.3479997137400046,-0.07434285887941988,0.001642802245578999,0.0,0.0,0.0,0.0,0.0,0.0,0.0,0.0,0.0
2.37,57,2,370000000,base_footprint,-0.003854708671425884,6.258113347583759e-05,0.9998132616997433,0.01893618319463791,0.0,0.0,0.0,0.0,0.0,0.0,0.0,0.0,0.0,0.0019478018454287466,-0.00016433337087401603,-0.2881508062759867,0.0,0.0,0.0,0.0,0.0,0.0,0.0,0.0,0.0,-0.04288990510725164,-0.07193002918496616,-4.729702275605593e-05,0.0,0.0,0.0,0.0,0.0,0.0,0.0,0.0,0.0
2.404,58,2,404000000,base_footprint,-0.0038536074377241874,7.563218052045942e-05,0.9997811551372717,0.020561756293466463,0.0,0.0,0.0,0.0,0.0,0.0,0.0,0.0,0.0,0.0006313191487068892,0.0017319442584317053,-0.10237111969033981,0.0,0.0,0.0,0.0,0.0,0.0,0.0,0.0,0.0,-0.21036105601708857,-0.004939810544229226,-0.0032333757033659255,0.0,0.0,0.0,0.0,0.0,0.0,0.0,0.0,0.0
2.438,59,2,438000000,base_footprint,-0.003849342672663145,8.638234608857055e-05,0.99969691685397,0.02431562320289766,0.0,0.0,0.0,0.0,0.0,0.0,0.0,0.0,0.0,0.002385174606148113,7.427965471309611e-06,-0.3124344915212973,0.0,0.0,0.0,0.0,0.0,0.0,0.0,0.0,0.0,0.45808258639103194,-0.0875165161270098,0.005478626529188222,0.0,0.0,0.0,0.0,0.0,0.0,0.0,0.0,0.0
2.475,60,2,472000000,base_footprint,-0.0038575473863889788,0.00011123457460541345,0.9995290858117198,0.030441970557421375,0.0,0.0,0.0,0.0,0.0,0.0,0.0,0.0,0.0,0.0023484642110678158,-0.001229383035029018,-0.40043161414678713,0.0,0.0,0.0,0.0,0.0,0.0,0.0,0.0,0.0,-0.0012240344058551925,-0.07829127455823431,0.0011412702023005153,0.0,0.0,0.0,0.0,0.0,0.0,0.0,0.0,0.0
2.507,61,2,506000000,base_footprint,-0.003850906884350011,0.00013590850634433724,0.9992837020500608,0.037646179914718844,0.0,0.0,0.0,0.0,0.0,0.0,0.0,0.0,0.0,0.0038158397589118237,-2.86488196846184e-05,-0.4568683456199468,0.0,0.0,0.0,0.0,0.0,0.0,0.0,0.0,0.0,0.04027447900623079,-0.0996617347904272,-0.0006144667257940404,0.0,0.0,0.0,0.0,0.0,0.0,0.0,0.0,0.0
2.54,62,2,540000000,base_footprint,-0.0038508131943998498,0.00017230689194648835,0.9989301751461971,0.0460830416798322,0.0,0.0,0.0,0.0,0.0,0.0,0.0,0.0,0.0,0.0035384118038942706,-0.002520782692811272,-0.5240742916500842,0.0,0.0,0.0,0.0,0.0,0.0,0.0,0.0,0.0,-0.07821475160178187,-0.09542985272276092,0.0022211806433757586,0.0,0.0,0.0,0.0,0.0,0.0,0.0,0.0,0.0
2.574,63,2,574000000,base_footprint,-0.003846748009482533,0.00020505902513642124,0.9985160313502648,0.05432214665368867,0.0,0.0,0.0,0.0,0.0,0.0,0.0,0.0,0.0,0.0032972434686450924,-0.0007375898162423741,-0.4309129037657201,0.0,0.0,0.0,0.0,0.0,0.0,0.0,0.0,0.0,-0.375161550152371,-0.0281159018361159,-0.005012080094486791,0.0,0.0,0.0,0.0,0.0,0.0,0.0,0.0,0.0
2.608,64,2,608000000,base_footprint,-0.003844459592793861,0.00023072925462600175,0.9981386571280503,0.06086368409045794,0.0,0.0,0.0,0.0,0.0,0.0,0.0,0.0,0.0,0.0026629987070798397,-0.000656996070487207,-0.3510154645558096,0.0,0.0,0.0,0.0,0.0,0.0,0.0,0.0,0.0,-0.221247925098585,-0.026826868277542867,-0.0016806912979059475,0.0,0.0,0.0,0.0,0.0,0.0,0.0,0.0,0.0
2.6310000000000002,65,2,642000000,base_footprint,-0.003844154466608463,0.0002516206861234244,0.9977761818696869,0.0665420923702942,0.0,0.0,0.0,0.0,0.0,0.0,0.0,0.0,0.0,0.0017005126236218809,0.0012057979550455723,-0.325682970031165,0.0,0.0,0.0,0.0,0.0,0.0,0.0,0.0,0.0,-0.08075700986875688,-0.0482566815702216,-0.00440987750730814,0.0,0.0,0.0,0.0,0.0,0.0,0.0,0.0,0.0
2.676,66,2,676000000,base_footprint,-0.0038421250793382665,0.00027464128129132883,0.9974102088371911,0.0718194817190455,0.0,0.0,0.0,0.0,0.0,0.0,0.0,0.0,0.0,0.0026206062033592506,0.0007937039139402802,-0.27905198703748413,0.0,0.0,0.0,0.0,0.0,0.0,0.0,0.0,0.0,0.02846076667592106,-0.07186508737097806,0.0018328237148545863,0.0,0.0,0.0,0.0,0.0,0.0,0.0,0.0,0.0
2.709,67,2,710000000,base_footprint,-0.0038397658429105766,0.0002911744294679855,0.9970915034233601,0.07611639256209489,0.0,0.0,0.0,0.0,0.0,0.0,0.0,0.0,0.0,0.0018449255146821865,-0.0004376070138853098,-0.24667394797582787,0.0,0.0,0.0,0.0,0.0,0.0,0.0,0.0,0.0,0.2850305080135607,-0.1427669920877417,0.004309277070288521,0.0,0.0,0.0,0.0,0.0,0.0,0.0,0.0,0.0
2.746,68,2,744000000,base_footprint,-0.0038388322244259916,0.00030872905886482566,0.9967214826230824,0.08081741230184021,0.0,0.0,0.0,0.0,0.0,0.0,0.0,0.0,0.0,0.002866379162097645,-0.0003053606234375566,-0.32776425632202066,0.0,0.0,0.0,0.0,0.0,0.0,0.0,0.0,0.0,0.2983308029234664,-0.16072395078807653,0.0017412835581631983,0.0,0.0,0.0,0.0,0.0,0.0,0.0,0.0,0.0
2.778,69,2,778000000,base_footprint,-0.003840439306381744,0.0003288277549319286,0.9962395213988665,0.08655610262251358,0.0,0.0,0.0,0.0,0.0,0.0,0.0,0.0,0.0,0.0023697671743246615,0.0001049615449737535,-0.3210132008930358,0.0,0.0,0.0,0.0,0.0,0.0,0.0,0.0,0.0,-0.012408703183753797,-0.07481973426719545,-5.5435637789738706e-05,0.0,0.0,0.0,0.0,0.0,0.0,0.0,0.0,0.0
2.8120000000000003,70,2,812000000,base_footprint,-0.0038357753540501143,0.0003451467265732295,0.9957339006106931,0.09219092621177453,0.0,0.0,0.0,0.0,0.0,0.0,0.0,0.0,0.0,0.0024658048750198836,-0.0006064141364107442,-0.34305296556175824,0.0,0.0,0.0,0.0,0.0,0.0,0.0,0.0,0.0,-0.06762589720431027,-0.052972519047603264,0.0004915067808515223,0.0,0.0,0.0,0.0,0.0,0.0,0.0,0.0,0.0
2.846,71,2,846000000,base_footprint,-0.003832830645461142,0.0003670492382829303,0.9951837349722512,0.09795156114519085,0.0,0.0,0.0,0.0,0.0,0.0,0.0,0.0,0.0,0.002473057582740918,-0.0007055240677695867,-0.3314321754199232,0.0,0.0,0.0,0.0,0.0,0.0,0.0,0.0,0.0,-0.0048165513055121855,-0.07944033832390045,5.4604680969045923e-05,0.0,0.0,0.0,0.0,0.0,0.0,0.0,0.0,0.0
2.884,72,2,880000000,base_footprint,-0.0038363717256743395,0.0003925665458028253,0.9946604248885434,0.10312985651125442,0.0,0.0,0.0,0.0,0.0,0.0,0.0,0.0,0.0,0.002356829639865918,-0.00029829616733377735,-0.2988439511328455,0.0,0.0,0.0,0.0,0.0,0.0,0.0,0.0,0.0,-0.21694259937021987,0.02067322353344278,-0.0020609637012605053,0.0,0.0,0.0,0.0,0.0,0.0,0.0,0.0,0.0
2.903,73,2,914000000,base_footprint,-0.003833173827356128,0.0004105694901897487,0.9940908677704925,0.10848264758205486,0.0,0.0,0.0,0.0,0.0,0.0,0.0,0.0,0.0,0.002579239236696242,-8.566354871693868e-05,-0.29514197586793145,0.0,0.0,0.0,0.0,0.0,0.0,0.0,0.0,0.0,-0.09420888476273362,-0.030701637562509015,-0.0014767483580416965,0.0,0.0,0.0,0.0,0.0,0.0,0.0,0.0,0.0
2.948,74,2,948000000,base_footprint,-0.003830330525969784,0.00042908429599244305,0.9935335401572388,0.11347356096180769,0.0,0.0,0.0,0.0,0.0,0.0,0.0,0.0,0.0,0.0021859248898448303,-0.0005979761055382026,-0.2956268891354922,0.0,0.0,0.0,0.0,0.0,0.0,0.0,0.0,0.0,-0.026716437229364846,-0.05636891599375122,0.0007149138534232967,0.0,0.0,0.0,0.0,0.0,0.0,0.0,0.0,0.0
2.986,75,2,982000000,base_footprint,-0.0038294371926912217,0.00044572163987733205,0.9930205363169545,0.11787854425549735,0.0,0.0,0.0,0.0,0.0,0.0,0.0,0.0,0.0,0.0009215029591401424,-0.000841162090404579,-0.20858686177720992,0.0,0.0,0.0,0.0,0.0,0.0,0.0,0.0,0.0,-0.06320112789902259,-0.030674027903420498,6.035389092220615e-05,0.0,0.0,0.0,0.0,0.0,0.0,0.0,0.0,0.0
3.016,76,3,16000000,base_footprint,-0.003827575066561984,0.0004573403468405065,0.9926391411148172,0.12104823846613817,0.0,0.0,0.0,0.0,0.0,0.0,0.0,0.0,0.0,0.0008898466249951187,-0.0008887114521681373,-0.16694080975698367,0.0,0.0,0.0,0.0,0.0,0.0,0.0,0.0,0.0,-0.009370934228372173,-0.04002292807661918,0.00027088187123479394,0.0,0.0,0.0,0.0,0.0,0.0,0.0,0.0,0.0
3.054,77,3,50000000,base_footprint,-0.003825873391959795,0.00046483281965386614,0.9923325064867227,0.12353680906117398,0.0,0.0,0.0,0.0,0.0,0.0,0.0,0.0,0.0,0.0008191126554946502,-0.0002447642503052667,-0.09541740510439999,0.0,0.0,0.0,0.0,0.0,0.0,0.0,0.0,0.0,0.1890905300300697,-0.13785833977731166,0.0011261298401507738,0.0,0.0,0.0,0.0,0.0,0.0,0.0,0.0,0.0
3.084,78,3,84000000,base_footprint,-0.0038287964800419647,0.00047175404415292574,0.9921500791431614,0.12499335271067334,0.0,0.0,0.0,0.0,0.0,0.0,0.0,0.0,0.0,0.0005864831941929786,-0.00014031308309022387,-0.08927441512958133,0.0,0.0,0.0,0.0,0.0,0.0,0.0,0.0,0.0,0.0639497252227887,-0.05639532252749773,0.00038063110085716635,0.0,0.0,0.0,0.0,0.0,0.0,0.0,0.0,0.0
3.122,79,3,118000000,base_footprint,-0.00382288647355677,0.0004806471263562066,0.991970049290685,0.12641430230629072,0.0,0.0,0.0,0.0,0.0,0.0,0.0,0.0,0.0,0.0004096671887700549,0.0005393903631446463,-0.08884927380326003,0.0,0.0,0.0,0.0,0.0,0.0,0.0,0.0,0.0,-0.009943466422346873,-0.01667246758413766,-0.0012168306199977549,0.0,0.0,0.0,0.0,0.0,0.0,0.0,0.0,0.0
3.153,80,3,152000000,base_footprint,-0.0038246998710703087,0.0004854743427117094,0.9917760070175522,0.12792766663188745,0.0,0.0,0.0,0.0,0.0,0.0,0.0,0.0,0.0,0.0005225119247134981,-0.00018468232536832257,-0.08924149404819781,0.0,0.0,0.0,0.0,0.0,0.0,0.0,0.0,0.0,-0.007820252517222638,-0.018068465044856923,0.001175119344954571,0.0,0.0,0.0,0.0,0.0,0.0,0.0,0.0,0.0
3.186,81,3,186000000,base_footprint,-0.003822192714390562,0.0004946247224140031,0.991421650583958,0.13064553931389428,0.0,0.0,0.0,0.0,0.0,0.0,0.0,0.0,0.0,0.0026183148726386316,0.0023130878316401406,-0.2967041921559889,0.0,0.0,0.0,0.0,0.0,0.0,0.0,0.0,0.0,-0.09025705644619075,0.01430488081867683,-0.0046597033041565535,0.0,0.0,0.0,0.0,0.0,0.0,0.0,0.0,0.0
3.215,82,3,220000000,base_footprint,-0.003819392697133552,0.0005199491106266419,0.9906632668741854,0.1362770470714493,0.0,0.0,0.0,0.0,0.0,0.0,0.0,0.0,0.0,0.0023885198898150693,-0.0004742026878747066,-0.30571323056395594,0.0,0.0,0.0,0.0,0.0,0.0,0.0,0.0,0.0,0.011034478208404691,-0.0926088427196468,0.004096024509268003,0.0,0.0,0.0,0.0,0.0,0.0,0.0,0.0,0.0
3.254,83,3,254000000,base_footprint,-0.0038176866562876096,0.0005375157418121553,0.9900132523678619,0.14092159693045617,0.0,0.0,0.0,0.0,0.0,0.0,0.0,0.0,0.0,0.00203224904866139,-0.0008081575252038589,-0.2696534881584549,0.0,0.0,0.0,0.0,0.0,0.0,0.0,0.0,0.0,0.03283414536647888,-0.09280839877903398,0.0007735341961709109,0.0,0.0,0.0,0.0,0.0,0.0,0.0,0.0,0.0
3.2880000000000003,84,3,288000000,base_footprint,-0.003816408730159014,0.000547439607248683,0.9894751242677637,0.14465169819111856,0.0,0.0,0.0,0.0,0.0,0.0,0.0,0.0,0.0,0.000819740446210199,-0.000629836336530775,-0.12967012407060205,0.0,0.0,0.0,0.0,0.0,0.0,0.0,0.0,0.0,-0.40405130218876917,0.20442753192440588,-0.0030057216857006844,0.0,0.0,0.0,0.0,0.0,0.0,0.0,0.0,0.0
3.327,85,3,322000000,base_footprint,-0.003813395614187445,0.0005554307979713168,0.989272355348887,0.14603203913177304,0.0,0.0,0.0,0.0,0.0,0.0,0.0,0.0,0.0,0.0012991033825134007,-0.00021116390371011526,-0.09060704925239188,0.0,0.0,0.0,0.0,0.0,0.0,0.0,0.0,0.0,-0.2201792409698534,0.12467008689844469,-0.003187509506511234,0.0,0.0,0.0,0.0,0.0,0.0,0.0,0.0,0.0
3.365,86,3,356000000,base_footprint,-0.0038098204550873712,0.000560480150467672,0.9889631088734455,0.14811191855306818,0.0,0.0,0.0,0.0,0.0,0.0,0.0,0.0,0.0,0.0010038251302440988,-0.00035846983634576444,-0.13796524677392907,0.0,0.0,0.0,0.0,0.0,0.0,0.0,0.0,0.0,0.021438875349348938,-0.04262641079072316,0.001088162104769413,0.0,0.0,0.0,0.0,0.0,0.0,0.0,0.0,0.0
3.395,87,3,390000000,base_footprint,-0.003808400809666876,0.0005680762967483045,0.9886463641579113,0.15021165071304216,0.0,0.0,0.0,0.0,0.0,0.0,0.0,0.0,0.0,0.0007032436336263687,-0.0004129347499083414,-0.106192390715196,0.0,0.0,0.0,0.0,0.0,0.0,0.0,0.0,0.0,0.04122637448891301,-0.05923599701442389,0.0005098429177655278,0.0,0.0,0.0,0.0,0.0,0.0,0.0,0.0,0.0
3.427,88,3,424000000,base_footprint,-0.003808017039007723,0.000572488318435534,0.9884595721896191,0.15143594490764486,0.0,0.0,0.0,0.0,0.0,0.0,0.0,0.0,0.0,0.00016962386115670314,-0.00015991059252684983,-0.03548471601076332,0.0,0.0,0.0,0.0,0.0,0.0,0.0,0.0,0.0,0.11291593248064152,-0.09782868931509636,0.0007911873108915051,0.0,0.0,0.0,0.0,0.0,0.0,0.0,0.0,0.0
3.464,89,3,458000000,base_footprint,-0.0038116173919087847,0.0005762361812557521,0.9884111535692652,0.1517515437305183,0.0,0.0,0.0,0.0,0.0,0.0,0.0,0.0,0.0,5.613699235938338e-06,-0.00012465717721329273,-0.017397533848278017,0.0,0.0,0.0,0.0,0.0,0.0,0.0,0.0,0.0,0.029577817517066413,-0.02565561151883671,0.0002634376090888571,0.0,0.0,0.0,0.0,0.0,0.0,0.0,0.0,0.0
3.492,90,3,492000000,base_footprint,-0.0038118395321602096,0.0005759979850938743,0.9883341311371495,0.15225236725607266,0.0,0.0,0.0,0.0,0.0,0.0,0.0,0.0,0.0,0.0005729092531457826,-9.828017741835186e-05,-0.0644171172317021,0.0,0.0,0.0,0.0,0.0,0.0,0.0,0.0,0.0,0.21212868208013014,-0.15535404233829297,0.0018533989386878354,0.0,0.0,0.0,0.0,0.0,0.0,0.0,0.0,0.0
3.533,91,3,526000000,base_footprint,-0.0038100776950448353,0.0005850263101567614,0.9880882720409084,0.15383987684402922,0.0,0.0,0.0,0.0,0.0,0.0,0.0,0.0,0.0,0.0006691572027419368,-3.2101062318790654e-05,-0.10293574410663636,0.0,0.0,0.0,0.0,0.0,0.0,0.0,0.0,0.0,0.07237596601145582,-0.07536128100730471,0.0003169980126797684,0.0,0.0,0.0,0.0,0.0,0.0,0.0,0.0,0.0
3.56,92,3,560000000,base_footprint,-0.0038097483728262668,0.000591128108085946,0.9878329124875113,0.15547113362723172,0.0,0.0,0.0,0.0,0.0,0.0,0.0,0.0,0.0,0.0005064472211069999,-0.0006240441430041741,-0.09289964409145544,0.0,0.0,0.0,0.0,0.0,0.0,0.0,0.0,0.0,-0.03414859731061936,-0.003168830308225132,0.0008727862717539906,0.0,0.0,0.0,0.0,0.0,0.0,0.0,0.0,0.0
3.5940000000000003,93,3,594000000,base_footprint,-0.003812196108354226,0.0006036819715578941,0.9873055195007943,0.15878574839126947,0.0,0.0,0.0,0.0,0.0,0.0,0.0,0.0,0.0,0.0019567954301754334,-0.0021028209320341504,-0.314637711943701,0.0,0.0,0.0,0.0,0.0,0.0,0.0,0.0,0.0,-0.3854488911667135,0.23498246146274115,-0.0019259342270365881,0.0,0.0,0.0,0.0,0.0,0.0,0.0,0.0,0.0
3.628,94,3,628000000,base_footprint,-0.0038031567569167977,0.000618998492960316,0.9867108403068298,0.16244035970330123,0.0,0.0,0.0,0.0,0.0,0.0,0.0,0.0,0.0,0.0019142426240391839,0.002751991868383115,-0.12083754162661113,0.0,0.0,0.0,0.0,0.0,0.0,0.0,0.0,0.0,0.061747340466403386,-0.10679572792498918,-0.005354868073826784,0.0,0.0,0.0,0.0,0.0,0.0,0.0,0.0,0.0
3.664,95,3,662000000,base_footprint,-0.0038033287019438424,0.0006258316290295695,0.9864101984124465,0.16425609119139245,0.0,0.0,0.0,0.0,0.0,0.0,0.0,0.0,0.0,0.0006598125972285499,-0.00033008473139767736,-0.10630992464462179,0.0,0.0,0.0,0.0,0.0,0.0,0.0,0.0,0.0,-3.7820867810122415e-05,-0.02843156925320648,0.004184071490607474,0.0,0.0,0.0,0.0,0.0,0.0,0.0,0.0,0.0
3.702,96,3,696000000,base_footprint,-0.0038020522553806,0.0006323679963631033,0.9861492868961345,0.16581534447574567,0.0,0.0,0.0,0.0,0.0,0.0,0.0,0.0,0.0,0.0007459339564004654,-0.0003485952022221581,-0.07380676816897633,0.0,0.0,0.0,0.0,0.0,0.0,0.0,0.0,0.0,0.24947938554510699,-0.22133498027644724,0.002216577474198642,0.0,0.0,0.0,0.0,0.0,0.0,0.0,0.0,0.0
3.731,97,3,730000000,base_footprint,-0.003801452020694128,0.0006379556097566632,0.9859396457638335,0.1670573461008552,0.0,0.0,0.0,0.0,0.0,0.0,0.0,0.0,0.0,0.0005538486826750574,-0.00035379216313599995,-0.07402762519691337,0.0,0.0,0.0,0.0,0.0,0.0,0.0,0.0,0.0,-0.009230392462974791,-0.01346565199839351,8.261388623555244e-05,0.0,0.0,0.0,0.0,0.0,0.0,0.0,0.0,0.0
3.7640000000000002,98,3,764000000,base_footprint,-0.00380096125232114,0.0006433678129158084,0.9857273958192748,0.16830519868015503,0.0,0.0,0.0,0.0,0.0,0.0,0.0,0.0,0.0,0.0006084652136860168,-0.0003909910056910475,-0.07454791989167545,0.0,0.0,0.0,0.0,0.0,0.0,0.0,0.0,0.0,-0.009996400048809901,-0.012990868562126084,-3.887029522100563e-05,0.0,0.0,0.0,0.0,0.0,0.0,0.0,0.0,0.0
3.799,99,3,798000000,base_footprint,-0.0038009456187339356,0.0006378098789891674,0.9857831046872739,0.16797861924685797,0.0,0.0,0.0,0.0,0.0,0.0,0.0,0.0,0.0,-0.0016080280121245445,-0.0009441718811224637,0.11246430237169801,0.0,0.0,0.0,0.0,0.0,0.0,0.0,0.0,0.0,-0.5044999363476441,0.4060482085714467,-0.003676158949734068,0.0,0.0,0.0,0.0,0.0,0.0,0.0,0.0,0.0
3.834,100,3,832000000,base_footprint,-0.0037994251376855495,0.0006376514795731911,0.9858437555871618,0.16762233544195237,0.0,0.0,0.0,0.0,0.0,0.0,0.0,0.0,0.0,0.0008704005800909716,-6.629027472280821e-05,-0.008006939628051633,0.0,0.0,0.0,0.0,0.0,0.0,0.0,0.0,0.0,0.009926188503052156,-0.0006069909744463467,-0.002002340956714455,0.0,0.0,0.0,0.0,0.0,0.0,0.0,0.0,0.0
3.867,101,3,866000000,base_footprint,-0.003797680681025803,0.0006383931414804061,0.9857674529257646,0.16807051742614648,0.0,0.0,0.0,0.0,0.0,0.0,0.0,0.0,0.0,-0.002443928130850538,-0.0021070806597398867,-0.05073856248298142,0.0,0.0,0.0,0.0,0.0,0.0,0.0,0.0,0.0,-0.04943409660579372,0.03454381345627586,0.000915140937935286,0.0,0.0,0.0,0.0,0.0,0.0,0.0,0.0,0.0
3.9,102,3,900000000,base_footprint,-0.0037953862169430507,0.0006433438778272847,0.9854186707983362,0.17010356961027984,0.0,0.0,0.0,0.0,0.0,0.0,0.0,0.0,0.0,-0.000773004886203353,-0.0005829358476461603,-0.13547715273267527,0.0,0.0,0.0,0.0,0.0,0.0,0.0,0.0,0.0,0.17572826029643615,-0.1732710666600828,0.001016498453340088,0.0,0.0,0.0,0.0,0.0,0.0,0.0,0.0,0.0
3.942,103,3,934000000,base_footprint,-0.003795667683292097,0.0006540305140374183,0.9849670927224408,0.17269913550689173,0.0,0.0,0.0,0.0,0.0,0.0,0.0,0.0,0.0,0.000796916959410025,-0.0003529746867616511,-0.12619796868315403,0.0,0.0,0.0,0.0,0.0,0.0,0.0,0.0,0.0,0.1624606402483651,-0.17683937670536762,0.0018564547416290466,0.0,0.0,0.0,0.0,0.0,0.0,0.0,0.0,0.0
3.9690000000000003,104,3,968000000,base_footprint,-0.0037999770296996555,0.0006676069805769914,0.984743205545611,0.1739710711792276,0.0,0.0,0.0,0.0,0.0,0.0,0.0,0.0,0.0,0.0055379301461423855,-0.0009807002059998478,-0.04297435608456106,0.0,0.0,0.0,0.0,0.0,0.0,0.0,0.0,0.0,0.0997007538673136,-0.10610058384595933,-0.0004095336146613728,0.0,0.0,0.0,0.0,0.0,0.0,0.0,0.0,0.0
4.002,105,4,2000000,base_footprint,-0.0037869650853200134,0.0006704467766168793,0.9844021052859059,0.17589117233459647,0.0,0.0,0.0,0.0,0.0,0.0,0.0,0.0,0.0,0.0006780481395484651,-0.0003525799962270415,-0.12411206550880857,0.0,0.0,0.0,0.0,0.0,0.0,0.0,0.0,0.0,-0.3181014988134701,0.24083958728586502,-0.0012324274625767357,0.0,0.0,0.0,0.0,0.0,0.0,0.0,0.0,0.0
4.032,106,4,36000000,base_footprint,-0.003797117975384473,0.0006718694337334867,0.9842910261234448,0.1765114907857311,0.0,0.0,0.0,0.0,0.0,0.0,0.0,0.0,0.0,8.518153406997719e-05,-0.00016996247904358695,-0.008391618003931713,0.0,0.0,0.0,0.0,0.0,0.0,0.0,0.0,0.0,0.057159016840025126,-0.06162894630274504,0.000586973461301971,0.0,0.0,0.0,0.0,0.0,0.0,0.0,0.0,0.0
4.069,107,4,70000000,base_footprint,-0.0037877758248451303,0.0006737885143600771,0.9842663649763446,0.17664914814284288,0.0,0.0,0.0,0.0,0.0,0.0,0.0,0.0,0.0,-0.0001535353135092021,-0.0014205336348710538,0.009231525768350091,0.0,0.0,0.0,0.0,0.0,0.0,0.0,0.0,0.0,0.05734596421865738,-0.0517147469766034,0.002534239598341581,0.0,0.0,0.0,0.0,0.0,0.0,0.0,0.0,0.0
4.105,108,4,104000000,base_footprint,-0.0037893431936055324,0.0006733571363331456,0.9843927772793908,0.17594330765475527,0.0,0.0,0.0,0.0,0.0,0.0,0.0,0.0,0.0,-0.0003427230650385883,-0.00011766658012602482,0.021051245633228285,0.0,0.0,0.0,0.0,0.0,0.0,0.0,0.0,0.0,0.20047603243767165,-0.1598655631706175,-1.8050591516855603e-05,0.0,0.0,0.0,0.0,0.0,0.0,0.0,0.0,0.0
4.139,109,4,138000000,base_footprint,-0.0037957465298835893,0.0006703147207517962,0.9844261871698021,0.17575615209938433,0.0,0.0,0.0,0.0,0.0,0.0,0.0,0.0,0.0,-0.0002681233994318616,-9.304658412994056e-05,0.011114450707988575,0.0,0.0,0.0,0.0,0.0,0.0,0.0,0.0,0.0,0.022297445875749257,-0.016145747647291733,0.00012087319959365728,0.0,0.0,0.0,0.0,0.0,0.0,0.0,0.0,0.0
4.168,110,4,172000000,base_footprint,-0.0038038983116825686,0.0006677249141796206,0.9844586282026659,0.17557418334823208,0.0,0.0,0.0,0.0,0.0,0.0,0.0,0.0,0.0,-0.0006214641465152356,-0.0005339110168941062,0.011445477923005716,0.0,0.0,0.0,0.0,0.0,0.0,0.0,0.0,0.0,-0.12466184935870137,0.10912259142286078,-0.0006430191935211283,0.0,0.0,0.0,0.0,0.0,0.0,0.0,0.0,0.0
4.207,111,4,206000000,base_footprint,-0.0037957472669518455,0.0006673463523745425,0.9846137061624823,0.17470259468168306,0.0,0.0,0.0,0.0,0.0,0.0,0.0,0.0,0.0,-0.00040290460080901456,0.00010653617140940716,0.06038092078694215,0.0,0.0,0.0,0.0,0.0,0.0,0.0,0.0,0.0,-0.13472178387026618,0.1283242091965724,-0.0021457383705345994,0.0,0.0,0.0,0.0,0.0,0.0,0.0,0.0,0.0
4.24,112,4,240000000,base_footprint,-0.00378972413245145,0.0006620745270716258,0.984753386888252,0.17391367588673795,0.0,0.0,0.0,0.0,0.0,0.0,0.0,0.0,0.0,0.000853131676679461,0.0006128624507399273,-0.03792010363276755,0.0,0.0,0.0,0.0,0.0,0.0,0.0,0.0,0.0,0.03995732395318085,-0.019027389272255064,-0.0003532495699557119,0.0,0.0,0.0,0.0,0.0,0.0,0.0,0.0,0.0
4.273,113,4,274000000,base_footprint,-0.003797807245229148,0.0006713490591641383,0.9845407913083519,0.1751129812449471,0.0,0.0,0.0,0.0,0.0,0.0,0.0,0.0,0.0,0.0009212693662131414,0.000569132075689282,-0.07743348569878067,0.0,0.0,0.0,0.0,0.0,0.0,0.0,0.0,0.0,0.012960087004502425,-0.03006889215160555,-0.0003183426787350471,0.0,0.0,0.0,0.0,0.0,0.0,0.0,0.0,0.0
4.305,114,4,308000000,base_footprint,-0.003797099544296154,0.0006747748119152028,0.9843603616731756,0.17612440228616505,0.0,0.0,0.0,0.0,0.0,0.0,0.0,0.0,0.0,0.00030027237061631344,-0.00026000125545286485,-0.05348801474492139,0.0,0.0,0.0,0.0,0.0,0.0,0.0,0.0,0.0,0.030791053004648898,-0.042918981654551325,0.0018828510148904782,0.0,0.0,0.0,0.0,0.0,0.0,0.0,0.0,0.0
4.342,115,4,342000000,base_footprint,-0.003792122308452197,0.0006724896193424225,0.9841732862385618,0.17716689933647214,0.0,0.0,0.0,0.0,0.0,0.0,0.0,0.0,0.0,8.970332159509511e-05,-0.0006000766038151013,-0.07072505320249795,0.0,0.0,0.0,0.0,0.0,0.0,0.0,0.0,0.0,-0.03475667703512009,0.012461015007797054,0.00011846195245031389,0.0,0.0,0.0,0.0,0.0,0.0,0.0,0.0,0.0
4.375,116,4,376000000,base_footprint,-0.0037911529921535675,0.0006760779780775899,0.9839756805559564,0.1782611291112011,0.0,0.0,0.0,0.0,0.0,0.0,0.0,0.0,0.0,0.0002285227374054957,-0.00020586694240255,-0.053189502529074444,0.0,0.0,0.0,0.0,0.0,0.0,0.0,0.0,0.0,0.018952761365027066,-0.035235904696865175,-0.0004014727689066177,0.0,0.0,0.0,0.0,0.0,0.0,0.0,0.0,0.0
4.41,117,4,410000000,base_footprint,-0.003791224934874685,0.0006772526274331128,0.9838988339213044,0.17868478544820038,0.0,0.0,0.0,0.0,0.0,0.0,0.0,0.0,0.0,-0.00017781006049970028,-3.877530455583714e-05,0.007455609197920532,0.0,0.0,0.0,0.0,0.0,0.0,0.0,0.0,0.0,0.092582751228976,-0.08934524401686168,0.0007905758818835439,0.0,0.0,0.0,0.0,0.0,0.0,0.0,0.0,0.0
4.445,118,4,444000000,base_footprint,-0.0037950846967180524,0.0006771587269399369,0.9840216184292166,0.1780072842671011,0.0,0.0,0.0,0.0,0.0,0.0,0.0,0.0,0.0,-0.00034115642841222454,0.00017093526419756873,0.05030821783141906,0.0,0.0,0.0,0.0,0.0,0.0,0.0,0.0,0.0,0.07250901881805867,-0.052146558502407354,0.0004428101576576081,0.0,0.0,0.0,0.0,0.0,0.0,0.0,0.0,0.0
4.48,119,4,478000000,base_footprint,-0.003794372617887291,0.0006809868110741582,0.9841310893058286,0.1774010655411156,0.0,0.0,0.0,0.0,0.0,0.0,0.0,0.0,0.0,0.0005462738081921832,3.967057232770845e-05,-0.02123668566940551,0.0,0.0,0.0,0.0,0.0,0.0,0.0,0.0,0.0,-0.15443263240615002,0.1459796779076561,-0.0013758665209402448,0.0,0.0,0.0,0.0,0.0,0.0,0.0,0.0,0.0
4.511,120,4,512000000,base_footprint,-0.0037867166613302786,0.0006826518351957284,0.9838683905885257,0.17885241056285248,0.0,0.0,0.0,0.0,0.0,0.0,0.0,0.0,0.0,-0.0004479637551567607,2.6103101483172954e-05,-0.04226575925939847,0.0,0.0,0.0,0.0,0.0,0.0,0.0,0.0,0.0,-0.15706935284357074,0.11413585828117684,-0.0017905291216116536,0.0,0.0,0.0,0.0,0.0,0.0,0.0,0.0,0.0
4.5440000000000005,121,4,546000000,base_footprint,-0.0037991271161189727,0.0006772338836901636,0.9839634671148091,0.17832835829117683,0.0,0.0,0.0,0.0,0.0,0.0,0.0,0.0,0.0,-0.0006773149721436026,-0.000620011767275466,0.058787331351622805,0.0,0.0,0.0,0.0,0.0,0.0,0.0,0.0,0.0,0.05035091961507961,-0.038386724670406686,0.0022961832210349714,0.0,0.0,0.0,0.0,0.0,0.0,0.0,0.0,0.0
4.58,122,4,580000000,base_footprint,-0.003787198822159274,0.0006766431428819025,0.9842035252120332,0.17699892722653798,0.0,0.0,0.0,0.0,0.0,0.0,0.0,0.0,0.0,-0.0010144594622599032,4.2614751439271656e-06,0.12848956280401358,0.0,0.0,0.0,0.0,0.0,0.0,0.0,0.0,0.0,0.15207643646820895,-0.11018403207019138,0.0006037616102945063,0.0,0.0,0.0,0.0,0.0,0.0,0.0,0.0,0.0
4.614,123,4,614000000,base_footprint,-0.0037959997845857046,0.000666285017793181,0.9845960377668401,0.1748021420456562,0.0,0.0,0.0,0.0,0.0,0.0,0.0,0.0,0.0,-0.0010966789680788346,2.3612394956410245e-06,0.1261697647233737,0.0,0.0,0.0,0.0,0.0,0.0,0.0,0.0,0.0,0.11847633717287474,-0.06358971305846092,0.0009692215879996012,0.0,0.0,0.0,0.0,0.0,0.0,0.0,0.0,0.0
4.645,124,4,648000000,base_footprint,-0.0037974378787008142,0.0006587489512796055,0.9849669696546657,0.17269978055771107,0.0,0.0,0.0,0.0,0.0,0.0,0.0,0.0,0.0,-0.0010217205865590123,0.00023559908246969377,0.1257898576231743,0.0,0.0,0.0,0.0,0.0,0.0,0.0,0.0,0.0,0.019334679073299502,0.019610731960770563,-0.00029197589040007353,0.0,0.0,0.0,0.0,0.0,0.0,0.0,0.0,0.0
4.684,125,4,682000000,base_footprint,-0.003797021863779848,0.0006490542327953228,0.9853256386391114,0.17064157522127008,0.0,0.0,0.0,0.0,0.0,0.0,0.0,0.0,0.0,0.00017436875455707236,0.0015769936683428297,0.08821813150992484,0.0,0.0,0.0,0.0,0.0,0.0,0.0,0.0,0.0,-0.2012952641833921,0.2002932871793834,-0.003820451451760282,0.0,0.0,0.0,0.0,0.0,0.0,0.0,0.0,0.0
4.7170000000000005,126,4,716000000,base_footprint,-0.003799837243931976,0.0006475492374794865,0.9855264482366086,0.16947790930690612,0.0,0.0,0.0,0.0,0.0,0.0,0.0,0.0,0.0,-0.00048740522621717916,2.9176314337724923e-05,0.06866965969078655,0.0,0.0,0.0,0.0,0.0,0.0,0.0,0.0,0.0,-0.022671583879191735,0.03720446833603921,0.0014896426864165352,0.0,0.0,0.0,0.0,0.0,0.0,0.0,0.0,0.0
4.75,127,4,750000000,base_footprint,-0.00380100345508143,0.0006437896223791355,0.9857223144605497,0.16833495383369979,0.0,0.0,0.0,0.0,0.0,0.0,0.0,0.0,0.0,-0.0004145758110796116,-8.354182399204974e-06,0.06807261486515233,0.0,0.0,0.0,0.0,0.0,0.0,0.0,0.0,0.0,0.008909400416028791,0.011071186066610042,2.8890858143630523e-05,0.0,0.0,0.0,0.0,0.0,0.0,0.0,0.0,0.0
4.781,128,4,784000000,base_footprint,-0.00379751749951086,0.0006371792436267847,0.9857987387534002,0.16788692485020373,0.0,0.0,0.0,0.0,0.0,0.0,0.0,0.0,0.0,-0.0003216542807919861,-0.001036061229841727,-0.032698532704763805,0.0,0.0,0.0,0.0,0.0,0.0,0.0,0.0,0.0,0.040232506387775265,-0.023434850807149257,0.0015513762004732928,0.0,0.0,0.0,0.0,0.0,0.0,0.0,0.0,0.0
4.818,129,4,818000000,base_footprint,-0.003797205958962824,0.0006407258489759926,0.9856269969471336,0.1688922543702548,0.0,0.0,0.0,0.0,0.0,0.0,0.0,0.0,0.0,0.0004747424247794191,-0.00027510469686682724,-0.07670431011931507,0.0,0.0,0.0,0.0,0.0,0.0,0.0,0.0,0.0,-0.02872623806214285,0.007881621062742563,-0.0012015744587762572,0.0,0.0,0.0,0.0,0.0,0.0,0.0,0.0,0.0
4.852,130,4,852000000,base_footprint,-0.0037962922738034675,0.0006447427503844932,0.9854223892250875,0.17008200165119747,0.0,0.0,0.0,0.0,0.0,0.0,0.0,0.0,0.0,0.00033505592681245546,-0.0003132778747869661,-0.058495841437530394,0.0,0.0,0.0,0.0,0.0,0.0,0.0,0.0,0.0,0.020756378134096976,-0.03656872318198712,0.00022854461692173975,0.0,0.0,0.0,0.0,0.0,0.0,0.0,0.0,0.0
4.886,131,4,886000000,base_footprint,-0.0037962463727103323,0.0006459316202108087,0.9853498364433855,0.1705018214178762,0.0,0.0,0.0,0.0,0.0,0.0,0.0,0.0,0.0,-0.00018675742034266856,-5.8966523316164306e-05,0.0114907150145747,0.0,0.0,0.0,0.0,0.0,0.0,0.0,0.0,0.0,0.08596642911139066,-0.07812317169482344,0.000600066306264398,0.0,0.0,0.0,0.0,0.0,0.0,0.0,0.0,0.0
4.93,132,4,920000000,base_footprint,-0.003801064402505142,0.0006450601205287128,0.9855171030753588,0.16953222511605778,0.0,0.0,0.0,0.0,0.0,0.0,0.0,0.0,0.0,-0.0002852621435420682,0.00040024823307530485,0.08871333656527187,0.0,0.0,0.0,0.0,0.0,0.0,0.0,0.0,0.0,0.13347207681176962,-0.09364920761782813,0.0004629891917160827,0.0,0.0,0.0,0.0,0.0,0.0,0.0,0.0,0.0
4.954,133,4,954000000,base_footprint,-0.0038018345103614025,0.0006386103176859484,0.9857726503088092,0.16803993612937432,0.0,0.0,0.0,0.0,0.0,0.0,0.0,0.0,0.0,-0.0007218519728399292,0.0001537035816548034,0.0890544637065222,0.0,0.0,0.0,0.0,0.0,0.0,0.0,0.0,0.0,0.012100049737407253,0.016329501318795552,0.0006799170474743728,0.0,0.0,0.0,0.0,0.0,0.0,0.0,0.0,0.0
4.988,134,4,988000000,base_footprint,-0.0038004870614881964,0.0006420330463534284,0.9858811289666422,0.1674023406022803,0.0,0.0,0.0,0.0,0.0,0.0,0.0,0.0,0.0,0.00022684861244122407,-0.0004760353170963173,-0.06113356961334442,0.0,0.0,0.0,0.0,0.0,0.0,0.0,0.0,0.0,-0.29353267199584193,0.24667615202655485,-0.0020601150654769337,0.0,0.0,0.0,0.0,0.0,0.0,0.0,0.0,0.0
5.024,135,5,22000000,base_footprint,-0.003798446260697297,0.0006399553109792366,0.9857522925385594,0.16815938873039213,0.0,0.0,0.0,0.0,0.0,0.0,0.0,0.0,0.0,-0.0006988635375353698,0.001019678085182793,0.05589161386611698,0.0,0.0,0.0,0.0,0.0,0.0,0.0,0.0,0.0,0.044620464794180886,-0.051126789449753164,-0.0017277868313503046,0.0,0.0,0.0,0.0,0.0,0.0,0.0,0.0,0.0
5.056,136,5,56000000,base_footprint,-0.0038014711084061992,0.000634765030358781,0.9860085662250826,0.16665009217376744,0.0,0.0,0.0,0.0,0.0,0.0,0.0,0.0,0.0,-0.0013380279503046846,-0.0014653951829292256,0.1080573357531359,0.0,0.0,0.0,0.0,0.0,0.0,0.0,0.0,0.0,-0.026979867534434505,0.04597729020977033,0.0038702811412223903,0.0,0.0,0.0,0.0,0.0,0.0,0.0,0.0,0.0
5.091,137,5,90000000,base_footprint,-0.0037962078650094887,0.0006351885450033568,0.9861053002909319,0.16607685594172625,0.0,0.0,0.0,0.0,0.0,0.0,0.0,0.0,0.0,-0.00014181384838946525,-5.867491585189202e-05,-0.028420530930430097,0.0,0.0,0.0,0.0,0.0,0.0,0.0,0.0,0.0,0.017463792430347166,-0.0030245212912564036,-0.0028215482772045793,0.0,0.0,0.0,0.0,0.0,0.0,0.0,0.0,0.0
5.124,138,5,124000000,base_footprint,-0.0038007587923549247,0.0006329160362335874,0.9861445943157301,0.16584327768033746,0.0,0.0,0.0,0.0,0.0,0.0,0.0,0.0,0.0,-0.0006994756505781009,0.00022623336612087,0.08870249467472201,0.0,0.0,0.0,0.0,0.0,0.0,0.0,0.0,0.0,0.23149256414451422,-0.1806553189715331,0.002513034092364287,0.0,0.0,0.0,0.0,0.0,0.0,0.0,0.0,0.0
5.158,139,5,158000000,base_footprint,-0.003803349048674868,0.0006256976194620942,0.9864529047557198,0.1639994199303946,0.0,0.0,0.0,0.0,0.0,0.0,0.0,0.0,0.0,-0.0008540111175783097,0.00015361029105009916,0.11151551162907324,0.0,0.0,0.0,0.0,0.0,0.0,0.0,0.0,0.0,0.053742807838733586,-0.011494897946707756,0.0004188673571977949,0.0,0.0,0.0,0.0,0.0,0.0,0.0,0.0,0.0
5.192,140,5,192000000,base_footprint,-0.003804231446203296,0.0006152986333098772,0.986780337016605,0.16201764011394354,0.0,0.0,0.0,0.0,0.0,0.0,0.0,0.0,0.0,-0.0006141755091798983,0.0004678184805204966,0.0857150804739705,0.0,0.0,0.0,0.0,0.0,0.0,0.0,0.0,0.0,-0.310418527627564,0.2699124281335507,-0.0034036148023172865,0.0,0.0,0.0,0.0,0.0,0.0,0.0,0.0,0.0
5.226,141,5,226000000,base_footprint,-0.0038060354654205495,0.000613978996809381,0.9870093184210754,0.16061675651622304,0.0,0.0,0.0,0.0,0.0,0.0,0.0,0.0,0.0,-0.001582784339299539,0.00010318324614864315,0.1090233282211864,0.0,0.0,0.0,0.0,0.0,0.0,0.0,0.0,0.0,0.07110600713212796,-0.03321844376045976,0.0022599064501946206,0.0,0.0,0.0,0.0,0.0,0.0,0.0,0.0,0.0
5.26,142,5,260000000,base_footprint,-0.0038081361397846827,0.0006082310539989256,0.9872971713712081,0.1588377271196525,0.0,0.0,0.0,0.0,0.0,0.0,0.0,0.0,0.0,-0.0005764097841953998,8.53638620093859e-05,0.10479151140411551,0.0,0.0,0.0,0.0,0.0,0.0,0.0,0.0,0.0,0.007129219141145747,0.022425454118662844,-0.0012669769812072916,0.0,0.0,0.0,0.0,0.0,0.0,0.0,0.0,0.0
5.295,143,5,294000000,base_footprint,-0.003809487918931976,0.0006065817581271077,0.9873783234726118,0.15833245465406168,0.0,0.0,0.0,0.0,0.0,0.0,0.0,0.0,0.0,-0.0005806179256962364,-0.0008340875360184276,-0.013281075932779812,0.0,0.0,0.0,0.0,0.0,0.0,0.0,0.0,0.0,0.0640694527721077,-0.03831244446585541,0.0021137151555898907,0.0,0.0,0.0,0.0,0.0,0.0,0.0,0.0,0.0
5.329,144,5,328000000,base_footprint,-0.0038030645768460094,0.0006011504007432271,0.9873178056406355,0.15870956487553098,0.0,0.0,0.0,0.0,0.0,0.0,0.0,0.0,0.0,-7.219524286179294e-05,-0.0002998561466761908,-0.013046021780220424,0.0,0.0,0.0,0.0,0.0,0.0,0.0,0.0,0.0,0.021027310142962365,-0.020658445783801344,-0.0008273791788612203,0.0,0.0,0.0,0.0,0.0,0.0,0.0,0.0,0.0
5.362,145,5,362000000,base_footprint,-0.003803327864341204,0.0005998921111222169,0.98735444237721,0.1584814813932532,0.0,0.0,0.0,0.0,0.0,0.0,0.0,0.0,0.0,-0.00038597895287353055,-5.7974477663269857e-05,0.04549795882843773,0.0,0.0,0.0,0.0,0.0,0.0,0.0,0.0,0.0,0.10036823713971511,-0.0717091544836595,0.0006075923377941886,0.0,0.0,0.0,0.0,0.0,0.0,0.0,0.0,0.0
5.396,146,5,396000000,base_footprint,-0.0038073814117939313,0.0005992203635859297,0.9874849375443342,0.1576662389505232,0.0,0.0,0.0,0.0,0.0,0.0,0.0,0.0,0.0,-0.00029919968592099003,0.00016493666059075432,0.05152943005464702,0.0,0.0,0.0,0.0,0.0,0.0,0.0,0.0,0.0,0.1125050433125342,-0.06986779409229096,0.0005810210238180375,0.0,0.0,0.0,0.0,0.0,0.0,0.0,0.0,0.0
5.43,147,5,430000000,base_footprint,-0.003808600757531573,0.0005954352425697642,0.987623209121263,0.15679775770769128,0.0,0.0,0.0,0.0,0.0,0.0,0.0,0.0,0.0,-0.0004617861914097213,7.484152913066745e-05,0.051660408310849885,0.0,0.0,0.0,0.0,0.0,0.0,0.0,0.0,0.0,0.006997915489093099,0.008888827450357035,0.00017821420973514093,0.0,0.0,0.0,0.0,0.0,0.0,0.0,0.0,0.0
5.464,148,5,464000000,base_footprint,-0.0038097939079197885,0.0005917125913109622,0.987761659422814,0.15592318468039731,0.0,0.0,0.0,0.0,0.0,0.0,0.0,0.0,0.0,-0.0005085533842050171,0.00012788600157006611,0.05215287309085856,0.0,0.0,0.0,0.0,0.0,0.0,0.0,0.0,0.0,0.006530609865757312,0.009697344270344818,-5.9005074061478584e-05,0.0,0.0,0.0,0.0,0.0,0.0,0.0,0.0,0.0
5.498,149,5,498000000,base_footprint,-0.003811712481219996,0.0005856324285705741,0.9879992459699265,0.15441054965732026,0.0,0.0,0.0,0.0,0.0,0.0,0.0,0.0,0.0,-0.0008533480315663339,0.00023243759691296372,0.09346754006928759,0.0,0.0,0.0,0.0,0.0,0.0,0.0,0.0,0.0,0.0018785668453189465,0.023068624273566436,5.909019924790951e-05,0.0,0.0,0.0,0.0,0.0,0.0,0.0,0.0,0.0
5.532,150,5,532000000,base_footprint,-0.003811501692284521,0.000580751268895647,0.9882509374131829,0.15279142608398766,0.0,0.0,0.0,0.0,0.0,0.0,0.0,0.0,0.0,-0.0008968009126821417,-0.0005562175335103768,0.10287966607798224,0.0,0.0,0.0,0.0,0.0,0.0,0.0,0.0,0.0,-0.007478720654852587,0.030488817751663767,0.001182680511369415,0.0,0.0,0.0,0.0,0.0,0.0,0.0,0.0,0.0
5.568,151,5,566000000,base_footprint,-0.0038129655055270453,0.0005750952095390649,0.9884997489197248,0.1511733341075563,0.0,0.0,0.0,0.0,0.0,0.0,0.0,0.0,0.0,7.66338227478256e-06,-0.0016249823002250647,0.08410568370823363,0.0,0.0,0.0,0.0,0.0,0.0,0.0,0.0,0.0,0.02466541141179112,0.008573701244535202,0.005764964635688736,0.0,0.0,0.0,0.0,0.0,0.0,0.0,0.0,0.0
5.602,152,5,600000000,base_footprint,-0.003812407774477567,0.000571475867802832,0.9886592382024073,0.1501267786883124,0.0,0.0,0.0,0.0,0.0,0.0,0.0,0.0,0.0,-0.0005051499366812733,0.0003312233774885688,0.061731664658502994,0.0,0.0,0.0,0.0,0.0,0.0,0.0,0.0,0.0,0.020425792748835662,0.0024046552956842123,-0.0070080157959956585,0.0,0.0,0.0,0.0,0.0,0.0,0.0,0.0,0.0
5.634,153,5,634000000,base_footprint,-0.0038127650572090535,0.0005682229516758076,0.98881627888404,0.14908892165153065,0.0,0.0,0.0,0.0,0.0,0.0,0.0,0.0,0.0,-0.00047985846317865526,3.1906212778853106e-05,0.0619593059184056,0.0,0.0,0.0,0.0,0.0,0.0,0.0,0.0,0.0,0.007888517278240487,0.011077233115314816,0.0003460796434456946,0.0,0.0,0.0,0.0,0.0,0.0,0.0,0.0,0.0
5.6690000000000005,154,5,668000000,base_footprint,-0.0038186333913089493,0.0005613403007808353,0.9889733839399757,0.1480430639861354,0.0,0.0,0.0,0.0,0.0,0.0,0.0,0.0,0.0,-0.001674542962771929,0.0028469585310950986,0.07266006157429088,0.0,0.0,0.0,0.0,0.0,0.0,0.0,0.0,0.0,-0.04206080256649207,0.04593510753220033,-0.0030541360253399197,0.0,0.0,0.0,0.0,0.0,0.0,0.0,0.0,0.0
5.702,155,5,702000000,base_footprint,-0.0038079849196610027,0.0005613686614519886,0.9892090832490914,0.1464601438397831,0.0,0.0,0.0,0.0,0.0,0.0,0.0,0.0,0.0,0.0013360029679524682,-0.0006627582985765099,0.05097796477856022,0.0,0.0,0.0,0.0,0.0,0.0,0.0,0.0,0.0,-0.2461052433263032,0.18737954750767916,0.00030812681520884784,0.0,0.0,0.0,0.0,0.0,0.0,0.0,0.0,0.0
5.736,156,5,736000000,base_footprint,-0.0038162791264469615,0.0005569719941904505,0.9893393589004542,0.1455773290257285,0.0,0.0,0.0,0.0,0.0,0.0,0.0,0.0,0.0,-6.621118519108447e-05,8.821405968281414e-06,0.05036652958113347,0.0,0.0,0.0,0.0,0.0,0.0,0.0,0.0,0.0,0.026466466094115293,-0.0042754691004263014,0.00011447075536764306,0.0,0.0,0.0,0.0,0.0,0.0,0.0,0.0,0.0
5.771,157,5,770000000,base_footprint,-0.0038140757017359,0.000548701075431698,0.9894402082914744,0.1448903929520352,0.0,0.0,0.0,0.0,0.0,0.0,0.0,0.0,0.0,-0.001048262423839139,-0.0008488129465548831,0.059065236879214354,0.0,0.0,0.0,0.0,0.0,0.0,0.0,0.0,0.0,-0.0693870886276298,0.0563500939210782,5.02634331550666e-05,0.0,0.0,0.0,0.0,0.0,0.0,0.0,0.0,0.0
5.807,158,5,804000000,base_footprint,-0.0038113607515675874,0.0005436794824212413,0.9896065129054137,0.14375022628514086,0.0,0.0,0.0,0.0,0.0,0.0,0.0,0.0,0.0,-0.000660921298634711,-1.1309656244972327e-05,0.0830595647243817,0.0,0.0,0.0,0.0,0.0,0.0,0.0,0.0,0.0,0.04996662243664912,-0.016660857553686716,0.0002142976530370041,0.0,0.0,0.0,0.0,0.0,0.0,0.0,0.0,0.0
5.838,159,5,838000000,base_footprint,-0.0038157804544677225,0.0005403557211389134,0.9898407942768485,0.14212793469475168,0.0,0.0,0.0,0.0,0.0,0.0,0.0,0.0,0.0,-0.0005618521931516732,0.00019113798393515104,0.09834930929427826,0.0,0.0,0.0,0.0,0.0,0.0,0.0,0.0,0.0,0.038795216681936556,-0.0014543461966813392,-0.00014476683153955605,0.0,0.0,0.0,0.0,0.0,0.0,0.0,0.0,0.0
5.872,160,5,872000000,base_footprint,-0.0038159388824938125,0.0005329389446456936,0.990086541652931,0.14040582119080885,0.0,0.0,0.0,0.0,0.0,0.0,0.0,0.0,0.0,-0.00021753170425001044,0.0011878134217086517,0.11955873200133783,0.0,0.0,0.0,0.0,0.0,0.0,0.0,0.0,0.0,0.007111147746847868,0.020234830147004314,-0.001070850953556471,0.0,0.0,0.0,0.0,0.0,0.0,0.0,0.0,0.0
5.906,161,5,906000000,base_footprint,-0.003818462543378823,0.000525016610882502,0.9903691429278835,0.13839835417248503,0.0,0.0,0.0,0.0,0.0,0.0,0.0,0.0,0.0,-0.0009523862144019691,0.00019783274173241748,0.119013667497345,0.0,0.0,0.0,0.0,0.0,0.0,0.0,0.0,0.0,0.014258326145753418,0.02031583728551916,0.0012006545903829897,0.0,0.0,0.0,0.0,0.0,0.0,0.0,0.0,0.0
5.941,162,5,940000000,base_footprint,-0.003820062093769404,0.0005169218232401353,0.9906478980190205,0.13638871679110692,0.0,0.0,0.0,0.0,0.0,0.0,0.0,0.0,0.0,-0.0010138237416173112,0.00019552988138037564,0.11932551253508449,0.0,0.0,0.0,0.0,0.0,0.0,0.0,0.0,0.0,0.01298601540773162,0.021002987357845376,0.00010625486840985321,0.0,0.0,0.0,0.0,0.0,0.0,0.0,0.0,0.0
5.973,163,5,974000000,base_footprint,-0.003821396714340674,0.0005062667812004511,0.9909345419118023,0.13429026125205282,0.0,0.0,0.0,0.0,0.0,0.0,0.0,0.0,0.0,-0.00041265203898289645,0.00018746028232252565,0.15147784301189318,0.0,0.0,0.0,0.0,0.0,0.0,0.0,0.0,0.0,0.11146364009575704,-0.03739595839130869,0.0011986580070333388,0.0,0.0,0.0,0.0,0.0,0.0,0.0,0.0,0.0
6.018,164,6,8000000,base_footprint,-0.0038246488645869575,0.000499118030384646,0.9912318902357259,0.13207748756682375,0.0,0.0,0.0,0.0,0.0,0.0,0.0,0.0,0.0,-0.0008951859396597825,0.00015321619205135758,0.12014609816817953,0.0,0.0,0.0,0.0,0.0,0.0,0.0,0.0,0.0,0.0893222670612674,-0.01818103557211937,0.0006394373181099254,0.0,0.0,0.0,0.0,0.0,0.0,0.0,0.0,0.0
6.042,165,6,42000000,base_footprint,-0.0038172266645617723,0.0004969791235437236,0.9915000564036123,0.13004929812950125,0.0,0.0,0.0,0.0,0.0,0.0,0.0,0.0,0.0,-0.0009596430056764959,-0.0001251454076562068,0.11589904858284575,0.0,0.0,0.0,0.0,0.0,0.0,0.0,0.0,0.0,0.022813890946972046,0.015933082092321253,0.0004950944544676796,0.0,0.0,0.0,0.0,0.0,0.0,0.0,0.0,0.0
6.076,166,6,76000000,base_footprint,-0.003817960293526616,0.0004911003461433068,0.9917122459837923,0.12842119437783428,0.0,0.0,0.0,0.0,0.0,0.0,0.0,0.0,0.0,-0.0006727102398470883,0.00020294366276575677,0.07302133037162707,0.0,0.0,0.0,0.0,0.0,0.0,0.0,0.0,0.0,0.11875723234683035,-0.04269847882958199,3.682718937080085e-07,0.0,0.0,0.0,0.0,0.0,0.0,0.0,0.0,0.0
6.11,167,6,110000000,base_footprint,-0.0038250786654718785,0.0004840335976296243,0.9918594100841889,0.12727939783061573,0.0,0.0,0.0,0.0,0.0,0.0,0.0,0.0,0.0,-0.0005576845529963225,1.995938727265771e-06,0.06836917932972249,0.0,0.0,0.0,0.0,0.0,0.0,0.0,0.0,0.0,0.01885920037484501,0.005937806888202275,0.0005256411415191846,0.0,0.0,0.0,0.0,0.0,0.0,0.0,0.0,0.0
6.144,168,6,144000000,base_footprint,-0.0038246162435727656,0.000480165929258713,0.9920135643984558,0.12607231972459598,0.0,0.0,0.0,0.0,0.0,0.0,0.0,0.0,0.0,-0.0003171755080334903,0.00017915756622512087,0.07822972483855874,0.0,0.0,0.0,0.0,0.0,0.0,0.0,0.0,0.0,0.004880592312677706,0.015135218652040927,-0.00021922197030874245,0.0,0.0,0.0,0.0,0.0,0.0,0.0,0.0,0.0
6.177,169,6,178000000,base_footprint,-0.0038261303212988275,0.0004759401553614992,0.9921793898832231,0.12476054063159708,0.0,0.0,0.0,0.0,0.0,0.0,0.0,0.0,0.0,-0.00049899584896215,6.221713645139214e-05,0.07760352876779672,0.0,0.0,0.0,0.0,0.0,0.0,0.0,0.0,0.0,0.008921562673555533,0.015235928367718143,9.524287445525497e-05,0.0,0.0,0.0,0.0,0.0,0.0,0.0,0.0,0.0
6.214,170,6,212000000,base_footprint,-0.0038279212847485023,0.0004718917380484726,0.9923376364293702,0.12349550462505213,0.0,0.0,0.0,0.0,0.0,0.0,0.0,0.0,0.0,-0.0005990172368325207,-4.639023563417433e-05,0.06887389156003894,0.0,0.0,0.0,0.0,0.0,0.0,0.0,0.0,0.0,-0.006870031234234811,0.02256519605102134,0.0004901726941385716,0.0,0.0,0.0,0.0,0.0,0.0,0.0,0.0,0.0
6.246,171,6,246000000,base_footprint,-0.003822258240095037,0.0004621508527656218,0.9924580816684672,0.12252400944093188,0.0,0.0,0.0,0.0,0.0,0.0,0.0,0.0,0.0,-0.00048139900462251047,-7.737243891465597e-05,0.056319184633562336,0.0,0.0,0.0,0.0,0.0,0.0,0.0,0.0,0.0,-0.016347381637642728,0.02280849589051238,-0.0002260373761712153,0.0,0.0,0.0,0.0,0.0,0.0,0.0,0.0,0.0
6.28,172,6,280000000,base_footprint,-0.0038266129858393273,0.0004613432785662597,0.9925945726662376,0.12141317271600033,0.0,0.0,0.0,0.0,0.0,0.0,0.0,0.0,0.0,-0.0006379305459480869,-0.00022068030207054345,0.06854002718126846,0.0,0.0,0.0,0.0,0.0,0.0,0.0,0.0,0.0,0.04535585331232213,-0.008157686016204764,0.0004233102755079793,0.0,0.0,0.0,0.0,0.0,0.0,0.0,0.0,0.0
6.315,173,6,314000000,base_footprint,-0.003826510868272338,0.0004561054873436114,0.9927357921092321,0.12025305338167071,0.0,0.0,0.0,0.0,0.0,0.0,0.0,0.0,0.0,-0.0004796840534687533,-4.361254305139472e-05,0.06856186555572713,0.0,0.0,0.0,0.0,0.0,0.0,0.0,0.0,0.0,0.008226006988221844,0.012729707677942707,-0.00020653827180456546,0.0,0.0,0.0,0.0,0.0,0.0,0.0,0.0,0.0
6.348,174,6,348000000,base_footprint,-0.003827253798238655,0.0004511492312044326,0.9928755401076905,0.11909370448767197,0.0,0.0,0.0,0.0,0.0,0.0,0.0,0.0,0.0,-0.0005532906638061467,3.7819421942219776e-05,0.06847358284084676,0.0,0.0,0.0,0.0,0.0,0.0,0.0,0.0,0.0,0.00798235095932775,0.012775920553391702,-0.00013911463590134793,0.0,0.0,0.0,0.0,0.0,0.0,0.0,0.0,0.0
6.382,175,6,382000000,base_footprint,-0.0038314550285433826,0.00045186056300785155,0.9929950403226063,0.11809303819066326,0.0,0.0,0.0,0.0,0.0,0.0,0.0,0.0,0.0,-0.00012172795327688502,0.00010972539561960568,0.030587835028286936,0.0,0.0,0.0,0.0,0.0,0.0,0.0,0.0,0.0,-0.344297372478599,0.19150709780635805,-0.002933834383646332,0.0,0.0,0.0,0.0,0.0,0.0,0.0,0.0,0.0
6.416,176,6,416000000,base_footprint,-0.0038253381931840414,0.00044515293087464346,0.9929865564254949,0.11816457753833585,0.0,0.0,0.0,0.0,0.0,0.0,0.0,0.0,0.0,0.0007362870844270872,-0.0007921726375361148,-0.0013744280861249572,0.0,0.0,0.0,0.0,0.0,0.0,0.0,0.0,0.0,-0.05419117860228839,0.027586941978330955,0.00168262291669081,0.0,0.0,0.0,0.0,0.0,0.0,0.0,0.0,0.0
6.45,177,6,450000000,base_footprint,-0.0038299098326666776,0.0004433532978983685,0.9930864893305489,0.1173216089970318,0.0,0.0,0.0,0.0,0.0,0.0,0.0,0.0,0.0,-0.0006480051677990678,4.220887366890024e-05,0.059537101905972986,0.0,0.0,0.0,0.0,0.0,0.0,0.0,0.0,0.0,0.10930100365411285,-0.04541946879868679,-0.0012042518624479715,0.0,0.0,0.0,0.0,0.0,0.0,0.0,0.0,0.0
6.484,178,6,484000000,base_footprint,-0.00383019447756027,0.0004384366415590402,0.9932504445237618,0.1159253718429447,0.0,0.0,0.0,0.0,0.0,0.0,0.0,0.0,0.0,-0.0013148498332214568,0.0009472698759537791,0.11104028122362133,0.0,0.0,0.0,0.0,0.0,0.0,0.0,0.0,0.0,-0.008944402381230697,0.023170286596184975,-0.001604551096371823,0.0,0.0,0.0,0.0,0.0,0.0,0.0,0.0,0.0
6.519,179,6,518000000,base_footprint,-0.0038335165725522035,0.00043011968868531295,0.9934696022251231,0.11403187537876025,0.0,0.0,0.0,0.0,0.0,0.0,0.0,0.0,0.0,-0.0009819280747990031,5.295004809415638e-06,0.11496453697231557,0.0,0.0,0.0,0.0,0.0,0.0,0.0,0.0,0.0,0.001617229787594044,0.02454671777404009,0.001701757407286462,0.0,0.0,0.0,0.0,0.0,0.0,0.0,0.0,0.0
6.551,180,6,552000000,base_footprint,-0.0038309747989620792,0.00042517349707017554,0.9936920348686002,0.1120771283460097,0.0,0.0,0.0,0.0,0.0,0.0,0.0,0.0,0.0,-0.0010554026087836765,0.0010125019452309604,0.10832721299553134,0.0,0.0,0.0,0.0,0.0,0.0,0.0,0.0,0.0,0.026756589284076045,0.014273675896911883,-0.0015980924451195625,0.0,0.0,0.0,0.0,0.0,0.0,0.0,0.0,0.0
6.587,181,6,586000000,base_footprint,-0.003836372939916725,0.00041514022250893086,0.9938679724381075,0.1105059422068648,0.0,0.0,0.0,0.0,0.0,0.0,0.0,0.0,0.0,0.00031477794938923224,-0.0006482295216232602,0.06763910361308825,0.0,0.0,0.0,0.0,0.0,0.0,0.0,0.0,0.0,-0.2885379311328827,0.1586776849497334,-0.001593843905531525,0.0,0.0,0.0,0.0,0.0,0.0,0.0,0.0,0.0
6.62,182,6,620000000,base_footprint,-0.003833349615806284,0.00041507329471172525,0.9939989457672844,0.10932167652579369,0.0,0.0,0.0,0.0,0.0,0.0,0.0,0.0,0.0,-0.0005284388310845395,0.0001273531168993117,0.0695179532081313,0.0,0.0,0.0,0.0,0.0,0.0,0.0,0.0,0.0,-0.0011197054213669846,0.015813934286739054,0.0004300018983136213,0.0,0.0,0.0,0.0,0.0,0.0,0.0,0.0,0.0
6.654,183,6,654000000,base_footprint,-0.0038338600598410945,0.0004114186916508418,0.9941266535444838,0.10815419069156568,0.0,0.0,0.0,0.0,0.0,0.0,0.0,0.0,0.0,-0.0004482232224419932,1.7310653166636787e-05,0.06902941408268888,0.0,0.0,0.0,0.0,0.0,0.0,0.0,0.0,0.0,0.005279728547448708,0.012549243828630813,8.799917949990555e-05,0.0,0.0,0.0,0.0,0.0,0.0,0.0,0.0,0.0
6.688,184,6,688000000,base_footprint,-0.003830157702506901,0.0004125568752998591,0.9941657876291752,0.10779399981659557,0.0,0.0,0.0,0.0,0.0,0.0,0.0,0.0,0.0,0.0005444723255146537,-8.348381937831546e-05,-0.07279406684085013,0.0,0.0,0.0,0.0,0.0,0.0,0.0,0.0,0.0,0.22453123621469046,-0.09632476810545662,0.002009634669936135,0.0,0.0,0.0,0.0,0.0,0.0,0.0,0.0,0.0
6.721,185,6,722000000,base_footprint,-0.0038281255151689703,0.0004131673871279731,0.9939425447269093,0.1098334763610184,0.0,0.0,0.0,0.0,0.0,0.0,0.0,0.0,0.0,0.0007385343100308082,-0.0007915498254984858,-0.12291368740408637,0.0,0.0,0.0,0.0,0.0,0.0,0.0,0.0,0.0,0.0187576427732333,-0.03595199736445778,0.0010070910077238271,0.0,0.0,0.0,0.0,0.0,0.0,0.0,0.0,0.0
6.756,186,6,756000000,base_footprint,-0.003827000749544214,0.0004203420013583206,0.9937304228034434,0.11173640486768335,0.0,0.0,0.0,0.0,0.0,0.0,0.0,0.0,0.0,0.0006842975495015766,-0.0003616606723492285,-0.0953737720172053,0.0,0.0,0.0,0.0,0.0,0.0,0.0,0.0,0.0,0.04293078379507116,-0.04688092531308564,-6.056390806400238e-05,0.0,0.0,0.0,0.0,0.0,0.0,0.0,0.0,0.0
6.79,187,6,790000000,base_footprint,-0.003826230606076953,0.0004240510806089165,0.9936164233190725,0.11274565823411498,0.0,0.0,0.0,0.0,0.0,0.0,0.0,0.0,0.0,0.0001822899886245616,-0.0002209107514281225,-0.021131812794246353,0.0,0.0,0.0,0.0,0.0,0.0,0.0,0.0,0.0,0.12137743075848821,-0.07368463536118197,0.0008942721858281953,0.0,0.0,0.0,0.0,0.0,0.0,0.0,0.0,0.0
6.827,188,6,824000000,base_footprint,-0.003828561269742523,0.0004237747171796426,0.9936758363256402,0.11222074155935953,0.0,0.0,0.0,0.0,0.0,0.0,0.0,0.0,0.0,0.0009054420485920245,0.001134756723993319,0.07613871841417602,0.0,0.0,0.0,0.0,0.0,0.0,0.0,0.0,0.0,0.1866907542873362,-0.08435745754686745,-0.0004168638658018744,0.0,0.0,0.0,0.0,0.0,0.0,0.0,0.0,0.0
6.8580000000000005,189,6,858000000,base_footprint,-0.003830797100845818,0.0004191100555137085,0.9938197467593557,0.11093899355728586,0.0,0.0,0.0,0.0,0.0,0.0,0.0,0.0,0.0,-0.0005697711069096884,-8.448283871165368e-06,0.0756646064176052,0.0,0.0,0.0,0.0,0.0,0.0,0.0,0.0,0.0,0.007677960362340934,0.014966788957681776,0.0018900121216203335,0.0,0.0,0.0,0.0,0.0,0.0,0.0,0.0,0.0
6.892,190,6,892000000,base_footprint,-0.0038322528570463145,0.00041019809905108896,0.994068283219917,0.10868943771943171,0.0,0.0,0.0,0.0,0.0,0.0,0.0,0.0,0.0,-0.001191301166400299,0.00026699092488201737,0.15598796695362516,0.0,0.0,0.0,0.0,0.0,0.0,0.0,0.0,0.0,-0.00604615223423843,0.03404411750326392,-0.00038071495740725264,0.0,0.0,0.0,0.0,0.0,0.0,0.0,0.0,0.0
6.926,191,6,926000000,base_footprint,-0.003833971598735998,0.000399764552756278,0.994353377596876,0.10604952292097826,0.0,0.0,0.0,0.0,0.0,0.0,0.0,0.0,0.0,-0.0012603355580830485,0.00018116978931228492,0.15620071888193138,0.0,0.0,0.0,0.0,0.0,0.0,0.0,0.0,0.0,0.014572687334795087,0.030855027796305605,0.0001480175014864755,0.0,0.0,0.0,0.0,0.0,0.0,0.0,0.0,0.0
6.959,192,6,960000000,base_footprint,-0.003835619509742197,0.0003896075742644144,0.994632045002238,0.10340324600117971,0.0,0.0,0.0,0.0,0.0,0.0,0.0,0.0,0.0,-0.0012705486062479406,0.0002022183031426037,0.156629731022726,0.0,0.0,0.0,0.0,0.0,0.0,0.0,0.0,0.0,0.013816354969711469,0.03165526737798601,-3.3692218160893066e-05,0.0,0.0,0.0,0.0,0.0,0.0,0.0,0.0,0.0
6.995,193,6,994000000,base_footprint,-0.0038342152163367027,0.0003863928740613435,0.9947937694134905,0.10183568053644539,0.0,0.0,0.0,0.0,0.0,0.0,0.0,0.0,0.0,-0.000646853075217785,0.0006928659613287002,0.057635247381965085,0.0,0.0,0.0,0.0,0.0,0.0,0.0,0.0,0.0,-0.27393876329489664,0.1421735871012211,-0.0034897102229929514,0.0,0.0,0.0,0.0,0.0,0.0,0.0,0.0,0.0
7.028,194,7,28000000,base_footprint,-0.003842122784137416,0.00037522944743821775,0.9949739042452833,0.10006011776063152,0.0,0.0,0.0,0.0,0.0,0.0,0.0,0.0,0.0,-0.0010235013090976266,0.0008763521267430691,0.12308239867849359,0.0,0.0,0.0,0.0,0.0,0.0,0.0,0.0,0.0,0.0395522488862772,0.004235600195118818,0.0007613411908618322,0.0,0.0,0.0,0.0,0.0,0.0,0.0,0.0,0.0
7.062,195,7,62000000,base_footprint,-0.003834900968309056,0.00037121771421681207,0.9952136772413684,0.09764677344226583,0.0,0.0,0.0,0.0,0.0,0.0,0.0,0.0,0.0,-0.001138903794912346,-8.895197173152634e-05,0.15212439252024654,0.0,0.0,0.0,0.0,0.0,0.0,0.0,0.0,0.0,-0.05915540974841375,0.05782739453488141,0.00049732054491677,0.0,0.0,0.0,0.0,0.0,0.0,0.0,0.0,0.0
7.095,196,7,96000000,base_footprint,-0.003839939789711672,0.00035893918231721413,0.9954848356476687,0.09484233242919035,0.0,0.0,0.0,0.0,0.0,0.0,0.0,0.0,0.0,-0.0012709973174230274,0.0001498536877695002,0.16845096330881157,0.0,0.0,0.0,0.0,0.0,0.0,0.0,0.0,0.0,0.01513915358699954,0.03042815283527045,-0.000229342409193999,0.0,0.0,0.0,0.0,0.0,0.0,0.0,0.0,0.0
7.131,197,7,130000000,base_footprint,-0.003840910984272367,0.000349359242928831,0.9957515622988089,0.09199973657794724,0.0,0.0,0.0,0.0,0.0,0.0,0.0,0.0,0.0,-0.0011332785125408155,0.00017932201615217732,0.16751163616675468,0.0,0.0,0.0,0.0,0.0,0.0,0.0,0.0,0.0,0.01047695019983623,0.03320452073920099,-5.717522655189172e-05,0.0,0.0,0.0,0.0,0.0,0.0,0.0,0.0,0.0
7.164,198,7,164000000,base_footprint,-0.0038419019719814194,0.0003385881405296367,0.9960012239998323,0.08925629915106775,0.0,0.0,0.0,0.0,0.0,0.0,0.0,0.0,0.0,-0.0017172219408492372,-0.00022205559502606783,0.15077075059170914,0.0,0.0,0.0,0.0,0.0,0.0,0.0,0.0,0.0,-0.019368829188112016,0.04351225326791959,0.000857647256483882,0.0,0.0,0.0,0.0,0.0,0.0,0.0,0.0,0.0
7.198,199,7,198000000,base_footprint,-0.0038372050246301484,0.0003305142698421539,0.9960765879123598,0.08841152430983079,0.0,0.0,0.0,0.0,0.0,0.0,0.0,0.0,0.0,-7.948106389299577e-06,0.00016472877541999918,-0.010188432524784118,0.0,0.0,0.0,0.0,0.0,0.0,0.0,0.0,0.0,0.26442766664056855,-0.08480396766501735,0.0007124272062377498,0.0,0.0,0.0,0.0,0.0,0.0,0.0,0.0,0.0
7.233,200,7,232000000,base_footprint,-0.0038359458601308484,0.00032600624577063816,0.996181515935602,0.08722136520103221,0.0,0.0,0.0,0.0,0.0,0.0,0.0,0.0,0.0,-0.0006968913869607498,5.56263999654256e-05,0.10334957397859836,0.0,0.0,0.0,0.0,0.0,0.0,0.0,0.0,0.0,-0.005893157156702146,0.016611809343945433,0.0006313389118185987,0.0,0.0,0.0,0.0,0.0,0.0,0.0,0.0,0.0
7.266,201,7,266000000,base_footprint,-0.0038401701163343115,0.0003208428144874859,0.9963846195399526,0.0848695475278981,0.0,0.0,0.0,0.0,0.0,0.0,0.0,0.0,0.0,0.0010097042548439994,-0.0010529697252697626,0.14138823441313145,0.0,0.0,0.0,0.0,0.0,0.0,0.0,0.0,0.0,0.11929615634548517,-0.011011863205254189,-0.0003441014921996005,0.0,0.0,0.0,0.0,0.0,0.0,0.0,0.0,0.0
7.3,202,7,300000000,base_footprint,-0.0038403000950039045,0.0003151750638176346,0.9964768017016009,0.08378028664553544,0.0,0.0,0.0,0.0,0.0,0.0,0.0,0.0,0.0,-0.00035751832477688966,-3.696621172119535e-05,0.05876464118775792,0.0,0.0,0.0,0.0,0.0,0.0,0.0,0.0,0.0,0.027013830167413745,0.006270453592339088,0.0015028552923545741,0.0,0.0,0.0,0.0,0.0,0.0,0.0,0.0,0.0
7.343,203,7,334000000,base_footprint,-0.0038407782472858927,0.00031111474056102367,0.9965600821621042,0.08278378024186646,0.0,0.0,0.0,0.0,0.0,0.0,0.0,0.0,0.0,-0.0004125171106083769,-8.446350215544945e-05,0.05864954925734831,0.0,0.0,0.0,0.0,0.0,0.0,0.0,0.0,0.0,0.005443301191202355,0.011768273569696036,7.782196096982165e-05,0.0,0.0,0.0,0.0,0.0,0.0,0.0,0.0,0.0
7.371,204,7,368000000,base_footprint,-0.003841208027490282,0.0003071275356806614,0.9966430933212724,0.08177833043399538,0.0,0.0,0.0,0.0,0.0,0.0,0.0,0.0,0.0,-0.0005896101722842845,-0.00013594500177719008,0.06613649069486,0.0,0.0,0.0,0.0,0.0,0.0,0.0,0.0,0.0,0.0035255503872342942,0.012370769501327776,-0.0005052754340542343,0.0,0.0,0.0,0.0,0.0,0.0,0.0,0.0,0.0
7.402,205,7,402000000,base_footprint,-0.0038425827736446373,0.00030245093797283683,0.9967344122674334,0.0806576374744018,0.0,0.0,0.0,0.0,0.0,0.0,0.0,0.0,0.0,-0.0005952545692676184,2.1541100018873937e-06,0.06598337462238231,0.0,0.0,0.0,0.0,0.0,0.0,0.0,0.0,0.0,0.005872656844830169,0.013400353068838718,0.0003496706303759243,0.0,0.0,0.0,0.0,0.0,0.0,0.0,0.0,0.0
7.437,206,7,436000000,base_footprint,-0.003843766079473822,0.0002979605184246356,0.996824561379895,0.07953571846432216,0.0,0.0,0.0,0.0,0.0,0.0,0.0,0.0,0.0,-0.0005787757475307343,1.0432958131466701e-05,0.06629418058580687,0.0,0.0,0.0,0.0,0.0,0.0,0.0,0.0,0.0,0.004647516693026439,0.013729925004629847,-8.612116247998629e-05,0.0,0.0,0.0,0.0,0.0,0.0,0.0,0.0,0.0
7.47,207,7,470000000,base_footprint,-0.003845062486971706,0.0002934120050979416,0.9969139375279682,0.07840746499121755,0.0,0.0,0.0,0.0,0.0,0.0,0.0,0.0,0.0,-0.0006254995663445154,6.299777965023784e-05,0.06670960678230443,0.0,0.0,0.0,0.0,0.0,0.0,0.0,0.0,0.0,0.003941970914555596,0.014139419050312085,-0.00014632803405739084,0.0,0.0,0.0,0.0,0.0,0.0,0.0,0.0,0.0
7.504,208,7,504000000,base_footprint,-0.0038465128186056033,0.00028936460226486967,0.9970013532579411,0.07728791761392878,0.0,0.0,0.0,0.0,0.0,0.0,0.0,0.0,0.0,-0.0005801762815251172,0.000126101562855914,0.06513367815511917,0.0,0.0,0.0,0.0,0.0,0.0,0.0,0.0,0.0,0.009012354914349012,0.012865678583761054,-7.243599592901789e-05,0.0,0.0,0.0,0.0,0.0,0.0,0.0,0.0,0.0
7.538,209,7,538000000,base_footprint,-0.003844959315616183,0.00028723630351799314,0.9970913262214236,0.07611846659759977,0.0,0.0,0.0,0.0,0.0,0.0,0.0,0.0,0.0,-0.00036218391946686633,-0.0005959881041423749,0.07316702955541124,0.0,0.0,0.0,0.0,0.0,0.0,0.0,0.0,0.0,-0.01624374536689428,0.02076778480981244,0.0009835076532450893,0.0,0.0,0.0,0.0,0.0,0.0,0.0,0.0,0.0
7.572,210,7,572000000,base_footprint,-0.0038535973254716902,0.0002818494549485406,0.9971837205512731,0.07489791596605581,0.0,0.0,0.0,0.0,0.0,0.0,0.0,0.0,0.0,-0.0005198209058604536,-0.0007901685329521849,0.10332501613087525,0.0,0.0,0.0,0.0,0.0,0.0,0.0,0.0,0.0,-0.007112064161984113,0.018143905013654222,0.000838805487303453,0.0,0.0,0.0,0.0,0.0,0.0,0.0,0.0,0.0
7.606,211,7,606000000,base_footprint,-0.003848273382994504,0.00027692744525803454,0.9973190706634539,0.07307383522263254,0.0,0.0,0.0,0.0,0.0,0.0,0.0,0.0,0.0,-0.0006304964931471175,0.0003383396898093316,0.10278371819420595,0.0,0.0,0.0,0.0,0.0,0.0,0.0,0.0,0.0,0.01058535347342909,0.022144710424945886,-0.002235926134315612,0.0,0.0,0.0,0.0,0.0,0.0,0.0,0.0,0.0
7.64,212,7,640000000,base_footprint,-0.0038420156662964397,0.0002655037977498618,0.9974302090931733,0.07154122176551013,0.0,0.0,0.0,0.0,0.0,0.0,0.0,0.0,0.0,-0.0008678279825129599,-0.00015969496326343938,0.08387067908282204,0.0,0.0,0.0,0.0,0.0,0.0,0.0,0.0,0.0,-0.03214665291538714,0.029735324396723294,0.0007392488469245961,0.0,0.0,0.0,0.0,0.0,0.0,0.0,0.0,0.0
7.674,213,7,674000000,base_footprint,-0.0038558827312335222,0.00026373242030443966,0.9975472320248581,0.06988978818910274,0.0,0.0,0.0,0.0,0.0,0.0,0.0,0.0,0.0,-0.0013347772582011502,-0.0037708564963885517,0.13037701241743133,0.0,0.0,0.0,0.0,0.0,0.0,0.0,0.0,0.0,-0.12427382386847002,0.056581802292608264,0.004290322441877365,0.0,0.0,0.0,0.0,0.0,0.0,0.0,0.0,0.0
7.708,214,7,708000000,base_footprint,-0.0038463876665938944,0.00025755850267864346,0.9976372257292471,0.06859376651553326,0.0,0.0,0.0,0.0,0.0,0.0,0.0,0.0,0.0,-0.00037112228269035386,-1.2310295541633432e-05,0.060475972978316556,0.0,0.0,0.0,0.0,0.0,0.0,0.0,0.0,0.0,-0.13412174994303225,0.05581518586222628,-0.006878019515088194,0.0,0.0,0.0,0.0,0.0,0.0,0.0,0.0,0.0
7.741,215,7,742000000,base_footprint,-0.0038449180183513874,0.00025316163382825714,0.9977070529586589,0.0675706222493711,0.0,0.0,0.0,0.0,0.0,0.0,0.0,0.0,0.0,-0.00038371999223940395,-0.00010631546338036709,0.06024779579612654,0.0,0.0,0.0,0.0,0.0,0.0,0.0,0.0,0.0,0.003854382318962996,0.011925193167698155,0.0003568996678752036,0.0,0.0,0.0,0.0,0.0,0.0,0.0,0.0,0.0
7.776,216,7,776000000,base_footprint,-0.003844956955846019,0.0002492826890919864,0.997772365778186,0.0665992511485728,0.0,0.0,0.0,0.0,0.0,0.0,0.0,0.0,0.0,-0.00026073015139913436,-0.00011831904913624147,0.05074505145062989,0.0,0.0,0.0,0.0,0.0,0.0,0.0,0.0,0.0,0.006810010174536595,0.010569578831676245,5.3252970608422415e-05,0.0,0.0,0.0,0.0,0.0,0.0,0.0,0.0,0.0
7.8100000000000005,217,7,810000000,base_footprint,-0.003845379029014717,0.0002457950877406299,0.9978294969291353,0.06573771902832491,0.0,0.0,0.0,0.0,0.0,0.0,0.0,0.0,0.0,-0.00038247308583071686,-0.0001213782745711478,0.05064275885481874,0.0,0.0,0.0,0.0,0.0,0.0,0.0,0.0,0.0,0.003935223544866412,0.009824668151494012,9.139354420567206e-05,0.0,0.0,0.0,0.0,0.0,0.0,0.0,0.0,0.0
7.844,218,7,844000000,base_footprint,-0.003845977162161318,0.00024229655688231736,0.9978857794012628,0.06487773902334357,0.0,0.0,0.0,0.0,0.0,0.0,0.0,0.0,0.0,-0.00047586214318167547,-7.225218840370507e-05,0.05056589442835847,0.0,0.0,0.0,0.0,0.0,0.0,0.0,0.0,0.0,0.003889652242221866,0.009869017616273405,-0.00011479366341028716,0.0,0.0,0.0,0.0,0.0,0.0,0.0,0.0,0.0
7.882,219,7,878000000,base_footprint,-0.0038445110606085266,0.00023737001347918626,0.997940332162247,0.06403324788018938,0.0,0.0,0.0,0.0,0.0,0.0,0.0,0.0,0.0,-0.0004559529533932046,-0.0005197216834095735,0.04802749929082448,0.0,0.0,0.0,0.0,0.0,0.0,0.0,0.0,0.0,0.25878925019173477,-0.057256176858314384,0.0026884024003722613,0.0,0.0,0.0,0.0,0.0,0.0,0.0,0.0,0.0
7.911,220,7,912000000,base_footprint,-0.0038449182909484096,0.00023889329772641273,0.9979891745412037,0.063267424729439,0.0,0.0,0.0,0.0,0.0,0.0,0.0,0.0,0.0,-8.507351432796297e-05,-0.0007273090407213216,0.036428002166663996,0.0,0.0,0.0,0.0,0.0,0.0,0.0,0.0,0.0,0.13170372479605286,-0.023404044421159252,0.0009328391789478898,0.0,0.0,0.0,0.0,0.0,0.0,0.0,0.0,0.0
7.947,221,7,946000000,base_footprint,-0.0038492146892967925,0.00023175087794231165,0.9980497189185199,0.06230480241899309,0.0,0.0,0.0,0.0,0.0,0.0,0.0,0.0,0.0,-0.0005348756057265616,1.1849619160528791e-05,0.05857769587367739,0.0,0.0,0.0,0.0,0.0,0.0,0.0,0.0,0.0,-0.05309992355926417,0.025903703689666203,-0.0013743643361972665,0.0,0.0,0.0,0.0,0.0,0.0,0.0,0.0,0.0
7.98,222,7,980000000,base_footprint,-0.003849997192079191,0.00022824666166429745,0.9981109880995626,0.06131542106189545,0.0,0.0,0.0,0.0,0.0,0.0,0.0,0.0,0.0,-0.00047836627275406714,1.9281530410930896e-06,0.0573057096268377,0.0,0.0,0.0,0.0,0.0,0.0,0.0,0.0,0.0,0.006854105196436653,0.012281851927559848,9.41109542994307e-06,0.0,0.0,0.0,0.0,0.0,0.0,0.0,0.0,0.0
8.014,223,8,14000000,base_footprint,-0.003851864626535467,0.0002245973300526139,0.9981699750627507,0.060347440527051176,0.0,0.0,0.0,0.0,0.0,0.0,0.0,0.0,0.0,-0.0004831744759011403,1.6302066190779333e-05,0.05954193567420191,0.0,0.0,0.0,0.0,0.0,0.0,0.0,0.0,0.0,-0.0036239302561047737,0.012694188205105308,-5.490355686953597e-05,0.0,0.0,0.0,0.0,0.0,0.0,0.0,0.0,0.0
8.054,224,8,48000000,base_footprint,-0.00385148605250457,0.00022228945449233876,0.9982319721350292,0.05931312207257357,0.0,0.0,0.0,0.0,0.0,0.0,0.0,0.0,0.0,-0.0006517443431156535,0.0005460190995080387,0.05782421884809403,0.0,0.0,0.0,0.0,0.0,0.0,0.0,0.0,0.0,0.005912242988108895,0.012647272328568188,-0.0008128789266735103,0.0,0.0,0.0,0.0,0.0,0.0,0.0,0.0,0.0
8.082,225,8,82000000,base_footprint,-0.0038530699419260335,0.00021973444786884075,0.9982856295038983,0.05840297505093843,0.0,0.0,0.0,0.0,0.0,0.0,0.0,0.0,0.0,-0.00021471534773110425,-0.00023596813818673956,0.043956794861882816,0.0,0.0,0.0,0.0,0.0,0.0,0.0,0.0,0.0,-0.015676877254065538,0.01679539961159387,0.0010535394149522451,0.0,0.0,0.0,0.0,0.0,0.0,0.0,0.0,0.0
8.118,226,8,116000000,base_footprint,-0.0038453453378961932,0.00021238303445641604,0.9983173080255491,0.05785949109091918,0.0,0.0,0.0,0.0,0.0,0.0,0.0,0.0,0.0,-0.0003530710558185912,-0.0002140232540088301,0.03003325439693679,0.0,0.0,0.0,0.0,0.0,0.0,0.0,0.0,0.0,-0.02615476140512582,0.013049851204192357,8.986641521330847e-06,0.0,0.0,0.0,0.0,0.0,0.0,0.0,0.0,0.0
8.15,227,8,150000000,base_footprint,-0.00384933957290891,0.00021327598273347142,0.9983583125368153,0.057147326156614754,0.0,0.0,0.0,0.0,0.0,0.0,0.0,0.0,0.0,-0.0001581918403974423,0.00026803791468471485,0.05016915603443757,0.0,0.0,0.0,0.0,0.0,0.0,0.0,0.0,0.0,0.044711088085070225,-0.0014308842796774235,-0.0005365854740639113,0.0,0.0,0.0,0.0,0.0,0.0,0.0,0.0,0.0
8.184,228,8,184000000,base_footprint,-0.003847968712788572,0.0002095027994290636,0.9984087486896213,0.05625939730735882,0.0,0.0,0.0,0.0,0.0,0.0,0.0,0.0,0.0,-0.0003282443159240659,-0.00014823774610101757,0.054451837344830056,0.0,0.0,0.0,0.0,0.0,0.0,0.0,0.0,0.0,0.0007426480028133852,0.011575610966488492,0.0008127679480038167,0.0,0.0,0.0,0.0,0.0,0.0,0.0,0.0,0.0
8.218,229,8,218000000,base_footprint,-0.0038477212405582575,0.00020584778538018018,0.9984603722333096,0.05533568240895716,0.0,0.0,0.0,0.0,0.0,0.0,0.0,0.0,0.0,-0.00033877062497515774,-0.00011401467184754629,0.0543280328478605,0.0,0.0,0.0,0.0,0.0,0.0,0.0,0.0,0.0,0.0038241078363234534,0.011324099756706488,6.456472487391039e-06,0.0,0.0,0.0,0.0,0.0,0.0,0.0,0.0,0.0
8.252,230,8,252000000,base_footprint,-0.0038477762706685204,0.00020222889022049028,0.9985110607458495,0.054413374178096184,0.0,0.0,0.0,0.0,0.0,0.0,0.0,0.0,0.0,-0.00034584906986841787,-0.00011663600617809101,0.05422447892763409,0.0,0.0,0.0,0.0,0.0,0.0,0.0,0.0,0.0,0.0038549322205368155,0.011352636266303322,3.0290053299377955e-05,0.0,0.0,0.0,0.0,0.0,0.0,0.0,0.0,0.0
8.286,231,8,286000000,base_footprint,-0.003848063629944724,0.00019843268474408783,0.9985626334408928,0.05345858328050809,0.0,0.0,0.0,0.0,0.0,0.0,0.0,0.0,0.0,-0.0004219147826096749,-0.00011753861792242271,0.05737661397950766,0.0,0.0,0.0,0.0,0.0,0.0,0.0,0.0,0.0,0.003111896226817008,0.01190579842260057,7.768967423684875e-05,0.0,0.0,0.0,0.0,0.0,0.0,0.0,0.0,0.0
8.32,232,8,320000000,base_footprint,-0.003848661016448214,0.0001945289092901546,0.99861432886701,0.05248401802811475,0.0,0.0,0.0,0.0,0.0,0.0,0.0,0.0,0.0,-0.0004907180648269394,-9.381190298603359e-05,0.057289688931983315,0.0,0.0,0.0,0.0,0.0,0.0,0.0,0.0,0.0,0.003939246947342018,0.012049746313622722,-7.8095033791606e-05,0.0,0.0,0.0,0.0,0.0,0.0,0.0,0.0,0.0
8.354,233,8,354000000,base_footprint,-0.0038494948417047664,0.00019065027268159345,0.9986649885160785,0.051511025558786276,0.0,0.0,0.0,0.0,0.0,0.0,0.0,0.0,0.0,-0.0005123330899899658,-6.251262985132336e-05,0.05721314583093024,0.0,0.0,0.0,0.0,0.0,0.0,0.0,0.0,0.0,0.003907479225651715,0.01201850489280445,-0.0001275417997236188,0.0,0.0,0.0,0.0,0.0,0.0,0.0,0.0,0.0
8.396,234,8,388000000,base_footprint,-0.0038505939268467923,0.00018459589938583956,0.9987433127880255,0.04996933071359897,0.0,0.0,0.0,0.0,0.0,0.0,0.0,0.0,0.0,-0.0008777647014368655,9.049660658361412e-05,0.11089892379586844,0.0,0.0,0.0,0.0,0.0,0.0,0.0,0.0,0.0,-0.009018560317535649,0.02158924477880049,-0.00030821797460485576,0.0,0.0,0.0,0.0,0.0,0.0,0.0,0.0,0.0
8.423,235,8,422000000,base_footprint,-0.0038519576747879972,0.0001773340713324476,0.9988359381779413,0.04808221686747279,0.0,0.0,0.0,0.0,0.0,0.0,0.0,0.0,0.0,-0.0009036265375675454,1.150181155621711e-05,0.11132059401550386,0.0,0.0,0.0,0.0,0.0,0.0,0.0,0.0,0.0,0.004630372121956213,0.023873131722246865,1.1466759927485974e-05,0.0,0.0,0.0,0.0,0.0,0.0,0.0,0.0,0.0
8.458,236,8,456000000,base_footprint,-0.0038532834040558646,0.0001702309952392925,0.9989253206147696,0.04618795365781242,0.0,0.0,0.0,0.0,0.0,0.0,0.0,0.0,0.0,-0.0009092310840809908,3.7848617854758466e-05,0.11178823693725073,0.0,0.0,0.0,0.0,0.0,0.0,0.0,0.0,0.0,0.00343166971127851,0.024162896845326083,-0.0001008178231716941,0.0,0.0,0.0,0.0,0.0,0.0,0.0,0.0,0.0
8.496,237,8,490000000,base_footprint,-0.0038558664374534622,0.00016258125037819812,0.9990072659628411,0.044380045232094954,0.0,0.0,0.0,0.0,0.0,0.0,0.0,0.0,0.0,-0.0007879949825920953,8.969481032707363e-05,0.10424490610679425,0.0,0.0,0.0,0.0,0.0,0.0,0.0,0.0,0.0,0.001507271630066315,0.023779262177298702,-9.502872604823392e-05,0.0,0.0,0.0,0.0,0.0,0.0,0.0,0.0,0.0
8.526,238,8,524000000,base_footprint,-0.003853706896748305,0.0001600012646490499,0.9990860093207631,0.04257075665596677,0.0,0.0,0.0,0.0,0.0,0.0,0.0,0.0,0.0,-0.0009942033866325683,0.0008515330656139188,0.09866512787850301,0.0,0.0,0.0,0.0,0.0,0.0,0.0,0.0,0.0,0.004041080997672128,0.023586928356782905,-0.0013272771256406881,0.0,0.0,0.0,0.0,0.0,0.0,0.0,0.0,0.0
8.558,239,8,558000000,base_footprint,-0.003851036495180584,0.0001485145557519717,0.9991515100529559,0.04100496823846594,0.0,0.0,0.0,0.0,0.0,0.0,0.0,0.0,0.0,-0.0011272869816937345,-0.0008913703446051216,0.08170057380903412,0.0,0.0,0.0,0.0,0.0,0.0,0.0,0.0,0.0,-0.044052818802001896,0.02764322220948114,0.0024431139367041155,0.0,0.0,0.0,0.0,0.0,0.0,0.0,0.0,0.0
8.593,240,8,592000000,base_footprint,-0.0038484359454520295,0.0001418548534802357,0.9992099128767068,0.039556534566345905,0.0,0.0,0.0,0.0,0.0,0.0,0.0,0.0,0.0,-0.0007664093643819113,-7.010989720325321e-05,0.09630519451912013,0.0,0.0,0.0,0.0,0.0,0.0,0.0,0.0,0.0,0.031297923876641,0.013201950228565736,-0.0007813734766535893,0.0,0.0,0.0,0.0,0.0,0.0,0.0,0.0,0.0
8.628,241,8,626000000,base_footprint,-0.00385183466537702,0.00013827536708058255,0.9992776961684414,0.03780516089009133,0.0,0.0,0.0,0.0,0.0,0.0,0.0,0.0,0.0,-0.000727940238951334,8.08035745548197e-05,0.10370093439918009,0.0,0.0,0.0,0.0,0.0,0.0,0.0,0.0,0.0,0.020232850449583527,0.01970914267202117,-9.986542669479716e-05,0.0,0.0,0.0,0.0,0.0,0.0,0.0,0.0,0.0
8.66,242,8,660000000,base_footprint,-0.0038513228956613575,0.00013141087252784706,0.9993427377119948,0.036045008328910354,0.0,0.0,0.0,0.0,0.0,0.0,0.0,0.0,0.0,-0.0007289543008117663,-7.6333492850063e-05,0.10355350798033258,0.0,0.0,0.0,0.0,0.0,0.0,0.0,0.0,0.0,0.004068801114837194,0.02231832223108688,0.0003488894844010837,0.0,0.0,0.0,0.0,0.0,0.0,0.0,0.0,0.0
8.694,243,8,694000000,base_footprint,-0.00385097429178221,0.00012875346265541637,0.9993671317979996,0.035362258148901995,0.0,0.0,0.0,0.0,0.0,0.0,0.0,0.0,0.0,-7.444692621678853e-05,2.668182310130661e-05,0.023078201504014573,0.0,0.0,0.0,0.0,0.0,0.0,0.0,0.0,0.0,0.02366753321794109,0.006365267775073578,7.3768068396616e-05,0.0,0.0,0.0,0.0,0.0,0.0,0.0,0.0,0.0
8.728,244,8,728000000,base_footprint,-0.003850972145021144,0.00012729026779857244,0.9993809098462851,0.0349707141124885,0.0,0.0,0.0,0.0,0.0,0.0,0.0,0.0,0.0,-0.00012902441024507716,-0.00015862039575451078,0.02296473080085179,0.0,0.0,0.0,0.0,0.0,0.0,0.0,0.0,0.0,0.0019393088069666795,0.0047899041715991535,0.00027994521989198996,0.0,0.0,0.0,0.0,0.0,0.0,0.0,0.0,0.0
8.762,245,8,762000000,base_footprint,-0.003851124333580639,0.00012575085463416817,0.9993944773475504,0.034580799228860135,0.0,0.0,0.0,0.0,0.0,0.0,0.0,0.0,0.0,-0.00015669440170422652,-0.0001667981682516051,0.022851615285900857,0.0,0.0,0.0,0.0,0.0,0.0,0.0,0.0,0.0,0.002026454911703831,0.0048213742793581215,4.743657198207544e-05,0.0,0.0,0.0,0.0,0.0,0.0,0.0,0.0,0.0
8.804,246,8,796000000,base_footprint,-0.00385158553620667,0.00012369387979817848,0.999412053421492,0.03406901032490408,0.0,0.0,0.0,0.0,0.0,0.0,0.0,0.0,0.0,-0.00024948860619720264,-0.00013972341448927766,0.03076108594014627,0.0,0.0,0.0,0.0,0.0,0.0,0.0,0.0,0.0,0.0001475423725892705,0.006570276418781993,-9.820763019265696e-05,0.0,0.0,0.0,0.0,0.0,0.0,0.0,0.0,0.0
8.828,247,8,830000000,base_footprint,-0.0038523369264699325,0.00012159574832231415,0.9994297257981729,0.03354650362806774,0.0,0.0,0.0,0.0,0.0,0.0,0.0,0.0,0.0,-0.0002772641094013205,-9.101007008238072e-05,0.030672378427452986,0.0,0.0,0.0,0.0,0.0,0.0,0.0,0.0,0.0,0.0022381728523027324,0.006519662736854049,-0.00020865652780004023,0.0,0.0,0.0,0.0,0.0,0.0,0.0,0.0,0.0
8.864,248,8,864000000,base_footprint,-0.003853449543082075,0.00011938785847914353,0.9994470638087091,0.03302579775430846,0.0,0.0,0.0,0.0,0.0,0.0,0.0,0.0,0.0,-0.00027625219965566396,-6.398975732272616e-05,0.03062895383901054,0.0,0.0,0.0,0.0,0.0,0.0,0.0,0.0,0.0,0.0020819617517034194,0.006470831177311604,-0.00012803425334601535,0.0,0.0,0.0,0.0,0.0,0.0,0.0,0.0,0.0
8.898,249,8,898000000,base_footprint,-0.0038545658165602677,0.00011334395446634009,0.9994993914395901,0.031402165329846285,0.0,0.0,0.0,0.0,0.0,0.0,0.0,0.0,0.0,-0.0008359868963730227,-2.9273374245470093e-05,0.10431648867700831,0.0,0.0,0.0,0.0,0.0,0.0,0.0,0.0,0.0,-0.016609103154848412,0.022484283698215826,-0.000218625667234363,0.0,0.0,0.0,0.0,0.0,0.0,0.0,0.0,0.0
8.936,250,8,932000000,base_footprint,-0.003855753466786942,0.00010672401668041484,0.999553550358946,0.0296280566357947,0.0,0.0,0.0,0.0,0.0,0.0,0.0,0.0,0.0,-0.0008286685497501964,-1.3735583922499752e-07,0.10453445342037246,0.0,0.0,0.0,0.0,0.0,0.0,0.0,0.0,0.0,0.001455157643024592,0.022876943879643376,-0.00010518884711914452,0.0,0.0,0.0,0.0,0.0,0.0,0.0,0.0,0.0
8.966,251,8,966000000,base_footprint,-0.0038577107550012246,9.976605815242742e-05,0.999604423489033,0.02785865494998836,0.0,0.0,0.0,0.0,0.0,0.0,0.0,0.0,0.0,-0.0008354099874752567,0.000141689586770596,0.1031091467906697,0.0,0.0,0.0,0.0,0.0,0.0,0.0,0.0,0.0,0.0031971666149914636,0.023034641695948002,-0.00027054421821647083,0.0,0.0,0.0,0.0,0.0,0.0,0.0,0.0,0.0
9.0,252,9,0,base_footprint,-0.003856567479820413,9.598264427461753e-05,0.9996524314836969,0.026079376973736305,0.0,0.0,0.0,0.0,0.0,0.0,0.0,0.0,0.0,-0.0008725547518358491,-0.0005695952858039114,0.10141787074524504,0.0,0.0,0.0,0.0,0.0,0.0,0.0,0.0,0.0,-0.028077428108912034,0.026915183169953023,0.001268790231685252,0.0,0.0,0.0,0.0,0.0,0.0,0.0,0.0,0.0
9.034,253,9,34000000,base_footprint,-0.0038505528582042804,8.4195753448645e-05,0.9996891964148225,0.02463080845704799,0.0,0.0,0.0,0.0,0.0,0.0,0.0,0.0,0.0,-0.0008417465642166374,7.721836276379278e-05,0.08380468429367145,0.0,0.0,0.0,0.0,0.0,0.0,0.0,0.0,0.0,-0.018505047642423805,0.01971497808311663,-0.0012907658228516839,0.0,0.0,0.0,0.0,0.0,0.0,0.0,0.0,0.0
9.068,254,9,68000000,base_footprint,-0.003855239659397842,8.249237860945096e-05,0.9997281084277619,0.022996511509907225,0.0,0.0,0.0,0.0,0.0,0.0,0.0,0.0,0.0,-0.0004775907881690205,0.00018843583404550771,0.09677305710661818,0.0,0.0,0.0,0.0,0.0,0.0,0.0,0.0,0.0,0.04784132136640179,0.01617484087695884,0.00015118630928573798,0.0,0.0,0.0,0.0,0.0,0.0,0.0,0.0,0.0
9.102,255,9,102000000,base_footprint,-0.003853494156960245,7.467577588234313e-05,0.9997641348922378,0.021373338285961805,0.0,0.0,0.0,0.0,0.0,0.0,0.0,0.0,0.0,-0.0007121736396306463,-4.146413973291028e-05,0.09571345045648247,0.0,0.0,0.0,0.0,0.0,0.0,0.0,0.0,0.0,0.00115693666435216,0.021003602493403065,0.0004181382922013341,0.0,0.0,0.0,0.0,0.0,0.0,0.0,0.0,0.0
9.136,256,9,136000000,base_footprint,-0.0038529585806678975,6.846094204189789e-05,0.9997975802541955,0.019747114754584672,0.0,0.0,0.0,0.0,0.0,0.0,0.0,0.0,0.0,-0.0006813727373404176,-0.00010416671097421451,0.0956380702864471,0.0,0.0,0.0,0.0,0.0,0.0,0.0,0.0,0.0,0.002736475468366339,0.020770967624062928,0.00018010406883423743,0.0,0.0,0.0,0.0,0.0,0.0,0.0,0.0,0.0
9.17,257,9,170000000,base_footprint,-0.003864669760461644,6.299462891865628e-05,0.9998283006347546,0.018122626993295116,0.0,0.0,0.0,0.0,0.0,0.0,0.0,0.0,0.0,-0.0006029023749318128,0.002910503885063128,0.09570715433502476,0.0,0.0,0.0,0.0,0.0,0.0,0.0,0.0,0.0,-0.1391148550926277,0.030927618649749536,-0.004252313631575498,0.0,0.0,0.0,0.0,0.0,0.0,0.0,0.0,0.0
9.204,258,9,204000000,base_footprint,-0.0038526693042869584,5.8216254826637554e-05,0.9998475725172803,0.017028954207508048,0.0,0.0,0.0,0.0,0.0,0.0,0.0,0.0,0.0,0.00028701594732234904,-0.0004944054273298772,0.08758580863804893,0.0,0.0,0.0,0.0,0.0,0.0,0.0,0.0,0.0,-0.1936162514413583,0.02708644776547874,0.0024242085090402307,0.0,0.0,0.0,0.0,0.0,0.0,0.0,0.0,0.0
9.238,259,9,238000000,base_footprint,-0.003852729895690298,5.251527718616454e-05,0.9998717593314731,0.0155440858811815,0.0,0.0,0.0,0.0,0.0,0.0,0.0,0.0,0.0,-0.0006344816444100498,-0.00015569846393497368,0.08728967141823238,0.0,0.0,0.0,0.0,0.0,0.0,0.0,0.0,0.0,0.0025067412138201914,0.018191840579031417,-0.0005276047131762764,0.0,0.0,0.0,0.0,0.0,0.0,0.0,0.0,0.0
9.271,260,9,272000000,base_footprint,-0.0038489263535306396,4.68718547141634e-05,0.9998935253450889,0.014075565421128878,0.0,0.0,0.0,0.0,0.0,0.0,0.0,0.0,0.0,2.1977923539553653e-05,0.0017770023613828353,0.08650802073727161,0.0,0.0,0.0,0.0,0.0,0.0,0.0,0.0,0.0,0.13777420210950284,0.010340445727234452,8.332478751102998e-05,0.0,0.0,0.0,0.0,0.0,0.0,0.0,0.0,0.0
9.305,261,9,306000000,base_footprint,-0.0038538220394692207,3.683840027410533e-05,0.9999269518677184,0.011455899229394778,0.0,0.0,0.0,0.0,0.0,0.0,0.0,0.0,0.0,-0.0013317298702276146,-1.4662061751900383e-05,0.17339714207010717,0.0,0.0,0.0,0.0,0.0,0.0,0.0,0.0,0.0,0.18485274177108396,0.02320973497438114,0.0019819760628348062,0.0,0.0,0.0,0.0,0.0,0.0,0.0,0.0,0.0
9.339,262,9,340000000,base_footprint,-0.003854790533646472,2.556167457139424e-05,0.999956369190156,0.008508798539345606,0.0,0.0,0.0,0.0,0.0,0.0,0.0,0.0,0.0,-0.001331532302249904,-6.538579823907353e-05,0.17334050831649328,0.0,0.0,0.0,0.0,0.0,0.0,0.0,0.0,0.0,0.0028409049962555178,0.03780234732554122,-5.136652135873741e-06,0.0,0.0,0.0,0.0,0.0,0.0,0.0,0.0,0.0
9.374,263,9,374000000,base_footprint,-0.003856203528682566,1.4885203674144708e-05,0.9999767763073072,0.005619280987974412,0.0,0.0,0.0,0.0,0.0,0.0,0.0,0.0,0.0,-0.0011478524873016391,-0.00010763470375034353,0.1601491185432525,0.0,0.0,0.0,0.0,0.0,0.0,0.0,0.0,0.0,0.005364434146132501,0.03724461425623819,0.00010553510700328065,0.0,0.0,0.0,0.0,0.0,0.0,0.0,0.0,0.0
9.408,264,9,408000000,base_footprint,-0.003857264090544695,4.222226084112138e-06,0.9999883852651003,0.0028897804079440026,0.0,0.0,0.0,0.0,0.0,0.0,0.0,0.0,0.0,-0.0012112424141124969,-3.672805346075956e-05,0.16050212903055233,0.0,0.0,0.0,0.0,0.0,0.0,0.0,0.0,0.0,-0.0014788524988716468,0.03507458903268404,-0.00029887545500590637,0.0,0.0,0.0,0.0,0.0,0.0,0.0,0.0,0.0
9.442,265,9,442000000,base_footprint,-0.0038588696769919365,-5.476529707733749e-06,0.9999925402652509,0.00016884511984120848,0.0,0.0,0.0,0.0,0.0,0.0,0.0,0.0,0.0,-0.0011251525049874507,7.446128404311155e-05,0.1588437654582054,0.0,0.0,0.0,0.0,0.0,0.0,0.0,0.0,0.0,-0.005086847550345844,0.034871169681495284,-0.00026795783592127223,0.0,0.0,0.0,0.0,0.0,0.0,0.0,0.0,0.0
9.476,266,9,476000000,base_footprint,-0.0038561111800362985,-1.9232286783174778e-05,0.9999898707047592,-0.00232131957420095,0.0,0.0,0.0,0.0,0.0,0.0,0.0,0.0,0.0,-0.001668977772736229,-0.0014255744273099663,0.13135214995445604,0.0,0.0,0.0,0.0,0.0,0.0,0.0,0.0,0.0,-0.04293670994160477,0.03261283800706725,0.0020563165564919717,0.0,0.0,0.0,0.0,0.0,0.0,0.0,0.0,0.0
9.51,267,9,510000000,base_footprint,-0.0038531897392307343,-2.7179962499154768e-05,0.9999821367312351,-0.004569289716857086,0.0,0.0,0.0,0.0,0.0,0.0,0.0,0.0,0.0,-0.0010841461302080447,0.0013891581684644856,0.13194051981753147,0.0,0.0,0.0,0.0,0.0,0.0,0.0,0.0,0.0,0.054090165210724406,0.02906286674037339,-0.004121734369327934,0.0,0.0,0.0,0.0,0.0,0.0,0.0,0.0,0.0
9.544,268,9,544000000,base_footprint,-0.003855535865036721,-3.444407073293648e-05,0.9999689006704832,-0.00687977824240781,0.0,0.0,0.0,0.0,0.0,0.0,0.0,0.0,0.0,-0.001062106634133211,-0.00010420443497548453,0.13613138128368257,0.0,0.0,0.0,0.0,0.0,0.0,0.0,0.0,0.0,-0.008993276290225628,0.029639333761416885,0.002522747032777343,0.0,0.0,0.0,0.0,0.0,0.0,0.0,0.0,0.0
9.578,269,9,578000000,base_footprint,-0.0038545930445229217,-4.295236664458826e-05,0.9999509749613861,-0.00912074236720007,0.0,0.0,0.0,0.0,0.0,0.0,0.0,0.0,0.0,-0.0008104749539015757,0.00011362751880323712,0.12451687984895832,0.0,0.0,0.0,0.0,0.0,0.0,0.0,0.0,0.0,0.0027011944974228794,0.029012421325947134,-0.0001160511428357582,0.0,0.0,0.0,0.0,0.0,0.0,0.0,0.0,0.0
9.612,270,9,612000000,base_footprint,-0.003853394817449024,-5.072210281758956e-05,0.9999294568379155,-0.011235217998811282,0.0,0.0,0.0,0.0,0.0,0.0,0.0,0.0,0.0,-0.0009642212149364863,-0.0001518183848149415,0.12437353349448378,0.0,0.0,0.0,0.0,0.0,0.0,0.0,0.0,0.0,-0.000540128587712166,0.027203315736188723,0.00036631777785593543,0.0,0.0,0.0,0.0,0.0,0.0,0.0,0.0,0.0
9.646,271,9,646000000,base_footprint,-0.0038528634724364188,-5.865725487106472e-05,0.999903485145359,-0.013348123334538697,0.0,0.0,0.0,0.0,0.0,0.0,0.0,0.0,0.0,-0.0009934341551316307,-0.00016835740618572975,0.12428434334340847,0.0,0.0,0.0,0.0,0.0,0.0,0.0,0.0,0.0,-0.00017282307618724413,0.027196970592077527,9.277991452716874e-05,0.0,0.0,0.0,0.0,0.0,0.0,0.0,0.0,0.0
9.677,272,9,680000000,base_footprint,-0.0038527379007602643,-6.580385759810721e-05,0.9998758118899254,-0.015281128164599521,0.0,0.0,0.0,0.0,0.0,0.0,0.0,0.0,0.0,-0.0006745401968315946,-0.0005839321650398691,0.1003260480921227,0.0,0.0,0.0,0.0,0.0,0.0,0.0,0.0,0.0,0.005950144296396836,0.024833353695819203,0.0007100653087687881,0.0,0.0,0.0,0.0,0.0,0.0,0.0,0.0,0.0
9.714,273,9,714000000,base_footprint,-0.003852350793442517,-7.235891022452962e-05,0.9998483775692115,-0.016981638017808425,0.0,0.0,0.0,0.0,0.0,0.0,0.0,0.0,0.0,-0.0007149910144608473,-0.00020931654878391916,0.09999659759316291,0.0,0.0,0.0,0.0,0.0,0.0,0.0,0.0,0.0,-3.277225328900178e-05,0.02274283025949021,-0.00047517181721132344,0.0,0.0,0.0,0.0,0.0,0.0,0.0,0.0,0.0
9.748,274,9,748000000,base_footprint,-0.003852548067779514,-7.81901676958674e-05,0.9998216108915048,-0.01849048820338842,0.0,0.0,0.0,0.0,0.0,0.0,0.0,0.0,0.0,-0.0004905568610417025,-0.0003463983044821854,0.07553472735776968,0.0,0.0,0.0,0.0,0.0,0.0,0.0,0.0,0.0,0.00645295490561972,0.020225854298759647,0.00018158700890011546,0.0,0.0,0.0,0.0,0.0,0.0,0.0,0.0,0.0
9.782,275,9,782000000,base_footprint,-0.0038531612691942605,-8.316256514330477e-05,0.9997970654446229,-0.019773066543708737,0.0,0.0,0.0,0.0,0.0,0.0,0.0,0.0,0.0,-0.0005576351788745594,-0.00012049675694844114,0.07545428449177685,0.0,0.0,0.0,0.0,0.0,0.0,0.0,0.0,0.0,-2.027721758260132e-06,0.016622367613385307,-0.0005199999107007037,0.0,0.0,0.0,0.0,0.0,0.0,0.0,0.0,0.0
9.818,276,9,816000000,base_footprint,-0.003853964955163606,-8.80891613527003e-05,0.9997709057664727,-0.02105410119931937,0.0,0.0,0.0,0.0,0.0,0.0,0.0,0.0,0.0,-0.000543215607653538,-0.0001039815515305801,0.0753382384484601,0.0,0.0,0.0,0.0,0.0,0.0,0.0,0.0,0.0,-2.0095210246145556e-05,0.016579628275448323,-7.874659816409219e-05,0.0,0.0,0.0,0.0,0.0,0.0,0.0,0.0,0.0
9.85,277,9,850000000,base_footprint,-0.00385500268654371,-9.316938298744044e-05,0.9997431910893437,-0.022331192181544023,0.0,0.0,0.0,0.0,0.0,0.0,0.0,0.0,0.0,-0.0005435420702914669,-8.400596957845155e-05,0.0749986271307435,0.0,0.0,0.0,0.0,0.0,0.0,0.0,0.0,0.0,-0.0011044480167838335,0.01645573749051702,-0.0001157601329375855,0.0,0.0,0.0,0.0,0.0,0.0,0.0,0.0,0.0
9.884,278,9,884000000,base_footprint,-0.0038483530875397204,-9.881133611862875e-05,0.9997083245459425,-0.02384211082051981,0.0,0.0,0.0,0.0,0.0,0.0,0.0,0.0,0.0,-0.0008311872780834778,-0.0008581963904832655,0.12317363458258979,0.0,0.0,0.0,0.0,0.0,0.0,0.0,0.0,0.0,-0.22116171528553233,-0.0007726542778737147,-0.00039012417303212286,0.0,0.0,0.0,0.0,0.0,0.0,0.0,0.0,0.0
9.917,279,9,918000000,base_footprint,-0.0038542991943486325,-0.00011127088226948197,0.9996514683616939,-0.026116542627620757,0.0,0.0,0.0,0.0,0.0,0.0,0.0,0.0,0.0,-0.00013857478448335163,0.0009759615417996536,0.1050053231145114,0.0,0.0,0.0,0.0,0.0,0.0,0.0,0.0,0.0,-0.07452936651306799,0.019428555517099665,-0.0032496914431420915,0.0,0.0,0.0,0.0,0.0,0.0,0.0,0.0,0.0
9.952,280,9,952000000,base_footprint,-0.003858773773196724,-0.00011346687404552163,0.9996130333355997,-0.027547787131399586,0.0,0.0,0.0,0.0,0.0,0.0,0.0,0.0,0.0,-0.0009581642862804598,-0.00019763597907758435,0.06392963528896813,0.0,0.0,0.0,0.0,0.0,0.0,0.0,0.0,0.0,-0.05468755925537078,0.011941267619511794,0.0013103801403386692,0.0,0.0,0.0,0.0,0.0,0.0,0.0,0.0,0.0
9.986,281,9,986000000,base_footprint,-0.0038504985222629095,-0.0001156717072420074,0.9995803083362638,-0.02871180014499652,0.0,0.0,0.0,0.0,0.0,0.0,0.0,0.0,0.0,-5.215191150584439e-06,0.00027884262679295376,0.07454683617865332,0.0,0.0,0.0,0.0,0.0,0.0,0.0,0.0,0.0,-0.055432197925487675,0.00842494041292453,-0.0003308073018995225,0.0,0.0,0.0,0.0,0.0,0.0,0.0,0.0,0.0
10.02,282,10,20000000,base_footprint,-0.0038496274611380474,-0.00011954763448335213,0.9995473429938864,-0.029837479629414035,0.0,0.0,0.0,0.0,0.0,0.0,0.0,0.0,0.0,-0.0009405896333341211,0.00045674247814643667,0.053702265750030787,0.0,0.0,0.0,0.0,0.0,0.0,0.0,0.0,0.0,0.04990597737061429,0.019916212995656844,-0.0013773466770055822,0.0,0.0,0.0,0.0,0.0,0.0,0.0,0.0,0.0
10.055,283,10,54000000,base_footprint,-0.003852889949361631,-0.00012574535608405658,0.9995205855695385,-0.03072032633079169,0.0,0.0,0.0,0.0,0.0,0.0,0.0,0.0,0.0,-0.0004433999372162313,-7.19516278099002e-05,0.05236688732399098,0.0,0.0,0.0,0.0,0.0,0.0,0.0,0.0,0.0,0.002864536683558017,0.011085912337399716,0.0014361776790393448,0.0,0.0,0.0,0.0,0.0,0.0,0.0,0.0,0.0
10.088,284,10,88000000,base_footprint,-0.003846214732847143,-0.000126837194293057,0.9994875048567154,-0.031779209868283594,0.0,0.0,0.0,0.0,0.0,0.0,0.0,0.0,0.0,-0.00030030152645641535,-0.0006151902095574599,0.04751839782240356,0.0,0.0,0.0,0.0,0.0,0.0,0.0,0.0,0.0,0.2642854876753045,0.04698006992246743,0.0029345337950060944,0.0,0.0,0.0,0.0,0.0,0.0,0.0,0.0,0.0
10.122,285,10,122000000,base_footprint,-0.003851316332727571,-0.00013068855244795656,0.9994766412005504,-0.03211843672214122,0.0,0.0,0.0,0.0,0.0,0.0,0.0,0.0,0.0,-0.00018576160978278354,-0.00017744976703357485,0.016016126369592095,0.0,0.0,0.0,0.0,0.0,0.0,0.0,0.0,0.0,0.08259747911684938,0.015276996101395442,8.146106786087592e-05,0.0,0.0,0.0,0.0,0.0,0.0,0.0,0.0,0.0
10.156,286,10,156000000,base_footprint,-0.0038509024126650517,-0.00013163917180541312,0.9994679033887605,-0.03238924694110633,0.0,0.0,0.0,0.0,0.0,0.0,0.0,0.0,0.0,-0.000153777105465608,-0.00016474677630701518,0.015921564265590372,0.0,0.0,0.0,0.0,0.0,0.0,0.0,0.0,0.0,0.0007231091151494876,0.0035786990418636816,3.9976570615468184e-05,0.0,0.0,0.0,0.0,0.0,0.0,0.0,0.0,0.0
10.19,287,10,190000000,base_footprint,-0.003850919317306932,-0.00013186173388101977,0.999465434405612,-0.032465342463866745,0.0,0.0,0.0,0.0,0.0,0.0,0.0,0.0,0.0,5.4309722977822705e-06,-0.00012736988157810143,0.0003207116243076957,0.0,0.0,0.0,0.0,0.0,0.0,0.0,0.0,0.0,0.005207900017455529,0.001874750074600432,7.2954020268278e-05,0.0,0.0,0.0,0.0,0.0,0.0,0.0,0.0,0.0
10.225,288,10,224000000,base_footprint,-0.0038511407011726888,-0.00013181761345199,0.999465319730045,-0.0324688465507399,0.0,0.0,0.0,0.0,0.0,0.0,0.0,0.0,0.0,4.2691973352491125e-05,-0.00016258994021622463,0.00019637042079382225,0.0,0.0,0.0,0.0,0.0,0.0,0.0,0.0,0.0,0.0013684971305182288,0.00020292468199039745,5.485729082431287e-05,0.0,0.0,0.0,0.0,0.0,0.0,0.0,0.0,0.0
10.258,289,10,258000000,base_footprint,-0.0038517386077867024,-0.00013181706906704362,0.9994652628053905,-0.03247052785695711,0.0,0.0,0.0,0.0,0.0,0.0,0.0,0.0,0.0,4.9157264611008314e-05,-9.770743806693955e-05,7.735230087227187e-05,0.0,0.0,0.0,0.0,0.0,0.0,0.0,0.0,0.0,0.0013727991446283966,0.00021416678621834196,-0.00026846745124099427,0.0,0.0,0.0,0.0,0.0,0.0,0.0,0.0,0.0
10.292,290,10,292000000,base_footprint,-0.0038525956934414656,-0.00013136048461623686,0.9994690612746705,-0.03235329667244324,0.0,0.0,0.0,0.0,0.0,0.0,0.0,0.0,0.0,0.0001130255589941589,-8.357883794649277e-05,-0.008759849986879082,0.0,0.0,0.0,0.0,0.0,0.0,0.0,0.0,0.0,0.003778595991348895,-0.0009272581389928041,-7.03758336034464e-05,0.0,0.0,0.0,0.0,0.0,0.0,0.0,0.0,0.0
10.33,291,10,326000000,base_footprint,-0.003853653595631672,-0.0001309095527581851,0.9994739833890873,-0.03220075690111226,0.0,0.0,0.0,0.0,0.0,0.0,0.0,0.0,0.0,0.0001117366944611304,-5.846046105492349e-05,-0.009153582397713697,0.0,0.0,0.0,0.0,0.0,0.0,0.0,0.0,0.0,0.0007389614831891641,-0.0018857519844368998,-0.00010610554730140335,0.0,0.0,0.0,0.0,0.0,0.0,0.0,0.0,0.0
10.36,292,10,360000000,base_footprint,-0.0038547906035612325,-0.0001306058825400144,0.9994790590177963,-0.03204269209049961,0.0,0.0,0.0,0.0,0.0,0.0,0.0,0.0,0.0,0.0001256915623770148,-3.742935912640859e-05,-0.00941932444107643,0.0,0.0,0.0,0.0,0.0,0.0,0.0,0.0,0.0,-0.0006848836373511052,-0.0022483518787809816,-0.00010449056149177713,0.0,0.0,0.0,0.0,0.0,0.0,0.0,0.0,0.0
10.394,293,10,394000000,base_footprint,-0.003855619382978567,-0.0001301703478392216,0.9994882713332418,-0.031753940261679596,0.0,0.0,0.0,0.0,0.0,0.0,0.0,0.0,0.0,0.0001541925687663106,-6.548634583420839e-05,-0.020892168002009024,0.0,0.0,0.0,0.0,0.0,0.0,0.0,0.0,0.0,-0.006303385446256347,-0.0039815923161263525,-4.5723662130995034e-05,0.0,0.0,0.0,0.0,0.0,0.0,0.0,0.0,0.0
10.428,294,10,428000000,base_footprint,-0.0038569120349106413,-0.00013015013832571687,0.9994982607409675,-0.03143778087393614,0.0,0.0,0.0,0.0,0.0,0.0,0.0,0.0,0.0,0.00021246685882461957,0.0004297485637811009,-0.014329966504706682,0.0,0.0,0.0,0.0,0.0,0.0,0.0,0.0,0.0,0.003541076217832621,-0.004317768578031592,-0.0006765838506465134,0.0,0.0,0.0,0.0,0.0,0.0,0.0,0.0,0.0
10.462,295,10,462000000,base_footprint,-0.0038515101386954625,-0.00012606975460089683,0.9995028660964139,-0.0312917024324794,0.0,0.0,0.0,0.0,0.0,0.0,0.0,0.0,0.0,0.000366281573261952,-0.0011762696478074947,0.00026666382743090455,0.0,0.0,0.0,0.0,0.0,0.0,0.0,0.0,0.0,-0.047384350413644395,-0.007736715501784625,0.0017427621700127692,0.0,0.0,0.0,0.0,0.0,0.0,0.0,0.0,0.0
10.496,296,10,496000000,base_footprint,-0.003851559083542243,-0.00012675132978967902,0.9995050131737285,-0.031223037445307328,0.0,0.0,0.0,0.0,0.0,0.0,0.0,0.0,0.0,-0.0007079547272160365,0.0008604145222096507,-0.014577089663068053,0.0,0.0,0.0,0.0,0.0,0.0,0.0,0.0,0.0,0.04872563937022627,0.005176014588986631,-0.0027989038786516256,0.0,0.0,0.0,0.0,0.0,0.0,0.0,0.0,0.0
10.53,297,10,530000000,base_footprint,-0.00385255673709038,-0.00012673084287611355,0.9995116586505479,-0.031009449648642943,0.0,0.0,0.0,0.0,0.0,0.0,0.0,0.0,0.0,8.769633230211955e-05,-0.00020654744045985778,-0.012151353504205278,0.0,0.0,0.0,0.0,0.0,0.0,0.0,0.0,0.0,-0.004698206877859577,-0.0033801604476192152,0.0021825163136754565,0.0,0.0,0.0,0.0,0.0,0.0,0.0,0.0,0.0
10.564,298,10,564000000,base_footprint,-0.003851614223807904,-0.00012574413428952986,0.9995181220014131,-0.03080053647344461,0.0,0.0,0.0,0.0,0.0,0.0,0.0,0.0,0.0,5.4270912802971156e-05,-0.0001386675386956123,-0.012338794014759407,0.0,0.0,0.0,0.0,0.0,0.0,0.0,0.0,0.0,0.001667122727876029,-0.002515428723683627,1.4402273658192417e-05,0.0,0.0,0.0,0.0,0.0,0.0,0.0,0.0,0.0
10.601,299,10,598000000,base_footprint,-0.0038602042803618916,-0.00012571659564484307,0.9995334294017741,-0.030298622519515005,0.0,0.0,0.0,0.0,0.0,0.0,0.0,0.0,0.0,-0.00018148866993335968,-0.001405395562654978,-0.037262501468772094,0.0,0.0,0.0,0.0,0.0,0.0,0.0,0.0,0.0,-0.838835373387337,-0.10840719472661661,-0.004793398566336643,0.0,0.0,0.0,0.0,0.0,0.0,0.0,0.0,0.0
10.631,300,10,632000000,base_footprint,-0.003852122033016507,-0.0001227580310789196,0.9995416880779466,-0.03002598675476765,0.0,0.0,0.0,0.0,0.0,0.0,0.0,0.0,0.0,-2.786161415239529e-05,0.0003894546695664756,-0.022676716259614486,0.0,0.0,0.0,0.0,0.0,0.0,0.0,0.0,0.0,0.5073231555444712,0.058203262385152985,0.0013016530807016713,0.0,0.0,0.0,0.0,0.0,0.0,0.0,0.0,0.0
10.666,301,10,666000000,base_footprint,-0.0038516313896134785,-0.00012150867493085009,0.9995528751627413,-0.029651305623495928,0.0,0.0,0.0,0.0,0.0,0.0,0.0,0.0,0.0,-0.0005225947560238637,0.0005805278324476657,-0.0058251199284741345,0.0,0.0,0.0,0.0,0.0,0.0,0.0,0.0,0.0,-0.0044742962646615175,-0.00527920254827429,-0.0007455998409549981,0.0,0.0,0.0,0.0,0.0,0.0,0.0,0.0,0.0
10.699,302,10,700000000,base_footprint,-0.0038513144798042573,-0.0001245008122749435,0.9995268102749008,-0.030517329798134724,0.0,0.0,0.0,0.0,0.0,0.0,0.0,0.0,0.0,-0.0003302681446719901,-0.0002322262775068595,0.053227394475389996,0.0,0.0,0.0,0.0,0.0,0.0,0.0,0.0,0.0,-0.01360710343975016,0.008154988356606413,0.0017258018774240016,0.0,0.0,0.0,0.0,0.0,0.0,0.0,0.0,0.0
10.734,303,10,734000000,base_footprint,-0.0038516442382826653,-0.00012794463405190915,0.9994988367985878,-0.03142011624902847,0.0,0.0,0.0,0.0,0.0,0.0,0.0,0.0,0.0,-0.0003228067351410671,-0.00014573851075615915,0.05311792108241986,0.0,0.0,0.0,0.0,0.0,0.0,0.0,0.0,0.0,-0.0001122021988143859,0.011146250184445514,-0.0002595599746091878,0.0,0.0,0.0,0.0,0.0,0.0,0.0,0.0,0.0
10.768,304,10,768000000,base_footprint,-0.003850146655384723,-0.00013084558275132136,0.9994701671580809,-0.03231940920195345,0.0,0.0,0.0,0.0,0.0,0.0,0.0,0.0,0.0,-6.67458352652846e-05,-0.0005836268493977272,0.05104646014861925,0.0,0.0,0.0,0.0,0.0,0.0,0.0,0.0,0.0,0.056400024505231475,0.018063630943004026,0.0006892422737127777,0.0,0.0,0.0,0.0,0.0,0.0,0.0,0.0,0.0
10.802,305,10,802000000,base_footprint,-0.0038546447348787724,-0.00012707620587831497,0.9994691825066171,-0.03234932433854488,0.0,0.0,0.0,0.0,0.0,0.0,0.0,0.0,0.0,0.0009067327996908708,0.0003487548755059245,0.011600588432543565,0.0,0.0,0.0,0.0,0.0,0.0,0.0,0.0,0.0,0.2757887163114234,0.03703489028453125,0.0019783563544570884,0.0,0.0,0.0,0.0,0.0,0.0,0.0,0.0,0.0
10.836,306,10,836000000,base_footprint,-0.00385445933163522,-0.0001346435955295594,0.9994449253043003,-0.03309027497384429,0.0,0.0,0.0,0.0,0.0,0.0,0.0,0.0,0.0,-0.0002827754315637012,-4.9071416479655164e-05,0.044571485074422185,0.0,0.0,0.0,0.0,0.0,0.0,0.0,0.0,0.0,0.007092577011418459,0.01012936644229728,-0.00045051645095583684,0.0,0.0,0.0,0.0,0.0,0.0,0.0,0.0,0.0
10.870000000000001,307,10,870000000,base_footprint,-0.0038539704644152562,-0.00013393416628176014,0.9994179453110438,-0.03389542098204578,0.0,0.0,0.0,0.0,0.0,0.0,0.0,0.0,0.0,-0.0006429185683812338,-0.00024979177642578084,0.06439604555851838,0.0,0.0,0.0,0.0,0.0,0.0,0.0,0.0,0.0,-0.028642807809715773,0.00662072049054783,-0.0018607605418825752,0.0,0.0,0.0,0.0,0.0,0.0,0.0,0.0,0.0
10.904,308,10,904000000,base_footprint,-0.003852129136659234,-0.00014622658414910537,0.999379486603148,-0.03501116215907238,0.0,0.0,0.0,0.0,0.0,0.0,0.0,0.0,0.0,-0.0005596116291445741,0.00022722864054442897,0.07177893670624776,0.0,0.0,0.0,0.0,0.0,0.0,0.0,0.0,0.0,-0.0004961535028324493,0.014008771488174606,0.00104304010937127,0.0,0.0,0.0,0.0,0.0,0.0,0.0,0.0,0.0
10.938,309,10,938000000,base_footprint,-0.003856122742631911,-0.0001496165480389634,0.9993317541291616,-0.03634767009610537,0.0,0.0,0.0,0.0,0.0,0.0,0.0,0.0,0.0,-0.00033820289296533103,8.33008544310087e-05,0.08577530943841034,0.0,0.0,0.0,0.0,0.0,0.0,0.0,0.0,0.0,-0.01712279332750858,0.015564392185536437,0.0006300792335950095,0.0,0.0,0.0,0.0,0.0,0.0,0.0,0.0,0.0
10.972,310,10,972000000,base_footprint,-0.003851198763893388,-0.00014805233759124085,0.9992771204666617,-0.03782040270070032,0.0,0.0,0.0,0.0,0.0,0.0,0.0,0.0,0.0,-0.001991885239870241,-0.0024352576252426017,0.05334164311977047,0.0,0.0,0.0,0.0,0.0,0.0,0.0,0.0,0.0,-0.04834287830464056,0.011766637645388966,0.002922635102805339,0.0,0.0,0.0,0.0,0.0,0.0,0.0,0.0,0.0
11.006,311,11,6000000,base_footprint,-0.003852667153450083,-0.00015582845813009706,0.9992525271949865,-0.03846452349541405,0.0,0.0,0.0,0.0,0.0,0.0,0.0,0.0,0.0,-0.000687544429645525,0.0006460491828047091,0.025139875314335692,0.0,0.0,0.0,0.0,0.0,0.0,0.0,0.0,0.0,0.08397233495791792,0.02146174423784171,-0.003922196772412447,0.0,0.0,0.0,0.0,0.0,0.0,0.0,0.0,0.0
11.04,312,11,40000000,base_footprint,-0.0038508674155220985,-0.00015716747925109968,0.9992352397633154,-0.03891120318984492,0.0,0.0,0.0,0.0,0.0,0.0,0.0,0.0,0.0,-0.00024871496876808044,-0.00014445617660975642,0.026290448392137976,0.0,0.0,0.0,0.0,0.0,0.0,0.0,0.0,0.0,-0.0037054771915039308,0.005194144559292453,0.0015719627106786619,0.0,0.0,0.0,0.0,0.0,0.0,0.0,0.0,0.0
11.074,313,11,74000000,base_footprint,-0.003850183756789466,-0.00015859335095029528,0.9992189967608912,-0.03932616743780497,0.0,0.0,0.0,0.0,0.0,0.0,0.0,0.0,0.0,-0.00018280779423582495,0.00011706224731959437,0.01924991665236981,0.0,0.0,0.0,0.0,0.0,0.0,0.0,0.0,0.0,0.002219191014276771,0.005937342038408043,-0.0002599671508906873,0.0,0.0,0.0,0.0,0.0,0.0,0.0,0.0,0.0
11.108,314,11,108000000,base_footprint,-0.0038498787318057733,-0.00015969216873792786,0.9992061013548388,-0.039652489801089326,0.0,0.0,0.0,0.0,0.0,0.0,0.0,0.0,0.0,-0.00017864215534173808,-0.00016542179163366648,0.019210881807124595,0.0,0.0,0.0,0.0,0.0,0.0,0.0,0.0,0.0,0.0003149652351967958,0.004310148791429108,0.0003460022289420596,0.0,0.0,0.0,0.0,0.0,0.0,0.0,0.0,0.0
11.142,315,11,142000000,base_footprint,-0.003849960905951853,-0.0001607032324637962,0.9991946872991428,-0.03993906419361755,0.0,0.0,0.0,0.0,0.0,0.0,0.0,0.0,0.0,-8.192778962815491e-05,-5.659048090527044e-05,0.011410498082916755,0.0,0.0,0.0,0.0,0.0,0.0,0.0,0.0,0.0,0.0027365468129516624,0.004285787580083451,-3.356797567976987e-05,0.0,0.0,0.0,0.0,0.0,0.0,0.0,0.0,0.0
11.176,316,11,176000000,base_footprint,-0.003849971287619737,-0.0001613302035432238,0.999186981051481,-0.040131391589099515,0.0,0.0,0.0,0.0,0.0,0.0,0.0,0.0,0.0,-3.625862520221493e-05,-0.00017610083562619253,0.011340458474953788,0.0,0.0,0.0,0.0,0.0,0.0,0.0,0.0,0.0,0.0009106214174991621,0.0026310930386791898,0.00019127105307475465,0.0,0.0,0.0,0.0,0.0,0.0,0.0,0.0,0.0
11.21,317,11,210000000,base_footprint,-0.003850480018123821,-0.00016201600243424268,0.9991793059381341,-0.04032198084709859,0.0,0.0,0.0,0.0,0.0,0.0,0.0,0.0,0.0,-9.23720110365796e-06,-0.00011210521340024729,0.011201501346279176,0.0,0.0,0.0,0.0,0.0,0.0,0.0,0.0,0.0,0.0009379955082309677,0.002659399462219779,-0.00024209934426917294,0.0,0.0,0.0,0.0,0.0,0.0,0.0,0.0,0.0
11.244,318,11,244000000,base_footprint,-0.0038511248735560687,-0.000162785658940213,0.9991716401459579,-0.040511428832789416,0.0,0.0,0.0,0.0,0.0,0.0,0.0,0.0,0.0,-4.016590990566312e-05,-0.00011372783843875064,0.011269603530726311,0.0,0.0,0.0,0.0,0.0,0.0,0.0,0.0,0.0,0.001230502852793646,0.002568177362284699,-0.00010403980129992677,0.0,0.0,0.0,0.0,0.0,0.0,0.0,0.0,0.0
11.276,319,11,278000000,base_footprint,-0.0038488753991487703,-0.000164150370509183,0.9991583377978163,-0.040838403763157706,0.0,0.0,0.0,0.0,0.0,0.0,0.0,0.0,0.0,0.00011525296490472634,0.00034215515553686173,0.052682621834742274,0.0,0.0,0.0,0.0,0.0,0.0,0.0,0.0,0.0,-0.22472095790094798,-0.033153428730649574,-0.002613490714173919,0.0,0.0,0.0,0.0,0.0,0.0,0.0,0.0,0.0
11.31,320,11,312000000,base_footprint,-0.003852779142201101,-0.00017035438501500865,0.9990916060116325,-0.04243924916114624,0.0,0.0,0.0,0.0,0.0,0.0,0.0,0.0,0.0,-0.0007088670521067138,-9.612199692962587e-05,0.1008817655048029,0.0,0.0,0.0,0.0,0.0,0.0,0.0,0.0,0.0,-0.13848356316737145,-0.003933691401296811,-0.0004524911853402932,0.0,0.0,0.0,0.0,0.0,0.0,0.0,0.0,0.0
11.347,321,11,346000000,base_footprint,-0.0038543736392409956,-0.00017679937904109067,0.999017451771933,-0.044150238968121924,0.0,0.0,0.0,0.0,0.0,0.0,0.0,0.0,0.0,-0.0007089664691721706,-4.700635817343328e-05,0.09987493981817008,0.0,0.0,0.0,0.0,0.0,0.0,0.0,0.0,0.0,-0.007272648553177507,0.020360038317175085,-0.0001168803168400533,0.0,0.0,0.0,0.0,0.0,0.0,0.0,0.0,0.0
11.38,322,11,380000000,base_footprint,-0.0038486396666521255,-0.00018911645209034546,0.9989458531891362,-0.04574204415975224,0.0,0.0,0.0,0.0,0.0,0.0,0.0,0.0,0.0,-0.0005766223601780281,-0.0003730848789569689,0.0885046854858175,0.0,0.0,0.0,0.0,0.0,0.0,0.0,0.0,0.0,0.05196276757243808,0.02900200620074053,0.0013808632140073827,0.0,0.0,0.0,0.0,0.0,0.0,0.0,0.0,0.0
11.414,323,11,414000000,base_footprint,-0.0038486994731269986,-0.00019653819070438269,0.9988545266418203,-0.047694690398935556,0.0,0.0,0.0,0.0,0.0,0.0,0.0,0.0,0.0,-0.0011100791118721937,-0.00021483413236546297,0.15912840143012283,0.0,0.0,0.0,0.0,0.0,0.0,0.0,0.0,0.0,0.12799357988466148,0.04973067402551479,0.0006786977955891715,0.0,0.0,0.0,0.0,0.0,0.0,0.0,0.0,0.0
11.448,324,11,448000000,base_footprint,-0.0038448376337480586,-0.00019987258384108445,0.9986903410271162,-0.05101744812966181,0.0,0.0,0.0,0.0,0.0,0.0,0.0,0.0,0.0,-0.001403785490119618,-0.000480092176986665,0.20036815951871245,0.0,0.0,0.0,0.0,0.0,0.0,0.0,0.0,0.0,0.010876552358844428,0.043863198892614565,0.00025263460643959923,0.0,0.0,0.0,0.0,0.0,0.0,0.0,0.0,0.0
11.481,325,11,482000000,base_footprint,-0.003842439383422013,-0.00021100460256435026,0.9985425213534758,-0.05383329997024069,0.0,0.0,0.0,0.0,0.0,0.0,0.0,0.0,0.0,-0.0010236240397369363,0.0017105393199767405,0.11748047777619272,0.0,0.0,0.0,0.0,0.0,0.0,0.0,0.0,0.0,0.004877743932115084,0.038385391740308944,-0.0022394771827043357,0.0,0.0,0.0,0.0,0.0,0.0,0.0,0.0,0.0
11.516,326,11,516000000,base_footprint,-0.0038489864197100245,-0.0002206563194160719,0.9984618259167231,-0.05530930121935279,0.0,0.0,0.0,0.0,0.0,0.0,0.0,0.0,0.0,-0.0007194945034291556,-0.00027302136215023854,0.07090855781935497,0.0,0.0,0.0,0.0,0.0,0.0,0.0,0.0,0.0,0.11401867848168788,0.04505955448039822,0.0028405916441876194,0.0,0.0,0.0,0.0,0.0,0.0,0.0,0.0,0.0
11.55,327,11,550000000,base_footprint,-0.0038469870813216613,-0.00022478319557782956,0.998394314409757,-0.05651498135169718,0.0,0.0,0.0,0.0,0.0,0.0,0.0,0.0,0.0,-0.0005730276316291332,-0.00021747950890071933,0.07100980472578045,0.0,0.0,0.0,0.0,0.0,0.0,0.0,0.0,0.0,-0.002994288912694903,0.015283076439630831,0.00016332453137611624,0.0,0.0,0.0,0.0,0.0,0.0,0.0,0.0,0.0
