Time,header.seq,header.stamp.secs,header.stamp.nsecs,header.frame_id,orientation.x,orientation.y,orientation.z,orientation.w,orientation_covariance_0,orientation_covariance_1,orientation_covariance_2,orientation_covariance_3,orientation_covariance_4,orientation_covariance_5,orientation_covariance_6,orientation_covariance_7,orientation_covariance_8,angular_velocity.x,angular_velocity.y,angular_velocity.z,angular_velocity_covariance_0,angular_velocity_covariance_1,angular_velocity_covariance_2,angular_velocity_covariance_3,angular_velocity_covariance_4,angular_velocity_covariance_5,angular_velocity_covariance_6,angular_velocity_covariance_7,angular_velocity_covariance_8,linear_acceleration.x,linear_acceleration.y,linear_acceleration.z,linear_acceleration_covariance_0,linear_acceleration_covariance_1,linear_acceleration_covariance_2,linear_acceleration_covariance_3,linear_acceleration_covariance_4,linear_acceleration_covariance_5,linear_acceleration_covariance_6,linear_acceleration_covariance_7,linear_acceleration_covariance_8
0.311,0,0,310000000,base_footprint,-7.195012902793636e-06,-0.0013205943660939364,-1.2669240042843976e-06,0.9999991279881933,0.0,0.0,0.0,0.0,0.0,0.0,0.0,0.0,0.0,-9.4731549170659e-05,-0.1572551524284278,-7.655572349462643e-05,0.0,0.0,0.0,0.0,0.0,0.0,0.0,0.0,0.0,0.0035682639773425492,3.028945316292742e-06,-0.13950669682808645,0.0,0.0,0.0,0.0,0.0,0.0,0.0,0.0,0.0
0.343,1,0,344000000,base_footprint,-2.0920645364970743e-05,-0.0009557442394194992,-2.164812715168356e-06,0.9999995430551901,0.0,0.0,0.0,0.0,0.0,0.0,0.0,0.0,0.0,-0.00044788862142863383,0.047663647742827,-5.327492679830863e-05,0.0,0.0,0.0,0.0,0.0,0.0,0.0,0.0,0.0,-0.002035652395765604,-0.00015144757451693547,0.00521080173495066,0.0,0.0,0.0,0.0,0.0,0.0,0.0,0.0,0.0
0.379,2,0,378000000,base_footprint,-2.8651775830226185e-05,-0.00014287503682712104,-2.457840540340542e-06,0.9999999893798792,0.0,0.0,0.0,0.0,0.0,0.0,0.0,0.0,0.0,-0.00044259805576149237,0.04764119308323063,-9.106831882211839e-06,0.0,0.0,0.0,0.0,0.0,0.0,0.0,0.0,0.0,-0.00021069393024244275,0.00012313804738692686,6.599517083409616e-05,0.0,0.0,0.0,0.0,0.0,0.0,0.0,0.0,0.0
0.41600000000000004,3,0,412000000,base_footprint,-3.948730651014874e-05,0.0009421270284266175,-2.900486136790663e-06,0.9999995554144023,0.0,0.0,0.0,0.0,0.0,0.0,0.0,0.0,0.0,-0.0006059481299610024,0.06780451068404024,-2.6152286051810087e-05,0.0,0.0,0.0,0.0,0.0,0.0,0.0,0.0,0.0,-0.0011837450600280497,-2.9699548236627504e-05,0.0029826420407079984,0.0,0.0,0.0,0.0,0.0,0.0,0.0,0.0,0.0
0.446,4,0,446000000,base_footprint,-4.997031448199766e-05,0.002096602375733077,-3.007172487768187e-06,0.9999978008737834,0.0,0.0,0.0,0.0,0.0,0.0,0.0,0.0,0.0,-0.0006029471083406993,0.06772900658379967,-4.679225483350079e-06,0.0,0.0,0.0,0.0,0.0,0.0,0.0,0.0,0.0,-0.00023008493957297728,3.925007384838131e-05,0.00015055564019487706,0.0,0.0,0.0,0.0,0.0,0.0,0.0,0.0,0.0
0.48000000000000004,5,0,480000000,base_footprint,-6.042685521681861e-05,0.003249782969046227,-2.9057479841883267e-06,0.9999947176114512,0.0,0.0,0.0,0.0,0.0,0.0,0.0,0.0,0.0,-0.0006023657487698311,0.067652941357675,2.0343155131389558e-06,0.0,0.0,0.0,0.0,0.0,0.0,0.0,0.0,0.0,-0.0002321498774936943,1.0445087183622883e-05,0.00015292055267006945,0.0,0.0,0.0,0.0,0.0,0.0,0.0,0.0,0.0
0.514,6,0,514000000,base_footprint,-7.932548802377193e-06,0.003889721163947406,-8.7052112339118e-06,0.9999924349366653,0.0,0.0,0.0,0.0,0.0,0.0,0.0,0.0,0.0,-2.737703235035689e-05,-0.029943199273441478,-0.0005997430158057058,0.0,0.0,0.0,0.0,0.0,0.0,0.0,0.0,0.0,0.00790499039641397,0.00545349587854644,0.13093151938200157,0.0,0.0,0.0,0.0,0.0,0.0,0.0,0.0,0.0
0.549,7,0,548000000,base_footprint,-7.181738671418468e-06,0.0038605051997693354,-1.404875038230953e-05,0.9999925480975635,0.0,0.0,0.0,0.0,0.0,0.0,0.0,0.0,0.0,4.532659342271522e-05,0.00010366543804642111,7.13636115765694e-05,0.0,0.0,0.0,0.0,0.0,0.0,0.0,0.0,0.0,-0.006217682076939652,-0.005318612341963982,0.00078992738899322,0.0,0.0,0.0,0.0,0.0,0.0,0.0,0.0,0.0
0.5890000000000001,8,0,582000000,base_footprint,-7.3136023745149e-06,0.0038607285928495814,-1.0710353512423632e-05,0.9999925472754946,0.0,0.0,0.0,0.0,0.0,0.0,0.0,0.0,0.0,3.154995258945818e-05,-0.00019274203693758462,0.00028416620908563496,0.0,0.0,0.0,0.0,0.0,0.0,0.0,0.0,0.0,-5.058267591265966e-05,0.00041508775782815176,0.0002973361394818355,0.0,0.0,0.0,0.0,0.0,0.0,0.0,0.0,0.0
0.62,9,0,616000000,base_footprint,-7.371494978942929e-06,0.00386062314728806,-5.736078650808199e-06,0.9999925477230683,0.0,0.0,0.0,0.0,0.0,0.0,0.0,0.0,0.0,3.440089573971314e-05,-0.00018096476698646507,0.00032823725103891133,0.0,0.0,0.0,0.0,0.0,0.0,0.0,0.0,0.0,-1.3199322221262234e-05,8.655223087666995e-05,-1.82638329612707e-05,0.0,0.0,0.0,0.0,0.0,0.0,0.0,0.0,0.0
0.647,10,0,650000000,base_footprint,-7.4075689312265086e-06,0.003860599629747109,-3.572622020457844e-07,0.9999925478299823,0.0,0.0,0.0,0.0,0.0,0.0,0.0,0.0,0.0,3.512120546734183e-05,-0.00017906480923561357,0.00033968899921967043,0.0,0.0,0.0,0.0,0.0,0.0,0.0,0.0,0.0,-3.3792037786580876e-06,2.253557582593035e-05,-3.400395402451263e-06,0.0,0.0,0.0,0.0,0.0,0.0,0.0,0.0,0.0
0.685,11,0,684000000,base_footprint,-7.436620307205647e-06,0.0038605935220502184,5.127256096281536e-06,0.9999925478402654,0.0,0.0,0.0,0.0,0.0,0.0,0.0,0.0,0.0,3.534481382357963e-05,-0.00017855479426682485,0.0003427309199690638,0.0,0.0,0.0,0.0,0.0,0.0,0.0,0.0,0.0,-9.04622858023402e-07,5.982444741158724e-06,-9.014568262274346e-07,0.0,0.0,0.0,0.0,0.0,0.0,0.0,0.0,0.0
0.7180000000000001,12,0,718000000,base_footprint,-7.4634479845375466e-06,0.0038605921048391065,1.063993310449388e-05,0.9999925478020769,0.0,0.0,0.0,0.0,0.0,0.0,0.0,0.0,0.0,3.542974890636687e-05,-0.00017841884788321298,0.00034354874937337693,0.0,0.0,0.0,0.0,0.0,0.0,0.0,0.0,0.0,-2.49785910515854e-07,1.6045921480741352e-06,-2.344532897834129e-07,0.0,0.0,0.0,0.0,0.0,0.0,0.0,0.0,0.0
0.758,13,0,752000000,base_footprint,-7.489355332249326e-06,0.0038605919303945834,1.6160241412581638e-05,0.9999925477285835,0.0,0.0,0.0,0.0,0.0,0.0,0.0,0.0,0.0,3.547615409807973e-05,-0.0001783821305101518,0.0003437777654742394,0.0,0.0,0.0,0.0,0.0,0.0,0.0,0.0,0.0,-7.63869292473299e-08,4.4552201449910684e-07,-5.820034410522348e-08,0.0,0.0,0.0,0.0,0.0,0.0,0.0,0.0,0.0
0.798,14,0,786000000,base_footprint,-7.514718281337294e-06,0.0038605920873687866,2.1682746728586995e-05,0.9999925476232924,0.0,0.0,0.0,0.0,0.0,0.0,0.0,0.0,0.0,3.551061944922465e-05,-0.00017837168473892263,0.0003438509244594719,0.0,0.0,0.0,0.0,0.0,0.0,0.0,0.0,0.0,-3.0478668024329954e-08,1.3865806922075678e-07,-1.2030355491391373e-08,0.0,0.0,0.0,0.0,0.0,0.0,0.0,0.0,0.0
0.8400000000000001,15,0,820000000,base_footprint,-7.53966435107375e-06,0.003860592334252822,2.7206010397420806e-05,0.9999925474871376,0.0,0.0,0.0,0.0,0.0,0.0,0.0,0.0,0.0,3.554034723359158e-05,-0.00017836820601103403,0.00034388283920255163,0.0,0.0,0.0,0.0,0.0,0.0,0.0,0.0,0.0,-1.832494514049092e-08,5.739659288153101e-08,-2.406115694562017e-10,0.0,0.0,0.0,0.0,0.0,0.0,0.0,0.0,0.0
0.8540000000000001,16,0,854000000,base_footprint,-7.564252699149768e-06,0.0038605926069081252,3.2729651515824795e-05,0.9999925473203667,0.0,0.0,0.0,0.0,0.0,0.0,0.0,0.0,0.0,3.556739028121525e-05,-0.00017836658261604737,0.00034390384919611144,0.0,0.0,0.0,0.0,0.0,0.0,0.0,0.0,0.0,-1.5108199860755175e-08,3.5859996298264994e-08,2.4882078273178727e-09,0.0,0.0,0.0,0.0,0.0,0.0,0.0,0.0,0.0
0.874,17,0,888000000,base_footprint,-7.588522027644957e-06,0.003860592888167663,3.825356919733638e-05,0.9999925471230426,0.0,0.0,0.0,0.0,0.0,0.0,0.0,0.0,0.0,3.559242500447297e-05,-0.0001783654604692022,0.00034392198441390214,0.0,0.0,0.0,0.0,0.0,0.0,0.0,0.0,0.0,-1.4257537248644332e-08,3.0135510784434726e-08,2.854692452054879e-09,0.0,0.0,0.0,0.0,0.0,0.0,0.0,0.0,0.0
0.922,18,0,922000000,base_footprint,-7.612503483058656e-06,0.003860593173315947,4.377773669063034e-05,0.9999925468951805,0.0,0.0,0.0,0.0,0.0,0.0,0.0,0.0,0.0,3.561575106243786e-05,-0.0001783644800185247,0.00034393937007803633,0.0,0.0,0.0,0.0,0.0,0.0,0.0,0.0,0.0,-1.4033527509719627e-08,2.860014564937602e-08,2.6288264757722964e-09,0.0,0.0,0.0,0.0,0.0,0.0,0.0,0.0,0.0
0.9560000000000001,19,0,956000000,base_footprint,-7.636224270219415e-06,0.003860593460948828,4.930214687441266e-05,0.9999925466367816,0.0,0.0,0.0,0.0,0.0,0.0,0.0,0.0,0.0,3.5637557074440374e-05,-0.00017836354548132093,0.0003439565677847456,0.0,0.0,0.0,0.0,0.0,0.0,0.0,0.0,0.0,-1.3975439484783303e-08,2.817566615311079e-08,2.2764576759420337e-09,0.0,0.0,0.0,0.0,0.0,0.0,0.0,0.0,0.0
0.9900000000000001,20,0,990000000,base_footprint,-7.659708789103101e-06,0.0038605937505539,5.482679782748661e-05,0.9999925463478437,0.0,0.0,0.0,0.0,0.0,0.0,0.0,0.0,0.0,3.5657992144632015e-05,-0.00017836263058239373,0.0003439737245970977,0.0,0.0,0.0,0.0,0.0,0.0,0.0,0.0,0.0,-1.3961106066364728e-08,2.804564355848193e-08,1.917391724327771e-09,0.0,0.0,0.0,0.0,0.0,0.0,0.0,0.0,0.0
1.024,21,1,24000000,base_footprint,-7.68297909979738e-06,0.003860594041867657,6.0351689008168545e-05,0.999992546028364,0.0,0.0,0.0,0.0,0.0,0.0,0.0,0.0,0.0,3.5677185779742844e-05,-0.00017836172762445354,0.0003439908792990845,0.0,0.0,0.0,0.0,0.0,0.0,0.0,0.0,0.0,-1.3958573179049681e-08,2.7996471259190814e-08,1.5811768551653626e-09,0.0,0.0,0.0,0.0,0.0,0.0,0.0,0.0,0.0
1.059,22,1,58000000,base_footprint,-7.7060551937383e-06,0.0038605943347039305,6.587682024326256e-05,0.9999925456783386,0.0,0.0,0.0,0.0,0.0,0.0,0.0,0.0,0.0,3.569525386525497e-05,-0.00017836083395025742,0.00034400804093636566,0.0,0.0,0.0,0.0,0.0,0.0,0.0,0.0,0.0,-1.3959035471160441e-08,2.7969223127101776e-08,1.273660627214657e-09,0.0,0.0,0.0,0.0,0.0,0.0,0.0,0.0,0.0
1.099,23,1,92000000,base_footprint,-7.728955200177022e-06,0.0038605946289074025,7.140219146237753e-05,0.9999925452977645,0.0,0.0,0.0,0.0,0.0,0.0,0.0,0.0,0.0,3.571230118806423e-05,-0.00017835994857608102,0.00034402521210433656,0.0,0.0,0.0,0.0,0.0,0.0,0.0,0.0,0.0,-1.3960554838619022e-08,2.7950787896338313e-08,9.94081356727873e-10,0.0,0.0,0.0,0.0,0.0,0.0,0.0,0.0,0.0
1.1280000000000001,24,1,126000000,base_footprint,-7.751695562638313e-06,0.003860594924341959,7.692780263001832e-05,0.999992544886638,0.0,0.0,0.0,0.0,0.0,0.0,0.0,0.0,0.0,3.5728422578655154e-05,-0.00017835907037967133,0.00034404239204961155,0.0,0.0,0.0,0.0,0.0,0.0,0.0,0.0,0.0,-1.3962134005750352e-08,2.7934261441906973e-08,7.400329989810595e-10,0.0,0.0,0.0,0.0,0.0,0.0,0.0,0.0,0.0
1.178,25,1,160000000,base_footprint,-7.774291196849367e-06,0.0038605952208842506,8.245365371300305e-05,0.9999925444449553,0.0,0.0,0.0,0.0,0.0,0.0,0.0,0.0,0.0,3.574370408163257e-05,-0.00017835819868794955,0.0003440595804337125,0.0,0.0,0.0,0.0,0.0,0.0,0.0,0.0,0.0,-1.396385986503429e-08,2.7920125780388664e-08,5.09565264927724e-10,0.0,0.0,0.0,0.0,0.0,0.0,0.0,0.0,0.0
1.192,26,1,194000000,base_footprint,-7.796755632901803e-06,0.0038605955184227727,8.79797446887511e-05,0.999992543972713,0.0,0.0,0.0,0.0,0.0,0.0,0.0,0.0,0.0,3.5758223849073947e-05,-0.0001783573329854456,0.0003440767762674025,0.0,0.0,0.0,0.0,0.0,0.0,0.0,0.0,0.0,-1.3965513977958983e-08,2.790683768765086e-08,3.00537911650861e-10,0.0,0.0,0.0,0.0,0.0,0.0,0.0,0.0,0.0
1.228,27,1,228000000,base_footprint,-7.819101144306649e-06,0.0038605958168557745,9.350607553726868e-05,0.9999925434699074,0.0,0.0,0.0,0.0,0.0,0.0,0.0,0.0,0.0,3.5772052595015077e-05,-0.00017835647255429294,0.0003440939793849888,0.0,0.0,0.0,0.0,0.0,0.0,0.0,0.0,0.0,-1.3967327654520125e-08,2.789573355363583e-08,1.1074313414679489e-10,0.0,0.0,0.0,0.0,0.0,0.0,0.0,0.0,0.0
1.264,28,1,262000000,base_footprint,-7.84133886413046e-06,0.003860596116092416,9.903264624201958e-05,0.9999925429365346,0.0,0.0,0.0,0.0,0.0,0.0,0.0,0.0,0.0,3.578525449120668e-05,-0.00017835561695740852,0.0003441111890204468,0.0,0.0,0.0,0.0,0.0,0.0,0.0,0.0,0.0,-1.3969098200054292e-08,2.7885404609039312e-08,-6.134020440050687e-11,0.0,0.0,0.0,0.0,0.0,0.0,0.0,0.0,0.0
1.3,29,1,296000000,base_footprint,-7.863478891276505e-06,0.0038605964160487722,0.00010455945678854406,0.999992542372591,0.0,0.0,0.0,0.0,0.0,0.0,0.0,0.0,0.0,3.579788789197739e-05,-0.00017835476583513314,0.00034412840475853785,0.0,0.0,0.0,0.0,0.0,0.0,0.0,0.0,0.0,-1.397090906962766e-08,2.7876343564205712e-08,-2.1752767729648171e-10,0.0,0.0,0.0,0.0,0.0,0.0,0.0,0.0,0.0
1.352,30,1,330000000,base_footprint,-7.885530386481984e-06,0.0038605967166494264,0.00011008650716660101,0.9999925417780728,0.0,0.0,0.0,0.0,0.0,0.0,0.0,0.0,0.0,3.581000555236456e-05,-0.00017835391858877372,0.0003441456258745132,0.0,0.0,0.0,0.0,0.0,0.0,0.0,0.0,0.0,-1.397266461128832e-08,2.7867734506790777e-08,-3.591769356380296e-10,0.0,0.0,0.0,0.0,0.0,0.0,0.0,0.0,0.0
1.366,31,1,364000000,base_footprint,-7.907501659711785e-06,0.003860597017825254,0.00011561379736821314,0.9999925411529765,0.0,0.0,0.0,0.0,0.0,0.0,0.0,0.0,0.0,3.582165548033114e-05,-0.00017835307499305974,0.0003441628525998657,0.0,0.0,0.0,0.0,0.0,0.0,0.0,0.0,0.0,-1.3974616981656939e-08,2.7861282961257396e-08,-4.874956345106494e-10,0.0,0.0,0.0,0.0,0.0,0.0,0.0,0.0,0.0
1.397,32,1,398000000,base_footprint,-7.929400248570826e-06,0.0038605973195148095,0.00012114132738492518,0.999992540497298,0.0,0.0,0.0,0.0,0.0,0.0,0.0,0.0,0.0,3.5832881124959154e-05,-0.00017835223461067513,0.00034418008350847913,0.0,0.0,0.0,0.0,0.0,0.0,0.0,0.0,0.0,-1.3976283202097958e-08,2.7853588538662702e-08,-6.044275610982226e-10,0.0,0.0,0.0,0.0,0.0,0.0,0.0,0.0,0.0
1.432,33,1,432000000,base_footprint,-7.95123299109325e-06,0.003860597621660391,0.00012666909721135636,0.9999925398110335,0.0,0.0,0.0,0.0,0.0,0.0,0.0,0.0,0.0,3.584372193167371e-05,-0.00017835139722333722,0.0003441973192896612,0.0,0.0,0.0,0.0,0.0,0.0,0.0,0.0,0.0,-1.3978255728622999e-08,2.7848639341365763e-08,-7.100509367043057e-10,0.0,0.0,0.0,0.0,0.0,0.0,0.0,0.0,0.0
1.465,34,1,466000000,base_footprint,-7.97300608972386e-06,0.0038605979242116437,0.0001321971068463044,0.9999925390941794,0.0,0.0,0.0,0.0,0.0,0.0,0.0,0.0,0.0,3.585421370409894e-05,-0.00017835056237971167,0.0003442145591970553,0.0,0.0,0.0,0.0,0.0,0.0,0.0,0.0,0.0,-1.398011856652245e-08,2.784350373662374e-08,-8.060466536011563e-10,0.0,0.0,0.0,0.0,0.0,0.0,0.0,0.0,0.0
1.509,35,1,500000000,base_footprint,-7.994725170640532e-06,0.003860598227121376,0.00013772535628769165,0.9999925383467316,0.0,0.0,0.0,0.0,0.0,0.0,0.0,0.0,0.0,3.586438875767491e-05,-0.00017834973003846835,0.00034423180257463833,0.0,0.0,0.0,0.0,0.0,0.0,0.0,0.0,0.0,-1.3981872761446012e-08,2.783823982920913e-08,-8.931358845428507e-10,0.0,0.0,0.0,0.0,0.0,0.0,0.0,0.0,0.0
1.5310000000000001,36,1,534000000,base_footprint,-8.016395337617276e-06,0.0038605985303473943,0.0001432538455338694,0.9999925375686864,0.0,0.0,0.0,0.0,0.0,0.0,0.0,0.0,0.0,3.587427676357702e-05,-0.00017834889978101634,0.00034424904955509644,0.0,0.0,0.0,0.0,0.0,0.0,0.0,0.0,0.0,-1.3983756476157951e-08,2.7834283265688236e-08,-9.721504351153602e-10,0.0,0.0,0.0,0.0,0.0,0.0,0.0,0.0,0.0
1.568,37,1,568000000,base_footprint,-8.038021220385756e-06,0.0038605988338513797,0.00014878257458675873,0.99999253676004,0.0,0.0,0.0,0.0,0.0,0.0,0.0,0.0,0.0,3.588390418016562e-05,-0.00017834807151319526,0.00034426629999209635,0.0,0.0,0.0,0.0,0.0,0.0,0.0,0.0,0.0,-1.3985670729420667e-08,2.7830976175389016e-08,-1.043956303290951e-09,0.0,0.0,0.0,0.0,0.0,0.0,0.0,0.0,0.0
1.602,38,1,602000000,base_footprint,-8.059607018307566e-06,0.0038605991375983517,0.0001543115434482699,0.9999925359207884,0.0,0.0,0.0,0.0,0.0,0.0,0.0,0.0,0.0,3.589329547161946e-05,-0.0001783472448801174,0.0003442835535316543,0.0,0.0,0.0,0.0,0.0,0.0,0.0,0.0,0.0,-1.3987554854073734e-08,2.7827849080625044e-08,-1.1091134026188885e-09,0.0,0.0,0.0,0.0,0.0,0.0,0.0,0.0,0.0
1.635,39,1,636000000,base_footprint,-8.08115654092651e-06,0.0038605994415566625,0.0001598407521198206,0.9999925350509278,0.0,0.0,0.0,0.0,0.0,0.0,0.0,0.0,0.0,3.590247243059957e-05,-0.00017834641988753088,0.00034430080982295394,0.0,0.0,0.0,0.0,0.0,0.0,0.0,0.0,0.0,-1.3989388697641669e-08,2.78248190688709e-08,-1.1679980572970624e-09,0.0,0.0,0.0,0.0,0.0,0.0,0.0,0.0,0.0
1.67,40,1,670000000,base_footprint,-8.10267324357829e-06,0.0038605997456977823,0.00016537020061126384,0.9999925341504542,0.0,0.0,0.0,0.0,0.0,0.0,0.0,0.0,0.0,3.5911455007698744e-05,-0.0001783455961861318,0.00034431806918148745,0.0,0.0,0.0,0.0,0.0,0.0,0.0,0.0,0.0,-1.3991382816780109e-08,2.7823096972508508e-08,-1.2217834076800156e-09,0.0,0.0,0.0,0.0,0.0,0.0,0.0,0.0,0.0
1.714,41,1,704000000,base_footprint,-8.124160260953156e-06,0.00386060004999532,0.00017089988892428115,0.9999925332193637,0.0,0.0,0.0,0.0,0.0,0.0,0.0,0.0,0.0,3.5920261377207836e-05,-0.0001783447738239272,0.0003443353306259959,0.0,0.0,0.0,0.0,0.0,0.0,0.0,0.0,0.0,-1.3993130515899576e-08,2.7820121098496686e-08,-1.2703553011213472e-09,0.0,0.0,0.0,0.0,0.0,0.0,0.0,0.0,0.0
1.738,42,1,738000000,base_footprint,-8.145620436564352e-06,0.0038606003544258,0.00017642981706372866,0.9999925322576524,0.0,0.0,0.0,0.0,0.0,0.0,0.0,0.0,0.0,3.5928907860836643e-05,-0.00017834395263045423,0.00034435259487814357,0.0,0.0,0.0,0.0,0.0,0.0,0.0,0.0,0.0,-1.3995139417832102e-08,2.7819120588372618e-08,-1.3144408883378741e-09,0.0,0.0,0.0,0.0,0.0,0.0,0.0,0.0,0.0
1.7730000000000001,43,1,772000000,base_footprint,-8.167056349522796e-06,0.003860600658967363,0.0001819599850355101,0.9999925312653165,0.0,0.0,0.0,0.0,0.0,0.0,0.0,0.0,0.0,3.5937409407374144e-05,-0.00017834313237130784,0.0003443698609838577,0.0,0.0,0.0,0.0,0.0,0.0,0.0,0.0,0.0,-1.3996912884335272e-08,2.7816802248430813e-08,-1.3546385877206396e-09,0.0,0.0,0.0,0.0,0.0,0.0,0.0,0.0,0.0
1.8210000000000002,44,1,806000000,base_footprint,-8.188470339637302e-06,0.0038606009636009153,0.00018749039284642556,0.9999925302423521,0.0,0.0,0.0,0.0,0.0,0.0,0.0,0.0,0.0,3.594577949072349e-05,-0.00017834231292001025,0.0003443871295954007,0.0,0.0,0.0,0.0,0.0,0.0,0.0,0.0,0.0,-1.399891898770306e-08,2.7816219859497116e-08,-1.3910839545939677e-09,0.0,0.0,0.0,0.0,0.0,0.0,0.0,0.0,0.0
1.843,45,1,840000000,base_footprint,-8.20986452918765e-06,0.0038606012683085845,0.0001930210405033594,0.9999925291887551,0.0,0.0,0.0,0.0,0.0,0.0,0.0,0.0,0.0,3.595403023860306e-05,-0.00017834149430530046,0.00034440439997805234,0.0,0.0,0.0,0.0,0.0,0.0,0.0,0.0,0.0,-1.4000736316824039e-08,2.781464604991471e-08,-1.4239940153527528e-09,0.0,0.0,0.0,0.0,0.0,0.0,0.0,0.0,0.0
1.866,46,1,874000000,base_footprint,-8.23124084335277e-06,0.003860601573074263,0.00019855192801669506,0.9999925281045217,0.0,0.0,0.0,0.0,0.0,0.0,0.0,0.0,0.0,3.596217288979409e-05,-0.00017834067642732036,0.0003444216725972202,0.0,0.0,0.0,0.0,0.0,0.0,0.0,0.0,0.0,-1.4002723797556764e-08,2.7814372646335256e-08,-1.453866690950004e-09,0.0,0.0,0.0,0.0,0.0,0.0,0.0,0.0,0.0
1.908,47,1,908000000,base_footprint,-8.252601028509927e-06,0.0038606018778833194,0.00020408305539735324,0.9999925269896479,0.0,0.0,0.0,0.0,0.0,0.0,0.0,0.0,0.0,3.597021743787749e-05,-0.00017833985913171888,0.00034443894697542714,0.0,0.0,0.0,0.0,0.0,0.0,0.0,0.0,0.0,-1.4004603649755134e-08,2.781352545851213e-08,-1.4813287260433321e-09,0.0,0.0,0.0,0.0,0.0,0.0,0.0,0.0,0.0
1.9420000000000002,48,1,942000000,base_footprint,-8.273946668608655e-06,0.0038606021827225097,0.0002096144226522987,0.9999925258441297,0.0,0.0,0.0,0.0,0.0,0.0,0.0,0.0,0.0,3.597817311670248e-05,-0.00017833904237596072,0.000344456223408521,0.0,0.0,0.0,0.0,0.0,0.0,0.0,0.0,0.0,-1.4006592655824155e-08,2.7813578933839684e-08,-1.50577172511805e-09,0.0,0.0,0.0,0.0,0.0,0.0,0.0,0.0,0.0
1.981,49,1,976000000,base_footprint,-8.29527920058238e-06,0.003860602487580095,0.00021514602979091696,0.9999925246679634,0.0,0.0,0.0,0.0,0.0,0.0,0.0,0.0,0.0,3.598604813968799e-05,-0.00017833822599554682,0.000344473501030882,0.0,0.0,0.0,0.0,0.0,0.0,0.0,0.0,0.0,-1.4008356194922075e-08,2.7812245089755366e-08,-1.5285744044535179e-09,0.0,0.0,0.0,0.0,0.0,0.0,0.0,0.0,0.0
2.01,50,2,10000000,base_footprint,-8.116843165844e-06,0.003855514406055402,0.0002236369328220349,0.9999925424368443,0.0,0.0,0.0,0.0,0.0,0.0,0.0,0.0,0.0,4.062535961476061e-05,-0.00011621596209088214,0.0004397896481319365,0.0,0.0,0.0,0.0,0.0,0.0,0.0,0.0,0.0,0.784351738300065,0.0005329658640155563,-0.006121742393653591,0.0,0.0,0.0,0.0,0.0,0.0,0.0,0.0,0.0
2.046,51,2,44000000,base_footprint,-8.239175628270923e-06,0.0038539745655359783,0.0002336260843444449,0.9999925460877281,0.0,0.0,0.0,0.0,0.0,0.0,0.0,0.0,0.0,-2.599236751540714e-05,-0.004194049530747148,0.0005975015287588452,0.0,0.0,0.0,0.0,0.0,0.0,0.0,0.0,0.0,0.7892355081326764,0.0006716319393955848,-0.0031574537417895275,0.0,0.0,0.0,0.0,0.0,0.0,0.0,0.0,0.0
2.078,52,2,78000000,base_footprint,-8.381434865639185e-06,0.0038537688030194682,0.00024648581246070587,0.9999925437924567,0.0,0.0,0.0,0.0,0.0,0.0,0.0,0.0,0.0,9.590622552520406e-06,-0.0021280271029677916,0.0006857104736734431,0.0,0.0,0.0,0.0,0.0,0.0,0.0,0.0,0.0,0.7817177638849273,0.0005582181748784295,-0.00608249772253356,0.0,0.0,0.0,0.0,0.0,0.0,0.0,0.0,0.0
2.112,53,2,112000000,base_footprint,-8.547773301129756e-06,0.0038548474025144686,0.0002624379379953826,0.999992535574525,0.0,0.0,0.0,0.0,0.0,0.0,0.0,0.0,0.0,7.735566662663624e-06,-0.0021747198537242648,0.0008722947648116623,0.0,0.0,0.0,0.0,0.0,0.0,0.0,0.0,0.0,0.7717974602202684,0.0007670107006222507,-0.005878258778756468,0.0,0.0,0.0,0.0,0.0,0.0,0.0,0.0,0.0
2.153,54,2,146000000,base_footprint,-8.724753394716935e-06,0.003856372616063805,0.00028102751959199404,0.9999925246408885,0.0,0.0,0.0,0.0,0.0,0.0,0.0,0.0,0.0,8.408238571613073e-05,-0.00032760946922378106,0.0009364617527240043,0.0,0.0,0.0,0.0,0.0,0.0,0.0,0.0,0.0,0.7333514061039106,0.0005400785854732051,-0.007532270930608756,0.0,0.0,0.0,0.0,0.0,0.0,0.0,0.0,0.0
2.184,55,2,180000000,base_footprint,-8.912666699745946e-06,0.0038602578267332155,0.00030160148590381526,0.999992503655212,0.0,0.0,0.0,0.0,0.0,0.0,0.0,0.0,0.0,7.929270216874742e-05,0.0005136891902112912,0.0011507938965077743,0.0,0.0,0.0,0.0,0.0,0.0,0.0,0.0,0.0,0.6636632076519482,0.0008158672640793872,-0.006770849910331167,0.0,0.0,0.0,0.0,0.0,0.0,0.0,0.0,0.0
2.214,56,2,214000000,base_footprint,-9.294357989577253e-06,0.003864202834455113,0.0003251976080488236,0.9999924810200249,0.0,0.0,0.0,0.0,0.0,0.0,0.0,0.0,0.0,3.5174052956189326e-05,-6.858857913913526e-05,0.0015370349390442354,0.0,0.0,0.0,0.0,0.0,0.0,0.0,0.0,0.0,0.5471444948130122,0.0011029870453792587,-0.003744352979355653,0.0,0.0,0.0,0.0,0.0,0.0,0.0,0.0,0.0
2.248,57,2,248000000,base_footprint,-9.71747750818755e-06,0.0038667846204370076,0.0003526629286741556,0.9999924617271516,0.0,0.0,0.0,0.0,0.0,0.0,0.0,0.0,0.0,3.013107236552275e-05,-5.47403506378271e-05,0.0016607111712052482,0.0,0.0,0.0,0.0,0.0,0.0,0.0,0.0,0.0,0.3834104063958756,0.0005097057252273444,-0.0029661067030528057,0.0,0.0,0.0,0.0,0.0,0.0,0.0,0.0,0.0
2.2880000000000003,58,2,282000000,base_footprint,-1.0238064726210544e-05,0.003866397858350468,0.000356343595991714,0.9999924619126009,0.0,0.0,0.0,0.0,0.0,0.0,0.0,0.0,0.0,-2.2823715770012252e-05,-0.0003550019701304284,-0.0012056024396483068,0.0,0.0,0.0,0.0,0.0,0.0,0.0,0.0,0.0,0.18937771635477,-0.005425552485541085,-0.0008861647640559242,0.0,0.0,0.0,0.0,0.0,0.0,0.0,0.0,0.0
2.316,59,2,316000000,base_footprint,-3.8032722469529586e-06,0.0038548364213056296,0.0003146805246293214,0.9999925205709629,0.0,0.0,0.0,0.0,0.0,0.0,0.0,0.0,0.0,0.0009206373879674406,-0.002702565571257186,-0.0024252083619901643,0.0,0.0,0.0,0.0,0.0,0.0,0.0,0.0,0.0,0.00022746288362201792,-0.0020149495796429728,-0.0008598126334795051,0.0,0.0,0.0,0.0,0.0,0.0,0.0,0.0,0.0
2.355,60,2,350000000,base_footprint,-7.451340842359433e-06,0.0038506669668108232,0.0003755109823041102,0.9999925156219373,0.0,0.0,0.0,0.0,0.0,0.0,0.0,0.0,0.0,0.0001323657976154054,0.00047853467752368567,0.006164365827616095,0.0,0.0,0.0,0.0,0.0,0.0,0.0,0.0,0.0,0.0923291871203728,0.0163915410358179,-0.0015097353061287648,0.0,0.0,0.0,0.0,0.0,0.0,0.0,0.0,0.0
2.3810000000000002,61,2,384000000,base_footprint,-1.7669198775440596e-06,0.003860033352862429,0.0003905791521435389,0.9999924737653373,0.0,0.0,0.0,0.0,0.0,0.0,0.0,0.0,0.0,0.0008543563942788431,9.481509162978562e-06,-0.01839062088206744,0.0,0.0,0.0,0.0,0.0,0.0,0.0,0.0,0.0,0.23476174614507792,-0.008548996815744524,-0.0013927995659481598,0.0,0.0,0.0,0.0,0.0,0.0,0.0,0.0,0.0
2.418,62,2,418000000,base_footprint,-4.134140887094783e-06,0.00387118559572643,-0.0005763709340091587,0.999992340821438,0.0,0.0,0.0,0.0,0.0,0.0,0.0,0.0,0.0,-0.0007893347033413043,-0.00042930112474150997,-0.07516467606800091,0.0,0.0,0.0,0.0,0.0,0.0,0.0,0.0,0.0,0.16216257939162496,-0.006680917872140653,-0.00047246733516335325,0.0,0.0,0.0,0.0,0.0,0.0,0.0,0.0,0.0
2.453,63,2,452000000,base_footprint,3.6873322418850194e-08,0.003866820133577686,-0.001857637155991809,0.9999907984007903,0.0,0.0,0.0,0.0,0.0,0.0,0.0,0.0,0.0,-0.0004929642161999882,-0.0005276634144005726,-0.07554114117864359,0.0,0.0,0.0,0.0,0.0,0.0,0.0,0.0,0.0,0.003067520662279796,-0.017962133939687826,0.0006188405515231149,0.0,0.0,0.0,0.0,0.0,0.0,0.0,0.0,0.0
2.486,64,2,486000000,base_footprint,3.171820293522776e-06,0.0038575822315422585,-0.003110201032249947,0.9999877227740377,0.0,0.0,0.0,0.0,0.0,0.0,0.0,0.0,0.0,-0.0009003375286184319,0.003269602640462383,-0.055546652524957045,0.0,0.0,0.0,0.0,0.0,0.0,0.0,0.0,0.0,0.1733272049047435,-0.01866412659115268,-0.0060781631968849625,0.0,0.0,0.0,0.0,0.0,0.0,0.0,0.0,0.0
2.519,65,2,520000000,base_footprint,5.1521203853743995e-06,0.00386256344971735,-0.0031194894266524586,0.9999876746054271,0.0,0.0,0.0,0.0,0.0,0.0,0.0,0.0,0.0,0.00011830395179827592,-0.00014566220858940214,0.011352303211984174,0.0,0.0,0.0,0.0,0.0,0.0,0.0,0.0,0.0,0.155675598419803,-0.0017477264682410666,0.002939663384760959,0.0,0.0,0.0,0.0,0.0,0.0,0.0,0.0,0.0
2.5540000000000003,66,2,554000000,base_footprint,4.113903821307249e-06,0.0038623028537008446,-0.0029316049584740887,0.999988244076954,0.0,0.0,0.0,0.0,0.0,0.0,0.0,0.0,0.0,9.677664416932732e-05,-0.00016373506487886604,0.010816181397109298,0.0,0.0,0.0,0.0,0.0,0.0,0.0,0.0,0.0,0.00554015061837382,0.0022244579642919688,-0.00010319245808681484,0.0,0.0,0.0,0.0,0.0,0.0,0.0,0.0,0.0
2.588,67,2,588000000,base_footprint,2.602558740092804e-06,0.0038637964714072657,-0.0027092889617217173,0.9999888653496978,0.0,0.0,0.0,0.0,0.0,0.0,0.0,0.0,0.0,0.00016426193796248691,-0.00020235692549333176,0.01827845242142879,0.0,0.0,0.0,0.0,0.0,0.0,0.0,0.0,0.0,0.003498512331270347,0.0022944147973827777,-3.495414763550786e-05,0.0,0.0,0.0,0.0,0.0,0.0,0.0,0.0,0.0
2.623,68,2,622000000,base_footprint,5.163009005828383e-07,0.0038667405672294384,-0.0024057131945472206,0.999989630376808,0.0,0.0,0.0,0.0,0.0,0.0,0.0,0.0,0.0,9.891149015697775e-05,2.6844837267894606e-05,0.017646042474800974,0.0,0.0,0.0,0.0,0.0,0.0,0.0,0.0,0.0,0.005524179555196037,0.0040622541829300205,-0.00045821511940424814,0.0,0.0,0.0,0.0,0.0,0.0,0.0,0.0,0.0
2.6550000000000002,69,2,656000000,base_footprint,-1.5557860171281368e-06,0.00387143722299372,-0.002108639822288651,0.9999902827575415,0.0,0.0,0.0,0.0,0.0,0.0,0.0,0.0,0.0,5.8793970850391966e-05,7.453015431143588e-05,0.017287644789658767,0.0,0.0,0.0,0.0,0.0,0.0,0.0,0.0,0.0,0.004880180723146431,0.003056489237066918,-0.00027741191287877196,0.0,0.0,0.0,0.0,0.0,0.0,0.0,0.0,0.0
2.689,70,2,690000000,base_footprint,2.3284986363536896e-06,0.0038702638906097315,-0.0022272871325927,0.9999900300723124,0.0,0.0,0.0,0.0,0.0,0.0,0.0,0.0,0.0,-0.0011063678439646204,0.0008824914282891046,-0.06063830901471403,0.0,0.0,0.0,0.0,0.0,0.0,0.0,0.0,0.0,0.02690599303972356,-0.0013006300561880099,-0.0014354675713486034,0.0,0.0,0.0,0.0,0.0,0.0,0.0,0.0,0.0
2.724,71,2,724000000,base_footprint,3.791540444976725e-06,0.00387629693480562,-0.0031791937050230593,0.9999874334385824,0.0,0.0,0.0,0.0,0.0,0.0,0.0,0.0,0.0,-0.0003517024351845574,-4.5795533142415935e-05,-0.05503730686110629,0.0,0.0,0.0,0.0,0.0,0.0,0.0,0.0,0.0,-0.011759974371466411,-0.01330172445951306,0.001477997862978237,0.0,0.0,0.0,0.0,0.0,0.0,0.0,0.0,0.0
2.758,72,2,758000000,base_footprint,9.527919520965355e-06,0.003874116378440383,-0.004088607828189934,0.9999841370829501,0.0,0.0,0.0,0.0,0.0,0.0,0.0,0.0,0.0,-0.00017719126718318602,-0.00041855844485147616,-0.05090044263039268,0.0,0.0,0.0,0.0,0.0,0.0,0.0,0.0,0.0,-0.01329576574649398,-0.01472503363403553,0.0008770259080171317,0.0,0.0,0.0,0.0,0.0,0.0,0.0,0.0,0.0
2.792,73,2,792000000,base_footprint,1.5892806588914162e-05,0.0038709438613813048,-0.00477730910995224,0.9999810962506787,0.0,0.0,0.0,0.0,0.0,0.0,0.0,0.0,0.0,-0.00026639991141802873,0.0005029192567547002,-0.03064724912828744,0.0,0.0,0.0,0.0,0.0,0.0,0.0,0.0,0.0,-0.05578794963839451,-0.001802779213760079,-0.0016474316312282307,0.0,0.0,0.0,0.0,0.0,0.0,0.0,0.0,0.0
2.825,74,2,826000000,base_footprint,1.4255019571336701e-05,0.003871995758120073,-0.005540205689571909,0.9999771565223683,0.0,0.0,0.0,0.0,0.0,0.0,0.0,0.0,0.0,-0.0008966468339055218,0.0009526281359472605,-0.06664962808070111,0.0,0.0,0.0,0.0,0.0,0.0,0.0,0.0,0.0,0.020612519895630767,-0.009782120219576959,-0.0008708038847494746,0.0,0.0,0.0,0.0,0.0,0.0,0.0,0.0,0.0
2.8600000000000003,75,2,860000000,base_footprint,1.855468400275443e-05,0.003873708110892169,-0.0066044013049644384,0.9999706875326889,0.0,0.0,0.0,0.0,0.0,0.0,0.0,0.0,0.0,-0.0003800414156361615,-7.44460520939873e-05,-0.06226867734891228,0.0,0.0,0.0,0.0,0.0,0.0,0.0,0.0,0.0,0.00706292476636437,-0.016373611440111492,0.002062681513024838,0.0,0.0,0.0,0.0,0.0,0.0,0.0,0.0,0.0
2.894,76,2,894000000,base_footprint,2.2553537392669243e-05,0.0038708238319583492,-0.0076742138648728826,0.9999630606456201,0.0,0.0,0.0,0.0,0.0,0.0,0.0,0.0,0.0,-0.0005300080075683759,-0.0002716172087342993,-0.06430864371330738,0.0,0.0,0.0,0.0,0.0,0.0,0.0,0.0,0.0,0.010473247846615753,-0.012508394647567526,0.000323575643156584,0.0,0.0,0.0,0.0,0.0,0.0,0.0,0.0,0.0
2.928,77,2,928000000,base_footprint,2.6698880288509306e-05,0.003865998866745044,-0.008769215655146361,0.999954076043858,0.0,0.0,0.0,0.0,0.0,0.0,0.0,0.0,0.0,-0.00045256245881550024,-0.0004405763191019802,-0.06460766176176669,0.0,0.0,0.0,0.0,0.0,0.0,0.0,0.0,0.0,0.003691635839871946,-0.014489779482571581,0.0005135916644395009,0.0,0.0,0.0,0.0,0.0,0.0,0.0,0.0,0.0
2.963,78,2,962000000,base_footprint,3.095617704079056e-05,0.0038622327335554735,-0.009870223121465306,0.9999438288701819,0.0,0.0,0.0,0.0,0.0,0.0,0.0,0.0,0.0,-0.00045262966832432044,-0.00032996835919531676,-0.06498136012639326,0.0,0.0,0.0,0.0,0.0,0.0,0.0,0.0,0.0,0.005165135149455158,-0.014418044733422735,-0.00024387543218240055,0.0,0.0,0.0,0.0,0.0,0.0,0.0,0.0,0.0
2.996,79,2,996000000,base_footprint,3.2818071623836456e-05,0.003861945903247565,-0.010403328008801414,0.9999384256358768,0.0,0.0,0.0,0.0,0.0,0.0,0.0,0.0,0.0,-4.529478716930353e-05,-0.00039573308837621244,-0.0008524604424820057,0.0,0.0,0.0,0.0,0.0,0.0,0.0,0.0,0.0,-0.0117863942270479,-0.007978032081105809,0.00011798963752095519,0.0,0.0,0.0,0.0,0.0,0.0,0.0,0.0,0.0
3.029,80,3,30000000,base_footprint,3.234403914758551e-05,0.0038623913759686258,-0.010424660229950101,0.9999382017633951,0.0,0.0,0.0,0.0,0.0,0.0,0.0,0.0,0.0,-1.3967386403972936e-05,-0.00014644665644967823,-0.0014975403580599457,0.0,0.0,0.0,0.0,0.0,0.0,0.0,0.0,0.0,0.006297706328620455,0.0002975200213204561,-0.00046089177832104916,0.0,0.0,0.0,0.0,0.0,0.0,0.0,0.0,0.0
3.064,81,3,64000000,base_footprint,3.165879714431104e-05,0.003864086596869639,-0.010453997196974393,0.9999378889586584,0.0,0.0,0.0,0.0,0.0,0.0,0.0,0.0,0.0,-4.165291013316818e-05,-5.9395773755144303e-05,-0.001937047416603409,0.0,0.0,0.0,0.0,0.0,0.0,0.0,0.0,0.0,0.0055549461489410035,-0.0007284564876471384,-0.0002356940061061505,0.0,0.0,0.0,0.0,0.0,0.0,0.0,0.0,0.0
3.098,82,3,98000000,base_footprint,3.128943700973568e-05,0.003868936917638535,-0.010735003349591729,0.9999348929061247,0.0,0.0,0.0,0.0,0.0,0.0,0.0,0.0,0.0,-0.00041432026688349884,-0.0013450340588513597,-0.044137085474150475,0.0,0.0,0.0,0.0,0.0,0.0,0.0,0.0,0.0,-0.32639416415484035,0.012566953404537375,0.00410621504315012,0.0,0.0,0.0,0.0,0.0,0.0,0.0,0.0,0.0
3.134,83,3,132000000,base_footprint,3.36612476234448e-05,0.003871945122313491,-0.011487133961923761,0.9999265236312271,0.0,0.0,0.0,0.0,0.0,0.0,0.0,0.0,0.0,-0.00039057051910569075,5.963566797040221e-05,-0.044105832887560606,0.0,0.0,0.0,0.0,0.0,0.0,0.0,0.0,0.0,0.005327211042446581,-0.011955157029632677,-0.0019942136576573785,0.0,0.0,0.0,0.0,0.0,0.0,0.0,0.0,0.0
3.166,84,3,166000000,base_footprint,3.686974786601255e-05,0.003876034826530782,-0.012231507578027571,0.9999176792201516,0.0,0.0,0.0,0.0,0.0,0.0,0.0,0.0,0.0,-0.00034986847799314743,6.674360879769714e-05,-0.04329228602443824,0.0,0.0,0.0,0.0,0.0,0.0,0.0,0.0,0.0,0.00038023540769287786,-0.009572647541156316,-0.00013770051432898228,0.0,0.0,0.0,0.0,0.0,0.0,0.0,0.0,0.0
3.201,85,3,200000000,base_footprint,3.969111639967075e-05,0.003878299002240569,-0.012972676244848479,0.9999083292444918,0.0,0.0,0.0,0.0,0.0,0.0,0.0,0.0,0.0,-0.0003508413584618486,6.68959997289495e-06,-0.04355896678460313,0.0,0.0,0.0,0.0,0.0,0.0,0.0,0.0,0.0,-0.004842800998686451,-0.009599144904745515,0.00014701351215395736,0.0,0.0,0.0,0.0,0.0,0.0,0.0,0.0,0.0
3.234,86,3,234000000,base_footprint,4.4612340863144384e-05,0.003876733036383995,-0.013712685828135522,0.9998984604439006,0.0,0.0,0.0,0.0,0.0,0.0,0.0,0.0,0.0,2.145714100980161e-05,-0.0003435160368971696,-0.0441832907583104,0.0,0.0,0.0,0.0,0.0,0.0,0.0,0.0,0.0,-0.007111948960973359,-0.004973950091777635,0.0007850763500841118,0.0,0.0,0.0,0.0,0.0,0.0,0.0,0.0,0.0
3.268,87,3,268000000,base_footprint,4.8212831813947364e-05,0.0038729379297833344,-0.0144831496815699,0.999887611885764,0.0,0.0,0.0,0.0,0.0,0.0,0.0,0.0,0.0,-0.0008263031537147126,-0.0009887005212187488,-0.04458111010364858,0.0,0.0,0.0,0.0,0.0,0.0,0.0,0.0,0.0,-0.02701581429652958,-0.006953175400081134,0.001417494133684155,0.0,0.0,0.0,0.0,0.0,0.0,0.0,0.0,0.0
3.302,88,3,302000000,base_footprint,5.448318060770227e-05,0.0038490977877253603,-0.015715312652195803,0.9998690966451795,0.0,0.0,0.0,0.0,0.0,0.0,0.0,0.0,0.0,-0.0020135996588003633,-0.002340323194784039,-0.10359922687468341,0.0,0.0,0.0,0.0,0.0,0.0,0.0,0.0,0.0,0.049781746140665335,-0.027541997289096,0.0037538438059503223,0.0,0.0,0.0,0.0,0.0,0.0,0.0,0.0,0.0
3.339,89,3,336000000,base_footprint,4.8327807047118824e-05,0.0038648883627743994,-0.017537149676100358,0.9998387413396245,0.0,0.0,0.0,0.0,0.0,0.0,0.0,0.0,0.0,-5.321488849721109e-05,-0.0003360228664187187,-0.0979871041841201,0.0,0.0,0.0,0.0,0.0,0.0,0.0,0.0,0.0,0.15570413884248982,-0.019583156935637676,-0.0062369952309615515,0.0,0.0,0.0,0.0,0.0,0.0,0.0,0.0,0.0
3.37,90,3,370000000,base_footprint,5.8915502986700516e-05,0.00386520500591614,-0.01870272436524956,0.9998176157782696,0.0,0.0,0.0,0.0,0.0,0.0,0.0,0.0,0.0,0.001457819521620064,0.0015449296856319416,-0.03893863277962603,0.0,0.0,0.0,0.0,0.0,0.0,0.0,0.0,0.0,0.1221442780306407,-0.033893526112018915,-0.004815463033081937,0.0,0.0,0.0,0.0,0.0,0.0,0.0,0.0,0.0
3.404,91,3,404000000,base_footprint,6.485213742039355e-05,0.003867193245888201,-0.01932396259449599,0.9998057936820759,0.0,0.0,0.0,0.0,0.0,0.0,0.0,0.0,0.0,-0.00025759266206646064,-0.0002603935925496995,-0.036457945681941877,0.0,0.0,0.0,0.0,0.0,0.0,0.0,0.0,0.0,0.011492925531010072,-0.006382550285898693,0.003327470410615671,0.0,0.0,0.0,0.0,0.0,0.0,0.0,0.0,0.0
3.438,92,3,438000000,base_footprint,6.720099384483818e-05,0.003864242353501525,-0.019946110899313228,0.9997935865842771,0.0,0.0,0.0,0.0,0.0,0.0,0.0,0.0,0.0,-0.0002740397960287981,-0.00034463028423839856,-0.03673619323158807,0.0,0.0,0.0,0.0,0.0,0.0,0.0,0.0,0.0,0.004431503502757302,-0.008464244760276187,0.000341221494980312,0.0,0.0,0.0,0.0,0.0,0.0,0.0,0.0,0.0
3.472,93,3,472000000,base_footprint,6.941848387051145e-05,0.003862154560781609,-0.020572484252776052,0.9997809019154607,0.0,0.0,0.0,0.0,0.0,0.0,0.0,0.0,0.0,-0.0002795410188715915,-0.0002304028094135864,-0.036995608686747415,0.0,0.0,0.0,0.0,0.0,0.0,0.0,0.0,0.0,0.0049174060550043605,-0.00855686869597374,-0.0002500850113652402,0.0,0.0,0.0,0.0,0.0,0.0,0.0,0.0,0.0
3.5060000000000002,94,3,506000000,base_footprint,7.098336604639023e-05,0.003861973933575294,-0.021098496626726047,0.999769940315666,0.0,0.0,0.0,0.0,0.0,0.0,0.0,0.0,0.0,-0.00023694902282541658,-0.00014972001770738877,-0.030081419370668976,0.0,0.0,0.0,0.0,0.0,0.0,0.0,0.0,0.0,0.00313848367032643,-0.007235382614237153,-0.000195758088496846,0.0,0.0,0.0,0.0,0.0,0.0,0.0,0.0,0.0
3.54,95,3,540000000,base_footprint,7.227876344578591e-05,0.0038634199446159335,-0.021612162382121294,0.9997589625501143,0.0,0.0,0.0,0.0,0.0,0.0,0.0,0.0,0.0,-0.00025819406430023934,-6.195159106721708e-05,-0.030375317701314856,0.0,0.0,0.0,0.0,0.0,0.0,0.0,0.0,0.0,0.004955643734395835,-0.007257081069209136,-0.00022781119518099988,0.0,0.0,0.0,0.0,0.0,0.0,0.0,0.0,0.0
3.574,96,3,574000000,base_footprint,7.316964703943382e-05,0.0038667563663890357,-0.022130145480854922,0.9997476179028395,0.0,0.0,0.0,0.0,0.0,0.0,0.0,0.0,0.0,-0.00036498409554803774,9.41216247079427e-05,-0.03053259137531731,0.0,0.0,0.0,0.0,0.0,0.0,0.0,0.0,0.0,0.004457668266022307,-0.00732300809149189,-0.0004521254565742076,0.0,0.0,0.0,0.0,0.0,0.0,0.0,0.0,0.0
3.608,97,3,608000000,base_footprint,7.426841468472775e-05,0.003871416140092855,-0.02265304217175651,0.9997358882733166,0.0,0.0,0.0,0.0,0.0,0.0,0.0,0.0,0.0,-0.00032011791616093615,0.00013971060309893505,-0.03071596438185053,0.0,0.0,0.0,0.0,0.0,0.0,0.0,0.0,0.0,0.0036375475433326745,-0.007465216663291536,-0.0001531677512526008,0.0,0.0,0.0,0.0,0.0,0.0,0.0,0.0,0.0
3.642,98,3,642000000,base_footprint,7.667469772453865e-05,0.003875186606245431,-0.023166495833361854,0.9997241072018622,0.0,0.0,0.0,0.0,0.0,0.0,0.0,0.0,0.0,-0.00022146336354216396,3.4341573744728257e-05,-0.029484805519029954,0.0,0.0,0.0,0.0,0.0,0.0,0.0,0.0,0.0,-0.000321578902796958,-0.007432217408179051,7.728862151221924e-05,0.0,0.0,0.0,0.0,0.0,0.0,0.0,0.0,0.0
3.676,99,3,676000000,base_footprint,7.918799744471073e-05,0.003877320896238977,-0.023654092561257105,0.9997126807323352,0.0,0.0,0.0,0.0,0.0,0.0,0.0,0.0,0.0,-0.00018504154000347563,-4.115936120946324e-05,-0.028018320662760235,0.0,0.0,0.0,0.0,0.0,0.0,0.0,0.0,0.0,-0.005434410525443142,-0.006765086662901421,0.00018026560604541961,0.0,0.0,0.0,0.0,0.0,0.0,0.0,0.0,0.0
3.71,100,3,710000000,base_footprint,8.311874618910845e-05,0.0038790724521187247,-0.023777529043306437,0.9997097453765169,0.0,0.0,0.0,0.0,0.0,0.0,0.0,0.0,0.0,8.820526156289435e-05,-0.00015959503427960607,-0.0034528655666872577,0.0,0.0,0.0,0.0,0.0,0.0,0.0,0.0,0.0,-0.02154276467458026,0.006095792402731326,0.0003761054566259167,0.0,0.0,0.0,0.0,0.0,0.0,0.0,0.0,0.0
3.746,101,3,744000000,base_footprint,8.3502499595082e-05,0.003873708407714802,-0.02385850582256012,0.9997078368755641,0.0,0.0,0.0,0.0,0.0,0.0,0.0,0.0,0.0,-0.00045826136678749606,-0.0006925476913532847,-0.006747251594703776,0.0,0.0,0.0,0.0,0.0,0.0,0.0,0.0,0.0,-0.015253211461443693,-4.492617497026889e-05,0.0012430894002033812,0.0,0.0,0.0,0.0,0.0,0.0,0.0,0.0,0.0
3.778,102,3,778000000,base_footprint,8.355872139115534e-05,0.0038794180034111086,-0.024212730130303773,0.9996992982059816,0.0,0.0,0.0,0.0,0.0,0.0,0.0,0.0,0.0,0.0034851330698342747,0.006826573310946048,-0.028923604237953808,0.0,0.0,0.0,0.0,0.0,0.0,0.0,0.0,0.0,-0.08841768823072577,6.373692090044748e-05,-0.01094627559015543,0.0,0.0,0.0,0.0,0.0,0.0,0.0,0.0,0.0
3.8120000000000003,103,3,812000000,base_footprint,7.904539853006737e-05,0.0038699579506333934,-0.02488290520825062,0.9996828788199199,0.0,0.0,0.0,0.0,0.0,0.0,0.0,0.0,0.0,-0.0028342024280814363,-0.0013821395259271184,-0.06648529853565154,0.0,0.0,0.0,0.0,0.0,0.0,0.0,0.0,0.0,-0.23803934153851164,0.016911592893273226,0.015575489613256234,0.0,0.0,0.0,0.0,0.0,0.0,0.0,0.0,0.0
3.843,104,3,846000000,base_footprint,8.78305157871737e-05,0.0038694526638871876,-0.025206243510027402,0.9996747795708342,0.0,0.0,0.0,0.0,0.0,0.0,0.0,0.0,0.0,-0.00011978106535201924,-0.0007020380614966257,-0.012812449675307579,0.0,0.0,0.0,0.0,0.0,0.0,0.0,0.0,0.0,-0.014129854013670128,-0.0022834910532807578,-0.0020464254558164967,0.0,0.0,0.0,0.0,0.0,0.0,0.0,0.0,0.0
3.88,105,3,880000000,base_footprint,8.930076711562337e-05,0.0038662650028074,-0.025415574390662405,0.9996694916814727,0.0,0.0,0.0,0.0,0.0,0.0,0.0,0.0,0.0,0.0004257034342313671,-0.00039716488497299813,-0.008251967943225401,0.0,0.0,0.0,0.0,0.0,0.0,0.0,0.0,0.0,0.004011365239141095,-0.0035739999055795766,-0.0004040587865089296,0.0,0.0,0.0,0.0,0.0,0.0,0.0,0.0,0.0
3.914,106,3,914000000,base_footprint,9.010761529624372e-05,0.0038635865039754642,-0.025548964736272623,0.9996661017464025,0.0,0.0,0.0,0.0,0.0,0.0,0.0,0.0,0.0,-6.869171635883042e-05,-0.0003161010206375462,-0.00805311901928757,0.0,0.0,0.0,0.0,0.0,0.0,0.0,0.0,0.0,0.004661459785259906,-0.002645422245283009,-0.00011126578395807786,0.0,0.0,0.0,0.0,0.0,0.0,0.0,0.0,0.0
3.947,107,3,948000000,base_footprint,9.006899272809987e-05,0.0038617630486093625,-0.025688153223513453,0.9996625417898274,0.0,0.0,0.0,0.0,0.0,0.0,0.0,0.0,0.0,-7.090907763181335e-05,-0.00024300626604533147,-0.008346446384356755,0.0,0.0,0.0,0.0,0.0,0.0,0.0,0.0,0.0,0.005155221902816586,-0.0022658850135709127,-0.00018516539782891648,0.0,0.0,0.0,0.0,0.0,0.0,0.0,0.0,0.0
3.982,108,3,982000000,base_footprint,8.930720907499326e-05,0.003853663541791456,-0.025852764004750537,0.9996583295780833,0.0,0.0,0.0,0.0,0.0,0.0,0.0,0.0,0.0,9.233403836514953e-05,0.0001097430336602643,-0.020994905442956503,0.0,0.0,0.0,0.0,0.0,0.0,0.0,0.0,0.0,0.13822434843371484,-0.015351073626494537,-0.0015705561952016446,0.0,0.0,0.0,0.0,0.0,0.0,0.0,0.0,0.0
4.016,109,4,16000000,base_footprint,9.333303140100263e-05,0.0038622592536483027,-0.026752048069375905,0.9996346343372146,0.0,0.0,0.0,0.0,0.0,0.0,0.0,0.0,0.0,-0.0013931066506743576,0.0005546338127794133,-0.007272538902124006,0.0,0.0,0.0,0.0,0.0,0.0,0.0,0.0,0.0,0.2180132394380859,-0.036518605352110364,-0.0042129354862073636,0.0,0.0,0.0,0.0,0.0,0.0,0.0,0.0,0.0
4.05,110,4,50000000,base_footprint,9.16295217547303e-05,0.0038656901208616937,-0.026791436107286744,0.9996335663608087,0.0,0.0,0.0,0.0,0.0,0.0,0.0,0.0,0.0,-8.430299232822676e-05,2.0861000252726024e-05,-0.0025689440416140907,0.0,0.0,0.0,0.0,0.0,0.0,0.0,0.0,0.0,-0.004530774372356265,0.0003147916209482116,0.002473724735785036,0.0,0.0,0.0,0.0,0.0,0.0,0.0,0.0,0.0
4.082,111,4,84000000,base_footprint,9.065293592193155e-05,0.003870253921631842,-0.02683621581353766,0.9996323476345875,0.0,0.0,0.0,0.0,0.0,0.0,0.0,0.0,0.0,-8.836780734662857e-05,3.848642516146952e-05,-0.0028457846570537236,0.0,0.0,0.0,0.0,0.0,0.0,0.0,0.0,0.0,0.00419587407703963,-0.0015284617164544596,-0.0001908438693050731,0.0,0.0,0.0,0.0,0.0,0.0,0.0,0.0,0.0
4.118,112,4,118000000,base_footprint,9.129824721001413e-05,0.0038742392711399367,-0.026875513530330953,0.9996312763750348,0.0,0.0,0.0,0.0,0.0,0.0,0.0,0.0,0.0,4.663336448159129e-06,8.949299016534969e-05,-0.00155640271786875,0.0,0.0,0.0,0.0,0.0,0.0,0.0,0.0,0.0,0.0007935711883656185,-0.0009613909894575169,-0.00019908930600855948,0.0,0.0,0.0,0.0,0.0,0.0,0.0,0.0,0.0
4.153,113,4,152000000,base_footprint,9.178050461707754e-05,0.0038765839262393832,-0.02688696974328554,0.9996309591701458,0.0,0.0,0.0,0.0,0.0,0.0,0.0,0.0,0.0,3.741244727386921e-05,-2.7717722117521787e-05,0.0001710547102518662,0.0,0.0,0.0,0.0,0.0,0.0,0.0,0.0,0.0,-0.004017466387466594,-0.000843749208928964,0.00023546378379301583,0.0,0.0,0.0,0.0,0.0,0.0,0.0,0.0,0.0
4.191,114,4,186000000,base_footprint,9.676506158312171e-05,0.0038746489352789637,-0.026890013593364813,0.9996308843273601,0.0,0.0,0.0,0.0,0.0,0.0,0.0,0.0,0.0,0.00036555322246749317,-0.00010039401331147596,-0.0013082658301820224,0.0,0.0,0.0,0.0,0.0,0.0,0.0,0.0,0.0,-0.0033161433115337317,0.007492829601839899,0.00021891132973288823,0.0,0.0,0.0,0.0,0.0,0.0,0.0,0.0,0.0
4.224,115,4,220000000,base_footprint,9.843919384480164e-05,0.0038727581922109113,-0.026868241340689786,0.9996314769258561,0.0,0.0,0.0,0.0,0.0,0.0,0.0,0.0,0.0,-0.00022009470139791083,-0.0003834877975904464,0.0064468438819936975,0.0,0.0,0.0,0.0,0.0,0.0,0.0,0.0,0.0,-0.03237097210035107,0.0014285444110255746,0.0006926253133505439,0.0,0.0,0.0,0.0,0.0,0.0,0.0,0.0,0.0
4.254,116,4,254000000,base_footprint,9.030874955559377e-05,0.0038719948229559513,-0.0270087328969793,0.9996276946182115,0.0,0.0,0.0,0.0,0.0,0.0,0.0,0.0,0.0,0.00022269187638287278,-5.0144855664254064e-05,-0.024379006745484138,0.0,0.0,0.0,0.0,0.0,0.0,0.0,0.0,0.0,-0.048380882595041474,0.0031314897431839505,-0.00026705269514174033,0.0,0.0,0.0,0.0,0.0,0.0,0.0,0.0,0.0
4.288,117,4,288000000,base_footprint,9.134591089201663e-05,0.0038674983224397334,-0.02743471356302122,0.9996161116170375,0.0,0.0,0.0,0.0,0.0,0.0,0.0,0.0,0.0,2.3701171156558543e-05,-0.000608279692431429,-0.02224401068064493,0.0,0.0,0.0,0.0,0.0,0.0,0.0,0.0,0.0,0.014922314657871133,-0.008483208193349521,0.0014421821409466274,0.0,0.0,0.0,0.0,0.0,0.0,0.0,0.0,0.0
4.322,118,4,322000000,base_footprint,9.696156906149856e-05,0.003868507785222172,-0.027599585004013525,0.9996115686373264,0.0,0.0,0.0,0.0,0.0,0.0,0.0,0.0,0.0,-0.00020417771896592674,-0.0006036841032805088,-0.006636724354122042,0.0,0.0,0.0,0.0,0.0,0.0,0.0,0.0,0.0,0.036436986997560525,-0.006029548011987877,-0.0007736132589432356,0.0,0.0,0.0,0.0,0.0,0.0,0.0,0.0,0.0
4.356,119,4,356000000,base_footprint,9.744289953661858e-05,0.0038651592827465475,-0.027710489871653785,0.9996085132689063,0.0,0.0,0.0,0.0,0.0,0.0,0.0,0.0,0.0,-6.724993752996988e-05,-0.0002325782496696867,-0.0067628324351182425,0.0,0.0,0.0,0.0,0.0,0.0,0.0,0.0,0.0,0.005393679881220934,-0.0028804709373976153,-0.0006147184745106458,0.0,0.0,0.0,0.0,0.0,0.0,0.0,0.0,0.0
4.39,120,4,390000000,base_footprint,9.758943872614877e-05,0.0038635707027772003,-0.027793724052070725,0.9996062085646745,0.0,0.0,0.0,0.0,0.0,0.0,0.0,0.0,0.0,-0.0001794165121388911,-0.00032921319215906695,-0.0016468811272515541,0.0,0.0,0.0,0.0,0.0,0.0,0.0,0.0,0.0,0.0036256292236303196,-0.001789515100415122,0.00018099456214111937,0.0,0.0,0.0,0.0,0.0,0.0,0.0,0.0,0.0
4.424,121,4,424000000,base_footprint,9.684552758941073e-05,0.003861968099883558,-0.027823474652196412,0.9996053871811706,0.0,0.0,0.0,0.0,0.0,0.0,0.0,0.0,0.0,-0.00010465903627109381,-0.00020858232605904957,-0.0018508683166761377,0.0,0.0,0.0,0.0,0.0,0.0,0.0,0.0,0.0,0.005491007011839286,-0.0009190507289326687,-0.00016550505413374586,0.0,0.0,0.0,0.0,0.0,0.0,0.0,0.0,0.0
4.458,122,4,458000000,base_footprint,9.638232969155022e-05,0.00386175477016361,-0.02785630423100563,0.9996044737170455,0.0,0.0,0.0,0.0,0.0,0.0,0.0,0.0,0.0,-7.5828003788455e-05,-0.00014218765376451374,-0.0020535611317569562,0.0,0.0,0.0,0.0,0.0,0.0,0.0,0.0,0.0,0.0055068542822589,-0.001111877206895044,-0.00014432616793671275,0.0,0.0,0.0,0.0,0.0,0.0,0.0,0.0,0.0
4.492,123,4,492000000,base_footprint,9.610640810182935e-05,0.003865646107796693,-0.028114301403915288,0.9995972356906043,0.0,0.0,0.0,0.0,0.0,0.0,0.0,0.0,0.0,-0.0006380760863490167,-0.0010466980758714508,-0.0659078309435416,0.0,0.0,0.0,0.0,0.0,0.0,0.0,0.0,0.0,-0.29970132360378904,0.03217693131040407,0.0027535340352465533,0.0,0.0,0.0,0.0,0.0,0.0,0.0,0.0,0.0
4.5280000000000005,124,4,526000000,base_footprint,9.844403911003548e-05,0.003865556691330656,-0.028817574724996305,0.9995772082071532,0.0,0.0,0.0,0.0,0.0,0.0,0.0,0.0,0.0,-0.0003527061801846634,-0.0007954933876015399,-0.001648056998829206,0.0,0.0,0.0,0.0,0.0,0.0,0.0,0.0,0.0,-0.03120250047199389,-0.00895131789778043,0.00034754695323404715,0.0,0.0,0.0,0.0,0.0,0.0,0.0,0.0,0.0
4.5600000000000005,125,4,560000000,base_footprint,9.782906730177951e-05,0.003869833568440405,-0.028855950337529655,0.9995760846217482,0.0,0.0,0.0,0.0,0.0,0.0,0.0,0.0,0.0,-0.00015273746708302743,0.00014079942207970728,-0.0022076476446854635,0.0,0.0,0.0,0.0,0.0,0.0,0.0,0.0,0.0,0.005160902142801967,0.00052487763068168,-0.001258363032807147,0.0,0.0,0.0,0.0,0.0,0.0,0.0,0.0,0.0
4.594,126,4,594000000,base_footprint,9.7694834947647e-05,0.003873958009488683,-0.028834390842616384,0.9995766908095622,0.0,0.0,0.0,0.0,0.0,0.0,0.0,0.0,0.0,7.717154683094718e-05,-9.165293645003954e-05,0.004945746322099607,0.0,0.0,0.0,0.0,0.0,0.0,0.0,0.0,0.0,-0.00035568488044398057,-0.00036662049356415353,0.00028257299219901547,0.0,0.0,0.0,0.0,0.0,0.0,0.0,0.0,0.0
4.628,127,4,628000000,base_footprint,9.797100310695438e-05,0.0038761253565932343,-0.028736265752480502,0.9995795081355487,0.0,0.0,0.0,0.0,0.0,0.0,0.0,0.0,0.0,9.413698286378097e-05,-1.6854610090403593e-05,0.006668375223658004,0.0,0.0,0.0,0.0,0.0,0.0,0.0,0.0,0.0,-0.0029925032535390137,0.000595647352602708,-7.069569486067089e-05,0.0,0.0,0.0,0.0,0.0,0.0,0.0,0.0,0.0
4.659,128,4,662000000,base_footprint,0.00010281032705441205,0.0038742965246477933,-0.028631393209403472,0.9995825241466382,0.0,0.0,0.0,0.0,0.0,0.0,0.0,0.0,0.0,0.0005044586621336929,-0.00021597644898285339,0.0044324375703069935,0.0,0.0,0.0,0.0,0.0,0.0,0.0,0.0,0.0,-0.0015022821432994998,0.007824066748228317,0.00043618683872940605,0.0,0.0,0.0,0.0,0.0,0.0,0.0,0.0,0.0
4.7,129,4,696000000,base_footprint,0.00010966293398273845,0.0038587602017527804,-0.028477298315449828,0.9995869854216787,0.0,0.0,0.0,0.0,0.0,0.0,0.0,0.0,0.0,0.00046445061600118695,-0.0026739160159760405,0.012730876913145997,0.0,0.0,0.0,0.0,0.0,0.0,0.0,0.0,0.0,0.04646274561490691,-0.0031920684850979403,0.004324726494696422,0.0,0.0,0.0,0.0,0.0,0.0,0.0,0.0,0.0
4.73,130,4,730000000,base_footprint,9.803050982348491e-05,0.00386522605372524,-0.028810906938883617,0.9995774017348191,0.0,0.0,0.0,0.0,0.0,0.0,0.0,0.0,0.0,-0.0013400543156809077,0.0012753112509043816,-0.06647368092486235,0.0,0.0,0.0,0.0,0.0,0.0,0.0,0.0,0.0,0.07417812012336583,-0.017091171920020225,-0.00853978281352157,0.0,0.0,0.0,0.0,0.0,0.0,0.0,0.0,0.0
4.766,131,4,764000000,base_footprint,9.637711347523668e-05,0.0038617904375400683,-0.030132618331842793,0.9995384447826587,0.0,0.0,0.0,0.0,0.0,0.0,0.0,0.0,0.0,-0.000511362392912973,-0.0001897081646866582,-0.07338166656309508,0.0,0.0,0.0,0.0,0.0,0.0,0.0,0.0,0.0,0.017880108992660203,-0.018008148202032278,0.0031906390798135563,0.0,0.0,0.0,0.0,0.0,0.0,0.0,0.0,0.0
4.798,132,4,798000000,base_footprint,0.00010404747089435777,0.0038568233671020273,-0.030959539136022767,0.9995131920210578,0.0,0.0,0.0,0.0,0.0,0.0,0.0,0.0,0.0,-0.0002947033519981096,-0.0004413544761172721,-0.020136843450263713,0.0,0.0,0.0,0.0,0.0,0.0,0.0,0.0,0.0,0.08423103577887482,-0.022773183762022316,-0.00015021407885814744,0.0,0.0,0.0,0.0,0.0,0.0,0.0,0.0,0.0
4.832,133,4,832000000,base_footprint,0.000108689914777178,0.003863772556434096,-0.030847384313487304,0.9995166323424292,0.0,0.0,0.0,0.0,0.0,0.0,0.0,0.0,0.0,8.711319401853215e-05,-0.000255134308905241,0.01530944767794245,0.0,0.0,0.0,0.0,0.0,0.0,0.0,0.0,0.0,0.08103015073978202,-0.005955796324643327,-0.001096490610996662,0.0,0.0,0.0,0.0,0.0,0.0,0.0,0.0,0.0
4.867,134,4,866000000,base_footprint,0.00010792518745648848,0.0038626149180778675,-0.030584900549894847,0.9995247032547528,0.0,0.0,0.0,0.0,0.0,0.0,0.0,0.0,0.0,0.00012393003372744135,-0.00015880643865715395,0.015342687446551428,0.0,0.0,0.0,0.0,0.0,0.0,0.0,0.0,0.0,0.006238970833887288,0.0012435916819360446,-0.00021322068723859028,0.0,0.0,0.0,0.0,0.0,0.0,0.0,0.0,0.0
4.9,135,4,900000000,base_footprint,0.00010582687473663484,0.0038613843889468906,-0.030192339173929786,0.9995366432334933,0.0,0.0,0.0,0.0,0.0,0.0,0.0,0.0,0.0,8.028131038181659e-05,-0.00020098408803298224,0.02676231415293722,0.0,0.0,0.0,0.0,0.0,0.0,0.0,0.0,0.0,0.002902979920719989,0.004222165631390924,0.00015707261081243626,0.0,0.0,0.0,0.0,0.0,0.0,0.0,0.0,0.0
4.9350000000000005,136,4,934000000,base_footprint,0.00010334783527985506,0.003861078528942154,-0.029738543352710377,0.9995502490775925,0.0,0.0,0.0,0.0,0.0,0.0,0.0,0.0,0.0,9.034261532109616e-05,-0.00013177488951279044,0.026679873892473602,0.0,0.0,0.0,0.0,0.0,0.0,0.0,0.0,0.0,0.006108317319638468,0.005066113819743203,-0.00018373132990699527,0.0,0.0,0.0,0.0,0.0,0.0,0.0,0.0,0.0
4.968,137,4,968000000,base_footprint,0.0001011188635452161,0.003862052625173475,-0.029285538401880796,0.999563620569,0.0,0.0,0.0,0.0,0.0,0.0,0.0,0.0,0.0,0.0001087294061627748,-9.32590524458585e-05,0.026715202983996867,0.0,0.0,0.0,0.0,0.0,0.0,0.0,0.0,0.0,0.005740734637783007,0.004926984393527864,-0.0001309437926285017,0.0,0.0,0.0,0.0,0.0,0.0,0.0,0.0,0.0
5.002,138,5,2000000,base_footprint,9.970642181705323e-05,0.0038631832011748815,-0.02889773128863891,0.9995749031466092,0.0,0.0,0.0,0.0,0.0,0.0,0.0,0.0,0.0,6.705671475883501e-05,-6.253140411096189e-05,0.02145203469482211,0.0,0.0,0.0,0.0,0.0,0.0,0.0,0.0,0.0,0.00722317808417382,0.003201072143714105,-0.00012316858685805542,0.0,0.0,0.0,0.0,0.0,0.0,0.0,0.0,0.0
5.037,139,5,36000000,base_footprint,9.781041935330413e-05,0.003866166271435435,-0.028530960009939276,0.9995854278211517,0.0,0.0,0.0,0.0,0.0,0.0,0.0,0.0,0.0,6.804188080051424e-05,6.868448725321401e-05,0.02174971996794473,0.0,0.0,0.0,0.0,0.0,0.0,0.0,0.0,0.0,0.005212905805090991,0.003979319782689103,-0.00032700358649622314,0.0,0.0,0.0,0.0,0.0,0.0,0.0,0.0,0.0
5.07,140,5,70000000,base_footprint,9.498645164401876e-05,0.003870243665945142,-0.028155079328118005,0.9995960702701705,0.0,0.0,0.0,0.0,0.0,0.0,0.0,0.0,0.0,0.00012390506140675013,0.00013129481813917366,0.02279809888068709,0.0,0.0,0.0,0.0,0.0,0.0,0.0,0.0,0.0,0.0033106361025510905,0.0037748773112544227,-0.00027102283958498866,0.0,0.0,0.0,0.0,0.0,0.0,0.0,0.0,0.0
5.104,141,5,104000000,base_footprint,9.271239733198626e-05,0.0038753231608947953,-0.027821248509613986,0.9996053978476589,0.0,0.0,0.0,0.0,0.0,0.0,0.0,0.0,0.0,0.00010967607928832002,0.0001325725066270878,0.01944986795218202,0.0,0.0,0.0,0.0,0.0,0.0,0.0,0.0,0.0,-0.0014879534201999263,0.004889785335595044,-3.0345812244685246e-05,0.0,0.0,0.0,0.0,0.0,0.0,0.0,0.0,0.0
5.139,142,5,138000000,base_footprint,9.88359380590764e-05,0.003874671577899472,-0.02752659371001398,0.9996135572261636,0.0,0.0,0.0,0.0,0.0,0.0,0.0,0.0,0.0,0.0005234181553997158,-8.30254037147208e-05,0.015174488456425847,0.0,0.0,0.0,0.0,0.0,0.0,0.0,0.0,0.0,0.0013895484315465158,0.009388325587676957,0.0004925231766319315,0.0,0.0,0.0,0.0,0.0,0.0,0.0,0.0,0.0
5.176,143,5,172000000,base_footprint,0.00010010385303330893,0.0038723298729792803,-0.027228331837547172,0.9996217349507351,0.0,0.0,0.0,0.0,0.0,0.0,0.0,0.0,0.0,-3.0012569309657952e-06,-0.000562590948968695,0.02395724196770076,0.0,0.0,0.0,0.0,0.0,0.0,0.0,0.0,0.0,-0.03350559404869915,0.006560824588361406,0.0011544835024154424,0.0,0.0,0.0,0.0,0.0,0.0,0.0,0.0,0.0
5.206,144,5,206000000,base_footprint,9.090092411880517e-05,0.003872587578327252,-0.02704217348431295,0.9996267881843277,0.0,0.0,0.0,0.0,0.0,0.0,0.0,0.0,0.0,0.00045816297775870063,-0.00018578691281608418,-0.007059524247660385,0.0,0.0,0.0,0.0,0.0,0.0,0.0,0.0,0.0,-0.050284934222542786,0.007530035316039511,-0.0003945371202083612,0.0,0.0,0.0,0.0,0.0,0.0,0.0,0.0,0.0
5.247,145,5,240000000,base_footprint,8.940940171297294e-05,0.0038676115169501216,-0.027049991484124538,0.9996265960586592,0.0,0.0,0.0,0.0,0.0,0.0,0.0,0.0,0.0,0.00025025746538170375,-0.0002023523365230624,0.007497053180755142,0.0,0.0,0.0,0.0,0.0,0.0,0.0,0.0,0.0,0.0033132602961142258,-0.000858138947855953,-0.00032645933548284807,0.0,0.0,0.0,0.0,0.0,0.0,0.0,0.0,0.0
5.276,146,5,274000000,base_footprint,9.343454599296224e-05,0.003869493710836448,-0.026677466773393377,0.9996365994975184,0.0,0.0,0.0,0.0,0.0,0.0,0.0,0.0,0.0,0.00011698212002499075,-0.0008097386064314176,0.026400051467251516,0.0,0.0,0.0,0.0,0.0,0.0,0.0,0.0,0.0,0.042583595361591266,-0.00014644159580796457,0.0011873235556370844,0.0,0.0,0.0,0.0,0.0,0.0,0.0,0.0,0.0
5.308,147,5,308000000,base_footprint,9.51483532005885e-05,0.003863176964968016,-0.02722628136567574,0.99962182669924,0.0,0.0,0.0,0.0,0.0,0.0,0.0,0.0,0.0,0.00023057524982152608,0.0012801846566567463,-0.07880278180852873,0.0,0.0,0.0,0.0,0.0,0.0,0.0,0.0,0.0,-0.2887307993747265,0.025443130629624465,-0.0009253961063603599,0.0,0.0,0.0,0.0,0.0,0.0,0.0,0.0,0.0
5.342,148,5,342000000,base_footprint,9.629549721160374e-05,0.0038638398827276856,-0.027191334520227536,0.999622775248517,0.0,0.0,0.0,0.0,0.0,0.0,0.0,0.0,0.0,0.00014336587367507703,-0.00017664694278238683,0.016909830758301637,0.0,0.0,0.0,0.0,0.0,0.0,0.0,0.0,0.0,-0.037310599881353775,0.0023275141833967346,0.002676547133771128,0.0,0.0,0.0,0.0,0.0,0.0,0.0,0.0,0.0
5.376,149,5,376000000,base_footprint,9.461133174779641e-05,0.003861607037746638,-0.02690714940297704,0.9996304739006249,0.0,0.0,0.0,0.0,0.0,0.0,0.0,0.0,0.0,0.00012105465097919339,-0.00026453568385341263,0.016585831771169637,0.0,0.0,0.0,0.0,0.0,0.0,0.0,0.0,0.0,0.0053529736109403404,0.002660091378688807,2.2221328160692545e-05,0.0,0.0,0.0,0.0,0.0,0.0,0.0,0.0,0.0
5.41,150,5,410000000,base_footprint,9.297815543557006e-05,0.0038612356162571315,-0.02662628182026434,0.9996379961421066,0.0,0.0,0.0,0.0,0.0,0.0,0.0,0.0,0.0,0.00011643488172993871,-0.00018524399401813687,0.01638331886744179,0.0,0.0,0.0,0.0,0.0,0.0,0.0,0.0,0.0,0.005686808466783742,0.00279161741301563,-0.00019663906763819536,0.0,0.0,0.0,0.0,0.0,0.0,0.0,0.0,0.0
5.445,151,5,444000000,base_footprint,9.122728843687576e-05,0.0038622780736416694,-0.02634998802978275,0.9996453134069574,0.0,0.0,0.0,0.0,0.0,0.0,0.0,0.0,0.0,0.00010138524980508657,-0.00010852655326163504,0.01611163944362846,0.0,0.0,0.0,0.0,0.0,0.0,0.0,0.0,0.0,0.005632956501028566,0.0027137156600076794,-0.00020504278931935297,0.0,0.0,0.0,0.0,0.0,0.0,0.0,0.0,0.0
5.478,152,5,478000000,base_footprint,8.829460685842043e-05,0.003862180592043317,-0.02607906153378387,0.9996524187509647,0.0,0.0,0.0,0.0,0.0,0.0,0.0,0.0,0.0,-0.0009199798839933265,-0.0024510289019282648,0.014393924095300775,0.0,0.0,0.0,0.0,0.0,0.0,0.0,0.0,0.0,0.05006056848110211,-0.0020350284982434677,0.0005783946034811805,0.0,0.0,0.0,0.0,0.0,0.0,0.0,0.0,0.0
5.5120000000000005,153,5,512000000,base_footprint,9.329026818058025e-05,0.0038693380044155785,-0.026761635255691557,0.999634350349554,0.0,0.0,0.0,0.0,0.0,0.0,0.0,0.0,0.0,0.0022332333523234654,-0.0006930714603925469,-0.047492179681468426,0.0,0.0,0.0,0.0,0.0,0.0,0.0,0.0,0.0,0.3348688943884499,-0.039968201844199615,-0.0005663227689957863,0.0,0.0,0.0,0.0,0.0,0.0,0.0,0.0,0.0
5.546,154,5,546000000,base_footprint,8.93077002771475e-05,0.003873567606490072,-0.026473106378696803,0.9996420169924807,0.0,0.0,0.0,0.0,0.0,0.0,0.0,0.0,0.0,0.00012797613969311485,0.00013054041354609053,0.02253181546521308,0.0,0.0,0.0,0.0,0.0,0.0,0.0,0.0,0.0,-0.035047522468510964,0.001468875151294239,-0.003406570784194858,0.0,0.0,0.0,0.0,0.0,0.0,0.0,0.0,0.0
5.58,155,5,580000000,base_footprint,8.770573798447645e-05,0.003876352164310982,-0.026073888329846907,0.9996524988959736,0.0,0.0,0.0,0.0,0.0,0.0,0.0,0.0,0.0,0.00024885105708557847,1.4654932343179038e-05,0.024147708256695145,0.0,0.0,0.0,0.0,0.0,0.0,0.0,0.0,0.0,-0.0008354205473739981,0.004260850387896111,0.0001450548032672306,0.0,0.0,0.0,0.0,0.0,0.0,0.0,0.0,0.0
5.614,156,5,614000000,base_footprint,8.959809723325657e-05,0.0038754565963391545,-0.025665979355393165,0.9996630583912158,0.0,0.0,0.0,0.0,0.0,0.0,0.0,0.0,0.0,0.0006914490074331248,-0.00037750793090255964,0.02285277117356358,0.0,0.0,0.0,0.0,0.0,0.0,0.0,0.0,0.0,-0.0020323519504676355,0.010405792321183075,0.0008239205913312109,0.0,0.0,0.0,0.0,0.0,0.0,0.0,0.0,0.0
5.647,157,5,648000000,base_footprint,9.270886825835646e-05,0.0038735181917290947,-0.025282219380681082,0.9996728448072756,0.0,0.0,0.0,0.0,0.0,0.0,0.0,0.0,0.0,0.0003057421184341406,-0.0004325578033323132,0.026337790027498417,0.0,0.0,0.0,0.0,0.0,0.0,0.0,0.0,0.0,-0.023094955650707148,0.003957713541731061,0.00027470231121176804,0.0,0.0,0.0,0.0,0.0,0.0,0.0,0.0,0.0
5.684,158,5,682000000,base_footprint,8.15951482661443e-05,0.0038733673806434854,-0.02493389704845517,0.9996815948817621,0.0,0.0,0.0,0.0,0.0,0.0,0.0,0.0,0.0,0.00015886052825152207,4.560733959658356e-05,0.002586465847077485,0.0,0.0,0.0,0.0,0.0,0.0,0.0,0.0,0.0,-0.050471374107899585,0.014801675630880428,-0.0003435373179425937,0.0,0.0,0.0,0.0,0.0,0.0,0.0,0.0,0.0
5.716,159,5,716000000,base_footprint,8.007272507480578e-05,0.0038671838032688917,-0.024850504078395758,0.9996836954381321,0.0,0.0,0.0,0.0,0.0,0.0,0.0,0.0,0.0,-0.00023926793933143526,-7.295076838030122e-05,0.008784487006336049,0.0,0.0,0.0,0.0,0.0,0.0,0.0,0.0,0.0,-0.0114000610628968,0.0008214945599701462,0.0006870669280307156,0.0,0.0,0.0,0.0,0.0,0.0,0.0,0.0,0.0
5.75,160,5,750000000,base_footprint,8.499609082014311e-05,0.00387194745450003,-0.024446971337252616,0.9996936262630716,0.0,0.0,0.0,0.0,0.0,0.0,0.0,0.0,0.0,7.865382927638565e-05,-0.0010077292096531882,0.03172397325071323,0.0,0.0,0.0,0.0,0.0,0.0,0.0,0.0,0.0,0.05121377082576932,-0.0016076677168493818,0.0008042934099784357,0.0,0.0,0.0,0.0,0.0,0.0,0.0,0.0,0.0
5.784,161,5,784000000,base_footprint,8.304265338718388e-05,0.003866868246201816,-0.023923942328487435,0.999706299578705,0.0,0.0,0.0,0.0,0.0,0.0,0.0,0.0,0.0,0.0003400689562389462,-0.000314996618598937,0.02894229109292605,0.0,0.0,0.0,0.0,0.0,0.0,0.0,0.0,0.0,0.003854965312452546,0.006158294996381602,-0.0011018632850073866,0.0,0.0,0.0,0.0,0.0,0.0,0.0,0.0,0.0
5.818,162,5,818000000,base_footprint,8.155491568738764e-05,0.0038639950159953243,-0.0234326908473829,0.9997179461682996,0.0,0.0,0.0,0.0,0.0,0.0,0.0,0.0,0.0,0.00021865169500658656,-0.00038205327981925754,0.028770463906921017,0.0,0.0,0.0,0.0,0.0,0.0,0.0,0.0,0.0,0.005701029938254351,0.005225940679138771,0.00013544192826933144,0.0,0.0,0.0,0.0,0.0,0.0,0.0,0.0,0.0
5.852,163,5,852000000,base_footprint,7.920604870997644e-05,0.003861856212279065,-0.022945754221912834,0.9997292494251557,0.0,0.0,0.0,0.0,0.0,0.0,0.0,0.0,0.0,0.00022113948270064725,-0.00027026058935269515,0.02851790736839393,0.0,0.0,0.0,0.0,0.0,0.0,0.0,0.0,0.0,0.006206316176532324,0.005763251871090244,-0.00024436602913409936,0.0,0.0,0.0,0.0,0.0,0.0,0.0,0.0,0.0
5.885,164,5,886000000,base_footprint,7.804968212087565e-05,0.003859094962970333,-0.022765353552227578,0.9997333844440507,0.0,0.0,0.0,0.0,0.0,0.0,0.0,0.0,0.0,-0.00021720047320796036,-0.0002837702944039651,-0.048293970171581234,0.0,0.0,0.0,0.0,0.0,0.0,0.0,0.0,0.0,0.024332364055101353,0.0035426907799132193,-0.0004453667777438675,0.0,0.0,0.0,0.0,0.0,0.0,0.0,0.0,0.0
5.921,165,5,920000000,base_footprint,8.04572934477295e-05,0.0038628895754686805,-0.0235659420266223,0.9997148183292822,0.0,0.0,0.0,0.0,0.0,0.0,0.0,0.0,0.0,-0.0003843970716399497,-6.552022135398998e-05,-0.04702639502272482,0.0,0.0,0.0,0.0,0.0,0.0,0.0,0.0,0.0,0.005907161500953785,-0.013726382043646608,-0.000153297875164228,0.0,0.0,0.0,0.0,0.0,0.0,0.0,0.0,0.0
5.954,166,5,954000000,base_footprint,8.252243192191965e-05,0.0038656602368319208,-0.02436770257723661,0.999695586132143,0.0,0.0,0.0,0.0,0.0,0.0,0.0,0.0,0.0,-0.0004158263101401936,3.30981267800117e-05,-0.047317763025302245,0.0,0.0,0.0,0.0,0.0,0.0,0.0,0.0,0.0,0.0042989949923958005,-0.011063695624605966,-0.0002622206306263802,0.0,0.0,0.0,0.0,0.0,0.0,0.0,0.0,0.0
5.987,167,5,988000000,base_footprint,8.861943389082689e-05,0.0038599559205650647,-0.025241994591952536,0.9996739141319569,0.0,0.0,0.0,0.0,0.0,0.0,0.0,0.0,0.0,-0.002229123662092787,0.0013340395971742254,-0.07136036015168726,0.0,0.0,0.0,0.0,0.0,0.0,0.0,0.0,0.0,-0.2522789955247821,0.012899103797913158,-0.0012964373215544672,0.0,0.0,0.0,0.0,0.0,0.0,0.0,0.0,0.0
6.022,168,6,22000000,base_footprint,8.875813845041344e-05,0.00387520541618159,-0.02644393411447542,0.9996427828247072,0.0,0.0,0.0,0.0,0.0,0.0,0.0,0.0,0.0,-9.254340007321033e-05,0.0005990303539151725,-0.05481330118942203,0.0,0.0,0.0,0.0,0.0,0.0,0.0,0.0,0.0,-0.08417192320092401,-0.006673461316327461,0.0029670988631585573,0.0,0.0,0.0,0.0,0.0,0.0,0.0,0.0,0.0
6.056,169,6,56000000,base_footprint,9.356018872379545e-05,0.0038766017708518996,-0.027389852807851733,0.9996173063569707,0.0,0.0,0.0,0.0,0.0,0.0,0.0,0.0,0.0,-0.0003965805145658579,2.3228892957856595e-05,-0.054889946612230414,0.0,0.0,0.0,0.0,0.0,0.0,0.0,0.0,0.0,-0.001282596795564813,-0.010971462070557426,0.0007119020216581856,0.0,0.0,0.0,0.0,0.0,0.0,0.0,0.0,0.0
6.09,170,6,90000000,base_footprint,9.906190754626808e-05,0.003871520800461766,-0.0281213161247304,0.9995970153481067,0.0,0.0,0.0,0.0,0.0,0.0,0.0,0.0,0.0,-0.0002630207726811735,0.0017521612981812806,-0.005160185307199945,0.0,0.0,0.0,0.0,0.0,0.0,0.0,0.0,0.0,0.024907255489722537,-0.0038172378020427554,-0.0026657375693739447,0.0,0.0,0.0,0.0,0.0,0.0,0.0,0.0,0.0
6.124,171,6,124000000,base_footprint,9.915594633470931e-05,0.003877689305775862,-0.02799490963464857,0.9996005395798334,0.0,0.0,0.0,0.0,0.0,0.0,0.0,0.0,0.0,-5.4417954100885684e-05,-0.0012520176347054514,0.009553118237126231,0.0,0.0,0.0,0.0,0.0,0.0,0.0,0.0,0.0,-0.012800323904726893,-0.008172330616304858,0.005164225206305414,0.0,0.0,0.0,0.0,0.0,0.0,0.0,0.0,0.0
6.158,172,6,158000000,base_footprint,9.368891147457805e-05,0.0038708169168435082,-0.027531129519807022,0.9996134477417498,0.0,0.0,0.0,0.0,0.0,0.0,0.0,0.0,0.0,-0.0008029221988104015,0.0008914764706303923,0.020960521473757078,0.0,0.0,0.0,0.0,0.0,0.0,0.0,0.0,0.0,-0.09319596657511463,0.01902490625539345,-0.003648132734778841,0.0,0.0,0.0,0.0,0.0,0.0,0.0,0.0,0.0
6.192,173,6,192000000,base_footprint,9.335453362499733e-05,0.003850244125196033,-0.027646752584235348,0.9996103360693375,0.0,0.0,0.0,0.0,0.0,0.0,0.0,0.0,0.0,-0.002542687320008825,-0.0015189089901938924,-0.04619149497896541,0.0,0.0,0.0,0.0,0.0,0.0,0.0,0.0,0.0,0.07802892526131755,-0.00536489273870594,0.0055414759867175685,0.0,0.0,0.0,0.0,0.0,0.0,0.0,0.0,0.0
6.226,174,6,226000000,base_footprint,9.604476052558836e-05,0.003859367928402649,-0.028797964577976055,0.9995777975179136,0.0,0.0,0.0,0.0,0.0,0.0,0.0,0.0,0.0,-2.918602605741782e-05,0.0024146421058417198,-0.037487716147264136,0.0,0.0,0.0,0.0,0.0,0.0,0.0,0.0,0.0,0.1331956928233069,-0.03174899785370495,-0.007866622368586302,0.0,0.0,0.0,0.0,0.0,0.0,0.0,0.0,0.0
6.26,175,6,260000000,base_footprint,0.00010072614443557789,0.003865780132039099,-0.028813115717680273,0.9995773356578541,0.0,0.0,0.0,0.0,0.0,0.0,0.0,0.0,0.0,0.0014200276103600012,0.0016105519945937268,0.031264729893242485,0.0,0.0,0.0,0.0,0.0,0.0,0.0,0.0,0.0,0.15549332952155978,-0.02299894289629436,-0.0009623845006380566,0.0,0.0,0.0,0.0,0.0,0.0,0.0,0.0,0.0
6.2940000000000005,176,6,294000000,base_footprint,9.917969077245067e-05,0.003863981916913879,-0.028271749453744076,0.9995928010895034,0.0,0.0,0.0,0.0,0.0,0.0,0.0,0.0,0.0,0.0002634054248713303,-0.0001862715731474305,0.03301795929984701,0.0,0.0,0.0,0.0,0.0,0.0,0.0,0.0,0.0,0.002613386001867222,0.01011830027581896,0.0026324907621876445,0.0,0.0,0.0,0.0,0.0,0.0,0.0,0.0,0.0
6.329,177,6,328000000,base_footprint,9.647480781157566e-05,0.003862148330170184,-0.027711724577915552,0.9996084907721648,0.0,0.0,0.0,0.0,0.0,0.0,0.0,0.0,0.0,0.00015300061619831246,-0.00024279765976095065,0.03292301942130247,0.0,0.0,0.0,0.0,0.0,0.0,0.0,0.0,0.0,0.006295706373744347,0.006057103427391122,0.0001837768726499493,0.0,0.0,0.0,0.0,0.0,0.0,0.0,0.0,0.0
6.362,178,6,362000000,base_footprint,9.383892291147452e-05,0.003861371682257261,-0.027153552930988905,0.9996238120244096,0.0,0.0,0.0,0.0,0.0,0.0,0.0,0.0,0.0,0.00023338167774517718,-0.00020988344230810508,0.03275626714366954,0.0,0.0,0.0,0.0,0.0,0.0,0.0,0.0,0.0,0.0063767454812823435,0.0065076201530071525,-4.53235284399437e-05,0.0,0.0,0.0,0.0,0.0,0.0,0.0,0.0,0.0
6.396,179,6,396000000,base_footprint,9.097897904110074e-05,0.003862100217867437,-0.02653437936377491,0.9996404366653602,0.0,0.0,0.0,0.0,0.0,0.0,0.0,0.0,0.0,0.00031211609182001354,-0.00016158564774415574,0.03925817802393016,0.0,0.0,0.0,0.0,0.0,0.0,0.0,0.0,0.0,0.0046017115441972295,0.007351614145885047,-0.00011871106478673088,0.0,0.0,0.0,0.0,0.0,0.0,0.0,0.0,0.0
6.43,180,6,430000000,base_footprint,8.775683206228637e-05,0.003864664027736972,-0.025868504273973254,0.9996578800556312,0.0,0.0,0.0,0.0,0.0,0.0,0.0,0.0,0.0,0.00020650787563151468,-1.0518789550651418e-05,0.03917462056866538,0.0,0.0,0.0,0.0,0.0,0.0,0.0,0.0,0.0,0.0060650048981186816,0.007820247322686687,-0.00046415597887682183,0.0,0.0,0.0,0.0,0.0,0.0,0.0,0.0,0.0
6.464,181,6,464000000,base_footprint,8.557185438271471e-05,0.0038669094433744946,-0.025201670765771986,0.9996749048963008,0.0,0.0,0.0,0.0,0.0,0.0,0.0,0.0,0.0,0.0002797469068321056,-8.812469213700874e-05,0.039135624052372704,0.0,0.0,0.0,0.0,0.0,0.0,0.0,0.0,0.0,0.0058658170292014335,0.006783720070846198,8.404372359328836e-05,0.0,0.0,0.0,0.0,0.0,0.0,0.0,0.0,0.0
6.498,182,6,498000000,base_footprint,8.23400503385902e-05,0.0038697154420984994,-0.024474651173221958,0.9996929578487901,0.0,0.0,0.0,0.0,0.0,0.0,0.0,0.0,0.0,0.0002547587934661434,5.935358982061456e-05,0.04522304274306927,0.0,0.0,0.0,0.0,0.0,0.0,0.0,0.0,0.0,0.00406435338208896,0.00783350905533722,-0.00045554431012284814,0.0,0.0,0.0,0.0,0.0,0.0,0.0,0.0,0.0
6.548,183,6,532000000,base_footprint,7.81836837597911e-05,0.003873637641030629,-0.02368953675945498,0.9997118558198959,0.0,0.0,0.0,0.0,0.0,0.0,0.0,0.0,0.0,0.00033446735177459884,0.00016475202514600176,0.047264862992593276,0.0,0.0,0.0,0.0,0.0,0.0,0.0,0.0,0.0,0.0020792259309266314,0.009294573033894651,-0.0002366286134822399,0.0,0.0,0.0,0.0,0.0,0.0,0.0,0.0,0.0
6.566,184,6,566000000,base_footprint,7.737546276712923e-05,0.0038759658411786167,-0.02289008372711813,0.9997304711615033,0.0,0.0,0.0,0.0,0.0,0.0,0.0,0.0,0.0,0.0008296161599479889,-0.0003123276499880832,0.045095733780209014,0.0,0.0,0.0,0.0,0.0,0.0,0.0,0.0,0.0,-0.0005251765964520419,0.015393369601071231,0.0009715750889516622,0.0,0.0,0.0,0.0,0.0,0.0,0.0,0.0,0.0
6.6,185,6,600000000,base_footprint,8.090997033624764e-05,0.003873692012485744,-0.022212835397493292,0.9997457566338419,0.0,0.0,0.0,0.0,0.0,0.0,0.0,0.0,0.0,0.00026527183492014027,-0.0005993345518383908,0.03737780886207591,0.0,0.0,0.0,0.0,0.0,0.0,0.0,0.0,0.0,-0.026751116343028517,0.0076598867667612815,0.0007573181341878692,0.0,0.0,0.0,0.0,0.0,0.0,0.0,0.0,0.0
6.629,186,6,634000000,base_footprint,6.968622498184755e-05,0.0038733515431409213,-0.021684889501824723,0.9997573494898385,0.0,0.0,0.0,0.0,0.0,0.0,0.0,0.0,0.0,0.00022562571979471853,0.0004117603438303183,0.009207606080568663,0.0,0.0,0.0,0.0,0.0,0.0,0.0,0.0,0.0,-0.05285917138103972,0.015222098380336483,-0.0014736984019665918,0.0,0.0,0.0,0.0,0.0,0.0,0.0,0.0,0.0
6.6690000000000005,187,6,668000000,base_footprint,6.735637245483872e-05,0.00386851163275875,-0.021476392471042903,0.9997618689704545,0.0,0.0,0.0,0.0,0.0,0.0,0.0,0.0,0.0,4.493393790348104e-07,-0.0004160335107481827,0.01901706679526081,0.0,0.0,0.0,0.0,0.0,0.0,0.0,0.0,0.0,0.004636313468096082,0.002584264128414856,0.0011567640251203372,0.0,0.0,0.0,0.0,0.0,0.0,0.0,0.0,0.0
6.7010000000000005,188,6,702000000,base_footprint,7.249410616685623e-05,0.003870664299970996,-0.02164181862101967,0.9997582929834873,0.0,0.0,0.0,0.0,0.0,0.0,0.0,0.0,0.0,-0.0006386991418070453,-0.00019002698857270998,-0.07303761953216482,0.0,0.0,0.0,0.0,0.0,0.0,0.0,0.0,0.0,-0.22073740012453366,0.01623689506502212,0.0019233842889478999,0.0,0.0,0.0,0.0,0.0,0.0,0.0,0.0,0.0
6.737,189,6,736000000,base_footprint,7.540877674836046e-05,0.0038679361882219087,-0.02186550552308527,0.9997534361288188,0.0,0.0,0.0,0.0,0.0,0.0,0.0,0.0,0.0,0.0002220342128409992,-0.0013369810670937937,0.03147500077813229,0.0,0.0,0.0,0.0,0.0,0.0,0.0,0.0,0.0,-0.07417968632764814,0.0036980070461670378,0.0020031881186841367,0.0,0.0,0.0,0.0,0.0,0.0,0.0,0.0,0.0
6.77,190,6,770000000,base_footprint,7.346100986420453e-05,0.0038646050940291626,-0.021336108865294044,0.9997648873057283,0.0,0.0,0.0,0.0,0.0,0.0,0.0,0.0,0.0,0.00024407573965722122,-0.00040543559130747575,0.031046698486009352,0.0,0.0,0.0,0.0,0.0,0.0,0.0,0.0,0.0,0.0050112552697106705,0.0051706219840513485,-0.0010848769629368555,0.0,0.0,0.0,0.0,0.0,0.0,0.0,0.0,0.0
6.804,191,6,804000000,base_footprint,7.09875686832915e-05,0.0038622378003712815,-0.020776478219224202,0.9997766830811493,0.0,0.0,0.0,0.0,0.0,0.0,0.0,0.0,0.0,0.0002665384994123557,-0.00029076456495599767,0.03330550310654699,0.0,0.0,0.0,0.0,0.0,0.0,0.0,0.0,0.0,0.005216537236110338,0.006438378467610404,-0.00023533220351175076,0.0,0.0,0.0,0.0,0.0,0.0,0.0,0.0,0.0
6.838,192,6,838000000,base_footprint,6.849854007249749e-05,0.0038615012296742543,-0.02021258378814681,0.9997882453663928,0.0,0.0,0.0,0.0,0.0,0.0,0.0,0.0,0.0,0.00026302078451470226,-0.00020935815741656037,0.03304192517412387,0.0,0.0,0.0,0.0,0.0,0.0,0.0,0.0,0.0,0.005914272816938814,0.006387780558634774,-0.00019675953408202062,0.0,0.0,0.0,0.0,0.0,0.0,0.0,0.0,0.0
6.873,193,6,872000000,base_footprint,6.591904520854867e-05,0.0038621567333029863,-0.01965331570929863,0.9997993931692886,0.0,0.0,0.0,0.0,0.0,0.0,0.0,0.0,0.0,0.0002508079726157004,-0.0001367952655276138,0.03276252448657658,0.0,0.0,0.0,0.0,0.0,0.0,0.0,0.0,0.0,0.005864357980992955,0.006322356165544908,-0.00019515975461385256,0.0,0.0,0.0,0.0,0.0,0.0,0.0,0.0,0.0
6.901,194,6,906000000,base_footprint,6.707864330792456e-05,0.0038635978476813013,-0.02002447575549232,0.9997920226141259,0.0,0.0,0.0,0.0,0.0,0.0,0.0,0.0,0.0,-0.0008885705603534684,0.001052860264086636,-0.07342297409516278,0.0,0.0,0.0,0.0,0.0,0.0,0.0,0.0,0.0,0.4013120200271549,-0.03467007173347384,-0.005033660764459248,0.0,0.0,0.0,0.0,0.0,0.0,0.0,0.0,0.0
6.942,195,6,940000000,base_footprint,6.450149569641558e-05,0.0038683414760015736,-0.01979135199389958,0.9997966464036753,0.0,0.0,0.0,0.0,0.0,0.0,0.0,0.0,0.0,0.0002552881162280805,2.8100740478966445e-05,0.03938506456773284,0.0,0.0,0.0,0.0,0.0,0.0,0.0,0.0,0.0,-0.05338566381235636,0.005062129700648064,0.001923082270480986,0.0,0.0,0.0,0.0,0.0,0.0,0.0,0.0,0.0
6.974,196,6,974000000,base_footprint,6.196487978498903e-05,0.0038730008146405353,-0.019122526597378977,0.9998096443831576,0.0,0.0,0.0,0.0,0.0,0.0,0.0,0.0,0.0,0.0004471545000012543,-0.0002357199958568051,0.03907107003074176,0.0,0.0,0.0,0.0,0.0,0.0,0.0,0.0,0.0,0.00555213718876841,0.006704934015454873,0.00032026349334007484,0.0,0.0,0.0,0.0,0.0,0.0,0.0,0.0,0.0
7.008,197,7,8000000,base_footprint,5.881091638088446e-05,0.0038765167059187037,-0.01857127633349438,0.9998200222314264,0.0,0.0,0.0,0.0,0.0,0.0,0.0,0.0,0.0,0.0002622230679049842,1.481002979283647e-05,0.032703444270564944,0.0,0.0,0.0,0.0,0.0,0.0,0.0,0.0,0.0,0.003172922807927245,0.00577801029172331,-0.0005633471336085557,0.0,0.0,0.0,0.0,0.0,0.0,0.0,0.0,0.0
7.042,198,7,42000000,base_footprint,5.753320963739719e-05,0.0038779953045206465,-0.01801050943527594,0.9998302752928768,0.0,0.0,0.0,0.0,0.0,0.0,0.0,0.0,0.0,0.00034358324779855984,-0.0001600223679810225,0.03322359574547121,0.0,0.0,0.0,0.0,0.0,0.0,0.0,0.0,0.0,-0.004146373090818704,0.006630499202147681,0.0004093124526886838,0.0,0.0,0.0,0.0,0.0,0.0,0.0,0.0,0.0
7.077,199,7,76000000,base_footprint,6.091173832375847e-05,0.0038751804289387996,-0.017484809896541817,0.9998396174833667,0.0,0.0,0.0,0.0,0.0,0.0,0.0,0.0,0.0,0.00041067216353579434,-0.00017202274685289667,0.028796468660102447,0.0,0.0,0.0,0.0,0.0,0.0,0.0,0.0,0.0,-0.008547277135380789,0.010342229569502667,0.00014702618899296128,0.0,0.0,0.0,0.0,0.0,0.0,0.0,0.0,0.0
7.11,200,7,110000000,base_footprint,5.3368967619186634e-05,0.0038715211669169635,-0.01704210911274346,0.9998472758339629,0.0,0.0,0.0,0.0,0.0,0.0,0.0,0.0,0.0,-0.0002105899826649555,0.000700746800324592,0.012847476065951852,0.0,0.0,0.0,0.0,0.0,0.0,0.0,0.0,0.0,-0.06995544142189628,0.014547368612408134,-0.0012509926288336833,0.0,0.0,0.0,0.0,0.0,0.0,0.0,0.0,0.0
7.141,201,7,144000000,base_footprint,5.101186280338629e-05,0.003870292950226361,-0.016918811410183667,0.9998493746813747,0.0,0.0,0.0,0.0,0.0,0.0,0.0,0.0,0.0,-0.00028885037394270216,0.0001712394329751306,0.014007709274379807,0.0,0.0,0.0,0.0,0.0,0.0,0.0,0.0,0.0,0.005305046989038124,-0.0007062902723193151,0.0011431477886873797,0.0,0.0,0.0,0.0,0.0,0.0,0.0,0.0,0.0
7.178,202,7,178000000,base_footprint,5.320013041876261e-05,0.0038725194886185194,-0.016387574745369716,0.9998582140266296,0.0,0.0,0.0,0.0,0.0,0.0,0.0,0.0,0.0,-7.916689006393725e-05,-0.0007513059286737069,0.03658828139410129,0.0,0.0,0.0,0.0,0.0,0.0,0.0,0.0,0.0,0.036787435911901596,0.005225695194743642,0.0011594288536779377,0.0,0.0,0.0,0.0,0.0,0.0,0.0,0.0,0.0
7.212,203,7,212000000,base_footprint,5.1100178333677085e-05,0.0038685584063489877,-0.01575960928892514,0.9998683245106272,0.0,0.0,0.0,0.0,0.0,0.0,0.0,0.0,0.0,0.0004470873905744745,-0.00035814410994003664,0.03681220639839491,0.0,0.0,0.0,0.0,0.0,0.0,0.0,0.0,0.0,0.004896089985386069,0.006239966859315196,-0.00037879499816811685,0.0,0.0,0.0,0.0,0.0,0.0,0.0,0.0,0.0
7.246,204,7,246000000,base_footprint,4.927877530030135e-05,0.0038649938791841232,-0.015137305670549581,0.9998779532377702,0.0,0.0,0.0,0.0,0.0,0.0,0.0,0.0,0.0,0.0003059322694130543,-0.0003879203515716192,0.036485312561622456,0.0,0.0,0.0,0.0,0.0,0.0,0.0,0.0,0.0,0.005539450831417221,0.007306969673137546,0.00010541912511281035,0.0,0.0,0.0,0.0,0.0,0.0,0.0,0.0,0.0
7.28,205,7,280000000,base_footprint,4.686563703435571e-05,0.00386242640905048,-0.014531174139142837,0.9998869558325005,0.0,0.0,0.0,0.0,0.0,0.0,0.0,0.0,0.0,-0.00018992066283759007,-0.0003683452087894035,0.028376998990779712,0.0,0.0,0.0,0.0,0.0,0.0,0.0,0.0,0.0,0.007406524678033353,0.006838456124014529,-0.0001269385139969856,0.0,0.0,0.0,0.0,0.0,0.0,0.0,0.0,0.0
7.314,206,7,314000000,base_footprint,4.4841218210831626e-05,0.0038617966912417477,-0.014061775790118813,0.9998936698355527,0.0,0.0,0.0,0.0,0.0,0.0,0.0,0.0,0.0,0.00023156507427855784,-0.00020052167205933237,0.027559073551770657,0.0,0.0,0.0,0.0,0.0,0.0,0.0,0.0,0.0,0.0069040849769587305,0.006299943826139205,-0.0003307402126875555,0.0,0.0,0.0,0.0,0.0,0.0,0.0,0.0,0.0
7.348,207,7,348000000,base_footprint,4.27233434293634e-05,0.0038625915599034754,-0.013596087822105965,0.9999001074892887,0.0,0.0,0.0,0.0,0.0,0.0,0.0,0.0,0.0,0.00021653926075333,-0.00012071778164448612,0.02724306058005203,0.0,0.0,0.0,0.0,0.0,0.0,0.0,0.0,0.0,0.005955957260523441,0.005607243215768252,-0.0002136820424813774,0.0,0.0,0.0,0.0,0.0,0.0,0.0,0.0,0.0
7.386,208,7,382000000,base_footprint,4.0413668908185095e-05,0.0038649510900009057,-0.013137172191028966,0.9999062332172105,0.0,0.0,0.0,0.0,0.0,0.0,0.0,0.0,0.0,0.00020115873592128536,-3.803852395567016e-05,0.02632663686052654,0.0,0.0,0.0,0.0,0.0,0.0,0.0,0.0,0.0,0.005937248297540288,0.005495818740791455,-0.00023374504945226245,0.0,0.0,0.0,0.0,0.0,0.0,0.0,0.0,0.0
7.417,209,7,416000000,base_footprint,3.7720034015484146e-05,0.0038692688948037133,-0.012691620460037703,0.9999119711782218,0.0,0.0,0.0,0.0,0.0,0.0,0.0,0.0,0.0,0.0001627542609155047,0.00010479657385472778,0.026121814631576278,0.0,0.0,0.0,0.0,0.0,0.0,0.0,0.0,0.0,0.005275757462387344,0.005326122747598364,-0.00035338291716012455,0.0,0.0,0.0,0.0,0.0,0.0,0.0,0.0,0.0
7.453,210,7,450000000,base_footprint,3.566724396905675e-05,0.003874214882736171,-0.012249042937342466,0.9999174716615414,0.0,0.0,0.0,0.0,0.0,0.0,0.0,0.0,0.0,0.00016307595203393115,0.00010184275583032158,0.025803387450468528,0.0,0.0,0.0,0.0,0.0,0.0,0.0,0.0,0.0,0.0047599424378310775,0.004243570492633874,-0.00024116577545808338,0.0,0.0,0.0,0.0,0.0,0.0,0.0,0.0,0.0
7.484,211,7,484000000,base_footprint,3.018939085122783e-05,0.003867063617915892,-0.011827722850070747,0.9999225719423268,0.0,0.0,0.0,0.0,0.0,0.0,0.0,0.0,0.0,-0.0012213239270800107,-0.0009150479563705873,0.013608726960129719,0.0,0.0,0.0,0.0,0.0,0.0,0.0,0.0,0.0,-0.09987234066606736,0.009907878349432981,0.0014230286981984416,0.0,0.0,0.0,0.0,0.0,0.0,0.0,0.0,0.0
7.518,212,7,518000000,base_footprint,3.969018448782335e-05,0.0038695682447082093,-0.01231099205386342,0.999916728703415,0.0,0.0,0.0,0.0,0.0,0.0,0.0,0.0,0.0,-0.0020005429755599233,-0.0056016956050669,-0.03189260509773586,0.0,0.0,0.0,0.0,0.0,0.0,0.0,0.0,0.0,-0.1989219208039914,0.009744048758383368,0.008957415363541719,0.0,0.0,0.0,0.0,0.0,0.0,0.0,0.0,0.0
7.552,213,7,552000000,base_footprint,3.4085573760107286e-05,0.003877518787294494,-0.012316504472491139,0.9999166302266439,0.0,0.0,0.0,0.0,0.0,0.0,0.0,0.0,0.0,0.00018819443290348883,0.000977482583628641,0.012865862309548814,0.0,0.0,0.0,0.0,0.0,0.0,0.0,0.0,0.0,-0.004061882766963177,-0.004399438139802185,-0.009609998028027453,0.0,0.0,0.0,0.0,0.0,0.0,0.0,0.0,0.0
7.586,214,7,586000000,base_footprint,3.941567609196309e-05,0.00386599155738773,-0.012157937323976102,0.9999186152461154,0.0,0.0,0.0,0.0,0.0,0.0,0.0,0.0,0.0,0.0008582285796150257,-0.0004344142418516483,0.013959284109098608,0.0,0.0,0.0,0.0,0.0,0.0,0.0,0.0,0.0,-0.10762750623954952,0.011599381746925487,0.0033101545571121264,0.0,0.0,0.0,0.0,0.0,0.0,0.0,0.0,0.0
7.61,215,7,620000000,base_footprint,3.272807365903899e-05,0.0038724663462398243,-0.011929011948913746,0.9999213477105053,0.0,0.0,0.0,0.0,0.0,0.0,0.0,0.0,0.0,0.0001406376461379304,-0.0003752579566338266,0.015336974238228137,0.0,0.0,0.0,0.0,0.0,0.0,0.0,0.0,0.0,0.004047483223717209,0.0016443480045481714,0.00014044764155757224,0.0,0.0,0.0,0.0,0.0,0.0,0.0,0.0,0.0
7.658,216,7,654000000,base_footprint,3.427365023219447e-05,0.0038729180094777917,-0.011477927928397916,0.9999266255590353,0.0,0.0,0.0,0.0,0.0,0.0,0.0,0.0,0.0,0.0001626138206835263,-0.00023706395148060966,0.028494844167614317,0.0,0.0,0.0,0.0,0.0,0.0,0.0,0.0,0.0,0.02461712426491746,0.0025472371047990192,-0.0005913188099687043,0.0,0.0,0.0,0.0,0.0,0.0,0.0,0.0,0.0
7.688,217,7,688000000,base_footprint,3.195621628956538e-05,0.00385380161390548,-0.011069796818371043,0.9999313010353866,0.0,0.0,0.0,0.0,0.0,0.0,0.0,0.0,0.0,-0.0004913902901408696,0.00024529631273686184,0.002383079091440663,0.0,0.0,0.0,0.0,0.0,0.0,0.0,0.0,0.0,0.17738226873919474,-0.003645748539395791,-0.001074291840974992,0.0,0.0,0.0,0.0,0.0,0.0,0.0,0.0,0.0
7.722,218,7,722000000,base_footprint,3.6963933407296074e-05,0.003865843189347725,-0.01141864210874915,0.9999273316109002,0.0,0.0,0.0,0.0,0.0,0.0,0.0,0.0,0.0,0.00020177218998650056,0.0002747459347000633,0.034023957828873956,0.0,0.0,0.0,0.0,0.0,0.0,0.0,0.0,0.0,0.16951483948865964,-0.016295321411910153,-0.0019443912555832568,0.0,0.0,0.0,0.0,0.0,0.0,0.0,0.0,0.0
7.756,219,7,756000000,base_footprint,3.295143007409756e-05,0.003862954936664181,-0.010876951777694393,0.9999333819877134,0.0,0.0,0.0,0.0,0.0,0.0,0.0,0.0,0.0,0.0002764414844053189,-0.0003177145477596184,0.031455527800987794,0.0,0.0,0.0,0.0,0.0,0.0,0.0,0.0,0.0,0.007479692541880687,0.01034144686652877,0.000705955301172307,0.0,0.0,0.0,0.0,0.0,0.0,0.0,0.0,0.0
7.8,220,7,790000000,base_footprint,3.0888394252314836e-05,0.003861933422539092,-0.010358903800794394,0.999938886946694,0.0,0.0,0.0,0.0,0.0,0.0,0.0,0.0,0.0,0.0002506041824263035,-0.0001911425525744296,0.02899868569990602,0.0,0.0,0.0,0.0,0.0,0.0,0.0,0.0,0.0,0.006532202477714624,0.006498853420301305,-0.0002692531471920985,0.0,0.0,0.0,0.0,0.0,0.0,0.0,0.0,0.0
7.829,221,7,824000000,base_footprint,2.8781507260926407e-05,0.003862445949922962,-0.009868468822618803,0.999943845426335,0.0,0.0,0.0,0.0,0.0,0.0,0.0,0.0,0.0,0.00023624922096452758,-0.0001345168514831208,0.028693843816766856,0.0,0.0,0.0,0.0,0.0,0.0,0.0,0.0,0.0,0.005842164170191917,0.005962162056119855,-0.00017884876104720513,0.0,0.0,0.0,0.0,0.0,0.0,0.0,0.0,0.0
7.861,222,7,858000000,base_footprint,2.6451075617800746e-05,0.0038645116264050114,-0.009383770362160314,0.9999485035260667,0.0,0.0,0.0,0.0,0.0,0.0,0.0,0.0,0.0,0.00021565480235991984,-4.269588436763827e-05,0.02835713141089765,0.0,0.0,0.0,0.0,0.0,0.0,0.0,0.0,0.0,0.005768369948942194,0.00592772902750175,-0.0002455005004956717,0.0,0.0,0.0,0.0,0.0,0.0,0.0,0.0,0.0
7.894,223,7,892000000,base_footprint,2.155230086521158e-05,0.003869431655869363,-0.008409224989535832,0.9999571550667731,0.0,0.0,0.0,0.0,0.0,0.0,0.0,0.0,0.0,0.0011303882082264638,-0.0009671769674372707,0.10167187732731266,0.0,0.0,0.0,0.0,0.0,0.0,0.0,0.0,0.0,-0.012457367148649404,0.010317996825528922,0.0012330453253355349,0.0,0.0,0.0,0.0,0.0,0.0,0.0,0.0,0.0
7.929,224,7,926000000,base_footprint,1.5098002765314397e-05,0.003873343330841286,-0.006693689109200466,0.9999700953076553,0.0,0.0,0.0,0.0,0.0,0.0,0.0,0.0,0.0,0.0007968050654286287,0.00010380940832063499,0.10082422661224552,0.0,0.0,0.0,0.0,0.0,0.0,0.0,0.0,0.0,0.0036597223126992665,0.0231724938202608,-0.001675453299255431,0.0,0.0,0.0,0.0,0.0,0.0,0.0,0.0,0.0
7.96,225,7,960000000,base_footprint,8.344328271412456e-06,0.003877251928782558,-0.004978511564075772,0.9999800904370343,0.0,0.0,0.0,0.0,0.0,0.0,0.0,0.0,0.0,0.0007577664178539245,9.410373179661895e-05,0.10093255924665116,0.0,0.0,0.0,0.0,0.0,0.0,0.0,0.0,0.0,0.0007764770820246048,0.021443575131734678,-3.7145343696569046e-05,0.0,0.0,0.0,0.0,0.0,0.0,0.0,0.0,0.0
7.994,226,7,994000000,base_footprint,1.4154029946396468e-06,0.0038793036131756836,-0.003280785735881573,0.9999870936399273,0.0,0.0,0.0,0.0,0.0,0.0,0.0,0.0,0.0,0.0007024363796397702,-0.00016291924449909898,0.09788905389153739,0.0,0.0,0.0,0.0,0.0,0.0,0.0,0.0,0.0,-0.00021434808569872828,0.019934043659911537,0.000450684667233878,0.0,0.0,0.0,0.0,0.0,0.0,0.0,0.0,0.0
8.028,227,8,28000000,base_footprint,-4.893833283121811e-06,0.0038746795115782683,-0.0016585927246603772,0.9999911179130077,0.0,0.0,0.0,0.0,0.0,0.0,0.0,0.0,0.0,0.000812284114095048,-0.00041671946818614563,0.0913275196956809,0.0,0.0,0.0,0.0,0.0,0.0,0.0,0.0,0.0,-0.005624133601618046,0.02614337095736205,0.0006650223186218758,0.0,0.0,0.0,0.0,0.0,0.0,0.0,0.0,0.0
8.062,228,8,62000000,base_footprint,-7.765265139240384e-06,0.0038702043601996344,-0.0003058606784135382,0.999992463925182,0.0,0.0,0.0,0.0,0.0,0.0,0.0,0.0,0.0,0.0008074903995382431,-0.0006165437243853013,0.07890722393196266,0.0,0.0,0.0,0.0,0.0,0.0,0.0,0.0,0.0,-0.07636024817552609,0.020481205802732456,8.759079260095312e-05,0.0,0.0,0.0,0.0,0.0,0.0,0.0,0.0,0.0
8.096,229,8,96000000,base_footprint,-1.1161871614080382e-05,0.0038654624735202357,0.0007138154956577732,0.9999922742415147,0.0,0.0,0.0,0.0,0.0,0.0,0.0,0.0,0.0,-0.00015581371603530083,0.0015972089381607315,0.010678389180320831,0.0,0.0,0.0,0.0,0.0,0.0,0.0,0.0,0.0,0.00818533187465839,0.01026220493702564,-0.0022140686885576133,0.0,0.0,0.0,0.0,0.0,0.0,0.0,0.0,0.0
8.132,230,8,130000000,base_footprint,-1.19045263253849e-05,0.00387317862048249,0.0008098341098647169,0.9999921712265405,0.0,0.0,0.0,0.0,0.0,0.0,0.0,0.0,0.0,4.329203353117878e-05,5.007509044071182e-05,0.006040395150711952,0.0,0.0,0.0,0.0,0.0,0.0,0.0,0.0,0.0,0.059495150744123856,0.001548186120334974,0.0014043152883972667,0.0,0.0,0.0,0.0,0.0,0.0,0.0,0.0,0.0
8.164,231,8,164000000,base_footprint,-1.2507701184294317e-05,0.00387045940812482,0.0009162355349271377,0.9999920899187014,0.0,0.0,0.0,0.0,0.0,0.0,0.0,0.0,0.0,0.000148426569288911,-0.0005215693930363987,0.006369176419682434,0.0,0.0,0.0,0.0,0.0,0.0,0.0,0.0,0.0,0.003413838789080515,0.000648356969317524,0.0011386177880597526,0.0,0.0,0.0,0.0,0.0,0.0,0.0,0.0,0.0
8.198,232,8,198000000,base_footprint,-1.2227220668900643e-05,0.003862118608156945,0.0006043695307051969,0.9999923592847207,0.0,0.0,0.0,0.0,0.0,0.0,0.0,0.0,0.0,-1.0164822563811601e-05,-0.002331655895655935,-0.0665183883287154,0.0,0.0,0.0,0.0,0.0,0.0,0.0,0.0,0.0,-0.2806257174923476,-0.0009817947239369787,0.003726489943647146,0.0,0.0,0.0,0.0,0.0,0.0,0.0,0.0,0.0
8.232,233,8,232000000,base_footprint,-8.712491875351309e-06,0.0038629330386696797,0.00015511196826086557,0.9999925267784299,0.0,0.0,0.0,0.0,0.0,0.0,0.0,0.0,0.0,-2.0001380183399198e-05,-0.00040808570965949873,0.0007446026194196214,0.0,0.0,0.0,0.0,0.0,0.0,0.0,0.0,0.0,-0.04799030681159549,-0.010289838695533007,-0.001387288849092647,0.0,0.0,0.0,0.0,0.0,0.0,0.0,0.0,0.0
8.267,234,8,266000000,base_footprint,-8.994764147208899e-06,0.0038602190272727043,0.00016887086590734553,0.9999925350275303,0.0,0.0,0.0,0.0,0.0,0.0,0.0,0.0,0.0,5.981826432494354e-05,-0.00021336023486042498,0.0006675834989198915,0.0,0.0,0.0,0.0,0.0,0.0,0.0,0.0,0.0,0.005136381760708766,0.0013979191836691592,-0.0003579020572893958,0.0,0.0,0.0,0.0,0.0,0.0,0.0,0.0,0.0
8.3,235,8,300000000,base_footprint,-8.901738381628017e-06,0.0038606990080089667,0.00017677329782623418,0.9999925318096781,0.0,0.0,0.0,0.0,0.0,0.0,0.0,0.0,0.0,5.3853802375768516e-05,-0.00013767904006277732,0.00025342217328490384,0.0,0.0,0.0,0.0,0.0,0.0,0.0,0.0,0.0,0.005636165259761073,2.1376741483398505e-05,-0.00019922724483920518,0.0,0.0,0.0,0.0,0.0,0.0,0.0,0.0,0.0
8.336,236,8,334000000,base_footprint,-8.985310131429543e-06,0.003862549297846711,0.0001781358650075511,0.9999925244219576,0.0,0.0,0.0,0.0,0.0,0.0,0.0,0.0,0.0,3.715777681580056e-05,-5.4352770501030604e-05,-0.00012611666491712807,0.0,0.0,0.0,0.0,0.0,0.0,0.0,0.0,0.0,0.005512031003110842,-0.00010015552729272849,-0.0002262306772839293,0.0,0.0,0.0,0.0,0.0,0.0,0.0,0.0,0.0
8.372,237,8,368000000,base_footprint,-9.289368373012223e-06,0.0038660773832998683,0.00017332681595048346,0.9999925116305566,0.0,0.0,0.0,0.0,0.0,0.0,0.0,0.0,0.0,1.8012452740602766e-05,5.3821464841744454e-05,-0.0004670393590491605,0.0,0.0,0.0,0.0,0.0,0.0,0.0,0.0,0.0,0.005215621004185874,-0.00022597452965429797,-0.00028338327716304816,0.0,0.0,0.0,0.0,0.0,0.0,0.0,0.0,0.0
8.403,238,8,402000000,base_footprint,-6.998808539199035e-06,0.003864301629526501,-6.963876768412203e-05,0.9999925311092953,0.0,0.0,0.0,0.0,0.0,0.0,0.0,0.0,0.0,-0.0001403562258318771,-5.174309024561831e-06,-0.06206821432547179,0.0,0.0,0.0,0.0,0.0,0.0,0.0,0.0,0.0,0.371164611969697,-0.0012545861309764372,-0.0026425515166412497,0.0,0.0,0.0,0.0,0.0,0.0,0.0,0.0,0.0
8.436,239,8,436000000,base_footprint,-7.2146429425414815e-06,0.0038764380944149926,-0.0004457597042862513,0.9999923872079904,0.0,0.0,0.0,0.0,0.0,0.0,0.0,0.0,0.0,4.276261863307316e-05,0.00020129882591325005,-0.0024435258189692884,0.0,0.0,0.0,0.0,0.0,0.0,0.0,0.0,0.0,-0.02708766780503755,-0.006046995698825625,-0.000378281922127847,0.0,0.0,0.0,0.0,0.0,0.0,0.0,0.0,0.0
8.471,240,8,470000000,base_footprint,-8.044213500265042e-06,0.0038792940289301583,-0.0004809125889567292,0.9999923598389189,0.0,0.0,0.0,0.0,0.0,0.0,0.0,0.0,0.0,-7.256571129926751e-05,-2.7129216463078145e-05,-0.002104506104823039,0.0,0.0,0.0,0.0,0.0,0.0,0.0,0.0,0.0,-0.006501694875532945,-0.0027994759335786827,0.0002930041443059274,0.0,0.0,0.0,0.0,0.0,0.0,0.0,0.0,0.0
8.504,241,8,504000000,base_footprint,-8.506376094750957e-06,0.00387614870324877,-0.0005287508236123952,0.9999923478814419,0.0,0.0,0.0,0.0,0.0,0.0,0.0,0.0,0.0,0.00010648911721860951,-0.0004739426459176362,-0.005041904397131597,0.0,0.0,0.0,0.0,0.0,0.0,0.0,0.0,0.0,-0.01046480835942263,-0.0022172653438669106,0.0010181376515065643,0.0,0.0,0.0,0.0,0.0,0.0,0.0,0.0,0.0
8.538,242,8,538000000,base_footprint,-7.179163824803255e-06,0.003868789005852617,-0.0006255472394926572,0.9999923205258824,0.0,0.0,0.0,0.0,0.0,0.0,0.0,0.0,0.0,0.0004160796502099922,-0.00013404591233081415,-0.003771550332132787,0.0,0.0,0.0,0.0,0.0,0.0,0.0,0.0,0.0,-0.06280907693592919,0.0025641904767142224,-0.0002067294402312811,0.0,0.0,0.0,0.0,0.0,0.0,0.0,0.0,0.0
8.572,243,8,572000000,base_footprint,-3.87201978404878e-06,0.0038786847318417654,-0.0006669929241729523,0.9999922554251096,0.0,0.0,0.0,0.0,0.0,0.0,0.0,0.0,0.0,6.288662972360623e-05,-0.00026408545770406335,-0.00023359152803708027,0.0,0.0,0.0,0.0,0.0,0.0,0.0,0.0,0.0,0.05630904972623607,0.006766909067921151,2.7417128210295477e-05,0.0,0.0,0.0,0.0,0.0,0.0,0.0,0.0,0.0
8.606,244,8,606000000,base_footprint,-6.1328062480385135e-06,0.0038741774576255047,-0.0006634931990541282,0.999992275214259,0.0,0.0,0.0,0.0,0.0,0.0,0.0,0.0,0.0,-4.275890351970578e-05,-0.00039820902945670705,7.444895777343943e-05,0.0,0.0,0.0,0.0,0.0,0.0,0.0,0.0,0.0,-0.015204539613213552,-0.006078127389266713,0.00014882247302538612,0.0,0.0,0.0,0.0,0.0,0.0,0.0,0.0,0.0
8.641,245,8,640000000,base_footprint,-6.731895541457118e-06,0.003871707790203247,-0.0006568806224387124,0.9999922891409297,0.0,0.0,0.0,0.0,0.0,0.0,0.0,0.0,0.0,0.00011597590128173474,-0.00041572400919031314,0.000510557445158002,0.0,0.0,0.0,0.0,0.0,0.0,0.0,0.0,0.0,0.0030936621737773975,-0.0007736126563274288,0.00028964078161726193,0.0,0.0,0.0,0.0,0.0,0.0,0.0,0.0,0.0
8.674,246,8,674000000,base_footprint,-6.018137888687225e-06,0.0038664877151799145,-0.0006511591767642605,0.9999923130845843,0.0,0.0,0.0,0.0,0.0,0.0,0.0,0.0,0.0,7.382730657850608e-05,-0.0003982484544939433,0.00012141609487675911,0.0,0.0,0.0,0.0,0.0,0.0,0.0,0.0,0.0,0.004975361974462965,-0.00022132451745760613,-4.059699514812203e-05,0.0,0.0,0.0,0.0,0.0,0.0,0.0,0.0,0.0
8.703,247,8,708000000,base_footprint,-5.63496894097317e-06,0.003863620627013213,-0.0006535529343803753,0.9999923226067587,0.0,0.0,0.0,0.0,0.0,0.0,0.0,0.0,0.0,5.276808573418161e-05,-0.00029058480294341215,-0.0003589999253327773,0.0,0.0,0.0,0.0,0.0,0.0,0.0,0.0,0.0,0.005541635892296407,-1.1495172036637561e-05,-0.00024273385122290745,0.0,0.0,0.0,0.0,0.0,0.0,0.0,0.0,0.0
8.744,248,8,742000000,base_footprint,-5.511915767890358e-06,0.0038625722692565948,-0.0006642034374593892,0.9999923196399447,0.0,0.0,0.0,0.0,0.0,0.0,0.0,0.0,0.0,3.11948487051067e-05,-0.0002092433088691058,-0.0008466105048125965,0.0,0.0,0.0,0.0,0.0,0.0,0.0,0.0,0.0,0.005622901051924387,-0.000194140090021638,-0.00020469669950729546,0.0,0.0,0.0,0.0,0.0,0.0,0.0,0.0,0.0
8.781,249,8,776000000,base_footprint,-5.645287653940616e-06,0.0038630257086062873,-0.0006829725792706837,0.999992305244876,0.0,0.0,0.0,0.0,0.0,0.0,0.0,0.0,0.0,8.812639833468212e-06,-0.00013388849211793316,-0.0013116936500131068,0.0,0.0,0.0,0.0,0.0,0.0,0.0,0.0,0.0,0.005591461990506126,-0.0003478396293931279,-0.00020345550137655313,0.0,0.0,0.0,0.0,0.0,0.0,0.0,0.0,0.0
8.811,250,8,810000000,base_footprint,-6.050759318532631e-06,0.0038649743535395906,-0.0007092453440956858,0.9999922794240348,0.0,0.0,0.0,0.0,0.0,0.0,0.0,0.0,0.0,-1.5417490356670794e-05,-4.685159723053291e-05,-0.0017262766120307463,0.0,0.0,0.0,0.0,0.0,0.0,0.0,0.0,0.0,0.005484884528012349,-0.0004899373646328158,-0.00023643540610778283,0.0,0.0,0.0,0.0,0.0,0.0,0.0,0.0,0.0
8.845,251,8,844000000,base_footprint,-6.7662197490957275e-06,0.00386869074061248,-0.0007418650616334605,0.9999922413811031,0.0,0.0,0.0,0.0,0.0,0.0,0.0,0.0,0.0,-4.2191539883973935e-05,6.885431868085978e-05,-0.0020526088265840504,0.0,0.0,0.0,0.0,0.0,0.0,0.0,0.0,0.0,0.005128747403674548,-0.0006269027231530157,-0.00030221064974873325,0.0,0.0,0.0,0.0,0.0,0.0,0.0,0.0,0.0
8.878,252,8,878000000,base_footprint,-6.9298847078463376e-06,0.0038739258032667056,-0.0007776607152360873,0.9999921939168623,0.0,0.0,0.0,0.0,0.0,0.0,0.0,0.0,0.0,-3.0389830938642663e-06,9.846723662171719e-05,-0.001959413091280067,0.0,0.0,0.0,0.0,0.0,0.0,0.0,0.0,0.0,0.003754073241629526,-0.0012383793234616402,-0.00020860477655873,0.0,0.0,0.0,0.0,0.0,0.0,0.0,0.0,0.0
8.913,253,8,912000000,base_footprint,-6.586776870121774e-06,0.0038770553002006715,-0.0008100681691767569,0.9999921560634237,0.0,0.0,0.0,0.0,0.0,0.0,0.0,0.0,0.0,-1.828066888498928e-05,2.9184377368893445e-05,-0.0018511165821225278,0.0,0.0,0.0,0.0,0.0,0.0,0.0,0.0,0.0,-0.0007495057312656483,-0.0007785539466164212,2.433960218620579e-05,0.0,0.0,0.0,0.0,0.0,0.0,0.0,0.0,0.0
8.947,254,8,946000000,base_footprint,-6.887769403096259e-06,0.003878948724194405,-0.0008418147046478184,0.9999921224976509,0.0,0.0,0.0,0.0,0.0,0.0,0.0,0.0,0.0,-3.726488282563862e-05,-0.00012101526491342062,-0.0019770921350088324,0.0,0.0,0.0,0.0,0.0,0.0,0.0,0.0,0.0,-0.007247337683213339,-0.0019076421265573395,0.0003242300357309538,0.0,0.0,0.0,0.0,0.0,0.0,0.0,0.0,0.0
8.981,255,8,980000000,base_footprint,-9.055702256055294e-06,0.003871311698458216,-0.0009017568055513382,0.9999920998179892,0.0,0.0,0.0,0.0,0.0,0.0,0.0,0.0,0.0,-0.0002650426187949374,-0.0029485026884678383,-0.007686920278500022,0.0,0.0,0.0,0.0,0.0,0.0,0.0,0.0,0.0,-0.01644691561558792,-0.0017971372882684693,0.0021997225041105735,0.0,0.0,0.0,0.0,0.0,0.0,0.0,0.0,0.0
9.015,256,9,14000000,base_footprint,-3.0411247511393192e-06,0.0038645456798613123,-0.0010529186753128964,0.9999919782876776,0.0,0.0,0.0,0.0,0.0,0.0,0.0,0.0,0.0,-2.953734081518431e-05,0.00016606818102180847,-0.004215541079647838,0.0,0.0,0.0,0.0,0.0,0.0,0.0,0.0,0.0,-0.11131783631882446,0.006979861639463662,-0.0007273491133622469,0.0,0.0,0.0,0.0,0.0,0.0,0.0,0.0,0.0
9.049,257,9,48000000,base_footprint,-2.5686772490717433e-06,0.0038667507240817698,-0.0011096140675615372,0.999991908461694,0.0,0.0,0.0,0.0,0.0,0.0,0.0,0.0,0.0,-0.0001503204693977039,0.001124665974058373,0.00011560296505050348,0.0,0.0,0.0,0.0,0.0,0.0,0.0,0.0,0.0,-0.27978597808967604,-0.002751883898433705,-0.0012521822943222813,0.0,0.0,0.0,0.0,0.0,0.0,0.0,0.0,0.0
9.081,258,9,82000000,base_footprint,-3.2236363053583566e-06,0.003874181730149709,-0.0010846149426970257,0.9999919071252308,0.0,0.0,0.0,0.0,0.0,0.0,0.0,0.0,0.0,0.00020764382679624437,3.354506243697649e-05,0.0038739981168038626,0.0,0.0,0.0,0.0,0.0,0.0,0.0,0.0,0.0,0.03539565855088257,-0.0009089135044735534,0.002606500625915365,0.0,0.0,0.0,0.0,0.0,0.0,0.0,0.0,0.0
9.116,259,9,116000000,base_footprint,-4.098010857853791e-06,0.0038714768082456366,-0.0010250598104413482,0.9999919804193005,0.0,0.0,0.0,0.0,0.0,0.0,0.0,0.0,0.0,-8.831917421759745e-05,-0.0002710434485256335,0.0034798866370471435,0.0,0.0,0.0,0.0,0.0,0.0,0.0,0.0,0.0,0.0025496766464056454,0.00087508863049475,0.0004997283201246136,0.0,0.0,0.0,0.0,0.0,0.0,0.0,0.0,0.0
9.15,260,9,150000000,base_footprint,-4.207835871461817e-06,0.003866726067954643,-0.0009677985604503753,0.9999920558573233,0.0,0.0,0.0,0.0,0.0,0.0,0.0,0.0,0.0,9.807006566745437e-05,-0.00039999410556147675,0.0031846246514759427,0.0,0.0,0.0,0.0,0.0,0.0,0.0,0.0,0.0,0.004463813243538291,0.00046250742044060206,0.0003680916077407426,0.0,0.0,0.0,0.0,0.0,0.0,0.0,0.0,0.0
9.184,261,9,184000000,base_footprint,-3.291363191188568e-06,0.003854078758646058,-0.0009440052233263109,0.999992127429125,0.0,0.0,0.0,0.0,0.0,0.0,0.0,0.0,0.0,3.808405251911269e-05,0.0017568101360141643,-0.007077163511699247,0.0,0.0,0.0,0.0,0.0,0.0,0.0,0.0,0.0,0.16561695285112446,-0.0030185408966971823,-0.003527464405300084,0.0,0.0,0.0,0.0,0.0,0.0,0.0,0.0,0.0
9.217,262,9,218000000,base_footprint,-9.011341880240375e-07,0.0038638504864026394,-0.0015171549798329847,0.9999913844125727,0.0,0.0,0.0,0.0,0.0,0.0,0.0,0.0,0.0,0.00025092824401785294,-0.0007819581846117832,0.009017169762441712,0.0,0.0,0.0,0.0,0.0,0.0,0.0,0.0,0.0,0.18728459606421857,-0.0029111696630699318,0.000805848536231175,0.0,0.0,0.0,0.0,0.0,0.0,0.0,0.0,0.0
9.251,263,9,252000000,base_footprint,-2.2797317779200077e-06,0.0038624678929512924,-0.0013740561593906893,0.9999915966178164,0.0,0.0,0.0,0.0,0.0,0.0,0.0,0.0,0.0,8.207242590037647e-05,-0.00014358001419630345,0.007879750936963293,0.0,0.0,0.0,0.0,0.0,0.0,0.0,0.0,0.0,0.002762365634232554,-0.0010561722093950926,-0.0005244262924598123,0.0,0.0,0.0,0.0,0.0,0.0,0.0,0.0,0.0
9.286,264,9,286000000,base_footprint,-3.4238770841538265e-06,0.003864317902249574,-0.0012188530382530132,0.9999917906826529,0.0,0.0,0.0,0.0,0.0,0.0,0.0,0.0,0.0,0.00018462010025356901,-0.00010771476229312036,0.01329606683277335,0.0,0.0,0.0,0.0,0.0,0.0,0.0,0.0,0.0,0.004031373188313823,0.0015989758015968333,-0.00012340829971666916,0.0,0.0,0.0,0.0,0.0,0.0,0.0,0.0,0.0
9.32,265,9,320000000,base_footprint,-4.984490473813762e-06,0.003867614871084636,-0.000999896907627503,0.9999920208364355,0.0,0.0,0.0,0.0,0.0,0.0,0.0,0.0,0.0,7.262489165481021e-05,5.249408456085145e-05,0.012669794081205304,0.0,0.0,0.0,0.0,0.0,0.0,0.0,0.0,0.0,0.005368171313342335,0.0028324566981734033,-0.00038918758977783577,0.0,0.0,0.0,0.0,0.0,0.0,0.0,0.0,0.0
9.354,266,9,354000000,base_footprint,-6.381804189623835e-06,0.003872689397976991,-0.0007879011131504874,0.9999921906934751,0.0,0.0,0.0,0.0,0.0,0.0,0.0,0.0,0.0,5.4006022094004006e-05,0.00011771245148164679,0.012339672726491759,0.0,0.0,0.0,0.0,0.0,0.0,0.0,0.0,0.0,0.00453964993180102,0.0018982788461367464,-0.00029321946774828954,0.0,0.0,0.0,0.0,0.0,0.0,0.0,0.0,0.0
9.388,267,9,388000000,base_footprint,-6.455754280645742e-06,0.0038762241709213224,-0.0006308940497558417,0.9999922883788646,0.0,0.0,0.0,0.0,0.0,0.0,0.0,0.0,0.0,-0.00010234513280882364,-2.1549418549980397e-05,0.0016304356652374413,0.0,0.0,0.0,0.0,0.0,0.0,0.0,0.0,0.0,0.003957014215461047,0.0018079824789500245,7.730235432633571e-05,0.0,0.0,0.0,0.0,0.0,0.0,0.0,0.0,0.0
9.422,268,9,422000000,base_footprint,-7.5156157531617125e-06,0.0038787063478917744,-0.0005829542256515662,0.9999923078428918,0.0,0.0,0.0,0.0,0.0,0.0,0.0,0.0,0.0,-9.277268964746384e-06,-1.825303942091846e-05,0.0027821259082879864,0.0,0.0,0.0,0.0,0.0,0.0,0.0,0.0,0.0,-0.007966826408435915,6.364611270069171e-05,8.947471539138009e-05,0.0,0.0,0.0,0.0,0.0,0.0,0.0,0.0,0.0
9.456,269,9,456000000,base_footprint,-8.331573532459742e-06,0.003876268807222975,-0.0005492031164507737,0.9999923363939625,0.0,0.0,0.0,0.0,0.0,0.0,0.0,0.0,0.0,7.564108217608099e-05,-0.0004496710827954124,-0.00010929603490469124,0.0,0.0,0.0,0.0,0.0,0.0,0.0,0.0,0.0,-0.00998780241208431,-0.0012379092229659128,0.0009642774967660567,0.0,0.0,0.0,0.0,0.0,0.0,0.0,0.0,0.0
9.49,270,9,490000000,base_footprint,-8.486605282084438e-06,0.003869521643530523,-0.0006210111336600938,0.9999923205082126,0.0,0.0,0.0,0.0,0.0,0.0,0.0,0.0,0.0,0.00036100734206660084,-0.0002158323039259541,-0.005013614920226675,0.0,0.0,0.0,0.0,0.0,0.0,0.0,0.0,0.0,-0.059353170510535486,0.0005232154324262855,-1.0624347897957946e-05,0.0,0.0,0.0,0.0,0.0,0.0,0.0,0.0,0.0
9.524000000000001,271,9,524000000,base_footprint,-4.113366651159757e-06,0.0038791773015589342,-0.0006640592070196706,0.9999922554659676,0.0,0.0,0.0,0.0,0.0,0.0,0.0,0.0,0.0,-5.250673159558521e-05,-0.0002714223543599291,-0.00033389673246566833,0.0,0.0,0.0,0.0,0.0,0.0,0.0,0.0,0.0,0.053931506024737265,0.00898264396286339,-0.00012722295419775789,0.0,0.0,0.0,0.0,0.0,0.0,0.0,0.0,0.0
9.558,272,9,558000000,base_footprint,-6.586712120022434e-06,0.0038742609196763004,-0.0006622286582204267,0.9999922757262407,0.0,0.0,0.0,0.0,0.0,0.0,0.0,0.0,0.0,-4.7586291794872805e-05,-0.0004002704077222799,-5.929902107122889e-05,0.0,0.0,0.0,0.0,0.0,0.0,0.0,0.0,0.0,-0.016156003409038604,-0.005764696378069693,0.00016994257843205266,0.0,0.0,0.0,0.0,0.0,0.0,0.0,0.0,0.0
9.592,273,9,592000000,base_footprint,-6.9917412250803464e-06,0.0038716663045539274,-0.0006571572847682909,0.9999922891179936,0.0,0.0,0.0,0.0,0.0,0.0,0.0,0.0,0.0,0.00014337309422713865,-0.00044842558187132984,0.00040857282915273595,0.0,0.0,0.0,0.0,0.0,0.0,0.0,0.0,0.0,0.0028729752787067637,-0.0008909225863852453,0.00034394639888397276,0.0,0.0,0.0,0.0,0.0,0.0,0.0,0.0,0.0
9.627,274,9,626000000,base_footprint,-6.260526625995208e-06,0.0038665650487234395,-0.0006538358579879033,0.9999923110375403,0.0,0.0,0.0,0.0,0.0,0.0,0.0,0.0,0.0,7.049712092118452e-05,-0.00040356891632200355,3.205547067892467e-06,0.0,0.0,0.0,0.0,0.0,0.0,0.0,0.0,0.0,0.005055807569635732,-0.00024559634912380723,-8.881648405753507e-05,0.0,0.0,0.0,0.0,0.0,0.0,0.0,0.0,0.0
9.663,275,9,660000000,base_footprint,-5.906885178374078e-06,0.0038636631037460407,-0.0006579192860103555,0.9999923195778769,0.0,0.0,0.0,0.0,0.0,0.0,0.0,0.0,0.0,5.1247772170422654e-05,-0.0002921982717480719,-0.00044368118769237257,0.0,0.0,0.0,0.0,0.0,0.0,0.0,0.0,0.0,0.005530877098882325,-3.8554446804009485e-05,-0.0002467101397494448,0.0,0.0,0.0,0.0,0.0,0.0,0.0,0.0,0.0
9.694,276,9,694000000,base_footprint,-5.790880915660748e-06,0.0038625855521009457,-0.0006697197042996458,0.9999923159078955,0.0,0.0,0.0,0.0,0.0,0.0,0.0,0.0,0.0,3.082111140637856e-05,-0.00021057898410069815,-0.0009009491611619607,0.0,0.0,0.0,0.0,0.0,0.0,0.0,0.0,0.0,0.0056151986807934425,-0.00020949574782099556,-0.00020470214240686692,0.0,0.0,0.0,0.0,0.0,0.0,0.0,0.0,0.0
9.728,277,9,728000000,base_footprint,-5.917424068429462e-06,0.0038630127397497717,-0.0006891544571733224,0.9999923010522086,0.0,0.0,0.0,0.0,0.0,0.0,0.0,0.0,0.0,9.224884754945294e-06,-0.0001352484401176652,-0.001339572759354112,0.0,0.0,0.0,0.0,0.0,0.0,0.0,0.0,0.0,0.0055861262040615865,-0.00035659908047150563,-0.00020303017759271512,0.0,0.0,0.0,0.0,0.0,0.0,0.0,0.0,0.0
9.766,278,9,762000000,base_footprint,-6.308099237088457e-06,0.003864934044360044,-0.0007156782171314921,0.9999922749950273,0.0,0.0,0.0,0.0,0.0,0.0,0.0,0.0,0.0,-1.4603806795416769e-05,-4.847773716823641e-05,-0.001731570067843985,0.0,0.0,0.0,0.0,0.0,0.0,0.0,0.0,0.0,0.005482681535205188,-0.0004931883859326954,-0.00023563727265824198,0.0,0.0,0.0,0.0,0.0,0.0,0.0,0.0,0.0
9.796,279,9,796000000,base_footprint,-6.025337419363299e-06,0.0038683380738004933,-0.0009869883779455367,0.9999920308573383,0.0,0.0,0.0,0.0,0.0,0.0,0.0,0.0,0.0,0.0007557002683493652,0.0009191721511386337,-0.05781653721474601,0.0,0.0,0.0,0.0,0.0,0.0,0.0,0.0,0.0,-0.3021522851568943,-0.0031761335346345465,0.000752412199338555,0.0,0.0,0.0,0.0,0.0,0.0,0.0,0.0,0.0
9.83,280,9,830000000,base_footprint,-4.669409787883347e-06,0.00387313226958088,-0.001462082131919291,0.9999914305335115,0.0,0.0,0.0,0.0,0.0,0.0,0.0,0.0,0.0,5.0052282398037376e-05,-0.000258765358293506,-0.0018697757963720436,0.0,0.0,0.0,0.0,0.0,0.0,0.0,0.0,0.0,-0.02980214625031894,-0.005149422192556221,0.0018523105558044697,0.0,0.0,0.0,0.0,0.0,0.0,0.0,0.0,0.0
9.864,281,9,864000000,base_footprint,-4.2254291257293e-06,0.0038764268481868216,-0.0014920488209154573,0.999991373506468,0.0,0.0,0.0,0.0,0.0,0.0,0.0,0.0,0.0,-7.418070428252253e-06,3.2522073362985444e-05,-0.0016595475925265137,0.0,0.0,0.0,0.0,0.0,0.0,0.0,0.0,0.0,0.00030779853706095384,-0.0013812375602402901,-0.00046449336353395035,0.0,0.0,0.0,0.0,0.0,0.0,0.0,0.0,0.0
9.898,282,9,898000000,base_footprint,-5.0762274490615705e-06,0.0038787472562384134,-0.0013528599932233854,0.9999915624963008,0.0,0.0,0.0,0.0,0.0,0.0,0.0,0.0,0.0,0.0003751117571590638,-0.0002144075154181476,0.013461833490701285,0.0,0.0,0.0,0.0,0.0,0.0,0.0,0.0,0.0,-0.0093031695095061,0.0006896397460175661,0.0005652538708493323,0.0,0.0,0.0,0.0,0.0,0.0,0.0,0.0,0.0
9.934,283,9,932000000,base_footprint,-6.5223152189507565e-06,0.0038767283051860035,-0.0011317403841858782,0.9999918450161531,0.0,0.0,0.0,0.0,0.0,0.0,0.0,0.0,0.0,0.00016920877270181934,-0.0004167205968533218,0.012350338804041822,0.0,0.0,0.0,0.0,0.0,0.0,0.0,0.0,0.0,-0.007266575844489362,0.0007343443581457821,0.0004482232905023035,0.0,0.0,0.0,0.0,0.0,0.0,0.0,0.0,0.0
9.969,284,9,966000000,base_footprint,-7.0847361214901265e-06,0.0038706837836590294,-0.0010632776442182923,0.9999919435662994,0.0,0.0,0.0,0.0,0.0,0.0,0.0,0.0,0.0,0.00023148610758861286,8.081320230561085e-05,-0.004821161776906999,0.0,0.0,0.0,0.0,0.0,0.0,0.0,0.0,0.0,-0.05191492651474619,0.008403976098577121,-0.00044353268959797725,0.0,0.0,0.0,0.0,0.0,0.0,0.0,0.0,0.0
10.0,285,10,0,base_footprint,-2.175738717728014e-06,0.0038513237965966886,-0.0011496604495799395,0.9999919227579445,0.0,0.0,0.0,0.0,0.0,0.0,0.0,0.0,0.0,-0.000720812900639607,-0.0005060011835933772,-0.004723816374915617,0.0,0.0,0.0,0.0,0.0,0.0,0.0,0.0,0.0,0.07263822792969239,-3.429383815091362e-05,0.0006313637921242827,0.0,0.0,0.0,0.0,0.0,0.0,0.0,0.0,0.0
10.034,286,10,34000000,base_footprint,-9.062863841702038e-06,0.003861057050089917,-0.0012652313721716751,0.9999917456388805,0.0,0.0,0.0,0.0,0.0,0.0,0.0,0.0,0.0,-0.00026870659557040144,0.0036415274044123746,-0.008905742960388721,0.0,0.0,0.0,0.0,0.0,0.0,0.0,0.0,0.0,0.2613899747502639,-0.008755258408901172,-0.008773066331504317,0.0,0.0,0.0,0.0,0.0,0.0,0.0,0.0,0.0
10.068,287,10,68000000,base_footprint,-4.467334305459739e-06,0.003872022068051516,-0.0012091868523135957,0.999991772612307,0.0,0.0,0.0,0.0,0.0,0.0,0.0,0.0,0.0,9.721943157398126e-06,-0.00015338796595450359,0.00531510089210868,0.0,0.0,0.0,0.0,0.0,0.0,0.0,0.0,0.0,0.03743840075911987,0.0027914598876287024,0.005668555924569724,0.0,0.0,0.0,0.0,0.0,0.0,0.0,0.0,0.0
10.102,288,10,102000000,base_footprint,-4.277096838630261e-06,0.003866983112264117,-0.001128732939808502,0.9999918861597161,0.0,0.0,0.0,0.0,0.0,0.0,0.0,0.0,0.0,0.00010613223096037934,-0.00041555273640999903,0.004412243737486868,0.0,0.0,0.0,0.0,0.0,0.0,0.0,0.0,0.0,0.004439478522320868,0.0006278801569600498,0.0007027034787894026,0.0,0.0,0.0,0.0,0.0,0.0,0.0,0.0,0.0
10.136,289,10,136000000,base_footprint,-4.1729066668149725e-06,0.0038637017517074925,-0.0010574686531479973,0.9999919767435179,0.0,0.0,0.0,0.0,0.0,0.0,0.0,0.0,0.0,8.868329113165515e-05,-0.0003092546488211413,0.004007313602557567,0.0,0.0,0.0,0.0,0.0,0.0,0.0,0.0,0.0,0.005543926489467063,0.0009214900515960585,-0.00024118460546286208,0.0,0.0,0.0,0.0,0.0,0.0,0.0,0.0,0.0
10.169,290,10,170000000,base_footprint,-4.282892045489327e-06,0.003862329042013642,-0.0009933362591940812,0.9999920478079335,0.0,0.0,0.0,0.0,0.0,0.0,0.0,0.0,0.0,6.985134878363252e-05,-0.00022438069247634646,0.0035766917151329788,0.0,0.0,0.0,0.0,0.0,0.0,0.0,0.0,0.0,0.005663696607283239,0.0007699049531326077,-0.0002093284802509926,0.0,0.0,0.0,0.0,0.0,0.0,0.0,0.0,0.0
10.204,291,10,204000000,base_footprint,-5.052197986282156e-06,0.0038624141480326658,-0.0008208956945571694,0.999992203900452,0.0,0.0,0.0,0.0,0.0,0.0,0.0,0.0,0.0,0.00011505978192768476,-0.0001465826417701803,0.011652572707339473,0.0,0.0,0.0,0.0,0.0,0.0,0.0,0.0,0.0,0.003424351062954118,0.002089362482967885,-0.00019182860908076508,0.0,0.0,0.0,0.0,0.0,0.0,0.0,0.0,0.0
10.238,292,10,238000000,base_footprint,-6.176255720753787e-06,0.0038641104703481203,-0.0006268018922533098,0.9999923378364031,0.0,0.0,0.0,0.0,0.0,0.0,0.0,0.0,0.0,9.276007779856818e-05,-6.188937648203457e-05,0.011226237543485172,0.0,0.0,0.0,0.0,0.0,0.0,0.0,0.0,0.0,0.0055808098786706015,0.0023311666304196748,-0.00022729103572255712,0.0,0.0,0.0,0.0,0.0,0.0,0.0,0.0,0.0
10.272,293,10,272000000,base_footprint,-7.607433356845528e-06,0.003867536356246222,-0.0004397232290490394,0.9999924243453758,0.0,0.0,0.0,0.0,0.0,0.0,0.0,0.0,0.0,6.428945731047027e-05,5.031503374797701e-05,0.01083185388568612,0.0,0.0,0.0,0.0,0.0,0.0,0.0,0.0,0.0,0.005288742357519859,0.0022517139584713893,-0.00029472457868324976,0.0,0.0,0.0,0.0,0.0,0.0,0.0,0.0,0.0
10.306,294,10,306000000,base_footprint,-8.898008719369292e-06,0.003872773358264313,-0.0002707694224222795,0.9999924640872354,0.0,0.0,0.0,0.0,0.0,0.0,0.0,0.0,0.0,3.7749085205178105e-05,0.0001139907398894388,0.00969777542806296,0.0,0.0,0.0,0.0,0.0,0.0,0.0,0.0,0.0,0.00469273806678694,0.001505011729199836,-0.00030163982334314445,0.0,0.0,0.0,0.0,0.0,0.0,0.0,0.0,0.0
10.34,295,10,340000000,base_footprint,-9.459232345383824e-06,0.0038763218567965272,-0.00010339512258491659,0.9999924816461543,0.0,0.0,0.0,0.0,0.0,0.0,0.0,0.0,0.0,8.856428338691716e-05,3.9210319290365e-05,0.009969193140420328,0.0,0.0,0.0,0.0,0.0,0.0,0.0,0.0,0.0,0.0012943381002911126,0.001047137811522952,3.854342701019162e-05,0.0,0.0,0.0,0.0,0.0,0.0,0.0,0.0,0.0
10.374,296,10,374000000,base_footprint,-1.0304930487608523e-05,0.003878614215393663,6.686808732594344e-05,0.9999924758588115,0.0,0.0,0.0,0.0,0.0,0.0,0.0,0.0,0.0,5.810018874379589e-05,-1.1776874030447764e-05,0.010019514472643595,0.0,0.0,0.0,0.0,0.0,0.0,0.0,0.0,0.0,-0.006476413339496877,0.0021267839041977992,0.00012794988771454378,0.0,0.0,0.0,0.0,0.0,0.0,0.0,0.0,0.0
10.408,297,10,408000000,base_footprint,-1.923491077297658e-05,0.0038702717191545343,5.5156735006219535e-05,0.9999925087642272,0.0,0.0,0.0,0.0,0.0,0.0,0.0,0.0,0.0,0.001024272539055335,0.0003773885455600175,-0.005010215406757723,0.0,0.0,0.0,0.0,0.0,0.0,0.0,0.0,0.0,-0.19455537810050716,-0.008992085580003533,0.0017356792768771715,0.0,0.0,0.0,0.0,0.0,0.0,0.0,0.0,0.0
10.442,298,10,442000000,base_footprint,-3.4860275479192262e-06,0.0038774847523053942,-1.828465748509868e-05,0.9999924823544998,0.0,0.0,0.0,0.0,0.0,0.0,0.0,0.0,0.0,0.00010234720145399104,-0.001757670287541116,-0.000531902083978435,0.0,0.0,0.0,0.0,0.0,0.0,0.0,0.0,0.0,-0.07848077722841953,0.008651356485859072,0.004165378170150843,0.0,0.0,0.0,0.0,0.0,0.0,0.0,0.0,0.0
10.476,299,10,476000000,base_footprint,-7.267753072663912e-06,0.003874575035022272,2.560906891356062e-05,0.9999924934516526,0.0,0.0,0.0,0.0,0.0,0.0,0.0,0.0,0.0,7.865479715088314e-05,0.0012609842001472145,-0.002762470953349131,0.0,0.0,0.0,0.0,0.0,0.0,0.0,0.0,0.0,-0.11749828453643708,-0.004341052067842352,-0.005110026392625579,0.0,0.0,0.0,0.0,0.0,0.0,0.0,0.0,0.0
10.51,300,10,510000000,base_footprint,-1.2054419222174248e-05,0.003875003507745011,0.0010314542353590964,0.9999919601200133,0.0,0.0,0.0,0.0,0.0,0.0,0.0,0.0,0.0,0.0014879804277308454,0.0009452733180728563,0.08486816276501741,0.0,0.0,0.0,0.0,0.0,0.0,0.0,0.0,0.0,0.0021027084479341104,0.015143860512640148,0.0012188096016598382,0.0,0.0,0.0,0.0,0.0,0.0,0.0,0.0,0.0
10.543,301,10,544000000,base_footprint,-1.778920480343447e-05,0.003871374666455362,0.0024718618726012657,0.9999894509646684,0.0,0.0,0.0,0.0,0.0,0.0,0.0,0.0,0.0,0.0006356988401477287,-0.0002197483792235372,0.08461668723010489,0.0,0.0,0.0,0.0,0.0,0.0,0.0,0.0,0.0,-0.003920131593289221,0.020964097496379595,0.0014983320171164229,0.0,0.0,0.0,0.0,0.0,0.0,0.0,0.0,0.0
10.578,302,10,578000000,base_footprint,-2.3114727313610362e-05,0.0038673639727632467,0.0039081391120482515,0.9999848845909085,0.0,0.0,0.0,0.0,0.0,0.0,0.0,0.0,0.0,0.0010398681215404606,-0.00042687265116058505,0.0803408384136363,0.0,0.0,0.0,0.0,0.0,0.0,0.0,0.0,0.0,0.004379800123744532,0.016601438327075006,0.000774800285972513,0.0,0.0,0.0,0.0,0.0,0.0,0.0,0.0,0.0
10.611,303,10,612000000,base_footprint,-2.820073408205415e-05,0.003863811423591045,0.005220659745374519,0.9999789072164595,0.0,0.0,0.0,0.0,0.0,0.0,0.0,0.0,0.0,0.0006678987926231144,-0.000320407275864213,0.07710122349409157,0.0,0.0,0.0,0.0,0.0,0.0,0.0,0.0,0.0,0.006445451589408361,0.01646092012789575,-0.00038896105024828405,0.0,0.0,0.0,0.0,0.0,0.0,0.0,0.0,0.0
10.646,304,10,646000000,base_footprint,-3.2926867514012255e-05,0.0038620501927762053,0.006527719612824266,0.9999712357667025,0.0,0.0,0.0,0.0,0.0,0.0,0.0,0.0,0.0,0.0006519059659141721,-0.000233659853218247,0.07672059571852957,0.0,0.0,0.0,0.0,0.0,0.0,0.0,0.0,0.0,0.004973024847803631,0.01607089513834038,-0.00019865439011393965,0.0,0.0,0.0,0.0,0.0,0.0,0.0,0.0,0.0
10.68,305,10,680000000,base_footprint,-3.75572703917533e-05,0.0038544552120010254,0.007820821709543874,0.9999619875336551,0.0,0.0,0.0,0.0,0.0,0.0,0.0,0.0,0.0,0.0007084596905274221,-0.0024582590745636595,0.0713071079776445,0.0,0.0,0.0,0.0,0.0,0.0,0.0,0.0,0.0,0.0960443356692524,0.01957871644668439,0.0020482837652012814,0.0,0.0,0.0,0.0,0.0,0.0,0.0,0.0,0.0
10.714,306,10,714000000,base_footprint,-4.643338668675116e-05,0.00386220900026738,0.010075028253293018,0.9999417858011906,0.0,0.0,0.0,0.0,0.0,0.0,0.0,0.0,0.0,0.0012571807000842036,-2.4501500250236073e-05,0.15791455132170787,0.0,0.0,0.0,0.0,0.0,0.0,0.0,0.0,0.0,0.23265009356750346,0.03538582375965272,-0.00495604832712927,0.0,0.0,0.0,0.0,0.0,0.0,0.0,0.0,0.0
10.748,307,10,748000000,base_footprint,-5.6981617593547485e-05,0.0038649137951521514,0.012755409999177457,0.9999111754101981,0.0,0.0,0.0,0.0,0.0,0.0,0.0,0.0,0.0,0.001242972656270928,3.9946453149647675e-05,0.15752493778092233,0.0,0.0,0.0,0.0,0.0,0.0,0.0,0.0,0.0,0.0033980361915464073,0.03471292195829947,-0.0002047937572884669,0.0,0.0,0.0,0.0,0.0,0.0,0.0,0.0,0.0
10.782,308,10,782000000,base_footprint,-6.673770793497051e-05,0.003869329924742444,0.015408569201094409,0.9998737919493575,0.0,0.0,0.0,0.0,0.0,0.0,0.0,0.0,0.0,0.0017196367750714641,0.0002004998064094153,0.1476806594997368,0.0,0.0,0.0,0.0,0.0,0.0,0.0,0.0,0.0,0.004696217145725063,0.03445377316080719,-0.00022069693496125047,0.0,0.0,0.0,0.0,0.0,0.0,0.0,0.0,0.0
10.816,309,10,816000000,base_footprint,-7.722733071340757e-05,0.003873712535124008,0.017923435646433998,0.9998318552845588,0.0,0.0,0.0,0.0,0.0,0.0,0.0,0.0,0.0,0.001153845188168537,0.0001248792054713666,0.1475725509463628,0.0,0.0,0.0,0.0,0.0,0.0,0.0,0.0,0.0,0.0012336043357460101,0.03167451736221389,-0.00022092863041032242,0.0,0.0,0.0,0.0,0.0,0.0,0.0,0.0,0.0
10.85,310,10,850000000,base_footprint,-8.774817501576222e-05,0.0038771039968571105,0.020417587854641744,0.9997840179113955,0.0,0.0,0.0,0.0,0.0,0.0,0.0,0.0,0.0,0.001051655249547874,9.94454621345999e-05,0.146023252776241,0.0,0.0,0.0,0.0,0.0,0.0,0.0,0.0,0.0,-0.005624182632453002,0.03162663590591343,2.030078883426589e-05,0.0,0.0,0.0,0.0,0.0,0.0,0.0,0.0,0.0
10.884,311,10,884000000,base_footprint,-9.561982256497624e-05,0.003861093411504626,0.02290776552853371,0.999730122129471,0.0,0.0,0.0,0.0,0.0,0.0,0.0,0.0,0.0,0.002245023340077216,-0.0015530580822943891,0.15222418019232536,0.0,0.0,0.0,0.0,0.0,0.0,0.0,0.0,0.0,-0.058886825038786644,0.02955758344906097,0.004715482323821065,0.0,0.0,0.0,0.0,0.0,0.0,0.0,0.0,0.0
10.919,312,10,918000000,base_footprint,-0.00011222314988002763,0.003869733377385284,0.0255600738003667,0.9996657917508593,0.0,0.0,0.0,0.0,0.0,0.0,0.0,0.0,0.0,0.0008340181942559847,0.0006136455587700924,0.15633352339395706,0.0,0.0,0.0,0.0,0.0,0.0,0.0,0.0,0.0,-0.1433726397369584,0.0035804680381208054,-0.003302026421451342,0.0,0.0,0.0,0.0,0.0,0.0,0.0,0.0,0.0
10.952,313,10,952000000,base_footprint,-0.00012233127520984262,0.0038685346782797447,0.02784770091653464,0.9996046843768618,0.0,0.0,0.0,0.0,0.0,0.0,0.0,0.0,0.0,0.0011357509272998212,-0.0005969408518332798,0.10777347667958918,0.0,0.0,0.0,0.0,0.0,0.0,0.0,0.0,0.0,-0.1695942373378351,0.03167982319879126,0.002522078667090463,0.0,0.0,0.0,0.0,0.0,0.0,0.0,0.0,0.0
10.989,314,10,986000000,base_footprint,-0.00012017404598459952,0.0038554827134414547,0.029825191393804077,0.9995476870913004,0.0,0.0,0.0,0.0,0.0,0.0,0.0,0.0,0.0,0.0009985868351480428,-0.005815604723962657,0.07558712126655742,0.0,0.0,0.0,0.0,0.0,0.0,0.0,0.0,0.0,-0.042341296579785276,0.018542825413725136,0.007197268479746175,0.0,0.0,0.0,0.0,0.0,0.0,0.0,0.0,0.0
11.018,315,11,20000000,base_footprint,-0.00012844717321916401,0.0038541853361199973,0.03087960092468828,0.9995156722150237,0.0,0.0,0.0,0.0,0.0,0.0,0.0,0.0,0.0,-0.0005057982875290784,0.0013139589710348207,0.069326973388055,0.0,0.0,0.0,0.0,0.0,0.0,0.0,0.0,0.0,0.22522419094757987,0.03485909676021763,-0.010987841246585694,0.0,0.0,0.0,0.0,0.0,0.0,0.0,0.0,0.0
11.053,316,11,54000000,base_footprint,-0.00013693000292369,0.0038638866269630314,0.032706984376127596,0.999457505251388,0.0,0.0,0.0,0.0,0.0,0.0,0.0,0.0,0.0,0.0009669875290689548,4.302917127879148e-05,0.1171562903516413,0.0,0.0,0.0,0.0,0.0,0.0,0.0,0.0,0.0,0.14543552108206817,0.042286489350813285,0.0006650802539338609,0.0,0.0,0.0,0.0,0.0,0.0,0.0,0.0,0.0
11.088,317,11,88000000,base_footprint,-0.00014565960244083387,0.0038612787198679657,0.03474264706784734,0.9993888221231247,0.0,0.0,0.0,0.0,0.0,0.0,0.0,0.0,0.0,0.001797513286313456,-0.0025948348725807822,0.1486180985489614,0.0,0.0,0.0,0.0,0.0,0.0,0.0,0.0,0.0,-0.25822365922877155,-0.009488811063445922,0.006080137034136197,0.0,0.0,0.0,0.0,0.0,0.0,0.0,0.0,0.0
11.124,318,11,122000000,base_footprint,-0.0001550767972134754,0.003857922746968114,0.03784962873835428,0.9992759868963299,0.0,0.0,0.0,0.0,0.0,0.0,0.0,0.0,0.0,0.0015551372349456624,-9.53082331349111e-05,0.18482536976717676,0.0,0.0,0.0,0.0,0.0,0.0,0.0,0.0,0.0,-0.09423934550571982,0.023441929328197844,-0.0029874459625469888,0.0,0.0,0.0,0.0,0.0,0.0,0.0,0.0,0.0
11.156,319,11,156000000,base_footprint,-0.00016611497603846034,0.003856618375147296,0.04098736276814076,0.9991522081213834,0.0,0.0,0.0,0.0,0.0,0.0,0.0,0.0,0.0,0.0015524861672830037,-5.4499290578707785e-05,0.18461497460825754,0.0,0.0,0.0,0.0,0.0,0.0,0.0,0.0,0.0,-0.000713850415316681,0.03838841105451613,-0.00011293321946679243,0.0,0.0,0.0,0.0,0.0,0.0,0.0,0.0,0.0
11.19,320,11,190000000,base_footprint,-0.00017557768577470184,0.0038573603751118494,0.043684212714616276,0.9990379269591905,0.0,0.0,0.0,0.0,0.0,0.0,0.0,0.0,0.0,0.0008594002742493839,-0.00011229986912260917,0.10894878940622722,0.0,0.0,0.0,0.0,0.0,0.0,0.0,0.0,0.0,0.02514755647841058,0.04169752613093776,-0.0004742397599370643,0.0,0.0,0.0,0.0,0.0,0.0,0.0,0.0,0.0
11.225,321,11,224000000,base_footprint,-0.00018097482857832987,0.003865069398937396,0.04568441533820459,0.9989484284395563,0.0,0.0,0.0,0.0,0.0,0.0,0.0,0.0,0.0,0.0015558101942386062,0.001008286048685415,0.16110671126363832,0.0,0.0,0.0,0.0,0.0,0.0,0.0,0.0,0.0,-0.3141347869686131,-0.0374570086278927,0.0011102465292551307,0.0,0.0,0.0,0.0,0.0,0.0,0.0,0.0,0.0
11.258,322,11,258000000,base_footprint,-0.00019323605164824574,0.0038616415978188243,0.04865928592163924,0.9988079516491619,0.0,0.0,0.0,0.0,0.0,0.0,0.0,0.0,0.0,0.0014993384121858675,0.00019758160338817344,0.1755303724836548,0.0,0.0,0.0,0.0,0.0,0.0,0.0,0.0,0.0,-0.044743533872010605,0.02636490387824498,0.0013456777777325108,0.0,0.0,0.0,0.0,0.0,0.0,0.0,0.0,0.0
11.292,323,11,292000000,base_footprint,-0.00020557777252572742,0.003855467764830704,0.05153990209582602,0.9986634726463398,0.0,0.0,0.0,0.0,0.0,0.0,0.0,0.0,0.0,0.001063911227200808,0.00041063227818698904,0.15134342400079343,0.0,0.0,0.0,0.0,0.0,0.0,0.0,0.0,0.0,0.25576433975987967,0.08815179707281623,-0.001989924182080169,0.0,0.0,0.0,0.0,0.0,0.0,0.0,0.0,0.0
11.325,324,11,326000000,base_footprint,-0.00021565043021456865,0.003862043970172906,0.053649218626909814,0.9985523518834585,0.0,0.0,0.0,0.0,0.0,0.0,0.0,0.0,0.0,0.00028664071916283915,0.0005270672995130087,0.1258146152128912,0.0,0.0,0.0,0.0,0.0,0.0,0.0,0.0,0.0,0.363451115207237,0.1049215481470988,-0.00407889192225556,0.0,0.0,0.0,0.0,0.0,0.0,0.0,0.0,0.0
11.36,325,11,360000000,base_footprint,-0.00022615632162908833,0.0038653535368074142,0.05611164245844148,0.9984169927820589,0.0,0.0,0.0,0.0,0.0,0.0,0.0,0.0,0.0,0.0012231082087055133,0.00018689867094573635,0.1517130234299794,0.0,0.0,0.0,0.0,0.0,0.0,0.0,0.0,0.0,0.04507489103804746,0.04150744579490218,0.0005399640354815635,0.0,0.0,0.0,0.0,0.0,0.0,0.0,0.0,0.0
