Time,yaw_world,delta_position_x_world,delta_position_y_world,delta_yaw,Theta_calculated,linear_velocity_x,world_velocity_x,world_velocity_y,angular_velocity_yaw,linear_acceleration_x,angular_acceleration_yaw,kinematic_delta_x,kinematic_delta_y,kinematic_delta_yaw,header.seq_x,header.stamp.secs_x,header.stamp.nsecs_x,header.frame_id_x,child_frame_id,pose.pose.position.x,pose.pose.position.y,pose.pose.position.z,pose.pose.orientation.x,pose.pose.orientation.y,pose.pose.orientation.z,pose.pose.orientation.w,pose.covariance,twist.twist.linear.x,twist.twist.linear.y,twist.twist.linear.z,twist.twist.angular.x,twist.twist.angular.y,twist.twist.angular.z,twist.covariance,linear.x,linear.y,linear.z,angular.x,angular.y,angular.z,header.seq_y,header.stamp.secs_y,header.stamp.nsecs_y,header.frame_id_y,orientation.x,orientation.y,orientation.z,orientation.w,orientation_covariance_0,orientation_covariance_1,orientation_covariance_2,orientation_covariance_3,orientation_covariance_4,orientation_covariance_5,orientation_covariance_6,orientation_covariance_7,orientation_covariance_8,angular_velocity.x,angular_velocity.y,angular_velocity.z,angular_velocity_covariance_0,angular_velocity_covariance_1,angular_velocity_covariance_2,angular_velocity_covariance_3,angular_velocity_covariance_4,angular_velocity_covariance_5,angular_velocity_covariance_6,angular_velocity_covariance_7,angular_velocity_covariance_8,linear_acceleration.x,linear_acceleration.y,linear_acceleration.z,linear_acceleration_covariance_0,linear_acceleration_covariance_1,linear_acceleration_covariance_2,linear_acceleration_covariance_3,linear_acceleration_covariance_4,linear_acceleration_covariance_5,linear_acceleration_covariance_6,linear_acceleration_covariance_7,linear_acceleration_covariance_8
0.543,1.5699939448801958,1.7633936077354348e-08,-6.680357159290235e-07,-1.376162086508259e-07,1.5707875015233763,-2.288876314702698e-06,-2.0199954953377424e-11,-2.2888763146135628e-06,-9.290225051126176e-06,-0.0001677227850363876,0.0003324594977612744,-1.3966485366851803e-13,-7.621958128975376e-08,-3.093644942025017e-07,4.0,0.0,524000000.0,odom,base_footprint,1.2999720368172403e-06,-1.3360259515676765e-05,-0.0007569404168397,-0.0014446680996764,0.0013764124505668,0.706821711510042,0.7073889217119975,"(1e-05, 0.0, 0.0, 0.0, 0.0, 0.0, 0.0, 1e-05, 0.0, 0.0, 0.0, 0.0, 0.0, 0.0, 1000000000000.0, 0.0, 0.0, 0.0, 0.0, 0.0, 0.0, 1000000000000.0, 0.0, 0.0, 0.0, 0.0, 0.0, 0.0, 1000000000000.0, 0.0, 0.0, 0.0, 0.0, 0.0, 0.0, 0.001)",-1.4796073609597323e-05,-5.360414009849708e-07,0.0,0.0,0.0,-1.774726420285148e-06,"(0.0, 0.0, 0.0, 0.0, 0.0, 0.0, 0.0, 0.0, 0.0, 0.0, 0.0, 0.0, 0.0, 0.0, 0.0, 0.0, 0.0, 0.0, 0.0, 0.0, 0.0, 0.0, 0.0, 0.0, 0.0, 0.0, 0.0, 0.0, 0.0, 0.0, 0.0, 0.0, 0.0, 0.0, 0.0, 0.0)",,,,,,,3,0,543000000,base_footprint,-0.0018802655573885,0.0018045189485384,0.7068207398231865,0.7073879063629809,0.0,0.0,0.0,0.0,0.0,0.0,0.0,0.0,0.0,0.0004949682354678,-0.0676953225185267,0.0003558355106066,0.0,0.0,0.0,0.0,0.0,0.0,0.0,0.0,0.0,0.0002332783525113,-2.104456741187996e-05,0.0001516006849895,0.0,0.0,0.0,0.0,0.0,0.0,0.0,0.0,0.0
0.5770000000000001,1.5699935854971534,-2.445927633131873e-07,-8.565209899426291e-07,-3.593830424364342e-07,1.5707871921588823,-2.0213114909910114e-07,-1.8463944741517145e-12,-2.0213114909066803e-07,4.634297347860361e-06,6.2665019988096e-05,0.0004181538257953915,-1.2851697584011215e-14,-6.730967268493989e-09,1.5432210168375003e-07,5.0,0.0,557000000.0,odom,base_footprint,1.3088168062004328e-06,-1.4128132987856376e-05,-0.0009048962861818,-0.0022430657055066,0.0021610797893451,0.7068197474010648,0.7073868411797606,"(1e-05, 0.0, 0.0, 0.0, 0.0, 0.0, 0.0, 1e-05, 0.0, 0.0, 0.0, 0.0, 0.0, 0.0, 1000000000000.0, 0.0, 0.0, 0.0, 0.0, 0.0, 0.0, 1000000000000.0, 0.0, 0.0, 0.0, 0.0, 0.0, 0.0, 1000000000000.0, 0.0, 0.0, 0.0, 0.0, 0.0, 0.0, 0.001)",-2.2490216883079333e-05,-1.468730367267669e-07,0.0,0.0,0.0,5.41368685517711e-06,"(0.0, 0.0, 0.0, 0.0, 0.0, 0.0, 0.0, 0.0, 0.0, 0.0, 0.0, 0.0, 0.0, 0.0, 0.0, 0.0, 0.0, 0.0, 0.0, 0.0, 0.0, 0.0, 0.0, 0.0, 0.0, 0.0, 0.0, 0.0, 0.0, 0.0, 0.0, 0.0, 0.0, 0.0, 0.0, 0.0)",,,,,,,4,0,577000000,base_footprint,-0.0026989514610678,0.0026137925768502,0.7068180874958127,0.7073853793641327,0.0,0.0,0.0,0.0,0.0,0.0,0.0,0.0,0.0,-0.0062138595919782,-0.0646471871325557,7.317885237437266e-07,0.0,0.0,0.0,0.0,0.0,0.0,0.0,0.0,0.0,-0.0021923658385328,-0.0072808534709772,0.0158341890248604,0.0,0.0,0.0,0.0,0.0,0.0,0.0,0.0,0.0
0.611,1.569973699649518,-1.018124043905653e-05,5.021213063410685e-06,-1.9885847635459086e-05,1.5707873464809838,0.00014163296478719367,1.2719084841699238e-09,0.00014163296478148258,-9.684275588699328e-05,0.004259312190279062,-0.0030473589560016104,1.6248589838052404e-11,4.71637772752566e-06,-3.2248637710368762e-06,6.0,0.0,591000000.0,odom,base_footprint,-8.22773844744362e-06,-1.1340400062251864e-05,-0.0010028743633581,-0.0027869183797286,0.0027780484812019,0.7068144907677819,0.707388006099384,"(1e-05, 0.0, 0.0, 0.0, 0.0, 0.0, 0.0, 1e-05, 0.0, 0.0, 0.0, 0.0, 0.0, 0.0, 1000000000000.0, 0.0, 0.0, 0.0, 0.0, 0.0, 0.0, 1000000000000.0, 0.0, 0.0, 0.0, 0.0, 0.0, 0.0, 1000000000000.0, 0.0, 0.0, 0.0, 0.0, 0.0, 0.0, 0.001)",0.0002237304203499,0.0005238501446256,0.0,0.0,0.0,-0.0006807498949801,"(0.0, 0.0, 0.0, 0.0, 0.0, 0.0, 0.0, 0.0, 0.0, 0.0, 0.0, 0.0, 0.0, 0.0, 0.0, 0.0, 0.0, 0.0, 0.0, 0.0, 0.0, 0.0, 0.0, 0.0, 0.0, 0.0, 0.0, 0.0, 0.0, 0.0, 0.0, 0.0, 0.0, 0.0, 0.0, 0.0)",,,,,,,5,0,611000000,base_footprint,-0.0027363342711746,0.0027277422750011,0.706810623983536,0.7073922629777925,0.0,0.0,0.0,0.0,0.0,0.0,0.0,0.0,0.0,-0.0001782024927656,0.0063516474120808,-0.0001023142461773,0.0,0.0,0.0,0.0,0.0,0.0,0.0,0.0,0.0,-0.0026281783357298,0.0084564072452885,0.1231523857287813,0.0,0.0,0.0,0.0,0.0,0.0,0.0,0.0,0.0
0.645,1.569974162395482,-1.754605578906469e-08,1.3322601611319429e-08,4.627459639916509e-07,1.570784121617213,5.384272948454954e-05,6.571600803176905e-10,5.384272948053915e-05,-0.00036825022864740974,-0.0026363434024818055,-0.008150374557369862,2.006136066210963e-11,1.7929628917195443e-06,-1.2262732613958746e-05,7.0,0.0,624000000.0,odom,base_footprint,-8.984422790678571e-06,-9.54378405112425e-06,-0.0010024856511795,-0.0027344893560447,0.0027264311466617,0.7068099345230964,0.707392964059313,"(1e-05, 0.0, 0.0, 0.0, 0.0, 0.0, 0.0, 1e-05, 0.0, 0.0, 0.0, 0.0, 0.0, 0.0, 1000000000000.0, 0.0, 0.0, 0.0, 0.0, 0.0, 0.0, 1000000000000.0, 0.0, 0.0, 0.0, 0.0, 0.0, 0.0, 1000000000000.0, 0.0, 0.0, 0.0, 0.0, 0.0, 0.0, 0.001)",4.213759234937406e-07,4.948478416315417e-06,0.0,0.0,0.0,8.019942070259706e-05,"(0.0, 0.0, 0.0, 0.0, 0.0, 0.0, 0.0, 0.0, 0.0, 0.0, 0.0, 0.0, 0.0, 0.0, 0.0, 0.0, 0.0, 0.0, 0.0, 0.0, 0.0, 0.0, 0.0, 0.0, 0.0, 0.0, 0.0, 0.0, 0.0, 0.0, 0.0, 0.0, 0.0, 0.0, 0.0, 0.0)",,,,,,,6,0,645000000,base_footprint,-0.0027340400107031,0.0027259581696506,0.7068107945225891,0.7073921083272159,0.0,0.0,0.0,0.0,0.0,0.0,0.0,0.0,0.0,-2.852637693027401e-05,9.894894066299604e-05,0.0002068583910998,0.0,0.0,0.0,0.0,0.0,0.0,0.0,0.0,0.0,0.0043202703087525,-0.0005597223544984,-0.006970437006903,0.0,0.0,0.0,0.0,0.0,0.0,0.0,0.0,0.0
0.679,1.5699828439604735,-5.618502456076033e-07,-9.025286184637799e-08,8.681564991563917e-06,1.570771858884599,-2.9359481386261264e-06,-7.183651568744811e-11,-2.935948137747281e-06,8.250194175208333e-05,-0.0017050653940893592,0.013536101213197989,-1.5590549613017783e-12,-9.776707300697741e-08,2.747314660344375e-06,8.0,0.0,657000000.0,odom,base_footprint,-9.326068147153577e-06,-9.600240884489672e-06,-0.0010024075041166,-0.0027340205971692,0.0027258756727234,0.7068118314595369,0.7073910726338059,"(1e-05, 0.0, 0.0, 0.0, 0.0, 0.0, 0.0, 1e-05, 0.0, 0.0, 0.0, 0.0, 0.0, 0.0, 1000000000000.0, 0.0, 0.0, 0.0, 0.0, 0.0, 0.0, 1000000000000.0, 0.0, 0.0, 0.0, 0.0, 0.0, 0.0, 1000000000000.0, 0.0, 0.0, 0.0, 0.0, 0.0, 0.0, 0.001)",-2.5963118572656e-06,1.7254260524312214e-05,0.0,0.0,0.0,0.0002656787427122,"(0.0, 0.0, 0.0, 0.0, 0.0, 0.0, 0.0, 0.0, 0.0, 0.0, 0.0, 0.0, 0.0, 0.0, 0.0, 0.0, 0.0, 0.0, 0.0, 0.0, 0.0, 0.0, 0.0, 0.0, 0.0, 0.0, 0.0, 0.0, 0.0, 0.0, 0.0, 0.0, 0.0, 0.0, 0.0, 0.0)",,,,,,,7,0,679000000,base_footprint,-0.0027340056880027,0.0027257939918466,0.7068138657379802,0.7073890403876388,0.0,0.0,0.0,0.0,0.0,0.0,0.0,0.0,0.0,-3.079926761819868e-05,0.000188228683054,0.0003095499122029,0.0,0.0,0.0,0.0,0.0,0.0,0.0,0.0,0.0,2.671855069735138e-05,-0.0002017722410189,8.449637677058664e-05,0.0,0.0,0.0,0.0,0.0,0.0,0.0,0.0,0.0
0.7130000000000001,1.5699932786232347,-6.784810892480162e-07,-1.0746760201272607e-07,1.0434662761182878e-05,1.5707746061992591,-2.169330083423429e-06,-4.711914154258283e-11,-2.1693300829117007e-06,0.00022476078063603572,2.3021563219300224e-05,0.0042720372037222945,-7.823985218123107e-13,-7.223869177416378e-08,7.48453399517999e-06,9.0,0.0,691000000.0,odom,base_footprint,-9.951868130178137e-06,-9.699940158516308e-06,-0.0010023942715525,-0.002733999657137,0.0027257595123651,0.7068152426528987,0.7073876647457737,"(1e-05, 0.0, 0.0, 0.0, 0.0, 0.0, 0.0, 1e-05, 0.0, 0.0, 0.0, 0.0, 0.0, 0.0, 1000000000000.0, 0.0, 0.0, 0.0, 0.0, 0.0, 0.0, 1000000000000.0, 0.0, 0.0, 0.0, 0.0, 0.0, 0.0, 1000000000000.0, 0.0, 0.0, 0.0, 0.0, 0.0, 0.0, 0.001)",-3.1570103197676493e-06,2.1159827903108057e-05,0.0,0.0,0.0,0.0003242494012277,"(0.0, 0.0, 0.0, 0.0, 0.0, 0.0, 0.0, 0.0, 0.0, 0.0, 0.0, 0.0, 0.0, 0.0, 0.0, 0.0, 0.0, 0.0, 0.0, 0.0, 0.0, 0.0, 0.0, 0.0, 0.0, 0.0, 0.0, 0.0, 0.0, 0.0, 0.0, 0.0, 0.0, 0.0, 0.0, 0.0)",,,,,,,8,0,713000000,base_footprint,-0.0027340009807736,0.0027257249047211,0.7068175566225876,0.7073853527692358,0.0,0.0,0.0,0.0,0.0,0.0,0.0,0.0,0.0,-3.194225326682823e-05,0.0001824174047272,0.0003338568814969,0.0,0.0,0.0,0.0,0.0,0.0,0.0,0.0,0.0,6.994242555571952e-06,-4.778733115228159e-05,-9.143903491289196e-06,0.0,0.0,0.0,0.0,0.0,0.0,0.0,0.0,0.0
0.747,1.5700041587875988,-7.081733573084471e-07,-1.1186087103560141e-07,1.0880164364124312e-05,1.5707820907332544,-1.0021935475675725e-06,-1.426728912015865e-11,-1.0021935474660175e-06,0.0002539116072129507,3.504914522089658e-05,0.0008754001975049546,-9.547521924707263e-14,-3.337304513406627e-08,8.45525652019126e-06,10.0,0.0,724000000.0,odom,base_footprint,-1.06256771685352e-05,-9.806507234825549e-06,-0.0010023906160693,-0.0027340047993781,0.0027257116169083,0.7068189060032336,0.7073840045055658,"(1e-05, 0.0, 0.0, 0.0, 0.0, 0.0, 0.0, 1e-05, 0.0, 0.0, 0.0, 0.0, 0.0, 0.0, 1000000000000.0, 0.0, 0.0, 0.0, 0.0, 0.0, 0.0, 1000000000000.0, 0.0, 0.0, 0.0, 0.0, 0.0, 0.0, 1000000000000.0, 0.0, 0.0, 0.0, 0.0, 0.0, 0.0, 0.001)",-3.297269559712535e-06,2.211313993788579e-05,0.0,0.0,0.0,0.000338505952349,"(0.0, 0.0, 0.0, 0.0, 0.0, 0.0, 0.0, 0.0, 0.0, 0.0, 0.0, 0.0, 0.0, 0.0, 0.0, 0.0, 0.0, 0.0, 0.0, 0.0, 0.0, 0.0, 0.0, 0.0, 0.0, 0.0, 0.0, 0.0, 0.0, 0.0, 0.0, 0.0, 0.0, 0.0, 0.0, 0.0)",,,,,,,9,0,747000000,base_footprint,-0.0027340143053116,0.0027256930917543,0.7068214049118501,0.7073815076190405,0.0,0.0,0.0,0.0,0.0,0.0,0.0,0.0,0.0,-3.2321210143351563e-05,0.0001814236900356,0.0003402495584993,0.0,0.0,0.0,0.0,0.0,0.0,0.0,0.0,0.0,1.8316075190648787e-06,-1.257070110092226e-05,-1.7906889090050635e-06,0.0,0.0,0.0,0.0,0.0,0.0,0.0,0.0,0.0
0.781,1.5700151568378145,-7.16026691062876e-07,-1.1302984707136674e-07,1.0998050215649258e-05,1.5707905459897746,-2.895423159774411e-07,-1.6737877032246398e-12,-2.8954231597260316e-07,0.0002632837080159345,2.140093788558953e-05,0.0002814444685580721,5.544473472001019e-14,-9.641759121826162e-09,8.76734747693062e-06,10.0,0.0,724000000.0,odom,base_footprint,-1.06256771685352e-05,-9.806507234825549e-06,-0.0010023906160693,-0.0027340047993781,0.0027257116169083,0.7068189060032336,0.7073840045055658,"(1e-05, 0.0, 0.0, 0.0, 0.0, 0.0, 0.0, 1e-05, 0.0, 0.0, 0.0, 0.0, 0.0, 0.0, 1000000000000.0, 0.0, 0.0, 0.0, 0.0, 0.0, 0.0, 1000000000000.0, 0.0, 0.0, 0.0, 0.0, 0.0, 0.0, 1000000000000.0, 0.0, 0.0, 0.0, 0.0, 0.0, 0.0, 0.001)",-3.297269559712535e-06,2.211313993788579e-05,0.0,0.0,0.0,0.000338505952349,"(0.0, 0.0, 0.0, 0.0, 0.0, 0.0, 0.0, 0.0, 0.0, 0.0, 0.0, 0.0, 0.0, 0.0, 0.0, 0.0, 0.0, 0.0, 0.0, 0.0, 0.0, 0.0, 0.0, 0.0, 0.0, 0.0, 0.0, 0.0, 0.0, 0.0, 0.0, 0.0, 0.0, 0.0, 0.0, 0.0)",,,,,,,10,0,781000000,base_footprint,-0.0027340316381914,0.0027256711438125,0.7068252948364805,0.7073776207706459,0.0,0.0,0.0,0.0,0.0,0.0,0.0,0.0,0.0,-3.2448809186056904e-05,0.0001811521611009,0.0003419519035037,0.0,0.0,0.0,0.0,0.0,0.0,0.0,0.0,0.0,4.952281471786546e-07,-3.3433701105273198e-06,-4.775736515532444e-07,0.0,0.0,0.0,0.0,0.0,0.0,0.0,0.0,0.0
0.8150000000000001,1.5700261864140075,-7.181230108850988e-07,-1.1334991771496353e-07,1.1029576193033463e-05,1.5707993133372515,3.3996870877473717e-07,-1.01533094810022e-12,3.399687087732209e-07,0.00027283452252635125,1.8904234977542887e-05,0.0002868112465590609,-1.6615557538591294e-13,1.1320958001037335e-08,9.085389600127498e-06,11.0,0.0,757000000.0,odom,base_footprint,-1.13167996832873e-05,-9.915638720326726e-06,-0.0010023897254761,-0.0027340197113605,0.0027256854310647,0.7068226611351307,0.7073802523968288,"(1e-05, 0.0, 0.0, 0.0, 0.0, 0.0, 0.0, 1e-05, 0.0, 0.0, 0.0, 0.0, 0.0, 0.0, 1000000000000.0, 0.0, 0.0, 0.0, 0.0, 0.0, 0.0, 1000000000000.0, 0.0, 0.0, 0.0, 0.0, 0.0, 0.0, 1000000000000.0, 0.0, 0.0, 0.0, 0.0, 0.0, 0.0, 0.001)",-3.3360213591445707e-06,2.2376513211354125e-05,0.0,0.0,0.0,0.0003424462164843,"(0.0, 0.0, 0.0, 0.0, 0.0, 0.0, 0.0, 0.0, 0.0, 0.0, 0.0, 0.0, 0.0, 0.0, 0.0, 0.0, 0.0, 0.0, 0.0, 0.0, 0.0, 0.0, 0.0, 0.0, 0.0, 0.0, 0.0, 0.0, 0.0, 0.0, 0.0, 0.0, 0.0, 0.0, 0.0, 0.0)",,,,,,,11,0,815000000,base_footprint,-0.0027340497936838,0.00272565206146,0.7068291958788552,0.7073737227560949,0.0,0.0,0.0,0.0,0.0,0.0,0.0,0.0,0.0,-3.2507439864788425e-05,0.0001810798866352,0.0003424146881673,0.0,0.0,0.0,0.0,0.0,0.0,0.0,0.0,0.0,1.4175595316043196e-07,-9.047953048322076e-07,-1.2201266564498922e-07,0.0,0.0,0.0,0.0,0.0,0.0,0.0,0.0,0.0
0.8490000000000001,1.5700372246811196,-7.186970606762418e-07,-1.1344548244730801e-07,1.1038267112128963e-05,1.5708083987268517,9.508111062702581e-07,-1.1478126976788945e-11,9.508111062009764e-07,0.0002630315770165541,1.8343615540406034e-05,-0.00029438274804195606,-7.471923420430175e-13,3.1662009830251413e-08,8.758951514651252e-06,13.0,0.0,824000000.0,odom,base_footprint,-1.273107399973767e-05,-1.0138875202826692e-05,-0.0010023896302344,-0.0027340551469503,0.0027256466717176,0.7068303439732394,0.7073725755437136,"(1e-05, 0.0, 0.0, 0.0, 0.0, 0.0, 0.0, 1e-05, 0.0, 0.0, 0.0, 0.0, 0.0, 0.0, 1000000000000.0, 0.0, 0.0, 0.0, 0.0, 0.0, 0.0, 1000000000000.0, 0.0, 0.0, 0.0, 0.0, 0.0, 0.0, 1000000000000.0, 0.0, 0.0, 0.0, 0.0, 0.0, 0.0, 0.001)",-3.3500584560217827e-06,2.2470748347486437e-05,0.0,0.0,0.0,0.0003438597647085,"(0.0, 0.0, 0.0, 0.0, 0.0, 0.0, 0.0, 0.0, 0.0, 0.0, 0.0, 0.0, 0.0, 0.0, 0.0, 0.0, 0.0, 0.0, 0.0, 0.0, 0.0, 0.0, 0.0, 0.0, 0.0, 0.0, 0.0, 0.0, 0.0, 0.0, 0.0, 0.0, 0.0, 0.0, 0.0, 0.0)",,,,,,,12,0,849000000,base_footprint,-0.002734067943537,0.0027256339629822,0.7068330999697425,0.7073698216485801,0.0,0.0,0.0,0.0,0.0,0.0,0.0,0.0,0.0,-3.2546010787259754e-05,0.0001810601909944,0.0003425497061145,0.0,0.0,0.0,0.0,0.0,0.0,0.0,0.0,0.0,4.82738712007163e-08,-2.599498755286984e-07,-2.8629218409397438e-08,0.0,0.0,0.0,0.0,0.0,0.0,0.0,0.0,0.0
0.883,1.5700482656008883,-7.188685622997761e-07,-1.1348167665205938e-07,1.1040919768667836e-05,1.5708171576783663,1.6179531733874255e-06,-3.370339401175011e-11,1.6179531730363895e-06,0.0002591283901993243,2.0034296309824846e-05,-0.00011721281733422812,-1.739874590172037e-12,5.3877840645021356e-08,8.6289753936375e-06,13.0,0.0,824000000.0,odom,base_footprint,-1.273107399973767e-05,-1.0138875202826692e-05,-0.0010023896302344,-0.0027340551469503,0.0027256466717176,0.7068303439732394,0.7073725755437136,"(1e-05, 0.0, 0.0, 0.0, 0.0, 0.0, 0.0, 1e-05, 0.0, 0.0, 0.0, 0.0, 0.0, 0.0, 1000000000000.0, 0.0, 0.0, 0.0, 0.0, 0.0, 0.0, 1000000000000.0, 0.0, 0.0, 0.0, 0.0, 0.0, 0.0, 1000000000000.0, 0.0, 0.0, 0.0, 0.0, 0.0, 0.0, 0.001)",-3.3500584560217827e-06,2.2470748347486437e-05,0.0,0.0,0.0,0.0003438597647085,"(0.0, 0.0, 0.0, 0.0, 0.0, 0.0, 0.0, 0.0, 0.0, 0.0, 0.0, 0.0, 0.0, 0.0, 0.0, 0.0, 0.0, 0.0, 0.0, 0.0, 0.0, 0.0, 0.0, 0.0, 0.0, 0.0, 0.0, 0.0, 0.0, 0.0, 0.0, 0.0, 0.0, 0.0, 0.0, 0.0)",,,,,,,13,0,883000000,base_footprint,-0.0027340858897032,0.0027256163299393,0.7068370049754901,0.7073659195828202,0.0,0.0,0.0,0.0,0.0,0.0,0.0,0.0,0.0,-3.257761168129165e-05,0.0001810544088312,0.0003425980618599,0.0,0.0,0.0,0.0,0.0,0.0,0.0,0.0,0.0,2.3548115913991213e-08,-8.942055411344697e-08,-4.393387193038899e-09,0.0,0.0,0.0,0.0,0.0,0.0,0.0,0.0,0.0
0.917,1.5700593075764055,-7.189335898981673e-07,-1.1350216767413296e-07,1.104197551726749e-05,1.57082578665376,2.467554788689183e-06,-7.269381580204564e-11,2.467554787618408e-06,0.0002607236118871059,2.5513562021073795e-05,4.7904555188636344e-05,-3.3647209830855047e-12,8.216957439489379e-08,8.682096275840628e-06,15.0,0.0,891000000.0,odom,base_footprint,-1.414759108747819e-05,-1.036248478825108e-05,-0.0010023898414491,-0.0027340906004434,0.0027256117173809,0.7068380387217981,0.707364886607525,"(1e-05, 0.0, 0.0, 0.0, 0.0, 0.0, 0.0, 1e-05, 0.0, 0.0, 0.0, 0.0, 0.0, 0.0, 1000000000000.0, 0.0, 0.0, 0.0, 0.0, 0.0, 0.0, 1000000000000.0, 0.0, 0.0, 0.0, 0.0, 0.0, 0.0, 1000000000000.0, 0.0, 0.0, 0.0, 0.0, 0.0, 0.0, 0.001)",-3.3515375340898177e-06,2.2479416008420382e-05,0.0,0.0,0.0,0.0003439939635573,"(0.0, 0.0, 0.0, 0.0, 0.0, 0.0, 0.0, 0.0, 0.0, 0.0, 0.0, 0.0, 0.0, 0.0, 0.0, 0.0, 0.0, 0.0, 0.0, 0.0, 0.0, 0.0, 0.0, 0.0, 0.0, 0.0, 0.0, 0.0, 0.0, 0.0, 0.0, 0.0, 0.0, 0.0, 0.0, 0.0)",,,,,,,14,0,917000000,base_footprint,-0.0027341035986375,0.0027255990061312,0.7068409103318962,0.7073620171233016,0.0,0.0,0.0,0.0,0.0,0.0,0.0,0.0,0.0,-3.26058584600687e-05,0.0001810523145241,0.0003426235059309,0.0,0.0,0.0,0.0,0.0,0.0,0.0,0.0,0.0,1.7005588315690683e-08,-4.430777306434021e-08,1.6001688633249354e-09,0.0,0.0,0.0,0.0,0.0,0.0,0.0,0.0,0.0
0.9510000000000001,1.570070350185141,-7.189704321294695e-07,-1.1351850296402455e-07,1.1042608735412074e-05,1.5708344687500357,3.314567415351354e-06,-1.2642408163126737e-10,3.314567412940323e-06,0.00024459247724380634,2.5435814614479604e-05,-0.0004844184577567435,-5.448337622354676e-12,1.1037509479607753e-07,8.144929492218752e-06,16.0,0.0,924000000.0,odom,base_footprint,-1.4845389876795922e-05,-1.0472652821817524e-05,-0.0010023899469961,-0.0027341077315635,0.0027255949677481,0.70684182927088,0.7073610988596845,"(1e-05, 0.0, 0.0, 0.0, 0.0, 0.0, 0.0, 1e-05, 0.0, 0.0, 0.0, 0.0, 0.0, 0.0, 1000000000000.0, 0.0, 0.0, 0.0, 0.0, 0.0, 0.0, 1000000000000.0, 0.0, 0.0, 0.0, 0.0, 0.0, 0.0, 1000000000000.0, 0.0, 0.0, 0.0, 0.0, 0.0, 0.0, 0.001)",-3.351837225156574e-06,2.248076053065352e-05,0.0,0.0,0.0,0.0003440163643276,"(0.0, 0.0, 0.0, 0.0, 0.0, 0.0, 0.0, 0.0, 0.0, 0.0, 0.0, 0.0, 0.0, 0.0, 0.0, 0.0, 0.0, 0.0, 0.0, 0.0, 0.0, 0.0, 0.0, 0.0, 0.0, 0.0, 0.0, 0.0, 0.0, 0.0, 0.0, 0.0, 0.0, 0.0, 0.0, 0.0)",,,,,,,15,0,951000000,base_footprint,-0.0027341210785458,0.0027255819329157,0.7068448158897429,0.7073581144193162,0.0,0.0,0.0,0.0,0.0,0.0,0.0,0.0,0.0,-3.263184754906478e-05,0.0001810512036384,0.0003426428944703,0.0,0.0,0.0,0.0,0.0,0.0,0.0,0.0,0.0,1.5272109759843337e-08,-3.235860233459286e-08,2.8094681898422527e-09,0.0,0.0,0.0,0.0,0.0,0.0,0.0,0.0,0.0
0.9850000000000001,1.570081393315109,-7.189997923495928e-07,-1.1353373642261463e-07,1.10431299680247e-05,1.570842613679528,4.404133762391896e-06,-2.038536312879141e-10,4.404133757674021e-06,0.00023349904535028152,3.27197101213376e-05,-0.0003331360928986432,-8.406743436335452e-12,1.4665765404671604e-07,7.775518210164376e-06,17.0,0.0,957000000.0,odom,base_footprint,-1.5543220744924598e-05,-1.0582835856637676e-05,-0.0010023900478032,-0.0027341246504906,0.0027255784458881,0.7068456199958355,0.707357310895444,"(1e-05, 0.0, 0.0, 0.0, 0.0, 0.0, 0.0, 1e-05, 0.0, 0.0, 0.0, 0.0, 0.0, 0.0, 1000000000000.0, 0.0, 0.0, 0.0, 0.0, 0.0, 0.0, 1000000000000.0, 0.0, 0.0, 0.0, 0.0, 0.0, 0.0, 1000000000000.0, 0.0, 0.0, 0.0, 0.0, 0.0, 0.0, 0.001)",-3.3520963675885487e-06,2.248182886490045e-05,0.0,0.0,0.0,0.0003440346342212,"(0.0, 0.0, 0.0, 0.0, 0.0, 0.0, 0.0, 0.0, 0.0, 0.0, 0.0, 0.0, 0.0, 0.0, 0.0, 0.0, 0.0, 0.0, 0.0, 0.0, 0.0, 0.0, 0.0, 0.0, 0.0, 0.0, 0.0, 0.0, 0.0, 0.0, 0.0, 0.0, 0.0, 0.0, 0.0, 0.0)",,,,,,,16,0,985000000,base_footprint,-0.0027341383470867,0.0027255650790558,0.7068487216095404,0.70735421151037,0.0,0.0,0.0,0.0,0.0,0.0,0.0,0.0,0.0,-3.265599614836684e-05,0.0001810503602068,0.0003426606841838,0.0,0.0,0.0,0.0,0.0,0.0,0.0,0.0,0.0,1.4810818450806348e-08,-2.9180103859858714e-08,2.787981379047079e-09,0.0,0.0,0.0,0.0,0.0,0.0,0.0,0.0,0.0
1.019,1.570092436936459,-7.190271474782735e-07,-1.1354867597048071e-07,1.1043621350070866e-05,1.5708503891977381,5.910144013806286e-06,-3.195165863700195e-10,5.910144005169368e-06,0.00022567476293293887,4.5225533075507207e-05,-0.0002349634359562359,-1.2786107632231248e-11,1.968077952452139e-07,7.514969605666865e-06,18.0,0.0,991000000.0,odom,base_footprint,-1.6262226256898492e-05,-1.0696372681633091e-05,-0.0010023901464314,-0.0027341418778586,0.0027255616342365,0.7068495257472722,0.7073534079460041,"(1e-05, 0.0, 0.0, 0.0, 0.0, 0.0, 0.0, 1e-05, 0.0, 0.0, 0.0, 0.0, 0.0, 0.0, 1000000000000.0, 0.0, 0.0, 0.0, 0.0, 0.0, 0.0, 1000000000000.0, 0.0, 0.0, 0.0, 0.0, 0.0, 0.0, 1000000000000.0, 0.0, 0.0, 0.0, 0.0, 0.0, 0.0, 0.001)",-3.352353381667584e-06,2.248284814027932e-05,0.0,0.0,0.0,0.0003440522830426,"(0.0, 0.0, 0.0, 0.0, 0.0, 0.0, 0.0, 0.0, 0.0, 0.0, 0.0, 0.0, 0.0, 0.0, 0.0, 0.0, 0.0, 0.0, 0.0, 0.0, 0.0, 0.0, 0.0, 0.0, 0.0, 0.0, 0.0, 0.0, 0.0, 0.0, 0.0, 0.0, 0.0, 0.0, 0.0, 0.0)",,,,,,,17,1,19000000,base_footprint,-0.0027341554229792,0.0027255484220224,0.7068526274808155,0.7073503084069377,0.0,0.0,0.0,0.0,0.0,0.0,0.0,0.0,0.0,-3.2678530145284024e-05,0.0001810495943948,0.0003426780532778,0.0,0.0,0.0,0.0,0.0,0.0,0.0,0.0,0.0,1.4686348419695965e-08,-2.8322412004727204e-08,2.4732565332008153e-09,0.0,0.0,0.0,0.0,0.0,0.0,0.0,0.0,0.0
1.053,1.5701034810410837,-7.190539481073824e-07,-1.1356353558054921e-07,1.1044104624602369e-05,1.5708579041673438,7.315947418950432e-06,-4.50496818736243e-10,7.3159474050802255e-06,0.0002011771137000562,4.2216318472797176e-05,-0.0007356651421286083,-1.7558880883240754e-11,2.4362104841761773e-07,6.699197886211872e-06,18.0,0.0,991000000.0,odom,base_footprint,-1.6262226256898492e-05,-1.0696372681633091e-05,-0.0010023901464314,-0.0027341418778586,0.0027255616342365,0.7068495257472722,0.7073534079460041,"(1e-05, 0.0, 0.0, 0.0, 0.0, 0.0, 0.0, 1e-05, 0.0, 0.0, 0.0, 0.0, 0.0, 0.0, 1000000000000.0, 0.0, 0.0, 0.0, 0.0, 0.0, 0.0, 1000000000000.0, 0.0, 0.0, 0.0, 0.0, 0.0, 0.0, 1000000000000.0, 0.0, 0.0, 0.0, 0.0, 0.0, 0.0, 0.001)",-3.352353381667584e-06,2.248284814027932e-05,0.0,0.0,0.0,0.0003440522830426,"(0.0, 0.0, 0.0, 0.0, 0.0, 0.0, 0.0, 0.0, 0.0, 0.0, 0.0, 0.0, 0.0, 0.0, 0.0, 0.0, 0.0, 0.0, 0.0, 0.0, 0.0, 0.0, 0.0, 0.0, 0.0, 0.0, 0.0, 0.0, 0.0, 0.0, 0.0, 0.0, 0.0, 0.0, 0.0, 0.0)",,,,,,,18,1,53000000,base_footprint,-0.0027341723239174,0.0027255319429137,0.7068565335007704,0.7073464051118135,0.0,0.0,0.0,0.0,0.0,0.0,0.0,0.0,0.0,-3.269961413959868e-05,0.0001810488553317,0.0003426953131914,0.0,0.0,0.0,0.0,0.0,0.0,0.0,0.0,0.0,1.4651335824754612e-08,-2.808012609220856e-08,2.1093609869561932e-09,0.0,0.0,0.0,0.0,0.0,0.0,0.0,0.0,0.0
1.087,1.570114525626644,-7.19080580257525e-07,-1.1357837217170624e-07,1.104458556033805e-05,1.57086460336523,9.100309060085591e-06,-6.213378911140426e-10,9.10030903887418e-06,0.0001804814154055744,5.358443366772248e-05,-0.0006214924412757297,-2.3767197243263624e-11,3.0304029076737414e-07,6.010031133005629e-06,19.0,1.0,24000000.0,odom,base_footprint,-1.6960110544105462e-05,-1.08065844513245e-05,-0.0010023902373495,-0.0027341584177286,0.0027255455015167,0.7068533167676856,0.7073496196040457,"(1e-05, 0.0, 0.0, 0.0, 0.0, 0.0, 0.0, 1e-05, 0.0, 0.0, 0.0, 0.0, 0.0, 0.0, 1000000000000.0, 0.0, 0.0, 0.0, 0.0, 0.0, 0.0, 1000000000000.0, 0.0, 0.0, 0.0, 0.0, 0.0, 0.0, 1000000000000.0, 0.0, 0.0, 0.0, 0.0, 0.0, 0.0, 0.001)",-3.3525977532599227e-06,2.248381608273944e-05,0.0,0.0,0.0,0.0003440691051303,"(0.0, 0.0, 0.0, 0.0, 0.0, 0.0, 0.0, 0.0, 0.0, 0.0, 0.0, 0.0, 0.0, 0.0, 0.0, 0.0, 0.0, 0.0, 0.0, 0.0, 0.0, 0.0, 0.0, 0.0, 0.0, 0.0, 0.0, 0.0, 0.0, 0.0, 0.0, 0.0, 0.0, 0.0, 0.0, 0.0)",,,,,,,19,1,87000000,base_footprint,-0.0027341890661403,0.0027255156249896,0.7068604396686398,0.7073425016257583,0.0,0.0,0.0,0.0,0.0,0.0,0.0,0.0,0.0,-3.271938651988673e-05,0.0001810481289749,0.0003427125460948,0.0,0.0,0.0,0.0,0.0,0.0,0.0,0.0,0.0,1.4640301101806682e-08,-2.8001960000792623e-08,1.758878738138036e-09,0.0,0.0,0.0,0.0,0.0,0.0,0.0,0.0,0.0
1.121,1.570125570692348,-7.191071479831852e-07,-1.1359320107023202e-07,1.1045065704040626e-05,1.570870613396363,-0.0001535765126972702,1.1408677182849343e-08,-0.00015357651227351427,0.002224324693402365,-0.004885189842563237,0.06137667501491863,6.058630954483859e-10,-5.11409783576323e-06,7.407001229029876e-05,21.0,1.0,91000000.0,odom,base_footprint,-1.8377104525424764e-05,-1.1030390766499434e-05,-0.0010023904089388,-0.0027341915157557,0.0027255132379603,0.7068610141175504,0.707341927567604,"(1e-05, 0.0, 0.0, 0.0, 0.0, 0.0, 0.0, 1e-05, 0.0, 0.0, 0.0, 0.0, 0.0, 0.0, 1000000000000.0, 0.0, 0.0, 0.0, 0.0, 0.0, 0.0, 1000000000000.0, 0.0, 0.0, 0.0, 0.0, 0.0, 0.0, 1000000000000.0, 0.0, 0.0, 0.0, 0.0, 0.0, 0.0, 0.001)",-3.353090922085872e-06,2.248576631728272e-05,0.0,0.0,0.0,0.0003441030757616,"(0.0, 0.0, 0.0, 0.0, 0.0, 0.0, 0.0, 0.0, 0.0, 0.0, 0.0, 0.0, 0.0, 0.0, 0.0, 0.0, 0.0, 0.0, 0.0, 0.0, 0.0, 0.0, 0.0, 0.0, 0.0, 0.0, 0.0, 0.0, 0.0, 0.0, 0.0, 0.0, 0.0, 0.0, 0.0, 0.0)",,,,,,,20,1,121000000,base_footprint,-0.0027342056644284,0.0027254994531725,0.7068643459841987,0.7073385979489927,0.0,0.0,0.0,0.0,0.0,0.0,0.0,0.0,0.0,-3.2737970380416234e-05,0.0001810474110703,0.0003427297736844,0.0,0.0,0.0,0.0,0.0,0.0,0.0,0.0,0.0,1.463593648872298e-08,-2.7968733146302414e-08,1.4351569255030822e-09,0.0,0.0,0.0,0.0,0.0,0.0,0.0,0.0,0.0
1.155,1.5701366162378299,-7.191336808319251e-07,-1.1360802661033315e-07,1.104554548181369e-05,1.5709446834086533,1.0658179528680134e-05,-1.5812114178858782e-09,1.0658179411388547e-05,0.00016367959111773616,0.004931972739518027,-0.06188123430284169,-5.6158376437211013e-11,3.5491737385662803e-07,5.450530384220615e-06,21.0,1.0,91000000.0,odom,base_footprint,-1.8377104525424764e-05,-1.1030390766499434e-05,-0.0010023904089388,-0.0027341915157557,0.0027255132379603,0.7068610141175504,0.707341927567604,"(1e-05, 0.0, 0.0, 0.0, 0.0, 0.0, 0.0, 1e-05, 0.0, 0.0, 0.0, 0.0, 0.0, 0.0, 1000000000000.0, 0.0, 0.0, 0.0, 0.0, 0.0, 0.0, 1000000000000.0, 0.0, 0.0, 0.0, 0.0, 0.0, 0.0, 1000000000000.0, 0.0, 0.0, 0.0, 0.0, 0.0, 0.0, 0.001)",-3.353090922085872e-06,2.248576631728272e-05,0.0,0.0,0.0,0.0003441030757616,"(0.0, 0.0, 0.0, 0.0, 0.0, 0.0, 0.0, 0.0, 0.0, 0.0, 0.0, 0.0, 0.0, 0.0, 0.0, 0.0, 0.0, 0.0, 0.0, 0.0, 0.0, 0.0, 0.0, 0.0, 0.0, 0.0, 0.0, 0.0, 0.0, 0.0, 0.0, 0.0, 0.0, 0.0, 0.0, 0.0)",,,,,,,21,1,155000000,base_footprint,-0.0027342221322022,0.0027254834138133,0.7068682524473673,0.707334694081591,0.0,0.0,0.0,0.0,0.0,0.0,0.0,0.0,0.0,-3.275547628101468e-05,0.0001810467000445,0.000342747001572,0.0,0.0,0.0,0.0,0.0,0.0,0.0,0.0,0.0,1.4633603715332666e-08,-2.7948583127819588e-08,1.14025524387847e-09,0.0,0.0,0.0,0.0,0.0,0.0,0.0,0.0,0.0
1.189,1.570147662262852,-7.191601882859293e-07,-1.1362285015550397e-07,1.1046025022221071e-05,1.5709501339390375,8.841901194500012e-06,-1.3599475661397941e-09,8.841901089915185e-06,0.00018746624950377236,-5.454289291832197e-05,0.0007143140656467328,-4.830978339768999e-11,2.944353058137174e-07,6.2426261084756204e-06,23.0,1.0,157000000.0,odom,base_footprint,-1.977305021309257e-05,-1.1250912990925024e-05,-0.0010023905633677,-0.0027342235793909,0.0027254820045125,0.7068685971423793,0.7073343496135513,"(1e-05, 0.0, 0.0, 0.0, 0.0, 0.0, 0.0, 1e-05, 0.0, 0.0, 0.0, 0.0, 0.0, 0.0, 1000000000000.0, 0.0, 0.0, 0.0, 0.0, 0.0, 0.0, 1000000000000.0, 0.0, 0.0, 0.0, 0.0, 0.0, 0.0, 1000000000000.0, 0.0, 0.0, 0.0, 0.0, 0.0, 0.0, 0.001)",-3.3535766970954733e-06,2.2487682347115032e-05,0.0,0.0,0.0,0.000344136512238,"(0.0, 0.0, 0.0, 0.0, 0.0, 0.0, 0.0, 0.0, 0.0, 0.0, 0.0, 0.0, 0.0, 0.0, 0.0, 0.0, 0.0, 0.0, 0.0, 0.0, 0.0, 0.0, 0.0, 0.0, 0.0, 0.0, 0.0, 0.0, 0.0, 0.0, 0.0, 0.0, 0.0, 0.0, 0.0, 0.0)",,,,,,,22,1,189000000,base_footprint,-0.0027342384816391,0.0027254674945388,0.7068721590581067,0.7073307900235876,0.0,0.0,0.0,0.0,0.0,0.0,0.0,0.0,0.0,-3.277200448911071e-05,0.00018104599508,0.0003427642310712,0.0,0.0,0.0,0.0,0.0,0.0,0.0,0.0,0.0,1.4632035620162348e-08,-2.7932874241032604e-08,8.721588653583792e-10,0.0,0.0,0.0,0.0,0.0,0.0,0.0,0.0,0.0
1.223,1.5701587087672282,-7.19186674408493e-07,-1.136376722886048e-07,1.104650437611099e-05,1.570956376565146,7.4029704088603774e-06,-1.184843708042391e-09,7.402970314043395e-06,0.00021548619190467388,-4.321113470389292e-05,0.0008414397117387842,-4.210178649359034e-11,2.4651891102142356e-07,7.175690190425641e-06,24.0,1.0,191000000.0,odom,base_footprint,-2.049221273920995e-05,-1.1364537148968352e-05,-0.0010023906381052,-0.0027342399189323,0.0027254660952789,0.7068725037661384,0.7073304455387313,"(1e-05, 0.0, 0.0, 0.0, 0.0, 0.0, 0.0, 1e-05, 0.0, 0.0, 0.0, 0.0, 0.0, 0.0, 1000000000000.0, 0.0, 0.0, 0.0, 0.0, 0.0, 0.0, 1000000000000.0, 0.0, 0.0, 0.0, 0.0, 0.0, 0.0, 1000000000000.0, 0.0, 0.0, 0.0, 0.0, 0.0, 0.0, 0.001)",-3.353828760602906e-06,2.2488668190078557e-05,0.0,0.0,0.0,0.000344153739127,"(0.0, 0.0, 0.0, 0.0, 0.0, 0.0, 0.0, 0.0, 0.0, 0.0, 0.0, 0.0, 0.0, 0.0, 0.0, 0.0, 0.0, 0.0, 0.0, 0.0, 0.0, 0.0, 0.0, 0.0, 0.0, 0.0, 0.0, 0.0, 0.0, 0.0, 0.0, 0.0, 0.0, 0.0, 0.0, 0.0)",,,,,,,23,1,223000000,base_footprint,-0.002734254723786,0.0027254516841265,0.7068760658163912,0.7073268857750029,0.0,0.0,0.0,0.0,0.0,0.0,0.0,0.0,0.0,-3.2787645801018764e-05,0.0001810452955053,0.0003427814624771,0.0,0.0,0.0,0.0,0.0,0.0,0.0,0.0,0.0,1.4630907548419349e-08,-2.7919422450572177e-08,6.289378000383988e-10,0.0,0.0,0.0,0.0,0.0,0.0,0.0,0.0,0.0
1.2570000000000001,1.5701697557507965,-7.192131417726312e-07,-1.1365249337220301e-07,1.1046983568352431e-05,1.5709635522553365,5.773967706486448e-06,-9.655544037817804e-10,5.7739676257538075e-06,0.00022765558485157613,-4.891900007128916e-05,0.00036544723564271034,-3.4256054524286753e-11,1.9227312157596343e-07,7.580930975557486e-06,25.0,1.0,224000000.0,odom,base_footprint,-2.1190248753896373e-05,-1.1474833594544986e-05,-0.0010023907078891,-0.0027342556760842,0.00272545075727,0.7068762956302964,0.7073266561073868,"(1e-05, 0.0, 0.0, 0.0, 0.0, 0.0, 0.0, 1e-05, 0.0, 0.0, 0.0, 0.0, 0.0, 0.0, 1000000000000.0, 0.0, 0.0, 0.0, 0.0, 0.0, 0.0, 1000000000000.0, 0.0, 0.0, 0.0, 0.0, 0.0, 0.0, 1000000000000.0, 0.0, 0.0, 0.0, 0.0, 0.0, 0.0, 0.001)",-3.354071650492962e-06,2.248962618189233e-05,0.0,0.0,0.0,0.0003441704611991,"(0.0, 0.0, 0.0, 0.0, 0.0, 0.0, 0.0, 0.0, 0.0, 0.0, 0.0, 0.0, 0.0, 0.0, 0.0, 0.0, 0.0, 0.0, 0.0, 0.0, 0.0, 0.0, 0.0, 0.0, 0.0, 0.0, 0.0, 0.0, 0.0, 0.0, 0.0, 0.0, 0.0, 0.0, 0.0, 0.0)",0.0,0.0,0.0,0.0,0.0,0.0,24,1,257000000,base_footprint,-0.0027342708686638,0.0027254359723975,0.7068799727221998,0.7073229813358528,0.0,0.0,0.0,0.0,0.0,0.0,0.0,0.0,0.0,-3.280248279754526e-05,0.0001810446008563,0.0003427986958795,0.0,0.0,0.0,0.0,0.0,0.0,0.0,0.0,0.0,1.4630124843016834e-08,-2.7907675531174798e-08,4.083697658611747e-10,0.0,0.0,0.0,0.0,0.0,0.0,0.0,0.0,0.0
1.291,1.5701808032134146,-7.19239592335776e-07,-1.1366731366736771e-07,1.1047462618041237e-05,1.5709792140778323,3.818911884729712e-06,-6.9843041447533e-10,3.818911820862691e-06,0.00026268092190157624,-2.4473151158998093e-05,0.0006009461524463464,-2.4722883997974526e-11,1.2716976335671017e-07,8.747274699322489e-06,26.0,1.0,257000000.0,odom,base_footprint,-2.18883097009556e-05,-1.1585144002144998e-05,-0.0010023907752063,-0.0027342713421359,0.0027254355116849,0.7068800876334272,0.7073228664965224,"(1e-05, 0.0, 0.0, 0.0, 0.0, 0.0, 0.0, 1e-05, 0.0, 0.0, 0.0, 0.0, 0.0, 0.0, 1000000000000.0, 0.0, 0.0, 0.0, 0.0, 0.0, 0.0, 1000000000000.0, 0.0, 0.0, 0.0, 0.0, 0.0, 0.0, 1000000000000.0, 0.0, 0.0, 0.0, 0.0, 0.0, 0.0, 0.001)",-3.354314286488113e-06,2.2490582419940743e-05,0.0,0.0,0.0,0.0003441871851602,"(0.0, 0.0, 0.0, 0.0, 0.0, 0.0, 0.0, 0.0, 0.0, 0.0, 0.0, 0.0, 0.0, 0.0, 0.0, 0.0, 0.0, 0.0, 0.0, 0.0, 0.0, 0.0, 0.0, 0.0, 0.0, 0.0, 0.0, 0.0, 0.0, 0.0, 0.0, 0.0, 0.0, 0.0, 0.0, 0.0)",0.0,0.0,0.0,0.0,0.0,0.0,25,1,291000000,base_footprint,-0.0027342869253626,0.002725420350118,0.706883879775515,0.7073190767061498,0.0,0.0,0.0,0.0,0.0,0.0,0.0,0.0,0.0,-3.281659011692961e-05,0.0001810439106085,0.0003428159311558,0.0,0.0,0.0,0.0,0.0,0.0,0.0,0.0,0.0,1.4629600155842989e-08,-2.7897067921435577e-08,2.0802997991756328e-10,0.0,0.0,0.0,0.0,0.0,0.0,0.0,0.0,0.0
1.325,1.5701918511549566,-7.192660277986171e-07,-1.1368213340655353e-07,1.1047941542052797e-05,1.5709879613525317,2.97239479359911e-06,-5.696135579018292e-10,2.972394739020288e-06,0.00026475817259870483,-2.5420933667585656e-05,6.23799008146726e-05,-2.011193541444046e-11,9.898074458230985e-08,8.816447147536872e-06,27.0,1.0,291000000.0,odom,base_footprint,-2.2607550071009344e-05,-1.1698811751692864e-05,-0.0010023908422188,-0.00273428739637,0.0027254198919055,0.7068839946910807,0.7073189618612151,"(1e-05, 0.0, 0.0, 0.0, 0.0, 0.0, 0.0, 1e-05, 0.0, 0.0, 0.0, 0.0, 0.0, 0.0, 1000000000000.0, 0.0, 0.0, 0.0, 0.0, 0.0, 0.0, 1000000000000.0, 0.0, 0.0, 0.0, 0.0, 0.0, 0.0, 1000000000000.0, 0.0, 0.0, 0.0, 0.0, 0.0, 0.0, 0.001)",-3.3545634945293706e-06,2.249156735140953e-05,0.0,0.0,0.0,0.0003442044177271,"(0.0, 0.0, 0.0, 0.0, 0.0, 0.0, 0.0, 0.0, 0.0, 0.0, 0.0, 0.0, 0.0, 0.0, 0.0, 0.0, 0.0, 0.0, 0.0, 0.0, 0.0, 0.0, 0.0, 0.0, 0.0, 0.0, 0.0, 0.0, 0.0, 0.0, 0.0, 0.0, 0.0, 0.0, 0.0, 0.0)",0.0,0.0,0.0,0.0,0.0,0.0,26,1,325000000,base_footprint,-0.0027343029021281,0.0027254048089122,0.7068877869763216,0.7073151718859038,0.0,0.0,0.0,0.0,0.0,0.0,0.0,0.0,0.0,-3.2830035584025495e-05,0.0001810432243683,0.0003428331682443,0.0,0.0,0.0,0.0,0.0,0.0,0.0,0.0,0.0,1.4629320931355354e-08,-2.7887594533480598e-08,2.639663664445629e-11,0.0,0.0,0.0,0.0,0.0,0.0,0.0,0.0,0.0
1.359,1.5702028995753112,-7.192924496808096e-07,-1.1369695280746828e-07,1.1048420354597967e-05,1.5709967777996792,2.40177929388291e-06,-4.814390695006622e-10,2.401779245630437e-06,0.00027244810297263563,-1.7135600592078072e-05,0.00023092884005798187,-1.6966386121496833e-11,7.997924868577132e-08,9.072521828988768e-06,27.0,1.0,291000000.0,odom,base_footprint,-2.2607550071009344e-05,-1.1698811751692864e-05,-0.0010023908422188,-0.00273428739637,0.0027254198919055,0.7068839946910807,0.7073189618612151,"(1e-05, 0.0, 0.0, 0.0, 0.0, 0.0, 0.0, 1e-05, 0.0, 0.0, 0.0, 0.0, 0.0, 0.0, 1000000000000.0, 0.0, 0.0, 0.0, 0.0, 0.0, 0.0, 1000000000000.0, 0.0, 0.0, 0.0, 0.0, 0.0, 0.0, 1000000000000.0, 0.0, 0.0, 0.0, 0.0, 0.0, 0.0, 0.001)",-3.3545634945293706e-06,2.249156735140953e-05,0.0,0.0,0.0,0.0003442044177271,"(0.0, 0.0, 0.0, 0.0, 0.0, 0.0, 0.0, 0.0, 0.0, 0.0, 0.0, 0.0, 0.0, 0.0, 0.0, 0.0, 0.0, 0.0, 0.0, 0.0, 0.0, 0.0, 0.0, 0.0, 0.0, 0.0, 0.0, 0.0, 0.0, 0.0, 0.0, 0.0, 0.0, 0.0, 0.0, 0.0)",0.2199999988079071,2.249252247565892e-05,0.0,0.0,0.0,0.0906006470322609,27,1,359000000,base_footprint,-0.0027343188064399,0.0027253893411823,0.7068916943246066,0.7073112668751224,0.0,0.0,0.0,0.0,0.0,0.0,0.0,0.0,0.0,-3.284288071184729e-05,0.0001810425417961,0.0003428504070558,0.0,0.0,0.0,0.0,0.0,0.0,0.0,0.0,0.0,1.4629254424134708e-08,-2.7879084065698355e-08,-1.3838152742629208e-10,0.0,0.0,0.0,0.0,0.0,0.0,0.0,0.0,0.0
1.393,1.5702140621391183,-7.267233821753812e-07,8.900847359195885e-07,1.1162563807065595e-05,1.5710058503215083,2.002560272364847e-06,-4.195834874483735e-10,2.0025602284085408e-06,0.0002871328925610917,-1.1988559204746634e-05,0.0004409846723260085,-1.4767575813962344e-11,6.66852554350642e-08,9.561525322284356e-06,29.0,1.0,357000000.0,odom,base_footprint,-2.4003798005277097e-05,-1.1919503217729633e-05,-0.0010023909663147,-0.0027343183396351,0.002725389795133,0.7068915794004934,0.7073113817311002,"(1e-05, 0.0, 0.0, 0.0, 0.0, 0.0, 0.0, 1e-05, 0.0, 0.0, 0.0, 0.0, 0.0, 0.0, 1000000000000.0, 0.0, 0.0, 0.0, 0.0, 0.0, 0.0, 1000000000000.0, 0.0, 0.0, 0.0, 0.0, 0.0, 0.0, 1000000000000.0, 0.0, 0.0, 0.0, 0.0, 0.0, 0.0, 0.001)",-3.3550485605328668e-06,2.249347809998211e-05,0.0,0.0,0.0,0.0003442378744009,"(0.0, 0.0, 0.0, 0.0, 0.0, 0.0, 0.0, 0.0, 0.0, 0.0, 0.0, 0.0, 0.0, 0.0, 0.0, 0.0, 0.0, 0.0, 0.0, 0.0, 0.0, 0.0, 0.0, 0.0, 0.0, 0.0, 0.0, 0.0, 0.0, 0.0, 0.0, 0.0, 0.0, 0.0, 0.0, 0.0)",0.2199999988079071,2.249252247565892e-05,0.0,0.0,0.0,0.0906006470322609,28,1,393000000,base_footprint,-0.0027320228223838,0.0027230200794618,0.7068956510784085,0.7073073304436891,0.0,0.0,0.0,0.0,0.0,0.0,0.0,0.0,0.0,2.6095573064200545e-05,0.0068007099989885,0.0004098572123735,0.0,0.0,0.0,0.0,0.0,0.0,0.0,0.0,0.0,-0.0299067045962838,-0.0001709855269355,0.0047034211803034,0.0,0.0,0.0,0.0,0.0,0.0,0.0,0.0,0.0
1.427,1.570223624748559,-6.188686455237999e-07,0.0004911504414954551,9.562609440738612e-06,1.5710154118468305,0.033709273289781835,-7.385197830264692e-06,0.03370927248078861,-0.0004139830099891601,1.0122303522375216,-0.021054531608115667,-2.4621307668090646e-07,0.001122518773535442,-1.3785634232639032e-05,31.0,1.0,424000000.0,odom,base_footprint,-2.538725646798089e-05,0.0004259340063481,-0.0010020809777616,-0.0027305995051539,0.0027219084187794,0.7068991224726129,0.7073038708280566,"(1e-05, 0.0, 0.0, 0.0, 0.0, 0.0, 0.0, 1e-05, 0.0, 0.0, 0.0, 0.0, 0.0, 0.0, 1000000000000.0, 0.0, 0.0, 0.0, 0.0, 0.0, 0.0, 1000000000000.0, 0.0, 0.0, 0.0, 0.0, 0.0, 0.0, 1000000000000.0, 0.0, 0.0, 0.0, 0.0, 0.0, 0.0, 0.001)",0.0258752111050653,1.7169599951965716e-05,0.0,0.0,0.0,4.066851556477732e-05,"(0.0, 0.0, 0.0, 0.0, 0.0, 0.0, 0.0, 0.0, 0.0, 0.0, 0.0, 0.0, 0.0, 0.0, 0.0, 0.0, 0.0, 0.0, 0.0, 0.0, 0.0, 0.0, 0.0, 0.0, 0.0, 0.0, 0.0, 0.0, 0.0, 0.0, 0.0, 0.0, 0.0, 0.0, 0.0, 0.0)",0.2199999988079071,2.249252247565892e-05,0.0,0.0,0.0,0.0906006470322609,29,1,427000000,base_footprint,-0.0027285406104402,0.0027197735786459,0.7068990453553016,0.7073039640590044,0.0,0.0,0.0,0.0,0.0,0.0,0.0,0.0,0.0,-4.363919017391334e-06,0.0021265349221974,-0.0001626043752178,0.0,0.0,0.0,0.0,0.0,0.0,0.0,0.0,0.0,-0.7774485330559472,0.0016112252981503,-0.0019130442222514,0.0,0.0,0.0,0.0,0.0,0.0,0.0,0.0,0.0
1.461,1.5702218236433751,1.3132342803923603e-07,0.0013986728948045,-1.8011051838850989e-06,1.5710016262125979,0.06705413437023895,-1.3766174643968908e-05,0.06705413295714512,2.1415985449488877e-05,1.0013471795933067,0.013075044908067535,-4.7516973122045347e-07,0.0022329026238310304,7.131523154679797e-07,31.0,1.0,424000000.0,odom,base_footprint,-2.538725646798089e-05,0.0004259340063481,-0.0010020809777616,-0.0027305995051539,0.0027219084187794,0.7068991224726129,0.7073038708280566,"(1e-05, 0.0, 0.0, 0.0, 0.0, 0.0, 0.0, 1e-05, 0.0, 0.0, 0.0, 0.0, 0.0, 0.0, 1000000000000.0, 0.0, 0.0, 0.0, 0.0, 0.0, 0.0, 1000000000000.0, 0.0, 0.0, 0.0, 0.0, 0.0, 0.0, 1000000000000.0, 0.0, 0.0, 0.0, 0.0, 0.0, 0.0, 0.001)",0.0258752111050653,1.7169599951965716e-05,0.0,0.0,0.0,4.066851556477732e-05,"(0.0, 0.0, 0.0, 0.0, 0.0, 0.0, 0.0, 0.0, 0.0, 0.0, 0.0, 0.0, 0.0, 0.0, 0.0, 0.0, 0.0, 0.0, 0.0, 0.0, 0.0, 0.0, 0.0, 0.0, 0.0, 0.0, 0.0, 0.0, 0.0, 0.0, 0.0, 0.0, 0.0, 0.0, 0.0, 0.0)",0.2199999988079071,2.2494461518363096e-05,0.0,0.0,0.0,0.0906006768345833,30,1,461000000,base_footprint,-0.002728850524968,0.0027200455867167,0.7068984073547427,0.7073045994521363,0.0,0.0,0.0,0.0,0.0,0.0,0.0,0.0,0.0,-8.061183055235526e-05,0.0003470008419467,-0.0004399109265938,0.0,0.0,0.0,0.0,0.0,0.0,0.0,0.0,0.0,-0.7837325421492658,0.0009989372737628,-0.0018149718287058,0.0,0.0,0.0,0.0,0.0,0.0,0.0,0.0,0.0
1.495,1.5702109913563593,7.274376707920898e-07,0.0023073414596533003,-1.0832287015816178e-05,1.5710023393649133,0.10312014204712723,-2.1244045333342618e-05,0.10312013985885703,2.2136256150085304e-05,1.0830632936002484,2.162975076866144e-05,-7.33236387649291e-07,0.0034339006520941015,7.371373297978407e-07,32.0,1.0,457000000.0,odom,base_footprint,-2.5311949176571727e-05,0.0017186226559556,-0.0010021456785872,-0.0027309855832783,0.0027222287347393,0.7068987825767855,0.7073042078058907,"(1e-05, 0.0, 0.0, 0.0, 0.0, 0.0, 0.0, 1e-05, 0.0, 0.0, 0.0, 0.0, 0.0, 0.0, 1000000000000.0, 0.0, 0.0, 0.0, 0.0, 0.0, 0.0, 1000000000000.0, 0.0, 0.0, 0.0, 0.0, 0.0, 0.0, 1000000000000.0, 0.0, 0.0, 0.0, 0.0, 0.0, 0.0, 0.001)",0.0518241954421968,2.0266094174108818e-05,0.0,0.0,0.0,-0.000138232065028,"(0.0, 0.0, 0.0, 0.0, 0.0, 0.0, 0.0, 0.0, 0.0, 0.0, 0.0, 0.0, 0.0, 0.0, 0.0, 0.0, 0.0, 0.0, 0.0, 0.0, 0.0, 0.0, 0.0, 0.0, 0.0, 0.0, 0.0, 0.0, 0.0, 0.0, 0.0, 0.0, 0.0, 0.0, 0.0, 0.0)",0.2199999988079071,2.2494461518363096e-05,0.0,0.0,0.0,0.0906006768345833,31,1,495000000,base_footprint,-0.0027293940737605,0.0027205060442203,0.7068945747683608,0.7073084259486182,0.0,0.0,0.0,0.0,0.0,0.0,0.0,0.0,0.0,-7.944820984737575e-05,0.0003488650391158,-0.0007232203823459,0.0,0.0,0.0,0.0,0.0,0.0,0.0,0.0,0.0,-0.7844538151672449,0.0010091472800648,1.2075843242049383e-06,0.0,0.0,0.0,0.0,0.0,0.0,0.0,0.0,0.0
1.529,1.5701892140857494,1.4498071236481214e-06,0.0032072621880767,-2.1777270609923963e-05,1.5710030765022431,0.13378067856088582,-2.7659115944031154e-05,0.13378067570162872,2.148288619853732e-05,0.9207368322450027,-1.9620719265705252e-05,-9.544836303637526e-07,0.004454896494273258,7.153801104112927e-07,33.0,1.0,491000000.0,odom,base_footprint,-2.4639418094919748e-05,0.0039459259710071,-0.0010022469569372,-0.002731574736345,0.0027227386383709,0.706895243978573,0.7073077401204095,"(1e-05, 0.0, 0.0, 0.0, 0.0, 0.0, 0.0, 1e-05, 0.0, 0.0, 0.0, 0.0, 0.0, 0.0, 1000000000000.0, 0.0, 0.0, 0.0, 0.0, 0.0, 0.0, 1000000000000.0, 0.0, 0.0, 0.0, 0.0, 0.0, 0.0, 1000000000000.0, 0.0, 0.0, 0.0, 0.0, 0.0, 0.0, 0.001)",0.0785145896548111,1.8766517362677272e-05,0.0,0.0,0.0,-0.0004046173311841,"(0.0, 0.0, 0.0, 0.0, 0.0, 0.0, 0.0, 0.0, 0.0, 0.0, 0.0, 0.0, 0.0, 0.0, 0.0, 0.0, 0.0, 0.0, 0.0, 0.0, 0.0, 0.0, 0.0, 0.0, 0.0, 0.0, 0.0, 0.0, 0.0, 0.0, 0.0, 0.0, 0.0, 0.0, 0.0, 0.0)",0.2199999988079071,2.2494461518363096e-05,0.0,0.0,0.0,0.0906006768345833,32,1,529000000,base_footprint,-0.0027306752823561,0.0027217571622699,0.7068868684071351,0.707316117958587,0.0,0.0,0.0,0.0,0.0,0.0,0.0,0.0,0.0,-0.0001187534264911,-0.0010375096083791,-0.001099354383681,0.0,0.0,0.0,0.0,0.0,0.0,0.0,0.0,0.0,-0.7683671029208483,0.0012000226784667,-0.0021041912720263,0.0,0.0,0.0,0.0,0.0,0.0,0.0,0.0,0.0
1.5630000000000002,1.5701543664261843,2.312552522030523e-06,0.004078482957123501,-3.484765956507374e-05,1.5710037918823536,0.16714375511296112,-3.467649352364533e-05,0.1671437515158802,2.1064796188633608e-05,1.0018941907530117,-1.2555255552663975e-05,-1.196461850020129e-06,0.0055658869162233445,7.014577130814992e-07,33.0,1.0,491000000.0,odom,base_footprint,-2.4639418094919748e-05,0.0039459259710071,-0.0010022469569372,-0.002731574736345,0.0027227386383709,0.706895243978573,0.7073077401204095,"(1e-05, 0.0, 0.0, 0.0, 0.0, 0.0, 0.0, 1e-05, 0.0, 0.0, 0.0, 0.0, 0.0, 0.0, 1000000000000.0, 0.0, 0.0, 0.0, 0.0, 0.0, 0.0, 1000000000000.0, 0.0, 0.0, 0.0, 0.0, 0.0, 0.0, 1000000000000.0, 0.0, 0.0, 0.0, 0.0, 0.0, 0.0, 0.001)",0.0785145896548111,1.8766517362677272e-05,0.0,0.0,0.0,-0.0004046173311841,"(0.0, 0.0, 0.0, 0.0, 0.0, 0.0, 0.0, 0.0, 0.0, 0.0, 0.0, 0.0, 0.0, 0.0, 0.0, 0.0, 0.0, 0.0, 0.0, 0.0, 0.0, 0.0, 0.0, 0.0, 0.0, 0.0, 0.0, 0.0, 0.0, 0.0, 0.0, 0.0, 0.0, 0.0, 0.0, 0.0)",0.2199999988079071,1.5483374227187596e-05,0.0,0.0,0.0,0.0895455330610275,33,1,563000000,base_footprint,-0.0027325432929494,0.0027235884446964,0.7068745372829904,0.707328427121443,0.0,0.0,0.0,0.0,0.0,0.0,0.0,0.0,0.0,-0.0001021086577371,-0.0018516696029233,-0.0015201409575814,0.0,0.0,0.0,0.0,0.0,0.0,0.0,0.0,0.0,-0.7320070077851115,0.0012892293175151,-0.0013349057216083,0.0,0.0,0.0,0.0,0.0,0.0,0.0,0.0,0.0
1.597,1.5701036929306897,3.3572577058775103e-06,0.004885794619055601,-5.067349549459088e-05,1.5710044933400666,0.20624245428305474,-4.293277886542025e-05,0.20624244981447057,2.040953207939457e-05,1.1741351102130215,-1.967760087804922e-05,-1.481084530704198e-06,0.006867873568934374,6.796374182438392e-07,35.0,1.0,557000000.0,odom,base_footprint,-2.1220817846330125e-05,0.0108194716205519,-0.0010025707984182,-0.002733528409628,0.0027245250707224,0.7068770498230993,0.707325908771172,"(1e-05, 0.0, 0.0, 0.0, 0.0, 0.0, 0.0, 1e-05, 0.0, 0.0, 0.0, 0.0, 0.0, 0.0, 1000000000000.0, 0.0, 0.0, 0.0, 0.0, 0.0, 0.0, 1000000000000.0, 0.0, 0.0, 0.0, 0.0, 0.0, 0.0, 1000000000000.0, 0.0, 0.0, 0.0, 0.0, 0.0, 0.0, 0.001)",0.1284260447565946,9.644078858219763e-06,0.0,0.0,0.0,-0.001084117112686,"(0.0, 0.0, 0.0, 0.0, 0.0, 0.0, 0.0, 0.0, 0.0, 0.0, 0.0, 0.0, 0.0, 0.0, 0.0, 0.0, 0.0, 0.0, 0.0, 0.0, 0.0, 0.0, 0.0, 0.0, 0.0, 0.0, 0.0, 0.0, 0.0, 0.0, 0.0, 0.0, 0.0, 0.0, 0.0, 0.0)",0.2199999988079071,1.5483374227187596e-05,0.0,0.0,0.0,0.0895455330610275,34,1,597000000,base_footprint,-0.0027345949955885,0.0027255872674521,0.7068566082272781,0.707346328589953,0.0,0.0,0.0,0.0,0.0,0.0,0.0,0.0,0.0,-8.390974100652807e-05,-0.0009750786811499,-0.0018861889117901,0.0,0.0,0.0,0.0,0.0,0.0,0.0,0.0,0.0,-0.6607569525756197,0.0011635327703047,0.0009927592141544,0.0,0.0,0.0,0.0,0.0,0.0,0.0,0.0,0.0
1.631,1.570033234087591,4.663026748406942e-06,0.005580148173754698,-7.045884309864193e-05,1.5710051729774848,0.21801748147198352,-4.5532118411911905e-05,0.21801747671737892,0.08873542647114932,0.3536044200879514,2.6641146227948926,-1.2294323822642735e-05,0.0072599690819395496,0.0029548897014892725,37.0,1.0,624000000.0,odom,base_footprint,-1.363389881436214e-05,0.0209092710342306,-0.0010030385431832,-0.0027364843650257,0.0027276629337444,0.7068365171555053,0.7073663898742398,"(1e-05, 0.0, 0.0, 0.0, 0.0, 0.0, 0.0, 1e-05, 0.0, 0.0, 0.0, 0.0, 0.0, 0.0, 1000000000000.0, 0.0, 0.0, 0.0, 0.0, 0.0, 0.0, 1000000000000.0, 0.0, 0.0, 0.0, 0.0, 0.0, 0.0, 1000000000000.0, 0.0, 0.0, 0.0, 0.0, 0.0, 0.0, 0.001)",0.1697500241468273,-1.885115980128412e-05,0.0,0.0,0.0,-0.0022081075042887,"(0.0, 0.0, 0.0, 0.0, 0.0, 0.0, 0.0, 0.0, 0.0, 0.0, 0.0, 0.0, 0.0, 0.0, 0.0, 0.0, 0.0, 0.0, 0.0, 0.0, 0.0, 0.0, 0.0, 0.0, 0.0, 0.0, 0.0, 0.0, 0.0, 0.0, 0.0, 0.0, 0.0, 0.0, 0.0, 0.0)",0.2199999988079071,1.5483374227187596e-05,0.0,0.0,0.0,0.0895455330610275,35,1,631000000,base_footprint,-0.0027367317755786,0.0027279708394662,0.7068316795762399,0.7073712216521953,0.0,0.0,0.0,0.0,0.0,0.0,0.0,0.0,0.0,-4.532028713495074e-05,7.052523582165446e-05,-0.0022898551683726,0.0,0.0,0.0,0.0,0.0,0.0,0.0,0.0,0.0,-0.5403728469587981,0.0011908808658519,0.0012275051920879,0.0,0.0,0.0,0.0,0.0,0.0,0.0,0.0,0.0
1.665,1.5699459202318178,5.775274476038094e-06,0.006109518981453201,-8.731385577331885e-05,1.573960062678974,0.21801451957919746,-0.0006897392082154704,0.21801342850194552,0.08875170360150672,-8.894572931120328e-05,0.0004888027134354512,-3.3748155842630944e-05,0.0072598024188514675,0.002955431729930174,37.0,1.0,624000000.0,odom,base_footprint,-1.363389881436214e-05,0.0209092710342306,-0.0010030385431832,-0.0027364843650257,0.0027276629337444,0.7068365171555053,0.7073663898742398,"(1e-05, 0.0, 0.0, 0.0, 0.0, 0.0, 0.0, 1e-05, 0.0, 0.0, 0.0, 0.0, 0.0, 0.0, 1000000000000.0, 0.0, 0.0, 0.0, 0.0, 0.0, 0.0, 1000000000000.0, 0.0, 0.0, 0.0, 0.0, 0.0, 0.0, 1000000000000.0, 0.0, 0.0, 0.0, 0.0, 0.0, 0.0, 0.001)",0.1697500241468273,-1.885115980128412e-05,0.0,0.0,0.0,-0.0022081075042887,"(0.0, 0.0, 0.0, 0.0, 0.0, 0.0, 0.0, 0.0, 0.0, 0.0, 0.0, 0.0, 0.0, 0.0, 0.0, 0.0, 0.0, 0.0, 0.0, 0.0, 0.0, 0.0, 0.0, 0.0, 0.0, 0.0, 0.0, 0.0, 0.0, 0.0, 0.0, 0.0, 0.0, 0.0, 0.0, 0.0)",0.2084210515022277,0.0,0.0,0.0,0.0,0.0880483165383338,36,1,665000000,base_footprint,-0.0027379400180281,0.0027296196653088,0.7068007913530441,0.7074020739322517,0.0,0.0,0.0,0.0,0.0,0.0,0.0,0.0,0.0,-6.8011291700585e-05,0.000793102906997,-0.0027484535932711,0.0,0.0,0.0,0.0,0.0,0.0,0.0,0.0,0.0,-0.3773937987736593,0.0012063284775143,0.0008926565503105,0.0,0.0,0.0,0.0,0.0,0.0,0.0,0.0,0.0
1.699,1.5697977112784691,9.791702681881435e-06,0.0064350524705604,-0.0001482089533486608,1.5769154944089043,0.21280522932987378,-0.0013021827408368483,0.2128012451802142,0.089872304952339,-0.15643514262233266,0.033651692217185544,-5.401698841335554e-05,0.007086205613761722,0.002992747754912889,38.0,1.0,657000000.0,odom,base_footprint,-8.204991042850228e-06,0.0267557201302752,-0.0010032435635659,-0.0027378040052669,0.0027294028906771,0.7068074833087364,0.7073953889642337,"(1e-05, 0.0, 0.0, 0.0, 0.0, 0.0, 0.0, 1e-05, 0.0, 0.0, 0.0, 0.0, 0.0, 0.0, 1000000000000.0, 0.0, 0.0, 0.0, 0.0, 0.0, 0.0, 1000000000000.0, 0.0, 0.0, 0.0, 0.0, 0.0, 0.0, 1000000000000.0, 0.0, 0.0, 0.0, 0.0, 0.0, 0.0, 0.001)",0.1832607942903268,-2.8381586286328606e-05,0.0,0.0,0.0,-0.0027338061350385,"(0.0, 0.0, 0.0, 0.0, 0.0, 0.0, 0.0, 0.0, 0.0, 0.0, 0.0, 0.0, 0.0, 0.0, 0.0, 0.0, 0.0, 0.0, 0.0, 0.0, 0.0, 0.0, 0.0, 0.0, 0.0, 0.0, 0.0, 0.0, 0.0, 0.0, 0.0, 0.0, 0.0, 0.0, 0.0, 0.0)",0.2084210515022277,0.0,0.0,0.0,0.0,0.0880483165383338,37,1,699000000,base_footprint,-0.0027365331943682,0.0027295984441029,0.7067483686119814,0.7074544537584825,0.0,0.0,0.0,0.0,0.0,0.0,0.0,0.0,0.0,-0.0001113894476522,0.0003426460936923,-0.0058112960895602,0.0,0.0,0.0,0.0,0.0,0.0,0.0,0.0,0.0,-0.1880821735662346,0.0061322712691239,-0.0003180501264782,0.0,0.0,0.0,0.0,0.0,0.0,0.0,0.0,0.0
1.733,1.5695636842406893,1.5450162984654245e-05,0.006536882881156399,-0.0002340270377798603,1.579908242163817,0.20653867254237573,-0.0018819368624338724,0.20653009845834222,0.08721601978459946,-0.1881848885134548,-0.0797683233555417,-7.270462874117409e-05,0.006877351086929391,0.0029042934588271625,39.0,1.0,691000000.0,odom,base_footprint,2.7253604364117e-07,0.0331417162969644,-0.0010031233196833,-0.0027371635329903,0.0027298098323532,0.7067621081131592,0.7074407244494171,"(1e-05, 0.0, 0.0, 0.0, 0.0, 0.0, 0.0, 1e-05, 0.0, 0.0, 0.0, 0.0, 0.0, 0.0, 1000000000000.0, 0.0, 0.0, 0.0, 0.0, 0.0, 0.0, 1000000000000.0, 0.0, 0.0, 0.0, 0.0, 0.0, 0.0, 1000000000000.0, 0.0, 0.0, 0.0, 0.0, 0.0, 0.0, 0.001)",0.1910691600602593,-0.0001590024253607,0.0,0.0,0.0,-0.00518516405926,"(0.0, 0.0, 0.0, 0.0, 0.0, 0.0, 0.0, 0.0, 0.0, 0.0, 0.0, 0.0, 0.0, 0.0, 0.0, 0.0, 0.0, 0.0, 0.0, 0.0, 0.0, 0.0, 0.0, 0.0, 0.0, 0.0, 0.0, 0.0, 0.0, 0.0, 0.0, 0.0, 0.0, 0.0, 0.0, 0.0)",0.2084210515022277,0.0,0.0,0.0,0.0,0.0880483165383338,38,1,733000000,base_footprint,-0.0027327766689164,0.0027244216933223,0.7066656032099153,0.7075371613548517,0.0,0.0,0.0,0.0,0.0,0.0,0.0,0.0,0.0,8.663957035205878e-05,0.0005824402884134,-0.0041865540756838,0.0,0.0,0.0,0.0,0.0,0.0,0.0,0.0,0.0,-0.0013933727747307,-0.0031687793434955,-0.0005859745692121,0.0,0.0,0.0,0.0,0.0,0.0,0.0,0.0,0.0
1.767,1.5695829957949703,-1.2667019720474432e-06,0.006542298555984698,1.9311554281031817e-05,1.5828125356226443,0.20645880967291266,-0.002480792470381386,0.20644390463337708,0.08811421914998045,-0.0023982843682603893,0.026972953915345092,-9.274511057460688e-05,0.0068744502992973255,0.0029342034976943495,39.0,1.0,691000000.0,odom,base_footprint,2.7253604364117e-07,0.0331417162969644,-0.0010031233196833,-0.0027371635329903,0.0027298098323532,0.7067621081131592,0.7074407244494171,"(1e-05, 0.0, 0.0, 0.0, 0.0, 0.0, 0.0, 1e-05, 0.0, 0.0, 0.0, 0.0, 0.0, 0.0, 1000000000000.0, 0.0, 0.0, 0.0, 0.0, 0.0, 0.0, 1000000000000.0, 0.0, 0.0, 0.0, 0.0, 0.0, 0.0, 1000000000000.0, 0.0, 0.0, 0.0, 0.0, 0.0, 0.0, 0.001)",0.1910691600602593,-0.0001590024253607,0.0,0.0,0.0,-0.00518516405926,"(0.0, 0.0, 0.0, 0.0, 0.0, 0.0, 0.0, 0.0, 0.0, 0.0, 0.0, 0.0, 0.0, 0.0, 0.0, 0.0, 0.0, 0.0, 0.0, 0.0, 0.0, 0.0, 0.0, 0.0, 0.0, 0.0, 0.0, 0.0, 0.0, 0.0, 0.0, 0.0, 0.0, 0.0, 0.0, 0.0)",0.2084210515022277,0.0,0.0,0.0,0.0,0.0826337113976478,39,1,767000000,base_footprint,-0.0027357303448692,0.0027226123836596,0.7066724418748236,0.7075303265980637,0.0,0.0,0.0,0.0,0.0,0.0,0.0,0.0,0.0,0.0005555627065564,-5.6764959525770525e-05,-0.0025728168937078,0.0,0.0,0.0,0.0,0.0,0.0,0.0,0.0,0.0,-0.0633633150929991,-0.0030197887482597,-0.0016596568835488,0.0,0.0,0.0,0.0,0.0,0.0,0.0,0.0,0.0
1.8010000000000002,1.5695007569073083,6.032212146835295e-06,0.006714485260232106,-8.223888766201172e-05,1.5857467391203388,0.21256814241851058,-0.0031778629900726207,0.21254438679502344,0.09283696100170868,0.1834634458137511,0.14182407963147842,-0.00011681354261314708,0.007077552397681607,0.0030914708013568995,41.0,1.0,757000000.0,odom,base_footprint,1.6208471685272334e-05,0.0458204850131216,-0.0010021789263928,-0.0027343486116583,0.0027219259609,0.7066767823371158,0.7075259993543658,"(1e-05, 0.0, 0.0, 0.0, 0.0, 0.0, 0.0, 1e-05, 0.0, 0.0, 0.0, 0.0, 0.0, 0.0, 1000000000000.0, 0.0, 0.0, 0.0, 0.0, 0.0, 0.0, 1000000000000.0, 0.0, 0.0, 0.0, 0.0, 0.0, 0.0, 1000000000000.0, 0.0, 0.0, 0.0, 0.0, 0.0, 0.0, 0.001)",0.1928142201845847,0.0002669799229408,0.0,0.0,0.0,0.0005290049941925,"(0.0, 0.0, 0.0, 0.0, 0.0, 0.0, 0.0, 0.0, 0.0, 0.0, 0.0, 0.0, 0.0, 0.0, 0.0, 0.0, 0.0, 0.0, 0.0, 0.0, 0.0, 0.0, 0.0, 0.0, 0.0, 0.0, 0.0, 0.0, 0.0, 0.0, 0.0, 0.0, 0.0, 0.0, 0.0, 0.0)",0.2084210515022277,0.0,0.0,0.0,0.0,0.0826337113976478,40,1,801000000,base_footprint,-0.0027441806673627,0.0027243700808845,0.7066433417340188,0.7075593507707365,0.0,0.0,0.0,0.0,0.0,0.0,0.0,0.0,0.0,0.0009351159489577,-0.0012486026283745,-0.0018571149282146,0.0,0.0,0.0,0.0,0.0,0.0,0.0,0.0,0.0,-0.2128571672702224,0.0033956365164913,-0.0008898188866959,0.0,0.0,0.0,0.0,0.0,0.0,0.0,0.0,0.0
1.835,1.570984488780152,5.345550399025758e-06,0.006945209941905596,0.0014837318728437854,1.5888382099216956,0.20617052345747772,-0.0037195026918081173,0.2061369691308573,0.08657202531677018,-0.19212068952050623,-0.18813620675491013,-0.00013380277984982082,0.006864172073923838,0.0028828484430484472,43.0,1.0,824000000.0,odom,base_footprint,2.7723683156129653e-05,0.0591566895057732,-0.0010032572030603,-0.0027435756908237,0.0027227138835027,0.7069005324475347,0.7073024083423788,"(1e-05, 0.0, 0.0, 0.0, 0.0, 0.0, 0.0, 1e-05, 0.0, 0.0, 0.0, 0.0, 0.0, 0.0, 1000000000000.0, 0.0, 0.0, 0.0, 0.0, 0.0, 0.0, 1000000000000.0, 0.0, 0.0, 0.0, 0.0, 0.0, 0.0, 1000000000000.0, 0.0, 0.0, 0.0, 0.0, 0.0, 0.0, 0.001)",0.205468972555938,-3.3413405204874496e-05,0.0,0.0,0.0,0.0622289444447869,"(0.0, 0.0, 0.0, 0.0, 0.0, 0.0, 0.0, 0.0, 0.0, 0.0, 0.0, 0.0, 0.0, 0.0, 0.0, 0.0, 0.0, 0.0, 0.0, 0.0, 0.0, 0.0, 0.0, 0.0, 0.0, 0.0, 0.0, 0.0, 0.0, 0.0, 0.0, 0.0, 0.0, 0.0, 0.0, 0.0)",0.2084210515022277,0.0,0.0,0.0,0.0,0.0826337113976478,41,1,835000000,base_footprint,-0.0027451267107286,0.0027283862648703,0.7071680380799572,0.7070349256620043,0.0,0.0,0.0,0.0,0.0,0.0,0.0,0.0,0.0,-0.0015451602691337,-0.0019231224554726,0.083632167084649,0.0,0.0,0.0,0.0,0.0,0.0,0.0,0.0,0.0,-0.1705666612174597,-0.0070013545288997,-0.0011577289770747,0.0,0.0,0.0,0.0,0.0,0.0,0.0,0.0,0.0
1.8690000000000002,1.5738338642219458,-1.1500992390845937e-05,0.0070435101040315015,0.0028493754417937556,1.591721058364744,0.20595867185676056,-0.004309315438754807,0.20591358457724468,0.08297573505415683,-0.006361909931446113,-0.10799670458298347,-0.00015302217808539121,0.0068567142957902776,0.0027630919773034227,43.0,1.0,824000000.0,odom,base_footprint,2.7723683156129653e-05,0.0591566895057732,-0.0010032572030603,-0.0027435756908237,0.0027227138835027,0.7069005324475347,0.7073024083423788,"(1e-05, 0.0, 0.0, 0.0, 0.0, 0.0, 0.0, 1e-05, 0.0, 0.0, 0.0, 0.0, 0.0, 0.0, 1000000000000.0, 0.0, 0.0, 0.0, 0.0, 0.0, 0.0, 1000000000000.0, 0.0, 0.0, 0.0, 0.0, 0.0, 0.0, 1000000000000.0, 0.0, 0.0, 0.0, 0.0, 0.0, 0.0, 0.001)",0.205468972555938,-3.3413405204874496e-05,0.0,0.0,0.0,0.0622289444447869,"(0.0, 0.0, 0.0, 0.0, 0.0, 0.0, 0.0, 0.0, 0.0, 0.0, 0.0, 0.0, 0.0, 0.0, 0.0, 0.0, 0.0, 0.0, 0.0, 0.0, 0.0, 0.0, 0.0, 0.0, 0.0, 0.0, 0.0, 0.0, 0.0, 0.0, 0.0, 0.0, 0.0, 0.0, 0.0, 0.0)",0.2199999988079071,9.160857007373124e-05,0.0,0.0,0.0,0.0065680420957505,42,1,869000000,base_footprint,-0.0027469300287874,0.0027240457067193,0.7081746257057293,0.706026722905695,0.0,0.0,0.0,0.0,0.0,0.0,0.0,0.0,0.0,-9.038275211342944e-05,0.0011197960734422,0.0839523318648856,0.0,0.0,0.0,0.0,0.0,0.0,0.0,0.0,0.0,-0.0031580223156578,-0.0194929061749921,0.0045049471700243,0.0,0.0,0.0,0.0,0.0,0.0,0.0,0.0,0.0
1.903,1.576592651135437,-3.187127422964874e-05,0.007090546065721404,0.0027587869134910736,1.5944841503420475,0.2123375079175833,-0.005029343050920322,0.2122779380367303,0.08558229239837975,0.19155663846314516,0.07827499532200971,-0.00017760014485526264,0.007068605853111081,0.002849890336866046,44.0,1.0,857000000.0,odom,base_footprint,2.2826631658162524e-05,0.065985797995515,-0.0010037138107053,-0.0027468428662606,0.0027265686142814,0.7078488546981961,0.7063533248879853,"(1e-05, 0.0, 0.0, 0.0, 0.0, 0.0, 0.0, 1e-05, 0.0, 0.0, 0.0, 0.0, 0.0, 0.0, 1000000000000.0, 0.0, 0.0, 0.0, 0.0, 0.0, 0.0, 1000000000000.0, 0.0, 0.0, 0.0, 0.0, 0.0, 0.0, 1000000000000.0, 0.0, 0.0, 0.0, 0.0, 0.0, 0.0, 0.001)",0.2071710963147349,-2.509799776516104e-06,0.0,0.0,0.0,0.0837902445912765,"(0.0, 0.0, 0.0, 0.0, 0.0, 0.0, 0.0, 0.0, 0.0, 0.0, 0.0, 0.0, 0.0, 0.0, 0.0, 0.0, 0.0, 0.0, 0.0, 0.0, 0.0, 0.0, 0.0, 0.0, 0.0, 0.0, 0.0, 0.0, 0.0, 0.0, 0.0, 0.0, 0.0, 0.0, 0.0, 0.0)",0.2199999988079071,9.160857007373124e-05,0.0,0.0,0.0,0.0065680420957505,43,1,903000000,base_footprint,-0.0027397800982679,0.0027145975125207,0.7091478623531876,0.7050492421705471,0.0,0.0,0.0,0.0,0.0,0.0,0.0,0.0,0.0,-0.0013051266737862,-0.0021364858764994,0.0640012044216559,0.0,0.0,0.0,0.0,0.0,0.0,0.0,0.0,0.0,-0.2042730028293591,-0.0199377058700062,-0.0038804038303495,0.0,0.0,0.0,0.0,0.0,0.0,0.0,0.0,0.0
1.937,1.5771636727392682,-4.548508015773787e-05,0.0074420881585285925,0.0005710216038312677,1.5973340406789136,0.2177635025299607,-0.0057782672444262745,0.2176868270285738,0.006473263259513121,0.16294278115247493,-2.375646520686685,-0.00019324940321465767,0.007248949164235852,0.00021555966654178695,45.0,1.0,891000000.0,odom,base_footprint,-2.216190675908792e-06,0.073031630442087,-0.0010031061082072,-0.0027470331349546,0.0027197995938496,0.7088547694958393,0.705343868097062,"(1e-05, 0.0, 0.0, 0.0, 0.0, 0.0, 0.0, 1e-05, 0.0, 0.0, 0.0, 0.0, 0.0, 0.0, 1000000000000.0, 0.0, 0.0, 0.0, 0.0, 0.0, 0.0, 1000000000000.0, 0.0, 0.0, 0.0, 0.0, 0.0, 0.0, 1000000000000.0, 0.0, 0.0, 0.0, 0.0, 0.0, 0.0, 0.001)",0.2073108423173651,-3.528839715224042e-06,0.0,0.0,0.0,0.0837598789672359,"(0.0, 0.0, 0.0, 0.0, 0.0, 0.0, 0.0, 0.0, 0.0, 0.0, 0.0, 0.0, 0.0, 0.0, 0.0, 0.0, 0.0, 0.0, 0.0, 0.0, 0.0, 0.0, 0.0, 0.0, 0.0, 0.0, 0.0, 0.0, 0.0, 0.0, 0.0, 0.0, 0.0, 0.0, 0.0, 0.0)",0.2199999988079071,9.160857007373124e-05,0.0,0.0,0.0,0.0065680420957505,44,1,937000000,base_footprint,-0.0027450317986556,0.0027156299237235,0.7093491255218723,0.7048467267966113,0.0,0.0,0.0,0.0,0.0,0.0,0.0,0.0,0.0,-9.477972643648992e-05,0.0004991097574504,0.0078545954434295,0.0,0.0,0.0,0.0,0.0,0.0,0.0,0.0,0.0,-0.1667898883101445,-0.0060134055740883,0.0039142527311638,0.0,0.0,0.0,0.0,0.0,0.0,0.0,0.0,0.0
1.971,1.576503756120208,-4.821932592247734e-05,0.00748245189967911,-0.0006599166190601745,1.5975496003454552,0.21789733932055014,-0.0058287717548212575,0.21781936530713972,0.007804040239009466,0.004019122840523289,0.039963272657547885,-0.00019509242633079088,0.007253358168255154,0.0002598745399590152,45.0,1.0,891000000.0,odom,base_footprint,-2.216190675908792e-06,0.073031630442087,-0.0010031061082072,-0.0027470331349546,0.0027197995938496,0.7088547694958393,0.705343868097062,"(1e-05, 0.0, 0.0, 0.0, 0.0, 0.0, 0.0, 1e-05, 0.0, 0.0, 0.0, 0.0, 0.0, 0.0, 1000000000000.0, 0.0, 0.0, 0.0, 0.0, 0.0, 0.0, 1000000000000.0, 0.0, 0.0, 0.0, 0.0, 0.0, 0.0, 1000000000000.0, 0.0, 0.0, 0.0, 0.0, 0.0, 0.0, 0.001)",0.2073108423173651,-3.528839715224042e-06,0.0,0.0,0.0,0.0837598789672359,"(0.0, 0.0, 0.0, 0.0, 0.0, 0.0, 0.0, 0.0, 0.0, 0.0, 0.0, 0.0, 0.0, 0.0, 0.0, 0.0, 0.0, 0.0, 0.0, 0.0, 0.0, 0.0, 0.0, 0.0, 0.0, 0.0, 0.0, 0.0, 0.0, 0.0, 0.0, 0.0, 0.0, 0.0, 0.0, 0.0)",0.2199999988079071,7.319487485801801e-05,0.0,0.0,0.0,-0.0824610367417335,45,1,971000000,base_footprint,-0.0027430273547139,0.002716211904389,0.709116518148515,0.705080748342166,0.0,0.0,0.0,0.0,0.0,0.0,0.0,0.0,0.0,-8.413983239402665e-05,-0.0012306904809295,-0.0827127584340891,0.0,0.0,0.0,0.0,0.0,0.0,0.0,0.0,0.0,-0.0299024537794712,-0.0001078180358058,-0.001332157402565,0.0,0.0,0.0,0.0,0.0,0.0,0.0,0.0,0.0
2.005,1.5737121223273889,-3.4324272447699985e-05,0.007510957988293099,-0.0027916337928191037,1.5978094748854144,0.22466738341520678,-0.0060682352276441275,0.22458541736243146,-0.08279591016572194,0.20330462746716654,-2.720719231373315,-0.0001918156717783006,0.007478962119194631,-0.0027571038085185406,47.0,1.0,957000000.0,odom,base_footprint,-9.060818010777484e-05,0.0874145001262448,-0.0010024032050074,-0.0027444454288573,0.0027151642589471,0.7094066795527377,0.7047888044714489,"(1e-05, 0.0, 0.0, 0.0, 0.0, 0.0, 0.0, 1e-05, 0.0, 0.0, 0.0, 0.0, 0.0, 0.0, 1000000000000.0, 0.0, 0.0, 0.0, 0.0, 0.0, 0.0, 1000000000000.0, 0.0, 0.0, 0.0, 0.0, 0.0, 0.0, 1000000000000.0, 0.0, 0.0, 0.0, 0.0, 0.0, 0.0, 0.001)",0.2199294703293824,2.3192706351145547e-05,0.0,0.0,0.0,0.007648079468535,"(0.0, 0.0, 0.0, 0.0, 0.0, 0.0, 0.0, 0.0, 0.0, 0.0, 0.0, 0.0, 0.0, 0.0, 0.0, 0.0, 0.0, 0.0, 0.0, 0.0, 0.0, 0.0, 0.0, 0.0, 0.0, 0.0, 0.0, 0.0, 0.0, 0.0, 0.0, 0.0, 0.0, 0.0, 0.0, 0.0)",0.2199999988079071,7.319487485801801e-05,0.0,0.0,0.0,-0.0824610367417335,46,2,5000000,base_footprint,-0.0027403007489098,0.00272141464724,0.7081316587421392,0.7060698538680361,0.0,0.0,0.0,0.0,0.0,0.0,0.0,0.0,0.0,-5.414476119408814e-05,-0.0005388806820189,-0.0821681864913736,0.0,0.0,0.0,0.0,0.0,0.0,0.0,0.0,0.0,-0.0052580837753732,0.0213953661114713,0.0006135668222378,0.0,0.0,0.0,0.0,0.0,0.0,0.0,0.0,0.0
2.039,1.5709105410267656,-1.2620945486200018e-05,0.007517196476902688,-0.002801581300623246,1.5950523710768958,0.21827051748211626,-0.005293860189743901,0.21820631028043685,-0.08141686964340915,-0.19209807606878446,0.041412628297681324,-0.00016648718285057238,0.007266499011679898,-0.002711181759125525,47.0,1.0,957000000.0,odom,base_footprint,-9.060818010777484e-05,0.0874145001262448,-0.0010024032050074,-0.0027444454288573,0.0027151642589471,0.7094066795527377,0.7047888044714489,"(1e-05, 0.0, 0.0, 0.0, 0.0, 0.0, 0.0, 1e-05, 0.0, 0.0, 0.0, 0.0, 0.0, 0.0, 1000000000000.0, 0.0, 0.0, 0.0, 0.0, 0.0, 0.0, 1000000000000.0, 0.0, 0.0, 0.0, 0.0, 0.0, 0.0, 1000000000000.0, 0.0, 0.0, 0.0, 0.0, 0.0, 0.0, 0.001)",0.2199294703293824,2.3192706351145547e-05,0.0,0.0,0.0,0.007648079468535,"(0.0, 0.0, 0.0, 0.0, 0.0, 0.0, 0.0, 0.0, 0.0, 0.0, 0.0, 0.0, 0.0, 0.0, 0.0, 0.0, 0.0, 0.0, 0.0, 0.0, 0.0, 0.0, 0.0, 0.0, 0.0, 0.0, 0.0, 0.0, 0.0, 0.0, 0.0, 0.0, 0.0, 0.0, 0.0, 0.0)",0.2199999988079071,7.319487485801801e-05,0.0,0.0,0.0,-0.0824610367417335,47,2,39000000,base_footprint,-0.0027384274839022,0.0027271462291631,0.7071419009529295,0.7070610975050442,0.0,0.0,0.0,0.0,0.0,0.0,0.0,0.0,0.0,-4.137163067894864e-05,-0.0006438054605063,-0.0826329182529397,0.0,0.0,0.0,0.0,0.0,0.0,0.0,0.0,0.0,-0.0057161163602767,0.018400105701693,-0.0003671789926166,0.0,0.0,0.0,0.0,0.0,0.0,0.0,0.0,0.0
2.073,1.5682096969296093,8.5613031165e-06,0.00752245647825571,-0.002700844097156318,1.5923411893177704,0.21844583333587456,-0.004706021353836462,0.21839513608325148,-0.08185690624570162,0.0052647403531019665,-0.013214312381155273,-0.00014685040936916573,0.0072727615594339184,-0.0027258349779818642,49.0,2.0,24000000.0,odom,base_footprint,-0.0001530000130741,0.1022119169095402,-0.0010027689649541,-0.0027390238355324,0.0027246518337171,0.7075502882332599,0.7066524348234033,"(1e-05, 0.0, 0.0, 0.0, 0.0, 0.0, 0.0, 1e-05, 0.0, 0.0, 0.0, 0.0, 0.0, 0.0, 1000000000000.0, 0.0, 0.0, 0.0, 0.0, 0.0, 0.0, 1000000000000.0, 0.0, 0.0, 0.0, 0.0, 0.0, 0.0, 1000000000000.0, 0.0, 0.0, 0.0, 0.0, 0.0, 0.0, 0.001)",0.2211207097444463,4.970977267898963e-05,0.0,0.0,0.0,-0.0824463668123475,"(0.0, 0.0, 0.0, 0.0, 0.0, 0.0, 0.0, 0.0, 0.0, 0.0, 0.0, 0.0, 0.0, 0.0, 0.0, 0.0, 0.0, 0.0, 0.0, 0.0, 0.0, 0.0, 0.0, 0.0, 0.0, 0.0, 0.0, 0.0, 0.0, 0.0, 0.0, 0.0, 0.0, 0.0, 0.0, 0.0)",0.2199999988079071,4.97097717016004e-05,0.0,0.0,0.0,-0.0742412284016609,48,2,73000000,base_footprint,-0.002738466595605,0.0027340074917644,0.7061864133814447,0.7080153780527589,0.0,0.0,0.0,0.0,0.0,0.0,0.0,0.0,0.0,-4.5343131030150966e-05,-0.0006471503445385,-0.0746922831909374,0.0,0.0,0.0,0.0,0.0,0.0,0.0,0.0,0.0,-0.0027361299616667,0.0183026371794812,-0.0003268727765229,0.0,0.0,0.0,0.0,0.0,0.0,0.0,0.0,0.0
2.107,1.5656633151707346,2.894466101680001e-05,0.007525489018159304,-0.0025463817588746718,1.5896153543397884,0.22522447559213457,-0.004238255432493068,0.22518459449225423,-0.07654256465573733,0.20356283051831875,0.15958983753646502,-0.00013163082831231556,0.007498817802210101,-0.0025488674030360535,51.0,2.0,91000000.0,odom,base_footprint,-0.0001334161907849,0.1170355413625491,-0.0010039086528821,-0.0027383630096624,0.0027375172433539,0.7056827235883111,0.7085173963964138,"(1e-05, 0.0, 0.0, 0.0, 0.0, 0.0, 0.0, 1e-05, 0.0, 0.0, 0.0, 0.0, 0.0, 0.0, 1000000000000.0, 0.0, 0.0, 0.0, 0.0, 0.0, 0.0, 1000000000000.0, 0.0, 0.0, 0.0, 0.0, 0.0, 0.0, 1000000000000.0, 0.0, 0.0, 0.0, 0.0, 0.0, 0.0, 0.001)",0.2213612719867446,1.4277117531116173e-05,0.0,0.0,0.0,-0.0749269189314172,"(0.0, 0.0, 0.0, 0.0, 0.0, 0.0, 0.0, 0.0, 0.0, 0.0, 0.0, 0.0, 0.0, 0.0, 0.0, 0.0, 0.0, 0.0, 0.0, 0.0, 0.0, 0.0, 0.0, 0.0, 0.0, 0.0, 0.0, 0.0, 0.0, 0.0, 0.0, 0.0, 0.0, 0.0, 0.0, 0.0)",0.2199999988079071,4.97097717016004e-05,0.0,0.0,0.0,-0.0742412284016609,49,2,107000000,base_footprint,-0.0027375319645274,0.0027401252237911,0.7052843924110429,0.7089139041194547,0.0,0.0,0.0,0.0,0.0,0.0,0.0,0.0,0.0,-4.641709503462732e-05,-0.0006277259273175,-0.0749630642979169,0.0,0.0,0.0,0.0,0.0,0.0,0.0,0.0,0.0,-0.0025113384535786,0.017204936225089,-0.0002796085583416,0.0,0.0,0.0,0.0,0.0,0.0,0.0,0.0,0.0
2.141,1.5631196170598354,4.8662705461962016e-05,0.007524994342670982,-0.0025436981108992725,1.5870664869367523,0.21865952799451568,-0.0035574685777722075,0.21863058706435054,-0.07423760845501387,-0.19714557350206866,0.0692179039256295,-0.00010951664425298715,0.007280536778871024,-0.0024721123615519622,51.0,2.0,91000000.0,odom,base_footprint,-0.0001334161907849,0.1170355413625491,-0.0010039086528821,-0.0027383630096624,0.0027375172433539,0.7056827235883111,0.7085173963964138,"(1e-05, 0.0, 0.0, 0.0, 0.0, 0.0, 0.0, 1e-05, 0.0, 0.0, 0.0, 0.0, 0.0, 0.0, 1000000000000.0, 0.0, 0.0, 0.0, 0.0, 0.0, 0.0, 1000000000000.0, 0.0, 0.0, 0.0, 0.0, 0.0, 0.0, 1000000000000.0, 0.0, 0.0, 0.0, 0.0, 0.0, 0.0, 0.001)",0.2213612719867446,1.4277117531116173e-05,0.0,0.0,0.0,-0.0749269189314172,"(0.0, 0.0, 0.0, 0.0, 0.0, 0.0, 0.0, 0.0, 0.0, 0.0, 0.0, 0.0, 0.0, 0.0, 0.0, 0.0, 0.0, 0.0, 0.0, 0.0, 0.0, 0.0, 0.0, 0.0, 0.0, 0.0, 0.0, 0.0, 0.0, 0.0, 0.0, 0.0, 0.0, 0.0, 0.0, 0.0)",0.2199999988079071,4.97097717016004e-05,0.0,0.0,0.0,-0.0742412284016609,50,2,141000000,base_footprint,-0.0027358257442641,0.0027460658029848,0.7043821812772848,0.7098103388083025,0.0,0.0,0.0,0.0,0.0,0.0,0.0,0.0,0.0,-4.957844400277004e-05,-0.000599827897224,-0.0745603052811722,0.0,0.0,0.0,0.0,0.0,0.0,0.0,0.0,0.0,0.0040524293560056,0.016827459749273,-9.755163110376104e-05,0.0,0.0,0.0,0.0,0.0,0.0,0.0,0.0,0.0
2.175,1.5612349004666954,6.629440769207381e-05,0.007508721430811799,-0.0018847165931399348,1.5845943745752005,0.21854165201785306,-0.003015352474192664,0.2185208486990401,-0.0740428752380766,-0.0035398191189978724,0.005847844352470756,-9.149228096015476e-05,0.007276860023277447,-0.002465627745427951,52.0,2.0,124000000.0,odom,base_footprint,-9.47457980254192e-05,0.1243404121000884,-0.0010042826425114,-0.0027366798952962,0.0027433464558161,0.7048062341162232,0.7093892845147027,"(1e-05, 0.0, 0.0, 0.0, 0.0, 0.0, 0.0, 1e-05, 0.0, 0.0, 0.0, 0.0, 0.0, 0.0, 1000000000000.0, 0.0, 0.0, 0.0, 0.0, 0.0, 0.0, 1000000000000.0, 0.0, 0.0, 0.0, 0.0, 0.0, 0.0, 1000000000000.0, 0.0, 0.0, 0.0, 0.0, 0.0, 0.0, 0.001)",0.2213505987448379,6.692239566722345e-07,0.0,0.0,0.0,-0.0748708136753717,"(0.0, 0.0, 0.0, 0.0, 0.0, 0.0, 0.0, 0.0, 0.0, 0.0, 0.0, 0.0, 0.0, 0.0, 0.0, 0.0, 0.0, 0.0, 0.0, 0.0, 0.0, 0.0, 0.0, 0.0, 0.0, 0.0, 0.0, 0.0, 0.0, 0.0, 0.0, 0.0, 0.0, 0.0, 0.0, 0.0)",0.2199999988079071,6.692239367112052e-07,0.0,0.0,0.0,0.0153855932876467,50,2,141000000,base_footprint,-0.0027358257442641,0.0027460658029848,0.7043821812772848,0.7098103388083025,0.0,0.0,0.0,0.0,0.0,0.0,0.0,0.0,0.0,-4.957844400277004e-05,-0.000599827897224,-0.0745603052811722,0.0,0.0,0.0,0.0,0.0,0.0,0.0,0.0,0.0,0.0040524293560056,0.016827459749273,-9.755163110376104e-05,0.0,0.0,0.0,0.0,0.0,0.0,0.0,0.0,0.0
2.209,1.5610856223791076,7.403466143773334e-05,0.0074375372124941,-0.0001492780875878008,1.5821287468297724,0.22488213113972685,-0.0025484042216609906,0.22486769119166128,0.01244990126654534,0.1904047784346486,2.597380675814472,-8.646759328799491e-05,0.007488075693243409,0.0004145817121759599,54.0,2.0,191000000.0,odom,base_footprint,3.550436578874282e-05,0.1391181932474156,-0.0010045646479219,-0.0027386913877314,0.0027430603675856,0.7036890453053629,0.7104975036596045,"(1e-05, 0.0, 0.0, 0.0, 0.0, 0.0, 0.0, 1e-05, 0.0, 0.0, 0.0, 0.0, 0.0, 0.0, 1000000000000.0, 0.0, 0.0, 0.0, 0.0, 0.0, 0.0, 1000000000000.0, 0.0, 0.0, 0.0, 0.0, 0.0, 0.0, 1000000000000.0, 0.0, 0.0, 0.0, 0.0, 0.0, 0.0, 0.001)",0.2188105042493091,-0.0002111231737092,0.0,0.0,0.0,0.0010550395144016,"(0.0, 0.0, 0.0, 0.0, 0.0, 0.0, 0.0, 0.0, 0.0, 0.0, 0.0, 0.0, 0.0, 0.0, 0.0, 0.0, 0.0, 0.0, 0.0, 0.0, 0.0, 0.0, 0.0, 0.0, 0.0, 0.0, 0.0, 0.0, 0.0, 0.0, 0.0, 0.0, 0.0, 0.0, 0.0, 0.0)",0.2199999988079071,6.692239367112052e-07,0.0,0.0,0.0,0.0153855932876467,52,2,209000000,base_footprint,-0.0027355957652783,0.0027415378137211,0.7036599702425899,0.71052631672896,0.0,0.0,0.0,0.0,0.0,0.0,0.0,0.0,0.0,-0.0002993175775392,-0.0003174315925944,-0.0134658471582543,0.0,0.0,0.0,0.0,0.0,0.0,0.0,0.0,0.0,0.0701820290559979,-0.0110702635402336,0.0024384969032592,0.0,0.0,0.0,0.0,0.0,0.0,0.0,0.0,0.0
2.243,1.5604489361204636,6.536103691843085e-05,0.007386364754451813,-0.0006366862586439925,1.5825433285419483,0.2179638995235866,-0.002560363422583515,0.2179488610538547,0.014668328100705225,-0.20775470318739478,0.06661942444924576,-8.708450385496245e-05,0.00725767533936004,0.000488455325753484,54.0,2.0,191000000.0,odom,base_footprint,3.550436578874282e-05,0.1391181932474156,-0.0010045646479219,-0.0027386913877314,0.0027430603675856,0.7036890453053629,0.7104975036596045,"(1e-05, 0.0, 0.0, 0.0, 0.0, 0.0, 0.0, 1e-05, 0.0, 0.0, 0.0, 0.0, 0.0, 0.0, 1000000000000.0, 0.0, 0.0, 0.0, 0.0, 0.0, 0.0, 1000000000000.0, 0.0, 0.0, 0.0, 0.0, 0.0, 0.0, 1000000000000.0, 0.0, 0.0, 0.0, 0.0, 0.0, 0.0, 0.001)",0.2188105042493091,-0.0002111231737092,0.0,0.0,0.0,0.0010550395144016,"(0.0, 0.0, 0.0, 0.0, 0.0, 0.0, 0.0, 0.0, 0.0, 0.0, 0.0, 0.0, 0.0, 0.0, 0.0, 0.0, 0.0, 0.0, 0.0, 0.0, 0.0, 0.0, 0.0, 0.0, 0.0, 0.0, 0.0, 0.0, 0.0, 0.0, 0.0, 0.0, 0.0, 0.0, 0.0, 0.0)",0.2199999988079071,6.692239367112052e-07,0.0,0.0,0.0,0.0153855932876467,53,2,243000000,base_footprint,-0.0027325443600499,0.0027414106184737,0.7034337471820934,0.7107502945440823,0.0,0.0,0.0,0.0,0.0,0.0,0.0,0.0,0.0,0.0004222063095865,-0.0001731758357623,-0.0108949744942768,0.0,0.0,0.0,0.0,0.0,0.0,0.0,0.0,0.0,0.0050512525918629,0.0123788434303515,0.0011961693564974,0.0,0.0,0.0,0.0,0.0,0.0,0.0,0.0,0.0
2.277,1.5606631078403206,7.593441063130001e-05,0.007431012261970599,0.00021417171985693706,1.583031783867702,0.21767336731137046,-0.002663266689121564,0.21765707396547773,0.015800872774122992,-0.008724691057541848,0.03401035055308609,-9.064541362832567e-05,0.007247956248779633,0.0005261690633782957,56.0,2.0,257000000.0,odom,base_footprint,0.0001690978370583,0.1534816431156967,-0.0010040257061145,-0.0027329887732304,0.002742306615115,0.7034202182583067,0.7107636787795437,"(1e-05, 0.0, 0.0, 0.0, 0.0, 0.0, 0.0, 1e-05, 0.0, 0.0, 0.0, 0.0, 0.0, 0.0, 1000000000000.0, 0.0, 0.0, 0.0, 0.0, 0.0, 0.0, 1000000000000.0, 0.0, 0.0, 0.0, 0.0, 0.0, 0.0, 1000000000000.0, 0.0, 0.0, 0.0, 0.0, 0.0, 0.0, 0.001)",0.2184097892979152,3.6629794514450587e-05,0.0,0.0,0.0,0.0046350232307032,"(0.0, 0.0, 0.0, 0.0, 0.0, 0.0, 0.0, 0.0, 0.0, 0.0, 0.0, 0.0, 0.0, 0.0, 0.0, 0.0, 0.0, 0.0, 0.0, 0.0, 0.0, 0.0, 0.0, 0.0, 0.0, 0.0, 0.0, 0.0, 0.0, 0.0, 0.0, 0.0, 0.0, 0.0, 0.0, 0.0)",0.2199999988079071,0.0002543762675486,0.0,0.0,0.0,0.0192494876682758,54,2,277000000,base_footprint,-0.0027335837681217,0.0027490065001439,0.7035098240166285,0.7106749594541355,0.0,0.0,0.0,0.0,0.0,0.0,0.0,0.0,0.0,0.0002799550306103,0.0008500186716459,0.0160821849153462,0.0,0.0,0.0,0.0,0.0,0.0,0.0,0.0,0.0,-0.0565332995048108,0.0018079700297013,0.0003228824038192,0.0,0.0,0.0,0.0,0.0,0.0,0.0,0.0,0.0
2.311,1.561278201653362,7.184553623809997e-05,0.00745326115969519,0.0006150938130413673,1.5835579529310801,0.2239740473113571,-0.0028581954739968136,0.22395580945280805,0.015778051466639083,0.18920960960920793,-0.0006853245490663399,-9.719038873478782e-05,0.007457702413498988,0.0005254091138390815,57.0,2.0,291000000.0,odom,base_footprint,0.0002442292703438,0.1609326417967777,-0.001004189482323,-0.002732465022699,0.0027461285375909,0.7035943370239384,0.7105913040002666,"(1e-05, 0.0, 0.0, 0.0, 0.0, 0.0, 0.0, 1e-05, 0.0, 0.0, 0.0, 0.0, 0.0, 0.0, 1000000000000.0, 0.0, 0.0, 0.0, 0.0, 0.0, 0.0, 1000000000000.0, 0.0, 0.0, 0.0, 0.0, 0.0, 0.0, 1000000000000.0, 0.0, 0.0, 0.0, 0.0, 0.0, 0.0, 0.001)",0.2192336410924324,2.63662260288006e-05,0.0,0.0,0.0,0.0162533486866549,"(0.0, 0.0, 0.0, 0.0, 0.0, 0.0, 0.0, 0.0, 0.0, 0.0, 0.0, 0.0, 0.0, 0.0, 0.0, 0.0, 0.0, 0.0, 0.0, 0.0, 0.0, 0.0, 0.0, 0.0, 0.0, 0.0, 0.0, 0.0, 0.0, 0.0, 0.0, 0.0, 0.0, 0.0, 0.0, 0.0)",0.2199999988079071,0.0002543762675486,0.0,0.0,0.0,0.0192494876682758,55,2,311000000,base_footprint,-0.0027319232603256,0.0027442120403545,0.7037283718165237,0.710458573455231,0.0,0.0,0.0,0.0,0.0,0.0,0.0,0.0,0.0,3.35643498411132e-05,0.0003405335101823,0.0200543357917469,0.0,0.0,0.0,0.0,0.0,0.0,0.0,0.0,0.0,0.0031854347806763,-0.004337629664394,-0.0008339023587791,0.0,0.0,0.0,0.0,0.0,0.0,0.0,0.0,0.0
2.345,1.5619656945627611,6.7467025219e-05,0.007456008539481501,0.000687492909399179,1.5840833620449193,0.2174264371274843,-0.0028888677299761228,0.21740724460144054,0.01979562741713539,-0.19662493044663024,0.12064792644133049,-9.86372063249097e-05,0.007239628309059735,0.0006591943929906085,57.0,2.0,291000000.0,odom,base_footprint,0.0002442292703438,0.1609326417967777,-0.001004189482323,-0.002732465022699,0.0027461285375909,0.7035943370239384,0.7105913040002666,"(1e-05, 0.0, 0.0, 0.0, 0.0, 0.0, 0.0, 1e-05, 0.0, 0.0, 0.0, 0.0, 0.0, 0.0, 1000000000000.0, 0.0, 0.0, 0.0, 0.0, 0.0, 0.0, 1000000000000.0, 0.0, 0.0, 0.0, 0.0, 0.0, 0.0, 1000000000000.0, 0.0, 0.0, 0.0, 0.0, 0.0, 0.0, 0.001)",0.2192336410924324,2.63662260288006e-05,0.0,0.0,0.0,0.0162533486866549,"(0.0, 0.0, 0.0, 0.0, 0.0, 0.0, 0.0, 0.0, 0.0, 0.0, 0.0, 0.0, 0.0, 0.0, 0.0, 0.0, 0.0, 0.0, 0.0, 0.0, 0.0, 0.0, 0.0, 0.0, 0.0, 0.0, 0.0, 0.0, 0.0, 0.0, 0.0, 0.0, 0.0, 0.0, 0.0, 0.0)",0.2199999988079071,0.0002543762675486,0.0,0.0,0.0,0.0192494876682758,56,2,345000000,base_footprint,-0.0027301253997824,0.0027403474536598,0.703972559049671,0.7102166380874165,0.0,0.0,0.0,0.0,0.0,0.0,0.0,0.0,0.0,-8.789312149809223e-05,0.0005862451839175,0.0202447907271909,0.0,0.0,0.0,0.0,0.0,0.0,0.0,0.0,0.0,-0.0041702844536233,-0.0035992908530839,0.0007495751271143,0.0,0.0,0.0,0.0,0.0,0.0,0.0,0.0,0.0
2.379,1.562614147989023,6.137647569690003e-05,0.007255083253528499,0.0006484534262618524,1.5847425564379098,0.21754242687784403,-0.003033798295831587,0.2175212715110923,0.0200495719627704,0.0034831756864783653,0.007625962331381737,-0.00010349529888520224,0.007243423338756844,0.0006676507463602544,58.0,2.0,324000000.0,odom,base_footprint,0.000312289872327,0.1681674747462201,-0.0010038362805436,-0.0027317671312133,0.0027429305649463,0.7038284665306342,0.7103594185209292,"(1e-05, 0.0, 0.0, 0.0, 0.0, 0.0, 0.0, 1e-05, 0.0, 0.0, 0.0, 0.0, 0.0, 0.0, 1000000000000.0, 0.0, 0.0, 0.0, 0.0, 0.0, 0.0, 1000000000000.0, 0.0, 0.0, 0.0, 0.0, 0.0, 0.0, 1000000000000.0, 0.0, 0.0, 0.0, 0.0, 0.0, 0.0, 0.001)",0.2192836425793616,2.828096174804741e-05,0.0,0.0,0.0,0.0202738940803183,"(0.0, 0.0, 0.0, 0.0, 0.0, 0.0, 0.0, 0.0, 0.0, 0.0, 0.0, 0.0, 0.0, 0.0, 0.0, 0.0, 0.0, 0.0, 0.0, 0.0, 0.0, 0.0, 0.0, 0.0, 0.0, 0.0, 0.0, 0.0, 0.0, 0.0, 0.0, 0.0, 0.0, 0.0, 0.0, 0.0)",0.2084210515022277,2.828096148732584e-05,0.0,0.0,0.0,0.0284790229052305,57,2,379000000,base_footprint,-0.0027319449719275,0.002739004115723,0.7042027950464338,0.7099883504550726,0.0,0.0,0.0,0.0,0.0,0.0,0.0,0.0,0.0,0.000381934812181,0.0018486845697193,0.0362113978531909,0.0,0.0,0.0,0.0,0.0,0.0,0.0,0.0,0.0,0.5200978992079577,-0.0143096646744533,0.000664090352802,0.0,0.0,0.0,0.0,0.0,0.0,0.0,0.0,0.0
2.4130000000000003,1.565039232127664,4.688074306369999e-05,0.006838460252017897,0.0024250841386410644,1.5854102071842702,0.20143268643551943,-0.0029436084079346343,0.20141117728212363,0.0983744304015284,-0.4837759892589971,2.3520978510137533,-0.0001090555248109146,0.006706818874669431,0.0032758685323708964,60.0,2.0,391000000.0,odom,base_footprint,0.0004325938557037,0.1823832121137697,-0.0010025755720775,-0.0027267346913246,0.0027354822526713,0.7045582216683696,0.7096356771853238,"(1e-05, 0.0, 0.0, 0.0, 0.0, 0.0, 0.0, 1e-05, 0.0, 0.0, 0.0, 0.0, 0.0, 0.0, 1000000000000.0, 0.0, 0.0, 0.0, 0.0, 0.0, 0.0, 1000000000000.0, 0.0, 0.0, 0.0, 0.0, 0.0, 0.0, 1000000000000.0, 0.0, 0.0, 0.0, 0.0, 0.0, 0.0, 0.001)",0.1960582754739237,-8.48671327861256e-05,0.0,0.0,0.0,0.0978545063093866,"(0.0, 0.0, 0.0, 0.0, 0.0, 0.0, 0.0, 0.0, 0.0, 0.0, 0.0, 0.0, 0.0, 0.0, 0.0, 0.0, 0.0, 0.0, 0.0, 0.0, 0.0, 0.0, 0.0, 0.0, 0.0, 0.0, 0.0, 0.0, 0.0, 0.0, 0.0, 0.0, 0.0, 0.0, 0.0, 0.0)",0.2084210515022277,2.828096148732584e-05,0.0,0.0,0.0,0.0284790229052305,58,2,413000000,base_footprint,-0.0027277413181239,0.002731215473498,0.7050631849770624,0.7091339824598306,0.0,0.0,0.0,0.0,0.0,0.0,0.0,0.0,0.0,0.0009161360319602,-0.0022862802286569,0.0301969184387949,0.0,0.0,0.0,0.0,0.0,0.0,0.0,0.0,0.0,-0.1810629313423541,-0.0114393946686429,-0.0046405439491812,0.0,0.0,0.0,0.0,0.0,0.0,0.0,0.0,0.0
2.447,1.5660109294678768,3.638219786400004e-05,0.007077793392328613,0.0009716973402127406,1.588686075716641,0.20636203228246566,-0.0036915680270056556,0.20632901078920388,0.028227326352099284,0.14802840381219928,-2.1065196411239975,-0.00012620745808066954,0.006870696370727393,0.0009399699675249062,60.0,2.0,391000000.0,odom,base_footprint,0.0004325938557037,0.1823832121137697,-0.0010025755720775,-0.0027267346913246,0.0027354822526713,0.7045582216683696,0.7096356771853238,"(1e-05, 0.0, 0.0, 0.0, 0.0, 0.0, 0.0, 1e-05, 0.0, 0.0, 0.0, 0.0, 0.0, 0.0, 1000000000000.0, 0.0, 0.0, 0.0, 0.0, 0.0, 0.0, 1000000000000.0, 0.0, 0.0, 0.0, 0.0, 0.0, 0.0, 1000000000000.0, 0.0, 0.0, 0.0, 0.0, 0.0, 0.0, 0.001)",0.1960582754739237,-8.48671327861256e-05,0.0,0.0,0.0,0.0978545063093866,"(0.0, 0.0, 0.0, 0.0, 0.0, 0.0, 0.0, 0.0, 0.0, 0.0, 0.0, 0.0, 0.0, 0.0, 0.0, 0.0, 0.0, 0.0, 0.0, 0.0, 0.0, 0.0, 0.0, 0.0, 0.0, 0.0, 0.0, 0.0, 0.0, 0.0, 0.0, 0.0, 0.0, 0.0, 0.0, 0.0)",0.2084210515022277,2.828096148732584e-05,0.0,0.0,0.0,0.0284790229052305,59,2,447000000,base_footprint,-0.0027301675513747,0.0027316768541974,0.7054076266868513,0.7087913404795022,0.0,0.0,0.0,0.0,0.0,0.0,0.0,0.0,0.0,-5.132690139179744e-05,0.0004105561069424,0.0284808398694806,0.0,0.0,0.0,0.0,0.0,0.0,0.0,0.0,0.0,-0.0120618324417272,-0.0050382815284341,0.003723993770432,0.0,0.0,0.0,0.0,0.0,0.0,0.0,0.0,0.0
2.481,1.5669712239478724,2.9978194995299912e-05,0.007082950670918603,0.0009602944799955714,1.589626045684166,0.20656233693152226,-0.0038892808985445055,0.2065257188165773,0.028296494678816154,0.006015154626324279,0.0020771269284345414,-0.00013280234127960983,0.006877243451508169,0.0009422732728045781,62.0,2.0,457000000.0,odom,base_footprint,0.000506549693297,0.1960160773213186,-0.0010026193033309,-0.0027306285838671,0.0027313815025609,0.7055182530053321,0.708681224457745,"(1e-05, 0.0, 0.0, 0.0, 0.0, 0.0, 0.0, 1e-05, 0.0, 0.0, 0.0, 0.0, 0.0, 0.0, 1000000000000.0, 0.0, 0.0, 0.0, 0.0, 0.0, 0.0, 1000000000000.0, 0.0, 0.0, 0.0, 0.0, 0.0, 0.0, 1000000000000.0, 0.0, 0.0, 0.0, 0.0, 0.0, 0.0, 0.001)",0.2082974982881357,1.443362281544104e-05,0.0,0.0,0.0,0.0283509043102016,"(0.0, 0.0, 0.0, 0.0, 0.0, 0.0, 0.0, 0.0, 0.0, 0.0, 0.0, 0.0, 0.0, 0.0, 0.0, 0.0, 0.0, 0.0, 0.0, 0.0, 0.0, 0.0, 0.0, 0.0, 0.0, 0.0, 0.0, 0.0, 0.0, 0.0, 0.0, 0.0, 0.0, 0.0, 0.0, 0.0)",0.2199999988079071,0.0,0.0,0.0,0.0,0.0896493792533874,60,2,481000000,base_footprint,-0.0027319786611009,0.0027310659473846,0.7057478668749921,0.7084525573196733,0.0,0.0,0.0,0.0,0.0,0.0,0.0,0.0,0.0,-4.042834823410838e-05,0.0003315529898636,0.0280751720293835,0.0,0.0,0.0,0.0,0.0,0.0,0.0,0.0,0.0,-0.0053556057764281,-0.0057365464175799,-0.0001131370338222,0.0,0.0,0.0,0.0,0.0,0.0,0.0,0.0,0.0
2.515,1.568290502588412,2.3346957282300023e-05,0.007244773722716702,0.0013192786405396006,1.5905683189569706,0.2129960533844246,-0.004211081911338302,0.212954421288868,0.028772822378023765,0.19320469828535533,0.014304135111339655,-0.00014367694245907638,0.0070913129379840956,0.0009581349851881915,62.0,2.0,457000000.0,odom,base_footprint,0.000506549693297,0.1960160773213186,-0.0010026193033309,-0.0027306285838671,0.0027313815025609,0.7055182530053321,0.708681224457745,"(1e-05, 0.0, 0.0, 0.0, 0.0, 0.0, 0.0, 1e-05, 0.0, 0.0, 0.0, 0.0, 0.0, 0.0, 1000000000000.0, 0.0, 0.0, 0.0, 0.0, 0.0, 0.0, 1000000000000.0, 0.0, 0.0, 0.0, 0.0, 0.0, 0.0, 1000000000000.0, 0.0, 0.0, 0.0, 0.0, 0.0, 0.0, 0.001)",0.2082974982881357,1.443362281544104e-05,0.0,0.0,0.0,0.0283509043102016,"(0.0, 0.0, 0.0, 0.0, 0.0, 0.0, 0.0, 0.0, 0.0, 0.0, 0.0, 0.0, 0.0, 0.0, 0.0, 0.0, 0.0, 0.0, 0.0, 0.0, 0.0, 0.0, 0.0, 0.0, 0.0, 0.0, 0.0, 0.0, 0.0, 0.0, 0.0, 0.0, 0.0, 0.0, 0.0, 0.0)",0.2199999988079071,0.0,0.0,0.0,0.0,0.0896493792533874,61,2,515000000,base_footprint,-0.0027340549987602,0.0027291157599499,0.70621503703168,0.707986863113134,0.0,0.0,0.0,0.0,0.0,0.0,0.0,0.0,0.0,0.0005332647840408,0.000425028290607,0.0872395316099129,0.0,0.0,0.0,0.0,0.0,0.0,0.0,0.0,0.0,-0.3238738931221511,-0.0046334609566652,0.0004488196028914,0.0,0.0,0.0,0.0,0.0,0.0,0.0,0.0,0.0
2.549,1.5713089918638923,8.325675134900025e-06,0.007470986427532689,0.0030184892754803183,1.5915264539421587,0.2181625687821083,-0.0045222138787329395,0.21811569406909523,0.08813196360827755,0.1551506125430541,1.7825567937013145,-0.00016129948796053182,0.007263020058589708,0.0029347943881556427,64.0,2.0,524000000.0,odom,base_footprint,0.000554540983761,0.210249985553483,-0.0010031016537408,-0.0027372358687005,0.0027301308219127,0.7065306702116264,0.7076718632076624,"(1e-05, 0.0, 0.0, 0.0, 0.0, 0.0, 0.0, 1e-05, 0.0, 0.0, 0.0, 0.0, 0.0, 0.0, 1000000000000.0, 0.0, 0.0, 0.0, 0.0, 0.0, 0.0, 1000000000000.0, 0.0, 0.0, 0.0, 0.0, 0.0, 0.0, 1000000000000.0, 0.0, 0.0, 0.0, 0.0, 0.0, 0.0, 0.001)",0.2197513335776388,-5.897782279755328e-05,0.0,0.0,0.0,0.0890325301545928,"(0.0, 0.0, 0.0, 0.0, 0.0, 0.0, 0.0, 0.0, 0.0, 0.0, 0.0, 0.0, 0.0, 0.0, 0.0, 0.0, 0.0, 0.0, 0.0, 0.0, 0.0, 0.0, 0.0, 0.0, 0.0, 0.0, 0.0, 0.0, 0.0, 0.0, 0.0, 0.0, 0.0, 0.0, 0.0, 0.0)",0.2199999988079071,0.0,0.0,0.0,0.0,0.0896493792533874,62,2,549000000,base_footprint,-0.002742541036629,0.0027295990770588,0.7072827398830235,0.7069201890037548,0.0,0.0,0.0,0.0,0.0,0.0,0.0,0.0,0.0,-2.5450541859282604e-05,0.0005650109795513,0.0884425057537239,0.0,0.0,0.0,0.0,0.0,0.0,0.0,0.0,0.0,-0.0110296083420407,-0.0203114563984602,-0.0007650000841153,0.0,0.0,0.0,0.0,0.0,0.0,0.0,0.0,0.0
2.583,1.5726153131270995,-1.080028594369997e-05,0.007491109319963218,0.0013063212632071772,1.5944612483303142,0.21853846731503712,-0.005171212978825125,0.2184772762845903,0.08780716356423904,0.011288244232096864,-0.009753755076231501,-0.0001828895389637469,0.007275029869969213,0.0029239785466891603,65.0,2.0,557000000.0,odom,base_footprint,0.0005561182674606,0.2175022170891378,-0.0010037699536084,-0.0027447639589189,0.0027295357548003,0.7075637069692068,0.7066389576618087,"(1e-05, 0.0, 0.0, 0.0, 0.0, 0.0, 0.0, 1e-05, 0.0, 0.0, 0.0, 0.0, 0.0, 0.0, 1000000000000.0, 0.0, 0.0, 0.0, 0.0, 0.0, 0.0, 1000000000000.0, 0.0, 0.0, 0.0, 0.0, 0.0, 0.0, 1000000000000.0, 0.0, 0.0, 0.0, 0.0, 0.0, 0.0, 0.001)",0.2198442715617237,-2.4893608196194803e-05,0.0,0.0,0.0,0.0883032924978053,"(0.0, 0.0, 0.0, 0.0, 0.0, 0.0, 0.0, 0.0, 0.0, 0.0, 0.0, 0.0, 0.0, 0.0, 0.0, 0.0, 0.0, 0.0, 0.0, 0.0, 0.0, 0.0, 0.0, 0.0, 0.0, 0.0, 0.0, 0.0, 0.0, 0.0, 0.0, 0.0, 0.0, 0.0, 0.0, 0.0)",0.2199999988079071,0.0,0.0,0.0,0.0,0.0151863694190978,63,2,583000000,base_footprint,-0.0027480725301984,0.002731424645294,0.7077443074136464,0.7064580544804865,0.0,0.0,0.0,0.0,0.0,0.0,0.0,0.0,0.0,2.2596305316617663e-05,-0.0002852750022304,0.0132547500951169,0.0,0.0,0.0,0.0,0.0,0.0,0.0,0.0,0.0,-0.0228854281452735,-0.0086050691753165,-0.0006012437510942,0.0,0.0,0.0,0.0,0.0,0.0,0.0,0.0,0.0
2.617,1.5730504903841374,-1.3577489372900028e-05,0.007499321692644084,0.0004351772570378998,1.5973852268770035,0.22515942173729256,-0.005986035984686657,0.22507983599216974,0.014738288120433542,0.1988274601277909,-2.1942605238380026,-0.00020122781790766028,0.0074951078842315205,0.000490784994410437,65.0,2.0,557000000.0,odom,base_footprint,0.0005561182674606,0.2175022170891378,-0.0010037699536084,-0.0027447639589189,0.0027295357548003,0.7075637069692068,0.7066389576618087,"(1e-05, 0.0, 0.0, 0.0, 0.0, 0.0, 0.0, 1e-05, 0.0, 0.0, 0.0, 0.0, 0.0, 0.0, 1000000000000.0, 0.0, 0.0, 0.0, 0.0, 0.0, 0.0, 1000000000000.0, 0.0, 0.0, 0.0, 0.0, 0.0, 0.0, 1000000000000.0, 0.0, 0.0, 0.0, 0.0, 0.0, 0.0, 0.001)",0.2198442715617237,-2.4893608196194803e-05,0.0,0.0,0.0,0.0883032924978053,"(0.0, 0.0, 0.0, 0.0, 0.0, 0.0, 0.0, 0.0, 0.0, 0.0, 0.0, 0.0, 0.0, 0.0, 0.0, 0.0, 0.0, 0.0, 0.0, 0.0, 0.0, 0.0, 0.0, 0.0, 0.0, 0.0, 0.0, 0.0, 0.0, 0.0, 0.0, 0.0, 0.0, 0.0, 0.0, 0.0)",0.2199999988079071,0.0,0.0,0.0,0.0,0.0151863694190978,64,2,617000000,base_footprint,-0.0027508929970924,0.0027325432529127,0.7078980012389722,0.706304032012389,0.0,0.0,0.0,0.0,0.0,0.0,0.0,0.0,0.0,2.975105135244358e-05,6.315770676179838e-05,0.0124003126066746,0.0,0.0,0.0,0.0,0.0,0.0,0.0,0.0,0.0,0.0019101349184943,-0.0021750064291647,0.0005878676404189,0.0,0.0,0.0,0.0,0.0,0.0,0.0,0.0,0.0
2.651,1.5734513102508978,-1.6111827269699977e-05,0.007492320444905998,0.00040081986676043796,1.597876011871414,0.21856078077167262,-0.005917833784357455,0.21848064933724426,0.012739756040528329,-0.19815738635495295,-0.06001597837553193,-0.0001986590971851051,0.007275362184366587,0.0004242338761495934,66.0,2.0,591000000.0,odom,base_footprint,0.0005436750662672,0.2250002971353787,-0.0010043663081942,-0.0027489133702881,0.0027318522258577,0.7077861253446222,0.7064161530063886,"(1e-05, 0.0, 0.0, 0.0, 0.0, 0.0, 0.0, 1e-05, 0.0, 0.0, 0.0, 0.0, 0.0, 0.0, 1000000000000.0, 0.0, 0.0, 0.0, 0.0, 0.0, 0.0, 1000000000000.0, 0.0, 0.0, 0.0, 0.0, 0.0, 0.0, 1000000000000.0, 0.0, 0.0, 0.0, 0.0, 0.0, 0.0, 0.001)",0.2206065708582663,-5.227195593230229e-05,0.0,0.0,0.0,0.0130385629735976,"(0.0, 0.0, 0.0, 0.0, 0.0, 0.0, 0.0, 0.0, 0.0, 0.0, 0.0, 0.0, 0.0, 0.0, 0.0, 0.0, 0.0, 0.0, 0.0, 0.0, 0.0, 0.0, 0.0, 0.0, 0.0, 0.0, 0.0, 0.0, 0.0, 0.0, 0.0, 0.0, 0.0, 0.0, 0.0, 0.0)",0.2199999988079071,0.0,0.0,0.0,0.0,0.0151863694190978,65,2,651000000,base_footprint,-0.0027527573806011,0.0027316292246509,0.7080395387554047,0.7061621429159286,0.0,0.0,0.0,0.0,0.0,0.0,0.0,0.0,0.0,5.369774269346379e-05,0.000250825189111,0.0106005111464915,0.0,0.0,0.0,0.0,0.0,0.0,0.0,0.0,0.0,0.0097320021433051,-0.0007270550870908,0.0003907402698776,0.0,0.0,0.0,0.0,0.0,0.0,0.0,0.0,0.0
2.685,1.573679424859688,-1.3661490625600033e-05,0.007466378130577295,0.0002281146087901309,1.5983002457475635,0.21836769596891417,-0.006005210222534885,0.2182851073549346,0.01248670774767302,-0.00579834242517877,-0.007599047833492739,-0.0002015366792768855,0.00726885084991773,0.0004158073679975116,68.0,2.0,657000000.0,odom,base_footprint,0.0005139527019102,0.2395474025222178,-0.0010046636343509,-0.0027527171563104,0.0027310056282204,0.7080637185117713,0.7061379006141784,"(1e-05, 0.0, 0.0, 0.0, 0.0, 0.0, 0.0, 1e-05, 0.0, 0.0, 0.0, 0.0, 0.0, 0.0, 1000000000000.0, 0.0, 0.0, 0.0, 0.0, 0.0, 0.0, 1000000000000.0, 0.0, 0.0, 0.0, 0.0, 0.0, 0.0, 1000000000000.0, 0.0, 0.0, 0.0, 0.0, 0.0, 0.0, 0.001)",0.2200480672019876,-0.0001204936678471,0.0,0.0,0.0,0.0089747017528765,"(0.0, 0.0, 0.0, 0.0, 0.0, 0.0, 0.0, 0.0, 0.0, 0.0, 0.0, 0.0, 0.0, 0.0, 0.0, 0.0, 0.0, 0.0, 0.0, 0.0, 0.0, 0.0, 0.0, 0.0, 0.0, 0.0, 0.0, 0.0, 0.0, 0.0, 0.0, 0.0, 0.0, 0.0, 0.0, 0.0)",0.2199999988079071,0.0,0.0,0.0,0.0,0.0,66,2,685000000,base_footprint,-0.0027488850599134,0.0027251886684926,0.7081201008197181,0.706081397427181,0.0,0.0,0.0,0.0,0.0,0.0,0.0,0.0,0.0,-0.000406316368967,0.0006450318512885,0.0044834831777146,0.0,0.0,0.0,0.0,0.0,0.0,0.0,0.0,0.0,0.0430378515272121,0.0055712717828233,0.0009560812372635,0.0,0.0,0.0,0.0,0.0,0.0,0.0,0.0,0.0
2.7190000000000003,1.5740461180674459,-2.3923183136599982e-05,0.0074094768660415145,0.00036669320775795105,1.598716053115561,0.2247218213187965,-0.006273356650166016,0.22463424042914057,0.013947371045456262,0.19081457507154154,0.043863762696193444,-0.0002106933426837372,0.00748026991941972,0.0004644474558136936,68.0,2.0,657000000.0,odom,base_footprint,0.0005139527019102,0.2395474025222178,-0.0010046636343509,-0.0027527171563104,0.0027310056282204,0.7080637185117713,0.7061379006141784,"(1e-05, 0.0, 0.0, 0.0, 0.0, 0.0, 0.0, 1e-05, 0.0, 0.0, 0.0, 0.0, 0.0, 0.0, 1000000000000.0, 0.0, 0.0, 0.0, 0.0, 0.0, 0.0, 1000000000000.0, 0.0, 0.0, 0.0, 0.0, 0.0, 0.0, 1000000000000.0, 0.0, 0.0, 0.0, 0.0, 0.0, 0.0, 0.001)",0.2200480672019876,-0.0001204936678471,0.0,0.0,0.0,0.0089747017528765,"(0.0, 0.0, 0.0, 0.0, 0.0, 0.0, 0.0, 0.0, 0.0, 0.0, 0.0, 0.0, 0.0, 0.0, 0.0, 0.0, 0.0, 0.0, 0.0, 0.0, 0.0, 0.0, 0.0, 0.0, 0.0, 0.0, 0.0, 0.0, 0.0, 0.0, 0.0, 0.0, 0.0, 0.0, 0.0, 0.0)",0.2199999988079071,0.0,0.0,0.0,0.0,0.0,67,2,719000000,base_footprint,-0.0027488458663096,0.0027335172243523,0.7082495124044539,0.7059515563470633,0.0,0.0,0.0,0.0,0.0,0.0,0.0,0.0,0.0,-6.436701158468039e-05,-0.000637924387869,0.0139754356619519,0.0,0.0,0.0,0.0,0.0,0.0,0.0,0.0,0.0,0.0141717091107695,-0.0168171334389526,-0.0022989264367972,0.0,0.0,0.0,0.0,0.0,0.0,0.0,0.0,0.0
2.753,1.5741713404667923,-2.549895318170001e-05,0.007452850321442883,0.0001252223993464252,1.5991805005713746,0.2176572072947205,-0.0061771904636812635,0.21756953418461958,-0.0016054898031471088,-0.21215057129357404,-0.46705287833643755,-0.000205558556376136,0.007245069514483245,-5.3462810444798725e-05,70.0,2.0,724000000.0,odom,base_footprint,0.0004750109968769,0.2541939300660179,-0.0010046473091849,-0.0027502240273096,0.00273405831253,0.7082749576236635,0.7059260199172015,"(1e-05, 0.0, 0.0, 0.0, 0.0, 0.0, 0.0, 1e-05, 0.0, 0.0, 0.0, 0.0, 0.0, 0.0, 1000000000000.0, 0.0, 0.0, 0.0, 0.0, 0.0, 0.0, 1000000000000.0, 0.0, 0.0, 0.0, 0.0, 0.0, 0.0, 1000000000000.0, 0.0, 0.0, 0.0, 0.0, 0.0, 0.0, 0.001)",0.2187663252290291,-1.1216679469099782e-05,0.0,0.0,0.0,0.0108556644997991,"(0.0, 0.0, 0.0, 0.0, 0.0, 0.0, 0.0, 0.0, 0.0, 0.0, 0.0, 0.0, 0.0, 0.0, 0.0, 0.0, 0.0, 0.0, 0.0, 0.0, 0.0, 0.0, 0.0, 0.0, 0.0, 0.0, 0.0, 0.0, 0.0, 0.0, 0.0, 0.0, 0.0, 0.0, 0.0, 0.0)",0.2199999988079071,0.0,0.0,0.0,0.0,0.0,68,2,753000000,base_footprint,-0.0027510977622448,0.0027285502946246,0.7082937300125759,0.7059072024701721,0.0,0.0,0.0,0.0,0.0,0.0,0.0,0.0,0.0,-0.0001988162273389,0.0002693930084484,0.0008680468855867,0.0,0.0,0.0,0.0,0.0,0.0,0.0,0.0,0.0,-0.0352665609231484,-0.0006747258144744,0.0018029602275714,0.0,0.0,0.0,0.0,0.0,0.0,0.0,0.0,0.0
2.787,1.574226041832327,-2.6907214586900012e-05,0.0074576061328335275,5.470136553475947e-05,1.59912703776093,0.2174059419182001,-0.006158441001554137,0.21731869957684308,0.0007761547880218694,-0.007545506802414375,0.071520858593663,-0.0002052213302545983,0.007236708578250011,2.584595444112825e-05,71.0,2.0,757000000.0,odom,base_footprint,0.0004499045128163,0.2614322303903879,-0.0010041759170007,-0.0027504689083618,0.0027281678142653,0.7082963602753708,0.7059045672340017,"(1e-05, 0.0, 0.0, 0.0, 0.0, 0.0, 0.0, 1e-05, 0.0, 0.0, 0.0, 0.0, 0.0, 0.0, 1000000000000.0, 0.0, 0.0, 0.0, 0.0, 0.0, 0.0, 1000000000000.0, 0.0, 0.0, 0.0, 0.0, 0.0, 0.0, 1000000000000.0, 0.0, 0.0, 0.0, 0.0, 0.0, 0.0, 0.001)",0.2193235055580004,0.0001018893150223,0.0,0.0,0.0,0.0017155473828619,"(0.0, 0.0, 0.0, 0.0, 0.0, 0.0, 0.0, 0.0, 0.0, 0.0, 0.0, 0.0, 0.0, 0.0, 0.0, 0.0, 0.0, 0.0, 0.0, 0.0, 0.0, 0.0, 0.0, 0.0, 0.0, 0.0, 0.0, 0.0, 0.0, 0.0, 0.0, 0.0, 0.0, 0.0, 0.0, 0.0)",0.2199999988079071,0.0,0.0,0.0,0.0,0.0,69,2,787000000,base_footprint,-0.002748398358769,0.0027256590613064,0.7083130477075289,0.7058878406208844,0.0,0.0,0.0,0.0,0.0,0.0,0.0,0.0,0.0,-2.446778834969424e-05,0.0002745065266822,0.0017095397420059,0.0,0.0,0.0,0.0,0.0,0.0,0.0,0.0,0.0,0.0023202098042551,0.0026840112369187,-0.0001065873136057,0.0,0.0,0.0,0.0,0.0,0.0,0.0,0.0,0.0
2.821,1.5742887775160708,-2.6896739952099967e-05,0.007460559671907785,6.273568374370875e-05,1.599152883715371,0.22396864564828672,-0.0063501285518352945,0.223878605723957,0.0015400258631630376,0.19707819009269167,0.022939071325560605,-0.00021170372797871693,0.007455150632241441,5.128286124332916e-05,72.0,2.0,791000000.0,odom,base_footprint,0.0004233336033953,0.2688898685024221,-0.0010037093530182,-0.0027480957981214,0.0027253631675257,0.7083161166259782,0.7058847634656688,"(1e-05, 0.0, 0.0, 0.0, 0.0, 0.0, 0.0, 1e-05, 0.0, 0.0, 0.0, 0.0, 0.0, 0.0, 1000000000000.0, 0.0, 0.0, 0.0, 0.0, 0.0, 0.0, 1000000000000.0, 0.0, 0.0, 0.0, 0.0, 0.0, 0.0, 1000000000000.0, 0.0, 0.0, 0.0, 0.0, 0.0, 0.0, 0.001)",0.2193801724402946,4.39978839798232e-05,0.0,0.0,0.0,0.0017403768001705,"(0.0, 0.0, 0.0, 0.0, 0.0, 0.0, 0.0, 0.0, 0.0, 0.0, 0.0, 0.0, 0.0, 0.0, 0.0, 0.0, 0.0, 0.0, 0.0, 0.0, 0.0, 0.0, 0.0, 0.0, 0.0, 0.0, 0.0, 0.0, 0.0, 0.0, 0.0, 0.0, 0.0, 0.0, 0.0, 0.0)",0.2199999988079071,0.0,0.0,0.0,0.0,0.0,70,2,821000000,base_footprint,-0.0027463596744637,0.0027228117412162,0.7083352002220684,0.7058656302237152,0.0,0.0,0.0,0.0,0.0,0.0,0.0,0.0,0.0,0.0001117822371043,0.0003276367927728,0.0019814189864358,0.0,0.0,0.0,0.0,0.0,0.0,0.0,0.0,0.0,-0.0036886129133403,1.690405062888551e-06,0.0001719455748385,0.0,0.0,0.0,0.0,0.0,0.0,0.0,0.0,0.0
2.855,1.5743553486541721,-2.7076268081100026e-05,0.007465639195836593,6.657113810137893e-05,1.5992041665766143,0.2174670244627852,-0.006176937506904518,0.21737928183645613,0.0018608667289480465,-0.19524387944448995,0.009634860834384654,-0.0002059680389887451,0.007238722235495131,6.196686207396996e-05,73.0,2.0,824000000.0,odom,base_footprint,0.000397214395105,0.276131553019934,-0.0010032767289733,-0.0027461786335853,0.0027224699186683,0.7083380088217979,0.70586281380933,"(1e-05, 0.0, 0.0, 0.0, 0.0, 0.0, 0.0, 1e-05, 0.0, 0.0, 0.0, 0.0, 0.0, 0.0, 1000000000000.0, 0.0, 0.0, 0.0, 0.0, 0.0, 0.0, 1000000000000.0, 0.0, 0.0, 0.0, 0.0, 0.0, 0.0, 1000000000000.0, 0.0, 0.0, 0.0, 0.0, 0.0, 0.0, 0.001)",0.2195093110006983,3.067002449684867e-05,0.0,0.0,0.0,0.002005506217445,"(0.0, 0.0, 0.0, 0.0, 0.0, 0.0, 0.0, 0.0, 0.0, 0.0, 0.0, 0.0, 0.0, 0.0, 0.0, 0.0, 0.0, 0.0, 0.0, 0.0, 0.0, 0.0, 0.0, 0.0, 0.0, 0.0, 0.0, 0.0, 0.0, 0.0, 0.0, 0.0, 0.0, 0.0, 0.0, 0.0)",0.2199999988079071,0.0,0.0,0.0,0.0,0.0,71,2,855000000,base_footprint,-0.0027433234440724,0.0027203780594834,0.7083587040430736,0.7058420645768514,0.0,0.0,0.0,0.0,0.0,0.0,0.0,0.0,0.0,-0.0001071475544961,0.0003829313065198,0.0017943753816288,0.0,0.0,0.0,0.0,0.0,0.0,0.0,0.0,0.0,-0.0052246899335972,-0.0003267575860707,0.0002884088198171,0.0,0.0,0.0,0.0,0.0,0.0,0.0,0.0,0.0
2.8890000000000002,1.5744097489973556,-2.752588043320001e-05,0.007472104442331706,5.440034318349162e-05,1.5992661334386884,0.2176147735627974,-0.006194613627110086,0.2175265878801909,0.0019165462313621485,0.004436909910276142,0.0016720571295526113,-0.00020656355614571042,0.007243627312722358,6.382098950435955e-05,74.0,2.0,857000000.0,odom,base_footprint,0.0003709089547887,0.2833782090340551,-0.0010027673485775,-0.0027430630432794,0.0027202392186989,0.7083605913001837,0.7058401721328903,"(1e-05, 0.0, 0.0, 0.0, 0.0, 0.0, 0.0, 1e-05, 0.0, 0.0, 0.0, 0.0, 0.0, 0.0, 1000000000000.0, 0.0, 0.0, 0.0, 0.0, 0.0, 0.0, 1000000000000.0, 0.0, 0.0, 0.0, 0.0, 0.0, 0.0, 1000000000000.0, 0.0, 0.0, 0.0, 0.0, 0.0, 0.0, 0.001)",0.2196863424467436,2.5985096341226083e-05,0.0,0.0,0.0,0.0017634997745636,"(0.0, 0.0, 0.0, 0.0, 0.0, 0.0, 0.0, 0.0, 0.0, 0.0, 0.0, 0.0, 0.0, 0.0, 0.0, 0.0, 0.0, 0.0, 0.0, 0.0, 0.0, 0.0, 0.0, 0.0, 0.0, 0.0, 0.0, 0.0, 0.0, 0.0, 0.0, 0.0, 0.0, 0.0, 0.0, 0.0)",0.2199999988079071,3.067002398893237e-05,0.0,0.0,0.0,0.0,72,2,889000000,base_footprint,-0.0027411143909081,0.002719315804865,0.7083779066439148,0.7058228056617573,0.0,0.0,0.0,0.0,0.0,0.0,0.0,0.0,0.0,-8.958866541310112e-05,0.0002775627059473,0.0013928924896004,0.0,0.0,0.0,0.0,0.0,0.0,0.0,0.0,0.0,-0.0058597574097635,-0.0004040448528539,-0.0001913467666111,0.0,0.0,0.0,0.0,0.0,0.0,0.0,0.0,0.0
2.923,1.5744500738574148,-2.787245224899999e-05,0.0074788045261944824,4.0324860059115515e-05,1.5993299544281927,0.22439688548822379,-0.006401988374491142,0.22430554331462235,0.0016241274031344585,0.203667024787579,-0.008781346193023723,-0.00021344158551201288,0.007469367298419786,5.408344252437747e-05,74.0,2.0,857000000.0,odom,base_footprint,0.0003709089547887,0.2833782090340551,-0.0010027673485775,-0.0027430630432794,0.0027202392186989,0.7083605913001837,0.7058401721328903,"(1e-05, 0.0, 0.0, 0.0, 0.0, 0.0, 0.0, 1e-05, 0.0, 0.0, 0.0, 0.0, 0.0, 0.0, 1000000000000.0, 0.0, 0.0, 0.0, 0.0, 0.0, 0.0, 1000000000000.0, 0.0, 0.0, 0.0, 0.0, 0.0, 0.0, 1000000000000.0, 0.0, 0.0, 0.0, 0.0, 0.0, 0.0, 0.001)",0.2196863424467436,2.5985096341226083e-05,0.0,0.0,0.0,0.0017634997745636,"(0.0, 0.0, 0.0, 0.0, 0.0, 0.0, 0.0, 0.0, 0.0, 0.0, 0.0, 0.0, 0.0, 0.0, 0.0, 0.0, 0.0, 0.0, 0.0, 0.0, 0.0, 0.0, 0.0, 0.0, 0.0, 0.0, 0.0, 0.0, 0.0, 0.0, 0.0, 0.0, 0.0, 0.0, 0.0, 0.0)",0.2199999988079071,3.067002398893237e-05,0.0,0.0,0.0,0.0,73,2,923000000,base_footprint,-0.0027403576675417,0.0027192898927108,0.7083921375012083,0.7058085260386152,0.0,0.0,0.0,0.0,0.0,0.0,0.0,0.0,0.0,-7.685812531452178e-05,0.0001904108287629,0.0009727582909422,0.0,0.0,0.0,0.0,0.0,0.0,0.0,0.0,0.0,-0.0059069140492156,-0.0002562138581511,-0.0001680349560911,0.0,0.0,0.0,0.0,0.0,0.0,0.0,0.0,0.0
2.957,1.5744760335479953,-2.80549906191e-05,0.0074855088372347,2.595969058050152e-05,1.5993840378707171,0.2179852787096608,-0.006230851384221351,0.21789620975399335,0.001179208435515395,-0.1925407441009903,-0.013360929958530434,-0.00020768167544812224,0.007255938224936851,3.9267640902662655e-05,76.0,2.0,924000000.0,odom,base_footprint,0.0003162745717674,0.2981102212519494,-0.0010023996009058,-0.002740353393035,0.0027193184184191,0.7083928169405117,0.705807844018262,"(1e-05, 0.0, 0.0, 0.0, 0.0, 0.0, 0.0, 1e-05, 0.0, 0.0, 0.0, 0.0, 0.0, 0.0, 1000000000000.0, 0.0, 0.0, 0.0, 0.0, 0.0, 0.0, 1000000000000.0, 0.0, 0.0, 0.0, 0.0, 0.0, 0.0, 1000000000000.0, 0.0, 0.0, 0.0, 0.0, 0.0, 0.0, 0.001)",0.2200809227231991,2.426954965142566e-05,0.0,0.0,0.0,0.0009492800779847,"(0.0, 0.0, 0.0, 0.0, 0.0, 0.0, 0.0, 0.0, 0.0, 0.0, 0.0, 0.0, 0.0, 0.0, 0.0, 0.0, 0.0, 0.0, 0.0, 0.0, 0.0, 0.0, 0.0, 0.0, 0.0, 0.0, 0.0, 0.0, 0.0, 0.0, 0.0, 0.0, 0.0, 0.0, 0.0, 0.0)",0.2199999988079071,2.4269549612654373e-05,0.0,0.0,0.0,0.0,74,2,957000000,base_footprint,-0.002740875337062,0.00272023950114,0.7084012949238387,0.7057993293066178,0.0,0.0,0.0,0.0,0.0,0.0,0.0,0.0,0.0,-6.705850148655616e-05,0.0001010980758313,0.000549326616927,0.0,0.0,0.0,0.0,0.0,0.0,0.0,0.0,0.0,-0.0058739405578818,-0.0001146134211499,-0.0001825779291016,0.0,0.0,0.0,0.0,0.0,0.0,0.0,0.0,0.0
2.991,1.5744875707898407,-2.807627121289999e-05,0.007492113363689323,1.1537241845438473e-05,1.5994233055116198,0.21817034269877988,-0.006244704748843634,0.2180809530791326,0.000777173745480819,0.005557477150723048,-0.012073113814852128,-0.00020809454569882101,0.007262091558672341,2.5879885724511276e-05,76.0,2.0,924000000.0,odom,base_footprint,0.0003162745717674,0.2981102212519494,-0.0010023996009058,-0.002740353393035,0.0027193184184191,0.7083928169405117,0.705807844018262,"(1e-05, 0.0, 0.0, 0.0, 0.0, 0.0, 0.0, 1e-05, 0.0, 0.0, 0.0, 0.0, 0.0, 0.0, 1000000000000.0, 0.0, 0.0, 0.0, 0.0, 0.0, 0.0, 1000000000000.0, 0.0, 0.0, 0.0, 0.0, 0.0, 0.0, 1000000000000.0, 0.0, 0.0, 0.0, 0.0, 0.0, 0.0, 0.001)",0.2200809227231991,2.426954965142566e-05,0.0,0.0,0.0,0.0009492800779847,"(0.0, 0.0, 0.0, 0.0, 0.0, 0.0, 0.0, 0.0, 0.0, 0.0, 0.0, 0.0, 0.0, 0.0, 0.0, 0.0, 0.0, 0.0, 0.0, 0.0, 0.0, 0.0, 0.0, 0.0, 0.0, 0.0, 0.0, 0.0, 0.0, 0.0, 0.0, 0.0, 0.0, 0.0, 0.0, 0.0)",0.2199999988079071,2.4269549612654373e-05,0.0,0.0,0.0,0.0,75,2,991000000,base_footprint,-0.0027427211054156,0.0027222900887195,0.7084053584075474,0.7057952357426941,0.0,0.0,0.0,0.0,0.0,0.0,0.0,0.0,0.0,-5.892255884556732e-05,-8.397414528856483e-06,0.0001235355355189,0.0,0.0,0.0,0.0,0.0,0.0,0.0,0.0,0.0,-0.0057081416281575,3.007517456106619e-05,-0.0002333042569598,0.0,0.0,0.0,0.0,0.0,0.0,0.0,0.0,0.0
3.025,1.5744845059290118,-2.791069694679999e-05,0.007498339833190482,-3.0648608289052252e-06,1.5994617300716794,0.21852439394164622,-0.006263232040707971,0.2184346187580349,-5.669523329888871e-05,-0.19358673689537353,-0.013015380789708242,-0.00020861075133172613,0.007273871510728502,-1.8879512688529942e-06,78.0,2.0,991000000.0,odom,base_footprint,0.0002609657242396,0.3128681581844569,-0.001002901911108,-0.0027427977557956,0.0027223698069691,0.7084054003289304,0.7057951930609281,"(1e-05, 0.0, 0.0, 0.0, 0.0, 0.0, 0.0, 1e-05, 0.0, 0.0, 0.0, 0.0, 0.0, 0.0, 1000000000000.0, 0.0, 0.0, 0.0, 0.0, 0.0, 0.0, 1000000000000.0, 0.0, 0.0, 0.0, 0.0, 0.0, 0.0, 1000000000000.0, 0.0, 0.0, 0.0, 0.0, 0.0, 0.0, 0.001)",0.2204684373032205,1.5860280372409887e-05,0.0,0.0,0.0,0.0001107868141979,"(0.0, 0.0, 0.0, 0.0, 0.0, 0.0, 0.0, 0.0, 0.0, 0.0, 0.0, 0.0, 0.0, 0.0, 0.0, 0.0, 0.0, 0.0, 0.0, 0.0, 0.0, 0.0, 0.0, 0.0, 0.0, 0.0, 0.0, 0.0, 0.0, 0.0, 0.0, 0.0, 0.0, 0.0, 0.0, 0.0)",0.2199999988079071,2.4269549612654373e-05,0.0,0.0,0.0,0.0,76,3,25000000,base_footprint,-0.0027461458615201,0.0027254755186375,0.7084042644983944,0.7057963080851255,0.0,0.0,0.0,0.0,0.0,0.0,0.0,0.0,0.0,-6.673026460275768e-05,-0.0001188099787524,-0.0003345688060429,0.0,0.0,0.0,0.0,0.0,0.0,0.0,0.0,0.0,-0.0051086853280675,0.0002251986397778,-0.000328572147252,0.0,0.0,0.0,0.0,0.0,0.0,0.0,0.0,0.0
3.059,1.5744671435819575,-2.6985785395800005e-05,0.007502912178417531,-1.736234705429496e-05,1.5994598421204105,0.21864014797786807,-0.00626613711005914,0.2185503370702091,-0.00047754003539600995,0.0034760971838394754,-0.012637982044958595,-0.0002086565184220279,0.007277726392012209,-1.590208317868713e-05,80.0,3.0,57000000.0,odom,base_footprint,0.0002076729801812,0.3274282494824364,-0.0010039497345517,-0.0027484606361812,0.0027280354117836,0.7083983689693005,0.7058022064491993,"(1e-05, 0.0, 0.0, 0.0, 0.0, 0.0, 0.0, 1e-05, 0.0, 0.0, 0.0, 0.0, 0.0, 0.0, 1000000000000.0, 0.0, 0.0, 0.0, 0.0, 0.0, 0.0, 1000000000000.0, 0.0, 0.0, 0.0, 0.0, 0.0, 0.0, 1000000000000.0, 0.0, 0.0, 0.0, 0.0, 0.0, 0.0, 0.001)",0.2207209496782063,-2.4819089205374025e-05,0.0,0.0,0.0,-0.0006850667309763,"(0.0, 0.0, 0.0, 0.0, 0.0, 0.0, 0.0, 0.0, 0.0, 0.0, 0.0, 0.0, 0.0, 0.0, 0.0, 0.0, 0.0, 0.0, 0.0, 0.0, 0.0, 0.0, 0.0, 0.0, 0.0, 0.0, 0.0, 0.0, 0.0, 0.0, 0.0, 0.0, 0.0, 0.0, 0.0, 0.0)",0.2199999988079071,7.697521141381003e-06,0.0,0.0,0.0,0.0,77,3,59000000,base_footprint,-0.0027485075102717,0.0027281161388517,0.7083981271878711,0.705802448625333,0.0,0.0,0.0,0.0,0.0,0.0,0.0,0.0,0.0,-5.714829888872953e-05,-5.989154445557541e-05,-0.0007002074327795,0.0,0.0,0.0,0.0,0.0,0.0,0.0,0.0,0.0,-0.0025174938000102,0.001061399628618,-1.9400331332019462e-05,0.0,0.0,0.0,0.0,0.0,0.0,0.0,0.0,0.0
3.093,1.574438315083647,-2.620240093040001e-05,0.0075027634891344785,-2.882849831054024e-05,1.5994439400372318,0.2252553534808575,-0.006452145632121482,0.22516292787341344,-0.0009000108393668164,0.1986548199095928,-0.012686810930054247,-0.00021479768390759047,0.007497927181646569,-2.997036095091499e-05,80.0,3.0,57000000.0,odom,base_footprint,0.0002076729801812,0.3274282494824364,-0.0010039497345517,-0.0027484606361812,0.0027280354117836,0.7083983689693005,0.7058022064491993,"(1e-05, 0.0, 0.0, 0.0, 0.0, 0.0, 0.0, 1e-05, 0.0, 0.0, 0.0, 0.0, 0.0, 0.0, 1000000000000.0, 0.0, 0.0, 0.0, 0.0, 0.0, 0.0, 1000000000000.0, 0.0, 0.0, 0.0, 0.0, 0.0, 0.0, 1000000000000.0, 0.0, 0.0, 0.0, 0.0, 0.0, 0.0, 0.001)",0.2207209496782063,-2.4819089205374025e-05,0.0,0.0,0.0,-0.0006850667309763,"(0.0, 0.0, 0.0, 0.0, 0.0, 0.0, 0.0, 0.0, 0.0, 0.0, 0.0, 0.0, 0.0, 0.0, 0.0, 0.0, 0.0, 0.0, 0.0, 0.0, 0.0, 0.0, 0.0, 0.0, 0.0, 0.0, 0.0, 0.0, 0.0, 0.0, 0.0, 0.0, 0.0, 0.0, 0.0, 0.0)",0.2199999988079071,7.697521141381003e-06,0.0,0.0,0.0,0.0,78,3,93000000,base_footprint,-0.0027502891266635,0.0027306518727296,0.7083879438236627,0.705812652546944,0.0,0.0,0.0,0.0,0.0,0.0,0.0,0.0,0.0,-5.246674970382176e-05,-8.170080383318408e-06,-0.0008102187700993,0.0,0.0,0.0,0.0,0.0,0.0,0.0,0.0,0.0,0.0033221288497845,0.0009105386860588,7.617232347053722e-05,0.0,0.0,0.0,0.0,0.0,0.0,0.0,0.0,0.0
3.127,1.5744252677054686,-2.3748046901299986e-05,0.007496525372984009,-1.3047378178310254e-05,1.5994139696762808,0.2184322285900757,-0.0062501623146887664,0.21834279002950188,-0.0009620791398300719,-0.2048986453688235,-0.001863912926824489,-0.00020806590551616214,0.00727081675372566,-3.2037235356341395e-05,81.0,3.0,91000000.0,odom,base_footprint,0.0001814406990849,0.3349311242534398,-0.0010043419406137,-0.0027502605110039,0.002730597935001,0.7083882226852845,0.7058123729879088,"(1e-05, 0.0, 0.0, 0.0, 0.0, 0.0, 0.0, 1e-05, 0.0, 0.0, 0.0, 0.0, 0.0, 0.0, 1000000000000.0, 0.0, 0.0, 0.0, 0.0, 0.0, 0.0, 1000000000000.0, 0.0, 0.0, 0.0, 0.0, 0.0, 0.0, 1000000000000.0, 0.0, 0.0, 0.0, 0.0, 0.0, 0.0, 0.001)",0.2206145082266245,-4.736887627573416e-05,0.0,0.0,0.0,-0.0008221394317543,"(0.0, 0.0, 0.0, 0.0, 0.0, 0.0, 0.0, 0.0, 0.0, 0.0, 0.0, 0.0, 0.0, 0.0, 0.0, 0.0, 0.0, 0.0, 0.0, 0.0, 0.0, 0.0, 0.0, 0.0, 0.0, 0.0, 0.0, 0.0, 0.0, 0.0, 0.0, 0.0, 0.0, 0.0, 0.0, 0.0)",0.2199999988079071,7.697521141381003e-06,0.0,0.0,0.0,0.0,79,3,127000000,base_footprint,-0.0027492052787035,0.0027309564730587,0.7083833382121977,0.7058172779766879,0.0,0.0,0.0,0.0,0.0,0.0,0.0,0.0,0.0,-0.0001017052571446,0.0003288629263426,0.0002533740774538,0.0,0.0,0.0,0.0,0.0,0.0,0.0,0.0,0.0,0.006372249688002,0.0031987485671961,0.0006266334795719,0.0,0.0,0.0,0.0,0.0,0.0,0.0,0.0,0.0
3.161,1.5744848610093958,-2.2169483498400006e-05,0.007483475949732976,5.959330392713014e-05,1.5993819324409244,0.21812218295313926,-0.006234305576796674,0.2180330711846666,-0.0009479411210953601,-0.009310679787880752,0.0004245651271685233,-0.00020753967667506637,0.007260503062645945,-3.156643933247549e-05,81.0,3.0,91000000.0,odom,base_footprint,0.0001814406990849,0.3349311242534398,-0.0010043419406137,-0.0027502605110039,0.002730597935001,0.7083882226852845,0.7058123729879088,"(1e-05, 0.0, 0.0, 0.0, 0.0, 0.0, 0.0, 1e-05, 0.0, 0.0, 0.0, 0.0, 0.0, 0.0, 1000000000000.0, 0.0, 0.0, 0.0, 0.0, 0.0, 0.0, 1000000000000.0, 0.0, 0.0, 0.0, 0.0, 0.0, 0.0, 1000000000000.0, 0.0, 0.0, 0.0, 0.0, 0.0, 0.0, 0.001)",0.2206145082266245,-4.736887627573416e-05,0.0,0.0,0.0,-0.0008221394317543,"(0.0, 0.0, 0.0, 0.0, 0.0, 0.0, 0.0, 0.0, 0.0, 0.0, 0.0, 0.0, 0.0, 0.0, 0.0, 0.0, 0.0, 0.0, 0.0, 0.0, 0.0, 0.0, 0.0, 0.0, 0.0, 0.0, 0.0, 0.0, 0.0, 0.0, 0.0, 0.0, 0.0, 0.0, 0.0, 0.0)",0.2084210515022277,0.0,0.0,0.0,0.0,0.0,80,3,161000000,base_footprint,-0.0027428944960709,0.0027309353917291,0.7084043687454304,0.7057961949912014,0.0,0.0,0.0,0.0,0.0,0.0,0.0,0.0,0.0,-0.0003513454311211,0.0011409255901034,0.0017421454402374,0.0,0.0,0.0,0.0,0.0,0.0,0.0,0.0,0.0,0.0273666993304935,-0.0025525829012996,7.70740222885813e-05,0.0,0.0,0.0,0.0,0.0,0.0,0.0,0.0,0.0
3.195,1.5742000836857075,-2.5806190609900005e-05,0.007366384043072494,-0.0002847773236882567,1.599350366001592,0.18960296005163957,-0.005413194692191596,0.1895256705134375,0.09923499385276345,-0.8564331201651558,3.008496545761526,-0.00019073192140006944,0.006310894143141555,0.0033045252952970234,83.0,3.0,157000000.0,odom,base_footprint,0.0001371320220904,0.3494732539274256,-0.001003423071322,-0.0027443866114697,0.002727279152506,0.7084023002356182,0.7057982794761095,"(1e-05, 0.0, 0.0, 0.0, 0.0, 0.0, 0.0, 1e-05, 0.0, 0.0, 0.0, 0.0, 0.0, 0.0, 1000000000000.0, 0.0, 0.0, 0.0, 0.0, 0.0, 0.0, 1000000000000.0, 0.0, 0.0, 0.0, 0.0, 0.0, 0.0, 1000000000000.0, 0.0, 0.0, 0.0, 0.0, 0.0, 0.0, 0.001)",0.2197115615756163,-0.0001200133061708,0.0,0.0,0.0,0.0030298661258622,"(0.0, 0.0, 0.0, 0.0, 0.0, 0.0, 0.0, 0.0, 0.0, 0.0, 0.0, 0.0, 0.0, 0.0, 0.0, 0.0, 0.0, 0.0, 0.0, 0.0, 0.0, 0.0, 0.0, 0.0, 0.0, 0.0, 0.0, 0.0, 0.0, 0.0, 0.0, 0.0, 0.0, 0.0, 0.0, 0.0)",0.2084210515022277,0.0,0.0,0.0,0.0,0.0,81,3,195000000,base_footprint,-0.0027446172155144,0.0027204713497773,0.7083039060770374,0.7058970482641126,0.0,0.0,0.0,0.0,0.0,0.0,0.0,0.0,0.0,-9.908510095188306e-05,-9.893423441379272e-06,-0.0191028634757867,0.0,0.0,0.0,0.0,0.0,0.0,0.0,0.0,0.0,0.1891233488082102,-0.0017228332770987,0.0005120955473133,0.0,0.0,0.0,0.0,0.0,0.0,0.0,0.0,0.0
3.229,1.573917302821585,-2.4451144845353905e-05,0.0071003159921901315,-0.0002827808641225893,1.602654891296889,0.2063333797080849,-0.006572373363093497,0.20622867766180547,-0.0011127160050258497,0.5024150046980582,-3.013444740474153,-0.00021878188775706312,0.006867417455752921,-3.7053442967360796e-05,85.0,3.0,224000000.0,odom,base_footprint,8.661910526002658e-05,0.3637697658945716,-0.0010037967282162,-0.0027469540912359,0.0027279059113099,0.7081942289004488,0.7060070445290603,"(1e-05, 0.0, 0.0, 0.0, 0.0, 0.0, 0.0, 1e-05, 0.0, 0.0, 0.0, 0.0, 0.0, 0.0, 1000000000000.0, 0.0, 0.0, 0.0, 0.0, 0.0, 0.0, 1000000000000.0, 0.0, 0.0, 0.0, 0.0, 0.0, 0.0, 1000000000000.0, 0.0, 0.0, 0.0, 0.0, 0.0, 0.0, 0.001)",0.2070119946887779,-3.6040302362781176e-05,0.0,0.0,0.0,0.0091743288289621,"(0.0, 0.0, 0.0, 0.0, 0.0, 0.0, 0.0, 0.0, 0.0, 0.0, 0.0, 0.0, 0.0, 0.0, 0.0, 0.0, 0.0, 0.0, 0.0, 0.0, 0.0, 0.0, 0.0, 0.0, 0.0, 0.0, 0.0, 0.0, 0.0, 0.0, 0.0, 0.0, 0.0, 0.0, 0.0, 0.0)",0.2084210515022277,0.0,0.0,0.0,0.0,0.0,82,3,229000000,base_footprint,-0.0027487633410442,0.0027271441645079,0.7082040676049759,0.705997171108049,0.0,0.0,0.0,0.0,0.0,0.0,0.0,0.0,0.0,0.0008950896245826,-0.0003490434845669,0.00528880185455,0.0,0.0,0.0,0.0,0.0,0.0,0.0,0.0,0.0,0.1692385788915893,0.0097944047894554,-0.0024438333514151,0.0,0.0,0.0,0.0,0.0,0.0,0.0,0.0,0.0
3.263,1.5739433284423812,-2.2762418335368933e-05,0.007064831164345808,2.6025620796232832e-05,1.6026178378539218,0.20587820416817948,-0.006550249946936949,0.20577397594726907,0.0012418228988823423,-0.013668935132295135,0.07070687399123698,-0.00021831398038629516,0.006852267326837506,4.1352702532782e-05,85.0,3.0,224000000.0,odom,base_footprint,8.661910526002658e-05,0.3637697658945716,-0.0010037967282162,-0.0027469540912359,0.0027279059113099,0.7081942289004488,0.7060070445290603,"(1e-05, 0.0, 0.0, 0.0, 0.0, 0.0, 0.0, 1e-05, 0.0, 0.0, 0.0, 0.0, 0.0, 0.0, 1000000000000.0, 0.0, 0.0, 0.0, 0.0, 0.0, 0.0, 1000000000000.0, 0.0, 0.0, 0.0, 0.0, 0.0, 0.0, 1000000000000.0, 0.0, 0.0, 0.0, 0.0, 0.0, 0.0, 0.001)",0.2070119946887779,-3.6040302362781176e-05,0.0,0.0,0.0,0.0091743288289621,"(0.0, 0.0, 0.0, 0.0, 0.0, 0.0, 0.0, 0.0, 0.0, 0.0, 0.0, 0.0, 0.0, 0.0, 0.0, 0.0, 0.0, 0.0, 0.0, 0.0, 0.0, 0.0, 0.0, 0.0, 0.0, 0.0, 0.0, 0.0, 0.0, 0.0, 0.0, 0.0, 0.0, 0.0, 0.0, 0.0)",0.2084210515022277,0.0,0.0,0.0,0.0,0.0,83,3,263000000,base_footprint,-0.002749739971377,0.0027247821472081,0.7082132635229653,0.7059879516411671,0.0,0.0,0.0,0.0,0.0,0.0,0.0,0.0,0.0,1.4773782156848148e-05,0.0002389943026957,0.0013879189165425,0.0,0.0,0.0,0.0,0.0,0.0,0.0,0.0,0.0,-0.0149581797006768,-0.0050993653425419,0.0017465989932252,0.0,0.0,0.0,0.0,0.0,0.0,0.0,0.0,0.0
3.297,1.5739992925151085,-2.3604494048807005e-05,0.007066347255290095,5.596407272734361e-05,1.6026591905564544,0.21218513212891976,-0.006759682036145425,0.2120774316030288,0.0016738055161461109,0.18939723605826672,0.012972450968881936,-0.00022534470410554466,0.007062170585016177,5.57377236876655e-05,86.0,3.0,257000000.0,odom,base_footprint,6.507317539481624e-05,0.3706243726156608,-0.0010039000233254,-0.0027499237546955,0.0027250872175141,0.7082106938411803,0.7059905275200189,"(1e-05, 0.0, 0.0, 0.0, 0.0, 0.0, 0.0, 1e-05, 0.0, 0.0, 0.0, 0.0, 0.0, 0.0, 1000000000000.0, 0.0, 0.0, 0.0, 0.0, 0.0, 0.0, 1000000000000.0, 0.0, 0.0, 0.0, 0.0, 0.0, 0.0, 1000000000000.0, 0.0, 0.0, 0.0, 0.0, 0.0, 0.0, 0.001)",0.207745687524549,1.647075791774916e-05,0.0,0.0,0.0,0.0015910177147361,"(0.0, 0.0, 0.0, 0.0, 0.0, 0.0, 0.0, 0.0, 0.0, 0.0, 0.0, 0.0, 0.0, 0.0, 0.0, 0.0, 0.0, 0.0, 0.0, 0.0, 0.0, 0.0, 0.0, 0.0, 0.0, 0.0, 0.0, 0.0, 0.0, 0.0, 0.0, 0.0, 0.0, 0.0, 0.0, 0.0)",0.2084210515022277,0.0,0.0,0.0,0.0,0.0,84,3,297000000,base_footprint,-0.0027479241759673,0.0027227404578775,0.708233025829977,0.7059681414347516,0.0,0.0,0.0,0.0,0.0,0.0,0.0,0.0,0.0,9.864415050424348e-05,0.000301882905124,0.0018505456319571,0.0,0.0,0.0,0.0,0.0,0.0,0.0,0.0,0.0,-0.0028276090268498,-0.0006605975450273,0.0001790774511232,0.0,0.0,0.0,0.0,0.0,0.0,0.0,0.0,0.0
3.331,1.5740636757341513,-2.3560043094357318e-05,0.0070707137041833845,6.43832190427851e-05,1.602714928280142,0.20606256955714528,-0.006576112285274414,0.20595761049231665,0.001885216123107667,-0.18386073789112573,0.0063486668757224045,-0.00021924883679331605,0.006858379984298139,6.277769689948532e-05,88.0,3.0,324000000.0,odom,base_footprint,1.8781520939190448e-05,0.3845521206801621,-0.001003033386204,-0.0027451948414562,0.0027205646111288,0.7082518996937994,0.705949225520932,"(1e-05, 0.0, 0.0, 0.0, 0.0, 0.0, 0.0, 1e-05, 0.0, 0.0, 0.0, 0.0, 0.0, 0.0, 1000000000000.0, 0.0, 0.0, 0.0, 0.0, 0.0, 0.0, 1000000000000.0, 0.0, 0.0, 0.0, 0.0, 0.0, 0.0, 1000000000000.0, 0.0, 0.0, 0.0, 0.0, 0.0, 0.0, 0.001)",0.2080143225081511,2.409167500412937e-05,0.0,0.0,0.0,0.0018388638612231,"(0.0, 0.0, 0.0, 0.0, 0.0, 0.0, 0.0, 0.0, 0.0, 0.0, 0.0, 0.0, 0.0, 0.0, 0.0, 0.0, 0.0, 0.0, 0.0, 0.0, 0.0, 0.0, 0.0, 0.0, 0.0, 0.0, 0.0, 0.0, 0.0, 0.0, 0.0, 0.0, 0.0, 0.0, 0.0, 0.0)",0.2084210515022277,0.0,0.0,0.0,0.0,0.0,85,3,331000000,base_footprint,-0.0027445717137624,0.0027202208878551,0.7082557611292243,0.7059453552164592,0.0,0.0,0.0,0.0,0.0,0.0,0.0,0.0,0.0,-0.0001099665087876,0.0003923759624427,0.0017974373839538,0.0,0.0,0.0,0.0,0.0,0.0,0.0,0.0,0.0,-0.004833674374863,-0.0002636859107023,0.0003504130191048,0.0,0.0,0.0,0.0,0.0,0.0,0.0,0.0,0.0
3.365,1.57415539744355,-2.358350403753614e-05,0.007097675271000914,9.172170939875103e-05,1.6027777059770416,0.2062240727710692,-0.006594206031837836,0.20611861788081381,0.0017334437457671168,0.004849946364081491,-0.004557729049265771,-0.00021983422041128,0.006863742062825144,5.772367673404499e-05,88.0,3.0,324000000.0,odom,base_footprint,1.8781520939190448e-05,0.3845521206801621,-0.001003033386204,-0.0027451948414562,0.0027205646111288,0.7082518996937994,0.705949225520932,"(1e-05, 0.0, 0.0, 0.0, 0.0, 0.0, 0.0, 1e-05, 0.0, 0.0, 0.0, 0.0, 0.0, 0.0, 1000000000000.0, 0.0, 0.0, 0.0, 0.0, 0.0, 0.0, 1000000000000.0, 0.0, 0.0, 0.0, 0.0, 0.0, 0.0, 1000000000000.0, 0.0, 0.0, 0.0, 0.0, 0.0, 0.0, 0.001)",0.2080143225081511,2.409167500412937e-05,0.0,0.0,0.0,0.0018388638612231,"(0.0, 0.0, 0.0, 0.0, 0.0, 0.0, 0.0, 0.0, 0.0, 0.0, 0.0, 0.0, 0.0, 0.0, 0.0, 0.0, 0.0, 0.0, 0.0, 0.0, 0.0, 0.0, 0.0, 0.0, 0.0, 0.0, 0.0, 0.0, 0.0, 0.0, 0.0, 0.0, 0.0, 0.0, 0.0, 0.0)",0.2199999988079071,2.409167427686043e-05,0.0,0.0,0.0,0.0,86,3,365000000,base_footprint,-0.0027338641172954,0.0027124425336183,0.7082881652280615,0.7059129150542272,0.0,0.0,0.0,0.0,0.0,0.0,0.0,0.0,0.0,-0.0004869849824202,-0.0005482656723981,0.0098712053037431,0.0,0.0,0.0,0.0,0.0,0.0,0.0,0.0,0.0,-0.151543853471708,0.0010673632390951,-0.0008330054466648,0.0,0.0,0.0,0.0,0.0,0.0,0.0,0.0,0.0
3.399,1.574264344995306,-2.704260904426866e-05,0.007453453780262076,0.00010894755175594463,1.6028354296537757,0.22470604223605062,-0.007198148364565754,0.22459072126317126,-0.0006059915558803146,0.5550140980474904,-0.07025331236178473,-0.00023967633645103142,0.007478871723144567,-2.0179518810814477e-05,90.0,3.0,391000000.0,odom,base_footprint,-3.057021718543521e-05,0.3988109992923158,-0.001002462372114,-0.0027413093007094,0.0027187789314915,0.7083246125869873,0.7058762899176696,"(1e-05, 0.0, 0.0, 0.0, 0.0, 0.0, 0.0, 1e-05, 0.0, 0.0, 0.0, 0.0, 0.0, 0.0, 1000000000000.0, 0.0, 0.0, 0.0, 0.0, 0.0, 0.0, 1000000000000.0, 0.0, 0.0, 0.0, 0.0, 0.0, 0.0, 1000000000000.0, 0.0, 0.0, 0.0, 0.0, 0.0, 0.0, 0.001)",0.2202254035473767,2.272211602591357e-05,0.0,0.0,0.0,-0.0004045180363715,"(0.0, 0.0, 0.0, 0.0, 0.0, 0.0, 0.0, 0.0, 0.0, 0.0, 0.0, 0.0, 0.0, 0.0, 0.0, 0.0, 0.0, 0.0, 0.0, 0.0, 0.0, 0.0, 0.0, 0.0, 0.0, 0.0, 0.0, 0.0, 0.0, 0.0, 0.0, 0.0, 0.0, 0.0, 0.0, 0.0)",0.2199999988079071,2.409167427686043e-05,0.0,0.0,0.0,0.0,87,3,399000000,base_footprint,-0.0027411531991828,0.0027188971252849,0.7083265924188884,0.7058743033641378,0.0,0.0,0.0,0.0,0.0,0.0,0.0,0.0,0.0,-9.93996458369936e-05,0.0005953852551575,0.0011756460492004,0.0,0.0,0.0,0.0,0.0,0.0,0.0,0.0,0.0,-0.2006762808483294,-0.0045496340361147,0.0009265818270437,0.0,0.0,0.0,0.0,0.0,0.0,0.0,0.0,0.0
3.433,1.5742992534662534,-2.6613275845502084e-05,0.00748352527286511,3.490847094744786e-05,1.6028152501349648,0.21807906346918562,-0.006981463759830171,0.21796728444279725,0.0010421702569828337,-0.19900837137732713,0.04949434873462907,-0.0002326605697308759,0.0072583048736186,3.470426955752836e-05,90.0,3.0,391000000.0,odom,base_footprint,-3.057021718543521e-05,0.3988109992923158,-0.001002462372114,-0.0027413093007094,0.0027187789314915,0.7083246125869873,0.7058762899176696,"(1e-05, 0.0, 0.0, 0.0, 0.0, 0.0, 0.0, 1e-05, 0.0, 0.0, 0.0, 0.0, 0.0, 0.0, 1000000000000.0, 0.0, 0.0, 0.0, 0.0, 0.0, 0.0, 1000000000000.0, 0.0, 0.0, 0.0, 0.0, 0.0, 0.0, 1000000000000.0, 0.0, 0.0, 0.0, 0.0, 0.0, 0.0, 0.001)",0.2202254035473767,2.272211602591357e-05,0.0,0.0,0.0,-0.0004045180363715,"(0.0, 0.0, 0.0, 0.0, 0.0, 0.0, 0.0, 0.0, 0.0, 0.0, 0.0, 0.0, 0.0, 0.0, 0.0, 0.0, 0.0, 0.0, 0.0, 0.0, 0.0, 0.0, 0.0, 0.0, 0.0, 0.0, 0.0, 0.0, 0.0, 0.0, 0.0, 0.0, 0.0, 0.0, 0.0, 0.0)",0.2199999988079071,2.409167427686043e-05,0.0,0.0,0.0,0.0,88,3,433000000,base_footprint,-0.0027410484296636,0.0027194541751236,0.7083389104791498,0.7058619405547426,0.0,0.0,0.0,0.0,0.0,0.0,0.0,0.0,0.0,-8.026964699232086e-05,0.0001258594276113,0.0008206933766862,0.0,0.0,0.0,0.0,0.0,0.0,0.0,0.0,0.0,-0.0056286930174802,-0.000343635657356,-0.0005910514113777,0.0,0.0,0.0,0.0,0.0,0.0,0.0,0.0,0.0
3.467,1.5743209282745467,-2.6818649021913862e-05,0.007490289763652513,2.1674808293292713e-05,1.6028499544045225,0.21825180602528874,-0.0069945642284772016,0.21813969584776172,0.0007479821246345128,0.005187464147240585,-0.008834478448898526,-0.0002330613750535489,0.007264047304573716,2.490780475032928e-05,91.0,3.0,424000000.0,odom,base_footprint,-5.63476870534704e-05,0.4060735051235256,-0.0010024553839003,-0.002740922208705,0.0027191778898617,0.7083364724215678,0.7058643887138795,"(1e-05, 0.0, 0.0, 0.0, 0.0, 0.0, 0.0, 1e-05, 0.0, 0.0, 0.0, 0.0, 0.0, 0.0, 1000000000000.0, 0.0, 0.0, 0.0, 0.0, 0.0, 0.0, 1000000000000.0, 0.0, 0.0, 0.0, 0.0, 0.0, 0.0, 1000000000000.0, 0.0, 0.0, 0.0, 0.0, 0.0, 0.0, 0.001)",0.220167205352044,2.3900546375989467e-05,0.0,0.0,0.0,0.0009039966652438,"(0.0, 0.0, 0.0, 0.0, 0.0, 0.0, 0.0, 0.0, 0.0, 0.0, 0.0, 0.0, 0.0, 0.0, 0.0, 0.0, 0.0, 0.0, 0.0, 0.0, 0.0, 0.0, 0.0, 0.0, 0.0, 0.0, 0.0, 0.0, 0.0, 0.0, 0.0, 0.0, 0.0, 0.0, 0.0, 0.0)",0.2199999988079071,2.3900545784272254e-05,0.0,0.0,0.0,0.0,89,3,467000000,base_footprint,-0.0027423881577024,0.0027213210953914,0.7083465528212021,0.7058542589125665,0.0,0.0,0.0,0.0,0.0,0.0,0.0,0.0,0.0,-7.438790863675051e-05,2.5099401919815742e-05,0.0004474080952581,0.0,0.0,0.0,0.0,0.0,0.0,0.0,0.0,0.0,-0.0057614695895482,-5.4953948375603256e-05,-0.0002142760076618,0.0,0.0,0.0,0.0,0.0,0.0,0.0,0.0,0.0
