Time,Theta_calculated,linear_velocity_x,world_velocity_x,world_velocity_y,angular_velocity_yaw,linear_acceleration_x,angular_acceleration_yaw,kinematic_delta_x,kinematic_delta_y,kinematic_delta_yaw
0.458,1.5707891792017197,2.5493333101346322e-05,1.8221597373116303e-10,2.5493333100695116e-05,-3.0019604697810405e-05,0.0008489489833365931,0.002321369795102712,4.2436630593162167e-13,8.489279923354239e-07,-9.996528364370865e-07
0.49200000000000005,1.5707881795488827,3.2962924270090097e-06,2.6855705336286143e-11,3.2962924268996095e-06,-2.0361126326576614e-05,-0.0006665777980281475,0.00029004439553254627,1.4695184629133497e-13,1.0976653781177842e-07,-6.780255066750013e-07
0.525,1.5707875015233768,-2.288876314702698e-06,-2.0199954952360958e-11,-2.2888763146135628e-06,-9.290225051126176e-06,-0.0001677227850363876,0.0003324594977612744,-1.3966485366851803e-13,-7.621958128975376e-08,-3.093644942025017e-07
0.558,1.5707871921588819,-2.0213114909910114e-07,-1.846394474241479e-12,-2.0213114909066806e-07,4.634297347860361e-06,6.2665019988096e-05,0.0004181538257953915,-1.2851697584011215e-14,-6.730967268493989e-09,1.5432210168375003e-07
0.5920000000000001,1.5707873464809836,0.00014163296478719367,1.2719084842013726e-09,0.00014163296478148256,-9.684275588699328e-05,0.004259312190279062,-0.0030473589560016104,1.6248589838052404e-11,4.71637772752566e-06,-3.2248637710368762e-06
0.624,1.570784121617213,5.384272948454954e-05,6.571600803176905e-10,5.384272948053915e-05,-0.00036825022864740974,-0.0026363434024818055,-0.008150374557369862,2.006136066210963e-11,1.7929628917195443e-06,-1.2262732613958746e-05
0.658,1.5707718588845987,-2.9359481386261264e-06,-7.183651568810002e-11,-2.9359481377472814e-06,8.250194175208333e-05,-0.0017050653940893592,0.013536101213197989,-1.5590549613017783e-12,-9.776707300697741e-08,2.747314660344375e-06
0.6920000000000001,1.570774606199259,-2.169330083423429e-06,-4.711914154306452e-11,-2.1693300829117007e-06,0.00022476078063603572,2.3021563219300224e-05,0.0042720372037222945,-7.823985218123107e-13,-7.223869177416378e-08,7.48453399517999e-06
0.7240000000000001,1.5707820907332541,-1.0021935475675725e-06,-1.4267289120381183e-11,-1.0021935474660175e-06,0.0002539116072129507,3.504914522089658e-05,0.0008754001975049546,-9.547521924707263e-14,-3.337304513406627e-08,8.45525652019126e-06
0.757,1.5707905459897749,-2.895423159774411e-07,-1.6737877031603485e-12,-2.8954231597260316e-07,0.0002632837080159345,2.140093788558953e-05,0.0002814444685580721,5.544473472001019e-14,-9.641759121826162e-09,8.76734747693062e-06
0.791,1.5707993133372513,3.3996870877473717e-07,-1.0153309480247319e-12,3.399687087732209e-07,0.00027283452252635125,1.8904234977542887e-05,0.0002868112465590609,-1.6615557538591294e-13,1.1320958001037335e-08,9.085389600127498e-06
0.8240000000000001,1.570808398726852,9.508111062702581e-07,-1.1478126977000067e-11,9.508111062009763e-07,0.0002630315770165541,1.8343615540406034e-05,-0.00029438274804195606,-7.471923420430175e-13,3.1662009830251413e-08,8.758951514651252e-06
0.8580000000000001,1.5708171576783663,1.6179531733874255e-06,-3.370339401175011e-11,1.6179531730363895e-06,0.0002591283901993243,2.0034296309824846e-05,-0.00011721281733422812,-1.739874590172037e-12,5.3877840645021356e-08,8.6289753936375e-06
0.892,1.57082578665376,2.467554788689183e-06,-7.269381580204564e-11,2.467554787618408e-06,0.0002607236118871059,2.5513562021073795e-05,4.7904555188636344e-05,-3.3647209830855047e-12,8.216957439489379e-08,8.682096275840628e-06
0.924,1.5708344687500357,3.314567415351354e-06,-1.2642408163126737e-10,3.314567412940323e-06,0.00024459247724380634,2.5435814614479604e-05,-0.0004844184577567435,-5.448337622354676e-12,1.1037509479607753e-07,8.144929492218752e-06
0.9580000000000001,1.5708426136795275,4.404133762391896e-06,-2.0385363128595826e-10,4.404133757674021e-06,0.00023349904535028152,3.27197101213376e-05,-0.0003331360928986432,-8.406743436335452e-12,1.4665765404671604e-07,7.775518210164376e-06
0.9910000000000001,1.5708503891977381,5.910144013806286e-06,-3.195165863700195e-10,5.910144005169368e-06,0.00022567476293293887,4.5225533075507207e-05,-0.0002349634359562359,-1.2786107632231248e-11,1.968077952452139e-07,7.514969605666865e-06
1.024,1.5708579041673438,7.315947418950432e-06,-4.50496818736243e-10,7.3159474050802255e-06,0.0002011771137000562,4.2216318472797176e-05,-0.0007356651421286083,-1.7558880883240754e-11,2.4362104841761773e-07,6.699197886211872e-06
1.057,1.57086460336523,9.100309060085591e-06,-6.213378911140426e-10,9.10030903887418e-06,0.0001804814154055744,5.358443366772248e-05,-0.0006214924412757297,-2.3767197243263624e-11,3.0304029076737414e-07,6.010031133005629e-06
1.091,1.5708706133963632,-0.0001535765126972702,1.1408677182883444e-08,-0.0001535765122735143,0.002224324693402365,-0.004885189842563237,0.06137667501491863,6.058630954483859e-10,-5.11409783576323e-06,7.407001229029876e-05
1.124,1.5709446834086531,1.0658179528680134e-05,-1.5812114178835117e-09,1.0658179411388547e-05,0.00016367959111773616,0.004931972739518027,-0.06188123430284169,-5.6158376437211013e-11,3.5491737385662803e-07,5.450530384220615e-06
1.158,1.5709501339390375,8.841901194500012e-06,-1.3599475661397941e-09,8.841901089915185e-06,0.00018746624950377236,-5.454289291832197e-05,0.0007143140656467328,-4.830978339768999e-11,2.944353058137174e-07,6.2426261084756204e-06
1.191,1.570956376565146,7.4029704088603774e-06,-1.184843708042391e-09,7.402970314043395e-06,0.00021548619190467388,-4.321113470389292e-05,0.0008414397117387842,-4.210178649359034e-11,2.4651891102142356e-07,7.175690190425641e-06
1.224,1.5709635522553365,5.773967706486448e-06,-9.655544037817804e-10,5.7739676257538075e-06,0.00022765558485157613,-4.891900007128916e-05,0.00036544723564271034,-3.4256054524286753e-11,1.9227312157596343e-07,7.580930975557486e-06
1.258,1.5709711331863119,4.633867818324349e-06,-8.100297074911773e-10,4.633867747525163e-06,0.0002426694150251129,-3.4237233878741715e-05,0.00045086577097708003,-2.8700393551888997e-11,1.543077956815398e-07,8.08089152033626e-06
1.291,1.5709792140778323,3.818911884729712e-06,-6.9843041447533e-10,3.818911820862691e-06,0.00026268092190157624,-2.4473151158998093e-05,0.0006009461524463464,-2.4722883997974526e-11,1.2716976335671017e-07,8.747274699322489e-06
1.325,1.5709879613525315,2.97239479359911e-06,-5.696135579011692e-10,2.9723947390202888e-06,0.00026475817259870483,-2.5420933667585656e-05,6.23799008146726e-05,-2.011193541444046e-11,9.898074458230985e-08,8.816447147536872e-06
1.358,1.570996777799679,2.40177929388291e-06,-4.814390695001289e-10,2.4017792456304373e-06,0.00027244810297263563,-1.7135600592078072e-05,0.00023092884005798187,-1.6966386121496833e-11,7.997924868577132e-08,9.072521828988768e-06
1.391,1.5710058503215087,2.002560272364847e-06,-4.1958348744926285e-10,2.0025602284085408e-06,0.0002871328925610917,-1.1988559204746634e-05,0.0004409846723260085,-1.4767575813962344e-11,6.66852554350642e-08,9.561525322284356e-06
1.424,1.5710154118468305,0.033709273289781835,-7.385197830264692e-06,0.03370927248078861,-0.0004139830099891601,1.0122303522375216,-0.021054531608115667,-2.4621307668090646e-07,0.001122518773535442,-1.3785634232639032e-05
1.458,1.571001626212598,0.06705413437023895,-1.3766174643983797e-05,0.06705413295714512,2.1415985449488877e-05,1.0013471795933067,0.013075044908067535,-4.7516973122045347e-07,0.0022329026238310304,7.131523154679797e-07
1.491,1.571002339364913,0.10312014204712723,-2.124404533331972e-05,0.10312013985885703,2.2136256150085304e-05,1.0830632936002484,2.162975076866144e-05,-7.33236387649291e-07,0.0034339006520941015,7.371373297978407e-07
1.525,1.571003076502243,0.13378067856088582,-2.7659115944001447e-05,0.13378067570162874,2.148288619853732e-05,0.9207368322450027,-1.9620719265705252e-05,-9.544836303637526e-07,0.004454896494273258,7.153801104112927e-07
1.557,1.5710037918823536,0.16714375511296112,-3.467649352364533e-05,0.1671437515158802,2.1064796188633608e-05,1.0018941907530117,-1.2555255552663975e-05,-1.196461850020129e-06,0.0055658869162233445,7.014577130814992e-07
1.5910000000000002,1.5710044933400669,0.20624245428305474,-4.293277886546604e-05,0.2062424498144706,2.040953207939457e-05,1.1741351102130215,-1.967760087804922e-05,-1.481084530704198e-06,0.006867873568934374,6.796374182438392e-07
1.624,1.5710051729774843,0.21801748147198352,-4.5532118411815086e-05,0.21801747671737892,0.08873542647114932,0.3536044200879514,2.6641146227948926,-1.2294323822642735e-05,0.0072599690819395496,0.0029548897014892725
1.658,1.5739600626789745,0.21801451957919746,-0.0006897392082155673,0.21801342850194552,0.08875170360150672,-8.894572931120328e-05,0.0004888027134354512,-3.3748155842630944e-05,0.0072598024188514675,0.002955431729930174
1.691,1.5769154944089046,0.21280522932987378,-0.0013021827408368956,0.2128012451802142,0.089872304952339,-0.15643514262233266,0.033651692217185544,-5.401698841335554e-05,0.007086205613761722,0.002992747754912889
1.7240000000000002,1.5799082421638175,0.20653867254237573,-0.0018819368624339642,0.2065300984583422,0.08721601978459946,-0.1881848885134548,-0.0797683233555417,-7.270462874117409e-05,0.006877351086929391,0.0029042934588271625
1.758,1.5828125356226446,0.20645880967291266,-0.002480792470381432,0.20644390463337708,0.08811421914998045,-0.0023982843682603893,0.026972953915345092,-9.274511057460688e-05,0.0068744502992973255,0.0029342034976943495
1.792,1.5857467391203386,0.21256814241851058,-0.0031778629900725735,0.21254438679502344,0.09283696100170868,0.1834634458137511,0.14182407963147842,-0.00011681354261314708,0.007077552397681607,0.0030914708013568995
1.824,1.588838209921695,0.20617052345747772,-0.0037195026918080253,0.2061369691308573,0.08657202531677018,-0.19212068952050623,-0.18813620675491013,-0.00013380277984982082,0.006864172073923838,0.0028828484430484472
1.8570000000000002,1.5917210583647439,0.20595867185676056,-0.004309315438754761,0.20591358457724465,0.08297573505415683,-0.006361909931446113,-0.10799670458298347,-0.00015302217808539121,0.0068567142957902776,0.0027630919773034227
1.892,1.5944841503420477,0.2123375079175833,-0.005029343050920369,0.21227793803673034,0.08558229239837975,0.19155663846314516,0.07827499532200971,-0.00017760014485526264,0.007068605853111081,0.002849890336866046
1.924,1.5973340406789136,0.2177635025299607,-0.0057782672444262745,0.2176868270285738,0.006473263259513121,0.16294278115247493,-2.375646520686685,-0.00019324940321465767,0.007248949164235852,0.00021555966654178695
1.957,1.597549600345455,0.21789733932055014,-0.005828771754821209,0.21781936530713972,0.007804040239009466,0.004019122840523289,0.039963272657547885,-0.00019509242633079088,0.007253358168255154,0.0002598745399590152
1.991,1.5978094748854144,0.22466738341520678,-0.0060682352276441275,0.22458541736243146,-0.08279591016572194,0.20330462746716654,-2.720719231373315,-0.0001918156717783006,0.007478962119194631,-0.0027571038085185406
2.024,1.5950523710768962,0.21827051748211626,-0.0052938601897439975,0.21820631028043685,-0.08141686964340915,-0.19209807606878446,0.041412628297681324,-0.00016648718285057238,0.007266499011679898,-0.002711181759125525
2.057,1.5923411893177706,0.21844583333587456,-0.004706021353836511,0.21839513608325148,-0.08185690624570162,0.0052647403531019665,-0.013214312381155273,-0.00014685040936916573,0.0072727615594339184,-0.0027258349779818642
2.091,1.589615354339788,0.22522447559213457,-0.0042382554324929675,0.22518459449225425,-0.07654256465573733,0.20356283051831875,0.15958983753646502,-0.00013163082831231556,0.007498817802210101,-0.0025488674030360535
2.124,1.5870664869367523,0.21865952799451568,-0.0035574685777722075,0.21863058706435054,-0.07423760845501387,-0.19714557350206866,0.0692179039256295,-0.00010951664425298715,0.007280536778871024,-0.0024721123615519622
2.157,1.5845943745752002,0.21854165201785306,-0.0030153524741926155,0.21852084869904007,-0.0740428752380766,-0.0035398191189978724,0.005847844352470756,-9.149228096015476e-05,0.007276860023277447,-0.002465627745427951
2.191,1.5821287468297722,0.22488213113972685,-0.0025484042216609402,0.22486769119166128,0.01244990126654534,0.1904047784346486,2.597380675814472,-8.646759328799491e-05,0.007488075693243409,0.0004145817121759599
2.224,1.5825433285419486,0.2179638995235866,-0.002560363422583563,0.2179488610538547,0.014668328100705225,-0.20775470318739478,0.06661942444924576,-8.708450385496245e-05,0.00725767533936004,0.000488455325753484
2.257,1.5830317838677015,0.21767336731137046,-0.0026632666891214674,0.2176570739654777,0.015800872774122992,-0.008724691057541848,0.03401035055308609,-9.064541362832567e-05,0.007247956248779633,0.0005261690633782957
2.291,1.5835579529310806,0.2239740473113571,-0.0028581954739969133,0.22395580945280802,0.015778051466639083,0.18920960960920793,-0.0006853245490663399,-9.719038873478782e-05,0.007457702413498988,0.0005254091138390815
2.324,1.584083362044919,0.2174264371274843,-0.0028888677299760746,0.21740724460144054,0.01979562741713539,-0.19662493044663024,0.12064792644133049,-9.86372063249097e-05,0.007239628309059735,0.0006591943929906085
2.357,1.5847425564379094,0.21754242687784403,-0.0030337982958314903,0.2175212715110923,0.0200495719627704,0.0034831756864783653,0.007625962331381737,-0.00010349529888520224,0.007243423338756844,0.0006676507463602544
2.391,1.5854102071842702,0.20143268643551943,-0.0029436084079346343,0.20141117728212363,0.0983744304015284,-0.4837759892589971,2.3520978510137533,-0.0001090555248109146,0.006706818874669431,0.0032758685323708964
2.425,1.588686075716641,0.20636203228246566,-0.0036915680270056556,0.20632901078920388,0.028227326352099284,0.14802840381219928,-2.1065196411239975,-0.00012620745808066954,0.006870696370727393,0.0009399699675249062
2.457,1.5896260456841658,0.20656233693152226,-0.00388928089854446,0.2065257188165773,0.028296494678816154,0.006015154626324279,0.0020771269284345414,-0.00013280234127960983,0.006877243451508169,0.0009422732728045781
2.491,1.5905683189569704,0.2129960533844246,-0.004211081911338254,0.212954421288868,0.028772822378023765,0.19320469828535533,0.014304135111339655,-0.00014367694245907638,0.0070913129379840956,0.0009581349851881915
2.525,1.5915264539421585,0.2181625687821083,-0.004522213878732891,0.21811569406909523,0.08813196360827755,0.1551506125430541,1.7825567937013145,-0.00016129948796053182,0.007263020058589708,0.0029347943881556427
2.557,1.5944612483303144,0.21853846731503712,-0.005171212978825173,0.2184772762845903,0.08780716356423904,0.011288244232096864,-0.009753755076231501,-0.0001828895389637469,0.007275029869969213,0.0029239785466891603
2.591,1.5973852268770035,0.22515942173729256,-0.005986035984686657,0.22507983599216974,0.014738288120433542,0.1988274601277909,-2.1942605238380026,-0.00020122781790766028,0.0074951078842315205,0.000490784994410437
2.625,1.5978760118714135,0.21856078077167262,-0.005917833784357358,0.21848064933724423,0.012739756040528329,-0.19815738635495295,-0.06001597837553193,-0.0001986590971851051,0.007275362184366587,0.0004242338761495934
2.657,1.5983002457475637,0.21836769596891417,-0.006005210222534934,0.2182851073549346,0.01248670774767302,-0.00579834242517877,-0.007599047833492739,-0.0002015366792768855,0.00726885084991773,0.0004158073679975116
2.691,1.5987160531155613,0.2247218213187965,-0.006273356650166066,0.22463424042914057,0.013947371045456262,0.19081457507154154,0.043863762696193444,-0.0002106933426837372,0.00748026991941972,0.0004644474558136936
2.724,1.599180500571375,0.2176572072947205,-0.006177190463681361,0.21756953418461958,-0.0016054898031471088,-0.21215057129357404,-0.46705287833643755,-0.000205558556376136,0.007245069514483245,-5.3462810444798725e-05
2.758,1.5991270377609297,0.2174059419182001,-0.006158441001554088,0.21731869957684313,0.0007761547880218694,-0.007545506802414375,0.071520858593663,-0.0002052213302545983,0.007236708578250011,2.584595444112825e-05
2.791,1.5991528837153712,0.22396864564828672,-0.006350128551835344,0.223878605723957,0.0015400258631630376,0.19707819009269167,0.022939071325560605,-0.00021170372797871693,0.007455150632241441,5.128286124332916e-05
2.824,1.5992041665766141,0.2174670244627852,-0.006176937506904469,0.21737928183645616,0.0018608667289480465,-0.19524387944448995,0.009634860834384654,-0.0002059680389887451,0.007238722235495131,6.196686207396996e-05
2.858,1.5992661334386886,0.2176147735627974,-0.0061946136271101345,0.21752658788019094,0.0019165462313621485,0.004436909910276142,0.0016720571295526113,-0.00020656355614571042,0.007243627312722358,6.382098950435955e-05
2.891,1.5993299544281925,0.22439688548822379,-0.006401988374491092,0.22430554331462232,0.0016241274031344585,0.203667024787579,-0.008781346193023723,-0.00021344158551201288,0.007469367298419786,5.408344252437747e-05
2.924,1.599384037870717,0.2179852787096608,-0.006230851384221303,0.21789620975399335,0.001179208435515395,-0.1925407441009903,-0.013360929958530434,-0.00020768167544812224,0.007255938224936851,3.9267640902662655e-05
2.958,1.5994233055116194,0.21817034269877988,-0.006244704748843537,0.2180809530791326,0.000777173745480819,0.005557477150723048,-0.012073113814852128,-0.00020809454569882101,0.007262091558672341,2.5879885724511276e-05
2.992,1.5994491853973445,0.22497083228026216,-0.00644517546239163,0.22487848961190762,0.00037671694699839575,0.20421890635081896,-0.012025729684156855,-0.00021472483737113647,0.007488450823135551,1.254467433504658e-05
3.024,1.5994617300716794,0.21852439394164622,-0.006263232040707971,0.2184346187580349,-5.669523329888871e-05,-0.19358673689537353,-0.013015380789708242,-0.00020861075133172613,0.007273871510728502,-1.8879512688529942e-06
3.057,1.5994598421204103,0.21864014797786807,-0.006266137110059092,0.2185503370702091,-0.00047754003539600995,0.0034760971838394754,-0.012637982044958595,-0.0002086565184220279,0.007277726392012209,-1.590208317868713e-05
3.091,1.599443940037232,0.2252553534808575,-0.0064521456321215325,0.22516292787341344,-0.0009000108393668164,0.1986548199095928,-0.012686810930054247,-0.00021479768390759047,0.007497927181646569,-2.997036095091499e-05
3.125,1.5994139696762808,0.2184322285900757,-0.0062501623146887664,0.21834279002950188,-0.0009620791398300719,-0.2048986453688235,-0.001863912926824489,-0.00020806590551616214,0.00727081675372566,-3.2037235356341395e-05
3.157,1.5993819324409246,0.21812218295313926,-0.006234305576796722,0.2180330711846666,-0.0009479411210953601,-0.009310679787880752,0.0004245651271685233,-0.00020753967667506637,0.007260503062645945,-3.156643933247549e-05
3.192,1.599350366001592,0.18960296005163957,-0.005413194692191596,0.1895256705134375,0.09923499385276345,-0.8564331201651558,3.008496545761526,-0.00019073192140006944,0.006310894143141555,0.0033045252952970234
3.225,1.602654891296889,0.2063333797080849,-0.006572373363093497,0.20622867766180547,-0.0011127160050258497,0.5024150046980582,-3.013444740474153,-0.00021878188775706312,0.006867417455752921,-3.7053442967360796e-05
3.257,1.6026178378539218,0.20587820416817948,-0.006550249946936949,0.20577397594726907,0.0012418228988823423,-0.013668935132295135,0.07070687399123698,-0.00021831398038629516,0.006852267326837506,4.1352702532782e-05
3.291,1.6026591905564542,0.21218513212891976,-0.006759682036145378,0.21207743160302878,0.0016738055161461109,0.18939723605826672,0.012972450968881936,-0.00022534470410554466,0.007062170585016177,5.57377236876655e-05
3.324,1.6027149282801423,0.20606256955714528,-0.00657611228527446,0.20595761049231665,0.001885216123107667,-0.18386073789112573,0.0063486668757224045,-0.00021924883679331605,0.006858379984298139,6.277769689948532e-05
3.358,1.6027777059770418,0.2062240727710692,-0.006594206031837881,0.2061186178808138,0.0017334437457671168,0.004849946364081491,-0.004557729049265771,-0.00021983422041128,0.006863742062825144,5.772367673404499e-05
3.391,1.6028354296537755,0.22470604223605062,-0.007198148364565704,0.22459072126317126,-0.0006059915558803146,0.5550140980474904,-0.07025331236178473,-0.00023967633645103142,0.007478871723144567,-2.0179518810814477e-05
3.424,1.6028152501349648,0.21807906346918562,-0.006981463759830171,0.21796728444279725,0.0010421702569828337,-0.19900837137732713,0.04949434873462907,-0.0002326605697308759,0.0072583048736186,3.470426955752836e-05
3.458,1.6028499544045225,0.21825180602528874,-0.0069945642284772016,0.21813969584776172,0.0007479821246345128,0.005187464147240585,-0.008834478448898526,-0.0002330613750535489,0.007264047304573716,2.490780475032928e-05
3.491,1.6028748622092728,0.2250504068649533,-0.0072180493635177105,0.2249346247100852,0.0003798544516248709,0.20416218737731456,-0.01105488507536462,-0.00024046195467296752,0.007490319763905827,1.2649153239108203e-05
3.525,1.6028875113625123,0.21858561381952138,-0.0070134673359002345,0.21847306892334628,-0.00010045490824758281,-0.1941379292922502,-0.014423704500674284,-0.0002335882936600793,0.007275151916454269,-3.345148444644508e-06
3.557,1.602884166214067,0.2186558346912369,-0.00701498936042316,0.21854327710729216,-0.0005825791808246441,0.0021087348863518033,-0.01447820638369553,-0.0002335805709630354,0.00727749172377878,-1.939988672146065e-05
3.591,1.6028647663273459,0.22518622171804573,-0.007220133073680468,0.22507044259530662,-0.0010101849266585582,0.19610771852278772,-0.012841013388405828,-0.00024035794129817698,0.00749484806316723,-3.363915805772999e-05
3.624,1.6028311271692885,0.21829966302152118,-0.006991990086987832,0.2181876599396336,-0.0010602890994332566,-0.2068035644601966,-0.0015046298130540073,-0.00023275693537575098,0.007265651521424616,-3.5307627011127446e-05
3.658,1.6027958195422771,0.21799324870129602,-0.0069744829645633334,0.21788164921975905,-0.0011221078277857868,-0.009201631237992695,-0.0018564182688447489,-0.0002321665873299498,0.007255461597222258,-3.7366190665266705e-05
3.692,1.602758453351612,0.2241831587097708,-0.007164150555961088,0.22406865821864025,-0.0008950260652948236,0.18588318343768073,0.006819272146875769,-0.00023850835272395704,0.007461488168155466,-2.980436797431763e-05
3.725,1.6027286489836374,0.2173777039766288,-0.006940195284515662,0.21726688628404392,0.0010226978868930923,-0.20436801000426366,0.05758930787351098,-0.00023128341241587084,0.007234981723609386,3.405583963353998e-05
3.758,1.602762704823271,0.21739510129918604,-0.0069481505214075865,0.2172840382384662,0.0016767538179980174,0.0005224421188358333,0.01964131925240015,-0.0002316271309930365,0.007235550354730129,5.583590213933398e-05
3.791,1.6028185407254103,0.22409894640664485,-0.007174918036702818,0.22398405820891562,0.002050408594714306,0.20131666989365782,0.011220864165654314,-0.00023923271566632772,0.0074586592660971915,6.82786062039864e-05
3.825,1.602886819331614,0.21766910369884176,-0.0069839099322883715,0.21755703552658287,0.0019082822342949086,-0.19308836960369624,-0.004268058871453377,-0.00023284616586035633,0.007244640224808041,6.354579840202047e-05
3.858,1.6029503651300159,0.21785184040067992,-0.007003609464199752,0.21773923353506208,0.0015361989132889231,0.005487588643788583,-0.011173673303483048,-0.00023345747689374792,0.007250708839840979,5.115542381252114e-05
3.891,1.6030015205538284,0.2246475933862539,-0.0072335687089867375,0.22453110407684734,0.001160467530061262,0.20407666623345258,-0.011283224721551386,-0.0002410757464385202,0.007476879386769148,3.864356875104003e-05
3.924,1.6030401641225795,0.21822739378896874,-0.007035269383951098,0.2181139619204165,0.000709651303083676,-0.19279878670525985,-0.013538024834161735,-0.00023441220447028245,0.007263190487889841,2.3631388392686415e-05
3.958,1.6030637955109723,0.21840577267306446,-0.007046178554029208,0.21829208163537006,0.00029426949370341165,0.005356723246117721,-0.012473928209617548,-0.00023472531837486383,0.007269123491198048,9.799174140323608e-06
3.992,1.603073594685113,0.22519012809082942,-0.0072672600719641016,0.2250728342572924,-0.00016378335303406238,0.20373439692987846,-0.013755340742867085,-0.00024203289254705923,0.007494924310838071,-5.453985656034278e-06
4.024,1.603068140699457,0.20668052843775223,-0.006668797851988759,0.20657291199602582,-0.0026351982005461466,-0.5558438334257414,-0.07421666208744997,-0.0002218183176701288,0.006878886118943505,-8.775210007818669e-05
4.057,1.602980388599379,0.2071077172862032,-0.006664416918401673,0.20700046402517946,-0.0010138775257389192,0.012828493947476611,0.04868830855276959,-0.0002218579894629109,0.00689311761148409,-3.376212160710602e-05
4.091,1.6029466264777712,0.21317908504328473,-0.006852590807204788,0.21306891912975262,-0.0011304879592104126,0.1823233560685144,-0.0035018148189637642,-0.00022810843722256285,0.00709519767027967,-3.764524904170674e-05
4.124,1.6029089812287296,0.2066075114856362,-0.00663357536714598,0.20650099147494597,-0.001083263031056216,-0.1973445512807368,0.001418166010636532,-0.00022082318350852094,0.006876485420627332,-3.6072658934172e-05
4.158,1.602872908569795,0.20628695914296416,-0.006615845862715093,0.20618084318377344,-0.001371347408272581,-0.009626196476637578,-0.008651182498989938,-0.00022019997439796425,0.006865825532163004,-4.566586869547695e-05
4.192,1.6028272427010997,0.22463254412914,-0.007193955841577901,0.22451731978018863,0.0007470910861982847,0.5509184680533283,0.06361677160573169,-0.00023970516768510554,0.007476422054904323,2.487813317040288e-05
4.224,1.602852120834271,0.21742189379206076,-0.006968437873110431,0.21731019482236624,0.0008823861607673741,-0.21653604615853567,0.004062915152224907,-0.00023220701981420107,0.007236424417817638,2.938345915355356e-05
4.258,1.602881504293424,0.21745793482579154,-0.006975979379900985,0.21734601245569105,0.0019087139085408069,0.0010823133252487267,0.030820653086289264,-0.00023258185696942052,0.007237613165173289,6.356017315440887e-05
4.292,1.602945064466578,0.22419302281241052,-0.007206281196941488,0.22407717641267408,0.002077440058771433,0.2022548944930625,0.005066851358277057,-0.00024028059528295983,0.0074617599509667325,6.917875395708872e-05
4.324,1.6030142432205352,0.217774971933608,-0.007015042102940049,0.21766195713761682,-0.004811662343359299,-0.19273426062470003,-0.20687995201593787,-0.00023307202890400603,0.007248160190691213,-0.00016022835603386466
4.357,1.6028540148645014,0.21796288213210258,-0.006986189330258029,0.2178508920017879,-0.005393345289557891,0.005642948903740765,-0.01746795634230005,-0.00023204051291102356,0.007254453897210449,-0.00017959839814227777
4.392,1.6026744164663596,0.2247616776776796,-0.007163759454748626,0.2246474845239974,-0.005625426189605222,0.2041680344017124,-0.00696939639781777,-0.00023790598491499088,0.007480781834327653,-0.00018732669211385391
4.424,1.6024870897742458,0.21833516851617088,-0.006918049968405449,0.2182255402000861,-0.005881906013902913,-0.19298826310836995,-0.007702096825756469,-0.00022971132786597367,0.007266931361596787,-0.000195867470262967
4.457,1.6022912223039825,0.21850512325831356,-0.006880658373442562,0.21839676149265308,-0.006313458137909024,0.005103746010290708,-0.012959523243426753,-0.00022841341370285128,0.00727263455721342,-0.0002102381559923705
4.492,1.6020809841479906,0.2252580940040171,-0.007045972805098808,0.22514786959141414,-0.000631530158526375,0.20279191428539192,0.17062846784932878,-0.00023460564769701766,0.0074974248472896065,-2.102995427892829e-05
4.525,1.6020599541937113,0.21863733917903844,-0.006834282859516795,0.21853049824014503,-0.0009228335713453797,-0.1988214662155758,-0.008747850234804944,-0.00022752181928130234,0.007277067461057548,-3.0730357925801145e-05
4.558,1.6020292238357854,0.21845912801704312,-0.006822002189885348,0.2183525839098041,-0.0010960033723286724,-0.0053516865464059305,-0.005200294323822601,-0.00022709195699680646,0.007271143565162151,-3.649691229854479e-05
4.591,1.6019927269234868,0.22476143946495653,-0.007010610530900843,0.2246520776897987,-0.0011209222047656052,0.1892586020394416,-0.0007483132863943791,-0.00023336718222954122,0.007480916874532863,-3.7326709418694655e-05
4.625,1.6019554002140683,0.2178277982007611,-0.006786214123664377,0.21772206357385854,-0.0012436384734799126,-0.20821745538124423,-0.003685173234663887,-0.00022588262564027573,0.007250147779881969,-4.1413161166881095e-05
4.658,1.6019139870529013,0.21744284307404654,-0.006765220589210732,0.21733757566169679,0.00037690566053768555,-0.011560214015451887,0.04866498900953748,-0.00022537899298526884,0.007237338244821032,1.255095849590493e-05
4.691,1.601926538011397,0.21330317867958773,-0.0066391005698133955,0.2131998320319227,-0.005591186893060072,-0.12431424607984426,-0.17922199860653926,-0.00022047187189107024,0.007099573371230277,-0.0001861865235389004
4.725,1.6017403514878588,0.20598721772250542,-0.006373056369735292,0.2058886058468682,-0.003307127030189611,-0.21969852723970906,0.0685903862723862,-0.0002118942598381574,0.006856100732252758,-0.00011012733010531407
4.758,1.601630224157753,0.2060843411490727,-0.006353376587938734,0.2059863837072228,-0.00307616032924563,0.002916619416435015,0.006935936965284721,-0.00021126514540913076,0.006859355891668354,-0.00010243613896387949
4.792,1.6015277880187888,0.21249604471175562,-0.006529286110693974,0.2123957095636001,-0.003390744538718478,0.19254365053101857,-0.009446973257442884,-0.00021707648046557208,0.0070727878369817206,-0.00011291179313932533
4.825,1.6014148762256495,0.2064254440693351,-0.006319460144012969,0.20632869015895594,0.0012637811141984437,-0.18230031959220763,0.13977554513264026,-0.00021063170591518587,0.006870739446907363,4.208391110280818e-05
4.857,1.601456960136753,0.20659930884157485,-0.0063334732255156305,0.20650220708437506,0.0009992667692423581,0.005221164331523728,-0.007943373722404973,-0.00021106821909129572,0.00687651847720758,3.327558341577053e-05
4.891,1.6014902357201688,0.21304200991043099,-0.0065380653338897796,0.21294166264112332,0.0006195001241002927,0.19347450657225637,-0.011404403758019982,-0.0002178413998155154,0.007090953562884266,2.0629354132539748e-05
4.924,1.6015108650743013,0.2186188949728234,-0.0067137227002291465,0.21851578242004133,-0.006013076035430112,0.1674740258976705,-0.1991764612471593,-0.00022289046045991055,0.007276596296034503,-0.00020023543197982276
4.957,1.6013106296423212,0.21859957807479502,-0.006669378613636399,0.21849781445906133,-0.00045131648600898273,-0.0005800870278796724,0.1670198062889228,-0.00022208763879906374,0.007275977302928372,-1.5028838984099126e-05
4.991,1.6012956008033372,0.22528141619904798,-0.006869854463087567,0.2251766452905467,-0.0006902930643989621,0.20065579952711604,-0.007176473825524905,-0.00022873356722219866,0.007498383282094074,-2.298675904448544e-05
5.024,1.6012726140442926,0.21856895417480357,-0.006660139125430904,0.2184674581623023,-0.0010244806236121,-0.2015754361634959,-0.01003566243883297,-0.00022171053790322515,0.0072749685539575636,-3.411520476628294e-05
5.057,1.6012384988395265,0.21831499262788842,-0.006644956112435531,0.21821384136754202,-0.0010514744658206474,-0.0076264728803348055,-0.0008106258921485697,-0.00022120176129702268,0.007266523209092913,-3.501409971182756e-05
5.091,1.6012034847398144,0.2246106334982411,-0.006828718595232631,0.22450680453569402,-0.001085966351480586,0.18905828439497505,-0.0010357923621603185,-0.00022731458767193157,0.007476079076464398,-3.6162679504303516e-05
5.124,1.6011673220603102,0.2176203471422941,-0.0066083305056181835,0.21751998864072497,-0.0007365243789933604,-0.20991850918759694,0.010493752927544312,-0.00022002035187074069,0.007243416747203959,-2.45262618204789e-05
5.158,1.6011427957984896,0.217373290369497,-0.00659549940140865,0.21727320762972066,0.0009529367726564526,-0.0074191223062192065,0.050734569118613,-0.00021979664080057227,0.007235192757269085,3.173279452945988e-05
5.191,1.6011745285930186,0.22398105492065218,-0.006803095216776987,0.22387771407364263,0.0016823369538815607,0.1984313679025575,0.02190390934609934,-0.00022680518168415685,0.007455119908160052,5.602182056425598e-05
5.225,1.6012305504135833,0.21750264282432244,-0.00661850223652907,0.21740192056122656,0.0019330866172309136,-0.19454690979969183,0.007530019920400986,-0.00022068087839682718,0.007239475278893466,6.437178435378944e-05
5.257,1.601294922197937,0.21766022312552594,-0.006637302005181554,0.2175590010850982,0.00185631891647609,0.004732141177282195,-0.0023053363590037138,-0.00022129785640704038,0.007244706318658984,6.18154199186538e-05
5.292,1.6013567376178557,0.22444409568978677,-0.006858036157168699,0.22433929533203303,-0.004648075967250497,0.2037198968246495,-0.19532717368548308,-0.00022784785398135375,0.007470514550222498,-0.00015478092970944157
5.324,1.6012019566881461,0.21803413827905627,-0.0066284438671370014,0.21793335950925657,-0.005071884448834626,-0.1924912135354504,-0.012726981428952816,-0.00022016620497618587,0.007257197903405933,-0.00016889375214619308
5.358,1.6010330629360006,0.2182176823960026,-0.006597185119384871,0.21811793612351837,-0.005479061045736459,0.0055118353437333765,-0.012227525432487478,-0.0002190755717550549,0.007263345708121541,-0.0001824527328230241
5.391,1.6008506102031772,0.22502019909889484,-0.006761802784748844,0.22491858088118566,8.60807055405913e-05,0.2042797808676352,0.1671213739122237,-0.00022523230168881926,0.007489786810880074,2.8664874945016906e-06
5.425,1.6008534766906717,0.21856252655442165,-0.006568377503971133,0.2184638057684101,-0.0002036296886885001,-0.1939241004346302,-0.008700011838711453,-0.00021875430360496619,0.0072748439101609445,-6.780868633327054e-06
5.457,1.600846695822038,0.21865248619098762,-0.006569599042885906,0.21855376932442908,-0.0006064877595190532,0.0027014905875665813,-0.012097839964881472,-0.00021874617535763352,0.0072778411638132695,-2.0196042391984472e-05
5.492,1.6008264997796466,0.213000886877644,-0.006395492123196589,0.21290485079294236,-0.016538391670975306,-0.16971769709740564,-0.47843555289658407,-0.00021106829351327466,0.007089788308852111,-0.0005507284426434778
5.524,1.600275771337003,0.20692656611139776,-0.006099196735128027,0.20683665913430552,-0.009114791706568428,-0.18241203502241005,0.2229309298620684,-0.0002021071983544592,0.00688769002222447,-0.0003035225638287287
5.557,1.5999722487731738,0.20660217904299738,-0.006026953912936777,0.20651425183712166,-0.00905067502471874,-0.009741353405416757,0.001925425881371991,-0.000199710406459545,0.006876953298658151,-0.0003013874783231341
5.5920000000000005,1.5996708612948511,0.21253057299795675,-0.006135868660813188,0.2124419816670356,-0.009560596234524264,0.17802984849727824,-0.015312949243409117,-0.00020324886981224757,0.007074348942611518,-0.000318367854609658
5.625,1.5993524934402412,0.2059154959891662,-0.005879358083981194,0.20583154431958348,0.0006573105026581234,-0.19865096122494139,0.3068440461616332,-0.000195906628849812,0.006854186882513233,2.188843973851551e-05
5.657,1.5993743818799802,0.20591120340799904,-0.005883740757002932,0.20582712475190132,0.0013306147811074907,-0.0001289063413561269,0.020219347701182198,-0.00019612940653238378,0.0068540375095754455,4.430947221087945e-05
5.692,1.5994186913521906,0.22472282472286534,-0.006431220411056675,0.22463078007131632,-0.02532640750477436,0.5649135529989879,-0.8005111797562117,-0.0002110587927043673,0.0074802928890955285,-0.0008433693699089863
5.725,1.598575321982282,0.21761382155300654,-0.006044315859509019,0.2175298636433496,-0.00728629540872375,-0.21348357867443832,0.5417451079895077,-0.0002004487036280814,0.0072437673738353055,-0.0002426336371105009
5.757,1.5983326883451712,0.21776255015071475,-0.005995630547009533,0.21767999600901858,-0.007149879041640366,0.0044663242555015945,0.00409658760010162,-0.00019884337633180467,0.007248766145517901,-0.00023809097208662421
5.791,1.598094597373085,0.22455831196842824,-0.006129292240929612,0.2244746472337917,0.0010055746330752259,0.2040769314628676,0.24490851876022798,-0.00020428401254003447,0.007475000874259997,3.3485635281405025e-05
5.825,1.5981280830083655,0.21813837305183684,-0.005961362553988948,0.21805690072593953,0.000769530449046613,-0.19279095845619817,-0.0070884139347931795,-0.00019865831043063646,0.007261290830141612,2.5625363953252216e-05
5.857,1.598153708372319,0.2183204353572786,-0.005971930466171642,0.21823874207183952,0.0003611665503083533,0.005467336499752727,-0.01226318014229008,-0.00019896093017186234,0.007267347493022348,1.2026846125268166e-05
5.891,1.5981657352184442,0.22511539556339222,-0.006160506013102482,0.22503108559780158,-5.5910618493329473e-05,0.20405285904245088,-0.012524839903954437,-0.00020519143497648115,0.0074935338745828915,-1.8618235958278716e-06
5.924,1.5981638733948484,0.21862327736599846,-0.005982435875817864,0.21854140995985646,-0.007893973330763892,-0.194958504426239,-0.23537725862674364,-0.00019831062228788517,0.007277453634363368,-0.00026286931191443763
5.958,1.5979010040829342,0.21864690074506768,-0.005925628065392246,0.21856658970998774,-0.008430703383210747,0.000709410782859485,-0.016118019592998648,-0.00019635377506235197,0.007278293636991606,-0.00028074242266091793
5.991,1.597620261660273,0.22510282610824986,-0.006037419473911891,0.225021847579334,-0.001300339208544011,0.1938716325279934,0.21412505029029236,-0.00020093739375618775,0.007493230438788621,-4.3301295644515574e-05
6.024,1.5975769603646288,0.21817689076327149,-0.00584221696453662,0.2180986569515452,-0.0010537110880034035,-0.20798604639574692,0.007406249866084308,-0.00019447031698006456,0.0072626872983323825,-3.508857923051334e-05
6.057,1.5975418717853982,0.21787135101962454,-0.005826393336193118,0.21779343134219736,-0.001189334102964052,-0.00917536767708538,-0.004072763212031485,-0.00019392711870942281,0.007252523717935059,-3.960482562870293e-05
6.091,1.5975022669597694,0.22409112163239717,-0.005983852738755594,0.2240112146765575,-0.009094617952017665,0.18677989828146016,-0.23739591138299135,-0.00019818604255779002,0.007459602091707978,-0.0003028507778021883
6.124,1.597199416181967,0.21736755905155186,-0.0057385082961133056,0.21729179747649321,-0.007481864765942911,-0.20190878621157068,0.04843102660885148,-0.00019024265536442256,0.007235839226472537,-0.000249146096705899
6.157,1.5969502700852614,0.21743914840231482,-0.005686242845751725,0.21736478532693157,-0.00726828080163041,0.0021498303532419593,0.006413932862237273,-0.00018852767104939248,0.007238268848157088,-0.00024203375069429268
6.192,1.5967082363345675,0.21350277137521512,-0.005531645433782623,0.21343109961693094,-0.016144529425712695,-0.11820952033332438,-0.26655401273520374,-0.00018234410833331628,0.007107303486897827,-0.0005376128298762328
6.224,1.5961706235046913,0.20629087307843738,-0.005233924131844032,0.2062244659434134,0.0011527274929425235,-0.2165735224257578,0.5194371447043609,-0.0001744705610085338,0.006867270122249627,3.838582551498603e-05
6.258,1.596209009330206,0.2064251762563433,-0.005245252861032567,0.20635852469642788,0.0012563595796543702,0.0040331284656430775,0.003112074676031431,-0.00017485978227098627,0.0068717339669852415,4.183677400249053e-05
6.292,1.5962508461042084,0.21286602780391442,-0.005417817307435176,0.21279707011291332,0.0009126310912953982,0.19341896539252626,-0.010322176827596754,-0.00018057164128206868,0.007086138401741326,3.0390615340136764e-05
6.324,1.5962812367195482,0.20677803288549623,-0.005269149130875943,0.20671088735582355,-0.0060917273121648095,-0.18282267022276838,-0.2103410931970032,-0.00017481369348220835,0.006883489049119667,-0.00020285451949508818
6.357,1.5960783822000533,0.20694859901350204,-0.0052315285879481485,0.20688246359294146,-0.006642159253458416,0.005122105946120458,-0.016529487726534717,-0.0001734972532646715,0.006889204007770884,-0.00022118390314016526
6.392,1.5958571982969136,0.2133753046198445,-0.005346811374713179,0.21330830323673453,-0.007241915650134966,0.1929941623526262,-0.018010702602899397,-0.0001772431028848838,0.007103186631005425,-0.0002411557911494944
6.424,1.595616042505764,0.2185253458168114,-0.005423180122417617,0.21845804146727316,-0.009573540732302235,0.15465589180080808,-0.07001877123625432,-0.00017948431580792673,0.007274680161192941,-0.00031879890638566446
6.458,1.5952972435993784,0.21861133976169264,-0.0053556423829990195,0.21854572740519926,-0.0011294517247388096,0.002582400747184241,0.2535762464733761,-0.00017825805101379693,0.0072775748007511245,-3.7610742433802364e-05
6.491,1.5952596328569442,0.22495736755343884,-0.00550265204829692,0.22489005766598125,-0.000791823956101032,0.19057140515754353,0.010138972031164492,-0.00018319310852696463,0.007488840025988806,-2.6367737738164368e-05
6.524,1.595233265119206,0.218027606756914,-0.005327396920804211,0.21796251088248125,-0.000798881259375336,-0.20810092482056614,-0.00021193102925837784,-0.0001773576523735381,0.007258152703741584,-2.660274593719869e-05
6.557,1.5952066623732692,0.2176443707763451,-0.005312244527743939,0.21757953072085767,-0.000679769521240949,-0.01150858800507164,0.003576929073104712,-0.0001768675253382646,0.007245399110537048,-2.2636325057323606e-05
6.591,1.5951840260482122,0.22396446178121232,-0.00546143652589921,0.22389786254455785,0.0011137225230339286,0.1897925226686852,0.05385861994819452,-0.00018205738371988075,0.00745579414751745,3.7086960017029824e-05
6.624,1.595221113008229,0.21753939788824206,-0.0053128250041330136,0.21747451235502144,0.08055170211637983,-0.1929448616507586,2.3855249127130898,-0.00018668135048692958,0.0072416539643684625,0.0026823716804754484
6.657,1.597903484688704,0.2175112847873552,-0.005895390691627072,0.21743137625108075,0.08169090690051177,-0.0008442372638693905,0.03421035387783617,-0.00020621615605395422,0.007240187404964141,0.0027203071997870423
6.691,1.6006237918884914,0.22427133250050932,-0.006688453477414037,0.2241715752981062,-0.003894953228365392,0.20300443583045374,-2.5701459498161308,-0.0002222947495540371,0.00746492629178293,-0.00012970194250456758
6.724,1.600494089945987,0.21783082710751597,-0.0064681374426106605,0.21773477544105818,-0.004676188471828989,-0.19340857036016051,-0.02346051782172962,-0.00021487628156345047,0.007250583227095313,-0.00015571707611190534
6.758,1.6003383728698743,0.21801631436593877,-0.0064397112178501865,0.2179211863246402,-0.005075761233373664,0.0055701879406244775,-0.011999182028368627,-0.0002138809707010858,0.007256792064342057,-0.00016902284907134303
6.791,1.6001693500208036,0.2248158157922901,-0.0066025706616505316,0.22471884008914528,-0.005653603509303951,0.2041892320225624,-0.017352620898807406,-0.0002192146818847109,0.007483156460597575,-0.00018826499685982158
6.825,1.599981085023943,0.218382858200453,-0.006372546191889438,0.21828986098953707,-0.012656961559228415,-0.19318190966477763,-0.21031105255028418,-0.00021072586993302846,0.00726909536964699,-0.00042147681992230627
6.857,1.5995596082040215,0.21854870098465634,-0.0062853110371135276,0.21845830166704008,-0.013249002612927854,0.004980263789890106,-0.017779010621604766,-0.00020774808697422107,0.00727470589570455,-0.0004411917870104976
6.891,1.599118416417011,0.22527568194351974,-0.0063794251077153715,0.22518533657947834,-0.014045848834331218,0.20201144020610806,-0.023929315958059,-0.00021073478144180915,0.00749871960936291,-0.0004677267661832296
6.924,1.5986506896508272,0.21860602402077503,-0.006088344154903334,0.21852122506434735,-0.014767723992771254,-0.2002900277100513,-0.021677932685886955,-0.00020100463595468368,0.007276804915532261,-0.0004917652089592828
6.958,1.5981589244418686,0.21838392802824488,-0.005974805922172229,0.21830217982246086,-0.01478469395869223,-0.006669549325229636,-0.0005096085862154807,-0.00019722350033155744,0.00726950986220066,-0.0004923303088244513
6.991,1.5976665941330435,0.22467769321555656,-0.006036423226164488,0.2245965881826756,-0.01521083314220411,0.1890019575769271,-0.012796972477834234,-0.00019917219142274718,0.00747911555186306,-0.0005065207436353969
7.025,1.597160073389409,0.20691569919508057,-0.0054544411598160475,0.2068437952780387,-0.001292814955209507,-0.5333932138281076,0.417958504113952,-0.0001815338579322415,0.006887900992992242,-4.3050738008476586e-05
7.057,1.5971170226513998,0.20615471031046728,-0.005425508932362004,0.20608330460281726,-0.0067060411211659985,-0.02285251905745614,-0.16255934432301775,-0.00017995225225856914,0.0068625928729392814,-0.00022331116933482778
7.091,1.596893711482065,0.21214738519065127,-0.0055358634834547,0.21207514531109753,0.0005738021588725679,0.17996020661213166,0.21861391231347044,-0.00018446220098935698,0.007062099258976974,1.910761189045651e-05
7.125,1.5969128190939559,0.20597462076474402,-0.005378723103018176,0.20590438008202058,0.0011219062908955073,-0.1853683010782958,0.016459583544232416,-0.00017928856734413374,0.006856611228089961,3.73594794868204e-05
7.157,1.596950178573442,0.20610817212446556,-0.005389908064004566,0.2060376846781916,0.0012244168053068551,0.004010551342989185,0.003078393826166601,-0.0001796728516388538,0.006861049954787907,4.077307961671828e-05
7.191,1.5969909516530594,0.21252929416470986,-0.005566488498937592,0.21245638395666297,0.000978729506773135,0.19282648769502428,-0.007377996952964569,-0.00018552992455077145,0.007074793237948177,3.2591692575545396e-05
7.224,1.5970235433456343,0.218444725753325,-0.005728540328455818,0.21836959961301997,-0.00823444634114158,0.1776405882467005,-0.27667194738482626,-0.0001898153891386585,0.007271732373374755,-0.00027420706316001465
7.257,1.5967493362824747,0.218143152356929,-0.0056608357686302535,0.218069690371264,-0.006220261518956364,-0.009056258150029993,0.060486030696252704,-0.00018780565651130575,0.007261738818313182,-0.00020713470858124694
7.291,1.596542201573893,0.22492127023148553,-0.005790155141587075,0.22484672980939996,-0.006699127992085799,0.20354708332001614,-0.014380374568451489,-0.00019203053386409206,0.0074874161745464305,-0.00022308096213645713
7.324,1.5963191206117564,0.218484321590443,-0.005575724896209818,0.21841316368918318,-0.00017621725826281158,-0.19330176099226792,0.1958832052199095,-0.00018570228512335206,0.007273157568435034,-5.868034700151626e-06
7.357,1.5963132525770565,0.2186188791236503,-0.005577876362091675,0.2185477101334408,-0.0004081110817016847,0.004040766762981719,-0.006963778481647841,-0.00018574584855370665,0.007277638681855611,-1.3590099020666102e-05
7.391,1.5962996624780361,0.22527769219796945,-0.005744709812970981,0.2252044335958061,-0.0007629739952263114,0.19996435658616057,-0.010656543949688489,-0.00019125717114597976,0.007499308701278012,-2.5407034041036174e-05
7.424,1.596274255443995,0.21849955061886067,-0.005566313709494857,0.21842863771111048,-0.0008243219331311741,-0.2035477951684317,-0.001842280417563445,-0.00018531040487697594,0.007273674854540361,-2.74499203732681e-05
7.458,1.5962468055236219,0.2182067970402012,-0.005552867944272084,0.21813613165208798,-0.0007846295719335446,-0.008791398758542353,0.0011919627987276142,-0.00018486752560636766,0.0072639342776888854,-2.612816474538704e-05
7.491,1.5962206773588763,0.22450593033895794,-0.005707302565809743,0.22443337419996912,0.0730116532921628,0.1891631621248266,2.216104590513404,-0.00019919167582081902,0.0074733915374436775,0.0024312880546290216
7.524,1.5986519654135058,0.217622533235635,-0.006061230714984752,0.2175381080503248,0.07058064229657654,-0.2067086217214098,-0.0730033332007887,-0.0002104035057163429,0.007243773630421941,0.002350335388475999
7.558,1.6010023008019818,0.2174074563960623,-0.00656600539904994,0.21730828256121623,0.07270210375610887,-0.0064587639511320604,0.06370755133730732,-0.00022745903122087694,0.007236092443723725,0.002420980055078426
7.591,1.6034232808570597,0.2240364525620512,-0.007308330243263429,0.22391721770699913,0.07573915707047484,0.19906895393360105,0.09120280223321206,-0.0002528234272926884,0.007456126737622764,0.0025221139304468124
7.624,1.6059453947875069,0.21756993038085584,-0.007645805705148634,0.21743554507267113,0.06619061042698124,-0.19418985529115212,-0.28674314244725513,-0.0002626365500219016,0.007240315317376316,0.0022041473272184755
7.657,1.6081495421147256,0.21773801112139107,-0.008131323616133192,0.21758612792029905,0.06577473356119569,0.005047469685742683,-0.012488794768334832,-0.0002787596769515604,0.0072453137372772295,0.0021902986275878166
7.691,1.6103398407423128,0.22451942313807008,-0.008875973307219561,0.22434390667923498,0.06716762712626895,0.20364600650687703,0.04182863558778553,-0.00030397779244031945,0.007470313143129043,0.002236681983304756
7.725,1.6125765227256181,0.2072790122061987,-0.008657638455613181,0.20709812697740498,-0.015929209187784822,-0.5177300580141552,-2.4954004899115243,-0.00028651957624646694,0.006896441720331635,-0.0005304426659532346
7.758,1.612046080059665,0.2068219880331348,-0.008528936771633404,0.20664605481722523,0.05780300136650742,-0.013724449641558462,2.214180497125893,-0.0002906853135823399,0.006881033958397209,0.0019248399455046973
7.792,1.613970920005169,0.21322934594931514,-0.009203230443220772,0.2130306422169865,0.060117832087423655,0.1924131506360459,0.06951443606355054,-0.0003136188129634103,0.007093606643741316,0.0020019238085112077
7.824,1.6159728438136804,0.20709092154042963,-0.00935246451538232,0.20687962971726556,0.05815211770429226,-0.18433706933590124,-0.05903046195589774,-0.00031815635410462653,0.006888783546665257,0.0019364655195529324
7.857,1.6179093093332337,0.20708450152521196,-0.009752759645074884,0.20685471822332438,0.057415320072625155,-0.000192793249779803,-0.02212605500501816,-0.0003314008665905815,0.006887945085930888,0.0019119301584184178
7.892,1.6198212394916514,0.2132519348320375,-0.010450470130193226,0.21299571681999974,0.05878340346539942,0.18520820741217828,0.0410835853685965,-0.0003549931159072491,0.007092409699992599,0.0019574873353978006
7.924,1.6217787268270492,0.21818918002426882,-0.011118989841773515,0.2179056822218304,-0.022820510616710046,0.14826562138832794,-2.450567990453737,-0.00036755709285719705,0.0072563965780656735,-0.0007599230035364446
7.958,1.621018803823513,0.21794045976747706,-0.010940909009779053,0.2176656622292525,0.0490023689297288,-0.007469076780533403,2.1568432296227877,-0.0003702976966894652,0.0072479634342326885,0.0016317788853599691
7.992,1.6226505827088733,0.20143737428865116,-0.010440704749860625,0.2011666161286022,-0.013164555654200773,-0.49558815251729416,-1.8668746121300168,-0.00034625501866630663,0.006698921834737479,-0.0004383797032848858
8.024,1.6222122030055885,0.1949088814487955,-0.01001699608369236,0.19465130838779363,0.05458465653767624,-0.19605083603170131,2.034510876632943,-0.00033950307614808855,0.006481579417386885,0.001817669062704619
8.057,1.6240298720682933,0.19459891399512144,-0.010354298128170479,0.19432325089487784,0.056604102067570744,-0.009308331942164108,0.06064400990674188,-0.0003509427851175836,0.0064706329570155645,0.001884916598850106
8.091,1.625914788667143,0.20039238288830036,-0.01103972806900455,0.20008805942337896,0.06041960600931504,0.17397804484020765,0.11457969795027922,-0.0003743731352805269,0.006662555384233129,0.002011972880110191
8.124,1.6279267615472532,0.21885483126638117,-0.012496471224371114,0.21849776972677465,-0.09864248628030144,0.5544278792216458,-4.776639408096591,-0.0004042337210765911,0.007276643212622595,-0.003284794793134038
8.157,1.624641966754119,0.2177633051978771,-0.011719939238362512,0.2174476951244893,-0.024814968297765423,-0.03277856061573792,2.2170425820581383,-0.0003873339275642607,0.007241165904442868,-0.0008263384443155887
8.192,1.6238156283098037,0.2245274327807342,-0.011898711190118393,0.22421192819098915,-0.024504050334934184,0.20312695444015327,0.009336875760697872,-0.00039323422925602926,0.00746641522737226,-0.0008159848761533084
8.225,1.6229996434336504,0.20769677860405636,-0.010837536748464069,0.2074138366641148,-0.10686973504249776,-0.5054250503506859,-2.4734439852121195,-0.00034864862397380585,0.006907505850188162,-0.0035587621769151757
8.258,1.6194408812567351,0.2068229688739208,-0.010056843838799033,0.20657831528460296,-0.03355031423262171,-0.02624053243650349,2.2017844087049863,-0.00033109927126349144,0.0068792411769428505,-0.0011172254639463032
8.291,1.6183236557927891,0.22544274566648106,-0.010710658190897848,0.22518817325685517,-0.1084637355377269,0.5591524562330411,-2.2496522914445998,-0.00034317557884030976,0.007499391520736905,-0.003611842393406306
8.324,1.6147118133993823,0.21858141458468222,-0.009596024056083943,0.21837067368159993,-0.033609940505997915,-0.2060459784323977,2.247861712664534,-0.00031553020381329476,0.007271918480943588,-0.0011192110188497308
8.357,1.6135926023805327,0.2186434776666995,-0.009354270490842951,0.21844328314180933,-0.03338969331522233,0.0018637562167352234,0.006614029753020499,-0.0003075051519809965,0.007274330805321713,-0.0011118767873969037
8.391,1.6124807255931355,0.2251399076817042,-0.009382104105997052,0.22494433567767502,-0.034952724603988926,0.19508798843857925,-0.046937876539537335,-0.0003081182600278762,0.007490824303846164,-0.0011639257293128314
8.424,1.6113167998638227,0.20707848281225796,-0.008388622087493459,0.20690850408646777,-0.10899686367376298,-0.5423851312146014,-2.2235477198130345,-0.0002668857134812255,0.006890543097535863,-0.0036295955603363075
8.457,1.6076872043034864,0.2066059416162967,-0.007620145787383304,0.20646536874094804,-0.03458269068465933,-0.01419042630514318,2.234659849522632,-0.0002498411336618835,0.00687543958400996,-0.0011516035997991558
8.491,1.6065356007036877,0.2125808849552404,-0.007595869205678243,0.21244513508048002,-0.03475867096895817,0.1794277278962077,-0.005284693222187405,-0.0002488987605909911,0.007074566025544684,-0.001157463743266307
8.524000000000001,1.6053781369604216,0.19491168164487294,-0.006739055378410548,0.19479514566394876,0.05392192835659812,-0.5306067060170413,2.663081060827516,-0.0002302805251315176,0.006486471743364591,0.0017956002142747176
8.557,1.607173737174696,0.1944632043400936,-0.007072507686781019,0.19433455039502737,0.05731798208188846,-0.013467786930310609,0.10198359535406419,-0.00024173650156740243,0.006471110109321546,0.0019086888033268859
8.592,1.6090824259780225,0.20041943599924425,-0.007671403927895379,0.20027256399225093,0.05961698029311902,0.1788658155901098,0.06903898532223916,-0.0002621251235676852,0.006668816553771111,0.0019852454437608636
8.625,1.6110676714217833,0.23014429965601935,-0.009265715437563002,0.22995770302729532,-0.11450897678840707,0.8926385482515043,-5.229007720165948,-0.0002940025630278155,0.0076581591222193695,-0.003813148927053956
8.657,1.6072545224947294,0.2177608400951074,-0.007937408650587192,0.21761613226698187,0.05174723393337106,-0.37187566248984805,4.992679000653998,-0.00027061099331163814,0.0072463839520608775,0.0017231828899812564
8.691,1.608977705384711,0.22544974121278305,-0.008605890596638991,0.22528542886735828,-0.13455873539687885,0.23089793146173107,-5.594773853761257,-0.0002698213381092279,0.007502619794182745,-0.004480805888716066
8.724,1.6044968994959952,0.20682151714551825,-0.006968684310898454,0.20670408170461693,0.03445232069174806,-0.5594061281460901,5.0754070897485555,-0.0002360547780880578,0.006883109608534501,0.0011472622790352105
8.758,1.6056441617750306,0.20687481184384995,-0.007207680297597022,0.20674921310649763,0.034125541815309295,0.0016004413913425614,-0.009813179472635693,-0.0002439767575092021,0.006884609196391718,0.0011363805424497997
8.791,1.6067805423174804,0.23697012539223966,-0.008525343926722176,0.23681671993198644,-0.12855136466677602,0.9037631696213124,-4.8851923868494085,-0.0002670704500191336,0.00788657842009122,-0.004280760443403642
8.824,1.6024997818740765,0.21855038783153619,-0.006927641761134942,0.2184405635429104,0.039786402697710124,-0.5531452720931974,5.0551882091437275,-0.00023556105509753522,0.007273914135004358,0.0013248872098337472
8.857,1.6038246690839095,0.21852340605253637,-0.007216153703662311,0.21840422642093452,0.03880685512626593,-0.0008102636336281787,-0.029415842986312155,-0.0002450490767196282,0.0072727016995971965,0.0012922682757046556
8.892,1.6051169373596146,0.2246462091318441,-0.007708481541528224,0.2245139162493768,-0.1321854674962428,0.18386796033957167,-5.13490458325852,-0.000240290545754534,0.007476852501166489,-0.004401776067624885
8.925,1.6007151612919897,0.20659923871191005,-0.006180286300477199,0.2065067783332667,0.03529349944134244,-0.5419510636616833,5.02939840653409,-0.00020989362423922745,0.006876551697642243,0.0011752735313967034
8.957,1.6018904348233862,0.2064828384651217,-0.006419365148268305,0.20638302820655274,0.03474531167637109,-0.0034955029065572444,-0.016462095044184645,-0.00021778977047293236,0.006872428084433361,0.0011570188788231574
8.991,1.6030474537022101,0.21270088939703777,-0.006858654245008162,0.21259028014525583,-0.116819127881891,0.18672825621369593,-4.551484671419281,-0.00021467380441133946,0.007079681172896957,-0.003890076958466971
9.025,1.5991573767437428,0.19485097740671317,-0.005525437503133028,0.19477261854981165,0.04327367014369712,-0.5360333931028407,4.807591532299943,-0.00018871651629869093,0.006485792033232661,0.001441013215785114
9.057,1.6005983899595275,0.1945354541035979,-0.005796699733027569,0.19444907090417834,0.0471104454223255,-0.009475174267725739,0.11521847683568723,-0.00019815534062922862,0.00647499857833922,0.0015687778325634393
9.091,1.602167167792091,0.1896321639861084,-0.005947944760857119,0.18953886031939762,-0.1133722157867648,-0.147245949474159,-4.819299135408117,-0.00018619706137692346,0.006312001604176154,-0.0037752947856992685
9.125,1.598391873006392,0.17204951360532597,-0.0047471977401027645,0.17198400869105715,0.04977946009057379,-0.5280075189424155,4.899449726046203,-0.00016286929900455403,0.005726932680108986,0.0016576560210161072
9.157,1.600049529027408,0.17190575297597793,-0.0050280765558501595,0.1718322040607827,0.05178951010126281,-0.0043171360164576175,0.0603618621828534,-0.00017240982729103705,0.00572186394830022,0.0017245906863720517
9.191,1.60177411971378,0.1781988353329941,-0.005519323774884752,0.17811334026148504,-0.1220140000243165,0.18898145216264778,-5.219324628395775,-0.00017178601198215518,0.0059315300659053315,-0.00406306620080974
9.225,1.5977110535129704,0.1608655437720208,-0.004329129432761012,0.1608072815870673,0.045469678172143244,-0.5205192660952941,5.029539885779572,-0.00014825224961034005,0.005354770232002346,0.0015141402831323702
9.257,1.5992251937961024,0.16086524165781865,-0.004572600572463826,0.16080024035315715,0.04570307342860608,-9.072498563222596e-06,0.007008866560445478,-0.00015638046394448652,0.0053545289501183745,0.0015219123451725826
9.291,1.6007471061412755,0.21228361638165502,-0.006357109213681669,0.2121884090767425,-0.12333210674232821,1.544095337052143,-5.076131536664692,-0.00019723204105871357,0.007066287453282413,-0.004106959154519529
9.325,1.596640146986756,0.21801417965904712,-0.005633692082833635,0.2179413775443367,0.03821974769116923,0.17208898730907216,4.851407040044968,-0.0001922721083130686,0.007257325156715023,0.0012727175981159355
9.358,1.5979128645848721,0.2182333736400261,-0.005917008325232067,0.2181531443339435,0.038764276270849475,0.006582401831200334,0.016352209600007318,-0.0002017769357944084,0.007264369074594546,0.0012908503998192876
9.391,1.5992037149846912,0.20012764521088422,-0.005684339108649112,0.20004690116707993,-0.12348644190105126,-0.543715568442699,-4.872393939096118,-0.00017563909572559865,0.00666193096578387,-0.004112098515305008
9.424,1.5950916164693858,0.20686786367361762,-0.005025420253231183,0.20680681365023945,0.03977177266371305,0.2024089628448468,4.9026490860289575,-0.000171956018047299,0.006886552835579755,0.0013244000297016447
9.457,1.596416016499088,0.2066420494316405,-0.005293526057969395,0.20657423647488612,0.03967886486155669,-0.00678120846778149,-0.0027900240887795314,-0.00018086811385579569,0.006878802324199673,0.001321306199889838
9.491,1.5977373226989773,0.21260350783178195,-0.005727057375503731,0.2125263568506181,0.040493579977200204,0.1790227747790225,0.024465919388694177,-0.0001955330632035868,0.007076995560218542,0.001348436213240767
9.524000000000001,1.599085758912218,0.18295412048018156,-0.005174977858585718,0.18288091700568418,-0.1243672067848441,-0.8903719925405521,-4.950774377238567,-0.00015975930624316425,0.006090272824984078,-0.004141427985935309
9.558,1.5949443309262827,0.1943788961061325,-0.004693406213911699,0.19432222515592465,0.033070337169641965,0.3430863551336615,4.727854172807389,-0.0001598996766584467,0.006470841590239067,0.0011012422277490775
9.591,1.596045573154032,0.1772457611766082,-0.0044748463840366655,0.17718926492571302,-0.1249224619089338,-0.5145085564421706,-4.744528500858131,-0.0001367815530041298,0.005900694466071588,-0.004159917981567496
9.624,1.5918856551724643,0.1831265399931476,-0.003861729464723416,0.18308581784344516,0.03850790992691203,0.17659996446064247,4.907818974049424,-0.00013254810900725474,0.006096672666184453,0.001282313400566171
9.657,1.593167968573031,0.1831995833354272,-0.004098133586265853,0.18315374043514174,0.03727986540496758,0.0021934937621506355,-0.03687821387220572,-0.00014029712653404743,0.006098932280389396,0.0012414195179854205
9.691,1.594409388091016,0.18891040724616734,-0.004460338502036883,0.18885774367592148,0.03809720937897932,0.1714962135357395,0.024544864084436558,-0.0001525633877184088,0.006288865872298906,0.0012686370723200115
9.724,1.5956780251633358,0.17221583058523057,-0.004284580222464443,0.17216252401866708,0.1759328385866243,-0.5013386384665696,4.139208084313664,-0.0001595102388540171,0.005732560175900991,0.00585856352493459
9.757,1.6015365886882709,0.17218656371687063,-0.0052922264776250946,0.1721052150968514,0.17582904635759466,-0.0008788849357339195,-0.0031168837546440777,-0.00019304915979571422,0.005730553612563292,0.005855107243707903
9.791,1.6073916959319785,0.16557150185598113,-0.0060577978959766516,0.1654606458088952,-0.11108753980135797,-0.19865050633301812,-8.616113698467046,-0.0001915725654673494,0.005510198681063531,-0.0036992150753852207
9.824,1.6036924808565933,0.16050552574801605,-0.005279062253552464,0.16041868749422608,0.18950093253540085,-0.15213141465360602,9.026680850953717,-0.0001926845739362049,0.005341350805182533,0.0063103810534288485
9.857,1.6100028619100222,0.16108741983596442,-0.006314061679756735,0.16096362773779826,0.19071265417818486,0.017474296935386494,0.03638803732084142,-0.00022731533217787404,0.005359383504190102,0.006350731384133557
9.892,1.6163535932941553,0.1533238438562938,-0.006982599274087714,0.1531647622733332,0.1869495465050257,-0.23314041980992842,-0.11300623643120584,-0.00024843147677169186,0.005099628096526911,0.006225419898617357
9.924,1.622579013192773,0.14974445198355527,-0.00775070506266141,0.1495437309648483,0.18105068504536867,-0.10748924542758363,-0.17714298677648765,-0.0002731440529405314,0.004978996086812523,0.006028987812010778
9.958,1.6286080010047836,0.14977262932546703,-0.008653784140532658,0.14952241475816533,0.1799036022750734,0.0008461664237767872,-0.034446930038896866,-0.00030311918610563505,0.0049782012787012095,0.005990789955759945
9.991,1.6345987909605437,0.15423655718335905,-0.009833997278034984,0.1539227340886043,0.18468086977990186,0.13405188762438477,0.14346148663148522,-0.00034326760152429665,0.005124585329706435,0.006149872963670732
10.025,1.6407486639242146,0.13665127634347482,-0.009551282107609626,0.13631707279868352,0.1735455311539008,-0.528086511708235,-0.3343945533333649,-0.0003312049526967661,0.004538411854076161,0.005779066187424898
10.058,1.6465277301116394,0.13795204707775424,-0.010437318671936462,0.13755664168582835,0.16879497521338413,0.03906218421259524,-0.1426593375530535,-0.00036046716741796534,0.004579632671254354,0.005620872674605692
10.091,1.6521486027862453,0.14185899480820563,-0.01152782670935884,0.14138982855691387,0.12916000261412466,0.11732575767121284,-1.1902394173951791,-0.00039403430217041583,0.004707438427579658,0.0043010280870503514
10.125,1.6564496308732952,0.13744322202276374,-0.011758076608511985,0.13693935487823464,0.12206370896936077,-0.1326057893526093,-0.2131019112541711,-0.00040084317661818894,0.004559269338131991,0.004064721508679714
10.158,1.6605143523819752,0.13736039505131278,-0.012307177176650348,0.1368079366067453,0.12311616176224843,-0.002487296439968634,0.03160518897560563,-0.0004191990607989677,0.004554848429974317,0.004099768186682873
10.191,1.6646141205686584,0.14136416815245206,-0.01324302737496499,0.14074249629511573,0.12864545534682412,0.12023342646063902,0.16604485238966016,-0.00045106365537831285,0.004685762986098986,0.0042838936630492435
10.225,1.6688980142317078,0.12541560762455445,-0.01228375756748023,0.12481259526129392,0.16740080727529139,-0.4789357515885169,1.1638243822362542,-0.0004206611011322508,0.004155094781678402,0.005574446882267204
10.258,1.6744724611139743,0.1256618220535559,-0.013004805146600136,0.12498707359130586,0.12261347730172081,0.007393826696739942,-1.3449648640711882,-0.00044158546358813905,0.004161170733017075,0.004083028794147303
10.291,1.6785554899081223,0.12949821049098623,-0.013927627537613218,0.12874706874931674,0.12669607467144842,0.11520685998289303,0.12260052161344152,-0.0004728632115643636,0.004286282932124899,0.004218979286559232
10.324,1.6827744691946815,0.11448816935740101,-0.012793397077005305,0.11377112952783322,0.05629767881362487,-0.45075198599354993,-2.1140659416763823,-0.0004295981966463615,0.0037881739910397855,0.0018747127044937085
10.358,1.6846491818991751,0.11434066391836233,-0.01298990499539703,0.11360039521719296,0.057195012886885624,-0.0044295927639245196,0.026946969166989524,-0.0004361930470221584,0.0037824758269350894,0.0019045939291332914
10.391,1.6865537758283082,0.11788449375303105,-0.013615553088525897,0.11709556174980308,0.05905046563826011,0.10642131635641805,0.05571930184307759,-0.00045725922794941066,0.003898830648934465,0.0019663805057540617
10.425,1.6885201563340626,0.11450463131416565,-0.013448809114280525,0.1137120931378921,0.05246588958278335,-0.10149737053649847,-0.19773501668098367,-0.00045117999943996683,0.0037862163319939434,0.0017471141231066858
10.457,1.690267270457169,0.11460087522973915,-0.013658927509162014,0.113783980870427,0.052189441060531215,0.0028902076748799324,-0.008301757424989066,-0.0004581616088344615,0.0037886061439781635,0.0017379083873156895
10.491,1.692005178844484,0.11816795381860862,-0.014287956516107588,0.11730097871829814,0.03772774096836665,0.10711947714322727,-0.43428528805298977,-0.0004782704405894612,0.0039058192705569896,0.0012563337742466096
10.524000000000001,1.6932615126187311,0.1147958182311492,-0.014023376663856963,0.11393605570802702,0.03603540586567772,-0.10126533295673912,-0.050820873954622516,-0.0004692818495993108,0.0037937862082606942,0.0011999790153270683
10.557,1.6944614916340583,0.11489082745530062,-0.014171806817533507,0.1140134295813005,0.03581217404162888,0.0028531298543967797,-0.006703658379845057,-0.0004742120268286678,0.0037963615220964154,0.0011925453955862419
10.592,1.6956540370296445,0.1291524212108631,-0.016083809833880153,0.12814702090121244,0.34985128934611526,0.4282760887556299,9.430604063197787,-0.0005604660492018267,0.004264075467633998,0.011650047935225638
10.624,1.7073040849648695,0.11503980084081991,-0.015655098924449103,0.113969617245831,0.20739843430219207,-0.42380241351481024,-4.277863514832528,-0.0005344431942911184,0.003793354075328502,0.006906367862262996
10.658,1.7142104528271336,0.11514988177094818,-0.016457568511313952,0.11396773100557346,0.2088970036485321,0.003305733637485423,0.04500208247267319,-0.000561259629524732,0.003793184684352455,0.006956270221496119
10.692,1.7211667230486292,0.12891290618248621,-0.019311715318402433,0.12745820896229268,0.13221187858689462,0.41330403638252367,-2.3028566084575814,-0.0006524515781723216,0.004242924355596462,0.004402655556943591
10.724,1.7255693786055728,0.11500211556803726,-0.017728250934509863,0.11362744256528545,-0.007621834887724217,-0.41774145989336203,-4.199210614853419,-0.0005898976184504578,0.0037838644981557216,-0.00025380710176121647
10.758,1.7253155715038115,0.11526958049896877,-0.017740575126117847,0.11389621671768912,-0.005456513463410708,0.008031979907853077,0.06502466739680207,-0.0005904436834175056,0.003792793446888263,-0.0001817018983315766
10.791,1.7251338696054797,0.11862822004951873,-0.018236188387154798,0.11721815569793459,-0.021650469689617712,0.10086004656306195,-0.486304991777988,-0.0006058858358374915,0.0039035788231623677,-0.0007209606406642699
10.824,1.7244129089648155,0.1151069312530198,-0.017612870595945233,0.11375145015276909,-0.022458193572987444,-0.10574440830327127,-0.024255972473565503,-0.0005851191982479755,0.003788138067413543,-0.000747857845980482
10.858,1.723665051118835,0.11504670530589726,-0.017518624916626705,0.11370506665392056,-0.02358567533118201,-0.0018085870006765844,-0.03385831105689387,-0.0005819102983571636,0.0037866032614793173,-0.000785402988528361
10.891,1.7228796481303066,0.11839456637256818,-0.017936508590647077,0.1170280094939929,0.07754043794872789,0.10053636836849586,3.0368202186159126,-0.0006023441758450691,0.0038962529562414795,0.0025820965836926392
10.924,1.725461744714,0.11471654817129903,-0.017672029147699157,0.11334719145237274,0.07396988199977157,-0.11045099703510947,-0.10722390237106064,-0.0005931535675015839,0.0037737286500386107,0.0024631970705923938
10.958,1.7279249417845914,0.11465847592683286,-0.017942084414260782,0.11324596111445057,0.07424151559790462,-0.0017439112452305031,0.00815716510910061,-0.0006021592739487396,0.003770343813023558,0.002472242469410224
10.992,1.7303971842540022,0.1181231459569963,-0.018772620510729643,0.11662189472795399,0.14379233087180784,0.10404414504995327,2.088613071288385,-0.0006344512768104311,0.003881993076625019,0.004788284618031202
11.024,1.7351854688720332,0.11449714607079468,-0.01873742806101757,0.11295355349883901,0.1418787039336723,-0.10888888547152001,-0.05746627441848477,-0.0006328662619371752,0.0037598608578557667,0.004724560840991288
11.057,1.739910029713025,0.11451661304816388,-0.019274149351129248,0.11288295633448507,0.14288143089083463,0.0005845939149908476,0.03011192063550543,-0.000650796167623601,0.003757456718436531,0.004757951648664794
11.091,1.7446679813616894,0.12879330901440644,-0.022280845171054296,0.12685141065571126,0.3601609365756236,0.4287296085958728,6.524910080624292,-0.000767295099467698,0.004219596027935644,0.011993359187968266
11.124,1.7566613405496572,0.11467597681865489,-0.021191744147234983,0.1127008857077477,0.3654399339322353,-0.4239439097823288,0.15852844914749825,-0.0007285292157210857,0.003748547919201543,0.012169149799943437
11.158,1.7688304903496013,0.11433287361988259,-0.022494112242438725,0.11209826450308949,0.36870165694720664,-0.010303399362531577,0.09794964008922977,-0.000771977142476311,0.0037281746101835646,0.012277765176341982
11.192,1.7811082555259432,0.09489994018398369,-0.019811782751916442,0.09280889995638647,0.3604749545536224,-0.5835715746516186,-0.24704811992745496,-0.0006782874753557951,0.0030864976955712197,0.012003815986635627
11.224,1.7931120715125788,0.05841440271765726,-0.012879731212514879,0.056976793247374105,0.3498581442065663,-1.0956617857755684,-0.3188231335452277,-0.00043995095838878943,0.0018947828058844015,0.011650276202078659
11.258,1.8047623477146573,0.026524509314753756,-0.006149370669502908,0.025801837817440765,0.3315273495055022,-0.9576544565436487,-0.5504743153472696,-0.00020951869936202829,0.0008580519218853268,0.011039860738533224
11.291,1.8158022084531904,4.130738532567521e-06,-1.0019603271659514e-06,4.007377737027492e-06,-3.291978350377549e-05,-0.7964077650516873,-9.956764843513692,-3.33661595666125e-08,1.3344545844118294e-07,-1.096228790675724e-06
11.325,1.8158011122244,8.826993197732082e-05,-2.141084008476906e-05,8.563385322490922e-05,0.0010233860671726212,0.0025267025058484474,0.03172089641670861,-7.13049946324582e-07,2.851590066571574e-06,3.407875603684829e-05
11.358,1.8158351909804367,8.818659678392019e-05,-2.139354174727008e-05,8.555227772442729e-05,0.0010234967265661816,-2.5025583603792617e-06,3.323104911722744e-06,-7.12473851233434e-07,2.848873615012672e-06,3.408244099465385e-05
11.391,1.8158692734214315,-0.00012500533062217861,3.0329679901896692e-05,-0.0001212701249319414,0.002954639917026232,-0.006402159982165129,0.05799228800180331,1.0102058657490584e-06,-4.038238247646835e-06,9.838950923697354e-05
11.424,1.8159676629306682,-0.00017337644607256112,4.2082371506982324e-05,-0.0001681917538439386,0.00339965195424437,-0.0014525860495610361,0.013363724841385528,1.4017000277337269e-06,-5.60069605049649e-06,0.00011320841007633754
11.458,1.8160808713407448,-0.00017441905589630233,4.2354591364719605e-05,-0.000169198391393314,0.003407263322396736,-3.130960431655281e-05,0.00022856961418515353,1.410767800003711e-06,-5.634216324099479e-06,0.00011346186863581131
11.491,1.8161943332093804,0.027255966456360668,-0.006621630626014027,0.0264393970302443,-0.08465794900726765,0.8237353006683774,-2.6446009708607923,-0.00021926528669314604,0.0008807399947847334,-0.0028191097019420134
11.525,1.813375223507439,0.026521904784650416,-0.0063707422366857756,0.025745389427230866,-0.5024934073241976,-0.022043894045352883,-12.547611360868766,-0.00020496933110814445,0.0008590548749042524,-0.01673303046389578
11.557,1.7966421930435423,0.026512205044254382,-0.005936900018461146,0.025838928663537576,-0.9196509921588841,-0.00029128349537641375,-12.527254799840437,-0.00018449990675807831,0.0008633274827264813,-0.030624378038890846
11.592,1.766017815004652,-9.53379332797139e-07,1.8494016555226615e-07,-9.352696335122929e-07,-1.3987847494743382,-0.7961909436512665,-14.388401120584204,5.43128784712663e-09,-3.127658334854993e-08,-0.04657953215749547
11.625,1.7194382828471566,9.580299335824919e-07,-1.418796351038319e-07,9.474658425415015e-07,-1.3576153805544064,5.739967766905798e-05,1.2363173849829345,-4.010150915072232e-09,3.164661559901356e-08,-0.04520859217246174
11.657,1.6742296906746947,-0.00030965857389071564,3.197194827705526e-05,-0.0003080036150882016,-1.3553754803714848,-0.009327825940669613,0.06726426975740657,8.329582783065104e-07,-1.0277054799619215e-05,-0.04513400349637045
11.692,1.6290956871783244,0.027292313788189446,-0.0015902232673486924,0.027245946154849876,-0.5224930780143839,0.8288880589213261,25.01148355426729,-4.506547182243905e-05,0.000907704574869044,-0.017399019497878986
11.724,1.6116966676804454,0.01668495196941869,-0.0006822299760544675,0.016670998304888086,-0.2085583636972443,-0.3185393939570797,9.4274688984126,-2.079431521542317e-05,0.0005552185210032096,-0.006944993511118235
11.757,1.6047516741693268,-3.2942423292037825e-05,1.118356492895456e-06,-3.292343437593647e-05,-0.0006271780594088502,-0.5020388706519738,6.244179748883947,3.7237658817933576e-08,-1.0963504874021728e-06,-2.0885029378314713e-05
11.791,1.604730789139949,-0.00025555349872544776,8.670406291601543e-06,-0.0002554063718186295,0.0005486346805129651,-0.006685017280282581,0.035309691889544,2.8886301151958343e-07,-8.505027479240682e-06,1.826953486108174e-05
11.824,1.6047490586748099,-0.00023979609820279157,8.140168436342183e-06,-0.0002396578944477124,0.0004382225269908304,0.00047319521089057647,-0.00331568028594999,2.711828806903712e-07,-7.980603968853633e-06,1.4592810148794654e-05
11.857,1.6047636514849586,-0.00023984994542040729,8.145494411855173e-06,-0.0002397115917909662,0.00043228222882355476,-1.6170335620335822e-06,-0.00017838733235062042,2.713594721585489e-07,-7.98239211474135e-06,1.4394998219824375e-05
11.892,1.6047780464831787,-0.00024724973765290616,8.400354331710763e-06,-0.0002471069946734261,0.0004408003753720347,-0.00022221598295792399,0.00025580019665104954,2.7985100711169507e-07,-8.22865886925856e-06,1.4678652499888756e-05
11.925,1.6047927251356784,-0.00024009438478357235,8.160772156825658e-06,-0.00023995565299114437,0.00042322277648409307,0.00021487546154155568,-0.0005278558224607098,2.7186713234401305e-07,-7.990519386393204e-06,1.40933184569203e-05
11.958,1.6048068184541355,-0.00024021881763630276,8.16838513412244e-06,-0.00024007989884803756,0.00041940480065070845,-3.7367223042165746e-06,-0.00011465392893046902,2.721201949985024e-07,-7.994656787154807e-06,1.3966179861668593e-05
11.991,1.604820784633997,-0.0002476354995851738,8.424038028334162e-06,-0.0002474921740946485,0.00042855503988368853,-0.00022272318164777901,0.00027478195894835083,2.8063817969453146e-07,-8.241485389760469e-06,1.427088282812683e-05
12.024,1.6048350555168245,-0.00024049115669619488,8.184432567397253e-06,-0.00024035184940545705,0.0004129135204686649,0.00021454483150086867,-0.00046971529774845724,2.726538374797403e-07,-8.003712762553927e-06,1.3750020231606543e-05
12.057,1.6048488055370562,-0.00024063360469105607,8.192587179329909e-06,-0.00024049410226016052,0.0004102936799519661,-4.277717563399155e-06,-7.867388939035474e-05,2.72925103029731e-07,-8.008449790771152e-06,1.3662779542400472e-05
12.091,1.6048624683165986,-0.000248079581353529,8.449479632739941e-06,-0.00024793564684909297,0.000420333769140429,-0.00022360290277696543,0.00030150417983372015,2.814844660135646e-07,-8.256253058885287e-06,1.3997114512376286e-05
12.124,1.6048764654311114,-0.00024093709585238719,8.209580236393474e-06,-0.00024079719049466638,0.0004059529008764422,0.00021448905408834331,-0.00043185790582542894,2.7349053346135446e-07,-8.018542640859163e-06,1.3518231599185527e-05
12.157,1.6048899836627104,-0.0002410927360042048,8.218140701828064e-06,-0.00024095262919793625,0.00040423497643910205,-4.673878432961664e-06,-5.158932244264677e-05,2.7377543941709356e-07,-8.023718753464296e-06,1.3461024715422099e-05
12.191,1.6049034446874257,-0.00024856510821164675,8.476195839946207e-06,-0.0002484205448918236,0.00041494204187557024,-0.0002243955617850431,0.0003215334965906364,2.8237360137054207e-07,-8.272400176475048e-06,1.381756999445649e-05
12.224,1.6049172622574206,-0.00024141929170600366,8.235853771972387e-06,-0.00024127877055488158,0.00040146316305367946,0.00021458908425354612,-0.000404771135792516,2.743650646569939e-07,-8.034579265180466e-06,1.3368723329687528e-05
12.257,1.6049306309807498,-0.0002415846827029976,8.244723770718937e-06,-0.00024144395508409936,0.00040040488712832906,-4.966696606424824e-06,-3.1780057818330355e-05,2.74660369916013e-07,-8.040079910808916e-06,1.3333482741373359e-05
12.291,1.6049439644634917,-0.00024908118780600134,8.503881252133851e-06,-0.0002489359799677382,0.00041161739071058875,-0.0002251202733634754,0.00033671181928707764,2.8329530807758354e-07,-8.289564167226533e-06,1.3706859110662607e-05
12.325,1.6049576713226017,-0.00024192829541813573,8.262988484177637e-06,-0.00024178714429273348,0.0003987796786240181,0.00021480157320917729,-0.00038551687947659667,2.7526852495927513e-07,-8.051508110396263e-06,1.3279363298179803e-05
12.358,1.6049709506859005,-0.00024210091332161037,8.272097266499415e-06,-0.00024195955165682445,0.0003982035816000788,-5.183720825064292e-06,-1.730021092910812e-05,2.7557184919212905e-07,-8.057249274136733e-06,1.3260179267282625e-05
12.392,1.604984210865168,-0.0002496199097516931,8.532314198505139e-06,-0.0002494740446596828,0.00040980371249796935,-0.00022579568859107315,0.0003483522792159331,2.842421252223636e-07,-8.30748171684402e-06,1.364646362618238e-05
12.424,1.6049978573287937,-0.0002424571978437356,8.290790683207173e-06,-0.00024231540515634497,0.00039741661441196655,0.00021509645369241763,-0.0003719849275075914,2.7619439754968595e-07,-8.069099190708437e-06,1.3233973259918487e-05
12.457,1.6050110913020532,-0.00024263519986270603,8.300086587035844e-06,-0.00024249319325511597,0.0003971930826402954,-5.345405975087801e-06,-6.7126658159511285e-06,2.7650400254568465e-07,-8.075019531199493e-06,1.3226529651921837e-05
12.491,1.605024317831706,-0.0002501754992966742,8.561332839795708e-06,-0.0002500289663785908,0.00040909484256224587,-0.00022643541843748283,0.00035741020786638096,2.852086058702708e-07,-8.325960599863024e-06,1.3622858257322788e-05
12.524000000000001,1.6050379406899626,-0.00024300095519295297,8.31911898341243e-06,-0.00024285851124477268,0.0003970191590420492,0.00021545177488652357,-0.0003626331387446447,2.771379253237179e-07,-8.087184612331245e-06,1.322073799610024e-05
12.558,1.6050511614279586,-0.00024318299627642165,8.328564319209165e-06,-0.00024304033552963782,0.0003970535400686035,-5.4666992032636e-06,1.0324632598895655e-06,2.774525430493571e-07,-8.09323935653357e-06,1.3221882884284498e-05
12.591,1.6050643833108431,-0.00025074374153824346,8.59081910962721e-06,-0.00025059653179488163,0.00040919417139569255,-0.0002270494072619161,0.0003645835233360067,2.8619077623753557e-07,-8.344860514046351e-06,1.3626165907476564e-05
12.624,1.6050780094767507,-0.0002435558863058264,8.347870268910021e-06,-0.000243412782770729,0.00039732821389783045,0.0002158515084809926,-0.00035633505999585865,2.7809563875247944e-07,-8.10564183956876e-06,1.3231029522797756e-05
12.657,1.6050912405062734,-0.00024374098496510925,8.357437568169613e-06,-0.00024359766211738524,0.00039755139342274133,-5.558518296782287e-06,6.702087835161416e-06,2.7841434475224853e-07,-8.11179831628324e-06,1.3238461400977288e-05
12.692,1.6051044789676752,-0.00025132156067388524,8.620686953371283e-06,-0.0002511736662470996,0.00040988511626658015,-0.000227644916179459,0.00037038206738254734,2.871857400050809e-07,-8.364079074141013e-06,1.364917437167712e-05
12.724,1.6051181281420464,-0.0002441193050904465,8.376969409414459e-06,-0.00024397553463688986,0.00039815459285108545,0.00021628395145461662,-0.00035226797043527627,2.790650099439971e-07,-8.124381459503464e-06,1.3258547941941146e-05
12.757,1.6051313866899886,-0.0002443067452066476,8.386638673174679e-06,-0.00024416275318981696,0.0003985161089294199,-5.628832318351235e-06,1.0856338688722654e-05,2.7938713110982585e-07,-8.13061583114464e-06,1.3270586427349685e-05
12.791,1.6051446572764156,-0.0002519067126012782,8.65087371937957e-06,-0.0002517581264576664,0.00041100954509290543,-0.00022822724908800625,0.0003751782631677331,2.88191388209026e-07,-8.383541579683658e-06,1.3686617851593752e-05
12.824,1.6051583438942671,-0.00024468925187538906,8.40636172961935e-06,-0.0002445448078896962,0.0003993601714710023,0.00021674056233901331,-0.00034983103969679077,2.800441987604586e-07,-8.143338239716232e-06,1.3298693709984378e-05
12.858,1.605171642587977,-0.00024487851106709096,8.416118418646312e-06,-0.0002447338434569251,0.0003998231841262456,-5.68345921026713e-06,1.3904283941240453e-05,2.8036924621747585e-07,-8.14963311738225e-06,1.331411203140398e-05
12.892,1.6051849567000085,-0.0002524975603006934,8.681333858145311e-06,-0.00025234827600014576,0.00041245201295977946,-0.00022880027728535836,0.0003792441091151308,2.892061875744245e-07,-8.403193538307751e-06,1.3734652031560657e-05
12.925,1.6051986913520402,-0.0002452642972147831,8.436007501462164e-06,-0.0002451191735986737,0.00040084411419345826,0.00021721510768499415,-0.00034858554853817414,2.810318685598162e-07,-8.162464597174078e-06,1.3348109002642161e-05
12.958,1.6052120394610423,-0.00024545499448160946,8.445841064998415e-06,-0.0002453096453152051,0.0004013817309873842,-5.7266446494406215e-06,1.6144648466244342e-05,2.8135948697299285e-07,-8.16880729837347e-06,1.3366011641879896e-05
12.991,1.6052254054726847,-0.00025309290981580555,8.712034315169933e-06,-0.00025294292134219295,0.00041412824698623636,-0.00022936682685273537,0.00038277825822378845,2.9022902541058533e-07,-8.422995205768914e-06,1.3790470624641671e-05
13.024,1.6052391959433088,-0.0002458433986131293,8.465877916721909e-06,-0.00024569758963561926,0.00040253281491225827,0.0002177030391194067,-0.0003482111733927354,2.820270496692428e-07,-8.181725829635116e-06,1.3404342736578202e-05
13.053,1.6052526002860459,-0.00024603525611142615,8.475780717098305e-06,-0.00024588921975363364,0.0004031254065376781,-5.7614864353405825e-06,1.779554430690154e-05,2.8235698201244906e-07,-8.188107105131225e-06,1.3424076037704682e-05
13.091,1.6052660243620833,-0.0002536918904968362,8.742951163098947e-06,-0.00025354119213417454,0.0004159767339913407,-0.00022992896052282492,0.00038592574935923814,2.912590959777819e-07,-8.442917599800462e-06,1.3852025241911648e-05
13.125,1.6052798763873257,-0.00024642579588635984,8.495952142053358e-06,-0.0002462792960754636,0.000404372548602973,0.0002182010393536449,-0.00034847403568671794,2.830290408297172e-07,-8.201096631539376e-06,1.3465605868479002e-05
13.157,1.6052933419931943,-0.0002466186110804012,8.505918670702687e-06,-0.0002464718821261233,0.00040500578828988617,-5.790246067308735e-06,1.9016206814208966e-05,2.8336110180292846e-07,-8.207509739431172e-06,1.348669275005321e-05
13.191,1.6053068286859435,-0.00025429386756026836,8.77406713990798e-06,-0.0002541424538021614,0.00041795257818030314,-0.00023048818257859278,0.0003887924892017108,2.9229581830270195e-07,-8.462939589087466e-06,1.3917820853404096e-05
13.224,1.6053207465067976,-0.00024701093485402946,8.526215169593463e-06,-0.000246863738917532,0.0004063241042687907,0.00021870668787504218,-0.0003492034207661389,2.840373368645576e-07,-8.220558554852404e-06,1.3530592672150732e-05
