Time,header.seq,header.stamp.secs,header.stamp.nsecs,header.frame_id,orientation.x,orientation.y,orientation.z,orientation.w,orientation_covariance_0,orientation_covariance_1,orientation_covariance_2,orientation_covariance_3,orientation_covariance_4,orientation_covariance_5,orientation_covariance_6,orientation_covariance_7,orientation_covariance_8,angular_velocity.x,angular_velocity.y,angular_velocity.z,angular_velocity_covariance_0,angular_velocity_covariance_1,angular_velocity_covariance_2,angular_velocity_covariance_3,angular_velocity_covariance_4,angular_velocity_covariance_5,angular_velocity_covariance_6,angular_velocity_covariance_7,angular_velocity_covariance_8,linear_acceleration.x,linear_acceleration.y,linear_acceleration.z,linear_acceleration_covariance_0,linear_acceleration_covariance_1,linear_acceleration_covariance_2,linear_acceleration_covariance_3,linear_acceleration_covariance_4,linear_acceleration_covariance_5,linear_acceleration_covariance_6,linear_acceleration_covariance_7,linear_acceleration_covariance_8
0.42700000000000005,0,0,427000000,base_footprint,0.0006975693377600127,-0.00031375959409514373,0.9238427910414369,0.3827713578530979,0.0,0.0,0.0,0.0,0.0,0.0,0.0,0.0,0.0,0.04765300884046408,0.0004360638023800205,-0.0003639427932843665,0.0,0.0,0.0,0.0,0.0,0.0,0.0,0.0,0.0,-5.4988958315207804e-05,-0.00016795981392956632,-0.060067961195827205,0.0,0.0,0.0,0.0,0.0,0.0,0.0,0.0,0.0
0.461,1,0,461000000,base_footprint,-6.450025576729522e-05,-7.127360043247065e-06,0.9238412556412081,0.3827758223349453,0.0,0.0,0.0,0.0,0.0,0.0,0.0,0.0,0.0,0.059829322117887725,0.001031232537336415,-1.2012071825008682e-05,0.0,0.0,0.0,0.0,0.0,0.0,0.0,0.0,0.0,-7.181809280732093e-05,0.0013967685404018986,0.01244659360487924,0.0,0.0,0.0,0.0,0.0,0.0,0.0,0.0,0.0
0.49500000000000005,2,0,495000000,base_footprint,-0.0011371431220324423,0.0004251243464408391,0.9238391826527236,0.38277890585866653,0.0,0.0,0.0,0.0,0.0,0.0,0.0,0.0,0.0,0.0677751950658501,0.0005918007381688142,-0.00012326293160684826,0.0,0.0,0.0,0.0,0.0,0.0,0.0,0.0,0.0,0.00011725802695349424,-0.00019623543040583473,-0.009374203069303077,0.0,0.0,0.0,0.0,0.0,0.0,0.0,0.0,0.0
0.529,3,0,529000000,base_footprint,-0.0022072880731218328,0.0008568374796234601,0.9238358188822074,0.38278162633430707,0.0,0.0,0.0,0.0,0.0,0.0,0.0,0.0,0.0,0.06769888757236678,0.0005910885611593239,-2.3429485202793114e-05,0.0,0.0,0.0,0.0,0.0,0.0,0.0,0.0,0.0,1.1302627456801666e-05,0.00026464627282254694,0.0001504060312190071,0.0,0.0,0.0,0.0,0.0,0.0,0.0,0.0,0.0
0.5630000000000001,4,0,563000000,base_footprint,-0.0032762340041254685,0.0012880515836541956,0.9238311522136791,0.38278402450130306,0.0,0.0,0.0,0.0,0.0,0.0,0.0,0.0,0.0,0.06762276771608856,0.0005908103277591642,7.410005938791089e-05,0.0,0.0,0.0,0.0,0.0,0.0,0.0,0.0,0.0,1.2464979865103534e-06,0.000269332244202723,0.00014991197951722958,0.0,0.0,0.0,0.0,0.0,0.0,0.0,0.0,0.0
0.5970000000000001,5,0,597000000,base_footprint,-0.0035672550428534977,0.001470458245415948,0.9238271754307967,0.38279036348837714,0.0,0.0,0.0,0.0,0.0,0.0,0.0,0.0,0.0,0.012381528095667508,-0.00013021991395478338,-0.0007210349838302156,0.0,0.0,0.0,0.0,0.0,0.0,0.0,0.0,0.0,-0.0029126912810790665,0.0002171943570889116,0.11826547619581354,0.0,0.0,0.0,0.0,0.0,0.0,0.0,0.0,0.0
0.631,6,0,631000000,base_footprint,-0.00356972265242447,0.001471371548915573,0.9238261928931142,0.38279270822543704,0.0,0.0,0.0,0.0,0.0,0.0,0.0,0.0,0.0,-0.0003906544954892978,-3.082093572801529e-05,0.0001577862784310068,0.0,0.0,0.0,0.0,0.0,0.0,0.0,0.0,0.0,0.0024366021475888864,-0.0006857352830290454,0.013937852114796036,0.0,0.0,0.0,0.0,0.0,0.0,0.0,0.0,0.0
0.665,7,0,665000000,base_footprint,-0.0035693851733462957,0.0014711760803771175,0.9238276395884277,0.38278922067229,0.0,0.0,0.0,0.0,0.0,0.0,0.0,0.0,0.0,-0.00018265347986026848,-3.0494075705798994e-05,0.00029137603682074755,0.0,0.0,0.0,0.0,0.0,0.0,0.0,0.0,0.0,0.00025811208372135565,4.011857939700078e-05,-0.00024106051342247237,0.0,0.0,0.0,0.0,0.0,0.0,0.0,0.0,0.0
0.6990000000000001,8,0,699000000,base_footprint,-0.003569345152518925,0.0014711149386907928,0.923829563074849,0.3827845790845722,0.0,0.0,0.0,0.0,0.0,0.0,0.0,0.0,0.0,-0.0001797129471039915,-3.076198848440028e-05,0.00032567209948170504,0.0,0.0,0.0,0.0,0.0,0.0,0.0,0.0,0.0,6.643805486078691e-05,8.571360886223645e-06,-6.392677425032012e-06,0.0,0.0,0.0,0.0,0.0,0.0,0.0,0.0,0.0
0.7330000000000001,9,0,733000000,base_footprint,-0.003569343014564155,0.0014710792956804054,0.9238316028347767,0.3827796563558177,0.0,0.0,0.0,0.0,0.0,0.0,0.0,0.0,0.0,-0.00017834747251380806,-3.092748984753048e-05,0.00033406586722101444,0.0,0.0,0.0,0.0,0.0,0.0,0.0,0.0,0.0,1.6255780336227424e-05,2.073587272732168e-06,-2.1465637886032262e-06,0.0,0.0,0.0,0.0,0.0,0.0,0.0,0.0,0.0
0.767,10,0,767000000,base_footprint,-0.003569350809938934,0.0014710509128651264,0.9238336712277577,0.38277466432595914,0.0,0.0,0.0,0.0,0.0,0.0,0.0,0.0,0.0,-0.0001780164493207307,-3.1002651399641264e-05,0.0003361433015875695,0.0,0.0,0.0,0.0,0.0,0.0,0.0,0.0,0.0,4.023212674546102e-06,5.164536742122077e-07,-5.012934076629988e-07,0.0,0.0,0.0,0.0,0.0,0.0,0.0,0.0,0.0
0.801,11,0,801000000,base_footprint,-0.0035693608220198764,0.0014710247918735455,0.9238357467006456,0.38276965510270616,0.0,0.0,0.0,0.0,0.0,0.0,0.0,0.0,0.0,-0.00017793598732166266,-3.105628320316433e-05,0.0003366649328668219,0.0,0.0,0.0,0.0,0.0,0.0,0.0,0.0,0.0,1.0112124575052043e-06,1.470254586157972e-07,-1.258038527477147e-07,0.0,0.0,0.0,0.0,0.0,0.0,0.0,0.0,0.0
0.8350000000000001,12,0,835000000,base_footprint,-0.0035693712045287273,0.0014709996607087106,0.9238378239523339,0.38276464150208434,0.0,0.0,0.0,0.0,0.0,0.0,0.0,0.0,0.0,-0.0001779171643166103,-3.110189019408575e-05,0.00033680386168734224,0.0,0.0,0.0,0.0,0.0,0.0,0.0,0.0,0.0,2.7025790400674133e-07,5.607873104932409e-08,-3.414826907696648e-08,0.0,0.0,0.0,0.0,0.0,0.0,0.0,0.0,0.0
0.8690000000000001,13,0,869000000,base_footprint,-0.003569381519284841,0.0014709751660547262,0.9238399016788412,0.3827596266766647,0.0,0.0,0.0,0.0,0.0,0.0,0.0,0.0,0.0,-0.0001779135175671607,-3.11430729705172e-05,0.00033684865091839525,0.0,0.0,0.0,0.0,0.0,0.0,0.0,0.0,0.0,8.794592370418523e-08,3.365239821215452e-08,-1.2228026590451979e-08,0.0,0.0,0.0,0.0,0.0,0.0,0.0,0.0,0.0
0.903,14,0,903000000,base_footprint,-0.003569391673275739,0.0014709511844642337,0.9238419795594157,0.3827546114019214,0.0,0.0,0.0,0.0,0.0,0.0,0.0,0.0,0.0,-0.00017791361428648992,-3.1180944433431094e-05,0.00033687028345756056,0.0,0.0,0.0,0.0,0.0,0.0,0.0,0.0,0.0,4.30570944635508e-08,2.8089136664702545e-08,-7.405946914281568e-09,0.0,0.0,0.0,0.0,0.0,0.0,0.0,0.0,0.0
0.937,15,0,937000000,base_footprint,-0.0035694016570164172,0.0014709276524227113,0.9238440575151624,0.38274959586859614,0.0,0.0,0.0,0.0,0.0,0.0,0.0,0.0,0.0,-0.00017791464140176202,-3.121598466422299e-05,0.0003368862198760589,0.0,0.0,0.0,0.0,0.0,0.0,0.0,0.0,0.0,3.197591106899857e-08,2.6679125483935347e-08,-6.736714059175453e-09,0.0,0.0,0.0,0.0,0.0,0.0,0.0,0.0,0.0
0.9710000000000001,16,0,971000000,base_footprint,-0.00356941148032435,0.001470904524235323,0.9238461355266777,0.3827445801235968,0.0,0.0,0.0,0.0,0.0,0.0,0.0,0.0,0.0,-0.0001779159062252518,-3.124849901961718e-05,0.00033690075529082517,0.0,0.0,0.0,0.0,0.0,0.0,0.0,0.0,0.0,2.9214671778192722e-08,2.6295000807014126e-08,-7.040989155362331e-09,0.0,0.0,0.0,0.0,0.0,0.0,0.0,0.0,0.0
1.005,17,1,5000000,base_footprint,-0.0035694211566365715,0.0014708817613823992,0.9238482135891916,0.38273956417845056,0.0,0.0,0.0,0.0,0.0,0.0,0.0,0.0,0.0,-0.00017791723756259,-3.127873259549465e-05,0.00033691494619548373,0.0,0.0,0.0,0.0,0.0,0.0,0.0,0.0,0.0,2.8503234696208834e-08,2.6166922314622014e-08,-7.541461626543428e-09,0.0,0.0,0.0,0.0,0.0,0.0,0.0,0.0,0.0
1.039,18,1,39000000,base_footprint,-0.0035694306992573384,0.001470859329641559,0.923850291701533,0.3827345480359829,0.0,0.0,0.0,0.0,0.0,0.0,0.0,0.0,0.0,-0.00017791859248070957,-3.1306899597513765e-05,0.00033692905244366245,0.0,0.0,0.0,0.0,0.0,0.0,0.0,0.0,0.0,2.829895203683087e-08,2.610514395631215e-08,-8.050655504637851e-09,0.0,0.0,0.0,0.0,0.0,0.0,0.0,0.0,0.0
1.073,19,1,73000000,base_footprint,-0.0035694401205295114,0.0014708371981450102,0.9238523698634162,0.3827295316968791,0.0,0.0,0.0,0.0,0.0,0.0,0.0,0.0,0.0,-0.00017791995991163452,-3.13331927444831e-05,0.000336943138080627,0.0,0.0,0.0,0.0,0.0,0.0,0.0,0.0,0.0,2.822238743121701e-08,2.606269607076331e-08,-8.526555829845288e-09,0.0,0.0,0.0,0.0,0.0,0.0,0.0,0.0,0.0
1.108,20,1,107000000,base_footprint,-0.003569449431717692,0.0014708153389344052,0.9238544480747726,0.3827245151612981,0.0,0.0,0.0,0.0,0.0,0.0,0.0,0.0,0.0,-0.00017792133643289987,-3.135778610465763e-05,0.00033695721881135194,0.0,0.0,0.0,0.0,0.0,0.0,0.0,0.0,0.0,2.8179600627645607e-08,2.6027700440106938e-08,-8.961484025042407e-09,0.0,0.0,0.0,0.0,0.0,0.0,0.0,0.0,0.0
1.141,21,1,141000000,base_footprint,-0.003569458643056607,0.0014707937266576004,0.9238565263355871,0.3827194984292697,0.0,0.0,0.0,0.0,0.0,0.0,0.0,0.0,0.0,-0.0001779227207425933,-3.138083765574929e-05,0.0003369712985120531,0.0,0.0,0.0,0.0,0.0,0.0,0.0,0.0,0.0,2.8147385506260377e-08,2.599699002306816e-08,-9.357082745085311e-09,0.0,0.0,0.0,0.0,0.0,0.0,0.0,0.0,0.0
1.175,22,1,175000000,base_footprint,-0.003569467763835404,0.001470772338318801,0.9238586046458579,0.38271448150079257,0.0,0.0,0.0,0.0,0.0,0.0,0.0,0.0,0.0,-0.00017792411194710866,-3.14024905703181e-05,0.00033698537822062207,0.0,0.0,0.0,0.0,0.0,0.0,0.0,0.0,0.0,2.811995695462754e-08,2.596956949687426e-08,-9.71623188282188e-09,0.0,0.0,0.0,0.0,0.0,0.0,0.0,0.0,0.0
1.209,23,1,209000000,base_footprint,-0.0035694768024813264,0.0014707511530577687,0.9238606830055855,0.3827094643758571,0.0,0.0,0.0,0.0,0.0,0.0,0.0,0.0,0.0,-0.00017792550943225113,-3.142287479225858e-05,0.00033699945817957874,0.0,0.0,0.0,0.0,0.0,0.0,0.0,0.0,0.0,2.8095518660788237e-08,2.5944959428259834e-08,-1.0042085448499309e-08,0.0,0.0,0.0,0.0,0.0,0.0,0.0,0.0,0.0
1.243,24,1,243000000,base_footprint,-0.0035694857666395178,0.0014707301519509333,0.9238627614147717,0.3827044470544528,0.0,0.0,0.0,0.0,0.0,0.0,0.0,0.0,0.0,-0.00017792691263315553,-3.144210803573971e-05,0.00033701353844186894,0.0,0.0,0.0,0.0,0.0,0.0,0.0,0.0,0.0,2.8073466946512393e-08,2.5922848880732098e-08,-1.0338045234412445e-08,0.0,0.0,0.0,0.0,0.0,0.0,0.0,0.0,0.0
1.2770000000000001,25,1,277000000,base_footprint,-0.0035694946632454363,0.0014707093178316876,0.9238648398734182,0.3826994295365686,0.0,0.0,0.0,0.0,0.0,0.0,0.0,0.0,0.0,-0.00017792832100533177,-3.1460297341367884e-05,0.0003370276190311474,0.0,0.0,0.0,0.0,0.0,0.0,0.0,0.0,0.0,2.8053534702678123e-08,2.5902991754456145e-08,-1.0606566951510882e-08,0.0,0.0,0.0,0.0,0.0,0.0,0.0,0.0,0.0
1.31,26,1,311000000,base_footprint,-0.0035695034985904,0.0014706886351271227,0.9238669183815261,0.3826944118221936,0.0,0.0,0.0,0.0,0.0,0.0,0.0,0.0,0.0,-0.0001779297341172714,-3.1477539673262855e-05,0.00033704170007722395,0.0,0.0,0.0,0.0,0.0,0.0,0.0,0.0,0.0,2.8035733168162382e-08,2.588521142483988e-08,-1.085012496809621e-08,0.0,0.0,0.0,0.0,0.0,0.0,0.0,0.0,0.0
1.345,27,1,345000000,base_footprint,-0.0035695122783817516,0.0014706680897100166,0.9238689969390971,0.38268939391131696,0.0,0.0,0.0,0.0,0.0,0.0,0.0,0.0,0.0,-0.00017793115148171607,-3.149392295819819e-05,0.0003370557815031573,0.0,0.0,0.0,0.0,0.0,0.0,0.0,0.0,0.0,2.8019484397073994e-08,2.586925092162524e-08,-1.107112421429682e-08,0.0,0.0,0.0,0.0,0.0,0.0,0.0,0.0,0.0
1.379,28,1,379000000,base_footprint,-0.0035695210077969037,0.0014706476687648248,0.9238710755461321,0.38268437580392817,0.0,0.0,0.0,0.0,0.0,0.0,0.0,0.0,0.0,-0.00017793257266864414,-3.150952698358719e-05,0.00033706986335009346,0.0,0.0,0.0,0.0,0.0,0.0,0.0,0.0,0.0,2.800486205160686e-08,2.5854967424160915e-08,-1.1272092838294455e-08,0.0,0.0,0.0,0.0,0.0,0.0,0.0,0.0,0.0
1.413,29,1,413000000,base_footprint,-0.0035695296915324013,0.0014706273606655978,0.9238731542026328,0.38267935750001675,0.0,0.0,0.0,0.0,0.0,0.0,0.0,0.0,0.0,-0.0001779339975742841,-3.1524424162521084e-05,0.0003370839456682881,0.0,0.0,0.0,0.0,0.0,0.0,0.0,0.0,0.0,2.7991737901935832e-08,2.584219371005996e-08,-1.1454015923983966e-08,0.0,0.0,0.0,0.0,0.0,0.0,0.0,0.0,0.0
1.447,30,1,447000000,base_footprint,-0.0035695383338487587,0.0014706071548657603,0.9238752329085999,0.38267433899957254,0.0,0.0,0.0,0.0,0.0,0.0,0.0,0.0,0.0,-0.00017793542557879686,-3.153868015394598e-05,0.000337098028416081,0.0,0.0,0.0,0.0,0.0,0.0,0.0,0.0,0.0,2.797980203955717e-08,2.5830785950409992e-08,-1.1619346209717735e-08,0.0,0.0,0.0,0.0,0.0,0.0,0.0,0.0,0.0
1.481,31,1,481000000,base_footprint,-0.0035695469386111227,0.0014705870417980338,0.9238773116640343,0.3826693203025854,0.0,0.0,0.0,0.0,0.0,0.0,0.0,0.0,0.0,-0.00017793685646787488,-3.155235453227211e-05,0.00033711211165275777,0.0,0.0,0.0,0.0,0.0,0.0,0.0,0.0,0.0,2.7969134144099988e-08,2.582062379493895e-08,-1.1769445361915374e-08,0.0,0.0,0.0,0.0,0.0,0.0,0.0,0.0,0.0
1.5150000000000001,32,1,515000000,base_footprint,-0.003565164789297704,0.0014687831357162832,0.9238334843410492,0.38277516310022275,0.0,0.0,0.0,0.0,0.0,0.0,0.0,0.0,0.0,-0.00010452234678465641,-0.00012540349042465112,-0.01499788877876886,0.0,0.0,0.0,0.0,0.0,0.0,0.0,0.0,0.0,-0.00014178008128604147,-0.6590267180595106,0.0035813580395773897,0.0,0.0,0.0,0.0,0.0,0.0,0.0,0.0,0.0
1.549,33,1,549000000,base_footprint,-0.0035651138014487524,0.0014704110517057864,0.9236768550841745,0.38315296584618896,0.0,0.0,0.0,0.0,0.0,0.0,0.0,0.0,0.0,7.792143970158553e-05,-0.00021776535041235308,-0.03238254701230148,0.0,0.0,0.0,0.0,0.0,0.0,0.0,0.0,0.0,-0.0019061467978462865,-0.7492043845445462,0.003960698570066356,0.0,0.0,0.0,0.0,0.0,0.0,0.0,0.0,0.0
1.5830000000000002,34,1,583000000,base_footprint,-0.0035648652617042854,0.0014731721855321053,0.9234065104026188,0.3838040359941984,0.0,0.0,0.0,0.0,0.0,0.0,0.0,0.0,0.0,0.00018355201624704686,-0.0003115928568509007,-0.04978536941246281,0.0,0.0,0.0,0.0,0.0,0.0,0.0,0.0,0.0,-0.005528965231850147,-0.7483417756240969,0.00403094472918282,0.0,0.0,0.0,0.0,0.0,0.0,0.0,0.0,0.0
1.617,35,1,617000000,base_footprint,-0.0035645104903532896,0.0014771099913625301,0.9230221980902504,0.3847273505272014,0.0,0.0,0.0,0.0,0.0,0.0,0.0,0.0,0.0,0.0003034614632370613,-0.00040638617132060707,-0.06705995143449081,0.0,0.0,0.0,0.0,0.0,0.0,0.0,0.0,0.0,-0.010811330235634853,-0.7368272623962413,0.003932605627858329,0.0,0.0,0.0,0.0,0.0,0.0,0.0,0.0,0.0
1.651,36,1,651000000,base_footprint,-0.003564162420705553,0.0014822674123953208,0.922524983108462,0.3859180679500367,0.0,0.0,0.0,0.0,0.0,0.0,0.0,0.0,0.0,0.00040347957510081153,-0.0005000430712699185,-0.08385456970290636,0.0,0.0,0.0,0.0,0.0,0.0,0.0,0.0,0.0,-0.017397999976220824,-0.704229434016876,0.0037523063420626455,0.0,0.0,0.0,0.0,0.0,0.0,0.0,0.0,0.0
1.685,37,1,685000000,base_footprint,-0.0035637185529488655,0.0014887194846687469,0.9219172954083574,0.38736750515668067,0.0,0.0,0.0,0.0,0.0,0.0,0.0,0.0,0.0,0.0004900961683309214,-0.0006028427782743741,-0.1004052943514089,0.0,0.0,0.0,0.0,0.0,0.0,0.0,0.0,0.0,-0.02443456971473043,-0.6383541074525325,0.0033880148044056475,0.0,0.0,0.0,0.0,0.0,0.0,0.0,0.0,0.0
1.718,38,1,719000000,base_footprint,-0.0035630180204094496,0.0014963078908065645,0.9211973198134381,0.3890765527936896,0.0,0.0,0.0,0.0,0.0,0.0,0.0,0.0,0.0,0.0005764325366676402,-0.0007018812232646917,-0.11719234688412175,0.0,0.0,0.0,0.0,0.0,0.0,0.0,0.0,0.0,-0.030569956929323988,-0.5324992244647169,0.0027928712837127856,0.0,0.0,0.0,0.0,0.0,0.0,0.0,0.0,0.0
1.7530000000000001,39,1,753000000,base_footprint,-0.003561809883204533,0.0015050783248351525,0.9203628412337465,0.39104640226671034,0.0,0.0,0.0,0.0,0.0,0.0,0.0,0.0,0.0,0.0006441304021141511,-0.0008121198518261114,-0.13402657197957304,0.0,0.0,0.0,0.0,0.0,0.0,0.0,0.0,0.0,-0.03449626510552266,-0.3884090328066965,0.002015176407526734,0.0,0.0,0.0,0.0,0.0,0.0,0.0,0.0,0.0
1.787,40,1,787000000,base_footprint,-0.0035585900349795092,0.0015157342186604627,0.9194108677701386,0.39327941112255277,0.0,0.0,0.0,0.0,0.0,0.0,0.0,0.0,0.0,0.0007717800165805217,-0.001598897420064346,-0.15007989019092988,0.0,0.0,0.0,0.0,0.0,0.0,0.0,0.0,0.0,-0.03737524148581989,-0.2124921613018341,0.0012284762630609051,0.0,0.0,0.0,0.0,0.0,0.0,0.0,0.0,0.0
1.8210000000000002,41,1,821000000,base_footprint,-0.0035592242219346718,0.0015176727038308249,0.9185047968851988,0.39539090365280516,0.0,0.0,0.0,0.0,0.0,0.0,0.0,0.0,0.0,0.0003150961504673909,-0.0004671423820584783,-0.12824666030134585,0.0,0.0,0.0,0.0,0.0,0.0,0.0,0.0,0.0,-0.01820917758461872,0.03994806915025027,-4.95635378412338e-05,0.0,0.0,0.0,0.0,0.0,0.0,0.0,0.0,0.0
1.855,42,1,855000000,base_footprint,-0.003554314255318314,0.0015183942843037754,0.9176791249951353,0.3973035173228835,0.0,0.0,0.0,0.0,0.0,0.0,0.0,0.0,0.0,0.00018587520962057134,-0.0005912364542133319,-0.11441818809957931,0.0,0.0,0.0,0.0,0.0,0.0,0.0,0.0,0.0,-0.02019864413928864,0.025438796566117014,-0.0006096215060493679,0.0,0.0,0.0,0.0,0.0,0.0,0.0,0.0,0.0
1.889,43,1,889000000,base_footprint,-0.0035474228142151404,0.0015250958059406365,0.9169637582192705,0.3989518216358349,0.0,0.0,0.0,0.0,0.0,0.0,0.0,0.0,0.0,-0.0033669946748385972,-0.004156777645378297,-0.09282954556277236,0.0,0.0,0.0,0.0,0.0,0.0,0.0,0.0,0.0,-0.02438974438804061,-0.12144780058833765,0.009157015043387695,0.0,0.0,0.0,0.0,0.0,0.0,0.0,0.0,0.0
1.923,44,1,923000000,base_footprint,-0.003535431362441183,0.0015328444740662008,0.9163640962250849,0.4003273588733142,0.0,0.0,0.0,0.0,0.0,0.0,0.0,0.0,0.0,0.00021469886299531582,-0.0005168013235381215,-0.0844305630375757,0.0,0.0,0.0,0.0,0.0,0.0,0.0,0.0,0.0,-0.043154113219971965,-0.29213144544031194,-0.007188073053312158,0.0,0.0,0.0,0.0,0.0,0.0,0.0,0.0,0.0
1.957,45,1,957000000,base_footprint,-0.0035423460059518575,0.001535943964823212,0.9158594529255571,0.4014804542537661,0.0,0.0,0.0,0.0,0.0,0.0,0.0,0.0,0.0,-0.0008535965361177472,-0.0005674716697744914,-0.03867330983806052,0.0,0.0,0.0,0.0,0.0,0.0,0.0,0.0,0.0,-0.04708468477421289,-0.3794306721753473,0.0032169419256265633,0.0,0.0,0.0,0.0,0.0,0.0,0.0,0.0,0.0
1.991,46,1,991000000,base_footprint,-0.0035429249546142347,0.0015347283988801903,0.916109527120741,0.40090949927648284,0.0,0.0,0.0,0.0,0.0,0.0,0.0,0.0,0.0,0.00020239029028423046,-0.000576478449016436,0.11000243312674556,0.0,0.0,0.0,0.0,0.0,0.0,0.0,0.0,0.0,-0.01842181264857451,-0.3093300626563322,-0.0018910733041709133,0.0,0.0,0.0,0.0,0.0,0.0,0.0,0.0,0.0
2.025,47,2,25000000,base_footprint,-0.0035454685027486656,0.001530769227648711,0.9168788045896481,0.3991470206489405,0.0,0.0,0.0,0.0,0.0,0.0,0.0,0.0,0.0,-0.0008587668167021606,0.0005687952484659901,0.11318531739606892,0.0,0.0,0.0,0.0,0.0,0.0,0.0,0.0,0.0,0.023857020278146332,-0.018033374782995513,0.002605437836176942,0.0,0.0,0.0,0.0,0.0,0.0,0.0,0.0,0.0
2.059,48,2,59000000,base_footprint,-0.003547195574423599,0.0015242937645317362,0.9176447112306492,0.3973830367321869,0.0,0.0,0.0,0.0,0.0,0.0,0.0,0.0,0.0,-0.0008108261473689623,0.0005617495787639282,0.11307806199358283,0.0,0.0,0.0,0.0,0.0,0.0,0.0,0.0,0.0,0.02431659898219686,-0.007385569757930799,4.664345836232066e-05,0.0,0.0,0.0,0.0,0.0,0.0,0.0,0.0,0.0
2.093,49,2,93000000,base_footprint,-0.0035562633305603955,0.0015197597584205057,0.9184071946981933,0.3956175780321134,0.0,0.0,0.0,0.0,0.0,0.0,0.0,0.0,0.0,-0.002819984975209526,0.0015376424179390574,0.11030150688048168,0.0,0.0,0.0,0.0,0.0,0.0,0.0,0.0,0.0,0.03727345959227498,0.20662914650382327,-9.271065921144162e-05,0.0,0.0,0.0,0.0,0.0,0.0,0.0,0.0,0.0
2.127,50,2,127000000,base_footprint,-0.0035541876537734636,0.0015151863924853088,0.9189211978803533,0.3944222408111066,0.0,0.0,0.0,0.0,0.0,0.0,0.0,0.0,0.0,-0.000406482395648659,0.0003194914754504615,0.07258077312269723,0.0,0.0,0.0,0.0,0.0,0.0,0.0,0.0,0.0,0.021238528357649864,0.10961897238663189,-0.0017426610856746325,0.0,0.0,0.0,0.0,0.0,0.0,0.0,0.0,0.0
2.161,51,2,161000000,base_footprint,-0.0035591136030867217,0.0015126951230078043,0.9194060500525153,0.3932906807828744,0.0,0.0,0.0,0.0,0.0,0.0,0.0,0.0,0.0,-0.00034321898805283297,0.00028153069644663506,0.07224263424622604,0.0,0.0,0.0,0.0,0.0,0.0,0.0,0.0,0.0,0.01462221738204436,-0.005640008231812033,-0.0001387596363696439,0.0,0.0,0.0,0.0,0.0,0.0,0.0,0.0,0.0
2.195,52,2,195000000,base_footprint,-0.003556575090761921,0.001507112182006633,0.9198805825362961,0.3921795421222007,0.0,0.0,0.0,0.0,0.0,0.0,0.0,0.0,0.0,-0.0012635431917085967,0.0009215356200605851,0.07418790294511805,0.0,0.0,0.0,0.0,0.0,0.0,0.0,0.0,0.0,0.0097832777897527,-0.13654122822538248,0.002007494308517147,0.0,0.0,0.0,0.0,0.0,0.0,0.0,0.0,0.0
2.229,53,2,229000000,base_footprint,-0.0035680358899488705,0.0014976073264791568,0.920715841907245,0.3902145112027702,0.0,0.0,0.0,0.0,0.0,0.0,0.0,0.0,0.0,-0.0010797595970301424,0.0009857031542229095,0.16407529314106648,0.0,0.0,0.0,0.0,0.0,0.0,0.0,0.0,0.0,0.018100730221009317,-0.19020149539336595,-0.00010872080005037239,0.0,0.0,0.0,0.0,0.0,0.0,0.0,0.0,0.0
2.263,54,2,263000000,base_footprint,-0.0035773669052569807,0.0014948678010092695,0.9217799603746589,0.38769404492199144,0.0,0.0,0.0,0.0,0.0,0.0,0.0,0.0,0.0,-0.001070979522428371,0.0010410802602325007,0.15855487530837284,0.0,0.0,0.0,0.0,0.0,0.0,0.0,0.0,0.0,0.034755480516664126,0.01209403347060616,0.00044527955214915374,0.0,0.0,0.0,0.0,0.0,0.0,0.0,0.0,0.0
2.297,55,2,297000000,base_footprint,-0.0035685865635135877,0.0014795330391304336,0.9227516607209387,0.38537572420778465,0.0,0.0,0.0,0.0,0.0,0.0,0.0,0.0,0.0,-0.0015479918403460413,0.0005498195182094977,0.11840600660196055,0.0,0.0,0.0,0.0,0.0,0.0,0.0,0.0,0.0,0.034186921528982596,0.007744382435435867,0.0019117152447100019,0.0,0.0,0.0,0.0,0.0,0.0,0.0,0.0,0.0
2.331,56,2,331000000,base_footprint,-0.0035699651113409773,0.0014811622287097875,0.9232868796175521,0.3840916549908891,0.0,0.0,0.0,0.0,0.0,0.0,0.0,0.0,0.0,-9.979218596533978e-05,-0.00038094306114727053,0.07896133237899142,0.0,0.0,0.0,0.0,0.0,0.0,0.0,0.0,0.0,0.021782279739190658,0.04076176629245269,-0.0027922588330777445,0.0,0.0,0.0,0.0,0.0,0.0,0.0,0.0,0.0
2.365,57,2,365000000,base_footprint,-0.0035780052165962986,0.0014763948422560533,0.9238829349672877,0.38265564233808214,0.0,0.0,0.0,0.0,0.0,0.0,0.0,0.0,0.0,-0.0007661641548420257,0.0002402417854742368,0.08856243658730104,0.0,0.0,0.0,0.0,0.0,0.0,0.0,0.0,0.0,0.018426394822245323,0.0078008559648940715,0.001641268040770109,0.0,0.0,0.0,0.0,0.0,0.0,0.0,0.0,0.0
2.399,58,2,399000000,base_footprint,-0.0035801821464656255,0.0014689992500829152,0.9243251234771795,0.38158628178420956,0.0,0.0,0.0,0.0,0.0,0.0,0.0,0.0,0.0,0.00105019193500041,0.000167815817210007,0.03658383041566742,0.0,0.0,0.0,0.0,0.0,0.0,0.0,0.0,0.0,0.015387459605112161,0.19129267948898915,-0.0024325357245119734,0.0,0.0,0.0,0.0,0.0,0.0,0.0,0.0,0.0
2.433,59,2,433000000,base_footprint,-0.003581212915968867,0.0014638771814660875,0.9246980873220357,0.3806815982952378,0.0,0.0,0.0,0.0,0.0,0.0,0.0,0.0,0.0,-0.0008677734902553279,0.00032689605367468093,0.06015052534547493,0.0,0.0,0.0,0.0,0.0,0.0,0.0,0.0,0.0,0.010430331633836332,0.09323670138565295,0.0011005685124119951,0.0,0.0,0.0,0.0,0.0,0.0,0.0,0.0,0.0
2.467,60,2,467000000,base_footprint,-0.0035802596405032096,0.001459057715457589,0.9250876078411109,0.3797340789424893,0.0,0.0,0.0,0.0,0.0,0.0,0.0,0.0,0.0,-0.0005755463712396533,0.00041541959116040854,0.06036104895573943,0.0,0.0,0.0,0.0,0.0,0.0,0.0,0.0,0.0,0.011396907289310546,-0.0037537610189977326,-0.0003803945841730288,0.0,0.0,0.0,0.0,0.0,0.0,0.0,0.0,0.0
2.501,61,2,501000000,base_footprint,-0.0035712436645541894,0.001456197479450046,0.92546002171228,0.37882565108489596,0.0,0.0,0.0,0.0,0.0,0.0,0.0,0.0,0.0,-0.0015316069299295687,0.00020743251887102152,0.030352372043955377,0.0,0.0,0.0,0.0,0.0,0.0,0.0,0.0,0.0,0.01620001538702591,-0.2555387678887375,0.0028828711237502205,0.0,0.0,0.0,0.0,0.0,0.0,0.0,0.0,0.0
2.535,62,2,535000000,base_footprint,-0.003576840246959659,0.00145641939502818,0.9254246068189984,0.37891210346239396,0.0,0.0,0.0,0.0,0.0,0.0,0.0,0.0,0.0,-0.00030214548911932206,-0.00016864167147173396,-0.01035035032347276,0.0,0.0,0.0,0.0,0.0,0.0,0.0,0.0,0.0,0.00110310813296937,-0.11423919590342085,-0.00048174032963777604,0.0,0.0,0.0,0.0,0.0,0.0,0.0,0.0,0.0
2.569,63,2,569000000,base_footprint,-0.0035763479750827417,0.0014579241154825183,0.9253559123290835,0.37907983289809055,0.0,0.0,0.0,0.0,0.0,0.0,0.0,0.0,0.0,-8.977799583274124e-05,-0.00014981091640458877,-0.010879289360935681,0.0,0.0,0.0,0.0,0.0,0.0,0.0,0.0,0.0,-0.002140232763868602,-0.005790180284331565,-0.00031038391462748433,0.0,0.0,0.0,0.0,0.0,0.0,0.0,0.0,0.0
2.603,64,2,603000000,base_footprint,-0.003577841511718027,0.0014585123153282847,0.9254213299570967,0.3789200890060879,0.0,0.0,0.0,0.0,0.0,0.0,0.0,0.0,0.0,-0.0004670059049550364,8.626558070406803e-06,0.03173083703893863,0.0,0.0,0.0,0.0,0.0,0.0,0.0,0.0,0.0,0.0007806536889270485,0.005693213313311135,0.00010724629093856242,0.0,0.0,0.0,0.0,0.0,0.0,0.0,0.0,0.0
2.637,65,2,637000000,base_footprint,-0.0035816076178239765,0.0014585854020782354,0.925621461685095,0.3784309108456197,0.0,0.0,0.0,0.0,0.0,0.0,0.0,0.0,0.0,-0.0001056518633603788,7.323831872242402e-05,0.030776848827711114,0.0,0.0,0.0,0.0,0.0,0.0,0.0,0.0,0.0,0.007550890757529672,-0.005197824805328013,-0.0005257691000664891,0.0,0.0,0.0,0.0,0.0,0.0,0.0,0.0,0.0
2.6710000000000003,66,2,671000000,base_footprint,-0.0035866797506919697,0.0014582197383195535,0.9258159439991934,0.3779548215864472,0.0,0.0,0.0,0.0,0.0,0.0,0.0,0.0,0.0,-5.617386515280178e-05,0.00010247313867780002,0.02968893872434425,0.0,0.0,0.0,0.0,0.0,0.0,0.0,0.0,0.0,0.0061205958388246065,-0.0036758484450424697,-0.00018092068567986838,0.0,0.0,0.0,0.0,0.0,0.0,0.0,0.0,0.0
2.705,67,2,705000000,base_footprint,-0.0035886467994551445,0.0014598851048001611,0.9258261952373931,0.3779296846794152,0.0,0.0,0.0,0.0,0.0,0.0,0.0,0.0,0.0,-0.0003783782608446823,0.0005419700345439258,-0.022957596082145922,0.0,0.0,0.0,0.0,0.0,0.0,0.0,0.0,0.0,0.0037249243761058,-0.00946394517400144,0.0006252261427639332,0.0,0.0,0.0,0.0,0.0,0.0,0.0,0.0,0.0
2.739,68,2,739000000,base_footprint,-0.003590028973909352,0.0014594455184787601,0.9256755212209054,0.37829857404324224,0.0,0.0,0.0,0.0,0.0,0.0,0.0,0.0,0.0,-0.0002266303099976293,0.00011882736618504887,-0.025359432465024753,0.0,0.0,0.0,0.0,0.0,0.0,0.0,0.0,0.0,-0.007840799690405091,0.006552010196367311,5.493224513813122e-05,0.0,0.0,0.0,0.0,0.0,0.0,0.0,0.0,0.0
2.773,69,2,773000000,base_footprint,-0.0035896302863010353,0.0014549553674033486,0.9254641886660002,0.3788153021672546,0.0,0.0,0.0,0.0,0.0,0.0,0.0,0.0,0.0,0.0003380842755856025,-0.0005217477757785776,-0.04494390299817376,0.0,0.0,0.0,0.0,0.0,0.0,0.0,0.0,0.0,-0.009043432955927987,0.05052216479005207,-0.0011213680081262128,0.0,0.0,0.0,0.0,0.0,0.0,0.0,0.0,0.0
2.807,70,2,807000000,base_footprint,-0.003583702993270999,0.001460335321966704,0.9252340341943177,0.3793771295981238,0.0,0.0,0.0,0.0,0.0,0.0,0.0,0.0,0.0,0.00020892401576751482,-0.0011820065435265118,-0.017289978920474385,0.0,0.0,0.0,0.0,0.0,0.0,0.0,0.0,0.0,0.0031550007890124654,-0.003427272372335524,-0.00023056896261403542,0.0,0.0,0.0,0.0,0.0,0.0,0.0,0.0,0.0
2.841,71,2,841000000,base_footprint,-0.003586679223288231,0.0014629272333312319,0.9252210853484043,0.37940866990987426,0.0,0.0,0.0,0.0,0.0,0.0,0.0,0.0,0.0,-0.00015710580797262237,0.0002789762264811215,-0.0030163876668643464,0.0,0.0,0.0,0.0,0.0,0.0,0.0,0.0,0.0,-0.010157575526561317,0.010076752692473576,0.00014604661982061098,0.0,0.0,0.0,0.0,0.0,0.0,0.0,0.0,0.0
2.875,72,2,875000000,base_footprint,-0.0035874606345662366,0.0014618024558982173,0.9251429598524603,0.3795991268367256,0.0,0.0,0.0,0.0,0.0,0.0,0.0,0.0,0.0,-0.0004935706276340927,-0.00018467240579583748,-0.012224317195732689,0.0,0.0,0.0,0.0,0.0,0.0,0.0,0.0,0.0,-0.00033583734726757783,-0.0277301244297135,0.0015296510309100635,0.0,0.0,0.0,0.0,0.0,0.0,0.0,0.0,0.0
2.909,73,2,909000000,base_footprint,-0.0035836703396875903,0.0014592972143256777,0.92525846178545,0.3793175538423703,0.0,0.0,0.0,0.0,0.0,0.0,0.0,0.0,0.0,-0.001628647304129037,0.0004599009619763091,0.0828371459663138,0.0,0.0,0.0,0.0,0.0,0.0,0.0,0.0,0.0,-0.0034922929745382775,0.29642876800062407,-0.0008111790429407098,0.0,0.0,0.0,0.0,0.0,0.0,0.0,0.0,0.0
2.943,74,2,943000000,base_footprint,-0.0035824560387830557,0.0014554867563058582,0.9254681880160726,0.3788055972887413,0.0,0.0,0.0,0.0,0.0,0.0,0.0,0.0,0.0,-0.0010486074599799103,8.756151883563569e-05,-0.014939413269061837,0.0,0.0,0.0,0.0,0.0,0.0,0.0,0.0,0.0,0.010965832066628135,0.03357919156376674,-0.000511813253793718,0.0,0.0,0.0,0.0,0.0,0.0,0.0,0.0,0.0
2.9770000000000003,75,2,977000000,base_footprint,-0.0035786038932703592,0.0014563881291829888,0.9253736079005105,0.3790366187177496,0.0,0.0,0.0,0.0,0.0,0.0,0.0,0.0,0.0,-0.0002412325306944552,-0.00020197425009073274,-0.014889572682433207,0.0,0.0,0.0,0.0,0.0,0.0,0.0,0.0,0.0,-0.0060624678279352535,-0.002602979910756936,-0.0006634789388023968,0.0,0.0,0.0,0.0,0.0,0.0,0.0,0.0,0.0
3.011,76,3,11000000,base_footprint,-0.003576278858086617,0.0014544969181768761,0.9255410680068712,0.3786275559186686,0.0,0.0,0.0,0.0,0.0,0.0,0.0,0.0,0.0,-0.0001415079099771271,0.0004959553941565512,0.09913765088707582,0.0,0.0,0.0,0.0,0.0,0.0,0.0,0.0,0.0,0.008626552557726222,-0.33011311684843264,0.0014022350633963849,0.0,0.0,0.0,0.0,0.0,0.0,0.0,0.0,0.0
3.045,77,3,45000000,base_footprint,-0.003577878080477658,0.00145515034991986,0.9256701264805748,0.37831190606077564,0.0,0.0,0.0,0.0,0.0,0.0,0.0,0.0,0.0,-9.254040434643077e-05,-0.0001875957626097728,-0.014947594618955805,0.0,0.0,0.0,0.0,0.0,0.0,0.0,0.0,0.0,0.007026534426833508,-0.02158943908815612,0.00029460881693644023,0.0,0.0,0.0,0.0,0.0,0.0,0.0,0.0,0.0
3.079,78,3,79000000,base_footprint,-0.003578484406567765,0.0014572968449647111,0.9255723782582125,0.3785509785229645,0.0,0.0,0.0,0.0,0.0,0.0,0.0,0.0,0.0,2.7310300125863135e-05,-0.0001736395212137648,-0.015430752794901349,0.0,0.0,0.0,0.0,0.0,0.0,0.0,0.0,0.0,-0.003102693163295413,-0.005504994725537856,-0.00023872288562995646,0.0,0.0,0.0,0.0,0.0,0.0,0.0,0.0,0.0
3.113,79,3,113000000,base_footprint,-0.003581280103346446,0.001459702810291838,0.9255193850241515,0.37868048754199546,0.0,0.0,0.0,0.0,0.0,0.0,0.0,0.0,0.0,0.00010322162319693245,-0.00012619934655996135,-0.006626150608337927,0.0,0.0,0.0,0.0,0.0,0.0,0.0,0.0,0.0,-0.001964111365474481,-0.0028013100186821687,-0.00026446242920215817,0.0,0.0,0.0,0.0,0.0,0.0,0.0,0.0,0.0
3.1470000000000002,80,3,147000000,base_footprint,-0.0035853135646636827,0.0014614359743275582,0.9254730515440373,0.37879366493818756,0.0,0.0,0.0,0.0,0.0,0.0,0.0,0.0,0.0,0.00012542309660559483,-9.104496065811618e-05,-0.007891240793547511,0.0,0.0,0.0,0.0,0.0,0.0,0.0,0.0,0.0,-0.002010049000714553,-0.0034893217371411525,-0.00016081952823689835,0.0,0.0,0.0,0.0,0.0,0.0,0.0,0.0,0.0
3.181,81,3,181000000,base_footprint,-0.0035879764515425214,0.0014627565330094883,0.9254162733482891,0.3789323261355159,0.0,0.0,0.0,0.0,0.0,0.0,0.0,0.0,0.0,6.408724843297448e-05,-3.860267100076733e-05,-0.009803167360039881,0.0,0.0,0.0,0.0,0.0,0.0,0.0,0.0,0.0,-0.0025653095657727863,0.0010713422526550129,-2.1623671192831426e-05,0.0,0.0,0.0,0.0,0.0,0.0,0.0,0.0,0.0
3.215,82,3,215000000,base_footprint,-0.0035874689543977825,0.0014533268418446647,0.9257089645961206,0.3782167774887442,0.0,0.0,0.0,0.0,0.0,0.0,0.0,0.0,0.0,-0.0008303739831297136,0.0007049818010149316,0.0676790557859263,0.0,0.0,0.0,0.0,0.0,0.0,0.0,0.0,0.0,0.006330569483974672,0.04428904138472951,0.0006057976754862466,0.0,0.0,0.0,0.0,0.0,0.0,0.0,0.0,0.0
3.249,83,3,249000000,base_footprint,-0.0035915962167280967,0.0014481479455439093,0.9260945288592212,0.37727168847020726,0.0,0.0,0.0,0.0,0.0,0.0,0.0,0.0,0.0,0.00013360221655815015,-0.00027814932578514213,0.04988808289576358,0.0,0.0,0.0,0.0,0.0,0.0,0.0,0.0,0.0,0.012651272619504942,0.047149624275216385,-0.001772143875272574,0.0,0.0,0.0,0.0,0.0,0.0,0.0,0.0,0.0
3.283,84,3,283000000,base_footprint,-0.0035811670434484875,0.0014528847084603854,0.9261423932392345,0.377154254667416,0.0,0.0,0.0,0.0,0.0,0.0,0.0,0.0,0.0,0.0008213247588461647,-0.0015163867091892449,-0.009161099031887205,0.0,0.0,0.0,0.0,0.0,0.0,0.0,0.0,0.0,0.009889449544763701,0.031661180869986594,-4.265858664280165e-05,0.0,0.0,0.0,0.0,0.0,0.0,0.0,0.0,0.0
3.317,85,3,317000000,base_footprint,-0.003584009274074446,0.0014562686983923532,0.9261585480976432,0.37711454220789087,0.0,0.0,0.0,0.0,0.0,0.0,0.0,0.0,0.0,-0.00020237190953037323,0.00010320487776994871,0.0003370712091684031,0.0,0.0,0.0,0.0,0.0,0.0,0.0,0.0,0.0,-0.004189542791167169,0.007806070631461302,0.0012757912605290708,0.0,0.0,0.0,0.0,0.0,0.0,0.0,0.0,0.0
3.351,86,3,351000000,base_footprint,-0.003587330328943921,0.0014545697309308176,0.9260627687729469,0.37734965692391,0.0,0.0,0.0,0.0,0.0,0.0,0.0,0.0,0.0,0.0012709180030159857,0.0009207054894712262,-0.036141985509204326,0.0,0.0,0.0,0.0,0.0,0.0,0.0,0.0,0.0,-0.0028856981165991946,-0.09712096772586082,-0.0022270872762131804,0.0,0.0,0.0,0.0,0.0,0.0,0.0,0.0,0.0
3.385,87,3,385000000,base_footprint,-0.003585702599213352,0.001453804563165347,0.92582570609226,0.3779309343357994,0.0,0.0,0.0,0.0,0.0,0.0,0.0,0.0,0.0,-0.0001723204151773092,-8.318539538136336e-05,-0.03606361338998386,0.0,0.0,0.0,0.0,0.0,0.0,0.0,0.0,0.0,-0.006905421772777096,-0.006874624886634869,0.002965604068483568,0.0,0.0,0.0,0.0,0.0,0.0,0.0,0.0,0.0
3.419,88,3,419000000,base_footprint,-0.003579825793792983,0.0014493070087772213,0.9262330459538723,0.37693159716252556,0.0,0.0,0.0,0.0,0.0,0.0,0.0,0.0,0.0,0.001051386354135615,-0.0009241673591654249,0.1027218212810265,0.0,0.0,0.0,0.0,0.0,0.0,0.0,0.0,0.0,0.001489998639138304,0.35519797803492004,-0.004467217960911275,0.0,0.0,0.0,0.0,0.0,0.0,0.0,0.0,0.0
3.453,89,3,453000000,base_footprint,-0.0035793020422605452,0.0014478889308340236,0.9261787131794256,0.37706509181816034,0.0,0.0,0.0,0.0,0.0,0.0,0.0,0.0,0.0,-0.0031017879541596232,8.209922027001856e-05,-0.014423292487081872,0.0,0.0,0.0,0.0,0.0,0.0,0.0,0.0,0.0,0.0034245327672066637,-0.06382769400181995,0.006309778458093286,0.0,0.0,0.0,0.0,0.0,0.0,0.0,0.0,0.0
3.487,90,3,487000000,base_footprint,-0.0035808883976050396,0.0014454537863104596,0.9266062652638132,0.37601318736911826,0.0,0.0,0.0,0.0,0.0,0.0,0.0,0.0,0.0,-0.001168268530055519,0.0003692667850682212,0.10559099081155979,0.0,0.0,0.0,0.0,0.0,0.0,0.0,0.0,0.0,0.020262984871988937,-0.2705775486252093,-0.001412293407076814,0.0,0.0,0.0,0.0,0.0,0.0,0.0,0.0,0.0
3.521,91,3,521000000,base_footprint,-0.0035831517033940016,0.001440076725423682,0.9272775211714072,0.3743547594636751,0.0,0.0,0.0,0.0,0.0,0.0,0.0,0.0,0.0,-0.0007276850454598837,0.0004588946755956557,0.10505427365591845,0.0,0.0,0.0,0.0,0.0,0.0,0.0,0.0,0.0,0.023432346939201616,-0.003617234813518862,-0.0004944309394387262,0.0,0.0,0.0,0.0,0.0,0.0,0.0,0.0,0.0
3.555,92,3,555000000,base_footprint,-0.0035870382498156706,0.00143521668771994,0.9279427511435921,0.3727027286051377,0.0,0.0,0.0,0.0,0.0,0.0,0.0,0.0,0.0,-0.0006307440574333705,0.0004500836784586132,0.10455376593131549,0.0,0.0,0.0,0.0,0.0,0.0,0.0,0.0,0.0,0.023081378358423516,-0.004704674133430608,-4.927245736450399e-05,0.0,0.0,0.0,0.0,0.0,0.0,0.0,0.0,0.0
3.589,93,3,589000000,base_footprint,-0.0035899341288070496,0.0014250259513884473,0.9285778524602988,0.37111757381483357,0.0,0.0,0.0,0.0,0.0,0.0,0.0,0.0,0.0,-0.004226414316322059,0.00159960710512516,0.054648516636453454,0.0,0.0,0.0,0.0,0.0,0.0,0.0,0.0,0.0,0.02160730351958476,-0.025076764042386422,0.005657856359622959,0.0,0.0,0.0,0.0,0.0,0.0,0.0,0.0,0.0
3.623,94,3,623000000,base_footprint,-0.0035976056875539008,0.0014309807776060487,0.9287774482457074,0.3706176751822875,0.0,0.0,0.0,0.0,0.0,0.0,0.0,0.0,0.0,-0.0001058070845356138,9.780015478991743e-05,0.03068108722838622,0.0,0.0,0.0,0.0,0.0,0.0,0.0,0.0,0.0,0.008673861857480824,-0.00047458743446373176,-0.005737950692651032,0.0,0.0,0.0,0.0,0.0,0.0,0.0,0.0,0.0
3.657,95,3,657000000,base_footprint,-0.003601165310876542,0.001429493278657294,0.9289642782760246,0.3701491021797498,0.0,0.0,0.0,0.0,0.0,0.0,0.0,0.0,0.0,-0.0001849027074722389,0.00019231922095302905,0.028348867015710426,0.0,0.0,0.0,0.0,0.0,0.0,0.0,0.0,0.0,0.004909035455912193,-0.0009797928123932262,3.29176817376225e-05,0.0,0.0,0.0,0.0,0.0,0.0,0.0,0.0,0.0
3.691,96,3,691000000,base_footprint,-0.003588168607940875,0.001418254696323311,0.9291451895738025,0.3696949151550776,0.0,0.0,0.0,0.0,0.0,0.0,0.0,0.0,0.0,-0.0063615619997655255,-0.0012320879416592191,0.0450495163652357,0.0,0.0,0.0,0.0,0.0,0.0,0.0,0.0,0.0,0.013889440470607958,0.057480994621819236,0.009993100344019403,0.0,0.0,0.0,0.0,0.0,0.0,0.0,0.0,0.0
3.725,97,3,725000000,base_footprint,-0.0036045200268619505,0.0014141887245242627,0.9296897626997782,0.36832316331837933,0.0,0.0,0.0,0.0,0.0,0.0,0.0,0.0,0.0,-0.002634281872166251,-0.0015365919945401086,0.083025223256291,0.0,0.0,0.0,0.0,0.0,0.0,0.0,0.0,0.0,-0.0022200717308305112,0.21743832913599256,-0.0067548802120837685,0.0,0.0,0.0,0.0,0.0,0.0,0.0,0.0,0.0
3.759,98,3,759000000,base_footprint,-0.0036069546563585546,0.0014141516693546106,0.9298637407563628,0.3678836958601819,0.0,0.0,0.0,0.0,0.0,0.0,0.0,0.0,0.0,0.0009455481460902295,-0.0009486936703529934,0.011069220146008647,0.0,0.0,0.0,0.0,0.0,0.0,0.0,0.0,0.0,-0.0005290665024132862,0.0932542624988684,-0.006751544812133523,0.0,0.0,0.0,0.0,0.0,0.0,0.0,0.0,0.0
3.793,99,3,793000000,base_footprint,-0.0035899707192177653,0.0014062069914095652,0.9300424787027814,0.3674317929909154,0.0,0.0,0.0,0.0,0.0,0.0,0.0,0.0,0.0,-0.0037813292920279296,0.00043956609948644465,0.05320620522767649,0.0,0.0,0.0,0.0,0.0,0.0,0.0,0.0,0.0,0.008969654009014824,-0.013245406232515966,0.006254307663472618,0.0,0.0,0.0,0.0,0.0,0.0,0.0,0.0,0.0
3.827,100,3,827000000,base_footprint,-0.0035901667202251223,0.0014152196427062202,0.9304230751874507,0.3664669275869401,0.0,0.0,0.0,0.0,0.0,0.0,0.0,0.0,0.0,-0.00045742195755401927,0.000319872614766927,0.04480583650088282,0.0,0.0,0.0,0.0,0.0,0.0,0.0,0.0,0.0,0.01994061692228879,-0.10393645458442055,-0.0033423684989256153,0.0,0.0,0.0,0.0,0.0,0.0,0.0,0.0,0.0
3.861,101,3,861000000,base_footprint,-0.0035899263648166025,0.0014123382065141324,0.9304927736706786,0.36628993417255246,0.0,0.0,0.0,0.0,0.0,0.0,0.0,0.0,0.0,0.0018177126902943672,0.0009261357222928439,-0.025741444792059,0.0,0.0,0.0,0.0,0.0,0.0,0.0,0.0,0.0,0.013785191615793647,-0.18605461949797145,-0.002077539792492484,0.0,0.0,0.0,0.0,0.0,0.0,0.0,0.0,0.0
3.895,102,3,895000000,base_footprint,-0.0036012402754880255,0.00141029240735005,0.9302683604140297,0.36685940052886334,0.0,0.0,0.0,0.0,0.0,0.0,0.0,0.0,0.0,-0.0008455160124035373,5.71829707439412e-05,-0.023623415760301737,0.0,0.0,0.0,0.0,0.0,0.0,0.0,0.0,0.0,-0.005474129455754838,-0.044839750203747246,0.004363892352433025,0.0,0.0,0.0,0.0,0.0,0.0,0.0,0.0,0.0
3.9290000000000003,103,3,929000000,base_footprint,-0.003597332534876695,0.0014111979054925456,0.9301140761289235,0.3672504228805517,0.0,0.0,0.0,0.0,0.0,0.0,0.0,0.0,0.0,-0.00019161631172884188,-0.0002852249667844222,-0.024980411377306375,0.0,0.0,0.0,0.0,0.0,0.0,0.0,0.0,0.0,-0.003938342005333628,-0.006117690234528498,-0.0005349817476115928,0.0,0.0,0.0,0.0,0.0,0.0,0.0,0.0,0.0
3.963,104,3,963000000,base_footprint,-0.0035944784953626826,0.0014134693062862727,0.9299559828596933,0.36765058380523274,0.0,0.0,0.0,0.0,0.0,0.0,0.0,0.0,0.0,-9.374477305249779e-05,-0.00025964296715177585,-0.0255359440939545,0.0,0.0,0.0,0.0,0.0,0.0,0.0,0.0,0.0,-0.005148438570569655,-0.00609251833202283,-0.0001882182165524156,0.0,0.0,0.0,0.0,0.0,0.0,0.0,0.0,0.0
3.997,105,3,997000000,base_footprint,-0.0035934113264840194,0.0014165237486050014,0.9297499564977749,0.36817129063507115,0.0,0.0,0.0,0.0,0.0,0.0,0.0,0.0,0.0,-9.348962718542448e-05,-0.00036517345598649183,-0.04839794043751528,0.0,0.0,0.0,0.0,0.0,0.0,0.0,0.0,0.0,-0.005314538246868628,-0.012668045246411323,9.988901291279156e-05,0.0,0.0,0.0,0.0,0.0,0.0,0.0,0.0,0.0
4.031,106,4,31000000,base_footprint,-0.003593344816454241,0.0014207474733723858,0.9294476387247184,0.3689338100780306,0.0,0.0,0.0,0.0,0.0,0.0,0.0,0.0,0.0,0.00021633422051387533,-0.00035247280579710737,-0.04845243959243026,0.0,0.0,0.0,0.0,0.0,0.0,0.0,0.0,0.0,-0.011392621749060644,-0.00555397561654635,-0.00048220722150592353,0.0,0.0,0.0,0.0,0.0,0.0,0.0,0.0,0.0
4.065,107,4,65000000,base_footprint,-0.003595116007748649,0.0014256092782623504,0.92914080278165,0.3697058444024758,0.0,0.0,0.0,0.0,0.0,0.0,0.0,0.0,0.0,0.00033491815856257206,-0.0003526691270941413,-0.049210986846548024,0.0,0.0,0.0,0.0,0.0,0.0,0.0,0.0,0.0,-0.010637321745923873,-0.005851501091388682,-0.0002829362973988841,0.0,0.0,0.0,0.0,0.0,0.0,0.0,0.0,0.0
4.099,108,4,99000000,base_footprint,-0.003598313950421967,0.0014296050053090794,0.9288501599923921,0.37043540415077864,0.0,0.0,0.0,0.0,0.0,0.0,0.0,0.0,0.0,0.0003172521089858654,-0.0004360070433459666,-0.041003125014138095,0.0,0.0,0.0,0.0,0.0,0.0,0.0,0.0,0.0,-0.01129120516247431,-0.0013941987228815755,-0.00021109700206752203,0.0,0.0,0.0,0.0,0.0,0.0,0.0,0.0,0.0
4.133,109,4,133000000,base_footprint,-0.0036001198175565456,0.0014328127208921397,0.9285844844501305,0.3711008507447694,0.0,0.0,0.0,0.0,0.0,0.0,0.0,0.0,0.0,0.0002437556169903581,-0.00020841624800292934,-0.04320347789892313,0.0,0.0,0.0,0.0,0.0,0.0,0.0,0.0,0.0,-0.009297336613301968,0.0005047047552561679,-7.940939511360916e-05,0.0,0.0,0.0,0.0,0.0,0.0,0.0,0.0,0.0
4.167,110,4,167000000,base_footprint,-0.0035999458188480968,0.0014337987389969528,0.9283028958065775,0.3718046775504579,0.0,0.0,0.0,0.0,0.0,0.0,0.0,0.0,0.0,-0.00014179335406826313,5.301963241332509e-05,-0.046386499293125966,0.0,0.0,0.0,0.0,0.0,0.0,0.0,0.0,0.0,-0.009180236719409419,0.008114762244940166,0.0005539169953837936,0.0,0.0,0.0,0.0,0.0,0.0,0.0,0.0,0.0
4.201,111,4,201000000,base_footprint,-0.003604285089660383,0.0014309100003874697,0.9280171790237434,0.3725172171354995,0.0,0.0,0.0,0.0,0.0,0.0,0.0,0.0,0.0,0.00021320895429220257,-0.00023340617515615187,-0.03155765716093531,0.0,0.0,0.0,0.0,0.0,0.0,0.0,0.0,0.0,-0.01944600438609106,0.0963629739018404,-0.0009692904310638485,0.0,0.0,0.0,0.0,0.0,0.0,0.0,0.0,0.0
4.235,112,4,235000000,base_footprint,-0.0035907248232687886,0.0014320053795589868,0.9278599704753211,0.37290874385749223,0.0,0.0,0.0,0.0,0.0,0.0,0.0,0.0,0.0,-2.7382633901571916e-05,-0.0016536031150746345,-0.009503938445583067,0.0,0.0,0.0,0.0,0.0,0.0,0.0,0.0,0.0,0.008750460466638448,-0.030134337579662735,1.9699555927403073e-05,0.0,0.0,0.0,0.0,0.0,0.0,0.0,0.0,0.0
4.268,113,4,269000000,base_footprint,-0.0035962449199719985,0.0014371712802477448,0.9279858135624753,0.3725953990429536,0.0,0.0,0.0,0.0,0.0,0.0,0.0,0.0,0.0,-0.00034668398889017057,0.0011110247214477903,0.03298584321225941,0.0,0.0,0.0,0.0,0.0,0.0,0.0,0.0,0.0,-0.004506382812014094,0.009570375938222292,-0.0006158367267449888,0.0,0.0,0.0,0.0,0.0,0.0,0.0,0.0,0.0
4.303,114,4,303000000,base_footprint,-0.0035990109512917174,0.0014332077716852202,0.9281343364644493,0.3722252631288641,0.0,0.0,0.0,0.0,0.0,0.0,0.0,0.0,0.0,-0.0007452412844108786,5.898149877098637e-07,0.022229890941418782,0.0,0.0,0.0,0.0,0.0,0.0,0.0,0.0,0.0,0.010074354466812277,-0.03418578264648712,0.001964808424238373,0.0,0.0,0.0,0.0,0.0,0.0,0.0,0.0,0.0
4.337,115,4,337000000,base_footprint,-0.003595049837312153,0.001429956940863057,0.9282795740469338,0.37186296299451205,0.0,0.0,0.0,0.0,0.0,0.0,0.0,0.0,0.0,-0.0004747436146723716,0.00016965366624263525,0.023144053923596964,0.0,0.0,0.0,0.0,0.0,0.0,0.0,0.0,0.0,0.002236607507163207,-0.0011351862362431475,-0.0004386942334432576,0.0,0.0,0.0,0.0,0.0,0.0,0.0,0.0,0.0
4.371,116,4,371000000,base_footprint,-0.003592947061934661,0.0014274711003823596,0.9284265052973444,0.37149599906193864,0.0,0.0,0.0,0.0,0.0,0.0,0.0,0.0,0.0,-0.00037801458225733515,0.00019334883889566475,0.023369657376819584,0.0,0.0,0.0,0.0,0.0,0.0,0.0,0.0,0.0,0.00531529524071775,-0.0038509445369766804,-0.00013944023987014329,0.0,0.0,0.0,0.0,0.0,0.0,0.0,0.0,0.0
4.405,117,4,405000000,base_footprint,-0.0035900406924851435,0.001427878364584269,0.9283841332406202,0.3716019024685752,0.0,0.0,0.0,0.0,0.0,0.0,0.0,0.0,0.0,-0.0007041287938618618,-0.0004462910957277536,-0.03244797838704661,0.0,0.0,0.0,0.0,0.0,0.0,0.0,0.0,0.0,0.0006729096542966995,-0.02033868721352297,0.001095865277016718,0.0,0.0,0.0,0.0,0.0,0.0,0.0,0.0,0.0
4.439,118,4,439000000,base_footprint,-0.0035874570551013805,0.00143059741331044,0.928178016177084,0.3721164519723519,0.0,0.0,0.0,0.0,0.0,0.0,0.0,0.0,0.0,-3.608838150784521e-05,-0.0002866022559599868,-0.03282177949473351,0.0,0.0,0.0,0.0,0.0,0.0,0.0,0.0,0.0,-0.007707924048124686,-0.005647720504557854,-0.0008700835867928012,0.0,0.0,0.0,0.0,0.0,0.0,0.0,0.0,0.0
4.473,119,4,473000000,base_footprint,-0.003586500723533604,0.0014335476592462018,0.9279681351675964,0.37263953368804364,0.0,0.0,0.0,0.0,0.0,0.0,0.0,0.0,0.0,4.611605625730757e-05,-0.0002748408307341299,-0.03338889827915683,0.0,0.0,0.0,0.0,0.0,0.0,0.0,0.0,0.0,-0.007111351119177935,-0.006094601291575203,-0.0001786779441253325,0.0,0.0,0.0,0.0,0.0,0.0,0.0,0.0,0.0
4.507,120,4,507000000,base_footprint,-0.0035894966914491637,0.0014348275291452463,0.9278096152356727,0.37303401273837844,0.0,0.0,0.0,0.0,0.0,0.0,0.0,0.0,0.0,-0.0009232058757797298,-0.00013812589458901366,-0.007282903063002207,0.0,0.0,0.0,0.0,0.0,0.0,0.0,0.0,0.0,-0.029944745417897267,0.5814964762925036,-0.002296293810447405,0.0,0.0,0.0,0.0,0.0,0.0,0.0,0.0,0.0
4.541,121,4,541000000,base_footprint,-0.0035841081187184096,0.001434743472734826,0.9277571791385802,0.37316445736027043,0.0,0.0,0.0,0.0,0.0,0.0,0.0,0.0,0.0,0.00040882567295342457,-0.00020103587791017857,-0.031200078161812677,0.0,0.0,0.0,0.0,0.0,0.0,0.0,0.0,0.0,0.006108261888857304,-0.1708552168041723,-0.00026490951843940346,0.0,0.0,0.0,0.0,0.0,0.0,0.0,0.0,0.0
4.575,122,4,575000000,base_footprint,-0.003593034793416911,0.0014416200616238152,0.9275554709848043,0.3736654386998203,0.0,0.0,0.0,0.0,0.0,0.0,0.0,0.0,0.0,0.0002825898976801992,-0.0002455792604526784,-0.03496012872363992,0.0,0.0,0.0,0.0,0.0,0.0,0.0,0.0,0.0,-0.004471479874441901,-0.0842404466003104,5.096532696489837e-05,0.0,0.0,0.0,0.0,0.0,0.0,0.0,0.0,0.0
4.609,123,4,609000000,base_footprint,-0.003586523971385732,0.0014419542999143894,0.9271902009497331,0.37457093971154953,0.0,0.0,0.0,0.0,0.0,0.0,0.0,0.0,0.0,0.0014862725990216156,0.0004600104525042904,-0.08253857824978675,0.0,0.0,0.0,0.0,0.0,0.0,0.0,0.0,0.0,0.00024833983417350824,-0.293378785563912,-0.00026306872051799345,0.0,0.0,0.0,0.0,0.0,0.0,0.0,0.0,0.0
4.643,124,4,643000000,base_footprint,-0.0035950477195730193,0.001448085252131149,0.9268176025574826,0.37549182450567004,0.0,0.0,0.0,0.0,0.0,0.0,0.0,0.0,0.0,0.0005479087457974744,-0.0006443454819942693,-0.05293175899326119,0.0,0.0,0.0,0.0,0.0,0.0,0.0,0.0,0.0,-0.016185293945670014,-0.052895506449799366,0.0016472933820362921,0.0,0.0,0.0,0.0,0.0,0.0,0.0,0.0,0.0
4.677,125,4,677000000,base_footprint,-0.0035940441511269046,0.0014475881060760061,0.9264354997783781,0.37643359585151515,0.0,0.0,0.0,0.0,0.0,0.0,0.0,0.0,0.0,0.00031565041870151595,-0.00030950104560757355,-0.06997941237946198,0.0,0.0,0.0,0.0,0.0,0.0,0.0,0.0,0.0,-0.012369102366253906,0.046590337483929274,0.00018414649143906804,0.0,0.0,0.0,0.0,0.0,0.0,0.0,0.0,0.0
4.711,126,4,711000000,base_footprint,-0.003584293223328253,0.0014539008459626922,0.925946155920677,0.377635744269714,0.0,0.0,0.0,0.0,0.0,0.0,0.0,0.0,0.0,0.0019617921563654063,-0.0005911607042330089,-0.08361979071103134,0.0,0.0,0.0,0.0,0.0,0.0,0.0,0.0,0.0,-0.010642963373021744,0.1478182682199311,-0.0037236481791792443,0.0,0.0,0.0,0.0,0.0,0.0,0.0,0.0,0.0
4.745,127,4,745000000,base_footprint,-0.0035849468749234725,0.0014605107301588352,0.9255488555482647,0.3786084138758786,0.0,0.0,0.0,0.0,0.0,0.0,0.0,0.0,0.0,0.0004245922867654639,-0.0006632874325599723,-0.04087572148032734,0.0,0.0,0.0,0.0,0.0,0.0,0.0,0.0,0.0,-0.021430167091161658,0.06702589742505642,0.0025202748523887298,0.0,0.0,0.0,0.0,0.0,0.0,0.0,0.0,0.0
4.779,128,4,779000000,base_footprint,-0.003584817706273243,0.0014600831174966635,0.9255216828793654,0.3786748364487009,0.0,0.0,0.0,0.0,0.0,0.0,0.0,0.0,0.0,0.00035747840965435807,0.000740240670282966,0.017521995143690343,0.0,0.0,0.0,0.0,0.0,0.0,0.0,0.0,0.0,-0.007836730345613226,0.15223408918684217,-0.0023856831592433472,0.0,0.0,0.0,0.0,0.0,0.0,0.0,0.0,0.0
4.812,129,4,813000000,base_footprint,-0.0035787437999441024,0.0014497217554122475,0.9257344795024326,0.3781544186704769,0.0,0.0,0.0,0.0,0.0,0.0,0.0,0.0,0.0,0.001096514973241446,0.0009150727414788854,0.06469962455054266,0.0,0.0,0.0,0.0,0.0,0.0,0.0,0.0,0.0,0.013142224171960482,-0.3267465957730153,-0.0008245394552045695,0.0,0.0,0.0,0.0,0.0,0.0,0.0,0.0,0.0
4.847,130,4,847000000,base_footprint,-0.0035844944601640836,0.0014492236432634348,0.926188382223584,0.3770412865779515,0.0,0.0,0.0,0.0,0.0,0.0,0.0,0.0,0.0,-0.0006929519098243773,0.0004417298729170562,0.07149068306332976,0.0,0.0,0.0,0.0,0.0,0.0,0.0,0.0,0.0,0.018729072651256826,-0.02362717032863679,0.004903002250722217,0.0,0.0,0.0,0.0,0.0,0.0,0.0,0.0,0.0
4.881,131,4,881000000,base_footprint,-0.003583679368314285,0.0014444359831556279,0.9266456506464147,0.3759160930114043,0.0,0.0,0.0,0.0,0.0,0.0,0.0,0.0,0.0,-0.0007197908602383509,0.00025394244402452456,0.07136971780403674,0.0,0.0,0.0,0.0,0.0,0.0,0.0,0.0,0.0,0.015483717623544828,-0.0045026252883891785,0.0003543208468757506,0.0,0.0,0.0,0.0,0.0,0.0,0.0,0.0,0.0
4.915,132,4,915000000,base_footprint,-0.0035824993358402986,0.0014428096591632274,0.9268814815340533,0.37533425528192155,0.0,0.0,0.0,0.0,0.0,0.0,0.0,0.0,0.0,-0.0005082153904002718,4.1658900635265503e-05,0.030705135032637054,0.0,0.0,0.0,0.0,0.0,0.0,0.0,0.0,0.0,0.008983661224436744,-0.016236555232987677,8.993502501849361e-05,0.0,0.0,0.0,0.0,0.0,0.0,0.0,0.0,0.0
4.949,133,4,949000000,base_footprint,-0.0035826267134812097,0.0014417878624828472,0.9270753531564259,0.3748551394918841,0.0,0.0,0.0,0.0,0.0,0.0,0.0,0.0,0.0,-0.00033123084619548647,6.24273858458987e-05,0.030193542650763194,0.0,0.0,0.0,0.0,0.0,0.0,0.0,0.0,0.0,0.0069699154978651165,-0.005494364385027482,-0.0002221287794242481,0.0,0.0,0.0,0.0,0.0,0.0,0.0,0.0,0.0
4.9830000000000005,134,4,983000000,base_footprint,-0.0035843780494299684,0.0014412369847931726,0.9272656324827176,0.37438419021958985,0.0,0.0,0.0,0.0,0.0,0.0,0.0,0.0,0.0,-0.00023683152169195825,6.319439602571182e-05,0.029652735224458326,0.0,0.0,0.0,0.0,0.0,0.0,0.0,0.0,0.0,0.006670818133095177,-0.005466045094403083,-0.00012835614087199526,0.0,0.0,0.0,0.0,0.0,0.0,0.0,0.0,0.0
5.017,135,5,17000000,base_footprint,-0.0035867533008404097,0.0014349878552059655,0.927484121973848,0.37384258652140584,0.0,0.0,0.0,0.0,0.0,0.0,0.0,0.0,0.0,-0.0004491509323113631,0.00017261869100495202,-0.010704572026872746,0.0,0.0,0.0,0.0,0.0,0.0,0.0,0.0,0.0,-0.017399784381571554,0.6418996539861583,-0.0026744914630710045,0.0,0.0,0.0,0.0,0.0,0.0,0.0,0.0,0.0
5.051,136,5,51000000,base_footprint,-0.0035895293208006193,0.0014402440260810375,0.9274482579711842,0.37393150410551934,0.0,0.0,0.0,0.0,0.0,0.0,0.0,0.0,0.0,0.001677724370154782,-0.000638863102153737,0.023081879849740052,0.0,0.0,0.0,0.0,0.0,0.0,0.0,0.0,0.0,0.009932598025487224,-0.3151913550305945,-0.0017836890527826012,0.0,0.0,0.0,0.0,0.0,0.0,0.0,0.0,0.0
5.085,137,5,85000000,base_footprint,-0.0035954379972705105,0.0014421489602675442,0.9275850365206137,0.3735920141746021,0.0,0.0,0.0,0.0,0.0,0.0,0.0,0.0,0.0,-0.00010078759848214749,9.400101315079936e-05,0.020428152857066496,0.0,0.0,0.0,0.0,0.0,0.0,0.0,0.0,0.0,0.004075217118695874,0.0010281543232874724,0.0022163706696999227,0.0,0.0,0.0,0.0,0.0,0.0,0.0,0.0,0.0
5.119,138,5,119000000,base_footprint,-0.003594286807045989,0.0014375754734951794,0.9276140170624624,0.3735200795517539,0.0,0.0,0.0,0.0,0.0,0.0,0.0,0.0,0.0,-0.00031603629087676745,0.00023009913122625452,0.01607335261703906,0.0,0.0,0.0,0.0,0.0,0.0,0.0,0.0,0.0,0.0069624448185412816,-0.17946221555541092,0.001561524931122209,0.0,0.0,0.0,0.0,0.0,0.0,0.0,0.0,0.0
5.153,139,5,153000000,base_footprint,-0.003596074966009588,0.0014306831745414224,0.927719946937895,0.3732569107786784,0.0,0.0,0.0,0.0,0.0,0.0,0.0,0.0,0.0,5.6641029303695804e-05,8.347299066720698e-05,0.009521472070207019,0.0,0.0,0.0,0.0,0.0,0.0,0.0,0.0,0.0,0.0075990614961792486,0.021414548983009634,-0.0010095161493341568,0.0,0.0,0.0,0.0,0.0,0.0,0.0,0.0,0.0
5.187,140,5,187000000,base_footprint,-0.003593330433737552,0.001422066460204365,0.927808771130128,0.37303612414534143,0.0,0.0,0.0,0.0,0.0,0.0,0.0,0.0,0.0,0.0034648413871114117,-0.0015097687284138617,0.02016517512292746,0.0,0.0,0.0,0.0,0.0,0.0,0.0,0.0,0.0,0.0038323392956909398,-0.0030956562309918958,-0.0050261823482960636,0.0,0.0,0.0,0.0,0.0,0.0,0.0,0.0,0.0
5.221,141,5,221000000,base_footprint,-0.0035911199499429284,0.001438071535486135,0.9280012800951732,0.37255692175758043,0.0,0.0,0.0,0.0,0.0,0.0,0.0,0.0,0.0,0.000668679874363427,0.00038908798635086056,0.03869289282505662,0.0,0.0,0.0,0.0,0.0,0.0,0.0,0.0,0.0,0.007080731740801271,0.0019244893811951533,0.003649811849296103,0.0,0.0,0.0,0.0,0.0,0.0,0.0,0.0,0.0
5.255,142,5,255000000,base_footprint,-0.0035861273791988205,0.001436691885401612,0.9281974476947479,0.37206796919353663,0.0,0.0,0.0,0.0,0.0,0.0,0.0,0.0,0.0,0.0002547673361333069,0.00032073800412812193,0.017079652671952356,0.0,0.0,0.0,0.0,0.0,0.0,0.0,0.0,0.0,0.007906709505128093,-0.05632886232126157,0.002381447259729329,0.0,0.0,0.0,0.0,0.0,0.0,0.0,0.0,0.0
5.289,143,5,289000000,base_footprint,-0.0035983484237385745,0.001428975905213142,0.9281722453220425,0.37213074709075294,0.0,0.0,0.0,0.0,0.0,0.0,0.0,0.0,0.0,-0.00028802546921318043,-0.0011597538746051825,0.010817876450378263,0.0,0.0,0.0,0.0,0.0,0.0,0.0,0.0,0.0,0.008236343839470125,-0.0995324009280457,0.0005335844894548396,0.0,0.0,0.0,0.0,0.0,0.0,0.0,0.0,0.0
5.323,144,5,323000000,base_footprint,-0.0035929018133756298,0.0014294139366463688,0.9282982331496417,0.37181640383879094,0.0,0.0,0.0,0.0,0.0,0.0,0.0,0.0,0.0,-0.00033373480093024826,0.00016396043400712076,0.019242045980195133,0.0,0.0,0.0,0.0,0.0,0.0,0.0,0.0,0.0,-0.002051926794899007,0.008163372606939164,0.00042455945767899163,0.0,0.0,0.0,0.0,0.0,0.0,0.0,0.0,0.0
5.357,145,5,357000000,base_footprint,-0.003591326005876654,0.0014277261089480472,0.9284195419665339,0.3715134157339798,0.0,0.0,0.0,0.0,0.0,0.0,0.0,0.0,0.0,-0.0005277029956789279,-7.134919641069742e-05,0.01922138116590213,0.0,0.0,0.0,0.0,0.0,0.0,0.0,0.0,0.0,0.004104948505136222,-0.004402534109581071,0.0005394630972387883,0.0,0.0,0.0,0.0,0.0,0.0,0.0,0.0,0.0
5.391,146,5,391000000,base_footprint,-0.0035865089577476095,0.0014273734489327068,0.9284949990118735,0.371324839417557,0.0,0.0,0.0,0.0,0.0,0.0,0.0,0.0,0.0,7.217549156559916e-05,0.0014258582410295964,-0.034328729307108605,0.0,0.0,0.0,0.0,0.0,0.0,0.0,0.0,0.0,0.0015491519882653007,-0.013069289041416573,-0.0018612328853987198,0.0,0.0,0.0,0.0,0.0,0.0,0.0,0.0,0.0
5.425,147,5,425000000,base_footprint,-0.003587456889541092,0.00143078400684985,0.9282647142505652,0.3719001254201294,0.0,0.0,0.0,0.0,0.0,0.0,0.0,0.0,0.0,3.1570656639853403e-05,-0.00029860504902210904,-0.03640647539983796,0.0,0.0,0.0,0.0,0.0,0.0,0.0,0.0,0.0,-0.005141118072720051,-0.013080622632165846,0.0015260172395720536,0.0,0.0,0.0,0.0,0.0,0.0,0.0,0.0,0.0
5.459,148,5,459000000,base_footprint,-0.0035873876156682608,0.0014342456971253195,0.9280320453640953,0.3724803301742379,0.0,0.0,0.0,0.0,0.0,0.0,0.0,0.0,0.0,0.0001249228392524576,-0.0002938276599138927,-0.03703138758332355,0.0,0.0,0.0,0.0,0.0,0.0,0.0,0.0,0.0,-0.00794912055978485,-0.006068798101035157,-0.00020618794120236733,0.0,0.0,0.0,0.0,0.0,0.0,0.0,0.0,0.0
5.493,149,5,493000000,base_footprint,-0.0035891368381394386,0.001436075426820645,0.9278290318792206,0.37298571472134645,0.0,0.0,0.0,0.0,0.0,0.0,0.0,0.0,0.0,-0.0003837800420824633,-0.0008732859331652407,-0.00975747326321425,0.0,0.0,0.0,0.0,0.0,0.0,0.0,0.0,0.0,-0.006913450756545503,0.0005196391378664124,0.0002083490295581134,0.0,0.0,0.0,0.0,0.0,0.0,0.0,0.0,0.0
5.527,150,5,527000000,base_footprint,-0.0035928549388064587,0.0014403327669337063,0.9277555308416925,0.3731684496679197,0.0,0.0,0.0,0.0,0.0,0.0,0.0,0.0,0.0,0.0001282413154376173,-0.000141736995894153,-0.01237555773794442,0.0,0.0,0.0,0.0,0.0,0.0,0.0,0.0,0.0,-0.0033891083012070953,-0.0034470188157999775,-0.0006916694355822759,0.0,0.0,0.0,0.0,0.0,0.0,0.0,0.0,0.0
5.561,151,5,561000000,base_footprint,-0.0035957844581632767,0.0014417315402502158,0.9276705254823419,0.3733796832925058,0.0,0.0,0.0,0.0,0.0,0.0,0.0,0.0,0.0,8.736999547172294e-05,-7.098762719022988e-05,-0.01440449232060273,0.0,0.0,0.0,0.0,0.0,0.0,0.0,0.0,0.0,-0.0033069183574231985,0.00019296865643053229,-6.766395907143873e-05,0.0,0.0,0.0,0.0,0.0,0.0,0.0,0.0,0.0
5.595,152,5,595000000,base_footprint,-0.0035924437926330346,0.001444142021985247,0.927523496789656,0.373744794886171,0.0,0.0,0.0,0.0,0.0,0.0,0.0,0.0,0.0,0.0010593583621713572,-0.0010803581653351364,-0.057823102387753754,0.0,0.0,0.0,0.0,0.0,0.0,0.0,0.0,0.0,-0.001627427968552567,-0.025082049043110732,-0.0007549594702649014,0.0,0.0,0.0,0.0,0.0,0.0,0.0,0.0,0.0
5.629,153,5,629000000,base_footprint,-0.003598131678600781,0.0014450336154492394,0.9270977922515962,0.3747994782927132,0.0,0.0,0.0,0.0,0.0,0.0,0.0,0.0,0.0,0.0003141239218327924,-0.00033513170961328964,-0.07627059113316784,0.0,0.0,0.0,0.0,0.0,0.0,0.0,0.0,0.0,-0.021480099609625096,0.0650941083028968,0.0005703281597894751,0.0,0.0,0.0,0.0,0.0,0.0,0.0,0.0,0.0
5.663,154,5,663000000,base_footprint,-0.0035923697813788633,0.0014457657474053873,0.9266311585964131,0.37595172636792995,0.0,0.0,0.0,0.0,0.0,0.0,0.0,0.0,0.0,0.00020780947966862707,-0.0007155452854670525,-0.06267685486264146,0.0,0.0,0.0,0.0,0.0,0.0,0.0,0.0,0.0,-0.01195062133162573,-0.0006415467269634814,0.0006644109484619172,0.0,0.0,0.0,0.0,0.0,0.0,0.0,0.0,0.0
5.697,155,5,697000000,base_footprint,-0.0035905909313379684,0.0014546476628344532,0.9263732547284246,0.3765867557161381,0.0,0.0,0.0,0.0,0.0,0.0,0.0,0.0,0.0,0.0008989896754605876,-0.0002429890865635263,-0.014857932785028326,0.0,0.0,0.0,0.0,0.0,0.0,0.0,0.0,0.0,-0.011965380290069556,0.012251845228538656,-0.002107843558726245,0.0,0.0,0.0,0.0,0.0,0.0,0.0,0.0,0.0
5.731,156,5,731000000,base_footprint,-0.0035933556195269405,0.0014521345304076678,0.926217652436671,0.37696928179282635,0.0,0.0,0.0,0.0,0.0,0.0,0.0,0.0,0.0,-0.0002358198106818852,-0.00037840905445106135,-0.02824124968351895,0.0,0.0,0.0,0.0,0.0,0.0,0.0,0.0,0.0,0.0002655529907625645,-0.027078369782036624,0.0023312570613631084,0.0,0.0,0.0,0.0,0.0,0.0,0.0,0.0,0.0
5.765,157,5,765000000,base_footprint,-0.00358752536149854,0.00145164077805788,0.9260533120548499,0.377372873472743,0.0,0.0,0.0,0.0,0.0,0.0,0.0,0.0,0.0,-0.00023907584922192422,-5.8078371383142625e-05,-0.025299413172190116,0.0,0.0,0.0,0.0,0.0,0.0,0.0,0.0,0.0,-0.008904723527108752,0.004928547911787472,-0.0002838395773486782,0.0,0.0,0.0,0.0,0.0,0.0,0.0,0.0,0.0
5.799,158,5,799000000,base_footprint,-0.0035855237700988004,0.0014538525652237513,0.9258578428401579,0.3778522001833284,0.0,0.0,0.0,0.0,0.0,0.0,0.0,0.0,0.0,-0.000429941737430156,-0.000614000783065572,-0.04828678779299853,0.0,0.0,0.0,0.0,0.0,0.0,0.0,0.0,0.0,-0.013798335879873877,0.3413936466472881,-0.0008561897435975203,0.0,0.0,0.0,0.0,0.0,0.0,0.0,0.0,0.0
5.833,159,5,833000000,base_footprint,-0.0035693634394421358,0.0014547063378564096,0.9254419616359237,0.37886979177226754,0.0,0.0,0.0,0.0,0.0,0.0,0.0,0.0,0.0,-0.0021742235599948837,-0.000372760016002875,-0.062378956464508126,0.0,0.0,0.0,0.0,0.0,0.0,0.0,0.0,0.0,-0.015803939625022786,0.21137840247648373,-1.7314073431876672e-05,0.0,0.0,0.0,0.0,0.0,0.0,0.0,0.0,0.0
5.867,160,5,867000000,base_footprint,-0.0035765594487621706,0.0014584842138057532,0.9251808710945953,0.379506833676224,0.0,0.0,0.0,0.0,0.0,0.0,0.0,0.0,0.0,-0.00010472504575386392,-0.00027978657314556163,-0.032228391931455366,0.0,0.0,0.0,0.0,0.0,0.0,0.0,0.0,0.0,-0.006103282755273998,-0.22934542006603392,-0.0010626552654354742,0.0,0.0,0.0,0.0,0.0,0.0,0.0,0.0,0.0
5.901,161,5,901000000,base_footprint,-0.003573367769397062,0.0014600736159086072,0.9249904661022029,0.37997070524956267,0.0,0.0,0.0,0.0,0.0,0.0,0.0,0.0,0.0,-0.0003605017511323958,-0.000186011065687663,-0.001883089369836278,0.0,0.0,0.0,0.0,0.0,0.0,0.0,0.0,0.0,-0.0009191818995028939,-0.28911710089822007,0.0015320328056384297,0.0,0.0,0.0,0.0,0.0,0.0,0.0,0.0,0.0
5.9350000000000005,162,5,935000000,base_footprint,-0.003575899554611679,0.001461073381835272,0.9250950125922542,0.3797160727226139,0.0,0.0,0.0,0.0,0.0,0.0,0.0,0.0,0.0,-0.00017390076465035822,2.6578786055879677e-06,0.0168479217495208,0.0,0.0,0.0,0.0,0.0,0.0,0.0,0.0,0.0,0.001764471028383098,-0.049403204910429606,-9.548139468425265e-05,0.0,0.0,0.0,0.0,0.0,0.0,0.0,0.0,0.0
5.969,163,5,969000000,base_footprint,-0.00357872168910149,0.0014617754740678236,0.9252016144241261,0.37945622755533504,0.0,0.0,0.0,0.0,0.0,0.0,0.0,0.0,0.0,-7.289667051766188e-05,-3.712904409725646e-06,0.016262491902015966,0.0,0.0,0.0,0.0,0.0,0.0,0.0,0.0,0.0,0.003528378280272075,-0.005426712442662074,-0.00017250125032303783,0.0,0.0,0.0,0.0,0.0,0.0,0.0,0.0,0.0
6.003,164,6,3000000,base_footprint,-0.003577268067582694,0.0014572823946073432,0.9253650884720251,0.3790574264123529,0.0,0.0,0.0,0.0,0.0,0.0,0.0,0.0,0.0,-0.0012917575711079402,0.00010306502278594864,0.04975430515667227,0.0,0.0,0.0,0.0,0.0,0.0,0.0,0.0,0.0,-5.084436976762752e-05,0.38582597632836135,-0.000480819179055821,0.0,0.0,0.0,0.0,0.0,0.0,0.0,0.0,0.0
6.037,165,6,37000000,base_footprint,-0.003581852888368987,0.0014571552489529443,0.9254998521577514,0.3787282280005635,0.0,0.0,0.0,0.0,0.0,0.0,0.0,0.0,0.0,0.001549496782936038,0.0007972589943325123,0.008059205534488117,0.0,0.0,0.0,0.0,0.0,0.0,0.0,0.0,0.0,0.006146528218491363,-0.019147613993270925,-0.004150879188647303,0.0,0.0,0.0,0.0,0.0,0.0,0.0,0.0,0.0
6.071,166,6,71000000,base_footprint,-0.003590057723415492,0.0014595349007150338,0.925641275772122,0.3783823593012427,0.0,0.0,0.0,0.0,0.0,0.0,0.0,0.0,0.0,-0.0003134751418575642,0.00021097732080627537,0.02115914759787021,0.0,0.0,0.0,0.0,0.0,0.0,0.0,0.0,0.0,0.0006111602715974784,-0.027942852656746148,0.0028988730297094785,0.0,0.0,0.0,0.0,0.0,0.0,0.0,0.0,0.0
6.105,167,6,105000000,base_footprint,-0.003580500810136744,0.0014520783006010058,0.9256465023590853,0.37836969243446217,0.0,0.0,0.0,0.0,0.0,0.0,0.0,0.0,0.0,-0.0007169581058911846,-0.0007463014211588518,-0.04432751496735222,0.0,0.0,0.0,0.0,0.0,0.0,0.0,0.0,0.0,0.011704116424756723,-0.0987799702973069,0.0027088862988701723,0.0,0.0,0.0,0.0,0.0,0.0,0.0,0.0,0.0
6.139,168,6,139000000,base_footprint,-0.0035827207807871426,0.0014439071117269481,0.9253033476129975,0.37920811454957026,0.0,0.0,0.0,0.0,0.0,0.0,0.0,0.0,0.0,0.0010605184624258095,-0.0006136641229543111,-0.04217700062548058,0.0,0.0,0.0,0.0,0.0,0.0,0.0,0.0,0.0,-0.016808568716670445,0.018597421357007395,-0.0027298204669203604,0.0,0.0,0.0,0.0,0.0,0.0,0.0,0.0,0.0
6.173,169,6,173000000,base_footprint,-0.003576689928956268,0.0014548923445592379,0.9252116555157235,0.37943178975314146,0.0,0.0,0.0,0.0,0.0,0.0,0.0,0.0,0.0,-0.0002116884545863199,8.505846024031516e-05,0.02670243270382604,0.0,0.0,0.0,0.0,0.0,0.0,0.0,0.0,0.0,-0.003110802575277972,-0.04775571460050424,0.0006366890572436721,0.0,0.0,0.0,0.0,0.0,0.0,0.0,0.0,0.0
6.207,170,6,207000000,base_footprint,-0.003577667527322155,0.001461121518473803,0.9256067920907559,0.3784668173756219,0.0,0.0,0.0,0.0,0.0,0.0,0.0,0.0,0.0,-0.0001994898554006162,0.0010511870934925267,0.06166489998458701,0.0,0.0,0.0,0.0,0.0,0.0,0.0,0.0,0.0,0.01571297320888417,-0.08897294712905562,-0.0010519131763458138,0.0,0.0,0.0,0.0,0.0,0.0,0.0,0.0,0.0
6.241,171,6,241000000,base_footprint,-0.003588947111936123,0.0014547604105595874,0.9258749680695382,0.3778101992178181,0.0,0.0,0.0,0.0,0.0,0.0,0.0,0.0,0.0,-0.000940556274815407,0.00013541769508878187,0.0295617508113496,0.0,0.0,0.0,0.0,0.0,0.0,0.0,0.0,0.0,0.011607303260373944,-0.09263204982779925,0.003518026817332835,0.0,0.0,0.0,0.0,0.0,0.0,0.0,0.0,0.0
6.275,172,6,275000000,base_footprint,-0.0035843298988475127,0.00145145463723777,0.9260773916236157,0.37731380915918333,0.0,0.0,0.0,0.0,0.0,0.0,0.0,0.0,0.0,-0.0004654441840783086,0.0002265687264538355,0.03165310069761353,0.0,0.0,0.0,0.0,0.0,0.0,0.0,0.0,0.0,0.004461086198782441,0.0027502529065642784,-0.0008688254438120714,0.0,0.0,0.0,0.0,0.0,0.0,0.0,0.0,0.0
6.309,173,6,309000000,base_footprint,-0.003588751062574326,0.0014530624982996335,0.9261956136443161,0.37702346709616835,0.0,0.0,0.0,0.0,0.0,0.0,0.0,0.0,0.0,-0.001199153578182122,-9.990578382186387e-05,-0.0023896726626917173,0.0,0.0,0.0,0.0,0.0,0.0,0.0,0.0,0.0,-0.010596806953860366,0.6220342734943658,-0.0022703903218347365,0.0,0.0,0.0,0.0,0.0,0.0,0.0,0.0,0.0
6.343,174,6,343000000,base_footprint,-0.0035740810603324753,0.001448859778362496,0.9261688692487199,0.37708931618976477,0.0,0.0,0.0,0.0,0.0,0.0,0.0,0.0,0.0,0.001656455373619822,0.0014888653827083026,0.010679553649034043,0.0,0.0,0.0,0.0,0.0,0.0,0.0,0.0,0.0,0.0038735501479170847,-0.2317422692061793,-0.003702675747562393,0.0,0.0,0.0,0.0,0.0,0.0,0.0,0.0,0.0
6.377,175,6,377000000,base_footprint,-0.00357940905799783,0.001449446757556487,0.9262939520795455,0.3767819014705313,0.0,0.0,0.0,0.0,0.0,0.0,0.0,0.0,0.0,-0.0005365245923264864,3.139614860537732e-05,0.012386205609502253,0.0,0.0,0.0,0.0,0.0,0.0,0.0,0.0,0.0,-0.0020052570702954603,0.26703421310123665,0.0025749854264486846,0.0,0.0,0.0,0.0,0.0,0.0,0.0,0.0,0.0
6.411,176,6,411000000,base_footprint,-0.003579989089694378,0.0014494536983064386,0.9263807895732274,0.3765683410375572,0.0,0.0,0.0,0.0,0.0,0.0,0.0,0.0,0.0,-0.00020805970951466617,-1.2612359756591915e-05,0.013923627939146671,0.0,0.0,0.0,0.0,0.0,0.0,0.0,0.0,0.0,0.002103587087137238,0.00010453883246672798,-0.00034672344529733656,0.0,0.0,0.0,0.0,0.0,0.0,0.0,0.0,0.0
6.445,177,6,445000000,base_footprint,-0.003581692231260487,0.001449863171552784,0.9264678350482689,0.3763541151608658,0.0,0.0,0.0,0.0,0.0,0.0,0.0,0.0,0.0,-0.00013813954112047768,-1.663379463759661e-05,0.013374794610901792,0.0,0.0,0.0,0.0,0.0,0.0,0.0,0.0,0.0,0.0027048160882795964,-0.005003833841101023,-0.00011262423233614213,0.0,0.0,0.0,0.0,0.0,0.0,0.0,0.0,0.0
6.479,178,6,479000000,base_footprint,-0.0035847882798412433,0.0014508280779523982,0.9265510406690951,0.37614919038314293,0.0,0.0,0.0,0.0,0.0,0.0,0.0,0.0,0.0,-3.820835855920793e-05,-2.3762202059691198e-05,0.012716963080164446,0.0,0.0,0.0,0.0,0.0,0.0,0.0,0.0,0.0,0.002561961300401432,-0.004595410178459046,-0.0001735801732687991,0.0,0.0,0.0,0.0,0.0,0.0,0.0,0.0,0.0
6.513,179,6,513000000,base_footprint,-0.003580818878203569,0.001448627753323838,0.9264491091626065,0.3764002222974991,0.0,0.0,0.0,0.0,0.0,0.0,0.0,0.0,0.0,0.00034864409042667874,-0.00036940640360359745,-0.05630147867265228,0.0,0.0,0.0,0.0,0.0,0.0,0.0,0.0,0.0,0.011116132052512995,-0.4799609557079062,0.0029735787199211667,0.0,0.0,0.0,0.0,0.0,0.0,0.0,0.0,0.0
6.546,180,6,547000000,base_footprint,-0.0035878521113576946,0.0014505093781370577,0.9262977332512807,0.37677252117598814,0.0,0.0,0.0,0.0,0.0,0.0,0.0,0.0,0.0,-0.00012447744694996506,0.00019559299215013865,0.009138026197085591,0.0,0.0,0.0,0.0,0.0,0.0,0.0,0.0,0.0,-0.002861281530246222,-0.17916305839718202,0.0007208510468811613,0.0,0.0,0.0,0.0,0.0,0.0,0.0,0.0,0.0
6.581,181,6,581000000,base_footprint,-0.0035923757891147172,0.0014523248238249135,0.9264165598525415,0.37648020295863976,0.0,0.0,0.0,0.0,0.0,0.0,0.0,0.0,0.0,-0.0004500137379728691,0.0002961244652823817,0.016789061852107632,0.0,0.0,0.0,0.0,0.0,0.0,0.0,0.0,0.0,0.00409272937206507,-0.018875324824420198,0.0003866637262513802,0.0,0.0,0.0,0.0,0.0,0.0,0.0,0.0,0.0
6.615,182,6,615000000,base_footprint,-0.0035943124360711108,0.0014474542895532472,0.9263900570602486,0.3765454128974368,0.0,0.0,0.0,0.0,0.0,0.0,0.0,0.0,0.0,6.740661146832263e-05,-0.00023001263791111153,-0.0180306614326429,0.0,0.0,0.0,0.0,0.0,0.0,0.0,0.0,0.0,-0.001993627553118176,0.03504537678832765,-0.0008170541030869881,0.0,0.0,0.0,0.0,0.0,0.0,0.0,0.0,0.0
6.649,183,6,649000000,base_footprint,-0.003591819106463309,0.0014530851629081167,0.9263261101402126,0.37670270114709614,0.0,0.0,0.0,0.0,0.0,0.0,0.0,0.0,0.0,-0.0004484874068662514,-0.00037795271816169973,0.003261990080937446,0.0,0.0,0.0,0.0,0.0,0.0,0.0,0.0,0.0,0.003535010974152302,-0.014231882606021793,0.0013106853725954745,0.0,0.0,0.0,0.0,0.0,0.0,0.0,0.0,0.0
6.683,184,6,683000000,base_footprint,-0.00358941971819655,0.001451793601003964,0.9263913985106481,0.3765421425642982,0.0,0.0,0.0,0.0,0.0,0.0,0.0,0.0,0.0,9.327666204018754e-05,0.0006422603946797949,0.01694152011236336,0.0,0.0,0.0,0.0,0.0,0.0,0.0,0.0,0.0,-0.0034020592912091495,0.05109566160935886,-0.002245766432833276,0.0,0.0,0.0,0.0,0.0,0.0,0.0,0.0,0.0
6.7170000000000005,185,6,717000000,base_footprint,-0.0035866818222999035,0.0014511719477788396,0.9263847190506612,0.37655860383599143,0.0,0.0,0.0,0.0,0.0,0.0,0.0,0.0,0.0,-0.00174205496832458,-0.00021039305068091543,0.026893524031002775,0.0,0.0,0.0,0.0,0.0,0.0,0.0,0.0,0.0,-0.006820279252874373,0.30196699669920085,0.0015805271457532805,0.0,0.0,0.0,0.0,0.0,0.0,0.0,0.0,0.0
6.751,186,6,751000000,base_footprint,-0.0035885688735597483,0.0014475543363193224,0.9264168841032555,0.3764794597428901,0.0,0.0,0.0,0.0,0.0,0.0,0.0,0.0,0.0,-0.00024914433891007754,0.00010376312019811585,0.002900952070110679,0.0,0.0,0.0,0.0,0.0,0.0,0.0,0.0,0.0,0.0005494210865804624,-0.0074822499155909545,-0.0017970637944272356,0.0,0.0,0.0,0.0,0.0,0.0,0.0,0.0,0.0
6.785,187,6,785000000,base_footprint,-0.0035860478814900066,0.0014463003023876693,0.9264342931533255,0.3764366466558818,0.0,0.0,0.0,0.0,0.0,0.0,0.0,0.0,0.0,-0.0002717826996796194,8.002766192769032e-05,0.002890844594948714,0.0,0.0,0.0,0.0,0.0,0.0,0.0,0.0,0.0,0.0013368615091294649,-0.004715147197116736,6.891801869362257e-05,0.0,0.0,0.0,0.0,0.0,0.0,0.0,0.0,0.0
6.819,188,6,819000000,base_footprint,-0.003583442146816742,0.001445059625746955,0.9266008729866978,0.3760264524276823,0.0,0.0,0.0,0.0,0.0,0.0,0.0,0.0,0.0,-0.00023637297260758905,-0.0008878635972909985,0.033810360786834956,0.0,0.0,0.0,0.0,0.0,0.0,0.0,0.0,0.0,0.015091258454580161,-0.3490750634540706,0.002623552917634249,0.0,0.0,0.0,0.0,0.0,0.0,0.0,0.0,0.0
6.853,189,6,853000000,base_footprint,-0.0035821300678910485,0.0014439112516812127,0.9267476292368335,0.37566463124492144,0.0,0.0,0.0,0.0,0.0,0.0,0.0,0.0,0.0,-0.0003711980657940753,1.985140818746802e-06,0.022681447463360257,0.0,0.0,0.0,0.0,0.0,0.0,0.0,0.0,0.0,0.00486171742524401,0.0036862565310862338,-0.0005062328188844182,0.0,0.0,0.0,0.0,0.0,0.0,0.0,0.0,0.0
6.8870000000000005,190,6,887000000,base_footprint,-0.0035820803103381186,0.0014435728866404548,0.9268896725014252,0.3753140282592327,0.0,0.0,0.0,0.0,0.0,0.0,0.0,0.0,0.0,-0.00035088641209264415,-5.1070678572459843e-05,0.01950177802949671,0.0,0.0,0.0,0.0,0.0,0.0,0.0,0.0,0.0,0.004895624792438049,-0.005969654633221074,-5.114807062435126e-05,0.0,0.0,0.0,0.0,0.0,0.0,0.0,0.0,0.0
6.921,191,6,921000000,base_footprint,-0.003583718345565864,0.001443996307954616,0.9270031675041841,0.37503359752786386,0.0,0.0,0.0,0.0,0.0,0.0,0.0,0.0,0.0,-0.0001596708720565658,-1.340705290125395e-05,0.017579694000648047,0.0,0.0,0.0,0.0,0.0,0.0,0.0,0.0,0.0,0.0042035601244157445,-0.006224972818266313,-0.00021471914861588285,0.0,0.0,0.0,0.0,0.0,0.0,0.0,0.0,0.0
6.955,192,6,955000000,base_footprint,-0.0035869770486778372,0.0014450949159572203,0.9271127158563417,0.3747626680898382,0.0,0.0,0.0,0.0,0.0,0.0,0.0,0.0,0.0,-3.703548254609339e-05,-2.281202195276999e-05,0.016870884285007454,0.0,0.0,0.0,0.0,0.0,0.0,0.0,0.0,0.0,0.003814513590191049,-0.005087337241317206,-0.0002081327578913048,0.0,0.0,0.0,0.0,0.0,0.0,0.0,0.0,0.0
6.989,193,6,989000000,base_footprint,-0.003589785889021583,0.0014434003454113582,0.9272216492472076,0.37449304826658947,0.0,0.0,0.0,0.0,0.0,0.0,0.0,0.0,0.0,-0.004264533067862415,0.0008445253200862445,0.026600252472519056,0.0,0.0,0.0,0.0,0.0,0.0,0.0,0.0,0.0,0.002674520884435684,0.0698896788721861,0.006150641257880647,0.0,0.0,0.0,0.0,0.0,0.0,0.0,0.0,0.0
7.023,194,7,23000000,base_footprint,-0.003593896058123692,0.001443919038789642,0.9274014392299256,0.37404754981578964,0.0,0.0,0.0,0.0,0.0,0.0,0.0,0.0,0.0,-0.000690999698102184,-0.0009239956877902235,-0.0001508257440194422,0.0,0.0,0.0,0.0,0.0,0.0,0.0,0.0,0.0,-0.00461708899086978,0.25931390191617576,-0.006310023330154767,0.0,0.0,0.0,0.0,0.0,0.0,0.0,0.0,0.0
7.057,195,7,57000000,base_footprint,-0.0035955395530475253,0.0014424279797965486,0.9273638030576621,0.3741408401595252,0.0,0.0,0.0,0.0,0.0,0.0,0.0,0.0,0.0,-0.00023204593049426763,0.0001959576386116683,-0.006128525477728223,0.0,0.0,0.0,0.0,0.0,0.0,0.0,0.0,0.0,-0.0022695614720514108,0.010967832672569972,-0.0014273888746662291,0.0,0.0,0.0,0.0,0.0,0.0,0.0,0.0,0.0
7.091,196,7,91000000,base_footprint,-0.0035912797757224626,0.0014314704975409097,0.9272684317006119,0.3743772284384761,0.0,0.0,0.0,0.0,0.0,0.0,0.0,0.0,0.0,-0.004694027944664491,0.0008301697234436109,-0.03742274737760924,0.0,0.0,0.0,0.0,0.0,0.0,0.0,0.0,0.0,-0.0018190550507468208,0.009135845313646243,0.009241599094146596,0.0,0.0,0.0,0.0,0.0,0.0,0.0,0.0,0.0
7.125,197,7,125000000,base_footprint,-0.0035857329125836973,0.001432856870369125,0.9269107278733112,0.3752620311116452,0.0,0.0,0.0,0.0,0.0,0.0,0.0,0.0,0.0,0.0007052829937722636,-4.9551242130013034e-05,-0.05166795358222641,0.0,0.0,0.0,0.0,0.0,0.0,0.0,0.0,0.0,-0.003968614938562945,-0.10073705667782876,-0.009842762944751995,0.0,0.0,0.0,0.0,0.0,0.0,0.0,0.0,0.0
7.159,198,7,159000000,base_footprint,-0.0035828488716111587,0.0014394393032403933,0.9268609398641957,0.37538498819547295,0.0,0.0,0.0,0.0,0.0,0.0,0.0,0.0,0.0,-0.00045257915585949213,0.00040679271105132405,0.04896049197551759,0.0,0.0,0.0,0.0,0.0,0.0,0.0,0.0,0.0,-0.005169964716151821,-0.07787424536339571,0.0013573565439552653,0.0,0.0,0.0,0.0,0.0,0.0,0.0,0.0,0.0
7.193,199,7,193000000,base_footprint,-0.003582726117785319,0.0014411949421416393,0.9273098230768018,0.3742747374001811,0.0,0.0,0.0,0.0,0.0,0.0,0.0,0.0,0.0,-0.005010700552821775,0.001289307866189018,0.03748780499695657,0.0,0.0,0.0,0.0,0.0,0.0,0.0,0.0,0.0,0.021039252384377434,-0.06623196956333365,0.004753019734932815,0.0,0.0,0.0,0.0,0.0,0.0,0.0,0.0,0.0
7.227,200,7,227000000,base_footprint,-0.0035924365061774997,0.0014385135241307813,0.9274535329974098,0.37391839913196623,0.0,0.0,0.0,0.0,0.0,0.0,0.0,0.0,0.0,-0.0008859668591877526,-0.00014570128723885898,0.01708945606111082,0.0,0.0,0.0,0.0,0.0,0.0,0.0,0.0,0.0,0.006596787994868177,-0.07267962083940153,-0.0026182086267905157,0.0,0.0,0.0,0.0,0.0,0.0,0.0,0.0,0.0
7.261,201,7,261000000,base_footprint,-0.003589537923053515,0.0014367177247225275,0.9275606239847538,0.3736526995656429,0.0,0.0,0.0,0.0,0.0,0.0,0.0,0.0,0.0,-0.0003626962169505743,0.00013709975208561816,0.016880267879778775,0.0,0.0,0.0,0.0,0.0,0.0,0.0,0.0,0.0,0.0021500317061986405,-0.004450698473273857,-0.0008524996405216285,0.0,0.0,0.0,0.0,0.0,0.0,0.0,0.0,0.0
7.295,202,7,295000000,base_footprint,-0.0035957670706005846,0.001439036353406391,0.9276555449637759,0.37341691114826,0.0,0.0,0.0,0.0,0.0,0.0,0.0,0.0,0.0,-0.005223735165024097,-0.0005430760237196929,0.005630391680781669,0.0,0.0,0.0,0.0,0.0,0.0,0.0,0.0,0.0,-0.006553657278857858,0.26229812427950283,-0.0005649319648392522,0.0,0.0,0.0,0.0,0.0,0.0,0.0,0.0,0.0
7.329,203,7,329000000,base_footprint,-0.003578858432894353,0.0014344292104114733,0.9277689903361547,0.3731351427509742,0.0,0.0,0.0,0.0,0.0,0.0,0.0,0.0,0.0,0.00013678656445164153,6.318842084536655e-05,0.031982666475224485,0.0,0.0,0.0,0.0,0.0,0.0,0.0,0.0,0.0,-0.005058358269727302,0.18082468997573792,-0.0023385348623827847,0.0,0.0,0.0,0.0,0.0,0.0,0.0,0.0,0.0
7.363,204,7,363000000,base_footprint,-0.0035856389995498872,0.0014345952815527265,0.9279014241407818,0.37280562255262734,0.0,0.0,0.0,0.0,0.0,0.0,0.0,0.0,0.0,-0.00029604015575325043,1.7564751137557518e-05,0.02077038198751132,0.0,0.0,0.0,0.0,0.0,0.0,0.0,0.0,0.0,0.00930195680962051,-0.11556534857809654,0.001118424409680534,0.0,0.0,0.0,0.0,0.0,0.0,0.0,0.0,0.0
7.397,205,7,397000000,base_footprint,-0.0035841704949498474,0.0014336481630922522,0.9280220415889537,0.37250528680795675,0.0,0.0,0.0,0.0,0.0,0.0,0.0,0.0,0.0,0.000694644753237242,0.00012663201428600673,0.023793553789831896,0.0,0.0,0.0,0.0,0.0,0.0,0.0,0.0,0.0,0.015237444097041836,-0.2248356658102246,0.0002484353930407624,0.0,0.0,0.0,0.0,0.0,0.0,0.0,0.0,0.0
7.431,206,7,431000000,base_footprint,-0.0035907644611531484,0.001432964676122927,0.9284271270585511,0.37149444513293417,0.0,0.0,0.0,0.0,0.0,0.0,0.0,0.0,0.0,-0.00035269845880829965,0.0002560486922214317,0.06992296905897061,0.0,0.0,0.0,0.0,0.0,0.0,0.0,0.0,0.0,0.017520716416755705,-0.11275056740543819,0.0012903282892617353,0.0,0.0,0.0,0.0,0.0,0.0,0.0,0.0,0.0
7.465,207,7,465000000,base_footprint,-0.003595941997611886,0.001430495261606373,0.9288641532034464,0.3704003344735272,0.0,0.0,0.0,0.0,0.0,0.0,0.0,0.0,0.0,-0.000330037551792603,0.00026554330036527223,0.06856513282903541,0.0,0.0,0.0,0.0,0.0,0.0,0.0,0.0,0.0,0.014928517118512142,-0.0029866054940944626,-5.5422810770568716e-05,0.0,0.0,0.0,0.0,0.0,0.0,0.0,0.0,0.0
7.499,208,7,499000000,base_footprint,-0.003592681439788832,0.0014239670218485336,0.929110025888316,0.36978321318281293,0.0,0.0,0.0,0.0,0.0,0.0,0.0,0.0,0.0,0.003773292399409268,-0.0019654946247426664,-0.04854543739463017,0.0,0.0,0.0,0.0,0.0,0.0,0.0,0.0,0.0,0.012504109866193353,-0.05596317360811453,-0.004420625137844579,0.0,0.0,0.0,0.0,0.0,0.0,0.0,0.0,0.0
7.533,209,7,533000000,base_footprint,-0.0035985831328362,0.0014267824687774799,0.9287323003145034,0.3707308037427617,0.0,0.0,0.0,0.0,0.0,0.0,0.0,0.0,0.0,-0.0002455211060057458,0.00044554412783085704,-0.060109265875816366,0.0,0.0,0.0,0.0,0.0,0.0,0.0,0.0,0.0,-0.011367307973922469,0.03321176303917159,0.00539006955570614,0.0,0.0,0.0,0.0,0.0,0.0,0.0,0.0,0.0
7.567,210,7,567000000,base_footprint,-0.00360319895247277,0.0014269543048999911,0.928354597500088,0.3716755602123584,0.0,0.0,0.0,0.0,0.0,0.0,0.0,0.0,0.0,-4.2556882248281095e-05,-0.000809029509532344,-0.052852364293773706,0.0,0.0,0.0,0.0,0.0,0.0,0.0,0.0,0.0,-0.020889747033273183,0.08404062951572014,-0.0005722733286689144,0.0,0.0,0.0,0.0,0.0,0.0,0.0,0.0,0.0
7.601,211,7,601000000,base_footprint,-0.003598000299253984,0.0014271036922625863,0.9280474361879435,0.37244190681753747,0.0,0.0,0.0,0.0,0.0,0.0,0.0,0.0,0.0,0.0002202206423696927,-0.0007756866762447644,-0.03466214889706764,0.0,0.0,0.0,0.0,0.0,0.0,0.0,0.0,0.0,-0.0072110966420131945,-0.03542475730583922,-0.00061997952165461,0.0,0.0,0.0,0.0,0.0,0.0,0.0,0.0,0.0
7.635,212,7,635000000,base_footprint,-0.003593238435469128,0.0014376145475493325,0.9279300607695943,0.37273425415716177,0.0,0.0,0.0,0.0,0.0,0.0,0.0,0.0,0.0,0.00022024628518041515,-0.00015759325832976896,-0.007758499706276521,0.0,0.0,0.0,0.0,0.0,0.0,0.0,0.0,0.0,-0.00419447284969598,0.012666353803032411,-0.00039294833143222125,0.0,0.0,0.0,0.0,0.0,0.0,0.0,0.0,0.0
7.6690000000000005,213,7,669000000,base_footprint,-0.003596985577939894,0.001435469952550618,0.927890390458736,0.37283297120171904,0.0,0.0,0.0,0.0,0.0,0.0,0.0,0.0,0.0,0.00044016033320089416,0.0004058595714566323,-0.015902504625829074,0.0,0.0,0.0,0.0,0.0,0.0,0.0,0.0,0.0,-0.0016642888092170162,-0.019193754103826288,-0.0005553112446535089,0.0,0.0,0.0,0.0,0.0,0.0,0.0,0.0,0.0
7.703,214,7,703000000,base_footprint,-0.0035972218780834374,0.0014392710713791595,0.9276598744062947,0.3734061406967494,0.0,0.0,0.0,0.0,0.0,0.0,0.0,0.0,0.0,0.0007604100576163915,-0.00047582470459891135,-0.07727269710491116,0.0,0.0,0.0,0.0,0.0,0.0,0.0,0.0,0.0,-0.021391496088117995,0.3387475916958763,-0.0007768115375779497,0.0,0.0,0.0,0.0,0.0,0.0,0.0,0.0,0.0
7.737,215,7,737000000,base_footprint,-0.0035866157129373515,0.0014375557254198152,0.9273410328554419,0.3741973789377288,0.0,0.0,0.0,0.0,0.0,0.0,0.0,0.0,0.0,-0.00021504896685724446,0.0005179941140431885,0.012474219485276048,0.0,0.0,0.0,0.0,0.0,0.0,0.0,0.0,0.0,-0.027356296923467416,0.3445225700801504,-0.0024157215189813124,0.0,0.0,0.0,0.0,0.0,0.0,0.0,0.0,0.0
7.771,216,7,771000000,base_footprint,-0.003588770857180611,0.0014366770076750153,0.927405710044568,0.3740370378179696,0.0,0.0,0.0,0.0,0.0,0.0,0.0,0.0,0.0,-0.000278693012638645,0.00011148633708305351,0.010218668100174091,0.0,0.0,0.0,0.0,0.0,0.0,0.0,0.0,0.0,0.00616814955120449,-0.01354068354225291,0.0007898873279067769,0.0,0.0,0.0,0.0,0.0,0.0,0.0,0.0,0.0
7.805,217,7,805000000,base_footprint,-0.0035851616987879298,0.001434594681706299,0.9275501771581746,0.37367868203515675,0.0,0.0,0.0,0.0,0.0,0.0,0.0,0.0,0.0,-0.0007837388108967694,-3.9887246594815754e-05,0.07106564581825103,0.0,0.0,0.0,0.0,0.0,0.0,0.0,0.0,0.0,0.017882860681108795,-0.3131137238084798,0.002432178163933903,0.0,0.0,0.0,0.0,0.0,0.0,0.0,0.0,0.0
7.839,218,7,839000000,base_footprint,-0.0035866370432955687,0.0014321852522133007,0.9280319472368379,0.37248058981365184,0.0,0.0,0.0,0.0,0.0,0.0,0.0,0.0,0.0,-0.000608306704400424,0.00028250249969921664,0.07595898305058921,0.0,0.0,0.0,0.0,0.0,0.0,0.0,0.0,0.0,0.014545038672284672,-0.01928364180932702,-0.00038525484529598655,0.0,0.0,0.0,0.0,0.0,0.0,0.0,0.0,0.0
7.873,219,7,873000000,base_footprint,-0.003588586248632477,0.0014289678839925714,0.9285103280535123,0.37128648076314574,0.0,0.0,0.0,0.0,0.0,0.0,0.0,0.0,0.0,-0.0005394426382059537,0.0002769800434076168,0.07549363489720637,0.0,0.0,0.0,0.0,0.0,0.0,0.0,0.0,0.0,0.015877936509775654,-0.004669928250224322,-3.618252139201077e-05,0.0,0.0,0.0,0.0,0.0,0.0,0.0,0.0,0.0
7.907,220,7,907000000,base_footprint,-0.003588629702465606,0.0014257429346672447,0.9288558172713753,0.37042132729510663,0.0,0.0,0.0,0.0,0.0,0.0,0.0,0.0,0.0,0.0009893993654717342,-0.00036960076420070964,0.0030030099238436123,0.0,0.0,0.0,0.0,0.0,0.0,0.0,0.0,0.0,0.032718821870415166,-0.35917227927946815,0.0012645325870397767,0.0,0.0,0.0,0.0,0.0,0.0,0.0,0.0,0.0
7.941,221,7,941000000,base_footprint,-0.0035949988508852224,0.0014296770008176475,0.9288605822637807,0.3704093016158289,0.0,0.0,0.0,0.0,0.0,0.0,0.0,0.0,0.0,2.2368436704005918e-05,-0.00012697665958156718,0.0002979252700159067,0.0,0.0,0.0,0.0,0.0,0.0,0.0,0.0,0.0,-0.0012356933006516567,-0.009377030107066019,0.0004571814742494961,0.0,0.0,0.0,0.0,0.0,0.0,0.0,0.0,0.0
7.975,222,7,975000000,base_footprint,-0.0035984778984742855,0.0014301269500945017,0.9288551181301257,0.37042296799360486,0.0,0.0,0.0,0.0,0.0,0.0,0.0,0.0,0.0,9.0753447060018e-05,-6.812858711683671e-07,-0.002096043388512121,0.0,0.0,0.0,0.0,0.0,0.0,0.0,0.0,0.0,-0.00011424745772575622,-0.0009877106643276033,-0.00020848769381504135,0.0,0.0,0.0,0.0,0.0,0.0,0.0,0.0,0.0
8.009,223,8,9000000,base_footprint,-0.0035864664955624096,0.0014198886892729454,0.9290349759543876,0.3699718024763736,0.0,0.0,0.0,0.0,0.0,0.0,0.0,0.0,0.0,-0.0004299799215672318,0.00046530734677595965,0.08223413749439352,0.0,0.0,0.0,0.0,0.0,0.0,0.0,0.0,0.0,-0.01296726511301613,0.35339331598290186,-0.001326304983517628,0.0,0.0,0.0,0.0,0.0,0.0,0.0,0.0,0.0
8.043,224,8,43000000,base_footprint,-0.0036049276224511856,0.001429198877008369,0.9294254983934793,0.36898943727895456,0.0,0.0,0.0,0.0,0.0,0.0,0.0,0.0,0.0,0.0014118644811523743,0.0007192433749626222,0.017761996318300406,0.0,0.0,0.0,0.0,0.0,0.0,0.0,0.0,0.0,0.013342785712189772,0.04534648778032714,-0.003851232929250021,0.0,0.0,0.0,0.0,0.0,0.0,0.0,0.0,0.0
8.077,225,8,77000000,base_footprint,-0.0035928854417315746,0.0014105505532090957,0.9293374612601871,0.3692113007747864,0.0,0.0,0.0,0.0,0.0,0.0,0.0,0.0,0.0,-0.00020624607078898615,-0.00030656955895321436,-0.05167211577423687,0.0,0.0,0.0,0.0,0.0,0.0,0.0,0.0,0.0,0.0030046962918898953,-0.11952794176837053,0.004529059765504354,0.0,0.0,0.0,0.0,0.0,0.0,0.0,0.0,0.0
8.111,226,8,111000000,base_footprint,-0.0035962944311806596,0.0014136963208698685,0.9290295079255786,0.36998546124494397,0.0,0.0,0.0,0.0,0.0,0.0,0.0,0.0,0.0,-0.0002295116586968155,-0.0004202639112994464,-0.023852134595663835,0.0,0.0,0.0,0.0,0.0,0.0,0.0,0.0,0.0,-0.0006791627512972576,-0.12248774042637928,0.0007571244575378074,0.0,0.0,0.0,0.0,0.0,0.0,0.0,0.0,0.0
8.145,227,8,145000000,base_footprint,-0.0035980346924734683,0.0014255283932444478,0.9292073627680961,0.3695384946019991,0.0,0.0,0.0,0.0,0.0,0.0,0.0,0.0,0.0,-0.0009735677710418923,0.0008732971131217344,0.0613284970697643,0.0,0.0,0.0,0.0,0.0,0.0,0.0,0.0,0.0,0.004440740979945637,-0.053090197036137037,-0.0001560057223130919,0.0,0.0,0.0,0.0,0.0,0.0,0.0,0.0,0.0
8.179,228,8,179000000,base_footprint,-0.003602180124718966,0.0014188205657131219,0.9295464562901936,0.36868468485264577,0.0,0.0,0.0,0.0,0.0,0.0,0.0,0.0,0.0,7.481674921016034e-05,0.0008829031760212571,0.04131151159943129,0.0,0.0,0.0,0.0,0.0,0.0,0.0,0.0,0.0,0.014693504201058145,-0.05465038987760649,-0.0007542695043281472,0.0,0.0,0.0,0.0,0.0,0.0,0.0,0.0,0.0
8.213,229,8,213000000,base_footprint,-0.003599953650265345,0.0014168180758726975,0.9296108116569147,0.36852241697192356,0.0,0.0,0.0,0.0,0.0,0.0,0.0,0.0,0.0,-0.0003705861095322963,-8.591928995903275e-05,0.0040068957210680385,0.0,0.0,0.0,0.0,0.0,0.0,0.0,0.0,0.0,0.0036711007776931356,-0.01353361655379206,0.0017201157741102238,0.0,0.0,0.0,0.0,0.0,0.0,0.0,0.0,0.0
8.247,230,8,247000000,base_footprint,-0.0035974404999272436,0.0014160909243245306,0.9296324864917964,0.3684677640817764,0.0,0.0,0.0,0.0,0.0,0.0,0.0,0.0,0.0,-0.00027093301922796915,5.0870616499279604e-05,0.0035705199396613165,0.0,0.0,0.0,0.0,0.0,0.0,0.0,0.0,0.0,0.0011593275941688987,-0.0056996381674116504,-0.00019644867618944547,0.0,0.0,0.0,0.0,0.0,0.0,0.0,0.0,0.0
8.281,231,8,281000000,base_footprint,-0.0035954949424746334,0.0014159645350313142,0.9296542845980154,0.36841278287962076,0.0,0.0,0.0,0.0,0.0,0.0,0.0,0.0,0.0,-0.0003735104245752771,-0.00014328771569174063,0.003437451377375435,0.0,0.0,0.0,0.0,0.0,0.0,0.0,0.0,0.0,0.0007058003792147179,-0.00456661351759214,0.00038085797422022724,0.0,0.0,0.0,0.0,0.0,0.0,0.0,0.0,0.0
8.315,232,8,315000000,base_footprint,-0.0035937973066321144,0.0014156875567018323,0.9297912987291175,0.3680668706326092,0.0,0.0,0.0,0.0,0.0,0.0,0.0,0.0,0.0,-0.0004036676142581963,0.00016634627774409627,0.03804044772624131,0.0,0.0,0.0,0.0,0.0,0.0,0.0,0.0,0.0,-0.017124584574464433,0.3454385772011449,-0.002271820484314571,0.0,0.0,0.0,0.0,0.0,0.0,0.0,0.0,0.0
8.349,233,8,349000000,base_footprint,-0.0035935940274240733,0.0014168091801228804,0.9298075153305926,0.36802590013267167,0.0,0.0,0.0,0.0,0.0,0.0,0.0,0.0,0.0,-0.0001382243657441958,-0.0001428098804654554,-0.002396887276949771,0.0,0.0,0.0,0.0,0.0,0.0,0.0,0.0,0.0,0.0017315589639453031,-0.01740425247105828,7.240142107876036e-05,0.0,0.0,0.0,0.0,0.0,0.0,0.0,0.0,0.0
8.383,234,8,383000000,base_footprint,-0.003594660736825582,0.001418722112003183,0.9297900842022935,0.36806991857641425,0.0,0.0,0.0,0.0,0.0,0.0,0.0,0.0,0.0,-3.53341784315961e-05,-0.00014530178997480237,-0.003048481938605717,0.0,0.0,0.0,0.0,0.0,0.0,0.0,0.0,0.0,-0.0001812448790253537,-0.005348538733441769,-0.00018573292330565305,0.0,0.0,0.0,0.0,0.0,0.0,0.0,0.0,0.0
8.417,235,8,417000000,base_footprint,-0.003594754625003526,0.0014167861399772997,0.9298661389982609,0.3678777432798658,0.0,0.0,0.0,0.0,0.0,0.0,0.0,0.0,0.0,0.0008468976827831823,-0.0006697922590107065,0.04846502190023122,0.0,0.0,0.0,0.0,0.0,0.0,0.0,0.0,0.0,0.022763882116940068,-0.3351516216329368,2.9514729493371325e-05,0.0,0.0,0.0,0.0,0.0,0.0,0.0,0.0,0.0
8.451,236,8,451000000,base_footprint,-0.0036019304606389048,0.0014186632084464273,0.9301531780630318,0.3671513023685191,0.0,0.0,0.0,0.0,0.0,0.0,0.0,0.0,0.0,-0.0002037840243654646,0.00015240823059681793,0.04472358033289123,0.0,0.0,0.0,0.0,0.0,0.0,0.0,0.0,0.0,0.010023349062233192,0.0025610451040327,0.0015461495793139,0.0,0.0,0.0,0.0,0.0,0.0,0.0,0.0,0.0
8.485,237,8,485000000,base_footprint,-0.003605666309864867,0.0014158276792708363,0.9304227853335404,0.3664675089753814,0.0,0.0,0.0,0.0,0.0,0.0,0.0,0.0,0.0,-0.00034637240503998366,0.0002803165296007392,0.04129199955298254,0.0,0.0,0.0,0.0,0.0,0.0,0.0,0.0,0.0,0.008020958031119761,0.0027446127450359388,0.0001572595089356829,0.0,0.0,0.0,0.0,0.0,0.0,0.0,0.0,0.0
8.519,238,8,519000000,base_footprint,-0.003611447425109774,0.00141041131441734,0.9308189750248437,0.3654599894942256,0.0,0.0,0.0,0.0,0.0,0.0,0.0,0.0,0.0,0.0016327795761436302,-0.0007036208575282695,0.05406790642614072,0.0,0.0,0.0,0.0,0.0,0.0,0.0,0.0,0.0,0.00098313440974266,0.18227030196263244,-0.004051082755501771,0.0,0.0,0.0,0.0,0.0,0.0,0.0,0.0,0.0
8.553,239,8,553000000,base_footprint,-0.0036118427537120603,0.001400182272470799,0.9310182572033201,0.364952050049892,0.0,0.0,0.0,0.0,0.0,0.0,0.0,0.0,0.0,0.00014646802206757668,0.0002524973998155138,0.0026245018271700777,0.0,0.0,0.0,0.0,0.0,0.0,0.0,0.0,0.0,0.00030619465657930056,0.11186824670666719,0.002197283464452576,0.0,0.0,0.0,0.0,0.0,0.0,0.0,0.0,0.0
8.587,240,8,587000000,base_footprint,-0.0036125307988415234,0.0014057263453232016,0.930926013489288,0.3651872546565824,0.0,0.0,0.0,0.0,0.0,0.0,0.0,0.0,0.0,-0.00047737853194833074,5.675797805983653e-05,-0.013513698179203412,0.0,0.0,0.0,0.0,0.0,0.0,0.0,0.0,0.0,-0.00738641663357863,0.05569041135153421,0.0008734467064041998,0.0,0.0,0.0,0.0,0.0,0.0,0.0,0.0,0.0
8.621,241,8,621000000,base_footprint,-0.00360345428860434,0.0014084609488562397,0.9308345030997587,0.36542052377223005,0.0,0.0,0.0,0.0,0.0,0.0,0.0,0.0,0.0,7.26276115347686e-05,-0.00015145090426036263,-0.006115184330365629,0.0,0.0,0.0,0.0,0.0,0.0,0.0,0.0,0.0,-0.003041831542276255,0.02942949321831343,-0.0011646081293331285,0.0,0.0,0.0,0.0,0.0,0.0,0.0,0.0,0.0
8.655,242,8,655000000,base_footprint,-0.0036065657130428808,0.0014067179084198509,0.9308289707635623,0.36543459198019435,0.0,0.0,0.0,0.0,0.0,0.0,0.0,0.0,0.0,0.00010376980991147112,0.0003032589562083864,-0.006823125890455648,0.0,0.0,0.0,0.0,0.0,0.0,0.0,0.0,0.0,-0.0014427280689918813,-0.002279386850589379,7.643054289081398e-05,0.0,0.0,0.0,0.0,0.0,0.0,0.0,0.0,0.0
8.689,243,8,689000000,base_footprint,-0.0035966121488278436,0.0014031960344233429,0.9307475199641029,0.3656421057572714,0.0,0.0,0.0,0.0,0.0,0.0,0.0,0.0,0.0,-0.005928113301758953,-0.003135733048539939,-0.0012557262834061607,0.0,0.0,0.0,0.0,0.0,0.0,0.0,0.0,0.0,0.006039349625211864,-0.07789118824195666,0.012128885318331856,0.0,0.0,0.0,0.0,0.0,0.0,0.0,0.0,0.0
8.723,244,8,723000000,base_footprint,-0.003603566712335164,0.00140294715243253,0.9309245700545595,0.3651910334536854,0.0,0.0,0.0,0.0,0.0,0.0,0.0,0.0,0.0,-0.0007721426811142445,5.158381557292583e-05,0.03323683608002456,0.0,0.0,0.0,0.0,0.0,0.0,0.0,0.0,0.0,0.025397929881615003,-0.2767822578324371,-0.009095691452570623,0.0,0.0,0.0,0.0,0.0,0.0,0.0,0.0,0.0
8.757,245,8,757000000,base_footprint,-0.0036023693543455852,0.0014008486971699298,0.9311326762744089,0.36466011535677895,0.0,0.0,0.0,0.0,0.0,0.0,0.0,0.0,0.0,-0.000394587570367976,0.0002149664255967793,0.03356644732749671,0.0,0.0,0.0,0.0,0.0,0.0,0.0,0.0,0.0,0.005219054879393259,-0.0019978484057342895,-0.0005257036820141991,0.0,0.0,0.0,0.0,0.0,0.0,0.0,0.0,0.0
8.791,246,8,791000000,base_footprint,-0.0036117588068223004,0.0014022206912771202,0.9313382185076572,0.3641347439100501,0.0,0.0,0.0,0.0,0.0,0.0,0.0,0.0,0.0,0.0006084917837353235,-0.00028087482060530844,0.03225358254107284,0.0,0.0,0.0,0.0,0.0,0.0,0.0,0.0,0.0,-0.0034467479917454358,0.16365237694977786,0.0011744735254311475,0.0,0.0,0.0,0.0,0.0,0.0,0.0,0.0,0.0
8.825,247,8,825000000,base_footprint,-0.0035998330114793984,0.0014006390605556943,0.9313851170351222,0.36401489417053173,0.0,0.0,0.0,0.0,0.0,0.0,0.0,0.0,0.0,-0.00023149900863142446,-0.00013627209029605755,0.0026304560046271786,0.0,0.0,0.0,0.0,0.0,0.0,0.0,0.0,0.0,-0.013406831062199295,0.1577114457748664,-0.0028117887119551797,0.0,0.0,0.0,0.0,0.0,0.0,0.0,0.0,0.0
8.859,248,8,859000000,base_footprint,-0.0036005083773049057,0.0014021919103116755,0.9313991123332901,0.3639790704725078,0.0,0.0,0.0,0.0,0.0,0.0,0.0,0.0,0.0,-8.890281356296808e-05,-0.00012577417783819861,0.0020268136403583195,0.0,0.0,0.0,0.0,0.0,0.0,0.0,0.0,0.0,0.0008734007658192352,-0.005246046454124016,-0.0002107490410777579,0.0,0.0,0.0,0.0,0.0,0.0,0.0,0.0,0.0
8.893,249,8,893000000,base_footprint,-0.003597053653116279,0.0014007997844983806,0.9313928320600877,0.3639951803967599,0.0,0.0,0.0,0.0,0.0,0.0,0.0,0.0,0.0,-0.0005576026235006269,0.00011632534686504402,-0.018751768960772956,0.0,0.0,0.0,0.0,0.0,0.0,0.0,0.0,0.0,0.012053983603035202,-0.15755164800905874,0.0018241683072319323,0.0,0.0,0.0,0.0,0.0,0.0,0.0,0.0,0.0
8.927,250,8,927000000,base_footprint,-0.0036050872311921747,0.0014081310677445322,0.9311670089265262,0.3645723823876112,0.0,0.0,0.0,0.0,0.0,0.0,0.0,0.0,0.0,0.000252825092620117,-0.0002980513312008294,-0.03899137621368791,0.0,0.0,0.0,0.0,0.0,0.0,0.0,0.0,0.0,0.008261950030485576,-0.2001868642836383,-0.0001883450126749308,0.0,0.0,0.0,0.0,0.0,0.0,0.0,0.0,0.0
8.961,251,8,961000000,base_footprint,-0.003607644721231624,0.0014103580520528408,0.9309168646023472,0.3652106063474411,0.0,0.0,0.0,0.0,0.0,0.0,0.0,0.0,0.0,0.00021371631982592602,-0.00019680392821455107,-0.04172129542878317,0.0,0.0,0.0,0.0,0.0,0.0,0.0,0.0,0.0,-0.009472636760368107,-0.0002865756461658039,-0.00015800667280347328,0.0,0.0,0.0,0.0,0.0,0.0,0.0,0.0,0.0
8.995000000000001,252,8,995000000,base_footprint,-0.003603838391959311,0.0014102018278054932,0.9306098470782915,0.36599226248729394,0.0,0.0,0.0,0.0,0.0,0.0,0.0,0.0,0.0,0.0009413588769763264,-0.0003513912361167023,-0.07390696763050512,0.0,0.0,0.0,0.0,0.0,0.0,0.0,0.0,0.0,-0.0024847362712581656,-0.026750022863831203,-0.0005091797307389986,0.0,0.0,0.0,0.0,0.0,0.0,0.0,0.0,0.0
9.029,253,9,29000000,base_footprint,-0.0036083661155448025,0.0014143822359069921,0.9300948108476587,0.36729909073005484,0.0,0.0,0.0,0.0,0.0,0.0,0.0,0.0,0.0,0.0006774328214232016,-0.0006614358395024964,-0.09062668167110363,0.0,0.0,0.0,0.0,0.0,0.0,0.0,0.0,0.0,-0.027237734007532113,0.05165429089323215,-0.00017435306486783124,0.0,0.0,0.0,0.0,0.0,0.0,0.0,0.0,0.0
9.063,254,9,63000000,base_footprint,-0.0036070891536427027,0.0014190628262251014,0.9295812877225569,0.36859680503852155,0.0,0.0,0.0,0.0,0.0,0.0,0.0,0.0,0.0,-6.119454450833944e-05,-1.7534562355553548e-05,-0.0800087415154986,0.0,0.0,0.0,0.0,0.0,0.0,0.0,0.0,0.0,-0.016690788678508962,-0.013848682250906916,0.001097853908403757,0.0,0.0,0.0,0.0,0.0,0.0,0.0,0.0,0.0
9.097,255,9,97000000,base_footprint,-0.003599862400445284,0.0014257397516735041,0.9291546045367711,0.36967110939992975,0.0,0.0,0.0,0.0,0.0,0.0,0.0,0.0,0.0,0.0022413920936570743,-0.0011639921220257463,-0.03619584195001023,0.0,0.0,0.0,0.0,0.0,0.0,0.0,0.0,0.0,-0.017130517512632816,-0.008190362657036813,-0.0030915268912670387,0.0,0.0,0.0,0.0,0.0,0.0,0.0,0.0,0.0
9.131,256,9,131000000,base_footprint,-0.0036014608321224334,0.0014251015112868586,0.9290025107410721,0.3700531496992581,0.0,0.0,0.0,0.0,0.0,0.0,0.0,0.0,0.0,0.00031224323481747246,0.0004195559573289234,-0.02472266071577426,0.0,0.0,0.0,0.0,0.0,0.0,0.0,0.0,0.0,-0.006562982084583261,0.03710155390060681,0.0014859885248819495,0.0,0.0,0.0,0.0,0.0,0.0,0.0,0.0,0.0
9.165,257,9,165000000,base_footprint,-0.00359864461394826,0.0014245959199883534,0.9288295624745442,0.3704870634134939,0.0,0.0,0.0,0.0,0.0,0.0,0.0,0.0,0.0,-0.00012330794760633464,-1.2423133246830846e-05,-0.02599381779010383,0.0,0.0,0.0,0.0,0.0,0.0,0.0,0.0,0.0,-0.005362900755195662,-0.009684551663262856,0.0012682671899548253,0.0,0.0,0.0,0.0,0.0,0.0,0.0,0.0,0.0
9.199,258,9,199000000,base_footprint,-0.0035948319304243853,0.0014245321907143138,0.9287013177888365,0.3708084549045617,0.0,0.0,0.0,0.0,0.0,0.0,0.0,0.0,0.0,-0.00039958531696810946,3.4235063565066297e-05,-0.011238822880935759,0.0,0.0,0.0,0.0,0.0,0.0,0.0,0.0,0.0,-0.004665683897361263,0.0006329191047476238,0.00018443001829062115,0.0,0.0,0.0,0.0,0.0,0.0,0.0,0.0,0.0
9.233,259,9,233000000,base_footprint,-0.0035926910900262827,0.0014249318650578421,0.9286269993742254,0.3709945527539913,0.0,0.0,0.0,0.0,0.0,0.0,0.0,0.0,0.0,-0.0003051323128462216,-0.00022449308789376804,-0.011939254959700815,0.0,0.0,0.0,0.0,0.0,0.0,0.0,0.0,0.0,-0.001348292787428153,-0.006534349473420833,0.00017846871231125494,0.0,0.0,0.0,0.0,0.0,0.0,0.0,0.0,0.0
9.267,260,9,267000000,base_footprint,-0.0035897212761138594,0.0014266371103493914,0.9285497145664573,0.371187966111869,0.0,0.0,0.0,0.0,0.0,0.0,0.0,0.0,0.0,-0.00018309190607865563,-0.00020762163323481065,-0.012442345121644476,0.0,0.0,0.0,0.0,0.0,0.0,0.0,0.0,0.0,-0.0022943113402676637,-0.005827901817884262,-0.00019633231543060556,0.0,0.0,0.0,0.0,0.0,0.0,0.0,0.0,0.0
9.301,261,9,301000000,base_footprint,-0.0035946491242784683,0.0014284763966474925,0.9284852440963487,0.3713491476336004,0.0,0.0,0.0,0.0,0.0,0.0,0.0,0.0,0.0,0.0011859354074903843,1.3458823528923866e-05,-0.001815354205957431,0.0,0.0,0.0,0.0,0.0,0.0,0.0,0.0,0.0,-0.02453438921075604,0.44454102601871115,-0.0040881945445798325,0.0,0.0,0.0,0.0,0.0,0.0,0.0,0.0,0.0
9.335,262,9,335000000,base_footprint,-0.003584582290087943,0.0014254522186025814,0.9285952285650976,0.37107414399539124,0.0,0.0,0.0,0.0,0.0,0.0,0.0,0.0,0.0,-0.0001091124636081368,-0.00013870564083079938,-0.007592035289163961,0.0,0.0,0.0,0.0,0.0,0.0,0.0,0.0,0.0,0.008572273231671548,-0.08470865906783764,0.0018210023253014385,0.0,0.0,0.0,0.0,0.0,0.0,0.0,0.0,0.0
9.369,263,9,369000000,base_footprint,-0.0035915823972974587,0.0014320227248953586,0.9284805089170438,0.37136100280986184,0.0,0.0,0.0,0.0,0.0,0.0,0.0,0.0,0.0,0.00011505734036437257,-0.00022778035516873981,-0.01882893114889692,0.0,0.0,0.0,0.0,0.0,0.0,0.0,0.0,0.0,-0.0024406942533530644,-0.03664326820673605,-0.00011329490057855577,0.0,0.0,0.0,0.0,0.0,0.0,0.0,0.0,0.0
9.403,264,9,403000000,base_footprint,-0.0035895386593054685,0.0014315703989412358,0.9283080778177656,0.37179184831931394,0.0,0.0,0.0,0.0,0.0,0.0,0.0,0.0,0.0,0.0008113858610995243,0.00031235726774017907,-0.025457580604504607,0.0,0.0,0.0,0.0,0.0,0.0,0.0,0.0,0.0,0.00721166124173632,-0.23439964029923133,0.00015650839449796492,0.0,0.0,0.0,0.0,0.0,0.0,0.0,0.0,0.0
9.437,265,9,437000000,base_footprint,-0.0035980449946727546,0.001434519942667567,0.9283767162307076,0.3716203290798805,0.0,0.0,0.0,0.0,0.0,0.0,0.0,0.0,0.0,8.962837010315116e-05,-0.0001524827039419019,0.019950308830628524,0.0,0.0,0.0,0.0,0.0,0.0,0.0,0.0,0.0,0.0026633586850123084,-0.10106341384018752,0.0009621421418557427,0.0,0.0,0.0,0.0,0.0,0.0,0.0,0.0,0.0
9.471,266,9,471000000,base_footprint,-0.003599076707504384,0.0014319635512684242,0.9284898460880446,0.37133758473744727,0.0,0.0,0.0,0.0,0.0,0.0,0.0,0.0,0.0,-0.0004463571530338085,0.00034737630432989304,0.015906407775634377,0.0,0.0,0.0,0.0,0.0,0.0,0.0,0.0,0.0,0.0049804822754072504,0.006215408438135288,0.001021289237453532,0.0,0.0,0.0,0.0,0.0,0.0,0.0,0.0,0.0
9.505,267,9,505000000,base_footprint,-0.0036006554902415053,0.0014263951520072653,0.9284600710399897,0.3714120315247317,0.0,0.0,0.0,0.0,0.0,0.0,0.0,0.0,0.0,0.000888865937652929,6.812988420130581e-05,-0.030075095877330496,0.0,0.0,0.0,0.0,0.0,0.0,0.0,0.0,0.0,-0.0018977408004819578,0.023307805553670707,-0.002270125476531926,0.0,0.0,0.0,0.0,0.0,0.0,0.0,0.0,0.0
9.539,268,9,539000000,base_footprint,-0.0036019388159831424,0.0014322614438592204,0.9283088960639337,0.37178968268697715,0.0,0.0,0.0,0.0,0.0,0.0,0.0,0.0,0.0,0.000560484417793526,-0.0004763827210993868,-0.0123747410303036,0.0,0.0,0.0,0.0,0.0,0.0,0.0,0.0,0.0,-0.005243191226378011,-0.014083882487999163,0.0010889710476029877,0.0,0.0,0.0,0.0,0.0,0.0,0.0,0.0,0.0
9.573,269,9,573000000,base_footprint,-0.0035950032590942476,0.0014343912893408427,0.9282436279358702,0.3719526658993723,0.0,0.0,0.0,0.0,0.0,0.0,0.0,0.0,0.0,-0.00021430849345969105,-5.49344096039051e-05,-0.0032308472447813786,0.0,0.0,0.0,0.0,0.0,0.0,0.0,0.0,0.0,0.0002043708956474717,0.026203919748742123,0.0008474034510649696,0.0,0.0,0.0,0.0,0.0,0.0,0.0,0.0,0.0
9.607,270,9,607000000,base_footprint,-0.0035957357090745127,0.001434379965357969,0.9280687424098443,0.37238880568652394,0.0,0.0,0.0,0.0,0.0,0.0,0.0,0.0,0.0,-0.0006180230372911057,-0.0004823292758207128,-0.08788571745803632,0.0,0.0,0.0,0.0,0.0,0.0,0.0,0.0,0.0,-0.02021163810643832,0.32331255965546635,-0.0006266099541489974,0.0,0.0,0.0,0.0,0.0,0.0,0.0,0.0,0.0
9.641,271,9,641000000,base_footprint,-0.003590440181627558,0.0014303625960083183,0.9275870876849523,0.3735870147131653,0.0,0.0,0.0,0.0,0.0,0.0,0.0,0.0,0.0,0.0006668146278779707,0.0002994689800237426,-0.017796171087106086,0.0,0.0,0.0,0.0,0.0,0.0,0.0,0.0,0.0,-0.022121538765643697,0.021363738655076868,-0.0037405698298183243,0.0,0.0,0.0,0.0,0.0,0.0,0.0,0.0,0.0
9.675,272,9,675000000,base_footprint,-0.0035921566223329924,0.0014350673729018307,0.927513050135534,0.3737707570432904,0.0,0.0,0.0,0.0,0.0,0.0,0.0,0.0,0.0,-0.0002719651193936292,-1.0126449423352799e-05,-0.010601510369740073,0.0,0.0,0.0,0.0,0.0,0.0,0.0,0.0,0.0,0.0018906746315571973,-0.02341811122817164,0.002740280953376903,0.0,0.0,0.0,0.0,0.0,0.0,0.0,0.0,0.0
9.709,273,9,709000000,base_footprint,-0.0035843050244350424,0.0014354677725596156,0.92751469164452,0.3737667574481936,0.0,0.0,0.0,0.0,0.0,0.0,0.0,0.0,0.0,0.003492161702668386,0.0019435688413540898,-0.0011854706202012466,0.0,0.0,0.0,0.0,0.0,0.0,0.0,0.0,0.0,0.01138735989429955,-0.3505957334042379,-0.00414417450794059,0.0,0.0,0.0,0.0,0.0,0.0,0.0,0.0,0.0
9.743,274,9,743000000,base_footprint,-0.0035864972152494373,0.0014354790414247576,0.927512466734447,0.3737722575176336,0.0,0.0,0.0,0.0,0.0,0.0,0.0,0.0,0.0,-0.0002929077323430202,-0.00014509152028200994,0.0005451448084088989,0.0,0.0,0.0,0.0,0.0,0.0,0.0,0.0,0.0,0.0019009349311535134,0.0034394691037201715,0.006176696292105703,0.0,0.0,0.0,0.0,0.0,0.0,0.0,0.0,0.0
9.777,275,9,777000000,base_footprint,-0.0035852133143567002,0.0014366856191742315,0.9275140380104967,0.3737683660683247,0.0,0.0,0.0,0.0,0.0,0.0,0.0,0.0,0.0,-0.00018925995513183178,-0.00013219478642101948,7.499446503647541e-05,0.0,0.0,0.0,0.0,0.0,0.0,0.0,0.0,0.0,0.00021119698738328047,-0.0057783240901855834,-0.00015803816588211088,0.0,0.0,0.0,0.0,0.0,0.0,0.0,0.0,0.0
9.811,276,9,811000000,base_footprint,-0.0035848176689552425,0.0014387685552015037,0.9274576160527792,0.37390834365258635,0.0,0.0,0.0,0.0,0.0,0.0,0.0,0.0,0.0,-0.00040751706706829285,-0.0002359275284575241,-0.024818312006623936,0.0,0.0,0.0,0.0,0.0,0.0,0.0,0.0,0.0,-0.013879065680245856,0.3302984765948193,-0.001524049905119334,0.0,0.0,0.0,0.0,0.0,0.0,0.0,0.0,0.0
9.845,277,9,845000000,base_footprint,-0.0035866110701988363,0.001442344184476225,0.9272967486855187,0.37430708748506314,0.0,0.0,0.0,0.0,0.0,0.0,0.0,0.0,0.0,0.00013131959849003658,-0.00026836992835464025,-0.02556041793601631,0.0,0.0,0.0,0.0,0.0,0.0,0.0,0.0,0.0,-0.0055409975473709495,-0.00724855809493439,-0.0006936867631179053,0.0,0.0,0.0,0.0,0.0,0.0,0.0,0.0,0.0
9.879,278,9,879000000,base_footprint,-0.0035888221112970638,0.0014457365645464384,0.9271306773181436,0.3747182106293206,0.0,0.0,0.0,0.0,0.0,0.0,0.0,0.0,0.0,0.00015614821996196078,-0.00027031402644849,-0.02662833725448903,0.0,0.0,0.0,0.0,0.0,0.0,0.0,0.0,0.0,-0.005673741460474075,-0.00423663117520646,-0.0001682757965954392,0.0,0.0,0.0,0.0,0.0,0.0,0.0,0.0,0.0
9.913,279,9,913000000,base_footprint,-0.0035831950121497386,0.0014462974450017646,0.9267110821436719,0.37575475934352476,0.0,0.0,0.0,0.0,0.0,0.0,0.0,0.0,0.0,0.0007602949512724388,-0.0013711463309818617,-0.11831089266665246,0.0,0.0,0.0,0.0,0.0,0.0,0.0,0.0,0.0,0.0014150588986907853,-0.4235118972873023,0.0036831317502162312,0.0,0.0,0.0,0.0,0.0,0.0,0.0,0.0,0.0
9.947,280,9,947000000,base_footprint,-0.003591970065160691,0.0014549500024142732,0.926394765597366,0.37653382204702784,0.0,0.0,0.0,0.0,0.0,0.0,0.0,0.0,0.0,0.00026394985570791835,-0.0004914588179275366,-0.026529183435257966,0.0,0.0,0.0,0.0,0.0,0.0,0.0,0.0,0.0,-0.019131643981463217,0.09409123805577657,-0.0021663727334832825,0.0,0.0,0.0,0.0,0.0,0.0,0.0,0.0,0.0
9.981,281,9,981000000,base_footprint,-0.00359152903944502,0.0014487092902122714,0.9261520879221005,0.3771303649907886,0.0,0.0,0.0,0.0,0.0,0.0,0.0,0.0,0.0,0.0003438335215850267,-0.00015108689333278875,-0.04923638715309277,0.0,0.0,0.0,0.0,0.0,0.0,0.0,0.0,0.0,-0.005108726508862748,0.03632658373237156,-0.0004219264805006392,0.0,0.0,0.0,0.0,0.0,0.0,0.0,0.0,0.0
10.015,282,10,15000000,base_footprint,-0.003589196832868475,0.0014418883005247057,0.9260462503385685,0.37739022358574864,0.0,0.0,0.0,0.0,0.0,0.0,0.0,0.0,0.0,-0.0009853476501738249,-0.00020529610830824296,0.010213468669612459,0.0,0.0,0.0,0.0,0.0,0.0,0.0,0.0,0.0,-0.003085733221815174,0.066716409477864,0.001141796852566533,0.0,0.0,0.0,0.0,0.0,0.0,0.0,0.0,0.0
10.049,283,10,49000000,base_footprint,-0.0035861634444279097,0.001453661494890581,0.926235731796679,0.3769249201672383,0.0,0.0,0.0,0.0,0.0,0.0,0.0,0.0,0.0,-0.0011936766212998352,0.00024724277448202425,0.045741655640065895,0.0,0.0,0.0,0.0,0.0,0.0,0.0,0.0,0.0,0.009954947269388847,-0.056770127662612524,0.0006999045693904155,0.0,0.0,0.0,0.0,0.0,0.0,0.0,0.0,0.0
10.083,284,10,83000000,base_footprint,-0.0035899730896623685,0.001448434718886338,0.9265891091508143,0.37605536418615443,0.0,0.0,0.0,0.0,0.0,0.0,0.0,0.0,0.0,-0.00032940047540200464,0.00022562724766492527,0.055330393787708175,0.0,0.0,0.0,0.0,0.0,0.0,0.0,0.0,0.0,0.006760774828071208,0.029541324737260444,-0.0007647734597227448,0.0,0.0,0.0,0.0,0.0,0.0,0.0,0.0,0.0
10.117,285,10,117000000,base_footprint,-0.003580129537130336,0.001450740290833608,0.9264518732496331,0.3763934172874863,0.0,0.0,0.0,0.0,0.0,0.0,0.0,0.0,0.0,0.0010312195380219017,0.00021474399984927866,-0.05835016665805541,0.0,0.0,0.0,0.0,0.0,0.0,0.0,0.0,0.0,-0.004461555438969346,-0.02460514251877382,-0.0018193941401855088,0.0,0.0,0.0,0.0,0.0,0.0,0.0,0.0,0.0
10.151,286,10,151000000,base_footprint,-0.00358689947970145,0.0014502609004603659,0.925991884068958,0.3775235906984682,0.0,0.0,0.0,0.0,0.0,0.0,0.0,0.0,0.0,0.00017539657179652652,-0.0002556675214497998,-0.07363931367572009,0.0,0.0,0.0,0.0,0.0,0.0,0.0,0.0,0.0,-0.014591862855729856,-0.04618065295769501,0.0016646205513694075,0.0,0.0,0.0,0.0,0.0,0.0,0.0,0.0,0.0
10.185,287,10,185000000,base_footprint,-0.0035820045410836047,0.0014544624192902107,0.9255173709520798,0.37868542333774746,0.0,0.0,0.0,0.0,0.0,0.0,0.0,0.0,0.0,-1.82879368561396e-05,-0.0005928052131748309,-0.07378788950835034,0.0,0.0,0.0,0.0,0.0,0.0,0.0,0.0,0.0,-0.015311109440976543,-0.004997903158376204,0.0005023653893446095,0.0,0.0,0.0,0.0,0.0,0.0,0.0,0.0,0.0
10.219,288,10,219000000,base_footprint,-0.0035780842649607643,0.001456334050977566,0.9253956012896302,0.37898292510076054,0.0,0.0,0.0,0.0,0.0,0.0,0.0,0.0,0.0,-0.00021049973908947512,-0.0002265090378862408,-0.016599597093903,0.0,0.0,0.0,0.0,0.0,0.0,0.0,0.0,0.0,-0.004971768381858978,0.009562192922128954,-0.00033053856713443513,0.0,0.0,0.0,0.0,0.0,0.0,0.0,0.0,0.0
10.253,289,10,253000000,base_footprint,-0.0035763552402536558,0.0014583842483793603,0.9252866088175323,0.3792489608971007,0.0,0.0,0.0,0.0,0.0,0.0,0.0,0.0,0.0,-9.578500506611214e-05,-0.0002096515420206135,-0.017115389647424924,0.0,0.0,0.0,0.0,0.0,0.0,0.0,0.0,0.0,-0.00374336927459595,-0.005695603099864757,-0.00019650842981755904,0.0,0.0,0.0,0.0,0.0,0.0,0.0,0.0,0.0
10.287,290,10,287000000,base_footprint,-0.0035802591194053083,0.0014611502134114008,0.9251747783160854,0.37952164148105455,0.0,0.0,0.0,0.0,0.0,0.0,0.0,0.0,0.0,0.0036588823991789933,0.001219761491652531,-0.014990586293497685,0.0,0.0,0.0,0.0,0.0,0.0,0.0,0.0,0.0,-0.0043673414370696065,0.05177729570414142,-0.0028266753597868278,0.0,0.0,0.0,0.0,0.0,0.0,0.0,0.0,0.0
10.321,291,10,321000000,base_footprint,-0.003577660535542973,0.0014632212869796898,0.9251160999484832,0.3796646690761018,0.0,0.0,0.0,0.0,0.0,0.0,0.0,0.0,0.0,-0.00040520799736429444,0.0001099843309559759,-0.007873596242177663,0.0,0.0,0.0,0.0,0.0,0.0,0.0,0.0,0.0,-0.00595588318011632,0.2848720306803895,0.0016479529865731527,0.0,0.0,0.0,0.0,0.0,0.0,0.0,0.0,0.0
10.355,292,10,355000000,base_footprint,-0.0035811101145560957,0.0014655986522370556,0.9250656881204621,0.3797874409892382,0.0,0.0,0.0,0.0,0.0,0.0,0.0,0.0,0.0,6.720770825057561e-05,-0.00015994043823910133,-0.008397264025613294,0.0,0.0,0.0,0.0,0.0,0.0,0.0,0.0,0.0,-0.002075743136260429,-0.008238174844222682,-0.0012406107179896884,0.0,0.0,0.0,0.0,0.0,0.0,0.0,0.0,0.0
10.389,293,10,389000000,base_footprint,-0.003583573664866704,0.0014663661360238035,0.9249985223498749,0.37995097239077,0.0,0.0,0.0,0.0,0.0,0.0,0.0,0.0,0.0,-0.0007142544240481338,0.0002486318171522662,-0.023653570404759194,0.0,0.0,0.0,0.0,0.0,0.0,0.0,0.0,0.0,-0.0019239096407639399,-0.05725313991716355,0.005173121926412164,0.0,0.0,0.0,0.0,0.0,0.0,0.0,0.0,0.0
10.423,294,10,423000000,base_footprint,-0.0035826193357304304,0.001465216670450139,0.9246548875076824,0.38078649790526875,0.0,0.0,0.0,0.0,0.0,0.0,0.0,0.0,0.0,7.479450683346557e-05,-0.0003986214502654233,-0.05132582788004118,0.0,0.0,0.0,0.0,0.0,0.0,0.0,0.0,0.0,-0.010055303846368047,-0.22228932420682,-0.0029466967326088602,0.0,0.0,0.0,0.0,0.0,0.0,0.0,0.0,0.0
10.457,295,10,457000000,base_footprint,-0.0035831215978761963,0.0014632124422012836,0.9243266218635521,0.38158264683195176,0.0,0.0,0.0,0.0,0.0,0.0,0.0,0.0,0.0,0.0006864875884701609,-0.0001451300107658079,-0.05741393002808018,0.0,0.0,0.0,0.0,0.0,0.0,0.0,0.0,0.0,-0.006263830401988531,0.01405761022618118,-0.001664860048589017,0.0,0.0,0.0,0.0,0.0,0.0,0.0,0.0,0.0
10.491,296,10,491000000,base_footprint,-0.003579950402819697,0.0014624763598473367,0.9239444330513547,0.3825071630066831,0.0,0.0,0.0,0.0,0.0,0.0,0.0,0.0,0.0,-0.00033007780116668737,-0.00010091922028366682,-0.04697572526374308,0.0,0.0,0.0,0.0,0.0,0.0,0.0,0.0,0.0,-0.015043325895885088,0.010554006704591397,0.00016521726667169498,0.0,0.0,0.0,0.0,0.0,0.0,0.0,0.0,0.0
10.525,297,10,525000000,base_footprint,-0.0035808536930203366,0.0014782942294714616,0.9238580982924164,0.38271556847418703,0.0,0.0,0.0,0.0,0.0,0.0,0.0,0.0,0.0,-0.00023634079949677779,-0.00017912642107584768,0.01438135444018191,0.0,0.0,0.0,0.0,0.0,0.0,0.0,0.0,0.0,-0.004980381718854452,-0.026127429294646787,0.0010507030332911475,0.0,0.0,0.0,0.0,0.0,0.0,0.0,0.0,0.0
10.559,298,10,559000000,base_footprint,-0.0035798477876013476,0.0014737140251038173,0.9239652075072231,0.38245693636398337,0.0,0.0,0.0,0.0,0.0,0.0,0.0,0.0,0.0,-1.2499572547875391e-05,8.734020549206991e-05,0.01248142550937813,0.0,0.0,0.0,0.0,0.0,0.0,0.0,0.0,0.0,0.00591330054304152,0.007831424114969806,1.8598037131597853e-05,0.0,0.0,0.0,0.0,0.0,0.0,0.0,0.0,0.0
10.593,299,10,593000000,base_footprint,-0.0035869407277412074,0.0014746176627151478,0.9239596573560908,0.38247027458010374,0.0,0.0,0.0,0.0,0.0,0.0,0.0,0.0,0.0,-0.005480601820347256,-0.0011021774613981649,-0.023954652651313715,0.0,0.0,0.0,0.0,0.0,0.0,0.0,0.0,0.0,0.0027653984340474252,0.1132646812798915,0.007080578869372331,0.0,0.0,0.0,0.0,0.0,0.0,0.0,0.0,0.0
10.627,300,10,627000000,base_footprint,-0.003578187347440408,0.0014726834709359014,0.9238390901108858,0.38276149670753434,0.0,0.0,0.0,0.0,0.0,0.0,0.0,0.0,0.0,-0.000564256780448559,0.00018012465005870696,0.003151917807173537,0.0,0.0,0.0,0.0,0.0,0.0,0.0,0.0,0.0,-0.00790190225043376,0.1916653824978206,-0.008114084772192873,0.0,0.0,0.0,0.0,0.0,0.0,0.0,0.0,0.0
10.661,301,10,661000000,base_footprint,-0.003575070305547372,0.0014706022091772726,0.9238503997243319,0.382734235639621,0.0,0.0,0.0,0.0,0.0,0.0,0.0,0.0,0.0,-0.0002252622571329437,8.91188929123198e-05,0.001651880136870519,0.0,0.0,0.0,0.0,0.0,0.0,0.0,0.0,0.0,0.00014600457056917386,-0.0031970188155340633,-0.0006666800754409332,0.0,0.0,0.0,0.0,0.0,0.0,0.0,0.0,0.0
10.695,302,10,695000000,base_footprint,-0.0035640757137920917,0.0014702266334014997,0.9238667724880995,0.3826948163881701,0.0,0.0,0.0,0.0,0.0,0.0,0.0,0.0,0.0,0.0010902528781829492,-0.0001697156603056571,0.007659807527882789,0.0,0.0,0.0,0.0,0.0,0.0,0.0,0.0,0.0,-0.0007728802239310023,-0.20051868605199064,1.105656660341166e-05,0.0,0.0,0.0,0.0,0.0,0.0,0.0,0.0,0.0
10.729,303,10,729000000,base_footprint,-0.0035701078422665667,0.0014726775007718202,0.9237608731597933,0.38295030326405255,0.0,0.0,0.0,0.0,0.0,0.0,0.0,0.0,0.0,-5.811215086515368e-05,-9.871089646028176e-05,-0.00427274625031368,0.0,0.0,0.0,0.0,0.0,0.0,0.0,0.0,0.0,-0.0038170691218923775,-0.1521126286472879,0.0018366376950391845,0.0,0.0,0.0,0.0,0.0,0.0,0.0,0.0,0.0
10.763,304,10,763000000,base_footprint,-0.003570384539935623,0.0014742850598558125,0.9237263173756455,0.3830336400702004,0.0,0.0,0.0,0.0,0.0,0.0,0.0,0.0,0.0,-8.993198337956113e-05,-0.0001358646727634285,-0.005624211437133985,0.0,0.0,0.0,0.0,0.0,0.0,0.0,0.0,0.0,2.335110577775983e-05,-0.006215707353056422,3.668161891002299e-05,0.0,0.0,0.0,0.0,0.0,0.0,0.0,0.0,0.0
10.797,305,10,797000000,base_footprint,-0.0035724102014923426,0.001471609366502638,0.9237001278164381,0.3830967842766642,0.0,0.0,0.0,0.0,0.0,0.0,0.0,0.0,0.0,7.748403756494369e-05,0.0003782392784028979,-0.00992784829501451,0.0,0.0,0.0,0.0,0.0,0.0,0.0,0.0,0.0,-0.0014880594690053345,0.2545747408825359,-0.0017804639158046757,0.0,0.0,0.0,0.0,0.0,0.0,0.0,0.0,0.0
10.831,306,10,831000000,base_footprint,-0.0035743349457030694,0.001479491735278228,0.9234766635117929,0.3836350963911257,0.0,0.0,0.0,0.0,0.0,0.0,0.0,0.0,0.0,0.0013629361343194676,-0.0006359882826822307,-0.02118378265517261,0.0,0.0,0.0,0.0,0.0,0.0,0.0,0.0,0.0,-0.007467148359099514,0.07341379353693911,-0.0019382815098570286,0.0,0.0,0.0,0.0,0.0,0.0,0.0,0.0,0.0
10.865,307,10,865000000,base_footprint,-0.0035778267329778218,0.001479943870617519,0.9234110435600932,0.38379298267851164,0.0,0.0,0.0,0.0,0.0,0.0,0.0,0.0,0.0,0.0008689768893019819,-0.0008175777993080079,0.009870847899189995,0.0,0.0,0.0,0.0,0.0,0.0,0.0,0.0,0.0,-0.0026652113820910695,0.004755327450162678,0.00044644237922077703,0.0,0.0,0.0,0.0,0.0,0.0,0.0,0.0,0.0
10.899000000000001,308,10,899000000,base_footprint,-0.003580228273600054,0.001481166295031138,0.9234608207681702,0.3836731690098918,0.0,0.0,0.0,0.0,0.0,0.0,0.0,0.0,0.0,-0.0001107417427625732,5.4397964388445994e-05,0.006503584284657667,0.0,0.0,0.0,0.0,0.0,0.0,0.0,0.0,0.0,0.0014292581028032341,0.001887488897313419,0.0009773450685182888,0.0,0.0,0.0,0.0,0.0,0.0,0.0,0.0,0.0
10.933,309,10,933000000,base_footprint,-0.003580181600957022,0.0014763513323129503,0.9234905174851051,0.3836017033350357,0.0,0.0,0.0,0.0,0.0,0.0,0.0,0.0,0.0,-0.0003512438800924786,0.0005363638373025745,0.0010809653827798331,0.0,0.0,0.0,0.0,0.0,0.0,0.0,0.0,0.0,0.00622760199061808,0.015399313935612911,0.0003420059255680589,0.0,0.0,0.0,0.0,0.0,0.0,0.0,0.0,0.0
10.967,310,10,967000000,base_footprint,-0.0035817701384771453,0.001475463435677273,0.9234235063729693,0.3837629760779119,0.0,0.0,0.0,0.0,0.0,0.0,0.0,0.0,0.0,-0.00026907160828378674,0.00022844374142363591,-0.013964230632731424,0.0,0.0,0.0,0.0,0.0,0.0,0.0,0.0,0.0,-0.006397858839521965,0.04382179846143372,0.00022061320903110545,0.0,0.0,0.0,0.0,0.0,0.0,0.0,0.0,0.0
11.001,311,11,1000000,base_footprint,-0.0035660626722618456,0.0014693531243219519,0.9234243224506217,0.38376118212375765,0.0,0.0,0.0,0.0,0.0,0.0,0.0,0.0,0.0,0.0007329772087213079,-0.0004633492376943457,0.02353132568040358,0.0,0.0,0.0,0.0,0.0,0.0,0.0,0.0,0.0,0.01426490747094884,-0.051920472761571065,-0.0007713503179383124,0.0,0.0,0.0,0.0,0.0,0.0,0.0,0.0,0.0
11.035,312,11,35000000,base_footprint,-0.003570283075896341,0.001479133390201218,0.9239149686072758,0.3825783527940241,0.0,0.0,0.0,0.0,0.0,0.0,0.0,0.0,0.0,0.0006244731429596625,-0.00010864343637138392,0.11355951998675948,0.0,0.0,0.0,0.0,0.0,0.0,0.0,0.0,0.0,-0.0026019200736170506,-0.10544526974861956,-0.0005090992688408615,0.0,0.0,0.0,0.0,0.0,0.0,0.0,0.0,0.0
11.069,313,11,69000000,base_footprint,-0.003563244047572539,0.0014728879852924748,0.9245249869404483,0.3811019317920132,0.0,0.0,0.0,0.0,0.0,0.0,0.0,0.0,0.0,0.0019281249381635718,0.0033569619939358966,0.07178543978063162,0.0,0.0,0.0,0.0,0.0,0.0,0.0,0.0,0.0,0.02312283579233712,-0.10125037944641424,-0.0033392846422702254,0.0,0.0,0.0,0.0,0.0,0.0,0.0,0.0,0.0
11.103,314,11,103000000,base_footprint,-0.00357695626719596,0.0014642751961654375,0.9247706361725087,0.3805053636351347,0.0,0.0,0.0,0.0,0.0,0.0,0.0,0.0,0.0,-0.0001978383933678334,-0.0013057385743797162,0.02482918736896665,0.0,0.0,0.0,0.0,0.0,0.0,0.0,0.0,0.0,0.010701475552146095,0.24349712570704918,0.004769732988266508,0.0,0.0,0.0,0.0,0.0,0.0,0.0,0.0,0.0
11.137,315,11,137000000,base_footprint,-0.0035782294530627783,0.001462533163175179,0.9249187389370148,0.3801452138773946,0.0,0.0,0.0,0.0,0.0,0.0,0.0,0.0,0.0,-0.0003559215641098358,0.00019255177229430891,0.022182572933644888,0.0,0.0,0.0,0.0,0.0,0.0,0.0,0.0,0.0,0.0030599834481036337,-0.012874787397829116,-0.00012421669704998643,0.0,0.0,0.0,0.0,0.0,0.0,0.0,0.0,0.0
11.171,316,11,171000000,base_footprint,-0.0035771951560965,0.00146089119085686,0.9250612961522241,0.3797981935619375,0.0,0.0,0.0,0.0,0.0,0.0,0.0,0.0,0.0,-0.0005248097806320208,-3.7595954271342605e-05,0.022025870611866262,0.0,0.0,0.0,0.0,0.0,0.0,0.0,0.0,0.0,0.0044694891064568495,-0.004405474392430393,0.0004998027774898373,0.0,0.0,0.0,0.0,0.0,0.0,0.0,0.0,0.0
11.205,317,11,205000000,base_footprint,-0.003570757346023888,0.0014593230233344533,0.9251787373521805,0.37951208679001874,0.0,0.0,0.0,0.0,0.0,0.0,0.0,0.0,0.0,0.0017088915189065299,0.0010701977474612003,-0.00865900021431807,0.0,0.0,0.0,0.0,0.0,0.0,0.0,0.0,0.0,0.008623947091687303,-0.3416745135887741,-0.0018353827001131979,0.0,0.0,0.0,0.0,0.0,0.0,0.0,0.0,0.0
11.239,318,11,239000000,base_footprint,-0.003574971439325688,0.0014622361698717072,0.9250949134860869,0.37971631843622555,0.0,0.0,0.0,0.0,0.0,0.0,0.0,0.0,0.0,-7.8915428924608e-05,-0.00017099644238632264,-0.013337856191179148,0.0,0.0,0.0,0.0,0.0,0.0,0.0,0.0,0.0,-0.002418404568940111,-0.019388230063002894,0.003360034822397654,0.0,0.0,0.0,0.0,0.0,0.0,0.0,0.0,0.0
11.273,319,11,273000000,base_footprint,-0.003575917174659163,0.001464487392999803,0.9250061955631921,0.3799323706434418,0.0,0.0,0.0,0.0,0.0,0.0,0.0,0.0,0.0,2.449498172298518e-05,-0.0001748498301886338,-0.01402938904687224,0.0,0.0,0.0,0.0,0.0,0.0,0.0,0.0,0.0,-0.0030930068846788,-0.005683255495276623,-0.0001971741048310008,0.0,0.0,0.0,0.0,0.0,0.0,0.0,0.0,0.0
11.307,320,11,307000000,base_footprint,-0.0035771529938683102,0.0014602410035748658,0.9250110182308067,0.37992063358585354,0.0,0.0,0.0,0.0,0.0,0.0,0.0,0.0,0.0,7.577317407829378e-05,0.0017540699832573876,0.02351834956188067,0.0,0.0,0.0,0.0,0.0,0.0,0.0,0.0,0.0,-0.008068523778295561,0.5042710680023347,-0.005126098315212458,0.0,0.0,0.0,0.0,0.0,0.0,0.0,0.0,0.0
11.341,321,11,341000000,base_footprint,-0.0035780057015554236,0.0014645581027688372,0.9248378452181649,0.38034196849280877,0.0,0.0,0.0,0.0,0.0,0.0,0.0,0.0,0.0,0.0004205940851866477,0.0006704967968215613,-0.025916021840751896,0.0,0.0,0.0,0.0,0.0,0.0,0.0,0.0,0.0,-0.0001779462274999477,-0.16585564416038032,0.0030570060781769234,0.0,0.0,0.0,0.0,0.0,0.0,0.0,0.0,0.0
11.375,322,11,375000000,base_footprint,-0.0035842112439332004,0.0014704702722092397,0.9246895709885006,0.380702230689604,0.0,0.0,0.0,0.0,0.0,0.0,0.0,0.0,0.0,0.00011248222889786138,-8.852516680404688e-05,-0.02452691521610241,0.0,0.0,0.0,0.0,0.0,0.0,0.0,0.0,0.0,-0.006827899148011133,-0.006155485675178049,-0.00018126112584604853,0.0,0.0,0.0,0.0,0.0,0.0,0.0,0.0,0.0
11.409,323,11,409000000,base_footprint,-0.0035856968357330025,0.0014753655169795342,0.9244251089940437,0.38134391818428665,0.0,0.0,0.0,0.0,0.0,0.0,0.0,0.0,0.0,-0.0004453971462626571,0.0003987420608138569,-0.05861110250064327,0.0,0.0,0.0,0.0,0.0,0.0,0.0,0.0,0.0,-0.006433627694649897,0.05715792185914812,0.0007615585437704834,0.0,0.0,0.0,0.0,0.0,0.0,0.0,0.0,0.0
11.443,324,11,443000000,base_footprint,-0.0035725125543260307,0.0014628539129487304,0.9237958928034601,0.3828658324425628,0.0,0.0,0.0,0.0,0.0,0.0,0.0,0.0,0.0,-0.0009280959345938381,-0.0016812163013740522,-0.14581424162818526,0.0,0.0,0.0,0.0,0.0,0.0,0.0,0.0,0.0,-0.01802606404355772,-0.09270937773468485,-0.0008136834618343769,0.0,0.0,0.0,0.0,0.0,0.0,0.0,0.0,0.0
11.477,325,11,477000000,base_footprint,-0.003573370967830999,0.001471436433124428,0.9228510702906667,0.3851375961369138,0.0,0.0,0.0,0.0,0.0,0.0,0.0,0.0,0.0,0.0003212022670986194,-0.0013407823296345263,-0.12336411091471372,0.0,0.0,0.0,0.0,0.0,0.0,0.0,0.0,0.0,-0.02356003650912565,-0.046150028590855645,0.0011840332032887239,0.0,0.0,0.0,0.0,0.0,0.0,0.0,0.0,0.0
11.511,326,11,511000000,base_footprint,-0.0035676817041352914,0.001491630058228726,0.9223313362960617,0.38638058022285326,0.0,0.0,0.0,0.0,0.0,0.0,0.0,0.0,0.0,0.00041870196561756274,-0.002747740254197206,-0.03886140552218087,0.0,0.0,0.0,0.0,0.0,0.0,0.0,0.0,0.0,-0.029495031974237106,-0.07630144749943829,-0.0007111083612825953,0.0,0.0,0.0,0.0,0.0,0.0,0.0,0.0,0.0
11.545,327,11,545000000,base_footprint,-0.0035599439490761756,0.0014967645295984773,0.9220061098113423,0.3871560666779965,0.0,0.0,0.0,0.0,0.0,0.0,0.0,0.0,0.0,0.0004708435537223105,-0.000384822130224058,-0.06798605706801755,0.0,0.0,0.0,0.0,0.0,0.0,0.0,0.0,0.0,-0.009463817276145672,-0.08148569903394685,0.001157383449113797,0.0,0.0,0.0,0.0,0.0,0.0,0.0,0.0,0.0
11.579,328,11,579000000,base_footprint,-0.003569425444264059,0.0014961277445252597,0.9214075924116232,0.3885782668266282,0.0,0.0,0.0,0.0,0.0,0.0,0.0,0.0,0.0,0.00012455820449389123,-0.0004693179830066828,-0.09894385200594014,0.0,0.0,0.0,0.0,0.0,0.0,0.0,0.0,0.0,-0.022879067554045236,-0.08613700193280893,0.00043756643666342755,0.0,0.0,0.0,0.0,0.0,0.0,0.0,0.0,0.0
