Time,header.seq,header.stamp.secs,header.stamp.nsecs,header.frame_id,orientation.x,orientation.y,orientation.z,orientation.w,orientation_covariance_0,orientation_covariance_1,orientation_covariance_2,orientation_covariance_3,orientation_covariance_4,orientation_covariance_5,orientation_covariance_6,orientation_covariance_7,orientation_covariance_8,angular_velocity.x,angular_velocity.y,angular_velocity.z,angular_velocity_covariance_0,angular_velocity_covariance_1,angular_velocity_covariance_2,angular_velocity_covariance_3,angular_velocity_covariance_4,angular_velocity_covariance_5,angular_velocity_covariance_6,angular_velocity_covariance_7,angular_velocity_covariance_8,linear_acceleration.x,linear_acceleration.y,linear_acceleration.z,linear_acceleration_covariance_0,linear_acceleration_covariance_1,linear_acceleration_covariance_2,linear_acceleration_covariance_3,linear_acceleration_covariance_4,linear_acceleration_covariance_5,linear_acceleration_covariance_6,linear_acceleration_covariance_7,linear_acceleration_covariance_8
0.191,0,0,190000000,base_footprint,-0.0009399992195042036,-0.0009275886438176795,-0.7079528345282616,0.7062584796405458,0.0,0.0,0.0,0.0,0.0,0.0,0.0,0.0,0.0,0.0008477610972250776,0.15725208481532496,-0.0004929989035538228,0.0,0.0,0.0,0.0,0.0,0.0,0.0,0.0,0.0,-0.0032022457166834715,-0.0003582068115719956,-0.1395151159109747,0.0,0.0,0.0,0.0,0.0,0.0,0.0,0.0,0.0
0.224,1,0,224000000,base_footprint,-0.0006913962845924705,-0.0006601935849935426,-0.7079535732361486,0.7062583268590731,0.0,0.0,0.0,0.0,0.0,0.0,0.0,0.0,0.0,0.0002199358450959074,-0.04766519905206569,4.053524000729066e-05,0.0,0.0,0.0,0.0,0.0,0.0,0.0,0.0,0.0,0.00202591090766111,0.0001485637524883029,0.005214459474864713,0.0,0.0,0.0,0.0,0.0,0.0,0.0,0.0,0.0
0.258,2,0,258000000,base_footprint,-0.00012138696307613703,-8.06216357009585e-05,-0.707954105190261,0.7062584255848661,0.0,0.0,0.0,0.0,0.0,0.0,0.0,0.0,0.0,0.00021480221457342158,-0.047642695582049574,6.191453907713609e-06,0.0,0.0,0.0,0.0,0.0,0.0,0.0,0.0,0.0,0.00020977238986519319,-0.00012128980327870002,6.60709207696689e-05,0.0,0.0,0.0,0.0,0.0,0.0,0.0,0.0,0.0
0.29200000000000004,3,0,292000000,base_footprint,0.0006390852637600886,0.0006933456529164742,-0.7079541189563178,0.7062577973336757,0.0,0.0,0.0,0.0,0.0,0.0,0.0,0.0,0.0,0.00028163475509054847,-0.06780640006677216,-0.0001505530034876768,0.0,0.0,0.0,0.0,0.0,0.0,0.0,0.0,0.0,0.0011871715959740833,1.8436232207006916e-05,0.002980274773908784,0.0,0.0,0.0,0.0,0.0,0.0,0.0,0.0,0.0
0.326,4,0,326000000,base_footprint,0.0014489901392836155,0.001516130264471416,-0.7079529631223257,0.7062564716750682,0.0,0.0,0.0,0.0,0.0,0.0,0.0,0.0,0.0,0.00027909900906061824,-0.06773045898685613,-0.000285588483281147,0.0,0.0,0.0,0.0,0.0,0.0,0.0,0.0,0.0,0.00023078510044837657,-4.0597759525291515e-05,0.00014937585674124477,0.0,0.0,0.0,0.0,0.0,0.0,0.0,0.0,0.0
0.36000000000000004,5,0,360000000,base_footprint,0.002257996549846082,0.002337982203838721,-0.707950721955059,0.7062543526054237,0.0,0.0,0.0,0.0,0.0,0.0,0.0,0.0,0.0,0.00027889838034417247,-0.06765356978196363,-0.00043471105060338184,0.0,0.0,0.0,0.0,0.0,0.0,0.0,0.0,0.0,0.0002329133565747882,-1.2434178895960406e-05,0.00015133527158880063,0.0,0.0,0.0,0.0,0.0,0.0,0.0,0.0,0.0
0.394,6,0,394000000,base_footprint,0.0027481202277652803,0.0027527553784414535,-0.7079532085957626,0.7062486280425648,0.0,0.0,0.0,0.0,0.0,0.0,0.0,0.0,0.0,0.0001661589220079071,0.029947853000837202,-0.00036877318108247993,0.0,0.0,0.0,0.0,0.0,0.0,0.0,0.0,0.0,-0.0069102982785169,-0.006441163753150921,0.13094226283622185,0.0,0.0,0.0,0.0,0.0,0.0,0.0,0.0,0.0
0.42800000000000005,7,0,428000000,base_footprint,0.0027279808916199537,0.002731603739342606,-0.7079570755532245,0.706244911935932,0.0,0.0,0.0,0.0,0.0,0.0,0.0,0.0,0.0,-4.520791896577528e-05,-0.00010391899623361835,7.015638698318248e-05,0.0,0.0,0.0,0.0,0.0,0.0,0.0,0.0,0.0,0.006251045684647633,0.005288376112379593,0.0007836028108006138,0.0,0.0,0.0,0.0,0.0,0.0,0.0,0.0,0.0
0.462,8,0,462000000,base_footprint,0.0027280452347686617,0.0027318543244279057,-0.7079547224716608,0.706247269496471,0.0,0.0,0.0,0.0,0.0,0.0,0.0,0.0,0.0,-2.844704475183236e-05,0.0001906820319584942,0.0002856521394489637,0.0,0.0,0.0,0.0,0.0,0.0,0.0,0.0,0.0,5.067018397279715e-05,-0.00041856431667058533,0.0002936893038540789,0.0,0.0,0.0,0.0,0.0,0.0,0.0,0.0,0.0
0.49700000000000005,9,0,496000000,base_footprint,0.0027279295744110713,0.0027318207304756295,-0.7079512118218436,0.7062507891929868,0.0,0.0,0.0,0.0,0.0,0.0,0.0,0.0,0.0,-3.100689409841139e-05,0.0001785647348111914,0.00032972715989486204,0.0,0.0,0.0,0.0,0.0,0.0,0.0,0.0,0.0,1.2546586781853567e-05,-8.659982478330225e-05,-1.905300940126912e-05,0.0,0.0,0.0,0.0,0.0,0.0,0.0,0.0,0.0
0.53,10,0,530000000,base_footprint,0.0027278874336862154,0.002731829634691416,-0.7079474148067683,0.7062545954579056,0.0,0.0,0.0,0.0,0.0,0.0,0.0,0.0,0.0,-3.1648500651036544e-05,0.00017657660616849353,0.00034118105441190735,0.0,0.0,0.0,0.0,0.0,0.0,0.0,0.0,0.0,3.212219165563255e-06,-2.2542238027200518e-05,-3.6053011169105946e-06,0.0,0.0,0.0,0.0,0.0,0.0,0.0,0.0,0.0
0.5640000000000001,11,0,564000000,base_footprint,0.002727862601849171,0.00273184587846585,-0.7079435430322962,0.7062584765244245,0.0,0.0,0.0,0.0,0.0,0.0,0.0,0.0,0.0,-3.185100236577567e-05,0.00017604389389774691,0.0003442201693593225,0.0,0.0,0.0,0.0,0.0,0.0,0.0,0.0,0.0,8.598835326850387e-07,-5.977312552456329e-06,-9.549853832168072e-07,0.0,0.0,0.0,0.0,0.0,0.0,0.0,0.0,0.0
0.5980000000000001,12,0,598000000,base_footprint,0.0027278426622611707,0.002731863862613957,-0.7079396513494115,0.7062623774784551,0.0,0.0,0.0,0.0,0.0,0.0,0.0,0.0,0.0,-3.1930175026486415e-05,0.00017590213817878094,0.0003450364664732907,0.0,0.0,0.0,0.0,0.0,0.0,0.0,0.0,0.0,2.381286127628526e-07,-1.6014776667704827e-06,-2.486510328233775e-07,0.0,0.0,0.0,0.0,0.0,0.0,0.0,0.0,0.0
0.632,13,0,632000000,base_footprint,0.0027278242512638975,0.0027318820729143782,-0.7079357542618829,0.706266283800135,0.0,0.0,0.0,0.0,0.0,0.0,0.0,0.0,0.0,-3.1974917315243516e-05,0.00017586395456713682,0.0003452649540613216,0.0,0.0,0.0,0.0,0.0,0.0,0.0,0.0,0.0,7.36739822460427e-08,-4.4427559755423057e-07,-6.220041045168367e-08,0.0,0.0,0.0,0.0,0.0,0.0,0.0,0.0,0.0
0.666,14,0,666000000,base_footprint,0.0027278064585802416,0.0027319001318070295,-0.7079318556049273,0.7062701916500219,0.0,0.0,0.0,0.0,0.0,0.0,0.0,0.0,0.0,-3.200881570344237e-05,0.00017585315200957473,0.0003453380167175281,0.0,0.0,0.0,0.0,0.0,0.0,0.0,0.0,0.0,3.0178317664773406e-08,-1.3825616268370697e-07,-1.3387153183487834e-08,0.0,0.0,0.0,0.0,0.0,0.0,0.0,0.0,0.0
0.7000000000000001,15,0,700000000,base_footprint,0.0027277890235616453,0.002731917959101742,-0.7079279563926963,0.706274100012855,0.0,0.0,0.0,0.0,0.0,0.0,0.0,0.0,0.0,-3.203826998254658e-05,0.00017584959408969416,0.0003453699851697513,0.0,0.0,0.0,0.0,0.0,0.0,0.0,0.0,0.0,1.867167142801191e-08,-5.7308559670835445e-08,-9.12143954895771e-10,0.0,0.0,0.0,0.0,0.0,0.0,0.0,0.0,0.0
0.7340000000000001,16,0,734000000,base_footprint,0.002727771859204093,0.0027319355514315836,-0.7079240568933878,0.7062780086201428,0.0,0.0,0.0,0.0,0.0,0.0,0.0,0.0,0.0,-3.2065118721225395e-05,0.00017584795571387563,0.000345391090229507,0.0,0.0,0.0,0.0,0.0,0.0,0.0,0.0,0.0,1.5625266432079608e-08,-3.587659317878011e-08,1.9945879044485753e-09,0.0,0.0,0.0,0.0,0.0,0.0,0.0,0.0,0.0
0.767,17,0,768000000,base_footprint,0.002727754926096926,0.002731952924085231,-0.7079201571779519,0.7062819174008547,0.0,0.0,0.0,0.0,0.0,0.0,0.0,0.0,0.0,-3.208998100728354e-05,0.0001758468286401018,0.00034540932534404194,0.0,0.0,0.0,0.0,0.0,0.0,0.0,0.0,0.0,1.4816708275501365e-08,-3.0184371785113624e-08,2.407743379826038e-09,0.0,0.0,0.0,0.0,0.0,0.0,0.0,0.0,0.0
0.802,18,0,802000000,base_footprint,0.002727738198937588,0.0027319700957809897,-0.707916257265179,0.7062858263361758,0.0,0.0,0.0,0.0,0.0,0.0,0.0,0.0,0.0,-3.21131410577678e-05,0.00017584583996923555,0.0003454268038350009,0.0,0.0,0.0,0.0,0.0,0.0,0.0,0.0,0.0,1.4600351561245673e-08,-2.8656194971735243e-08,2.194500041273348e-09,0.0,0.0,0.0,0.0,0.0,0.0,0.0,0.0,0.0
0.8360000000000001,19,0,836000000,base_footprint,0.002727721657535867,0.0027319870847805853,-0.7079123571600638,0.7062897354211018,0.0,0.0,0.0,0.0,0.0,0.0,0.0,0.0,0.0,-3.213478337837148e-05,0.00017584489109473338,0.0003454440844262286,0.0,0.0,0.0,0.0,0.0,0.0,0.0,0.0,0.0,1.4540992215435149e-08,-2.82314059107333e-08,1.8456312483494115e-09,0.0,0.0,0.0,0.0,0.0,0.0,0.0,0.0,0.0
0.8700000000000001,20,0,870000000,base_footprint,0.0027277052843077093,0.002732003907988494,-0.7079084568639503,0.7062936446542822,0.0,0.0,0.0,0.0,0.0,0.0,0.0,0.0,0.0,-3.215505585171226e-05,0.00017584395538294752,0.00034546131463643185,0.0,0.0,0.0,0.0,0.0,0.0,0.0,0.0,0.0,1.4523477466360122e-08,-2.8100210551105928e-08,1.4880966237795682e-09,0.0,0.0,0.0,0.0,0.0,0.0,0.0,0.0,0.0
0.904,21,0,904000000,base_footprint,0.0027276890634952327,0.0027320205808282053,-0.7079045563772136,0.7062975540353368,0.0,0.0,0.0,0.0,0.0,0.0,0.0,0.0,0.0,-3.217408770121881e-05,0.00017584302569414854,0.00034547853341701523,0.0,0.0,0.0,0.0,0.0,0.0,0.0,0.0,0.0,1.4517350468382306e-08,-2.804859256104518e-08,1.1527260284040182e-09,0.0,0.0,0.0,0.0,0.0,0.0,0.0,0.0,0.0
0.9380000000000001,22,0,938000000,base_footprint,0.0027276729808555626,0.00273203711731413,-0.7079006556999708,0.7063014635641431,0.0,0.0,0.0,0.0,0.0,0.0,0.0,0.0,0.0,-3.219199472944411e-05,0.00017584209984949722,0.0003454957509344156,0.0,0.0,0.0,0.0,0.0,0.0,0.0,0.0,0.0,1.451450957554514e-08,-2.801962156233128e-08,8.456441860611628e-10,0.0,0.0,0.0,0.0,0.0,0.0,0.0,0.0,0.0
0.9720000000000001,23,0,972000000,base_footprint,0.0027276570234822006,0.002732053530165255,-0.7078967548322681,0.7063053732406503,0.0,0.0,0.0,0.0,0.0,0.0,0.0,0.0,0.0,-3.2208881430651206e-05,0.00017584117708635213,0.0003455129697883995,0.0,0.0,0.0,0.0,0.0,0.0,0.0,0.0,0.0,1.451279420002065e-08,-2.7998148551307856e-08,5.662969625518564e-10,0.0,0.0,0.0,0.0,0.0,0.0,0.0,0.0,0.0
1.006,24,1,6000000,base_footprint,0.0027276411796712204,0.0027320698309203895,-0.7078928537741302,0.7063092830648284,0.0,0.0,0.0,0.0,0.0,0.0,0.0,0.0,0.0,-3.2224842786513614e-05,0.00017584025704792805,0.0003455301905744444,0.0,0.0,0.0,0.0,0.0,0.0,0.0,0.0,0.0,1.4511603360388296e-08,-2.7980020596152594e-08,3.128454988387359e-10,0.0,0.0,0.0,0.0,0.0,0.0,0.0,0.0,0.0
1.04,25,1,40000000,base_footprint,0.002727625438806589,0.002732086030046939,-0.7078889525255748,0.7063131930366547,0.0,0.0,0.0,0.0,0.0,0.0,0.0,0.0,0.0,-3.223996471970724e-05,0.00017583933943797513,0.00034554741340553244,0.0,0.0,0.0,0.0,0.0,0.0,0.0,0.0,0.0,1.4510771726901288e-08,-2.7964073930583098e-08,8.271355782627831e-11,0.0,0.0,0.0,0.0,0.0,0.0,0.0,0.0,0.0
1.074,26,1,74000000,base_footprint,0.0027276097912588256,0.0027321021370399373,-0.7078850510866155,0.7063171031561104,0.0,0.0,0.0,0.0,0.0,0.0,0.0,0.0,0.0,-3.2254325200832646e-05,0.00017583842396100058,0.0003455646381429751,0.0,0.0,0.0,0.0,0.0,0.0,0.0,0.0,0.0,1.4510198704540862e-08,-2.7949638534397794e-08,-1.260716602900633e-10,0.0,0.0,0.0,0.0,0.0,0.0,0.0,0.0,0.0
1.108,27,1,108000000,base_footprint,0.0027275942282928454,0.002732118160512436,-0.707881149457263,0.7063210134231793,0.0,0.0,0.0,0.0,0.0,0.0,0.0,0.0,0.0,-3.2267995084047125e-05,0.0001758375103965753,0.0003455818647834745,0.0,0.0,0.0,0.0,0.0,0.0,0.0,0.0,0.0,1.4509893207929638e-08,-2.793681436023915e-08,-3.1566469293573465e-10,0.0,0.0,0.0,0.0,0.0,0.0,0.0,0.0,0.0
1.142,28,1,142000000,base_footprint,0.0027275787419852363,0.0027321341082774675,-0.7078772476375261,0.7063249238378477,0.0,0.0,0.0,0.0,0.0,0.0,0.0,0.0,0.0,-3.2281038487711104e-05,0.00017583659862070532,0.0003455990932042285,0.0,0.0,0.0,0.0,0.0,0.0,0.0,0.0,0.0,1.4509794989741663e-08,-2.792521438054215e-08,-4.873278702362929e-10,0.0,0.0,0.0,0.0,0.0,0.0,0.0,0.0,0.0
1.176,29,1,176000000,base_footprint,0.0027275633251481555,0.00273214998742209,-0.7078733456274117,0.7063288344001034,0.0,0.0,0.0,0.0,0.0,0.0,0.0,0.0,0.0,-3.229351367282663e-05,0.00017583568849888133,0.0003456163233671888,0.0,0.0,0.0,0.0,0.0,0.0,0.0,0.0,0.0,1.4509905055588498e-08,-2.791486965305756e-08,-6.432288264612897e-10,0.0,0.0,0.0,0.0,0.0,0.0,0.0,0.0,0.0
1.21,30,1,210000000,base_footprint,0.0027275479712617337,0.0027321658043749156,-0.7078694434269247,0.706332745109936,0.0,0.0,0.0,0.0,0.0,0.0,0.0,0.0,0.0,-3.2305473486015e-05,0.00017583477980881055,0.0003456335551738389,0.0,0.0,0.0,0.0,0.0,0.0,0.0,0.0,0.0,1.4510189632607516e-08,-2.7905538940782445e-08,-7.848386037660794e-10,0.0,0.0,0.0,0.0,0.0,0.0,0.0,0.0,0.0
1.244,31,1,244000000,base_footprint,0.002727532674411705,0.0027321815649676245,-0.7078655410360686,0.706336655967337,0.0,0.0,0.0,0.0,0.0,0.0,0.0,0.0,0.0,-3.231696571075711e-05,0.00017583387230991698,0.00034565078859407814,0.0,0.0,0.0,0.0,0.0,0.0,0.0,0.0,0.0,1.4510650632814714e-08,-2.7897240441568124e-08,-9.132848075007207e-10,0.0,0.0,0.0,0.0,0.0,0.0,0.0,0.0,0.0
1.278,32,1,278000000,base_footprint,0.0027275174292330476,0.002732197274489864,-0.7078616384548452,0.7063405669722989,0.0,0.0,0.0,0.0,0.0,0.0,0.0,0.0,0.0,-3.2328033930384604e-05,0.0001758329660195554,0.00034566802349947346,0.0,0.0,0.0,0.0,0.0,0.0,0.0,0.0,0.0,1.4511234852474325e-08,-2.7889688392493693e-08,-1.0295501116812974e-09,0.0,0.0,0.0,0.0,0.0,0.0,0.0,0.0,0.0
1.312,33,1,312000000,base_footprint,0.0027241956074065305,0.0027286035849753195,-0.7078585937421416,0.7063436449393217,0.0,0.0,0.0,0.0,0.0,0.0,0.0,0.0,0.0,-3.617714299021082e-05,-0.00015658950857747834,-0.00013485700920787632,0.0,0.0,0.0,0.0,0.0,0.0,0.0,0.0,0.0,-0.5056171187460581,0.002017496359272286,-0.0003826516284614721,0.0,0.0,0.0,0.0,0.0,0.0,0.0,0.0,0.0
1.346,34,1,346000000,base_footprint,0.0027244312936421937,0.00272882807648756,-0.7078670249248785,0.7063351937964416,0.0,0.0,0.0,0.0,0.0,0.0,0.0,0.0,0.0,-3.554702486756198e-05,0.00024664850277368654,-0.0010083286852833606,0.0,0.0,0.0,0.0,0.0,0.0,0.0,0.0,0.0,-0.7865355481469115,0.0034024128725903546,0.000454294122898348,0.0,0.0,0.0,0.0,0.0,0.0,0.0,0.0,0.0
1.38,35,1,380000000,base_footprint,0.0027248959484351583,0.002729236212111619,-0.7078864360949669,0.7063157366252965,0.0,0.0,0.0,0.0,0.0,0.0,0.0,0.0,0.0,-3.492626372954071e-05,0.0003030974330833123,-0.0019923128616300173,0.0,0.0,0.0,0.0,0.0,0.0,0.0,0.0,0.0,-0.7862539924946286,0.00365744701681614,7.27831057900901e-05,0.0,0.0,0.0,0.0,0.0,0.0,0.0,0.0,0.0
1.4140000000000001,36,1,414000000,base_footprint,0.00272569725446682,0.002729922999265731,-0.7079181248642753,0.7062839702156235,0.0,0.0,0.0,0.0,0.0,0.0,0.0,0.0,0.0,-3.3596252659793744e-05,0.0002919380197131753,-0.00306728367407571,0.0,0.0,0.0,0.0,0.0,0.0,0.0,0.0,0.0,-0.7778537210314609,0.0038849228798029656,-1.209122333636339e-06,0.0,0.0,0.0,0.0,0.0,0.0,0.0,0.0,0.0
1.448,37,1,448000000,base_footprint,0.002726786289288745,0.0027308213867874957,-0.7079636913136531,0.7062382877135963,0.0,0.0,0.0,0.0,0.0,0.0,0.0,0.0,0.0,-3.3172374602047285e-05,0.00030200162468380076,-0.00430333193378736,0.0,0.0,0.0,0.0,0.0,0.0,0.0,0.0,0.0,-0.7510651524697989,0.0042329227954447934,2.562860931583865e-05,0.0,0.0,0.0,0.0,0.0,0.0,0.0,0.0,0.0
1.482,38,1,482000000,base_footprint,0.002728290943779732,0.0027320317491659,-0.708025318122178,0.7061764944608653,0.0,0.0,0.0,0.0,0.0,0.0,0.0,0.0,0.0,-3.3204313977875426e-05,0.000278808440298146,-0.005739970603673502,0.0,0.0,0.0,0.0,0.0,0.0,0.0,0.0,0.0,-0.6919539729207853,0.004598914885430738,-6.308131598285445e-06,0.0,0.0,0.0,0.0,0.0,0.0,0.0,0.0,0.0
1.516,39,1,516000000,base_footprint,0.002730193605131748,0.0027334829062566762,-0.7081046569950704,0.7060969259641154,0.0,0.0,0.0,0.0,0.0,0.0,0.0,0.0,0.0,-3.414530099603579e-05,0.0002079254040200998,-0.007293771491918559,0.0,0.0,0.0,0.0,0.0,0.0,0.0,0.0,0.0,-0.5892517377962594,0.004690187530935086,-4.8795719038509855e-05,0.0,0.0,0.0,0.0,0.0,0.0,0.0,0.0,0.0
1.55,40,1,550000000,base_footprint,0.002732241500730464,0.0027348868014390754,-0.7082017867461865,0.7059994932718253,0.0,0.0,0.0,0.0,0.0,0.0,0.0,0.0,0.0,-3.591891147204756e-05,0.00012915132146429673,-0.008796816134377187,0.0,0.0,0.0,0.0,0.0,0.0,0.0,0.0,0.0,-0.4410894312058893,0.004292562450523313,-5.498735224353083e-05,0.0,0.0,0.0,0.0,0.0,0.0,0.0,0.0,0.0
1.584,41,1,584000000,base_footprint,0.0027334195126707357,0.002735059368373802,-0.7083257087034417,0.7058751576998489,0.0,0.0,0.0,0.0,0.0,0.0,0.0,0.0,0.0,-4.690495440325807e-05,0.00041283796987331127,-0.012378770408711954,0.0,0.0,0.0,0.0,0.0,0.0,0.0,0.0,0.0,-0.257089729268885,0.0078454161882303,0.0005640681326465267,0.0,0.0,0.0,0.0,0.0,0.0,0.0,0.0,0.0
1.6179999999999999,42,1,618000000,base_footprint,0.002729986163895183,0.0027307311776352807,-0.7085114438712541,0.7056887587217551,0.0,0.0,0.0,0.0,0.0,0.0,0.0,0.0,0.0,-0.0003953893564963178,0.0011353619697544216,-0.019190730615908112,0.0,0.0,0.0,0.0,0.0,0.0,0.0,0.0,0.0,-0.0487543899594238,0.01340683359347837,0.001447188694767392,0.0,0.0,0.0,0.0,0.0,0.0,0.0,0.0,0.0
1.6520000000000001,43,1,652000000,base_footprint,0.0027226457982624445,0.0027198894392740135,-0.7086630325390046,0.7055366012574522,0.0,0.0,0.0,0.0,0.0,0.0,0.0,0.0,0.0,0.00025821699283342867,-0.0002651286603354036,-0.005829772116433739,0.0,0.0,0.0,0.0,0.0,0.0,0.0,0.0,0.0,-0.030291668277513645,-0.02577978732349761,-0.003581724957493814,0.0,0.0,0.0,0.0,0.0,0.0,0.0,0.0,0.0
1.686,44,1,686000000,base_footprint,0.002725744334546567,0.002723232553897333,-0.7087942061518142,0.7054047970122544,0.0,0.0,0.0,0.0,0.0,0.0,0.0,0.0,0.0,-2.6350882370572824e-05,0.0002304193509155012,-0.01316801180486113,0.0,0.0,0.0,0.0,0.0,0.0,0.0,0.0,0.0,-0.21035602447724033,0.015251954504827941,0.0016109928480153267,0.0,0.0,0.0,0.0,0.0,0.0,0.0,0.0,0.0
1.7200000000000002,45,1,720000000,base_footprint,0.0027353817028001742,0.002722895090157202,-0.7090256274240229,0.7051721514532736,0.0,0.0,0.0,0.0,0.0,0.0,0.0,0.0,0.0,0.00014868826089168197,0.0011166391215664774,-0.04422416729268877,0.0,0.0,0.0,0.0,0.0,0.0,0.0,0.0,0.0,-0.3179894897045145,0.00861055490809401,0.0008015378831996222,0.0,0.0,0.0,0.0,0.0,0.0,0.0,0.0,0.0
1.754,46,1,754000000,base_footprint,0.0027400227506727787,0.0027260166401352304,-0.7101619617030545,0.7040277333022279,0.0,0.0,0.0,0.0,0.0,0.0,0.0,0.0,0.0,0.001288925937022295,-0.0020086813434389253,-0.1443051278659089,0.0,0.0,0.0,0.0,0.0,0.0,0.0,0.0,0.0,-0.29749776883341617,0.02369229075643675,-0.005608857255336238,0.0,0.0,0.0,0.0,0.0,0.0,0.0,0.0,0.0
1.788,47,1,788000000,base_footprint,0.002745059575388997,0.0027193386615304337,-0.7119009224291074,0.7022692834588152,0.0,0.0,0.0,0.0,0.0,0.0,0.0,0.0,0.0,-5.416620464604709e-05,0.0014465820371145606,-0.14559685491804097,0.0,0.0,0.0,0.0,0.0,0.0,0.0,0.0,0.0,-0.007384278918900427,0.03259633767500187,0.0057570568378821,0.0,0.0,0.0,0.0,0.0,0.0,0.0,0.0,0.0
1.822,48,1,822000000,base_footprint,0.002750355183416237,0.0027102174787882955,-0.7137073487999473,0.7004333733743225,0.0,0.0,0.0,0.0,0.0,0.0,0.0,0.0,0.0,-3.564644038224089e-05,0.0013289449326611665,-0.15659290116338614,0.0,0.0,0.0,0.0,0.0,0.0,0.0,0.0,0.0,0.3246164156580553,0.020770344013059328,-0.00016950166635047758,0.0,0.0,0.0,0.0,0.0,0.0,0.0,0.0,0.0
1.856,49,1,856000000,base_footprint,0.002756949551386955,0.0027034694068606892,-0.7154275241164018,0.6986762828513736,0.0,0.0,0.0,0.0,0.0,0.0,0.0,0.0,0.0,-3.779665056622653e-06,0.0012920957739650637,-0.14420576472152058,0.0,0.0,0.0,0.0,0.0,0.0,0.0,0.0,0.0,0.007734071542704205,0.030650685475915228,0.0002994742597019403,0.0,0.0,0.0,0.0,0.0,0.0,0.0,0.0,0.0
1.8900000000000001,50,1,890000000,base_footprint,0.0027639418537612624,0.0026976290848293068,-0.7171407969144337,0.6969176140862569,0.0,0.0,0.0,0.0,0.0,0.0,0.0,0.0,0.0,2.1482830279474156e-05,0.001226973908979866,-0.14469006161869036,0.0,0.0,0.0,0.0,0.0,0.0,0.0,0.0,0.0,-0.0038316662566251943,0.03074213009803869,8.553472473490303e-05,0.0,0.0,0.0,0.0,0.0,0.0,0.0,0.0,0.0
1.924,51,1,924000000,base_footprint,0.002771151709641795,0.0026941433022819473,-0.7186439824025456,0.6953674488115464,0.0,0.0,0.0,0.0,0.0,0.0,0.0,0.0,0.0,3.516548756584762e-05,0.000879910636017162,-0.12084564223265123,0.0,0.0,0.0,0.0,0.0,0.0,0.0,0.0,0.0,-0.33764024312873386,0.04968219117459821,-1.8173929777689428e-05,0.0,0.0,0.0,0.0,0.0,0.0,0.0,0.0,0.0
1.9580000000000002,52,1,958000000,base_footprint,0.0027792733933941745,0.0026918927399100664,-0.7200717760006685,0.6938887999961699,0.0,0.0,0.0,0.0,0.0,0.0,0.0,0.0,0.0,5.44689857182509e-06,0.0007496605447084868,-0.12178190983784565,0.0,0.0,0.0,0.0,0.0,0.0,0.0,0.0,0.0,-0.0029062433107425803,0.02475846467923441,-0.00020752149785039937,0.0,0.0,0.0,0.0,0.0,0.0,0.0,0.0,0.0
1.992,53,1,992000000,base_footprint,0.002788884090270773,0.0026906058932141975,-0.7215075794369857,0.6923956929245302,0.0,0.0,0.0,0.0,0.0,0.0,0.0,0.0,0.0,-0.00022151063405186235,0.0008458588557126329,-0.11809294199377748,0.0,0.0,0.0,0.0,0.0,0.0,0.0,0.0,0.0,-0.00036351631808055444,0.029618722689323137,0.0005980728698192718,0.0,0.0,0.0,0.0,0.0,0.0,0.0,0.0,0.0
2.026,54,2,26000000,base_footprint,0.0027960633997384356,0.0026877881939908746,-0.7228452645991479,0.6909990457813071,0.0,0.0,0.0,0.0,0.0,0.0,0.0,0.0,0.0,4.252128443186552e-05,0.0008532652919604156,-0.11325029603545667,0.0,0.0,0.0,0.0,0.0,0.0,0.0,0.0,0.0,0.008103700874181287,0.025437825268211,-7.694036684653089e-06,0.0,0.0,0.0,0.0,0.0,0.0,0.0,0.0,0.0
2.06,55,2,60000000,base_footprint,0.0028018726445048873,0.0026815995982459374,-0.724170638198954,0.6896099225676777,0.0,0.0,0.0,0.0,0.0,0.0,0.0,0.0,0.0,-0.000313057992322375,0.0013471792550698064,-0.11295276142864158,0.0,0.0,0.0,0.0,0.0,0.0,0.0,0.0,0.0,0.009234793041274676,0.02240528541414624,0.00114590402717331,0.0,0.0,0.0,0.0,0.0,0.0,0.0,0.0,0.0
2.094,56,2,94000000,base_footprint,0.002807102903456697,0.0026738857270185218,-0.7255040412916354,0.6882069867255879,0.0,0.0,0.0,0.0,0.0,0.0,0.0,0.0,0.0,0.001441509227178301,0.0013672608598948408,-0.110744865970782,0.0,0.0,0.0,0.0,0.0,0.0,0.0,0.0,0.0,0.02283379750363182,0.024839220913398064,0.0015169989785046556,0.0,0.0,0.0,0.0,0.0,0.0,0.0,0.0,0.0
2.128,57,2,128000000,base_footprint,0.0028038989160863413,0.002672911965994063,-0.7267166670044114,0.686926400417461,0.0,0.0,0.0,0.0,0.0,0.0,0.0,0.0,0.0,0.00016227111255978015,0.00024086929267624522,-0.11842731086792987,0.0,0.0,0.0,0.0,0.0,0.0,0.0,0.0,0.0,0.08423742485662059,0.015654812041779917,-0.0036448569401017683,0.0,0.0,0.0,0.0,0.0,0.0,0.0,0.0,0.0
2.162,58,2,162000000,base_footprint,0.002805411707133204,0.0026643941774678196,-0.7281101038525036,0.6854492740799402,0.0,0.0,0.0,0.0,0.0,0.0,0.0,0.0,0.0,0.0003991121684644045,0.0010817098267268989,-0.11214335793563066,0.0,0.0,0.0,0.0,0.0,0.0,0.0,0.0,0.0,-0.013226902557350536,0.024025355439798706,0.003206399806104706,0.0,0.0,0.0,0.0,0.0,0.0,0.0,0.0,0.0
2.196,59,2,196000000,base_footprint,0.002825203612821198,0.0026607704076826734,-0.7292298328879969,0.6842578383559283,0.0,0.0,0.0,0.0,0.0,0.0,0.0,0.0,0.0,0.0012544754068955874,0.003960130141817722,-0.07880985574107591,0.0,0.0,0.0,0.0,0.0,0.0,0.0,0.0,0.0,0.06469072824874444,0.01621498393357501,0.00648174865338979,0.0,0.0,0.0,0.0,0.0,0.0,0.0,0.0,0.0
2.23,60,2,230000000,base_footprint,0.0028037570846294667,0.002642225370744152,-0.730267396521428,0.6831505596639119,0.0,0.0,0.0,0.0,0.0,0.0,0.0,0.0,0.0,0.0006527313154805359,-0.0040576585609733255,-0.13959626086982024,0.0,0.0,0.0,0.0,0.0,0.0,0.0,0.0,0.0,0.34667605406469537,-0.033405959385172546,-0.014361488561804147,0.0,0.0,0.0,0.0,0.0,0.0,0.0,0.0,0.0
2.2640000000000002,61,2,264000000,base_footprint,0.002820863840370603,0.002642499414564752,-0.731440956067643,0.6818938243677608,0.0,0.0,0.0,0.0,0.0,0.0,0.0,0.0,0.0,-0.00010276107463089084,0.0008163501988203786,-0.08793343443094576,0.0,0.0,0.0,0.0,0.0,0.0,0.0,0.0,0.0,-0.12529432697394735,0.04097738166077971,0.007392880616615109,0.0,0.0,0.0,0.0,0.0,0.0,0.0,0.0,0.0
2.298,62,2,298000000,base_footprint,0.002816274633747567,0.0026321614803646817,-0.732492661169523,0.6807640131910021,0.0,0.0,0.0,0.0,0.0,0.0,0.0,0.0,0.0,-0.0001005857227473324,-0.0008213268083696729,-0.10969440822080342,0.0,0.0,0.0,0.0,0.0,0.0,0.0,0.0,0.0,-0.1658729121393382,0.04375732378985964,-0.001718656554893767,0.0,0.0,0.0,0.0,0.0,0.0,0.0,0.0,0.0
2.332,63,2,332000000,base_footprint,0.0028260693087252737,0.0026336075604831114,-0.7333898651318133,0.6797973103546531,0.0,0.0,0.0,0.0,0.0,0.0,0.0,0.0,0.0,2.7304250615332138e-05,0.000579847345975883,-0.06656054438831516,0.0,0.0,0.0,0.0,0.0,0.0,0.0,0.0,0.0,-0.17140854184046928,0.04395801606490354,0.002091925250825158,0.0,0.0,0.0,0.0,0.0,0.0,0.0,0.0,0.0
2.366,64,2,366000000,base_footprint,0.0028290682811403668,0.0026316063318264703,-0.7341606300526958,0.6789648299443822,0.0,0.0,0.0,0.0,0.0,0.0,0.0,0.0,0.0,7.927373131683303e-05,0.0006112461947785277,-0.06691134891098498,0.0,0.0,0.0,0.0,0.0,0.0,0.0,0.0,0.0,-0.0031111096867665186,0.01571701992133557,5.534451306492364e-05,0.0,0.0,0.0,0.0,0.0,0.0,0.0,0.0,0.0
2.4,65,2,400000000,base_footprint,0.0028332730418079914,0.0026315559144501326,-0.7349150453042408,0.6781481576048153,0.0,0.0,0.0,0.0,0.0,0.0,0.0,0.0,0.0,0.0001241373496178783,0.0004918531157864259,-0.0607593406852814,0.0,0.0,0.0,0.0,0.0,0.0,0.0,0.0,0.0,-0.0009654491885330444,0.015328970448847068,-0.00016687998516465378,0.0,0.0,0.0,0.0,0.0,0.0,0.0,0.0,0.0
2.434,66,2,434000000,base_footprint,0.0028379100513804996,0.0026320221344028616,-0.7356178445642796,0.6773857139655574,0.0,0.0,0.0,0.0,0.0,0.0,0.0,0.0,0.0,0.00018363124450663815,0.00033180862774020173,-0.06096809141097184,0.0,0.0,0.0,0.0,0.0,0.0,0.0,0.0,0.0,-0.002306468794408217,0.014043167417570642,-0.00020844894541653262,0.0,0.0,0.0,0.0,0.0,0.0,0.0,0.0,0.0
2.468,67,2,468000000,base_footprint,0.0028436434062910714,0.0026321526615852796,-0.7363147411964038,0.6766281012206165,0.0,0.0,0.0,0.0,0.0,0.0,0.0,0.0,0.0,6.429180966854342e-05,0.00038017645248369935,-0.059780990518619015,0.0,0.0,0.0,0.0,0.0,0.0,0.0,0.0,0.0,0.0009777467265146209,0.013928881321932974,0.0001967734007550424,0.0,0.0,0.0,0.0,0.0,0.0,0.0,0.0,0.0
2.502,68,2,502000000,base_footprint,0.002840947329481851,0.0026240013750491523,-0.737085773497642,0.6757881370240512,0.0,0.0,0.0,0.0,0.0,0.0,0.0,0.0,0.0,0.00012090673447604281,-0.0005651656340400493,-0.10259535655437246,0.0,0.0,0.0,0.0,0.0,0.0,0.0,0.0,0.0,0.15113187791502924,-0.012379764069582064,-0.0009956022648686643,0.0,0.0,0.0,0.0,0.0,0.0,0.0,0.0,0.0
2.536,69,2,536000000,base_footprint,0.002860482089165747,0.002625973481071683,-0.7386475213137117,0.6740806785263942,0.0,0.0,0.0,0.0,0.0,0.0,0.0,0.0,0.0,-4.0376500066305335e-06,0.0004929972490999671,-0.13584338279090505,0.0,0.0,0.0,0.0,0.0,0.0,0.0,0.0,0.0,0.17340614569149185,-0.008583681527163267,-2.403954225639154e-05,0.0,0.0,0.0,0.0,0.0,0.0,0.0,0.0,0.0
2.5700000000000003,70,2,570000000,base_footprint,0.0028652273406591148,0.0026153822887176334,-0.7402014691439534,0.6723739549721595,0.0,0.0,0.0,0.0,0.0,0.0,0.0,0.0,0.0,-1.3217678776344206e-05,0.0017249370505266646,-0.13152935405589256,0.0,0.0,0.0,0.0,0.0,0.0,0.0,0.0,0.0,0.02041284648381773,0.031246862598751105,0.0027664824212470375,0.0,0.0,0.0,0.0,0.0,0.0,0.0,0.0,0.0
2.604,71,2,604000000,base_footprint,0.00286790301134609,0.002604651744061857,-0.7415592937708517,0.6708761470969775,0.0,0.0,0.0,0.0,0.0,0.0,0.0,0.0,0.0,-0.0004483634491668083,0.0003533154474438192,-0.08982959239136218,0.0,0.0,0.0,0.0,0.0,0.0,0.0,0.0,0.0,0.1351507907933472,-0.006469974949994864,-0.0013655694583044112,0.0,0.0,0.0,0.0,0.0,0.0,0.0,0.0,0.0
2.638,72,2,638000000,base_footprint,0.0028582321974883825,0.002598934027238053,-0.7422354950534319,0.6701280071250673,0.0,0.0,0.0,0.0,0.0,0.0,0.0,0.0,0.0,0.001267007210796996,-0.0013628662127336626,-0.08335979728225539,0.0,0.0,0.0,0.0,0.0,0.0,0.0,0.0,0.0,0.09986763645756054,-0.005991209431876254,-0.0030511555563272376,0.0,0.0,0.0,0.0,0.0,0.0,0.0,0.0,0.0
2.672,73,2,672000000,base_footprint,0.0028576559730642674,0.002596292681307543,-0.7431123957848534,0.669155482901805,0.0,0.0,0.0,0.0,0.0,0.0,0.0,0.0,0.0,1.5457840152572158e-06,0.0008244213302350567,-0.06399410308118414,0.0,0.0,0.0,0.0,0.0,0.0,0.0,0.0,0.0,-0.04068766888662631,0.025667475598353407,0.004004140957444202,0.0,0.0,0.0,0.0,0.0,0.0,0.0,0.0,0.0
2.706,74,2,706000000,base_footprint,0.0028582391316465945,0.0025852769750497667,-0.7438041726477337,0.6683864896628665,0.0,0.0,0.0,0.0,0.0,0.0,0.0,0.0,0.0,9.652530722849755e-05,0.0012564558658594862,-0.10176867571559808,0.0,0.0,0.0,0.0,0.0,0.0,0.0,0.0,0.0,-0.2783184330142495,0.07310671829432591,0.0005467088342671302,0.0,0.0,0.0,0.0,0.0,0.0,0.0,0.0,0.0
2.739,75,2,740000000,base_footprint,0.0028748363651618083,0.002585461995570099,-0.7451003779440071,0.6669411349510846,0.0,0.0,0.0,0.0,0.0,0.0,0.0,0.0,0.0,0.0005109826456865334,0.0015839749883870846,-0.10412649166328886,0.0,0.0,0.0,0.0,0.0,0.0,0.0,0.0,0.0,-0.21020738041930453,0.07193253365518697,0.000744172250938552,0.0,0.0,0.0,0.0,0.0,0.0,0.0,0.0,0.0
2.774,76,2,774000000,base_footprint,0.002877774485893634,0.002579678372176571,-0.746278220611434,0.6656229271250627,0.0,0.0,0.0,0.0,0.0,0.0,0.0,0.0,0.0,0.0002648497572727183,0.0010298152504486357,-0.1041265222232424,0.0,0.0,0.0,0.0,0.0,0.0,0.0,0.0,0.0,0.00030288008194537946,0.02445625114116824,-0.0004694894312662846,0.0,0.0,0.0,0.0,0.0,0.0,0.0,0.0,0.0
2.807,77,2,808000000,base_footprint,0.0028788586325293234,0.002576595443506236,-0.7470068773048967,0.664805083154515,0.0,0.0,0.0,0.0,0.0,0.0,0.0,0.0,0.0,0.0006354590475632104,0.0010742212186529239,-0.0152639763952561,0.0,0.0,0.0,0.0,0.0,0.0,0.0,0.0,0.0,0.021865966564545973,0.012238080473143374,0.0009891151108500137,0.0,0.0,0.0,0.0,0.0,0.0,0.0,0.0,0.0
2.842,78,2,842000000,base_footprint,0.0028791327911232905,0.0025769558179989734,-0.747183690261891,0.6646063518352091,0.0,0.0,0.0,0.0,0.0,0.0,0.0,0.0,0.0,0.00016267464005537567,0.0001788743232101992,-0.01579052742555424,0.0,0.0,0.0,0.0,0.0,0.0,0.0,0.0,0.0,-0.005454267232144544,0.0031951351167878415,-0.001182973573732367,0.0,0.0,0.0,0.0,0.0,0.0,0.0,0.0,0.0
2.876,79,2,876000000,base_footprint,0.0028804954387074227,0.0025783555889124904,-0.7473622020273222,0.6644055943543499,0.0,0.0,0.0,0.0,0.0,0.0,0.0,0.0,0.0,0.00016624374274025073,9.633812674363632e-05,-0.015862775950109403,0.0,0.0,0.0,0.0,0.0,0.0,0.0,0.0,0.0,-0.004204736273048811,0.004751408206086815,-0.000151342083091562,0.0,0.0,0.0,0.0,0.0,0.0,0.0,0.0,0.0
2.91,80,2,910000000,base_footprint,0.002882694780299982,0.0025811772315221374,-0.7475066478211768,0.6642430572147897,0.0,0.0,0.0,0.0,0.0,0.0,0.0,0.0,0.0,0.00015018617310617852,-6.466247451723783e-05,-0.010360803384128488,0.0,0.0,0.0,0.0,0.0,0.0,0.0,0.0,0.0,-0.0021228631549875324,0.0037016884036814744,-0.00019730036464264008,0.0,0.0,0.0,0.0,0.0,0.0,0.0,0.0,0.0
2.944,81,2,944000000,base_footprint,0.002885779197098629,0.0025841622294926823,-0.7476179601598272,0.6641177456072503,0.0,0.0,0.0,0.0,0.0,0.0,0.0,0.0,0.0,5.914139646719064e-05,1.695339035886883e-05,-0.00899910529165217,0.0,0.0,0.0,0.0,0.0,0.0,0.0,0.0,0.0,-0.0006333879825625472,0.002898925649236747,0.00013313241602622546,0.0,0.0,0.0,0.0,0.0,0.0,0.0,0.0,0.0
2.978,82,2,978000000,base_footprint,0.0028886042952750656,0.002585229370270863,-0.7477056311426862,0.6640190221009079,0.0,0.0,0.0,0.0,0.0,0.0,0.0,0.0,0.0,-8.736871120985356e-06,0.00010475409210345123,-0.006492390844015849,0.0,0.0,0.0,0.0,0.0,0.0,0.0,0.0,0.0,0.0035487906360357857,0.001981753277258974,9.463405537164655e-05,0.0,0.0,0.0,0.0,0.0,0.0,0.0,0.0,0.0
3.012,83,3,12000000,base_footprint,0.002892833957876907,0.002579436659895297,-0.7477523900467137,0.6639663705321508,0.0,0.0,0.0,0.0,0.0,0.0,0.0,0.0,0.0,-0.00033103914569979716,-2.0845503243029816e-05,-0.002457229668334753,0.0,0.0,0.0,0.0,0.0,0.0,0.0,0.0,0.0,-0.0009359441322561179,-0.004582067663255996,-0.00026732238089555063,0.0,0.0,0.0,0.0,0.0,0.0,0.0,0.0,0.0
3.046,84,3,46000000,base_footprint,0.002894640567936715,0.00257740121485902,-0.7477348863454123,0.6639860825356007,0.0,0.0,0.0,0.0,0.0,0.0,0.0,0.0,0.0,-7.481725789164147e-05,-8.628453300385246e-05,0.006848906495808358,0.0,0.0,0.0,0.0,0.0,0.0,0.0,0.0,0.0,0.031857343873696625,-0.005081157797585724,-1.9458326002035333e-05,0.0,0.0,0.0,0.0,0.0,0.0,0.0,0.0,0.0
3.08,85,3,80000000,base_footprint,0.0028901546885136764,0.0025788444931611884,-0.7477115783527468,0.664012343382411,0.0,0.0,0.0,0.0,0.0,0.0,0.0,0.0,0.0,0.0005226886357500855,0.00039733522223979294,-1.5346307561139858e-05,0.0,0.0,0.0,0.0,0.0,0.0,0.0,0.0,0.0,-0.0012560845503359927,-0.007121013376587036,0.0009173700414339834,0.0,0.0,0.0,0.0,0.0,0.0,0.0,0.0,0.0
3.114,86,3,114000000,base_footprint,0.0028864694467801624,0.002578446767662871,-0.7478722482484199,0.6638313944114521,0.0,0.0,0.0,0.0,0.0,0.0,0.0,0.0,0.0,-0.0006127334510822618,0.00040291636569260246,-0.028998459702822124,0.0,0.0,0.0,0.0,0.0,0.0,0.0,0.0,0.0,0.05828534315110919,-0.0024559477689702174,-0.0009770359369628931,0.0,0.0,0.0,0.0,0.0,0.0,0.0,0.0,0.0
3.148,87,3,148000000,base_footprint,0.002883444971271044,0.0025726690762768395,-0.7481836303187304,0.6634804612360542,0.0,0.0,0.0,0.0,0.0,0.0,0.0,0.0,0.0,-0.0011861759954318886,0.00014779157285044339,-0.019035666635529157,0.0,0.0,0.0,0.0,0.0,0.0,0.0,0.0,0.0,-0.025587649638488433,0.01093996214205908,-0.0010529725258045706,0.0,0.0,0.0,0.0,0.0,0.0,0.0,0.0,0.0
3.182,88,3,182000000,base_footprint,0.002887771871022585,0.0025719565918723678,-0.7482769448561434,0.6633752027394955,0.0,0.0,0.0,0.0,0.0,0.0,0.0,0.0,0.0,1.3289347229566715e-05,0.00021349962977315124,-0.006396583065326115,0.0,0.0,0.0,0.0,0.0,0.0,0.0,0.0,0.0,-0.03154482614207299,0.009732038827375113,0.001784352387134866,0.0,0.0,0.0,0.0,0.0,0.0,0.0,0.0,0.0
3.216,89,3,216000000,base_footprint,0.0028887689733728904,0.002574867618855927,-0.7480888349664367,0.6635873115642911,0.0,0.0,0.0,0.0,0.0,0.0,0.0,0.0,0.0,3.4893822891775655e-05,-0.00035756037680835376,0.0481165773235499,0.0,0.0,0.0,0.0,0.0,0.0,0.0,0.0,0.0,0.6235388024713164,-0.15424842239111572,-0.0006842122351801954,0.0,0.0,0.0,0.0,0.0,0.0,0.0,0.0,0.0
3.25,90,3,250000000,base_footprint,0.002878610570661619,0.002570969594654906,-0.7479140132669734,0.6637844021031344,0.0,0.0,0.0,0.0,0.0,0.0,0.0,0.0,0.0,-0.0014676682484134845,-0.0007330048702217063,-0.004630833109786448,0.0,0.0,0.0,0.0,0.0,0.0,0.0,0.0,0.0,-0.2871722373905404,0.06448455233389808,-0.0026454651267568503,0.0,0.0,0.0,0.0,0.0,0.0,0.0,0.0,0.0
3.284,91,3,284000000,base_footprint,0.002882489534199228,0.00257252368408371,-0.7479420323729967,0.6637528075915996,0.0,0.0,0.0,0.0,0.0,0.0,0.0,0.0,0.0,0.00014439382030686222,0.00014926407459612528,-0.00290179351655494,0.0,0.0,0.0,0.0,0.0,0.0,0.0,0.0,0.0,-0.020214707420120003,0.0066030938697879205,0.0030194899444466196,0.0,0.0,0.0,0.0,0.0,0.0,0.0,0.0,0.0
3.318,92,3,318000000,base_footprint,0.002880732211478843,0.002574638569524976,-0.7476640479242478,0.6640659184596739,0.0,0.0,0.0,0.0,0.0,0.0,0.0,0.0,0.0,0.00012472046708070613,-0.000149588211238248,0.0317396012108963,0.0,0.0,0.0,0.0,0.0,0.0,0.0,0.0,0.0,0.0026532709665497553,-0.005637731429686272,-0.00015182066247506736,0.0,0.0,0.0,0.0,0.0,0.0,0.0,0.0,0.0
3.352,93,3,352000000,base_footprint,0.0028796554829302566,0.002577320620904426,-0.7473045193074778,0.6644704812294797,0.0,0.0,0.0,0.0,0.0,0.0,0.0,0.0,0.0,8.69708744962244e-05,-0.0001430186359633838,0.03186240624846604,0.0,0.0,0.0,0.0,0.0,0.0,0.0,0.0,0.0,-0.005742502425083556,-0.004550123767462119,-3.0089016953489027e-05,0.0,0.0,0.0,0.0,0.0,0.0,0.0,0.0,0.0
3.386,94,3,386000000,base_footprint,0.0028785934811074304,0.0025796607607044444,-0.7469460318266572,0.6648734350147709,0.0,0.0,0.0,0.0,0.0,0.0,0.0,0.0,0.0,0.00011900711634916638,-0.00021798576907029114,0.03171125678382447,0.0,0.0,0.0,0.0,0.0,0.0,0.0,0.0,0.0,-0.006758864241984142,-0.004151764105617113,-0.00019862096993781056,0.0,0.0,0.0,0.0,0.0,0.0,0.0,0.0,0.0
3.42,95,3,420000000,base_footprint,0.002878756449617114,0.0025831570275060035,-0.7466739390823994,0.665178974980605,0.0,0.0,0.0,0.0,0.0,0.0,0.0,0.0,0.0,0.0003839678107137169,-0.002962246369083956,0.002961824475882449,0.0,0.0,0.0,0.0,0.0,0.0,0.0,0.0,0.0,-0.34947826644308794,0.07296964995862218,-0.0044347538604666515,0.0,0.0,0.0,0.0,0.0,0.0,0.0,0.0,0.0
3.454,96,3,454000000,base_footprint,0.002882690656160649,0.0025903515664780982,-0.7466034800756162,0.6652580128884749,0.0,0.0,0.0,0.0,0.0,0.0,0.0,0.0,0.0,2.154609283819116e-05,-0.00017503550901468967,0.007472164954841007,0.0,0.0,0.0,0.0,0.0,0.0,0.0,0.0,0.0,0.008904266492742535,-0.0003535996674394288,0.004263867877506628,0.0,0.0,0.0,0.0,0.0,0.0,0.0,0.0,0.0
3.488,97,3,488000000,base_footprint,0.0028856793428647335,0.002585826908882556,-0.7465186286792843,0.6653532320419946,0.0,0.0,0.0,0.0,0.0,0.0,0.0,0.0,0.0,-0.0005646181387489853,0.00026408517276809633,0.006416293125337244,0.0,0.0,0.0,0.0,0.0,0.0,0.0,0.0,0.0,-0.0030988264460073585,-0.006000175034601873,0.0006856883227001087,0.0,0.0,0.0,0.0,0.0,0.0,0.0,0.0,0.0
3.5220000000000002,98,3,522000000,base_footprint,0.0028888728276481286,0.0025825992940426688,-0.7463933453459213,0.6654937705328252,0.0,0.0,0.0,0.0,0.0,0.0,0.0,0.0,0.0,-0.00015959249715583458,0.00013976766958154926,0.0176063454839858,0.0,0.0,0.0,0.0,0.0,0.0,0.0,0.0,0.0,0.019384163571679484,-0.0035618409830610025,-5.553522337350204e-06,0.0,0.0,0.0,0.0,0.0,0.0,0.0,0.0,0.0
3.556,99,3,556000000,base_footprint,0.0028874751192995403,0.0025859866850447928,-0.7461829833724734,0.6657296226589706,0.0,0.0,0.0,0.0,0.0,0.0,0.0,0.0,0.0,0.0007215651929833091,0.0006917751823349481,0.01244885972067873,0.0,0.0,0.0,0.0,0.0,0.0,0.0,0.0,0.0,0.00794393649210683,-0.010068088596313895,0.0011896825071236175,0.0,0.0,0.0,0.0,0.0,0.0,0.0,0.0,0.0
3.59,100,3,590000000,base_footprint,0.002878206022819239,0.002588109488509334,-0.7461128343389717,0.6658082727437622,0.0,0.0,0.0,0.0,0.0,0.0,0.0,0.0,0.0,-0.0001871514500381027,7.42739577715757e-05,-0.008623315029913823,0.0,0.0,0.0,0.0,0.0,0.0,0.0,0.0,0.0,0.050841741029229136,-0.010603868271590076,-0.0018679962299733826,0.0,0.0,0.0,0.0,0.0,0.0,0.0,0.0,0.0
3.624,101,3,624000000,base_footprint,0.002875810734999995,0.0025832996815511808,-0.7462759631406569,0.6656254525736354,0.0,0.0,0.0,0.0,0.0,0.0,0.0,0.0,0.0,0.00034866755817369833,0.0007029719714540778,-0.010189804732270626,0.0,0.0,0.0,0.0,0.0,0.0,0.0,0.0,0.0,-0.002869768367211998,0.004770872997345369,0.0011655088558515006,0.0,0.0,0.0,0.0,0.0,0.0,0.0,0.0,0.0
3.658,102,3,658000000,base_footprint,0.0028811699805104153,0.002581833450635644,-0.7462429657036284,0.6656624288131561,0.0,0.0,0.0,0.0,0.0,0.0,0.0,0.0,0.0,0.0004024136080683676,0.000783732775869479,0.00791305185539592,0.0,0.0,0.0,0.0,0.0,0.0,0.0,0.0,0.0,-0.042896179241039716,0.008390316715514188,0.0005467294978724572,0.0,0.0,0.0,0.0,0.0,0.0,0.0,0.0,0.0
3.692,103,3,692000000,base_footprint,0.0028780384402365676,0.0025810018320053226,-0.7461513564220602,0.6657651302327267,0.0,0.0,0.0,0.0,0.0,0.0,0.0,0.0,0.0,0.00020068984050469432,0.00017698200201891906,0.011686257036230635,0.0,0.0,0.0,0.0,0.0,0.0,0.0,0.0,0.0,-0.004267995203272136,0.00025692532756180263,-0.000856912823340125,0.0,0.0,0.0,0.0,0.0,0.0,0.0,0.0,0.0
3.726,104,3,726000000,base_footprint,0.0028764434173740743,0.0025808659784291007,-0.7459897008891225,0.6659462676308243,0.0,0.0,0.0,0.0,0.0,0.0,0.0,0.0,0.0,0.00011882016953859629,0.00010069243177297422,0.01407855227296945,0.0,0.0,0.0,0.0,0.0,0.0,0.0,0.0,0.0,-0.004650796512191146,-0.001589350477776083,-0.0001635005661512867,0.0,0.0,0.0,0.0,0.0,0.0,0.0,0.0,0.0
3.76,105,3,760000000,base_footprint,0.00287417810852141,0.002581531997203423,-0.7458307329750125,0.6661243071249567,0.0,0.0,0.0,0.0,0.0,0.0,0.0,0.0,0.0,0.00012961341543917687,5.302995556690179e-05,0.013969578865064801,0.0,0.0,0.0,0.0,0.0,0.0,0.0,0.0,0.0,-0.006080551161068667,-0.0016161098320333976,-8.251837166469667e-05,0.0,0.0,0.0,0.0,0.0,0.0,0.0,0.0,0.0
3.794,106,3,794000000,base_footprint,0.0028729011369897427,0.0025829775352688446,-0.7456670008275492,0.6663075855361076,0.0,0.0,0.0,0.0,0.0,0.0,0.0,0.0,0.0,0.000135158085948853,-0.00020832273627158942,0.01913162369975939,0.0,0.0,0.0,0.0,0.0,0.0,0.0,0.0,0.0,-0.004859579720062314,-0.0018517611042893523,-0.0005430661140623905,0.0,0.0,0.0,0.0,0.0,0.0,0.0,0.0,0.0
3.8280000000000003,107,3,828000000,base_footprint,0.0028720247024222197,0.00258457414154709,-0.7454455581623739,0.666555317484305,0.0,0.0,0.0,0.0,0.0,0.0,0.0,0.0,0.0,0.00012604784288616883,-7.854484303360096e-05,0.01946345016032263,0.0,0.0,0.0,0.0,0.0,0.0,0.0,0.0,0.0,-0.0054849318667655935,-0.002197921900521153,0.00028780518748811734,0.0,0.0,0.0,0.0,0.0,0.0,0.0,0.0,0.0
3.866,108,3,862000000,base_footprint,0.002872005888960544,0.002587682339377106,-0.7452233558248899,0.6668037233064719,0.0,0.0,0.0,0.0,0.0,0.0,0.0,0.0,0.0,0.0001200795245866216,-0.00018595497803494736,0.019745998507340736,0.0,0.0,0.0,0.0,0.0,0.0,0.0,0.0,0.0,-0.005571004279584358,-0.002920910164256514,-0.0002513253155339553,0.0,0.0,0.0,0.0,0.0,0.0,0.0,0.0,0.0
3.895,109,3,896000000,base_footprint,0.0028709950903258934,0.0025868266858744865,-0.7450170618033457,0.6670342145173653,0.0,0.0,0.0,0.0,0.0,0.0,0.0,0.0,0.0,0.0013839050641845112,0.004981891886257625,0.001854447398396796,0.0,0.0,0.0,0.0,0.0,0.0,0.0,0.0,0.0,0.09969938928340433,-0.02634270574080532,0.00622753722494979,0.0,0.0,0.0,0.0,0.0,0.0,0.0,0.0,0.0
3.93,110,3,930000000,base_footprint,0.0028764461991556676,0.0025898091091401307,-0.745506875824079,0.6664866968252727,0.0,0.0,0.0,0.0,0.0,0.0,0.0,0.0,0.0,0.0014193841656085034,-0.0021318451888813084,-0.030312187483466813,0.0,0.0,0.0,0.0,0.0,0.0,0.0,0.0,0.0,0.3487278755131301,-0.07462529950181299,-0.010445612088619063,0.0,0.0,0.0,0.0,0.0,0.0,0.0,0.0,0.0
3.964,111,3,964000000,base_footprint,0.0028799165880807865,0.00259195758655133,-0.7453201026572077,0.6666955320169505,0.0,0.0,0.0,0.0,0.0,0.0,0.0,0.0,0.0,-0.0003193988029716191,0.00027514500691860276,0.026857410009169427,0.0,0.0,0.0,0.0,0.0,0.0,0.0,0.0,0.0,-0.12351075649126947,0.02566522424314878,0.004600322274680968,0.0,0.0,0.0,0.0,0.0,0.0,0.0,0.0,0.0
3.998,112,3,998000000,base_footprint,0.00288360778042766,0.002588438276680533,-0.7450221236692585,0.6670285001683247,0.0,0.0,0.0,0.0,0.0,0.0,0.0,0.0,0.0,-0.00015064379730486658,8.23788558268551e-05,0.03056358583506049,0.0,0.0,0.0,0.0,0.0,0.0,0.0,0.0,0.0,0.015991342508321054,-0.005548326468825121,-0.00021112355901479045,0.0,0.0,0.0,0.0,0.0,0.0,0.0,0.0,0.0
4.032,113,4,32000000,base_footprint,0.0028828367601305,0.0025923375860771552,-0.74462570279639,0.6674709969527042,0.0,0.0,0.0,0.0,0.0,0.0,0.0,0.0,0.0,0.000734933833385214,-4.947034727103205e-05,0.027738308700799796,0.0,0.0,0.0,0.0,0.0,0.0,0.0,0.0,0.0,0.02004553852929948,-0.013784160794284244,-5.243099526385149e-05,0.0,0.0,0.0,0.0,0.0,0.0,0.0,0.0,0.0
4.066,114,4,66000000,base_footprint,0.0028711900675012013,0.0025961698878119903,-0.7443785415579292,0.6677466608210036,0.0,0.0,0.0,0.0,0.0,0.0,0.0,0.0,0.0,-0.0001182730048238532,-0.0001681250613686564,0.008925573953739763,0.0,0.0,0.0,0.0,0.0,0.0,0.0,0.0,0.0,0.04005958583764417,-0.014874200717834055,-0.0008693438268839857,0.0,0.0,0.0,0.0,0.0,0.0,0.0,0.0,0.0
4.1,115,4,100000000,base_footprint,0.0028592314911487786,0.0025810509082542068,-0.7444492231064622,0.6676679692689128,0.0,0.0,0.0,0.0,0.0,0.0,0.0,0.0,0.0,-0.00021827970483931857,9.086248627811913e-05,-0.04282282111768268,0.0,0.0,0.0,0.0,0.0,0.0,0.0,0.0,0.0,-0.06724599091125236,0.012574736734578297,0.0009474235952766891,0.0,0.0,0.0,0.0,0.0,0.0,0.0,0.0,0.0
4.134,116,4,134000000,base_footprint,0.0028654514513182243,0.0025849774655284895,-0.7451695582706355,0.6668638815427246,0.0,0.0,0.0,0.0,0.0,0.0,0.0,0.0,0.0,-7.694597177961688e-06,0.0004384128371056877,-0.0399395460975452,0.0,0.0,0.0,0.0,0.0,0.0,0.0,0.0,0.0,-0.16393563671423828,0.054431294093841835,5.149392347612755e-05,0.0,0.0,0.0,0.0,0.0,0.0,0.0,0.0,0.0
4.168,117,4,168000000,base_footprint,0.0028749637298430553,0.0025854961689202637,-0.7451921248109573,0.666838621341658,0.0,0.0,0.0,0.0,0.0,0.0,0.0,0.0,0.0,-0.0005393522936145129,-0.0007950355958697399,0.02697667237683872,0.0,0.0,0.0,0.0,0.0,0.0,0.0,0.0,0.0,-0.14538516506954222,0.03697694388787111,-0.0010990678568039425,0.0,0.0,0.0,0.0,0.0,0.0,0.0,0.0,0.0
4.202,118,4,202000000,base_footprint,0.0028718489783193238,0.0025858295956831816,-0.7448485840090238,0.6672223414038984,0.0,0.0,0.0,0.0,0.0,0.0,0.0,0.0,0.0,7.459748298853262e-05,-9.330020734495745e-05,0.039781367612980026,0.0,0.0,0.0,0.0,0.0,0.0,0.0,0.0,0.0,0.00043952848508167514,-0.00911724027750998,0.0011074121571736399,0.0,0.0,0.0,0.0,0.0,0.0,0.0,0.0,0.0
4.236,119,4,236000000,base_footprint,0.002868315706952264,0.0025874764057311848,-0.7444021566695138,0.6677203807557709,0.0,0.0,0.0,0.0,0.0,0.0,0.0,0.0,0.0,0.00012233426977929606,-0.00013488406597522338,0.03929014273379674,0.0,0.0,0.0,0.0,0.0,0.0,0.0,0.0,0.0,-0.007154228888765698,-0.007193486002757024,2.5289333950257802e-05,0.0,0.0,0.0,0.0,0.0,0.0,0.0,0.0,0.0
4.27,120,4,270000000,base_footprint,0.002865959344367437,0.002590033023377126,-0.7439564266646487,0.668216965685803,0.0,0.0,0.0,0.0,0.0,0.0,0.0,0.0,0.0,0.00010448757907586753,-0.00021080893554001058,0.03920538954144392,0.0,0.0,0.0,0.0,0.0,0.0,0.0,0.0,0.0,-0.00724898913480527,-0.007145734692032292,-0.00021275579981289703,0.0,0.0,0.0,0.0,0.0,0.0,0.0,0.0,0.0
4.304,121,4,304000000,base_footprint,0.0028648263562902456,0.00259295553208205,-0.7435452744767929,0.668674430612378,0.0,0.0,0.0,0.0,0.0,0.0,0.0,0.0,0.0,6.011173742434436e-05,-0.0002478753730466072,0.03134122931162349,0.0,0.0,0.0,0.0,0.0,0.0,0.0,0.0,0.0,-0.00879802438023088,-0.006110027847463217,-0.00021604494412092308,0.0,0.0,0.0,0.0,0.0,0.0,0.0,0.0,0.0
4.338,122,4,338000000,base_footprint,0.0028641006487773193,0.002595232783818202,-0.7431877818917803,0.6690717319847306,0.0,0.0,0.0,0.0,0.0,0.0,0.0,0.0,0.0,8.746735636278413e-05,-0.00017921817190400406,0.03125767798116262,0.0,0.0,0.0,0.0,0.0,0.0,0.0,0.0,0.0,-0.006708229666433301,-0.004122481440756549,3.190139878218589e-05,0.0,0.0,0.0,0.0,0.0,0.0,0.0,0.0,0.0
4.372,123,4,372000000,base_footprint,0.0028643994630556755,0.0025994288922039795,-0.7428292551698923,0.6694697422952689,0.0,0.0,0.0,0.0,0.0,0.0,0.0,0.0,0.0,2.9759314733240986e-05,-0.0003702300650886129,0.031784541777705344,0.0,0.0,0.0,0.0,0.0,0.0,0.0,0.0,0.0,-0.0054802841134153546,-0.0057023634684470826,-0.0005266491661234064,0.0,0.0,0.0,0.0,0.0,0.0,0.0,0.0,0.0
4.406,124,4,406000000,base_footprint,0.002864366228978023,0.0026044323543746944,-0.7424315947907855,0.6699106950890011,0.0,0.0,0.0,0.0,0.0,0.0,0.0,0.0,0.0,3.300098631951726e-06,-0.0003362154587154037,0.038929668153078995,0.0,0.0,0.0,0.0,0.0,0.0,0.0,0.0,0.0,-0.0016842433771677365,-0.006448422677552978,7.7713977426478e-05,0.0,0.0,0.0,0.0,0.0,0.0,0.0,0.0,0.0
4.44,125,4,440000000,base_footprint,0.0028671602509446484,0.002608703514455888,-0.7419778064040196,0.6704132373856803,0.0,0.0,0.0,0.0,0.0,0.0,0.0,0.0,0.0,-0.00046843897290661373,-8.954131941797276e-05,0.03935313827656816,0.0,0.0,0.0,0.0,0.0,0.0,0.0,0.0,0.0,-0.0022079216832349624,-0.012390719526650475,0.00030027589904916294,0.0,0.0,0.0,0.0,0.0,0.0,0.0,0.0,0.0
4.474,126,4,474000000,base_footprint,0.0028705714266238458,0.0026045896399179845,-0.7415441664320825,0.6708928566940031,0.0,0.0,0.0,0.0,0.0,0.0,0.0,0.0,0.0,-0.000297240182824718,-0.0001026202584825777,0.03887989697746026,0.0,0.0,0.0,0.0,0.0,0.0,0.0,0.0,0.0,0.006704674609695168,-0.006213726271080662,8.17446186008489e-06,0.0,0.0,0.0,0.0,0.0,0.0,0.0,0.0,0.0
4.508,127,4,508000000,base_footprint,0.00286815606970507,0.002607130168540743,-0.7410569963187764,0.6714309381909931,0.0,0.0,0.0,0.0,0.0,0.0,0.0,0.0,0.0,0.0007048840231702342,-0.0005951604661927391,0.03300356504439451,0.0,0.0,0.0,0.0,0.0,0.0,0.0,0.0,0.0,0.02999652984822147,-0.019908489840890387,-0.0010884941880438584,0.0,0.0,0.0,0.0,0.0,0.0,0.0,0.0,0.0
4.542,128,4,542000000,base_footprint,0.0028600514881535564,0.0026110653449295364,-0.7408541646275629,0.6716547544663446,0.0,0.0,0.0,0.0,0.0,0.0,0.0,0.0,0.0,-0.0006766042008769337,-0.00013287083014457395,0.004317354599833566,0.0,0.0,0.0,0.0,0.0,0.0,0.0,0.0,0.0,0.0545887996450905,-0.012067006927767961,8.03485731925711e-05,0.0,0.0,0.0,0.0,0.0,0.0,0.0,0.0,0.0
4.575,129,4,576000000,base_footprint,0.0028535411829012564,0.0026090531835745966,-0.7407801374312225,0.6717364350186626,0.0,0.0,0.0,0.0,0.0,0.0,0.0,0.0,0.0,-0.0002709023060354449,0.0002502465468088126,0.014342641088534176,0.0,0.0,0.0,0.0,0.0,0.0,0.0,0.0,0.0,-0.0228529941495499,3.308259018436864e-05,0.0007721914191183573,0.0,0.0,0.0,0.0,0.0,0.0,0.0,0.0,0.0
4.61,130,4,610000000,base_footprint,0.0028577165679766316,0.0026076853427228533,-0.7404224890288146,0.6721306206188984,0.0,0.0,0.0,0.0,0.0,0.0,0.0,0.0,0.0,0.0011999707512112742,-0.0002561452960994096,0.016877782126158373,0.0,0.0,0.0,0.0,0.0,0.0,0.0,0.0,0.0,0.27142368527081917,-0.05863504958597203,0.00024497634017079024,0.0,0.0,0.0,0.0,0.0,0.0,0.0,0.0,0.0
4.644,131,4,644000000,base_footprint,0.0028557296510687033,0.002606540072076724,-0.7401652424722304,0.6724139086849982,0.0,0.0,0.0,0.0,0.0,0.0,0.0,0.0,0.0,-0.00019846233985112033,-9.793066836614436e-05,0.02773032552042034,0.0,0.0,0.0,0.0,0.0,0.0,0.0,0.0,0.0,0.01666787665625155,-0.008038229717614531,-0.00042909840200898675,0.0,0.0,0.0,0.0,0.0,0.0,0.0,0.0,0.0
4.678,132,4,678000000,base_footprint,0.002852863299282183,0.002606414375637136,-0.7398526098513112,0.6727578936521678,0.0,0.0,0.0,0.0,0.0,0.0,0.0,0.0,0.0,2.4794226590814505e-05,0.00011750805191466064,0.027193735508116032,0.0,0.0,0.0,0.0,0.0,0.0,0.0,0.0,0.0,-0.00553333233359082,-0.004471642289440147,0.00040691398641270256,0.0,0.0,0.0,0.0,0.0,0.0,0.0,0.0,0.0
4.712,133,4,712000000,base_footprint,0.0028508356397724836,0.0026063565694289686,-0.7397490191576895,0.6728718067335148,0.0,0.0,0.0,0.0,0.0,0.0,0.0,0.0,0.0,7.142908082543843e-05,0.0004220497298932564,-0.0020948382398671035,0.0,0.0,0.0,0.0,0.0,0.0,0.0,0.0,0.0,-0.013325694898361003,0.0003752029873033951,1.7500964745225424e-05,0.0,0.0,0.0,0.0,0.0,0.0,0.0,0.0,0.0
4.746,134,4,746000000,base_footprint,0.0028504646374837915,0.0026067623828697623,-0.7397732625877613,0.6728451527665849,0.0,0.0,0.0,0.0,0.0,0.0,0.0,0.0,0.0,3.458305079777163e-05,0.00017178623174915193,-0.00225960780862389,0.0,0.0,0.0,0.0,0.0,0.0,0.0,0.0,0.0,-0.0050819460568114466,0.0014230700007637374,-0.0003450888688226424,0.0,0.0,0.0,0.0,0.0,0.0,0.0,0.0,0.0
4.78,135,4,780000000,base_footprint,0.002850965842142026,0.0026082782114157316,-0.7398003169383749,0.6728153981118586,0.0,0.0,0.0,0.0,0.0,0.0,0.0,0.0,0.0,4.628151549738877e-05,9.232962983563489e-05,-0.002505386158098403,0.0,0.0,0.0,0.0,0.0,0.0,0.0,0.0,0.0,-0.005059855637325868,0.0015810986824165794,-0.00016550677363493812,0.0,0.0,0.0,0.0,0.0,0.0,0.0,0.0,0.0
4.814,136,4,814000000,base_footprint,0.0028517122641444578,0.0026067478584508594,-0.7400015567869597,0.6725940592628226,0.0,0.0,0.0,0.0,0.0,0.0,0.0,0.0,0.0,0.0005596028739575232,-0.0010171226853973095,-0.04710936067409301,0.0,0.0,0.0,0.0,0.0,0.0,0.0,0.0,0.0,-0.35543293639760953,0.07165446703391293,-0.002205783710149231,0.0,0.0,0.0,0.0,0.0,0.0,0.0,0.0,0.0
4.848,137,4,848000000,base_footprint,0.0028578224456641643,0.0026123000714469873,-0.7405256454334396,0.6720169471037123,0.0,0.0,0.0,0.0,0.0,0.0,0.0,0.0,0.0,0.0001090265506307526,0.0002853435000895679,-0.04556323022059948,0.0,0.0,0.0,0.0,0.0,0.0,0.0,0.0,0.0,0.003645705560482464,0.01045584084458126,0.002158497738881359,0.0,0.0,0.0,0.0,0.0,0.0,0.0,0.0,0.0
4.882,138,4,882000000,base_footprint,0.002862944499236399,0.0026125093184339093,-0.7410378217770909,0.6714521018209116,0.0,0.0,0.0,0.0,0.0,0.0,0.0,0.0,0.0,5.7298349514546e-06,0.0002640017051856495,-0.043915640548045205,0.0,0.0,0.0,0.0,0.0,0.0,0.0,0.0,0.0,0.002182539773995536,0.01002782639876875,-4.465753788370825e-05,0.0,0.0,0.0,0.0,0.0,0.0,0.0,0.0,0.0
4.916,139,4,916000000,base_footprint,0.0028655135248611026,0.002612130903778518,-0.7413385341574585,0.671120066290415,0.0,0.0,0.0,0.0,0.0,0.0,0.0,0.0,0.0,-0.00014370964454943537,0.0005484229432392255,-0.018745663782304606,0.0,0.0,0.0,0.0,0.0,0.0,0.0,0.0,0.0,0.015490594877334916,0.003242742941692355,0.0009353386786252367,0.0,0.0,0.0,0.0,0.0,0.0,0.0,0.0,0.0
4.95,140,4,950000000,base_footprint,0.0028701082215881087,0.0026043362795370134,-0.7415810077929202,0.6708521363103618,0.0,0.0,0.0,0.0,0.0,0.0,0.0,0.0,0.0,-0.0002657474210670779,0.0001418680206208708,-0.022010066991837763,0.0,0.0,0.0,0.0,0.0,0.0,0.0,0.0,0.0,-0.0005386806753465462,-0.00013679080780490177,-0.0008085271279556201,0.0,0.0,0.0,0.0,0.0,0.0,0.0,0.0,0.0
4.984,141,4,984000000,base_footprint,0.0028706808056816737,0.0026030234981633247,-0.7417728368431855,0.6706400241426044,0.0,0.0,0.0,0.0,0.0,0.0,0.0,0.0,0.0,0.0004838328418081428,0.00013315588059340685,-0.015516508854349695,0.0,0.0,0.0,0.0,0.0,0.0,0.0,0.0,0.0,0.036174801614658865,-0.0008144230640565013,3.288077522228098e-06,0.0,0.0,0.0,0.0,0.0,0.0,0.0,0.0,0.0
5.018,142,5,18000000,base_footprint,0.002862950449516795,0.0026070660573012535,-0.7420560253794989,0.6703266829832131,0.0,0.0,0.0,0.0,0.0,0.0,0.0,0.0,0.0,-0.00011752617734369008,-3.2459392575895195e-05,-0.037496660670197524,0.0,0.0,0.0,0.0,0.0,0.0,0.0,0.0,0.0,0.05041596537773087,-0.004256169331293719,-0.0005433187675211834,0.0,0.0,0.0,0.0,0.0,0.0,0.0,0.0,0.0
5.052,143,5,52000000,base_footprint,0.002859310824232194,0.0025987620792019502,-0.7425136500554205,0.6698197893901336,0.0,0.0,0.0,0.0,0.0,0.0,0.0,0.0,0.0,0.0003291033908831744,0.0002342437842090719,-0.036511983548019294,0.0,0.0,0.0,0.0,0.0,0.0,0.0,0.0,0.0,0.0013766388338974792,0.00928298441068821,0.0017192140419169221,0.0,0.0,0.0,0.0,0.0,0.0,0.0,0.0,0.0
5.086,144,5,86000000,base_footprint,0.002867707050986144,0.0025966287219963435,-0.742755233954585,0.6695518622247418,0.0,0.0,0.0,0.0,0.0,0.0,0.0,0.0,0.0,0.0005330277328803184,0.0009608406518974923,-0.013082691808999982,0.0,0.0,0.0,0.0,0.0,0.0,0.0,0.0,0.0,-0.05578371004860355,0.015448301170412914,0.0006150417263625478,0.0,0.0,0.0,0.0,0.0,0.0,0.0,0.0,0.0
5.12,145,5,120000000,base_footprint,0.0028642503722401936,0.0025950040974190105,-0.7427976531131151,0.6695048233980005,0.0,0.0,0.0,0.0,0.0,0.0,0.0,0.0,0.0,2.5157386204790712e-05,0.0002007489958462741,-0.002088950479467657,0.0,0.0,0.0,0.0,0.0,0.0,0.0,0.0,0.0,-0.00043257600398482424,0.001660508963487474,-0.0010898329562387154,0.0,0.0,0.0,0.0,0.0,0.0,0.0,0.0,0.0
5.154,146,5,154000000,base_footprint,0.0028631264357204082,0.00259422281272642,-0.7428223706695651,0.6694774067493676,0.0,0.0,0.0,0.0,0.0,0.0,0.0,0.0,0.0,1.1284515838188363e-05,0.00014309799612183477,-0.0021827062797416,0.0,0.0,0.0,0.0,0.0,0.0,0.0,0.0,0.0,-0.004158072802776646,0.001169273475130955,-0.00013597587980623385,0.0,0.0,0.0,0.0,0.0,0.0,0.0,0.0,0.0
5.188,147,5,188000000,base_footprint,0.0028620024041817816,0.0025939614178558303,-0.7428468642327801,0.669450234599949,0.0,0.0,0.0,0.0,0.0,0.0,0.0,0.0,0.0,0.00014337413631038747,0.0001889781286462798,-0.002195645491814541,0.0,0.0,0.0,0.0,0.0,0.0,0.0,0.0,0.0,-0.005098211371079374,0.0019767798888866896,0.0002161009160029015,0.0,0.0,0.0,0.0,0.0,0.0,0.0,0.0,0.0
5.222,148,5,222000000,base_footprint,0.0028605499346954478,0.0025953424659350484,-0.7426391274978771,0.6696806759648569,0.0,0.0,0.0,0.0,0.0,0.0,0.0,0.0,0.0,9.710157720269329e-05,-5.9798010696948236e-05,0.02016860780118013,0.0,0.0,0.0,0.0,0.0,0.0,0.0,0.0,0.0,-0.0003169773507466615,-0.0035765051993025803,-0.00016124181104920301,0.0,0.0,0.0,0.0,0.0,0.0,0.0,0.0,0.0
5.256,149,5,256000000,base_footprint,0.002859751641488772,0.0025967990467651346,-0.7424093730403549,0.6699353709702803,0.0,0.0,0.0,0.0,0.0,0.0,0.0,0.0,0.0,9.527366094047208e-05,-5.525849282085091e-05,0.0200787105162158,0.0,0.0,0.0,0.0,0.0,0.0,0.0,0.0,0.0,-0.006134202598794416,-0.0023031484829282266,-3.5538742281118316e-05,0.0,0.0,0.0,0.0,0.0,0.0,0.0,0.0,0.0
5.29,150,5,290000000,base_footprint,0.0028596242321157215,0.002599218405915499,-0.7421790542865548,0.6701905087296035,0.0,0.0,0.0,0.0,0.0,0.0,0.0,0.0,0.0,9.325436376642799e-05,-0.00014284306727353174,0.02036146704363727,0.0,0.0,0.0,0.0,0.0,0.0,0.0,0.0,0.0,-0.00565747484301678,-0.0030361886068263596,-0.00022349015678593462,0.0,0.0,0.0,0.0,0.0,0.0,0.0,0.0,0.0
5.324,151,5,324000000,base_footprint,0.002861031504707973,0.0025951902655118454,-0.7422540895797969,0.6701074137690777,0.0,0.0,0.0,0.0,0.0,0.0,0.0,0.0,0.0,0.004447484823472639,-3.799882017152187e-05,0.007180419129400678,0.0,0.0,0.0,0.0,0.0,0.0,0.0,0.0,0.0,0.591195226747931,-0.11927614874030315,-0.011648551943072728,0.0,0.0,0.0,0.0,0.0,0.0,0.0,0.0,0.0
5.358,152,5,358000000,base_footprint,0.0028649618432275386,0.0026082812781819736,-0.742054833687649,0.6703279888705278,0.0,0.0,0.0,0.0,0.0,0.0,0.0,0.0,0.0,-0.00014379932770813906,-0.0002185527325225345,0.0261484913368649,0.0,0.0,0.0,0.0,0.0,0.0,0.0,0.0,0.0,-0.2589616761581392,0.04885612477646793,0.010847182619170469,0.0,0.0,0.0,0.0,0.0,0.0,0.0,0.0,0.0
5.393,153,5,392000000,base_footprint,0.0028657968897409414,0.0026113063692457007,-0.7417302264207967,0.6706871398058758,0.0,0.0,0.0,0.0,0.0,0.0,0.0,0.0,0.0,-0.0002638591235759206,-0.00019203014986307002,0.030289637234901034,0.0,0.0,0.0,0.0,0.0,0.0,0.0,0.0,0.0,-0.003856219192433905,-0.004846587729787148,0.00031057774194880755,0.0,0.0,0.0,0.0,0.0,0.0,0.0,0.0,0.0
5.426,154,5,426000000,base_footprint,0.002868724949778097,0.0026067578044220987,-0.7413751111822134,0.6710796672158027,0.0,0.0,0.0,0.0,0.0,0.0,0.0,0.0,0.0,-0.0003646169065093386,-0.00015555596084014926,0.030533769466681904,0.0,0.0,0.0,0.0,0.0,0.0,0.0,0.0,0.0,0.0008670205235693446,-0.01183974445248992,1.1576307482356456e-05,0.0,0.0,0.0,0.0,0.0,0.0,0.0,0.0,0.0
5.46,155,5,460000000,base_footprint,0.0028684144869678676,0.002605113144869683,-0.7409794841328053,0.6715164850382416,0.0,0.0,0.0,0.0,0.0,0.0,0.0,0.0,0.0,-2.0802372086926085e-05,-0.0002154209756534619,0.0405522337813952,0.0,0.0,0.0,0.0,0.0,0.0,0.0,0.0,0.0,0.03792562126960552,-0.012488176659426493,-5.950063377372142e-05,0.0,0.0,0.0,0.0,0.0,0.0,0.0,0.0,0.0
5.494,156,5,494000000,base_footprint,0.0028545731846851504,0.002603975153131217,-0.7406696558924771,0.6718582674682619,0.0,0.0,0.0,0.0,0.0,0.0,0.0,0.0,0.0,-0.0019855678385199502,0.004792368859788769,0.0004611470135346695,0.0,0.0,0.0,0.0,0.0,0.0,0.0,0.0,0.0,-0.00044272985017302854,-0.01678229777154721,0.008584653431699521,0.0,0.0,0.0,0.0,0.0,0.0,0.0,0.0,0.0
5.5280000000000005,157,5,528000000,base_footprint,0.002847238653076732,0.00259113048065438,-0.7414523959149908,0.6709944290877567,0.0,0.0,0.0,0.0,0.0,0.0,0.0,0.0,0.0,0.0012585065573360713,0.002795318429409317,-0.12977109113706192,0.0,0.0,0.0,0.0,0.0,0.0,0.0,0.0,0.0,-0.19280403690174716,0.05864029519925916,-0.003732852746997653,0.0,0.0,0.0,0.0,0.0,0.0,0.0,0.0,0.0
5.562,158,5,562000000,base_footprint,0.0028533884667737695,0.002595750894186149,-0.7430160808463051,0.6692624476656,0.0,0.0,0.0,0.0,0.0,0.0,0.0,0.0,0.0,0.000263990666054336,0.0014316509216731697,-0.115522112374397,0.0,0.0,0.0,0.0,0.0,0.0,0.0,0.0,0.0,-0.12352163613664768,0.060439258337239975,-0.003731511345240992,0.0,0.0,0.0,0.0,0.0,0.0,0.0,0.0,0.0
5.596,159,5,596000000,base_footprint,0.0028723137550764146,0.0025902993785998454,-0.7441177068668071,0.6680373331559445,0.0,0.0,0.0,0.0,0.0,0.0,0.0,0.0,0.0,-0.00034174265142044896,0.0008518978128807652,-0.08585643952399435,0.0,0.0,0.0,0.0,0.0,0.0,0.0,0.0,0.0,-0.04361764871617994,0.030986652864865072,-0.0001235200131451825,0.0,0.0,0.0,0.0,0.0,0.0,0.0,0.0,0.0
5.63,160,5,630000000,base_footprint,0.002874390849076792,0.002584838261359179,-0.7450955602767751,0.6669465215024726,0.0,0.0,0.0,0.0,0.0,0.0,0.0,0.0,0.0,0.00010606580981525456,0.0009573397571117012,-0.08651659557769353,0.0,0.0,0.0,0.0,0.0,0.0,0.0,0.0,0.0,-0.0011398932087195376,0.020183828032140062,0.0006061428956640692,0.0,0.0,0.0,0.0,0.0,0.0,0.0,0.0,0.0
5.664,161,5,664000000,base_footprint,0.0028761224937383107,0.0025797008752292865,-0.7460771290484098,0.6658483240000517,0.0,0.0,0.0,0.0,0.0,0.0,0.0,0.0,0.0,0.00012839812484575594,0.00091202418976921,-0.08682460834132567,0.0,0.0,0.0,0.0,0.0,0.0,0.0,0.0,0.0,-0.0011238165012955083,0.0200480480681901,9.233526048436773e-05,0.0,0.0,0.0,0.0,0.0,0.0,0.0,0.0,0.0
5.698,162,5,698000000,base_footprint,0.002879877070772245,0.0025771964837010904,-0.747008192176949,0.6648035989575177,0.0,0.0,0.0,0.0,0.0,0.0,0.0,0.0,0.0,0.00014047094521309428,0.0002267458634113358,-0.06330011759613852,0.0,0.0,0.0,0.0,0.0,0.0,0.0,0.0,0.0,0.004661724910979556,0.01863971493869315,-0.0004899476971667181,0.0,0.0,0.0,0.0,0.0,0.0,0.0,0.0,0.0
5.732,163,5,732000000,base_footprint,0.0028818505021824363,0.0025749885121091466,-0.74773531557827,0.6639856641591826,0.0,0.0,0.0,0.0,0.0,0.0,0.0,0.0,0.0,0.0001770952926892325,0.00048479594310482584,-0.06466631441900493,0.0,0.0,0.0,0.0,0.0,0.0,0.0,0.0,0.0,-0.0019947068879054043,0.014484669686039241,0.00020699689294820684,0.0,0.0,0.0,0.0,0.0,0.0,0.0,0.0,0.0
5.766,164,5,766000000,base_footprint,0.00288589254092405,0.002574699911166208,-0.748465194641304,0.6631627967212612,0.0,0.0,0.0,0.0,0.0,0.0,0.0,0.0,0.0,0.00021014008607437136,0.00043069925046548336,-0.06475310753739529,0.0,0.0,0.0,0.0,0.0,0.0,0.0,0.0,0.0,-0.001351314059715513,0.015292339162069811,-7.266353563953516e-05,0.0,0.0,0.0,0.0,0.0,0.0,0.0,0.0,0.0
5.8,165,5,800000000,base_footprint,0.0028906653818603274,0.0025779037999674754,-0.7490815676279339,0.6624664546267421,0.0,0.0,0.0,0.0,0.0,0.0,0.0,0.0,0.0,-0.00017355921241396597,-0.0005062525921854551,-0.022855265286982805,0.0,0.0,0.0,0.0,0.0,0.0,0.0,0.0,0.0,0.014922743027558935,0.01120963552062083,-0.0008836576030048176,0.0,0.0,0.0,0.0,0.0,0.0,0.0,0.0,0.0
5.834,166,5,834000000,base_footprint,0.00289431419147999,0.002576917373989551,-0.7493644062510635,0.6621464861238787,0.0,0.0,0.0,0.0,0.0,0.0,0.0,0.0,0.0,3.560957841421601e-05,0.00012410918811267196,-0.024280303029847065,0.0,0.0,0.0,0.0,0.0,0.0,0.0,0.0,0.0,-0.0037880364989262595,0.005292971805530187,0.000959741263486847,0.0,0.0,0.0,0.0,0.0,0.0,0.0,0.0,0.0
5.868,167,5,868000000,base_footprint,0.0028971092743416177,0.002576061369971961,-0.7496243136960876,0.6618522183851471,0.0,0.0,0.0,0.0,0.0,0.0,0.0,0.0,0.0,-0.00017493678525529058,0.000511083297564172,-0.022015347924151128,0.0,0.0,0.0,0.0,0.0,0.0,0.0,0.0,0.0,0.004845271212035849,0.004296821060005,0.0006504067266526924,0.0,0.0,0.0,0.0,0.0,0.0,0.0,0.0,0.0
5.902,168,5,902000000,base_footprint,0.002905043867166211,0.0025684289765165553,-0.7499283565765227,0.661507689974318,0.0,0.0,0.0,0.0,0.0,0.0,0.0,0.0,0.0,0.00017618985740802554,0.0007987055012830802,-0.038851198607940944,0.0,0.0,0.0,0.0,0.0,0.0,0.0,0.0,0.0,0.03551118534882436,-0.0014759206832210547,0.00012765304648474542,0.0,0.0,0.0,0.0,0.0,0.0,0.0,0.0,0.0
5.936,169,5,936000000,base_footprint,0.0029050022958922086,0.0025707159960936805,-0.7503821335252496,0.660992894112352,0.0,0.0,0.0,0.0,0.0,0.0,0.0,0.0,0.0,0.00023354437367566628,0.0006351955622387678,-0.050717841688615706,0.0,0.0,0.0,0.0,0.0,0.0,0.0,0.0,0.0,-0.026361851181990192,0.011878370490797856,0.00012936606825243268,0.0,0.0,0.0,0.0,0.0,0.0,0.0,0.0,0.0
5.97,170,5,970000000,base_footprint,0.0028991520321355845,0.00256750402805068,-0.7509243677746376,0.6603768596209451,0.0,0.0,0.0,0.0,0.0,0.0,0.0,0.0,0.0,0.0005814118034461176,0.0008426665505422298,-0.05565899032852133,0.0,0.0,0.0,0.0,0.0,0.0,0.0,0.0,0.0,0.03721882605541127,-0.0006203400066181128,0.00019028937174850758,0.0,0.0,0.0,0.0,0.0,0.0,0.0,0.0,0.0
6.004,171,6,4000000,base_footprint,0.002887493743885332,0.0025571096236157572,-0.7515127984040975,0.6597072361321303,0.0,0.0,0.0,0.0,0.0,0.0,0.0,0.0,0.0,0.0017491910974956515,0.0037374118086199925,0.0021174265584446668,0.0,0.0,0.0,0.0,0.0,0.0,0.0,0.0,0.0,0.15177043564043946,-0.027816264191505333,0.0036460946507756416,0.0,0.0,0.0,0.0,0.0,0.0,0.0,0.0,0.0
6.038,172,6,38000000,base_footprint,0.0028873857250356675,0.0025582012166520183,-0.7513560982682214,0.6598856963182069,0.0,0.0,0.0,0.0,0.0,0.0,0.0,0.0,0.0,0.0004872452823995546,0.00020288297332630084,0.034653301949507276,0.0,0.0,0.0,0.0,0.0,0.0,0.0,0.0,0.0,-0.07643429200792552,0.020105002406712945,-0.0032042901029923094,0.0,0.0,0.0,0.0,0.0,0.0,0.0,0.0,0.0
6.072,173,6,72000000,base_footprint,0.002895655919585881,0.002560573370291462,-0.7507089989793028,0.6606217204212288,0.0,0.0,0.0,0.0,0.0,0.0,0.0,0.0,0.0,-8.392215481110664e-05,-0.00030825978682252707,0.06426115650776848,0.0,0.0,0.0,0.0,0.0,0.0,0.0,0.0,0.0,-0.06807476468724102,0.0038511332360028905,-0.00082325709900778,0.0,0.0,0.0,0.0,0.0,0.0,0.0,0.0,0.0
6.106,174,6,106000000,base_footprint,0.002894104133145432,0.002563466740120842,-0.7500619614705462,0.6613562631097523,0.0,0.0,0.0,0.0,0.0,0.0,0.0,0.0,0.0,-0.00042492901490924387,-0.0022594454437680307,0.009507222433717512,0.0,0.0,0.0,0.0,0.0,0.0,0.0,0.0,0.0,0.2779371298049157,-0.08404232450383545,-0.0031057191334681626,0.0,0.0,0.0,0.0,0.0,0.0,0.0,0.0,0.0
6.14,175,6,140000000,base_footprint,0.002891288116499138,0.0025629188638002726,-0.750090692754056,0.6613236912009619,0.0,0.0,0.0,0.0,0.0,0.0,0.0,0.0,0.0,0.00016819550674629035,0.0002588738572306484,-0.002586887733509283,0.0,0.0,0.0,0.0,0.0,0.0,0.0,0.0,0.0,0.02115936093944416,-0.004300110608577016,0.002813850965847465,0.0,0.0,0.0,0.0,0.0,0.0,0.0,0.0,0.0
6.174,176,6,174000000,base_footprint,0.002890489346261684,0.0025632564678707555,-0.7501203658517628,0.6612900358557029,0.0,0.0,0.0,0.0,0.0,0.0,0.0,0.0,0.0,0.0001269885325872951,0.00013879339817317294,-0.0027594281661968917,0.0,0.0,0.0,0.0,0.0,0.0,0.0,0.0,0.0,-0.004899746581183752,0.0018908072710234307,-0.0001887170240613129,0.0,0.0,0.0,0.0,0.0,0.0,0.0,0.0,0.0
6.208,177,6,208000000,base_footprint,0.002889540365834769,0.002561172104401089,-0.7502368547358625,0.6611578879132928,0.0,0.0,0.0,0.0,0.0,0.0,0.0,0.0,0.0,-0.0009569871748466445,-0.0005918848672609047,-0.029990567004092115,0.0,0.0,0.0,0.0,0.0,0.0,0.0,0.0,0.0,-0.337751159058203,0.08859457431624396,3.6720688239128625e-05,0.0,0.0,0.0,0.0,0.0,0.0,0.0,0.0,0.0
6.242,178,6,242000000,base_footprint,0.0028936981266913455,0.002565385803472069,-0.7505783739680281,0.6607701187541261,0.0,0.0,0.0,0.0,0.0,0.0,0.0,0.0,0.0,0.00017692190114420802,0.0001660083397893322,-0.03024519112046378,0.0,0.0,0.0,0.0,0.0,0.0,0.0,0.0,0.0,-0.006765160441398042,0.009331585818627192,-2.9351894098835944e-05,0.0,0.0,0.0,0.0,0.0,0.0,0.0,0.0,0.0
6.276,179,6,276000000,base_footprint,0.0028971705080501073,0.0025678657765410996,-0.7509162903649578,0.6603860517401404,0.0,0.0,0.0,0.0,0.0,0.0,0.0,0.0,0.0,0.00017298999832902038,5.278887519114281e-05,-0.029875290663935936,0.0,0.0,0.0,0.0,0.0,0.0,0.0,0.0,0.0,-0.0019826498265223184,0.007661031929218284,-0.00017905802375275481,0.0,0.0,0.0,0.0,0.0,0.0,0.0,0.0,0.0
6.31,180,6,310000000,base_footprint,0.0029011778108577174,0.0025690449282505263,-0.7512089240520671,0.6600531308917503,0.0,0.0,0.0,0.0,0.0,0.0,0.0,0.0,0.0,4.343282164887981e-06,0.0001941640872782541,-0.022702776022175943,0.0,0.0,0.0,0.0,0.0,0.0,0.0,0.0,0.0,0.0037257664625785416,0.005220475652835263,0.00036004516175344443,0.0,0.0,0.0,0.0,0.0,0.0,0.0,0.0,0.0
6.344,181,6,344000000,base_footprint,0.002903959503238199,0.002567921962130591,-0.7514509251795113,0.6597775987731447,0.0,0.0,0.0,0.0,0.0,0.0,0.0,0.0,0.0,-0.0002132691321290198,0.0005703216054807037,-0.020535666196060592,0.0,0.0,0.0,0.0,0.0,0.0,0.0,0.0,0.0,0.004254574093818931,0.0035649867755046145,0.0005933919268138247,0.0,0.0,0.0,0.0,0.0,0.0,0.0,0.0,0.0
6.378,182,6,378000000,base_footprint,0.002909682103192342,0.0025607915160566,-0.7516854307318378,0.6595104163865505,0.0,0.0,0.0,0.0,0.0,0.0,0.0,0.0,0.0,-9.860182891023234e-05,0.00023281122586856897,-0.019412238449111198,0.0,0.0,0.0,0.0,0.0,0.0,0.0,0.0,0.0,0.010182152867201538,0.002693138785327214,-0.0005113395649926353,0.0,0.0,0.0,0.0,0.0,0.0,0.0,0.0,0.0
6.412,183,6,412000000,base_footprint,0.0028968857623474092,0.0025561838415287304,-0.7519736308944073,0.6591818659645684,0.0,0.0,0.0,0.0,0.0,0.0,0.0,0.0,0.0,0.0005689648521123594,0.0012308601504672954,-0.03808167728003068,0.0,0.0,0.0,0.0,0.0,0.0,0.0,0.0,0.0,0.18868964434085128,-0.04655961371069653,0.0015622384316078108,0.0,0.0,0.0,0.0,0.0,0.0,0.0,0.0,0.0
6.446,184,6,446000000,base_footprint,0.0029116800879284287,0.0025600171980195673,-0.7522767278189374,0.6588358621182092,0.0,0.0,0.0,0.0,0.0,0.0,0.0,0.0,0.0,0.00028091305800562844,-0.00039517632344994224,-0.03396712384509183,0.0,0.0,0.0,0.0,0.0,0.0,0.0,0.0,0.0,0.16969026970523898,-0.03707670596158494,-0.0029452690250373927,0.0,0.0,0.0,0.0,0.0,0.0,0.0,0.0,0.0
6.48,185,6,480000000,base_footprint,0.002907741572017711,0.0025567991668779488,-0.7527903233589011,0.6582489930673436,0.0,0.0,0.0,0.0,0.0,0.0,0.0,0.0,0.0,0.0007334328153001809,0.0007223379444010765,-0.05295371127902433,0.0,0.0,0.0,0.0,0.0,0.0,0.0,0.0,0.0,0.04201998782900949,-0.005293327880734337,0.002583865798453889,0.0,0.0,0.0,0.0,0.0,0.0,0.0,0.0,0.0
6.514,186,6,514000000,base_footprint,0.0028973409157872455,0.002552776720497193,-0.7530151685411971,0.6579918272239448,0.0,0.0,0.0,0.0,0.0,0.0,0.0,0.0,0.0,-0.000604619750335002,-0.0002104045655293161,0.007803942461446717,0.0,0.0,0.0,0.0,0.0,0.0,0.0,0.0,0.0,0.014805432447337862,0.0017796488094122247,-0.0018229742974206359,0.0,0.0,0.0,0.0,0.0,0.0,0.0,0.0,0.0
6.548,187,6,548000000,base_footprint,0.0028993900061178367,0.0025509406088021,-0.7531999061429139,0.6577803490724761,0.0,0.0,0.0,0.0,0.0,0.0,0.0,0.0,0.0,-0.000244565543704549,0.0006818858592165875,-0.04387500615857265,0.0,0.0,0.0,0.0,0.0,0.0,0.0,0.0,0.0,-0.3218870849729808,0.09064197610457468,0.001395919308462012,0.0,0.0,0.0,0.0,0.0,0.0,0.0,0.0,0.0
6.582,188,6,582000000,base_footprint,0.0029066765519098277,0.002548133773646787,-0.7533824353880871,0.6575712617613463,0.0,0.0,0.0,0.0,0.0,0.0,0.0,0.0,0.0,-0.00020364128770824054,9.432077629861167e-05,-0.010902492276333912,0.0,0.0,0.0,0.0,0.0,0.0,0.0,0.0,0.0,-0.06895266925534554,0.024151800168079263,-0.0004234262285714272,0.0,0.0,0.0,0.0,0.0,0.0,0.0,0.0,0.0
6.616,189,6,616000000,base_footprint,0.0029051637174388307,0.002547017400902576,-0.7534702429051453,0.6574706577350778,0.0,0.0,0.0,0.0,0.0,0.0,0.0,0.0,0.0,9.542348887758633e-05,0.00031614299337225007,-0.00690162546360078,0.0,0.0,0.0,0.0,0.0,0.0,0.0,0.0,0.0,-0.00374968614379555,0.0033349234623866785,0.0005571032479749567,0.0,0.0,0.0,0.0,0.0,0.0,0.0,0.0,0.0
6.65,190,6,650000000,base_footprint,0.0029042393305783974,0.002547193962597426,-0.7535485585028802,0.6573808996122866,0.0,0.0,0.0,0.0,0.0,0.0,0.0,0.0,0.0,7.942798307552963e-05,0.00021917903705344382,-0.007174282777373359,0.0,0.0,0.0,0.0,0.0,0.0,0.0,0.0,0.0,-0.004998170001157987,0.003078532689805291,-0.00017375323983809664,0.0,0.0,0.0,0.0,0.0,0.0,0.0,0.0,0.0
6.684,191,6,684000000,base_footprint,0.0029045162423758397,0.002548635645872564,-0.7536297277126939,0.657287837822543,0.0,0.0,0.0,0.0,0.0,0.0,0.0,0.0,0.0,8.419996264373885e-05,0.00012393987409386518,-0.007418621739045086,0.0,0.0,0.0,0.0,0.0,0.0,0.0,0.0,0.0,-0.004894503212777711,0.003142352630512567,-0.0001811374705455571,0.0,0.0,0.0,0.0,0.0,0.0,0.0,0.0,0.0
6.718,192,6,718000000,base_footprint,0.0029057731059048924,0.0025517786460994844,-0.7536748306872456,0.6572361025513968,0.0,0.0,0.0,0.0,0.0,0.0,0.0,0.0,0.0,0.0001585577058137659,-6.740364695381614e-05,-0.0032040651267589222,0.0,0.0,0.0,0.0,0.0,0.0,0.0,0.0,0.0,-0.003449992190617133,0.002100247288614727,-0.0003871407618207219,0.0,0.0,0.0,0.0,0.0,0.0,0.0,0.0,0.0
6.752,193,6,752000000,base_footprint,0.0029079017932602856,0.002555180492319987,-0.7537089740002163,0.6571969245753921,0.0,0.0,0.0,0.0,0.0,0.0,0.0,0.0,0.0,9.952744073157401e-05,-2.7465130759351015e-05,-0.0028546075564030984,0.0,0.0,0.0,0.0,0.0,0.0,0.0,0.0,0.0,-0.003504891209514125,0.002219744429872612,4.449900503803675e-05,0.0,0.0,0.0,0.0,0.0,0.0,0.0,0.0,0.0
6.786,194,6,786000000,base_footprint,0.0029106942499771025,0.002557307337889471,-0.7537311697546459,0.6571714477809089,0.0,0.0,0.0,0.0,0.0,0.0,0.0,0.0,0.0,2.9539787945824835e-05,-5.717185356829403e-05,-0.0009308455398735704,0.0,0.0,0.0,0.0,0.0,0.0,0.0,0.0,0.0,0.0005204002471228831,0.0005377982984302729,-5.3519039761400966e-05,0.0,0.0,0.0,0.0,0.0,0.0,0.0,0.0,0.0
6.82,195,6,820000000,base_footprint,0.0029127093782939186,0.0025581985717971828,-0.7537276006442868,0.6571755288894676,0.0,0.0,0.0,0.0,0.0,0.0,0.0,0.0,0.0,-7.531516025779814e-05,0.00016151748458162972,0.0015247279134878353,0.0,0.0,0.0,0.0,0.0,0.0,0.0,0.0,0.0,0.0036938034985016114,0.00025464817009277743,0.0003768975354422789,0.0,0.0,0.0,0.0,0.0,0.0,0.0,0.0,0.0
6.854,196,6,854000000,base_footprint,0.002916838046808768,0.0025512910711368024,-0.7537173632175654,0.6571872787524418,0.0,0.0,0.0,0.0,0.0,0.0,0.0,0.0,0.0,-0.00028331812382551794,6.360455297480331e-05,0.001718175853045483,0.0,0.0,0.0,0.0,0.0,0.0,0.0,0.0,0.0,0.004616570763187997,-0.005416420895928188,-0.0002815928454515599,0.0,0.0,0.0,0.0,0.0,0.0,0.0,0.0,0.0
6.888,197,6,888000000,base_footprint,0.002918179313772909,0.0025523991474505855,-0.7536353530593783,0.6572813127627705,0.0,0.0,0.0,0.0,0.0,0.0,0.0,0.0,0.0,0.0002132530458225014,-0.000384265897188549,0.006443372979678844,0.0,0.0,0.0,0.0,0.0,0.0,0.0,0.0,0.0,0.02486085648824351,-0.005813135088146199,-0.0008051636206860627,0.0,0.0,0.0,0.0,0.0,0.0,0.0,0.0,0.0
6.922,198,6,922000000,base_footprint,0.002908269574135755,0.002555136496396122,-0.7535213883842399,0.6574119944852364,0.0,0.0,0.0,0.0,0.0,0.0,0.0,0.0,0.0,0.0005552037262303832,6.837142781900571e-05,0.006869371432105923,0.0,0.0,0.0,0.0,0.0,0.0,0.0,0.0,0.0,0.004473077239663926,-0.008043677845675026,0.0012311044318419858,0.0,0.0,0.0,0.0,0.0,0.0,0.0,0.0,0.0
6.956,199,6,956000000,base_footprint,0.002908430014559076,0.0025535728573146377,-0.753611863339376,0.6573082836346021,0.0,0.0,0.0,0.0,0.0,0.0,0.0,0.0,0.0,0.0006529358045371104,0.00040765577917173217,-0.015560557003565094,0.0,0.0,0.0,0.0,0.0,0.0,0.0,0.0,0.0,0.050577978868064186,-0.009510676354786286,0.0007337260880695593,0.0,0.0,0.0,0.0,0.0,0.0,0.0,0.0,0.0
6.99,200,6,990000000,base_footprint,0.002908319903855495,0.0025502675499560427,-0.7536985662269248,0.6572088778145335,0.0,0.0,0.0,0.0,0.0,0.0,0.0,0.0,0.0,-0.000623458053149381,-0.0005196138502652868,0.004376090540418648,0.0,0.0,0.0,0.0,0.0,0.0,0.0,0.0,0.0,-0.04520563316799608,0.015093738798189541,-0.0021844197493069714,0.0,0.0,0.0,0.0,0.0,0.0,0.0,0.0,0.0
7.024,201,7,24000000,base_footprint,0.0029082910122726654,0.0025485572164427547,-0.7535698929892812,0.6573564201250536,0.0,0.0,0.0,0.0,0.0,0.0,0.0,0.0,0.0,-1.329120781491097e-05,0.00028387206856747094,0.011250222266057444,0.0,0.0,0.0,0.0,0.0,0.0,0.0,0.0,0.0,-0.012553690345963792,0.00045793563722220515,0.0017482841665269558,0.0,0.0,0.0,0.0,0.0,0.0,0.0,0.0,0.0
7.058,202,7,58000000,base_footprint,0.00290596316742405,0.0025479531281230304,-0.7534475692326184,0.6574966340068863,0.0,0.0,0.0,0.0,0.0,0.0,0.0,0.0,0.0,-6.702717616433802e-05,0.00012571699178425702,0.01070956535777291,0.0,0.0,0.0,0.0,0.0,0.0,0.0,0.0,0.0,-0.005104016502400505,-0.0013344433911737467,-0.0003254753792152328,0.0,0.0,0.0,0.0,0.0,0.0,0.0,0.0,0.0
7.092,203,7,92000000,base_footprint,0.0029030947598594416,0.002549144069638718,-0.7533152680600254,0.6576482196531668,0.0,0.0,0.0,0.0,0.0,0.0,0.0,0.0,0.0,0.001404115732523269,-0.0002860114614137996,0.038229035351329224,0.0,0.0,0.0,0.0,0.0,0.0,0.0,0.0,0.0,0.004869534091988479,-0.0046158351589570615,0.0012653003483021406,0.0,0.0,0.0,0.0,0.0,0.0,0.0,0.0,0.0
7.126,204,7,126000000,base_footprint,0.0028997254027026986,0.002551744952899246,-0.7525841059687118,0.6584848089618766,0.0,0.0,0.0,0.0,0.0,0.0,0.0,0.0,0.0,-1.1754753834824739e-05,-0.00038114533259915584,0.06589164136377698,0.0,0.0,0.0,0.0,0.0,0.0,0.0,0.0,0.0,-0.005683522388719112,-0.011639146259150024,-0.0013999775709946215,0.0,0.0,0.0,0.0,0.0,0.0,0.0,0.0,0.0
7.16,205,7,160000000,base_footprint,0.00289703425744426,0.002556831726052934,-0.7518464205635085,0.659326952042669,0.0,0.0,0.0,0.0,0.0,0.0,0.0,0.0,0.0,2.1544360273596745e-05,-0.0004707118830227307,0.06576189701858753,0.0,0.0,0.0,0.0,0.0,0.0,0.0,0.0,0.0,-0.009075853857417191,-0.012331800283734038,-0.00031826177157684654,0.0,0.0,0.0,0.0,0.0,0.0,0.0,0.0,0.0
7.194,206,7,194000000,base_footprint,0.0028951582934409114,0.0025635768055298266,-0.7510944387711366,0.6601834519127916,0.0,0.0,0.0,0.0,0.0,0.0,0.0,0.0,0.0,0.0007749895662439857,-0.0012563851115077447,0.0803698832628801,0.0,0.0,0.0,0.0,0.0,0.0,0.0,0.0,0.0,-0.0063053659873498836,-0.013241207455426382,-0.0014881615258712406,0.0,0.0,0.0,0.0,0.0,0.0,0.0,0.0,0.0
7.228,207,7,228000000,base_footprint,0.002894109440854666,0.002570896428653117,-0.7501768507001976,0.6612259124502239,0.0,0.0,0.0,0.0,0.0,0.0,0.0,0.0,0.0,1.6391218373177518e-05,-0.0007100466742525136,0.08169325364805907,0.0,0.0,0.0,0.0,0.0,0.0,0.0,0.0,0.0,-0.006725389697270219,-0.016203300367104267,0.0008823296200996134,0.0,0.0,0.0,0.0,0.0,0.0,0.0,0.0,0.0
7.2620000000000005,208,7,262000000,base_footprint,0.0028932154477834073,0.0025775095338320376,-0.7492505537449132,0.6622753154556772,0.0,0.0,0.0,0.0,0.0,0.0,0.0,0.0,0.0,-5.1766473318241065e-05,-0.000664480326707633,0.08303692791617012,0.0,0.0,0.0,0.0,0.0,0.0,0.0,0.0,0.0,-0.005508541985425111,-0.016391801272243253,-0.00015991912292703046,0.0,0.0,0.0,0.0,0.0,0.0,0.0,0.0,0.0
7.296,209,7,296000000,base_footprint,0.0028909894620623234,0.002581866649872782,-0.7483061578608687,0.6633421969481795,0.0,0.0,0.0,0.0,0.0,0.0,0.0,0.0,0.0,0.0001111727779661005,-0.0007497621114859712,0.08779668521833009,0.0,0.0,0.0,0.0,0.0,0.0,0.0,0.0,0.0,-0.009631002350191271,-0.017223191394838747,-2.327517150686824e-05,0.0,0.0,0.0,0.0,0.0,0.0,0.0,0.0,0.0
7.33,210,7,330000000,base_footprint,0.0028924684698728963,0.002580946270158758,-0.7473234513333853,0.6644491187665605,0.0,0.0,0.0,0.0,0.0,0.0,0.0,0.0,0.0,-0.00043640421487573303,-0.0003816932517203976,0.08673211925363186,0.0,0.0,0.0,0.0,0.0,0.0,0.0,0.0,0.0,0.001740412471866135,-0.024060846193907,0.00029485778591916204,0.0,0.0,0.0,0.0,0.0,0.0,0.0,0.0,0.0
7.364,211,7,364000000,base_footprint,0.0028890547240052592,0.002582299976374899,-0.7462600229082156,0.6656432703022418,0.0,0.0,0.0,0.0,0.0,0.0,0.0,0.0,0.0,8.125620699446447e-05,-0.0009731156126773608,0.0987555781051778,0.0,0.0,0.0,0.0,0.0,0.0,0.0,0.0,0.0,0.044514885405248734,-0.026888942492123556,-0.0012085670054619183,0.0,0.0,0.0,0.0,0.0,0.0,0.0,0.0,0.0
7.398,212,7,398000000,base_footprint,0.002874832697212172,0.0025906671961632767,-0.7453388163964988,0.6666746377005115,0.0,0.0,0.0,0.0,0.0,0.0,0.0,0.0,0.0,0.00014363611782521003,-0.0016761550753970481,0.05828508441726622,0.0,0.0,0.0,0.0,0.0,0.0,0.0,0.0,0.0,0.01325040456389861,-0.02610722394375674,-0.0015462288529052325,0.0,0.0,0.0,0.0,0.0,0.0,0.0,0.0,0.0
7.432,213,7,432000000,base_footprint,0.002870588964185265,0.0025921469000389583,-0.7447553985125339,0.6673263346218881,0.0,0.0,0.0,0.0,0.0,0.0,0.0,0.0,0.0,0.0003984032739818536,-0.00015643903188095688,0.05506830085165178,0.0,0.0,0.0,0.0,0.0,0.0,0.0,0.0,0.0,0.00479164584679534,-0.01225833865031748,0.0023997317659005964,0.0,0.0,0.0,0.0,0.0,0.0,0.0,0.0,0.0
7.466,214,7,466000000,base_footprint,0.0028732429976363345,0.0025929578155888104,-0.7439743719981213,0.6681969431645466,0.0,0.0,0.0,0.0,0.0,0.0,0.0,0.0,0.0,0.0002575605248779357,0.0003769314449618914,0.07381121791456538,0.0,0.0,0.0,0.0,0.0,0.0,0.0,0.0,0.0,-0.044801806634359495,-0.004624868507217522,0.0010778593823131204,0.0,0.0,0.0,0.0,0.0,0.0,0.0,0.0,0.0
7.5,215,7,500000000,base_footprint,0.0028706381105585714,0.0025967078979280654,-0.7431055028121112,0.6691630804484737,0.0,0.0,0.0,0.0,0.0,0.0,0.0,0.0,0.0,0.0017518061284921582,0.004492138021239627,0.08990953775799007,0.0,0.0,0.0,0.0,0.0,0.0,0.0,0.0,0.0,0.22517725628093455,-0.06324251820704935,0.002744787501337823,0.0,0.0,0.0,0.0,0.0,0.0,0.0,0.0,0.0
7.534,216,7,534000000,base_footprint,0.002857362468250778,0.002595349676529853,-0.7424518800705381,0.6698882783117681,0.0,0.0,0.0,0.0,0.0,0.0,0.0,0.0,0.0,0.00022538111146722106,-0.004144249961377493,0.014009497602762598,0.0,0.0,0.0,0.0,0.0,0.0,0.0,0.0,0.0,0.22467496176666502,-0.061494445716599413,-0.00983062861816343,0.0,0.0,0.0,0.0,0.0,0.0,0.0,0.0,0.0
7.568,217,7,568000000,base_footprint,0.0028587028872523726,0.0025975654530633473,-0.7417487360159051,0.6706667526352613,0.0,0.0,0.0,0.0,0.0,0.0,0.0,0.0,0.0,-0.00010718756577047703,-0.0006526349216810331,0.07411592089893175,0.0,0.0,0.0,0.0,0.0,0.0,0.0,0.0,0.0,-0.13947352527904372,0.017614030850730232,0.005089530293289215,0.0,0.0,0.0,0.0,0.0,0.0,0.0,0.0,0.0
7.602,218,7,602000000,base_footprint,0.0028542661799498977,0.002598797067843761,-0.7411613907255957,0.6713157917970314,0.0,0.0,0.0,0.0,0.0,0.0,0.0,0.0,0.0,-0.00020320267282035784,-0.0008451157554614618,-0.0034967767892078367,0.0,0.0,0.0,0.0,0.0,0.0,0.0,0.0,0.0,-0.026781132888002497,-0.008888601001061128,-0.0013536258015355194,0.0,0.0,0.0,0.0,0.0,0.0,0.0,0.0,0.0
7.636,219,7,636000000,base_footprint,0.0028562672396835096,0.002601613936486718,-0.7411877110694146,0.6712867124426514,0.0,0.0,0.0,0.0,0.0,0.0,0.0,0.0,0.0,3.766339084484884e-05,0.00011467360213522626,-0.0022813333242832396,0.0,0.0,0.0,0.0,0.0,0.0,0.0,0.0,0.0,-0.0054736219680219115,0.0045834280691292775,0.001391373713900945,0.0,0.0,0.0,0.0,0.0,0.0,0.0,0.0,0.0
7.67,220,7,670000000,base_footprint,0.002857513331528363,0.0026040301606877897,-0.7412149063733147,0.6712566694003723,0.0,0.0,0.0,0.0,0.0,0.0,0.0,0.0,0.0,5.2789504070874246e-05,1.897590306497755e-05,-0.002499031161185412,0.0,0.0,0.0,0.0,0.0,0.0,0.0,0.0,0.0,-0.0048434078824593175,0.0016503013765966031,-0.0001992892208195913,0.0,0.0,0.0,0.0,0.0,0.0,0.0,0.0,0.0
7.704,221,7,704000000,base_footprint,0.002858689718358706,0.002606446122092983,-0.7410805634655361,0.6714049692885139,0.0,0.0,0.0,0.0,0.0,0.0,0.0,0.0,0.0,9.849020043277234e-05,0.0005661828202504929,0.0356685209763756,0.0,0.0,0.0,0.0,0.0,0.0,0.0,0.0,0.0,0.0012358602580882366,0.0006732134043187881,0.0010535755450525501,0.0,0.0,0.0,0.0,0.0,0.0,0.0,0.0,0.0
7.738,222,7,738000000,base_footprint,0.0028540560044252234,0.0026044315713180236,-0.7406692681640721,0.6718586953354195,0.0,0.0,0.0,0.0,0.0,0.0,0.0,0.0,0.0,0.00034293182762297724,-0.00037875781522511427,0.03713210645226532,0.0,0.0,0.0,0.0,0.0,0.0,0.0,0.0,0.0,-0.23548027851984432,0.03575642718408234,-1.7593442544199683e-05,0.0,0.0,0.0,0.0,0.0,0.0,0.0,0.0,0.0
7.772,223,7,772000000,base_footprint,0.002862580978091671,0.0026158055199664246,-0.7406139480340805,0.6719195957620212,0.0,0.0,0.0,0.0,0.0,0.0,0.0,0.0,0.0,5.389360481948606e-05,-5.499968082028394e-05,0.001293489419663927,0.0,0.0,0.0,0.0,0.0,0.0,0.0,0.0,0.0,-0.10326521169184857,0.020951385846562726,-0.0012877071143917763,0.0,0.0,0.0,0.0,0.0,0.0,0.0,0.0,0.0
7.806,224,7,806000000,base_footprint,0.002863975047298548,0.002611475296329825,-0.7406052373843076,0.6719292077314681,0.0,0.0,0.0,0.0,0.0,0.0,0.0,0.0,0.0,-0.0004953006571373675,0.00043146771225393096,-0.0009696865568331561,0.0,0.0,0.0,0.0,0.0,0.0,0.0,0.0,0.0,-0.00019649516219435352,-0.006081855957353546,0.0009157040265365688,0.0,0.0,0.0,0.0,0.0,0.0,0.0,0.0,0.0
7.84,225,7,840000000,base_footprint,0.0028661271927130716,0.0026073602117745493,-0.740612350862163,0.6719213739255969,0.0,0.0,0.0,0.0,0.0,0.0,0.0,0.0,0.0,-2.8483750782001176e-06,0.00033533688286123186,0.003884258210215952,0.0,0.0,0.0,0.0,0.0,0.0,0.0,0.0,0.0,0.023840511289285063,-5.621985816242625e-05,-6.0413845441249004e-05,0.0,0.0,0.0,0.0,0.0,0.0,0.0,0.0,0.0
7.874,226,7,874000000,base_footprint,0.002858508162413779,0.002613119049874152,-0.74062711961167,0.671905105082286,0.0,0.0,0.0,0.0,0.0,0.0,0.0,0.0,0.0,0.0002964680009729022,0.0001222915708965977,-0.01934669465400014,0.0,0.0,0.0,0.0,0.0,0.0,0.0,0.0,0.0,0.03192654030113756,-0.013652033511364191,-0.0007035125299038162,0.0,0.0,0.0,0.0,0.0,0.0,0.0,0.0,0.0
7.908,227,7,908000000,base_footprint,0.002851511539195956,0.0026063006228296453,-0.7406198264941448,0.6719132002593701,0.0,0.0,0.0,0.0,0.0,0.0,0.0,0.0,0.0,-0.0003900384564881105,-0.0007252600241061955,0.06916663271083572,0.0,0.0,0.0,0.0,0.0,0.0,0.0,0.0,0.0,0.1710936022328146,-0.02734816260353415,0.0003956668286090945,0.0,0.0,0.0,0.0,0.0,0.0,0.0,0.0,0.0
7.942,228,7,942000000,base_footprint,0.002843232817430431,0.0026134984528434534,-0.7391261847100172,0.6735559135877263,0.0,0.0,0.0,0.0,0.0,0.0,0.0,0.0,0.0,0.0009227896083656877,-0.0038883458031097815,0.12473314008443007,0.0,0.0,0.0,0.0,0.0,0.0,0.0,0.0,0.0,-0.06520379666358624,-0.015005437728409458,-0.004953659473684296,0.0,0.0,0.0,0.0,0.0,0.0,0.0,0.0,0.0
7.976,229,7,976000000,base_footprint,0.0028437895080859225,0.0026194751431522444,-0.7373182835603831,0.6755344550345146,0.0,0.0,0.0,0.0,0.0,0.0,0.0,0.0,0.0,-3.34929688465434e-05,-0.0006731330723309121,0.16959559315271328,0.0,0.0,0.0,0.0,0.0,0.0,0.0,0.0,0.0,-0.09906072546400364,-0.017318627829390115,0.005255013926956324,0.0,0.0,0.0,0.0,0.0,0.0,0.0,0.0,0.0
8.01,230,8,10000000,base_footprint,0.0028353550399168887,0.0026258982189893464,-0.7353979083630747,0.6776245138685258,0.0,0.0,0.0,0.0,0.0,0.0,0.0,0.0,0.0,-0.00011778923372944154,-0.0009136904640052644,0.16465348957889903,0.0,0.0,0.0,0.0,0.0,0.0,0.0,0.0,0.0,-0.013293582578750745,-0.033315261645705946,-0.0005322196305222828,0.0,0.0,0.0,0.0,0.0,0.0,0.0,0.0,0.0
8.044,231,8,44000000,base_footprint,0.0028260422388158932,0.0026323270621691065,-0.7334983598700839,0.6796802486518194,0.0,0.0,0.0,0.0,0.0,0.0,0.0,0.0,0.0,-8.379971279470468e-05,-0.000991545192863842,0.16460384184744686,0.0,0.0,0.0,0.0,0.0,0.0,0.0,0.0,0.0,-0.011091318664602175,-0.03452791026773021,-0.00038707220846864374,0.0,0.0,0.0,0.0,0.0,0.0,0.0,0.0,0.0
8.078,232,8,78000000,base_footprint,0.0028180010892300124,0.00263989256524673,-0.7315941604728564,0.6817294728843117,0.0,0.0,0.0,0.0,0.0,0.0,0.0,0.0,0.0,-8.931372175451823e-05,-0.001073147770700368,0.16448992411183322,0.0,0.0,0.0,0.0,0.0,0.0,0.0,0.0,0.0,-0.010809184540206428,-0.034700115784244444,-0.00043476873417977165,0.0,0.0,0.0,0.0,0.0,0.0,0.0,0.0,0.0
8.112,233,8,112000000,base_footprint,0.0028138585418825803,0.002646452300046216,-0.7303000145072435,0.6831156324525519,0.0,0.0,0.0,0.0,0.0,0.0,0.0,0.0,0.0,-2.547429453340459e-06,-0.0002971740669556878,0.07284663171292252,0.0,0.0,0.0,0.0,0.0,0.0,0.0,0.0,0.0,-0.033720312300845094,-0.021406076977619946,-0.00027337375301442034,0.0,0.0,0.0,0.0,0.0,0.0,0.0,0.0,0.0
8.146,234,8,146000000,base_footprint,0.002811921644537453,0.0026518261446496004,-0.7294525540654534,0.6840204911273862,0.0,0.0,0.0,0.0,0.0,0.0,0.0,0.0,0.0,-3.0594747797801924e-05,-0.0005500157004663282,0.07283728719451274,0.0,0.0,0.0,0.0,0.0,0.0,0.0,0.0,0.0,-0.006672905196049718,-0.014715324282376464,-0.00041488428980909276,0.0,0.0,0.0,0.0,0.0,0.0,0.0,0.0,0.0
8.18,235,8,180000000,base_footprint,0.002811305744290853,0.002658876368290232,-0.7286061317612457,0.684921989496895,0.0,0.0,0.0,0.0,0.0,0.0,0.0,0.0,0.0,-1.8099147521275432e-05,-0.0006795189941286625,0.07267089096511237,0.0,0.0,0.0,0.0,0.0,0.0,0.0,0.0,0.0,-0.006898037462217764,-0.01504916495050166,-0.00040998962959724633,0.0,0.0,0.0,0.0,0.0,0.0,0.0,0.0,0.0
8.214,236,8,214000000,base_footprint,0.0028118862026484436,0.0026538576127556135,-0.7278155248081902,0.6857620667432205,0.0,0.0,0.0,0.0,0.0,0.0,0.0,0.0,0.0,-0.0005489577627571389,-0.0007434733755794455,0.0802778441259876,0.0,0.0,0.0,0.0,0.0,0.0,0.0,0.0,0.0,0.40104290269981124,-0.06256599895441364,-0.0003669620975549795,0.0,0.0,0.0,0.0,0.0,0.0,0.0,0.0,0.0
8.248,237,8,248000000,base_footprint,0.0028096175954757277,0.0026669012773733124,-0.726851882492149,0.686783324349218,0.0,0.0,0.0,0.0,0.0,0.0,0.0,0.0,0.0,0.00037825792071966957,-0.002051410505986189,0.05992209752365554,0.0,0.0,0.0,0.0,0.0,0.0,0.0,0.0,0.0,-0.08296230729485168,-0.006908032759393376,-0.002800341988118232,0.0,0.0,0.0,0.0,0.0,0.0,0.0,0.0,0.0
8.282,238,8,282000000,base_footprint,0.0028090567363208024,0.002674917285427592,-0.7261304502707,0.6875460153382018,0.0,0.0,0.0,0.0,0.0,0.0,0.0,0.0,0.0,4.876373976194592e-05,-0.00035127193574078174,0.06141606322886552,0.0,0.0,0.0,0.0,0.0,0.0,0.0,0.0,0.0,0.010832329710591504,-0.011705156759670354,0.0029024426564535416,0.0,0.0,0.0,0.0,0.0,0.0,0.0,0.0,0.0
8.316,239,8,316000000,base_footprint,0.002803791634367823,0.0026740892104095116,-0.7254207492672007,0.6882947947877994,0.0,0.0,0.0,0.0,0.0,0.0,0.0,0.0,0.0,-0.0002047636592799553,-7.601574935839646e-05,0.05751137586307084,0.0,0.0,0.0,0.0,0.0,0.0,0.0,0.0,0.0,0.005721239270313696,-0.018493854675664383,0.0004168335313565078,0.0,0.0,0.0,0.0,0.0,0.0,0.0,0.0,0.0
8.35,240,8,350000000,base_footprint,0.002799957133020434,0.0026736053545231126,-0.7248667348434646,0.688878239452979,0.0,0.0,0.0,0.0,0.0,0.0,0.0,0.0,0.0,-0.0007365096928185394,-0.0006959432768603003,0.04196678282820159,0.0,0.0,0.0,0.0,0.0,0.0,0.0,0.0,0.0,0.07765156887959143,-0.019131372235048988,-0.0017471637245035953,0.0,0.0,0.0,0.0,0.0,0.0,0.0,0.0,0.0
8.384,241,8,384000000,base_footprint,0.0027960837697258464,0.0026800371464667165,-0.7243266413090579,0.6894460936189181,0.0,0.0,0.0,0.0,0.0,0.0,0.0,0.0,0.0,-0.00011091464925034068,-0.0004950671958382449,0.05101038798151488,0.0,0.0,0.0,0.0,0.0,0.0,0.0,0.0,0.0,-0.02833690077045297,-0.006753878178269026,0.0011067520774402674,0.0,0.0,0.0,0.0,0.0,0.0,0.0,0.0,0.0
8.418,242,8,418000000,base_footprint,0.0027896886899450297,0.0026756437431914534,-0.7237046500215688,0.6900990060163333,0.0,0.0,0.0,0.0,0.0,0.0,0.0,0.0,0.0,-1.3519592721823964e-05,-0.0002634358391657843,0.0450609315334367,0.0,0.0,0.0,0.0,0.0,0.0,0.0,0.0,0.0,0.33872066886579777,-0.04295938461085791,-0.001301745564069525,0.0,0.0,0.0,0.0,0.0,0.0,0.0,0.0,0.0
8.452,243,8,452000000,base_footprint,0.002792610622809984,0.002681412644638602,-0.7231602066579556,0.6906694772889286,0.0,0.0,0.0,0.0,0.0,0.0,0.0,0.0,0.0,4.310452275416353e-05,-0.00017119756811237826,0.046463818497274004,0.0,0.0,0.0,0.0,0.0,0.0,0.0,0.0,0.0,-0.029195079511176718,-0.005063080671731517,0.0011539808751859669,0.0,0.0,0.0,0.0,0.0,0.0,0.0,0.0,0.0
8.486,244,8,486000000,base_footprint,0.002787847693833687,0.002680033538334305,-0.7226150918286717,0.6912398096080041,0.0,0.0,0.0,0.0,0.0,0.0,0.0,0.0,0.0,-5.314634101048028e-05,4.1355313905623486e-05,0.04633196456376289,0.0,0.0,0.0,0.0,0.0,0.0,0.0,0.0,0.0,-0.004633720100229624,-0.00831909246744602,0.0005823268196460076,0.0,0.0,0.0,0.0,0.0,0.0,0.0,0.0,0.0
8.52,245,8,520000000,base_footprint,0.0027794322274319765,0.0026785041070623555,-0.722047117153971,0.6918331164246775,0.0,0.0,0.0,0.0,0.0,0.0,0.0,0.0,0.0,-0.00017215268768284666,-0.0007392413204048938,0.09587636082992376,0.0,0.0,0.0,0.0,0.0,0.0,0.0,0.0,0.0,-0.41851842106177817,0.02756874619398353,-0.000429099354050949,0.0,0.0,0.0,0.0,0.0,0.0,0.0,0.0,0.0
8.554,246,8,554000000,base_footprint,0.002779228014226959,0.0026816355365215897,-0.7212151640824882,0.6927003477839202,0.0,0.0,0.0,0.0,0.0,0.0,0.0,0.0,0.0,-7.724409207207993e-05,-0.00033046652541978333,0.05246374168335635,0.0,0.0,0.0,0.0,0.0,0.0,0.0,0.0,0.0,-0.2773170900789008,0.006430962722596856,1.2188287176253371e-05,0.0,0.0,0.0,0.0,0.0,0.0,0.0,0.0,0.0
8.588000000000001,247,8,588000000,base_footprint,0.0027768987520632657,0.002684063516965879,-0.7205720407278668,0.6933693234904724,0.0,0.0,0.0,0.0,0.0,0.0,0.0,0.0,0.0,-4.93811568128061e-05,-0.000261639923410703,0.0546531723210215,0.0,0.0,0.0,0.0,0.0,0.0,0.0,0.0,0.0,-9.191338484633178e-05,-0.011982798689095372,-8.003841138052339e-05,0.0,0.0,0.0,0.0,0.0,0.0,0.0,0.0,0.0
8.622,248,8,622000000,base_footprint,0.002775590899061065,0.002687510757219197,-0.7199640988498347,0.6940005545735798,0.0,0.0,0.0,0.0,0.0,0.0,0.0,0.0,0.0,-4.63249588338742e-05,-0.0003162099175292406,0.05000663214232618,0.0,0.0,0.0,0.0,0.0,0.0,0.0,0.0,0.0,0.3304988098022806,-0.03556282671982172,-0.00034260232473602855,0.0,0.0,0.0,0.0,0.0,0.0,0.0,0.0,0.0
8.656,249,8,656000000,base_footprint,0.0027751392014416223,0.0026920331344747173,-0.7193526371353229,0.6946343174696108,0.0,0.0,0.0,0.0,0.0,0.0,0.0,0.0,0.0,-3.545339483732805e-05,-0.00040894060042874015,0.051765655326292334,0.0,0.0,0.0,0.0,0.0,0.0,0.0,0.0,0.0,-0.0034127868429012394,-0.010474973183550423,-0.0002990736611928244,0.0,0.0,0.0,0.0,0.0,0.0,0.0,0.0,0.0
8.69,250,8,690000000,base_footprint,0.0027759220978959,0.002698051199406255,-0.71874363571701,0.695264410776595,0.0,0.0,0.0,0.0,0.0,0.0,0.0,0.0,0.0,-2.7204122081940903e-05,-0.000531897566349868,0.051378061562942945,0.0,0.0,0.0,0.0,0.0,0.0,0.0,0.0,0.0,-0.005170780525717446,-0.010221967624132253,-0.00036393323201529694,0.0,0.0,0.0,0.0,0.0,0.0,0.0,0.0,0.0
8.724,251,8,724000000,base_footprint,0.0027765301904477515,0.002703010520196417,-0.7183184582013157,0.6957036561794929,0.0,0.0,0.0,0.0,0.0,0.0,0.0,0.0,0.0,-0.000369088787885536,-0.0009607710912302304,0.0411417676530248,0.0,0.0,0.0,0.0,0.0,0.0,0.0,0.0,0.0,-0.3373773044159327,0.016929826694425526,-0.0023483523072386197,0.0,0.0,0.0,0.0,0.0,0.0,0.0,0.0,0.0
8.758,252,8,758000000,base_footprint,0.0027763860182410975,0.002707448660994478,-0.7178320505680892,0.6962055074327107,0.0,0.0,0.0,0.0,0.0,0.0,0.0,0.0,0.0,1.5017187680709795e-05,-0.00032721615620843195,0.041251090240036384,0.0,0.0,0.0,0.0,0.0,0.0,0.0,0.0,0.0,-0.009189970417461982,-0.008587791475423677,0.0023301861137825725,0.0,0.0,0.0,0.0,0.0,0.0,0.0,0.0,0.0
8.792,253,8,792000000,base_footprint,0.0027724131161958637,0.0027079841523376235,-0.7173520808165668,0.696700059347985,0.0,0.0,0.0,0.0,0.0,0.0,0.0,0.0,0.0,-0.0011598255968497207,0.0038858108815991274,0.04006542023812465,0.0,0.0,0.0,0.0,0.0,0.0,0.0,0.0,0.0,0.01401297347547458,-0.009707949528169038,0.012754704531587235,0.0,0.0,0.0,0.0,0.0,0.0,0.0,0.0,0.0
8.826,254,8,826000000,base_footprint,0.0027738213816326726,0.0027098117777928136,-0.7169540251891199,0.6971096675561103,0.0,0.0,0.0,0.0,0.0,0.0,0.0,0.0,0.0,0.0030283438957593523,0.0016528358257697526,0.020246874469533292,0.0,0.0,0.0,0.0,0.0,0.0,0.0,0.0,0.0,0.11338665589310148,-0.022184255888624216,-0.01056886246944393,0.0,0.0,0.0,0.0,0.0,0.0,0.0,0.0,0.0
8.86,255,8,860000000,base_footprint,0.0027703817415547505,0.0027018792980834307,-0.7170596872325629,0.6970010256658191,0.0,0.0,0.0,0.0,0.0,0.0,0.0,0.0,0.0,-0.0014008894427209985,-0.0008049618602532411,-0.009165347268446963,0.0,0.0,0.0,0.0,0.0,0.0,0.0,0.0,0.0,0.1612930577490697,-0.0031928403898295737,-0.0038130858543170896,0.0,0.0,0.0,0.0,0.0,0.0,0.0,0.0,0.0
8.894,256,8,894000000,base_footprint,0.002780967771786922,0.002716632614475006,-0.7167511935742507,0.6973181573968782,0.0,0.0,0.0,0.0,0.0,0.0,0.0,0.0,0.0,0.00017590446238833525,-0.005832086475190102,0.031106979352457022,0.0,0.0,0.0,0.0,0.0,0.0,0.0,0.0,0.0,0.16696474238670284,-0.011838604879675557,-0.001972373377790124,0.0,0.0,0.0,0.0,0.0,0.0,0.0,0.0,0.0
8.928,257,8,928000000,base_footprint,0.0027685257386269304,0.002707754123811156,-0.7163806705178454,0.6976988879461125,0.0,0.0,0.0,0.0,0.0,0.0,0.0,0.0,0.0,0.00026576901944065515,-0.00084121223349923,0.03758605618101386,0.0,0.0,0.0,0.0,0.0,0.0,0.0,0.0,0.0,0.25990721921363413,-0.020461376053572622,0.0024935135346565184,0.0,0.0,0.0,0.0,0.0,0.0,0.0,0.0,0.0
8.962,258,8,962000000,base_footprint,0.002763683634553123,0.0027080136516293525,-0.7159255090500888,0.6981659503343042,0.0,0.0,0.0,0.0,0.0,0.0,0.0,0.0,0.0,0.0001255076194852133,-2.393809856981675e-05,0.0386110317671629,0.0,0.0,0.0,0.0,0.0,0.0,0.0,0.0,0.0,-0.0019918869892709408,-0.00922685739091356,0.0013919657457171085,0.0,0.0,0.0,0.0,0.0,0.0,0.0,0.0,0.0
8.996,259,8,996000000,base_footprint,0.002751498757593999,0.0026963808572023507,-0.7154765588618949,0.6986261178226889,0.0,0.0,0.0,0.0,0.0,0.0,0.0,0.0,0.0,-0.00018136773365381455,0.0005747164721966731,0.030926630184055268,0.0,0.0,0.0,0.0,0.0,0.0,0.0,0.0,0.0,-0.11674815076646423,-0.001963785051943473,0.0009854688947756578,0.0,0.0,0.0,0.0,0.0,0.0,0.0,0.0,0.0
9.03,260,9,30000000,base_footprint,0.0027585222710373924,0.0027062345499390614,-0.7152845405334678,0.6988226476891451,0.0,0.0,0.0,0.0,0.0,0.0,0.0,0.0,0.0,-0.0008423265897422885,-0.0004933422133810433,0.02910520797504398,0.0,0.0,0.0,0.0,0.0,0.0,0.0,0.0,0.0,-0.5768910228767012,0.024086905254532942,-0.0012094791557361617,0.0,0.0,0.0,0.0,0.0,0.0,0.0,0.0,0.0
9.064,261,9,64000000,base_footprint,0.002756017485668605,0.00270556409071418,-0.7149333882719642,0.6991819038165523,0.0,0.0,0.0,0.0,0.0,0.0,0.0,0.0,0.0,-5.464280179664993e-05,-1.5932825478594086e-05,0.029353732198940205,0.0,0.0,0.0,0.0,0.0,0.0,0.0,0.0,0.0,-0.005529450839731418,-0.006455909462104986,0.0002513885236915936,0.0,0.0,0.0,0.0,0.0,0.0,0.0,0.0,0.0
9.098,262,9,98000000,base_footprint,0.0027587922807759705,0.002711224826968206,-0.7145854110366111,0.6995375105444502,0.0,0.0,0.0,0.0,0.0,0.0,0.0,0.0,0.0,7.67745437955567e-06,0.003369357441822412,0.030890701324164212,0.0,0.0,0.0,0.0,0.0,0.0,0.0,0.0,0.0,0.21553624515602038,-0.01522584670561522,0.0016122688063142834,0.0,0.0,0.0,0.0,0.0,0.0,0.0,0.0,0.0
9.132,263,9,132000000,base_footprint,0.002755396452680422,0.0027103079980367014,-0.7142154824034557,0.699915213948192,0.0,0.0,0.0,0.0,0.0,0.0,0.0,0.0,0.0,-4.307361708360884e-05,-0.00015493708060226484,0.03161402190024764,0.0,0.0,0.0,0.0,0.0,0.0,0.0,0.0,0.0,0.4558504905509636,-0.025275820261530912,-0.0020191976368942642,0.0,0.0,0.0,0.0,0.0,0.0,0.0,0.0,0.0
9.166,264,9,166000000,base_footprint,0.0027560320563248986,0.002714019207063474,-0.7138435688504916,0.7002945077593011,0.0,0.0,0.0,0.0,0.0,0.0,0.0,0.0,0.0,-3.071116759425679e-05,-0.00027802760542715055,0.031035479059293353,0.0,0.0,0.0,0.0,0.0,0.0,0.0,0.0,0.0,-0.005907085272953169,-0.005763513539121891,-0.00039552766450803335,0.0,0.0,0.0,0.0,0.0,0.0,0.0,0.0,0.0
9.2,265,9,200000000,base_footprint,0.002751624447310354,0.002712650288094979,-0.7135249755378499,0.7006191400290362,0.0,0.0,0.0,0.0,0.0,0.0,0.0,0.0,0.0,2.2211622203244068e-05,0.0010049759442500143,0.0060132123609524645,0.0,0.0,0.0,0.0,0.0,0.0,0.0,0.0,0.0,-0.1775823794271783,0.0009578862723362142,0.001947264652873662,0.0,0.0,0.0,0.0,0.0,0.0,0.0,0.0,0.0
9.234,266,9,234000000,base_footprint,0.0027568572550604265,0.002718564453319572,-0.7138250966342857,0.7003133159953772,0.0,0.0,0.0,0.0,0.0,0.0,0.0,0.0,0.0,0.0005748626125743524,-3.2178623764155456e-05,-0.016481837169651896,0.0,0.0,0.0,0.0,0.0,0.0,0.0,0.0,0.0,-0.39512163340436357,0.02100698289949343,-0.0025283020708372636,0.0,0.0,0.0,0.0,0.0,0.0,0.0,0.0,0.0
9.268,267,9,268000000,base_footprint,0.002753299345339154,0.002721701910737529,-0.7136581330540568,0.7004834621939496,0.0,0.0,0.0,0.0,0.0,0.0,0.0,0.0,0.0,0.0006894522214823324,0.0006172418132707187,0.03378704315277324,0.0,0.0,0.0,0.0,0.0,0.0,0.0,0.0,0.0,-0.10364963581763723,0.0025884971875372656,0.001965597877538988,0.0,0.0,0.0,0.0,0.0,0.0,0.0,0.0,0.0
9.302,268,9,302000000,base_footprint,0.0027601489997862386,0.002713727568531713,-0.7132349592055267,0.7009143387228383,0.0,0.0,0.0,0.0,0.0,0.0,0.0,0.0,0.0,-8.98266479489125e-05,-0.002863579863825343,0.03813004464171857,0.0,0.0,0.0,0.0,0.0,0.0,0.0,0.0,0.0,0.05652703332668188,-0.012386333113237807,-0.007591019347762749,0.0,0.0,0.0,0.0,0.0,0.0,0.0,0.0,0.0
9.336,269,9,336000000,base_footprint,0.0027560621052225105,0.0027304099433977202,-0.7129665926780645,0.7011872693569415,0.0,0.0,0.0,0.0,0.0,0.0,0.0,0.0,0.0,0.0002791259135980892,-0.0006656437491957312,-0.012037321736910458,0.0,0.0,0.0,0.0,0.0,0.0,0.0,0.0,0.0,0.12519963021416713,-0.015436116764220915,0.0048606455553636355,0.0,0.0,0.0,0.0,0.0,0.0,0.0,0.0,0.0
9.37,270,9,370000000,base_footprint,0.0027600170380143794,0.002717942131119504,-0.7131701120473649,0.7009803038451728,0.0,0.0,0.0,0.0,0.0,0.0,0.0,0.0,0.0,0.00018028711104871466,0.0002105732694332757,0.010278886546289487,0.0,0.0,0.0,0.0,0.0,0.0,0.0,0.0,0.0,0.12165962354131118,0.0036799935624619168,0.00187389839973104,0.0,0.0,0.0,0.0,0.0,0.0,0.0,0.0,0.0
9.404,271,9,404000000,base_footprint,0.0027439727956353075,0.002703537541692802,-0.7127829958266632,0.701374053097507,0.0,0.0,0.0,0.0,0.0,0.0,0.0,0.0,0.0,-0.001380429959852413,8.453768459643313e-06,0.03644645029204381,0.0,0.0,0.0,0.0,0.0,0.0,0.0,0.0,0.0,-0.048015184129596836,-0.004923677988494506,0.0017650846323635661,0.0,0.0,0.0,0.0,0.0,0.0,0.0,0.0,0.0
9.438,272,9,438000000,base_footprint,0.002750103078409693,0.0027235694738328895,-0.7122098708018335,0.7019559238547781,0.0,0.0,0.0,0.0,0.0,0.0,0.0,0.0,0.0,0.000337216804289418,0.0010262257305310135,0.06339930333452964,0.0,0.0,0.0,0.0,0.0,0.0,0.0,0.0,0.0,-0.22030537792011318,-0.0019940551293797654,-0.0003492879468064283,0.0,0.0,0.0,0.0,0.0,0.0,0.0,0.0,0.0
9.472,273,9,472000000,base_footprint,0.0027447168003292056,0.0027242679851464465,-0.7114491094921296,0.7027269807659922,0.0,0.0,0.0,0.0,0.0,0.0,0.0,0.0,0.0,-0.00013096321653052395,-3.5080752346998824e-05,0.06385170790450181,0.0,0.0,0.0,0.0,0.0,0.0,0.0,0.0,0.0,-0.004381126683394878,-0.013644262927154389,-0.0011543896591176715,0.0,0.0,0.0,0.0,0.0,0.0,0.0,0.0,0.0
9.506,274,9,506000000,base_footprint,0.002740625622537985,0.002729263858282375,-0.7102006409931199,0.7039886999256102,0.0,0.0,0.0,0.0,0.0,0.0,0.0,0.0,0.0,-0.00015130301179664378,-0.0005619310953115853,0.20331164940235638,0.0,0.0,0.0,0.0,0.0,0.0,0.0,0.0,0.0,0.20486202635941697,-0.02280356394621548,0.0005698790957403361,0.0,0.0,0.0,0.0,0.0,0.0,0.0,0.0,0.0
9.54,275,9,540000000,base_footprint,0.002723589983481621,0.0027353837727829705,-0.7070559516193478,0.7071470716992867,0.0,0.0,0.0,0.0,0.0,0.0,0.0,0.0,0.0,-0.0001733673181566832,-0.0027978530730060533,0.2886941718331407,0.0,0.0,0.0,0.0,0.0,0.0,0.0,0.0,0.0,-0.1175588214268169,-0.058280384082014705,-0.002554034883677996,0.0,0.0,0.0,0.0,0.0,0.0,0.0,0.0,0.0
9.573,276,9,574000000,base_footprint,0.002711382562374634,0.002749085182747629,-0.7034070506717333,0.7107767666437558,0.0,0.0,0.0,0.0,0.0,0.0,0.0,0.0,0.0,-5.653307727995641e-05,-0.00220684864744477,0.30332074870161163,0.0,0.0,0.0,0.0,0.0,0.0,0.0,0.0,0.0,-0.03969842017041465,-0.06448088939222271,0.00027284328777659074,0.0,0.0,0.0,0.0,0.0,0.0,0.0,0.0,0.0
9.608,277,9,608000000,base_footprint,0.0026989162017200105,0.0027670885437628117,-0.6996809998850919,0.714444929628677,0.0,0.0,0.0,0.0,0.0,0.0,0.0,0.0,0.0,1.7398115577552152e-05,-0.00228150125682055,0.31934129295360736,0.0,0.0,0.0,0.0,0.0,0.0,0.0,0.0,0.0,0.4816624392163399,-0.046865581817153695,-0.0002899965460992687,0.0,0.0,0.0,0.0,0.0,0.0,0.0,0.0,0.0
9.642,278,9,642000000,base_footprint,0.0026848014024249073,0.002776395104045715,-0.6962315300507754,0.7178068960624522,0.0,0.0,0.0,0.0,0.0,0.0,0.0,0.0,0.0,0.0002175036589587846,-0.0021506547389770897,0.2878200529012523,0.0,0.0,0.0,0.0,0.0,0.0,0.0,0.0,0.0,-0.09198827602273052,-0.06327476421246989,-0.0009428401715150028,0.0,0.0,0.0,0.0,0.0,0.0,0.0,0.0,0.0
9.676,279,9,676000000,base_footprint,0.00267616690653674,0.002794751571465646,-0.6924363950439039,0.721468548387901,0.0,0.0,0.0,0.0,0.0,0.0,0.0,0.0,0.0,-1.6332534000843522e-05,-0.002436746421656453,0.3111272063078272,0.0,0.0,0.0,0.0,0.0,0.0,0.0,0.0,0.0,-0.04991362733404641,-0.06656823124281239,-0.0006658693213680499,0.0,0.0,0.0,0.0,0.0,0.0,0.0,0.0,0.0
9.71,280,9,710000000,base_footprint,0.0026466341522518124,0.002811463062068691,-0.6885209407714706,0.7252061811114711,0.0,0.0,0.0,0.0,0.0,0.0,0.0,0.0,0.0,0.0015768077880153348,0.0008652986437277118,0.31151434691203517,0.0,0.0,0.0,0.0,0.0,0.0,0.0,0.0,0.0,0.24889400960977295,-0.03921658239910958,0.0033835595800536557,0.0,0.0,0.0,0.0,0.0,0.0,0.0,0.0,0.0
9.744,281,9,744000000,base_footprint,0.0026527235901820804,0.0028255275159812516,-0.6851082642819714,0.7284309477667428,0.0,0.0,0.0,0.0,0.0,0.0,0.0,0.0,0.0,0.0007696041428898561,-0.001106361353068035,0.25998288442595624,0.0,0.0,0.0,0.0,0.0,0.0,0.0,0.0,0.0,0.11041984148981086,-0.043922450923182026,-0.0029384737563985914,0.0,0.0,0.0,0.0,0.0,0.0,0.0,0.0,0.0
9.778,282,9,778000000,base_footprint,0.0026303950661165786,0.0028413867543355437,-0.6820201438180947,0.731323137176347,0.0,0.0,0.0,0.0,0.0,0.0,0.0,0.0,0.0,-0.00018505754471276553,-0.0022083300815131618,0.23375917738685287,0.0,0.0,0.0,0.0,0.0,0.0,0.0,0.0,0.0,0.06196557945941419,-0.039328930945580515,-0.0024382255741724683,0.0,0.0,0.0,0.0,0.0,0.0,0.0,0.0,0.0
9.812,283,9,812000000,base_footprint,0.0026192492148138214,0.0028390841922489147,-0.6790933343910982,0.7340417715090064,0.0,0.0,0.0,0.0,0.0,0.0,0.0,0.0,0.0,-0.00014589501729819494,-0.0005169750263428823,0.2312978318876549,0.0,0.0,0.0,0.0,0.0,0.0,0.0,0.0,0.0,0.22706809352363216,-0.012140518761511787,0.0025022069824150494,0.0,0.0,0.0,0.0,0.0,0.0,0.0,0.0,0.0
9.846,284,9,846000000,base_footprint,0.0026102388309816567,0.0028507864860352642,-0.6763696801684361,0.7365521810561039,0.0,0.0,0.0,0.0,0.0,0.0,0.0,0.0,0.0,0.00015150454727796384,-0.003526124944244189,0.2277588807188654,0.0,0.0,0.0,0.0,0.0,0.0,0.0,0.0,0.0,0.290939305615181,0.011833641391481686,-0.005126821254745802,0.0,0.0,0.0,0.0,0.0,0.0,0.0,0.0,0.0
9.88,285,9,880000000,base_footprint,0.002602623394381108,0.0028742781589789906,-0.673353131013349,0.7393108452004825,0.0,0.0,0.0,0.0,0.0,0.0,0.0,0.0,0.0,0.0007035826860594972,-0.0023324620139122815,0.24866460699304876,0.0,0.0,0.0,0.0,0.0,0.0,0.0,0.0,0.0,0.05583756223463206,-0.0338937502126688,0.00164336395528017,0.0,0.0,0.0,0.0,0.0,0.0,0.0,0.0,0.0
9.914,286,9,914000000,base_footprint,0.0025847043495384964,0.0028735275338663425,-0.6706670709978434,0.7417484358069866,0.0,0.0,0.0,0.0,0.0,0.0,0.0,0.0,0.0,1.0958275617175932e-05,-0.003135931592960559,0.19135903524572323,0.0,0.0,0.0,0.0,0.0,0.0,0.0,0.0,0.0,0.20272862582048895,0.0031473948502685617,-0.0005084054981612471,0.0,0.0,0.0,0.0,0.0,0.0,0.0,0.0,0.0
9.948,287,9,948000000,base_footprint,0.002574027902945313,0.002884412607880349,-0.6679138620780417,0.7442285451313039,0.0,0.0,0.0,0.0,0.0,0.0,0.0,0.0,0.0,0.00016792558295091473,-0.0017666248706400638,0.2518935966200738,0.0,0.0,0.0,0.0,0.0,0.0,0.0,0.0,0.0,0.18804387580267867,0.003950181856090654,0.001996714950431337,0.0,0.0,0.0,0.0,0.0,0.0,0.0,0.0,0.0
9.982,288,9,982000000,base_footprint,0.00255985631347037,0.0029015374763083223,-0.6645374830464424,0.7472449142297505,0.0,0.0,0.0,0.0,0.0,0.0,0.0,0.0,0.0,0.00011326020598219567,-0.0017902745819228054,0.26234309219126684,0.0,0.0,0.0,0.0,0.0,0.0,0.0,0.0,0.0,0.03529447103294028,-0.037624814731774016,-0.000219222465020095,0.0,0.0,0.0,0.0,0.0,0.0,0.0,0.0,0.0
10.016,289,10,16000000,base_footprint,0.0025468484580716353,0.0029045244741446163,-0.6613914059204498,0.7500309896764812,0.0,0.0,0.0,0.0,0.0,0.0,0.0,0.0,0.0,0.00046845185575300236,-0.0012371763606715477,0.25601046923033455,0.0,0.0,0.0,0.0,0.0,0.0,0.0,0.0,0.0,0.3569489732040217,0.056744571554113055,-0.00018990771649064894,0.0,0.0,0.0,0.0,0.0,0.0,0.0,0.0,0.0
10.05,290,10,50000000,base_footprint,0.002534791020702624,0.0029186006470996767,-0.6581933530425712,0.7528390044460511,0.0,0.0,0.0,0.0,0.0,0.0,0.0,0.0,0.0,0.00024962097610118825,-0.0017212766772592516,0.25026456898778143,0.0,0.0,0.0,0.0,0.0,0.0,0.0,0.0,0.0,-0.010348791167756572,-0.043824550207484034,-0.00027129884672809704,0.0,0.0,0.0,0.0,0.0,0.0,0.0,0.0,0.0
10.084,291,10,84000000,base_footprint,0.0025227340638997193,0.002928295838025266,-0.6549827625988107,0.7556339335913641,0.0,0.0,0.0,0.0,0.0,0.0,0.0,0.0,0.0,0.0002626664944494565,-0.0017690522632130244,0.25064775384703974,0.0,0.0,0.0,0.0,0.0,0.0,0.0,0.0,0.0,0.007574067863924281,-0.036597230250782084,-0.00037850113164658225,0.0,0.0,0.0,0.0,0.0,0.0,0.0,0.0,0.0
10.118,292,10,118000000,base_footprint,0.002509334810892916,0.002936945028902296,-0.6513256502029414,0.7587884915972433,0.0,0.0,0.0,0.0,0.0,0.0,0.0,0.0,0.0,0.0017070603590852965,-0.003623776497612775,0.3246172925246663,0.0,0.0,0.0,0.0,0.0,0.0,0.0,0.0,0.0,0.3625169835349288,0.06969866260981314,-0.002417875820345366,0.0,0.0,0.0,0.0,0.0,0.0,0.0,0.0,0.0
10.152,293,10,152000000,base_footprint,0.0024951620457208234,0.0029504591672381004,-0.6473002625012895,0.7622253204419477,0.0,0.0,0.0,0.0,0.0,0.0,0.0,0.0,0.0,0.00018237635531896315,-0.002043545946797785,0.2973755046059503,0.0,0.0,0.0,0.0,0.0,0.0,0.0,0.0,0.0,0.3180712322940509,0.06219293145645505,0.002794070529169192,0.0,0.0,0.0,0.0,0.0,0.0,0.0,0.0,0.0
10.186,294,10,186000000,base_footprint,0.002482419318032021,0.0029626416561536516,-0.6434424178587871,0.7654847583386523,0.0,0.0,0.0,0.0,0.0,0.0,0.0,0.0,0.0,0.00014488126925358885,-0.00222724321965841,0.29711574078215963,0.0,0.0,0.0,0.0,0.0,0.0,0.0,0.0,0.0,0.008109511331913302,-0.03528077350254645,-0.0004618966402610459,0.0,0.0,0.0,0.0,0.0,0.0,0.0,0.0,0.0
10.22,295,10,220000000,base_footprint,0.0024681106123546105,0.002974880946133211,-0.6393133057172392,0.7689366395524779,0.0,0.0,0.0,0.0,0.0,0.0,0.0,0.0,0.0,0.0001945073775692839,-0.002431114284532172,0.3197760346550692,0.0,0.0,0.0,0.0,0.0,0.0,0.0,0.0,0.0,0.022574770358262306,-0.03329516129500219,-0.0003330921914573078,0.0,0.0,0.0,0.0,0.0,0.0,0.0,0.0,0.0
10.254,296,10,254000000,base_footprint,0.0024559147783137854,0.0029886034716706407,-0.635095431043797,0.7724239963900555,0.0,0.0,0.0,0.0,0.0,0.0,0.0,0.0,0.0,-0.00012657600631325535,-0.002223444120607084,0.2954071807130799,0.0,0.0,0.0,0.0,0.0,0.0,0.0,0.0,0.0,0.3189534573135195,0.08794119738655537,4.8316447717273374e-05,0.0,0.0,0.0,0.0,0.0,0.0,0.0,0.0,0.0
10.288,297,10,288000000,base_footprint,0.0024405372143520058,0.0029998113427605203,-0.631199018744335,0.7756112709638777,0.0,0.0,0.0,0.0,0.0,0.0,0.0,0.0,0.0,0.0002067510272906189,-0.0022174924160195007,0.2956427807465311,0.0,0.0,0.0,0.0,0.0,0.0,0.0,0.0,0.0,0.011279057759483459,-0.03205000084435125,-9.042390319001423e-05,0.0,0.0,0.0,0.0,0.0,0.0,0.0,0.0,0.0
10.322,298,10,322000000,base_footprint,0.0024308292618559118,0.003008752386252018,-0.6281589145916404,0.7780754568145882,0.0,0.0,0.0,0.0,0.0,0.0,0.0,0.0,0.0,0.00035098857883417747,-0.0009297795450664444,0.21378704512769847,0.0,0.0,0.0,0.0,0.0,0.0,0.0,0.0,0.0,-0.003272814286429934,-0.03224444774000693,0.0005330855267324432,0.0,0.0,0.0,0.0,0.0,0.0,0.0,0.0,0.0
10.356,299,10,356000000,base_footprint,0.0024184791125596247,0.0030171694136877504,-0.6253141031174898,0.7803635819859103,0.0,0.0,0.0,0.0,0.0,0.0,0.0,0.0,0.0,0.0002380025617094104,-0.0014692679148640326,0.21397272030192505,0.0,0.0,0.0,0.0,0.0,0.0,0.0,0.0,0.0,0.006809403164182654,-0.024878310101072214,-0.0009544207066319505,0.0,0.0,0.0,0.0,0.0,0.0,0.0,0.0,0.0
10.39,300,10,390000000,base_footprint,0.0024019762431290834,0.0030272613968918547,-0.6225001475857947,0.7826101407816195,0.0,0.0,0.0,0.0,0.0,0.0,0.0,0.0,0.0,0.00039299280016288755,-0.0009543493246570128,0.2078078638512842,0.0,0.0,0.0,0.0,0.0,0.0,0.0,0.0,0.0,0.019091549724956778,-0.01682511033373707,0.0004906166223184635,0.0,0.0,0.0,0.0,0.0,0.0,0.0,0.0,0.0
10.424,301,10,424000000,base_footprint,0.0023928286771771777,0.0030349564374384584,-0.6200740781945393,0.7845337474969046,0.0,0.0,0.0,0.0,0.0,0.0,0.0,0.0,0.0,-0.0002198843973632294,-0.0018296008642279171,0.17308608026484912,0.0,0.0,0.0,0.0,0.0,0.0,0.0,0.0,0.0,0.020354916261221958,-0.011018413522792508,-0.0014695246895898456,0.0,0.0,0.0,0.0,0.0,0.0,0.0,0.0,0.0
10.458,302,10,458000000,base_footprint,0.0023862071721601134,0.003044185644671635,-0.61763830812845,0.7864527698986876,0.0,0.0,0.0,0.0,0.0,0.0,0.0,0.0,0.0,0.00046243712598852474,-0.0008040096456960813,0.18342620578093155,0.0,0.0,0.0,0.0,0.0,0.0,0.0,0.0,0.0,-0.011459366206668688,-0.03311766755963499,0.0008727870382293919,0.0,0.0,0.0,0.0,0.0,0.0,0.0,0.0,0.0
10.492,303,10,492000000,base_footprint,0.002374526908296364,0.0030528677747087697,-0.6151904232108087,0.7883690663705787,0.0,0.0,0.0,0.0,0.0,0.0,0.0,0.0,0.0,0.0006410534415718472,-0.00033432277210321883,0.1935781125146776,0.0,0.0,0.0,0.0,0.0,0.0,0.0,0.0,0.0,0.017278805764152937,-0.013980054402709103,0.0004812540637496852,0.0,0.0,0.0,0.0,0.0,0.0,0.0,0.0,0.0
10.526,304,10,526000000,base_footprint,0.0023633348548049472,0.003062667922800283,-0.6124084815771625,0.790532027438429,0.0,0.0,0.0,0.0,0.0,0.0,0.0,0.0,0.0,0.0003304523795311867,-0.0014074382001262125,0.20678655608801622,0.0,0.0,0.0,0.0,0.0,0.0,0.0,0.0,0.0,0.0076360841337124365,-0.02026509320870722,-0.0012152782511934705,0.0,0.0,0.0,0.0,0.0,0.0,0.0,0.0,0.0
10.56,305,10,560000000,base_footprint,0.0023510512266126785,0.003072613188435043,-0.6096261398181653,0.7926796334312664,0.0,0.0,0.0,0.0,0.0,0.0,0.0,0.0,0.0,0.00036263993367019806,-0.001461838127014288,0.20654048474220355,0.0,0.0,0.0,0.0,0.0,0.0,0.0,0.0,0.0,0.010462509158918814,-0.021415284947189736,-0.0002978933970635407,0.0,0.0,0.0,0.0,0.0,0.0,0.0,0.0,0.0
10.594,306,10,594000000,base_footprint,0.0023365421317178476,0.003080865698388882,-0.6068052503155343,0.7948411394907267,0.0,0.0,0.0,0.0,0.0,0.0,0.0,0.0,0.0,0.00034105218988729366,-0.0009082842287078826,0.23502461392013796,0.0,0.0,0.0,0.0,0.0,0.0,0.0,0.0,0.0,0.016803292733996528,-0.01781987859644303,-0.0024070654964488806,0.0,0.0,0.0,0.0,0.0,0.0,0.0,0.0,0.0
10.628,307,10,628000000,base_footprint,0.0023253018014239486,0.003093235728838039,-0.6035384909549056,0.7973244727211961,0.0,0.0,0.0,0.0,0.0,0.0,0.0,0.0,0.0,0.0005777363125646812,-0.0016121075679561526,0.24096377644270472,0.0,0.0,0.0,0.0,0.0,0.0,0.0,0.0,0.0,0.013778183133320169,-0.02272487852102431,0.0020822648264881387,0.0,0.0,0.0,0.0,0.0,0.0,0.0,0.0,0.0
10.662,308,10,662000000,base_footprint,0.0023111853476751832,0.003103771613593082,-0.6002619815698662,0.799794085065573,0.0,0.0,0.0,0.0,0.0,0.0,0.0,0.0,0.0,0.0005837480317844884,-0.0015895188186638841,0.24158817907981361,0.0,0.0,0.0,0.0,0.0,0.0,0.0,0.0,0.0,0.0136020465662476,-0.02389792624797428,-0.0001947129690971959,0.0,0.0,0.0,0.0,0.0,0.0,0.0,0.0,0.0
10.696,309,10,696000000,base_footprint,0.002301912352904275,0.003113977015460012,-0.5970623955107857,0.8021854525068308,0.0,0.0,0.0,0.0,0.0,0.0,0.0,0.0,0.0,-0.0022777204522977383,0.00042123970289013077,0.17101473162588987,0.0,0.0,0.0,0.0,0.0,0.0,0.0,0.0,0.0,0.04215883557518681,-0.004329080510288696,0.004458916953895038,0.0,0.0,0.0,0.0,0.0,0.0,0.0,0.0,0.0
10.73,310,10,730000000,base_footprint,0.0022913702423630654,0.0031194971312200805,-0.5954208252836038,0.803404667137709,0.0,0.0,0.0,0.0,0.0,0.0,0.0,0.0,0.0,0.0009670200770156021,-0.0008020654179903104,0.1129407631978108,0.0,0.0,0.0,0.0,0.0,0.0,0.0,0.0,0.0,-0.05010138600860224,-0.0504142718177767,-0.006035532002380757,0.0,0.0,0.0,0.0,0.0,0.0,0.0,0.0,0.0
10.764,311,10,764000000,base_footprint,0.002284226835602536,0.0031241819350285517,-0.5938458589205426,0.8045695231848665,0.0,0.0,0.0,0.0,0.0,0.0,0.0,0.0,0.0,0.00023926792539949852,-0.000652482956937175,0.11584877823800674,0.0,0.0,0.0,0.0,0.0,0.0,0.0,0.0,0.0,0.011873839761168164,-0.008229917932548398,0.0012024115987609835,0.0,0.0,0.0,0.0,0.0,0.0,0.0,0.0,0.0
10.798,312,10,798000000,base_footprint,0.0022782337311947095,0.003124276710488247,-0.5922888685959303,0.8057164170373191,0.0,0.0,0.0,0.0,0.0,0.0,0.0,0.0,0.0,-0.002697494701732106,0.0012273863550285593,0.09864735310333544,0.0,0.0,0.0,0.0,0.0,0.0,0.0,0.0,0.0,0.02212392772111577,-0.0008793985938303026,0.005215936808704067,0.0,0.0,0.0,0.0,0.0,0.0,0.0,0.0,0.0
10.832,313,10,832000000,base_footprint,0.0022742216423575863,0.0031203603309787964,-0.5909360807539547,0.8067091419653566,0.0,0.0,0.0,0.0,0.0,0.0,0.0,0.0,0.0,1.4723032416694533e-05,-0.0007783991988866116,0.10192709720682161,0.0,0.0,0.0,0.0,0.0,0.0,0.0,0.0,0.0,0.01079731118984787,-0.010056912746105534,-0.005314815648164127,0.0,0.0,0.0,0.0,0.0,0.0,0.0,0.0,0.0
10.867,314,10,866000000,base_footprint,0.0022717276821698934,0.003126560639018454,-0.589373983641994,0.8078510823647358,0.0,0.0,0.0,0.0,0.0,0.0,0.0,0.0,0.0,0.0007308582688760461,-0.0010972601267191726,0.12750452515283192,0.0,0.0,0.0,0.0,0.0,0.0,0.0,0.0,0.0,0.05884921771066625,0.028015486620219358,-0.0012052285040168313,0.0,0.0,0.0,0.0,0.0,0.0,0.0,0.0,0.0
10.9,315,10,900000000,base_footprint,0.0022629324508653317,0.0031332060282171547,-0.587368241855123,0.8093105773537927,0.0,0.0,0.0,0.0,0.0,0.0,0.0,0.0,0.0,-0.002368702835506842,0.0005858493982295663,0.2253912779161699,0.0,0.0,0.0,0.0,0.0,0.0,0.0,0.0,0.0,-0.03167467821878751,-0.045047842220082665,0.006127946865782557,0.0,0.0,0.0,0.0,0.0,0.0,0.0,0.0,0.0
10.934,316,10,934000000,base_footprint,0.0022423365065628604,0.00314789358629435,-0.5823787278130698,0.8129084081763401,0.0,0.0,0.0,0.0,0.0,0.0,0.0,0.0,0.0,0.0018532435605909307,-0.0023897547676959507,0.3822747069477908,0.0,0.0,0.0,0.0,0.0,0.0,0.0,0.0,0.0,0.04459159970612662,-0.007197927303013139,-0.006428241678615002,0.0,0.0,0.0,0.0,0.0,0.0,0.0,0.0,0.0
10.968,317,10,968000000,base_footprint,0.002229191304254745,0.003167033927949635,-0.5773545178955444,0.8164843913191678,0.0,0.0,0.0,0.0,0.0,0.0,0.0,0.0,0.0,0.0006663953003214467,-0.0026544428847036653,0.3620981914586289,0.0,0.0,0.0,0.0,0.0,0.0,0.0,0.0,0.0,0.03565356191490271,-0.029322553427676746,0.0006923719320726542,0.0,0.0,0.0,0.0,0.0,0.0,0.0,0.0,0.0
11.002,318,11,2000000,base_footprint,0.0022057614902742805,0.0031620395944779956,-0.5722289385377936,0.8200848602564013,0.0,0.0,0.0,0.0,0.0,0.0,0.0,0.0,0.0,0.0009593360523268608,-0.003430922894187718,0.3939220699492574,0.0,0.0,0.0,0.0,0.0,0.0,0.0,0.0,0.0,-0.06944023616711767,-0.11329717730425709,-0.00014954670078825937,0.0,0.0,0.0,0.0,0.0,0.0,0.0,0.0,0.0
11.036,319,11,36000000,base_footprint,0.0021817213335901067,0.0031784675747775428,-0.5668977352744289,0.8237791543712564,0.0,0.0,0.0,0.0,0.0,0.0,0.0,0.0,0.0,0.0032097113402361605,-0.003693923350743095,0.3037526324123039,0.0,0.0,0.0,0.0,0.0,0.0,0.0,0.0,0.0,-0.08193968434766533,-0.13235829370400126,-0.004558479076177868,0.0,0.0,0.0,0.0,0.0,0.0,0.0,0.0,0.0
11.07,320,11,70000000,base_footprint,0.0021683170604926867,0.003198513537956685,-0.5636331296933529,0.8260162002190689,0.0,0.0,0.0,0.0,0.0,0.0,0.0,0.0,0.0,0.000938302681254627,-0.003299119426838219,0.18694086616479627,0.0,0.0,0.0,0.0,0.0,0.0,0.0,0.0,0.0,0.14737795590056615,0.09746696919754255,0.001149278565311927,0.0,0.0,0.0,0.0,0.0,0.0,0.0,0.0,0.0
11.104,321,11,104000000,base_footprint,0.002171463732744356,0.0032049837857604955,-0.5613145398567361,0.8275934993519531,0.0,0.0,0.0,0.0,0.0,0.0,0.0,0.0,0.0,0.0004162932020586056,-0.0007754225315034313,0.16113040770386536,0.0,0.0,0.0,0.0,0.0,0.0,0.0,0.0,0.0,0.0524969582873457,0.020494742251417043,0.002689930361989136,0.0,0.0,0.0,0.0,0.0,0.0,0.0,0.0,0.0
11.138,322,11,138000000,base_footprint,0.002160255476107844,0.003210228019418217,-0.5590435385001304,0.8291292720641303,0.0,0.0,0.0,0.0,0.0,0.0,0.0,0.0,0.0,0.0004982861279920135,-0.0008601318521948552,0.16008620940409063,0.0,0.0,0.0,0.0,0.0,0.0,0.0,0.0,0.0,0.013878309858270516,-0.015380862393980916,-0.0004489647054787155,0.0,0.0,0.0,0.0,0.0,0.0,0.0,0.0,0.0
11.172,323,11,172000000,base_footprint,0.0021454692027835518,0.003215683912810007,-0.5568495359710097,0.8306043887602232,0.0,0.0,0.0,0.0,0.0,0.0,0.0,0.0,0.0,0.0001132326459227031,-0.0008829129971767832,0.14785270128239808,0.0,0.0,0.0,0.0,0.0,0.0,0.0,0.0,0.0,0.026756560446793094,0.005120575573080712,0.0005260801991461778,0.0,0.0,0.0,0.0,0.0,0.0,0.0,0.0,0.0
11.206,324,11,206000000,base_footprint,0.0021429114413952614,0.0032202340540569557,-0.5551230162703636,0.8317592649499522,0.0,0.0,0.0,0.0,0.0,0.0,0.0,0.0,0.0,-0.00044523334143305,-0.000129921938507141,0.08581112785029112,0.0,0.0,0.0,0.0,0.0,0.0,0.0,0.0,0.0,-0.012403602532474193,-0.04082880904617913,0.00037977694021567796,0.0,0.0,0.0,0.0,0.0,0.0,0.0,0.0,0.0
11.24,325,11,240000000,base_footprint,0.0021403803060596215,0.003222171324447609,-0.5539138421078109,0.8325650076153,0.0,0.0,0.0,0.0,0.0,0.0,0.0,0.0,0.0,8.96868805767343e-05,-0.00027249970390704235,0.08776412067361578,0.0,0.0,0.0,0.0,0.0,0.0,0.0,0.0,0.0,0.0020105076530209064,-0.006127615428369865,-0.0006886434330769862,0.0,0.0,0.0,0.0,0.0,0.0,0.0,0.0,0.0
11.274000000000001,326,11,274000000,base_footprint,0.0021337477227506415,0.0032245900019833612,-0.5526981333962007,0.8333725592316621,0.0,0.0,0.0,0.0,0.0,0.0,0.0,0.0,0.0,4.5565123136368006e-05,-0.0004988782278522849,0.08541316125617243,0.0,0.0,0.0,0.0,0.0,0.0,0.0,0.0,0.0,0.008042292780529033,-0.0047742179398435666,-0.00030572614139070023,0.0,0.0,0.0,0.0,0.0,0.0,0.0,0.0,0.0
11.308,327,11,308000000,base_footprint,0.0021198062839362856,0.0032267389691234844,-0.5508649793587052,0.8345854474486584,0.0,0.0,0.0,0.0,0.0,0.0,0.0,0.0,0.0,0.0006834292909469171,-0.004511855118294377,0.20237228467719687,0.0,0.0,0.0,0.0,0.0,0.0,0.0,0.0,0.0,0.03409846760957638,0.024548185560355783,-0.003521127430749972,0.0,0.0,0.0,0.0,0.0,0.0,0.0,0.0,0.0
11.342,328,11,342000000,base_footprint,0.0021126974914779766,0.0032353624751869253,-0.5479557945902572,0.8364983658764216,0.0,0.0,0.0,0.0,0.0,0.0,0.0,0.0,0.0,0.00040627539161434576,-0.0013506137365960258,0.20421562545700722,0.0,0.0,0.0,0.0,0.0,0.0,0.0,0.0,0.0,0.011835365887013546,-0.029554736249181392,0.003351705900843413,0.0,0.0,0.0,0.0,0.0,0.0,0.0,0.0,0.0
11.376,329,11,376000000,base_footprint,0.0021007245521032273,0.0032426796250558374,-0.5450478881621108,0.8383960111994978,0.0,0.0,0.0,0.0,0.0,0.0,0.0,0.0,0.0,0.00045620691956323287,-0.0014236615594620198,0.20408429402940798,0.0,0.0,0.0,0.0,0.0,0.0,0.0,0.0,0.0,0.01553519604287135,-0.017599522519179133,-0.0002977728147925403,0.0,0.0,0.0,0.0,0.0,0.0,0.0,0.0,0.0
