Time,header.seq,header.stamp.secs,header.stamp.nsecs,header.frame_id,orientation.x,orientation.y,orientation.z,orientation.w,orientation_covariance_0,orientation_covariance_1,orientation_covariance_2,orientation_covariance_3,orientation_covariance_4,orientation_covariance_5,orientation_covariance_6,orientation_covariance_7,orientation_covariance_8,angular_velocity.x,angular_velocity.y,angular_velocity.z,angular_velocity_covariance_0,angular_velocity_covariance_1,angular_velocity_covariance_2,angular_velocity_covariance_3,angular_velocity_covariance_4,angular_velocity_covariance_5,angular_velocity_covariance_6,angular_velocity_covariance_7,angular_velocity_covariance_8,linear_acceleration.x,linear_acceleration.y,linear_acceleration.z,linear_acceleration_covariance_0,linear_acceleration_covariance_1,linear_acceleration_covariance_2,linear_acceleration_covariance_3,linear_acceleration_covariance_4,linear_acceleration_covariance_5,linear_acceleration_covariance_6,linear_acceleration_covariance_7,linear_acceleration_covariance_8
0.26,0,0,260000000,base_footprint,1.250306875889663e-05,-5.433479260241737e-05,0.7068235088963016,0.7073899378439897,0.0,0.0,0.0,0.0,0.0,0.0,0.0,0.0,0.0,0.00036674825349720594,-0.04763859801876301,-9.654462278668153e-06,0.0,0.0,0.0,0.0,0.0,0.0,0.0,0.0,0.0,-0.00029953281139902135,1.0786303340573351e-05,-0.04305352862240561,0.0,0.0,0.0,0.0,0.0,0.0,0.0,0.0,0.0
0.29400000000000004,1,0,294000000,base_footprint,-0.0007907790077688114,0.0007337828303993065,0.7068227631119771,0.7073898626486448,0.0,0.0,0.0,0.0,0.0,0.0,0.0,0.0,0.0,0.0004976041637174064,-0.06779666231611373,0.00012840898517575686,0.0,0.0,0.0,0.0,0.0,0.0,0.0,0.0,0.0,0.0011918657685913206,3.0033789054365848e-05,0.002987738667661695,0.0,0.0,0.0,0.0,0.0,0.0,0.0,0.0,0.0
0.328,2,0,328000000,base_footprint,-0.0016140980475413446,0.0015429284472397815,0.7068213612554167,0.7073885617765807,0.0,0.0,0.0,0.0,0.0,0.0,0.0,0.0,0.0,0.0004952039566413213,-0.06772019853410224,0.0003028303906971926,0.0,0.0,0.0,0.0,0.0,0.0,0.0,0.0,0.0,0.0002329780168176421,-3.261828595830935e-05,0.00015107367003606504,0.0,0.0,0.0,0.0,0.0,0.0,0.0,0.0,0.0
0.36200000000000004,3,0,362000000,base_footprint,-0.0024364861178652122,0.0023511728624990413,0.7068191480446924,0.7073861940121134,0.0,0.0,0.0,0.0,0.0,0.0,0.0,0.0,0.0,0.000494901629395049,-0.06764321721192963,0.0004644155825625228,0.0,0.0,0.0,0.0,0.0,0.0,0.0,0.0,0.0,0.00023282225634170122,-8.246393592656895e-06,0.00015150202475023748,0.0,0.0,0.0,0.0,0.0,0.0,0.0,0.0,0.0
0.396,4,0,396000000,base_footprint,-0.0027178384540724005,0.0027083053680108157,0.7068130715719954,0.7073899633802648,0.0,0.0,0.0,0.0,0.0,0.0,0.0,0.0,0.0,-0.00017289084593093574,0.009047743988750499,-0.0008423128161634081,0.0,0.0,0.0,0.0,0.0,0.0,0.0,0.0,0.0,0.004594927271458554,0.0027466425781675022,0.1621793522157473,0.0,0.0,0.0,0.0,0.0,0.0,0.0,0.0,0.0
0.43000000000000005,5,0,430000000,base_footprint,-0.002734365001126835,0.002726339362313508,0.7068101503173486,0.7073927492772945,0.0,0.0,0.0,0.0,0.0,0.0,0.0,0.0,0.0,-1.197576854184205e-05,-8.303576572035176e-05,0.00013912043936641018,0.0,0.0,0.0,0.0,0.0,0.0,0.0,0.0,0.0,-0.005265721010975233,-0.001997895924905029,-0.030448402585714303,0.0,0.0,0.0,0.0,0.0,0.0,0.0,0.0,0.0
0.464,6,0,464000000,base_footprint,-0.0027340133483704323,0.0027258313288977373,0.7068127610014101,0.7073901440507502,0.0,0.0,0.0,0.0,0.0,0.0,0.0,0.0,0.0,-3.0416116157737998e-05,0.0001964278079704689,0.0002911141009082639,0.0,0.0,0.0,0.0,0.0,0.0,0.0,0.0,0.0,3.5756508804228636e-05,-0.00029953087560487534,0.00028021702807620947,0.0,0.0,0.0,0.0,0.0,0.0,0.0,0.0,0.0
0.49800000000000005,7,0,498000000,base_footprint,-0.0027339991056206645,0.0027257406308200016,0.7068163346019974,0.7073865737534897,0.0,0.0,0.0,0.0,0.0,0.0,0.0,0.0,0.0,-3.167192938021255e-05,0.00018303665306145352,0.00032919330790289283,0.0,0.0,0.0,0.0,0.0,0.0,0.0,0.0,0.0,1.11060007497047e-05,-7.472124538891284e-05,-1.8989693884081782e-05,0.0,0.0,0.0,0.0,0.0,0.0,0.0,0.0,0.0
0.532,8,0,532000000,base_footprint,-0.0027340092642616325,0.0027257016650979464,0.7068201525175567,0.7073827590059245,0.0,0.0,0.0,0.0,0.0,0.0,0.0,0.0,0.0,-3.2242819021180636e-05,0.00018162446416090852,0.00033901188036818917,0.0,0.0,0.0,0.0,0.0,0.0,0.0,0.0,0.0,2.8047402156541325e-06,-1.9311313157733765e-05,-2.632632977505886e-06,0.0,0.0,0.0,0.0,0.0,0.0,0.0,0.0,0.0
0.5660000000000001,9,0,566000000,base_footprint,-0.0027340258630031413,0.0027256777594558165,0.7068240343735719,0.7073788802439609,0.0,0.0,0.0,0.0,0.0,0.0,0.0,0.0,0.0,-3.241955881507855e-05,0.00018120461877653394,0.00034162054414601725,0.0,0.0,0.0,0.0,0.0,0.0,0.0,0.0,0.0,7.537180591117512e-07,-5.126325567313053e-06,-7.407060536911974e-07,0.0,0.0,0.0,0.0,0.0,0.0,0.0,0.0,0.0
0.6000000000000001,10,0,600000000,base_footprint,-0.002734043901077606,0.0027256580810863227,0.7068279332473089,0.7073749844130127,0.0,0.0,0.0,0.0,0.0,0.0,0.0,0.0,0.0,-3.2491858818802164e-05,0.0001810939658190376,0.00034232298007404665,0.0,0.0,0.0,0.0,0.0,0.0,0.0,0.0,0.0,2.1009619394968557e-07,-1.3762655843494665e-06,-1.9050192799125494e-07,0.0,0.0,0.0,0.0,0.0,0.0,0.0,0.0,0.0
0.634,11,0,634000000,base_footprint,-0.002734062089649003,0.00272563975419162,0.7068318367295738,0.7073710839283138,0.0,0.0,0.0,0.0,0.0,0.0,0.0,0.0,0.0,-3.253461798377877e-05,0.00018106410122667362,0.0003425213637027961,0.0,0.0,0.0,0.0,0.0,0.0,0.0,0.0,0.0,6.634855298851222e-08,-3.8462062504102414e-07,-4.660000852568008e-08,0.0,0.0,0.0,0.0,0.0,0.0,0.0,0.0,0.0
0.668,12,0,668000000,base_footprint,-0.0027340801093210135,0.0027256219965197284,0.7068357415391995,0.7073671820726616,0.0,0.0,0.0,0.0,0.0,0.0,0.0,0.0,0.0,-3.25678475743013e-05,0.00018105562756861877,0.0003425864730751079,0.0,0.0,0.0,0.0,0.0,0.0,0.0,0.0,0.0,2.8329297378196704e-08,-1.2239272024045457e-07,-9.001686185509415e-09,0.0,0.0,0.0,0.0,0.0,0.0,0.0,0.0,0.0
0.7020000000000001,13,0,702000000,base_footprint,-0.0027340978950685887,0.002725604581507145,0.7068396468085663,0.7073632797141132,0.0,0.0,0.0,0.0,0.0,0.0,0.0,0.0,0.0,-3.259699787056509e-05,0.00018105281874668784,0.00034261634610625175,0.0,0.0,0.0,0.0,0.0,0.0,0.0,0.0,0.0,1.827114215227013e-08,-5.3033146671323846e-08,5.114509817185082e-10,0.0,0.0,0.0,0.0,0.0,0.0,0.0,0.0,0.0
0.7360000000000001,14,0,736000000,base_footprint,-0.002734115447321448,0.0027255874313514413,0.7068435523082278,0.7073593770822301,0.0,0.0,0.0,0.0,0.0,0.0,0.0,0.0,0.0,-3.262365479494833e-05,0.00018105151638264666,0.00034263690489955763,0.0,0.0,0.0,0.0,0.0,0.0,0.0,0.0,0.0,1.5607802265448704e-08,-3.4672207080376224e-08,2.6390882457620676e-09,0.0,0.0,0.0,0.0,0.0,0.0,0.0,0.0,0.0
0.77,15,0,770000000,base_footprint,-0.0027341327821786363,0.0027255705092459263,0.7068474579774804,0.7073554742377434,0.0,0.0,0.0,0.0,0.0,0.0,0.0,0.0,0.0,-3.2648369099884394e-05,0.00018105061993620668,0.000342655003331088,0.0,0.0,0.0,0.0,0.0,0.0,0.0,0.0,0.0,1.4900483935029694e-08,-2.9797833645510617e-08,2.849615701142077e-09,0.0,0.0,0.0,0.0,0.0,0.0,0.0,0.0,0.0
0.804,16,0,804000000,base_footprint,-0.0027341499183968277,0.0027255537907310734,0.7068513638002406,0.7073515711967405,0.0,0.0,0.0,0.0,0.0,0.0,0.0,0.0,0.0,-3.2671405698848606e-05,0.00018104983800159162,0.00034267245342041236,0.0,0.0,0.0,0.0,0.0,0.0,0.0,0.0,0.0,1.4710830922519938e-08,-2.84912210934707e-08,2.5862339028176395e-09,0.0,0.0,0.0,0.0,0.0,0.0,0.0,0.0,0.0
0.8380000000000001,17,0,838000000,base_footprint,-0.0027341668740887147,0.002725537255980173,0.7068552697722265,0.7073476679635015,0.0,0.0,0.0,0.0,0.0,0.0,0.0,0.0,0.0,-3.269294265741146e-05,0.00018104909265779102,0.0003426897340853464,0.0,0.0,0.0,0.0,0.0,0.0,0.0,0.0,0.0,1.4658446061015229e-08,-2.8129560846554625e-08,2.227185652396045e-09,0.0,0.0,0.0,0.0,0.0,0.0,0.0,0.0,0.0
0.8720000000000001,18,0,872000000,base_footprint,-0.002734183665974452,0.0027255208876323747,0.7068591758922791,0.7073437645391808,0.0,0.0,0.0,0.0,0.0,0.0,0.0,0.0,0.0,-3.2713125340457804e-05,0.00018104836293961917,0.00034270697188518916,0.0,0.0,0.0,0.0,0.0,0.0,0.0,0.0,0.0,1.4642718996205389e-08,-2.801943603345934e-08,1.8695622446464327e-09,0.0,0.0,0.0,0.0,0.0,0.0,0.0,0.0,0.0
0.906,19,0,906000000,base_footprint,-0.0027342003092977515,0.0027255046701043424,0.7068630821600683,0.7073398609241038,0.0,0.0,0.0,0.0,0.0,0.0,0.0,0.0,0.0,-3.2732081046509874e-05,0.0001810476424882221,0.000342724200189478,0.0,0.0,0.0,0.0,0.0,0.0,0.0,0.0,0.0,1.4637013741132575e-08,-2.7977273238124e-08,1.5367239359669689e-09,0.0,0.0,0.0,0.0,0.0,0.0,0.0,0.0,0.0
0.9400000000000001,20,0,940000000,base_footprint,-0.0027342168179065956,0.002725488589304059,0.7068669885754862,0.7073359571183737,0.0,0.0,0.0,0.0,0.0,0.0,0.0,0.0,0.0,-3.274992424121921e-05,0.00018104692939236073,0.0003427414276880477,0.0,0.0,0.0,0.0,0.0,0.0,0.0,0.0,0.0,1.463422875399731e-08,-2.7954315767153397e-08,1.2327307814718272e-09,0.0,0.0,0.0,0.0,0.0,0.0,0.0,0.0,0.0
0.9740000000000001,21,0,974000000,base_footprint,-0.0027342332043677367,0.0027254726324599274,0.7068708951384854,0.7073320531220328,0.0,0.0,0.0,0.0,0.0,0.0,0.0,0.0,0.0,-3.276675833331462e-05,0.00018104622251240515,0.0003427586565697172,0.0,0.0,0.0,0.0,0.0,0.0,0.0,0.0,0.0,1.4632475876866246e-08,-2.7937574369247217e-08,9.56017915826595e-10,0.0,0.0,0.0,0.0,0.0,0.0,0.0,0.0,0.0
1.008,22,1,8000000,base_footprint,-0.0027342494800819553,0.0027254567879897427,0.7068748018490372,0.707328148935105,0.0,0.0,0.0,0.0,0.0,0.0,0.0,0.0,0.0,-3.27826772443401e-05,0.0001810455213009704,0.00034277588741383374,0.0,0.0,0.0,0.0,0.0,0.0,0.0,0.0,0.0,1.4631250674757716e-08,-2.7923710306249155e-08,7.050150228464885e-10,0.0,0.0,0.0,0.0,0.0,0.0,0.0,0.0,0.0
1.042,23,1,42000000,base_footprint,-0.002734265655391325,0.002725441045387942,0.7068787087071194,0.7073242445576069,0.0,0.0,0.0,0.0,0.0,0.0,0.0,0.0,0.0,-3.279776590767259e-05,0.00018104482509007403,0.0003427931201591653,0.0,0.0,0.0,0.0,0.0,0.0,0.0,0.0,0.0,1.463034207537886e-08,-2.791129571333983e-08,4.774114464449636e-10,0.0,0.0,0.0,0.0,0.0,0.0,0.0,0.0,0.0
1.076,24,1,76000000,base_footprint,-0.002734281739677188,0.002725425395125148,0.7068826157127137,0.7073203399895521,0.0,0.0,0.0,0.0,0.0,0.0,0.0,0.0,0.0,-3.281210149208101e-05,0.00018104413346129458,0.000342810354819587,0.0,0.0,0.0,0.0,0.0,0.0,0.0,0.0,0.0,1.462973714652938e-08,-2.790033633211843e-08,2.706804399538659e-10,0.0,0.0,0.0,0.0,0.0,0.0,0.0,0.0,0.0
1.11,25,1,110000000,base_footprint,-0.0027342977414495434,0.0027254098285570925,0.706886522865804,0.7073164352309514,0.0,0.0,0.0,0.0,0.0,0.0,0.0,0.0,0.0,-3.282575409629132e-05,0.00018104344594807337,0.00034282759133820884,0.0,0.0,0.0,0.0,0.0,0.0,0.0,0.0,0.0,1.4629388997568112e-08,-2.7890562661419184e-08,8.323836649682917e-11,0.0,0.0,0.0,0.0,0.0,0.0,0.0,0.0,0.0
1.1440000000000001,26,1,144000000,base_footprint,-0.0027343136684276673,0.0027253943378424375,0.7068904301663768,0.7073125302818132,0.0,0.0,0.0,0.0,0.0,0.0,0.0,0.0,0.0,-3.283878710403775e-05,0.00018104276223924166,0.0003428448296180301,0.0,0.0,0.0,0.0,0.0,0.0,0.0,0.0,0.0,1.4629258366294254e-08,-2.7881771010684312e-08,-8.686518008418017e-11,0.0,0.0,0.0,0.0,0.0,0.0,0.0,0.0,0.0
1.178,27,1,178000000,base_footprint,-0.002734329527613729,0.002725378915868404,0.70689433761442,0.7073086251421439,0.0,0.0,0.0,0.0,0.0,0.0,0.0,0.0,0.0,-3.285125808510406e-05,0.00018104208189372915,0.00034286206955453594,0.0,0.0,0.0,0.0,0.0,0.0,0.0,0.0,0.0,1.4629323630556133e-08,-2.7873838580321625e-08,-2.410909242961568e-10,0.0,0.0,0.0,0.0,0.0,0.0,0.0,0.0,0.0
1.212,28,1,212000000,base_footprint,-0.002734345325359473,0.002725363556182781,0.7068982452099233,0.7073047198119489,0.0,0.0,0.0,0.0,0.0,0.0,0.0,0.0,0.0,-3.286321928725066e-05,0.00018104140462799035,0.00034287931116270805,0.0,0.0,0.0,0.0,0.0,0.0,0.0,0.0,0.0,1.4629596538469558e-08,-2.7866901342746028e-08,-3.8127969981053207e-10,0.0,0.0,0.0,0.0,0.0,0.0,0.0,0.0,0.0
1.246,29,1,246000000,base_footprint,-0.002734361067426625,0.0027253482529326183,0.7069021529528785,0.707300814291231,0.0,0.0,0.0,0.0,0.0,0.0,0.0,0.0,0.0,-3.287471808098822e-05,0.00018104073015779213,0.0003428965542628481,0.0,0.0,0.0,0.0,0.0,0.0,0.0,0.0,0.0,1.4629999988950502e-08,-2.7860490366822127e-08,-5.080713005357684e-10,0.0,0.0,0.0,0.0,0.0,0.0,0.0,0.0,0.0
1.28,30,1,280000000,base_footprint,-0.0027343767590415125,0.0027253330008087766,0.7069060608432782,0.7072969085799924,0.0,0.0,0.0,0.0,0.0,0.0,0.0,0.0,0.0,-3.288579753559134e-05,0.00018104005817981761,0.00034291379892760216,0.0,0.0,0.0,0.0,0.0,0.0,0.0,0.0,0.0,1.4630593891067745e-08,-2.7855017063287426e-08,-6.234521461277972e-10,0.0,0.0,0.0,0.0,0.0,0.0,0.0,0.0,0.0
1.314,31,1,314000000,base_footprint,-0.0027307219286524737,0.0027219400187177833,0.7069104835269483,0.7072925154983468,0.0,0.0,0.0,0.0,0.0,0.0,0.0,0.0,0.0,-3.997022628803872e-05,0.0003769063068986572,0.00019376154954195787,0.0,0.0,0.0,0.0,0.0,0.0,0.0,0.0,0.0,-0.5991875647085323,0.0006148926188503379,0.0001920287978092708,0.0,0.0,0.0,0.0,0.0,0.0,0.0,0.0,0.0
1.348,32,1,348000000,base_footprint,-0.0027308821091694044,0.0027220423297365775,0.7069107958428205,0.7072922023388433,0.0,0.0,0.0,0.0,0.0,0.0,0.0,0.0,0.0,-3.8175084817816e-05,0.0002468359206375734,-2.1592825076581837e-05,0.0,0.0,0.0,0.0,0.0,0.0,0.0,0.0,0.0,-0.7858909756714207,0.0008426060498705756,-0.0001754064582260241,0.0,0.0,0.0,0.0,0.0,0.0,0.0,0.0,0.0
1.3820000000000001,33,1,382000000,base_footprint,-0.002731415121370816,0.0027224968271852014,0.7069082100957511,0.7072947828746385,0.0,0.0,0.0,0.0,0.0,0.0,0.0,0.0,0.0,-3.63692088237292e-05,0.00017449794114468155,-0.00029423658717858675,0.0,0.0,0.0,0.0,0.0,0.0,0.0,0.0,0.0,-0.7856638684610554,0.0009591552911721313,-0.00010147543715891081,0.0,0.0,0.0,0.0,0.0,0.0,0.0,0.0,0.0
1.416,34,1,416000000,base_footprint,-0.0027322200854238703,0.002723211807418824,0.7069021978310864,0.707300785940774,0.0,0.0,0.0,0.0,0.0,0.0,0.0,0.0,0.0,-3.508575525055213e-05,0.0001585376795840809,-0.0005918118735459056,0.0,0.0,0.0,0.0,0.0,0.0,0.0,0.0,0.0,-0.7758718738127162,0.0010150293828353196,-3.954651715318367e-05,0.0,0.0,0.0,0.0,0.0,0.0,0.0,0.0,0.0
1.45,35,1,450000000,base_footprint,-0.00273334734498168,0.002724248433733023,0.7068920130149694,0.7073109565236547,0.0,0.0,0.0,0.0,0.0,0.0,0.0,0.0,0.0,-3.3470469481385174e-05,8.160944476530188e-05,-0.0009646602098002694,0.0,0.0,0.0,0.0,0.0,0.0,0.0,0.0,0.0,-0.7459374561813189,0.0011662010468978523,-0.00010477163418895138,0.0,0.0,0.0,0.0,0.0,0.0,0.0,0.0,0.0
1.484,36,1,484000000,base_footprint,-0.002734834913103318,0.0027256642843265706,0.7068764716546199,0.7073264771329593,0.0,0.0,0.0,0.0,0.0,0.0,0.0,0.0,0.0,-3.24435877996547e-05,1.4823789662153663e-05,-0.001451374218172389,0.0,0.0,0.0,0.0,0.0,0.0,0.0,0.0,0.0,-0.6820965514981513,0.0013793921439280155,-8.929709979528522e-05,0.0,0.0,0.0,0.0,0.0,0.0,0.0,0.0,0.0
1.518,37,1,518000000,base_footprint,-0.0027363741577295024,0.0027274024878022754,0.7068544901195015,0.7073484313476901,0.0,0.0,0.0,0.0,0.0,0.0,0.0,0.0,0.0,-4.430116208220635e-05,3.272013357864263e-05,-0.0020531423795453843,0.0,0.0,0.0,0.0,0.0,0.0,0.0,0.0,0.0,-0.5741612273819099,0.0015688798295803719,2.96489834626097e-05,0.0,0.0,0.0,0.0,0.0,0.0,0.0,0.0,0.0
1.552,38,1,552000000,base_footprint,-0.00273779573349636,0.0027292269868730416,0.7068265233133174,0.7073763649821672,0.0,0.0,0.0,0.0,0.0,0.0,0.0,0.0,0.0,-5.0173110119320755e-05,5.699526626923824e-05,-0.0025631676018642094,0.0,0.0,0.0,0.0,0.0,0.0,0.0,0.0,0.0,-0.4220366778226976,0.001317927114764389,4.109050343774996e-05,0.0,0.0,0.0,0.0,0.0,0.0,0.0,0.0,0.0
1.586,39,1,586000000,base_footprint,-0.0027373356307487675,0.0027298512734999247,0.7067794959159166,0.7074233520732208,0.0,0.0,0.0,0.0,0.0,0.0,0.0,0.0,0.0,-9.633345403201702e-05,0.0003201298203696002,-0.005646004421047263,0.0,0.0,0.0,0.0,0.0,0.0,0.0,0.0,0.0,-0.23533338857888542,0.00619452263362931,0.0005279039796012006,0.0,0.0,0.0,0.0,0.0,0.0,0.0,0.0,0.0
1.62,40,1,620000000,base_footprint,-0.0027336568411020184,0.0027237994683966113,0.7066868478094849,0.7075159412831806,0.0,0.0,0.0,0.0,0.0,0.0,0.0,0.0,0.0,0.0020163908988319284,0.0009953919014519584,-0.008661427644857457,0.0,0.0,0.0,0.0,0.0,0.0,0.0,0.0,0.0,-0.030621896842792696,0.0059692761644334486,0.0036373245698679978,0.0,0.0,0.0,0.0,0.0,0.0,0.0,0.0,0.0
1.654,41,1,654000000,base_footprint,-0.0027247737315575773,0.002719617382891803,0.7066908162976353,0.7075120277776091,0.0,0.0,0.0,0.0,0.0,0.0,0.0,0.0,0.0,0.00041002331935793986,-0.0007298998285313911,0.0008020472131324667,0.0,0.0,0.0,0.0,0.0,0.0,0.0,0.0,0.0,-0.04798156060357989,-0.01837502997018084,-0.005887540824938848,0.0,0.0,0.0,0.0,0.0,0.0,0.0,0.0,0.0
1.6880000000000002,42,1,688000000,base_footprint,-0.002728135319065363,0.0027214347676005066,0.7066671866251649,0.7075356092931021,0.0,0.0,0.0,0.0,0.0,0.0,0.0,0.0,0.0,-4.577432154265522e-05,0.00012405606704387,-0.0024645675750284216,0.0,0.0,0.0,0.0,0.0,0.0,0.0,0.0,0.0,-0.2274713936836713,0.006607348022780055,0.0016734945727516395,0.0,0.0,0.0,0.0,0.0,0.0,0.0,0.0,0.0
1.722,43,1,722000000,base_footprint,-0.0027265511767485514,0.0027211316883758987,0.7066241901604484,0.7075785576465029,0.0,0.0,0.0,0.0,0.0,0.0,0.0,0.0,0.0,-0.0005906174338175231,0.0008451326205526212,-0.00406446101077116,0.0,0.0,0.0,0.0,0.0,0.0,0.0,0.0,0.0,-0.38669337929697917,0.003612204073770109,0.0018264843235714806,0.0,0.0,0.0,0.0,0.0,0.0,0.0,0.0,0.0
1.756,44,1,756000000,base_footprint,-0.002741193587239747,0.002729798357210224,0.7066828356396663,0.7075198964488042,0.0,0.0,0.0,0.0,0.0,0.0,0.0,0.0,0.0,-6.352044171257366e-05,-0.00015509365190203902,0.00999659757734668,0.0,0.0,0.0,0.0,0.0,0.0,0.0,0.0,0.0,-0.15581026262758402,-0.000983768839263266,-0.0021173331372599477,0.0,0.0,0.0,0.0,0.0,0.0,0.0,0.0,0.0
1.79,45,1,790000000,base_footprint,-0.0027425743000658127,0.0027313427698535627,0.7067997778492231,0.7074030619704521,0.0,0.0,0.0,0.0,0.0,0.0,0.0,0.0,0.0,0.0001033130182928276,-0.006569679782983883,0.008341371077174219,0.0,0.0,0.0,0.0,0.0,0.0,0.0,0.0,0.0,0.05452062709647848,-0.0013039218216517948,-0.008650855504648839,0.0,0.0,0.0,0.0,0.0,0.0,0.0,0.0,0.0
1.824,46,1,824000000,base_footprint,-0.0027373152953232617,0.0027241198099758382,0.7076785491599924,0.7065239962910271,0.0,0.0,0.0,0.0,0.0,0.0,0.0,0.0,0.0,-0.0014661486569165357,0.0016037134388909994,0.048146765626420215,0.0,0.0,0.0,0.0,0.0,0.0,0.0,0.0,0.0,0.28823895535856175,-0.012382709589873947,0.01131153872484823,0.0,0.0,0.0,0.0,0.0,0.0,0.0,0.0,0.0
1.858,47,1,858000000,base_footprint,-0.0027400088789624145,0.0027218924647247054,0.7079076182176818,0.7062944766328861,0.0,0.0,0.0,0.0,0.0,0.0,0.0,0.0,0.0,-5.624358274880839e-05,0.00032409948599099577,0.01820009253679037,0.0,0.0,0.0,0.0,0.0,0.0,0.0,0.0,0.0,-0.015615972798333756,-0.007135742451368599,-0.0020623429918790043,0.0,0.0,0.0,0.0,0.0,0.0,0.0,0.0,0.0
1.892,48,1,892000000,base_footprint,-0.0027409645108429632,0.0027218216412159637,0.7081063594774676,0.7060952219552765,0.0,0.0,0.0,0.0,0.0,0.0,0.0,0.0,0.0,-0.0006138262792753208,0.00032924712126748527,0.0020964096956777633,0.0,0.0,0.0,0.0,0.0,0.0,0.0,0.0,0.0,-0.007983420501869296,0.0018020335547461364,0.00037888745568222834,0.0,0.0,0.0,0.0,0.0,0.0,0.0,0.0,0.0
1.9260000000000002,49,1,926000000,base_footprint,-0.0027415941007498832,0.0027228102961090275,0.7081093172104204,0.706092249529529,0.0,0.0,0.0,0.0,0.0,0.0,0.0,0.0,0.0,-5.9983101750589126e-05,2.886583404102008e-05,0.000139323561840819,0.0,0.0,0.0,0.0,0.0,0.0,0.0,0.0,0.0,-0.007409448105271764,-0.005271257243525429,-0.0006965871890871794,0.0,0.0,0.0,0.0,0.0,0.0,0.0,0.0,0.0
1.96,50,1,960000000,base_footprint,-0.002744630381381732,0.0027257814383804444,0.7081087284808737,0.7060928166812209,0.0,0.0,0.0,0.0,0.0,0.0,0.0,0.0,0.0,-4.197493014003963e-05,-8.75606531859721e-05,-0.0002379993145464327,0.0,0.0,0.0,0.0,0.0,0.0,0.0,0.0,0.0,-0.005010180847716133,5.6351531954029494e-05,-0.0002862285618951295,0.0,0.0,0.0,0.0,0.0,0.0,0.0,0.0,0.0
1.9940000000000002,51,1,994000000,base_footprint,-0.0027443496584445156,0.002725777174563801,0.7081066305322803,0.7060949217208461,0.0,0.0,0.0,0.0,0.0,0.0,0.0,0.0,0.0,-0.0008217198600159431,0.0033847560271962006,0.002747175443220177,0.0,0.0,0.0,0.0,0.0,0.0,0.0,0.0,0.0,-0.09892448853059607,-0.0007990459782963658,0.007443310796511641,0.0,0.0,0.0,0.0,0.0,0.0,0.0,0.0,0.0
2.028,52,2,28000000,base_footprint,-0.0027487898354012423,0.002725460433776018,0.7085926744398152,0.7056071412266849,0.0,0.0,0.0,0.0,0.0,0.0,0.0,0.0,0.0,-0.003262866664085837,-0.0010507034301746212,0.019802803903640302,0.0,0.0,0.0,0.0,0.0,0.0,0.0,0.0,0.0,-0.184429123011148,-0.0035255146468102655,-0.008617135167772374,0.0,0.0,0.0,0.0,0.0,0.0,0.0,0.0,0.0
2.062,53,2,62000000,base_footprint,-0.0027518469047724393,0.0027311305710181802,0.7085947632800924,0.7056050097019201,0.0,0.0,0.0,0.0,0.0,0.0,0.0,0.0,0.0,-0.000290770806792644,0.00029104170005956725,0.0006995467763647765,0.0,0.0,0.0,0.0,0.0,0.0,0.0,0.0,0.0,-0.051613403896953264,-0.0012299159026772262,0.0017091736434176508,0.0,0.0,0.0,0.0,0.0,0.0,0.0,0.0,0.0
2.096,54,2,96000000,base_footprint,-0.0027460766690085743,0.0027276974790795246,0.7086011115376251,0.705598670248912,0.0,0.0,0.0,0.0,0.0,0.0,0.0,0.0,0.0,-0.00012799899953994277,0.0006233273854652954,0.0019274860785710776,0.0,0.0,0.0,0.0,0.0,0.0,0.0,0.0,0.0,0.016284854076491398,9.292227634618774e-06,0.0006771363332319457,0.0,0.0,0.0,0.0,0.0,0.0,0.0,0.0,0.0
2.13,55,2,130000000,base_footprint,-0.002746551700958317,0.002727086294041987,0.7086988257729451,0.7055005271451948,0.0,0.0,0.0,0.0,0.0,0.0,0.0,0.0,0.0,0.00013324428067988442,-0.0007149652682000838,0.017281123619431415,0.0,0.0,0.0,0.0,0.0,0.0,0.0,0.0,0.0,0.06681425564443823,-0.011029748890184102,-0.0029993848971916776,0.0,0.0,0.0,0.0,0.0,0.0,0.0,0.0,0.0
2.164,56,2,164000000,base_footprint,-0.0027530341880579617,0.002726405712226323,0.7088191559152913,0.7053796082409709,0.0,0.0,0.0,0.0,0.0,0.0,0.0,0.0,0.0,0.0004202738493291188,-0.0006213350246247333,-0.0025724136141807514,0.0,0.0,0.0,0.0,0.0,0.0,0.0,0.0,0.0,-0.05683169190542135,0.0006382180521024537,0.0009009527035224697,0.0,0.0,0.0,0.0,0.0,0.0,0.0,0.0,0.0
2.198,57,2,198000000,base_footprint,-0.0027505032303892507,0.0027241573402610217,0.7088112352440534,0.7053875860054275,0.0,0.0,0.0,0.0,0.0,0.0,0.0,0.0,0.0,-1.8170634877910305e-05,0.0003025903572060588,-0.000427809298487765,0.0,0.0,0.0,0.0,0.0,0.0,0.0,0.0,0.0,0.0042854227159982855,0.00013249590119315466,0.0016095209046444359,0.0,0.0,0.0,0.0,0.0,0.0,0.0,0.0,0.0
2.232,58,2,232000000,base_footprint,-0.002748248056777668,0.002721417974036465,0.7088096984900536,0.7053891495786339,0.0,0.0,0.0,0.0,0.0,0.0,0.0,0.0,0.0,0.00011060274607647054,0.0003255029074259813,8.141057615128575e-06,0.0,0.0,0.0,0.0,0.0,0.0,0.0,0.0,0.0,-0.003187439291415649,0.00034005667152082705,0.00011116224428784092,0.0,0.0,0.0,0.0,0.0,0.0,0.0,0.0,0.0
2.266,59,2,266000000,base_footprint,-0.0027452450298575985,0.0027189243189884764,0.708809786852388,0.7053890820976363,0.0,0.0,0.0,0.0,0.0,0.0,0.0,0.0,0.0,-0.0001071718805396649,0.0003851160982521404,-0.0001469731728642986,0.0,0.0,0.0,0.0,0.0,0.0,0.0,0.0,0.0,-0.005126001618838656,8.937162592170898e-05,0.0002907266610296797,0.0,0.0,0.0,0.0,0.0,0.0,0.0,0.0,0.0
2.3,60,2,300000000,base_footprint,-0.002742836252267162,0.0027177761936675524,0.7088131244339212,0.7053857421100013,0.0,0.0,0.0,0.0,0.0,0.0,0.0,0.0,0.0,-8.093538939228094e-05,0.0002959157919004515,0.0014019386592773744,0.0,0.0,0.0,0.0,0.0,0.0,0.0,0.0,0.0,-0.005279679718396766,-1.4587849926400893e-05,-0.00019527806505471106,0.0,0.0,0.0,0.0,0.0,0.0,0.0,0.0,0.0
2.334,61,2,334000000,base_footprint,-0.002742003765381713,0.0027176297398064974,0.7088268833714977,0.705371919850654,0.0,0.0,0.0,0.0,0.0,0.0,0.0,0.0,0.0,-7.573191468429109e-05,0.0001973400654512287,0.0009254106291412446,0.0,0.0,0.0,0.0,0.0,0.0,0.0,0.0,0.0,-0.005961318818766574,-0.00036757184750150053,-0.00017936499460771704,0.0,0.0,0.0,0.0,0.0,0.0,0.0,0.0,0.0
2.368,62,2,368000000,base_footprint,-0.0027424384532563017,0.002718458363484441,0.7088354746079439,0.7053632815456068,0.0,0.0,0.0,0.0,0.0,0.0,0.0,0.0,0.0,-6.50617039047463e-05,0.0001090200354036771,0.0005010738414471228,0.0,0.0,0.0,0.0,0.0,0.0,0.0,0.0,0.0,-0.0058786385047322875,-0.0001247513139491915,-0.00017993441030967678,0.0,0.0,0.0,0.0,0.0,0.0,0.0,0.0,0.0
2.402,63,2,402000000,base_footprint,-0.002744190719510963,0.002720362118368974,0.7088389895970446,0.7053597350815262,0.0,0.0,0.0,0.0,0.0,0.0,0.0,0.0,0.0,-5.582945038592434e-05,2.2788237438134264e-06,7.925181012359457e-05,0.0,0.0,0.0,0.0,0.0,0.0,0.0,0.0,0.0,-0.005734403899441225,2.0680670605888445e-05,-0.00022723604150879452,0.0,0.0,0.0,0.0,0.0,0.0,0.0,0.0,0.0
2.436,64,2,436000000,base_footprint,-0.0027475216779447825,0.0027235506335328437,0.7088374425660796,0.7053612644687514,0.0,0.0,0.0,0.0,0.0,0.0,0.0,0.0,0.0,-4.1591147585260584e-05,-0.00011610999158575964,-0.0003356994676191632,0.0,0.0,0.0,0.0,0.0,0.0,0.0,0.0,0.0,-0.005237394172759778,0.00016797314375173586,-0.0003045247987231304,0.0,0.0,0.0,0.0,0.0,0.0,0.0,0.0,0.0
2.47,65,2,470000000,base_footprint,-0.0027500959166434844,0.0027261934222402406,0.7088312362140201,0.7053674811112134,0.0,0.0,0.0,0.0,0.0,0.0,0.0,0.0,0.0,-5.4521575811267904e-05,-4.913128169211302e-05,-0.0006879884240151015,0.0,0.0,0.0,0.0,0.0,0.0,0.0,0.0,0.0,-0.0027955163042798275,0.00109107440498704,-4.918259146884478e-05,0.0,0.0,0.0,0.0,0.0,0.0,0.0,0.0,0.0
2.504,66,2,504000000,base_footprint,-0.0027411503630296857,0.0027287720220522823,0.7088939732783104,0.7053044552160643,0.0,0.0,0.0,0.0,0.0,0.0,0.0,0.0,0.0,-0.0017800605490787614,-0.00123323330055329,0.02209624137437236,0.0,0.0,0.0,0.0,0.0,0.0,0.0,0.0,0.0,0.1996375513757482,-0.0005717961639231661,-0.0020021952950146603,0.0,0.0,0.0,0.0,0.0,0.0,0.0,0.0,0.0
2.5380000000000003,67,2,538000000,base_footprint,-0.002749950312698286,0.0027261362119314087,0.7093159102804566,0.7048800929077506,0.0,0.0,0.0,0.0,0.0,0.0,0.0,0.0,0.0,-0.0005419476916587302,-0.0021111311975852546,0.004948573122381816,0.0,0.0,0.0,0.0,0.0,0.0,0.0,0.0,0.0,0.11081005365985064,0.0027859151185817554,-0.000820725557296795,0.0,0.0,0.0,0.0,0.0,0.0,0.0,0.0,0.0
2.572,68,2,572000000,base_footprint,-0.0027502707747435254,0.002730155548387215,0.7093773185235193,0.7048182760298776,0.0,0.0,0.0,0.0,0.0,0.0,0.0,0.0,0.0,-8.881032536558797e-05,0.0009717085524482896,0.010609422414495966,0.0,0.0,0.0,0.0,0.0,0.0,0.0,0.0,0.0,0.05068684015788325,-0.0018284657744972628,0.004610142976722767,0.0,0.0,0.0,0.0,0.0,0.0,0.0,0.0,0.0
2.606,69,2,606000000,base_footprint,-0.002750233503065128,0.002720737727006488,0.7095359970477568,0.7046585717177825,0.0,0.0,0.0,0.0,0.0,0.0,0.0,0.0,0.0,5.937614484165157e-05,-0.0007563136915414494,0.012509959710709215,0.0,0.0,0.0,0.0,0.0,0.0,0.0,0.0,0.0,0.08398472878423414,-0.01273956217888167,-0.0035337968371514776,0.0,0.0,0.0,0.0,0.0,0.0,0.0,0.0,0.0
2.64,70,2,640000000,base_footprint,-0.0027523315330155737,0.0027225313100722294,0.7096806454835006,0.7045128770437912,0.0,0.0,0.0,0.0,0.0,0.0,0.0,0.0,0.0,0.0006195365333021733,-0.0004513969963317692,0.0021384365344991364,0.0,0.0,0.0,0.0,0.0,0.0,0.0,0.0,0.0,-0.04903363316635244,0.0004541630841650435,0.0004956526945891332,0.0,0.0,0.0,0.0,0.0,0.0,0.0,0.0,0.0
2.674,71,2,674000000,base_footprint,-0.0027541897148082722,0.002721294295920384,0.7096398848410379,0.7045539318172658,0.0,0.0,0.0,0.0,0.0,0.0,0.0,0.0,0.0,2.0698852249502806e-05,0.00018590602361540082,-0.0029121289286440154,0.0,0.0,0.0,0.0,0.0,0.0,0.0,0.0,0.0,-0.016086105183483947,0.0007519812281046988,0.0019140043764097042,0.0,0.0,0.0,0.0,0.0,0.0,0.0,0.0,0.0
2.708,72,2,708000000,base_footprint,-0.002752001868630159,0.0027114171596192495,0.7097802102735292,0.7044126119021197,0.0,0.0,0.0,0.0,0.0,0.0,0.0,0.0,0.0,-5.613151574115318e-05,0.00021849034079963236,0.053717868163836974,0.0,0.0,0.0,0.0,0.0,0.0,0.0,0.0,0.0,-0.22383087973436483,-0.013350652885331174,-0.0006443276250774634,0.0,0.0,0.0,0.0,0.0,0.0,0.0,0.0,0.0
2.742,73,2,742000000,base_footprint,-0.002752435599071144,0.002714169853905214,0.71022170584618,0.7039674608426297,0.0,0.0,0.0,0.0,0.0,0.0,0.0,0.0,0.0,7.409774304444733e-05,0.0012009533997330343,-0.006901009566506913,0.0,0.0,0.0,0.0,0.0,0.0,0.0,0.0,0.0,-0.12869681666055383,-0.007913219805440588,0.0022027458846575554,0.0,0.0,0.0,0.0,0.0,0.0,0.0,0.0,0.0
2.776,74,2,776000000,base_footprint,-0.0027484791329469662,0.002712669888128565,0.710147288169576,0.7040425529681649,0.0,0.0,0.0,0.0,0.0,0.0,0.0,0.0,0.0,-9.773251758760341e-05,0.0002408282093462825,-0.006404687707043371,0.0,0.0,0.0,0.0,0.0,0.0,0.0,0.0,0.0,-0.0025561184031893808,0.006058924615676079,-0.0010796627305474508,0.0,0.0,0.0,0.0,0.0,0.0,0.0,0.0,0.0
2.81,75,2,810000000,base_footprint,-0.0027471495612139125,0.00271249513613604,0.7101271869137737,0.704062833804878,0.0,0.0,0.0,0.0,0.0,0.0,0.0,0.0,0.0,-8.108910221016286e-05,0.00021791750914211463,0.0011199506169427727,0.0,0.0,0.0,0.0,0.0,0.0,0.0,0.0,0.0,-0.0037920077935853784,0.00046715600994899176,-0.00016729705323335095,0.0,0.0,0.0,0.0,0.0,0.0,0.0,0.0,0.0
2.8440000000000003,76,2,844000000,base_footprint,-0.0027473236486279195,0.0027131979443017797,0.7101378867145349,0.7040520382914172,0.0,0.0,0.0,0.0,0.0,0.0,0.0,0.0,0.0,-7.250759893066014e-05,0.0001264227976135653,0.0006827859569614116,0.0,0.0,0.0,0.0,0.0,0.0,0.0,0.0,0.0,-0.005910082889356197,-0.00021746021065577412,-0.00017956973009970604,0.0,0.0,0.0,0.0,0.0,0.0,0.0,0.0,0.0
2.878,77,2,878000000,base_footprint,-0.00274876622495758,0.002714941581191532,0.7101435470481314,0.7040463166314768,0.0,0.0,0.0,0.0,0.0,0.0,0.0,0.0,0.0,-6.417583014445832e-05,2.419166164445157e-05,0.00026158093458066673,0.0,0.0,0.0,0.0,0.0,0.0,0.0,0.0,0.0,-0.005771332370680376,-7.182850386052743e-05,-0.00021557928199240044,0.0,0.0,0.0,0.0,0.0,0.0,0.0,0.0,0.0
2.912,78,2,912000000,base_footprint,-0.002751531154824566,0.0027182682121845094,0.7100849772675957,0.7041053650932572,0.0,0.0,0.0,0.0,0.0,0.0,0.0,0.0,0.0,-5.4287451303639334e-05,-0.0001562466887765804,-0.007443763374083213,0.0,0.0,0.0,0.0,0.0,0.0,0.0,0.0,0.0,-0.007282205177464458,0.0010585817556626855,-0.00029170148767164157,0.0,0.0,0.0,0.0,0.0,0.0,0.0,0.0,0.0
2.946,79,2,946000000,base_footprint,-0.002754307611001768,0.0027213545235998176,0.7099933440020199,0.7041977417543815,0.0,0.0,0.0,0.0,0.0,0.0,0.0,0.0,0.0,-5.647076806497363e-05,-0.00010124019033079962,-0.007865002733434113,0.0,0.0,0.0,0.0,0.0,0.0,0.0,0.0,0.0,-0.00339181090141345,0.00257605882084784,-0.00011852632246182245,0.0,0.0,0.0,0.0,0.0,0.0,0.0,0.0,0.0
2.98,80,2,980000000,base_footprint,-0.00275573188354743,0.0027243386680114606,0.7098964991236573,0.7042953531385703,0.0,0.0,0.0,0.0,0.0,0.0,0.0,0.0,0.0,-3.675801440546046e-05,-0.00011942616680918778,-0.008229823751386235,0.0,0.0,0.0,0.0,0.0,0.0,0.0,0.0,0.0,0.0013415370714171143,0.0022363381306740853,-6.0522639252249294e-05,0.0,0.0,0.0,0.0,0.0,0.0,0.0,0.0,0.0
3.014,81,3,14000000,base_footprint,-0.002761470662793638,0.0027156859591513393,0.7103562656010656,0.7038316384270163,0.0,0.0,0.0,0.0,0.0,0.0,0.0,0.0,0.0,0.000249408510565447,0.0015900557949149166,0.0758082787169328,0.0,0.0,0.0,0.0,0.0,0.0,0.0,0.0,0.0,0.041275987123291134,-0.006304245484914255,0.002112578605892074,0.0,0.0,0.0,0.0,0.0,0.0,0.0,0.0,0.0
3.048,82,3,48000000,base_footprint,-0.0027640563204207854,0.0027118006903164584,0.7111365485008299,0.7030432529482099,0.0,0.0,0.0,0.0,0.0,0.0,0.0,0.0,0.0,-0.00020307201323090609,0.00020685029555022385,0.051179496197867186,0.0,0.0,0.0,0.0,0.0,0.0,0.0,0.0,0.0,0.030602773799701583,-0.012804888217313983,-0.002133205632134135,0.0,0.0,0.0,0.0,0.0,0.0,0.0,0.0,0.0
3.082,83,3,82000000,base_footprint,-0.002764085808502069,0.0027115658194585774,0.7117103846393193,0.7024623375220924,0.0,0.0,0.0,0.0,0.0,0.0,0.0,0.0,0.0,-0.000854513692578297,0.0007882939511298536,0.05679089449905016,0.0,0.0,0.0,0.0,0.0,0.0,0.0,0.0,0.0,0.007829726866302003,-0.013863671604402864,0.00014426419604386545,0.0,0.0,0.0,0.0,0.0,0.0,0.0,0.0,0.0
3.116,84,3,116000000,base_footprint,-0.0027680885988626666,0.00271343127812735,0.7125462537489309,0.7016144320384039,0.0,0.0,0.0,0.0,0.0,0.0,0.0,0.0,0.0,1.1055412790095896e-05,0.00045108541368110315,0.06798733760213367,0.0,0.0,0.0,0.0,0.0,0.0,0.0,0.0,0.0,-0.02667033581555414,-0.01799369288128936,0.0004219185840124808,0.0,0.0,0.0,0.0,0.0,0.0,0.0,0.0,0.0
3.15,85,3,150000000,base_footprint,-0.0027693050199544132,0.0027080337537334228,0.7133888522520471,0.7007576920629571,0.0,0.0,0.0,0.0,0.0,0.0,0.0,0.0,0.0,5.050768414885647e-05,0.00093600821040277,0.07114863262616977,0.0,0.0,0.0,0.0,0.0,0.0,0.0,0.0,0.0,0.006197389132232053,-0.013254729784335086,0.0008854541696012428,0.0,0.0,0.0,0.0,0.0,0.0,0.0,0.0,0.0
3.184,86,3,184000000,base_footprint,-0.0027700523723587197,0.0027012938129722434,0.7142397428737848,0.6998904339403277,0.0,0.0,0.0,0.0,0.0,0.0,0.0,0.0,0.0,7.638624636220989e-05,0.0008477357240082609,0.07156419232269709,0.0,0.0,0.0,0.0,0.0,0.0,0.0,0.0,0.0,-0.0024197308903039314,-0.015911119025997893,2.63711674244885e-06,0.0,0.0,0.0,0.0,0.0,0.0,0.0,0.0,0.0
3.218,87,3,218000000,base_footprint,-0.002771158008317058,0.0026959304823623385,0.7151414142972131,0.698969105325199,0.0,0.0,0.0,0.0,0.0,0.0,0.0,0.0,0.0,-7.157557680664706e-05,0.0008278448066389851,0.0853809600452204,0.0,0.0,0.0,0.0,0.0,0.0,0.0,0.0,0.0,0.3365235474701853,-0.000767101162882311,4.3342121321071386e-05,0.0,0.0,0.0,0.0,0.0,0.0,0.0,0.0,0.0
3.252,88,3,252000000,base_footprint,-0.0027701345592225273,0.0026903821114799198,0.7159248108251062,0.6981667089196204,0.0,0.0,0.0,0.0,0.0,0.0,0.0,0.0,0.0,-0.0001319132576088348,0.0007815792417204758,0.06319155423989568,0.0,0.0,0.0,0.0,0.0,0.0,0.0,0.0,0.0,-0.006152982709139154,-0.014168907585549274,0.00031629952735993537,0.0,0.0,0.0,0.0,0.0,0.0,0.0,0.0,0.0
3.286,89,3,286000000,base_footprint,-0.0027716810261414356,0.0026873250341253596,0.7166718020331327,0.6973999026663485,0.0,0.0,0.0,0.0,0.0,0.0,0.0,0.0,0.0,-0.00011300682730454027,0.0006883208713813644,0.06276422965757616,0.0,0.0,0.0,0.0,0.0,0.0,0.0,0.0,0.0,-0.004886871286048251,-0.013271061678135337,-6.31519626813354e-05,0.0,0.0,0.0,0.0,0.0,0.0,0.0,0.0,0.0
3.32,90,3,320000000,base_footprint,-0.002774404522375132,0.002685176896647748,0.717407911247158,0.6966426497025358,0.0,0.0,0.0,0.0,0.0,0.0,0.0,0.0,0.0,-0.00010610550995595304,0.0006059901607885895,0.06188663206382561,0.0,0.0,0.0,0.0,0.0,0.0,0.0,0.0,0.0,-0.0049754967377553016,-0.013154917172662962,-5.7045993483832534e-05,0.0,0.0,0.0,0.0,0.0,0.0,0.0,0.0,0.0
3.354,91,3,354000000,base_footprint,-0.0027782519254119526,0.0026840152999642493,0.7181378047983994,0.6958902001734503,0.0,0.0,0.0,0.0,0.0,0.0,0.0,0.0,0.0,-0.00010414334260159553,0.0005139902450244093,0.06146048279879984,0.0,0.0,0.0,0.0,0.0,0.0,0.0,0.0,0.0,-0.00470970365237224,-0.013039737355588917,-9.119149406856028e-05,0.0,0.0,0.0,0.0,0.0,0.0,0.0,0.0,0.0
3.388,92,3,388000000,base_footprint,-0.002783350039251402,0.0026840909052553534,0.7188615671822619,0.6951425003888295,0.0,0.0,0.0,0.0,0.0,0.0,0.0,0.0,0.0,-0.00010569446784706923,0.0003953326441380655,0.06097032237534168,0.0,0.0,0.0,0.0,0.0,0.0,0.0,0.0,0.0,-0.004309963492102942,-0.012899729754174761,-0.00015177416314389805,0.0,0.0,0.0,0.0,0.0,0.0,0.0,0.0,0.0
3.422,93,3,422000000,base_footprint,-0.00279039226065262,0.002683207187671285,0.7196597904245231,0.6943160664685438,0.0,0.0,0.0,0.0,0.0,0.0,0.0,0.0,0.0,0.0014101844184218736,0.0007696257706475918,0.069711074223301,0.0,0.0,0.0,0.0,0.0,0.0,0.0,0.0,0.0,-0.33411641725412267,-0.034659761034367575,-0.0009689400174734922,0.0,0.0,0.0,0.0,0.0,0.0,0.0,0.0,0.0
3.456,94,3,456000000,base_footprint,-0.002794396664904379,0.002683722610129954,0.7202896156723018,0.6936626402905659,0.0,0.0,0.0,0.0,0.0,0.0,0.0,0.0,0.0,-4.612204678833863e-05,0.0003965447989766401,0.05287985191175762,0.0,0.0,0.0,0.0,0.0,0.0,0.0,0.0,0.0,-0.0148350990718641,-0.01307990314545588,0.0010780916962264994,0.0,0.0,0.0,0.0,0.0,0.0,0.0,0.0,0.0
3.49,95,3,490000000,base_footprint,-0.002799313400335461,0.0026792296652366878,0.7209042200838895,0.6930238747966239,0.0,0.0,0.0,0.0,0.0,0.0,0.0,0.0,0.0,0.0025811963855824106,0.0011593913155597262,0.045639203552697453,0.0,0.0,0.0,0.0,0.0,0.0,0.0,0.0,0.0,-0.007834718824367738,-0.008218999599059067,6.391097063344607e-05,0.0,0.0,0.0,0.0,0.0,0.0,0.0,0.0,0.0
3.524,96,3,524000000,base_footprint,-0.002798105206102258,0.002682616636082327,0.7209601034381888,0.69296573033999,0.0,0.0,0.0,0.0,0.0,0.0,0.0,0.0,0.0,0.0010906084918347225,7.15893599892598e-05,-0.010794687433521688,0.0,0.0,0.0,0.0,0.0,0.0,0.0,0.0,0.0,-0.05823400281294709,-0.00674027032432703,0.00038683755172495143,0.0,0.0,0.0,0.0,0.0,0.0,0.0,0.0,0.0
3.558,97,3,558000000,base_footprint,-0.002796365395635595,0.002676517672280746,0.7206537334421432,0.6932843666704338,0.0,0.0,0.0,0.0,0.0,0.0,0.0,0.0,0.0,-0.0010568953743884891,-0.000873786438374981,-0.03188793518519024,0.0,0.0,0.0,0.0,0.0,0.0,0.0,0.0,0.0,0.11035173821889813,0.003986963024484778,-0.0011733726304046727,0.0,0.0,0.0,0.0,0.0,0.0,0.0,0.0,0.0
3.592,98,3,592000000,base_footprint,-0.002795094182830123,0.0026799139907814876,0.7204440395802781,0.6935022648432821,0.0,0.0,0.0,0.0,0.0,0.0,0.0,0.0,0.0,2.3802944230357667e-05,9.045467607151055e-05,-0.018269667093701702,0.0,0.0,0.0,0.0,0.0,0.0,0.0,0.0,0.0,0.007789836185534744,0.006950752646466435,0.0009950001406676475,0.0,0.0,0.0,0.0,0.0,0.0,0.0,0.0,0.0
3.626,99,3,626000000,base_footprint,-0.0027956730382430284,0.0026804172355999693,0.7201228226033348,0.6938358018591375,0.0,0.0,0.0,0.0,0.0,0.0,0.0,0.0,0.0,-3.4860567594096806e-05,0.00023354475382538506,-0.026466231118789332,0.0,0.0,0.0,0.0,0.0,0.0,0.0,0.0,0.0,-0.026540879119850515,0.004243460195322641,0.0006687950870802784,0.0,0.0,0.0,0.0,0.0,0.0,0.0,0.0,0.0
3.66,100,3,660000000,base_footprint,-0.002791892483607803,0.0026779604571502487,0.7198058291444991,0.6941646794484363,0.0,0.0,0.0,0.0,0.0,0.0,0.0,0.0,0.0,0.00011572663109288186,0.00012617101621586958,-0.026737867030677438,0.0,0.0,0.0,0.0,0.0,0.0,0.0,0.0,0.0,-0.005162844253286166,0.006045717063348165,-0.00018642286000989115,0.0,0.0,0.0,0.0,0.0,0.0,0.0,0.0,0.0
3.693,101,3,694000000,base_footprint,-0.0027887137407330027,0.002676499211964461,0.7194783654481249,0.6945040972375432,0.0,0.0,0.0,0.0,0.0,0.0,0.0,0.0,0.0,0.00021756294756608533,0.0001315372653026761,-0.03277945035124755,0.0,0.0,0.0,0.0,0.0,0.0,0.0,0.0,0.0,-0.007427438882874936,0.005585957565744802,1.235364112765337e-06,0.0,0.0,0.0,0.0,0.0,0.0,0.0,0.0,0.0
3.728,102,3,728000000,base_footprint,-0.0027838048084833492,0.002677275873300788,0.7190916197602324,0.6949045438154019,0.0,0.0,0.0,0.0,0.0,0.0,0.0,0.0,0.0,-0.0001249661152463142,4.099494219401781e-05,-0.032867590577351696,0.0,0.0,0.0,0.0,0.0,0.0,0.0,0.0,0.0,-0.006357925211725705,0.006416249890347629,5.46350639500476e-05,0.0,0.0,0.0,0.0,0.0,0.0,0.0,0.0,0.0
3.762,103,3,762000000,base_footprint,-0.0027806732957500096,0.0026787819643115966,0.7187005381404857,0.6953090165241541,0.0,0.0,0.0,0.0,0.0,0.0,0.0,0.0,0.0,-0.00010347703427837868,-4.927630260813815e-05,-0.0332993267700263,0.0,0.0,0.0,0.0,0.0,0.0,0.0,0.0,0.0,-0.006347170581940442,0.006902639045922974,-0.0002323978153528104,0.0,0.0,0.0,0.0,0.0,0.0,0.0,0.0,0.0
3.7960000000000003,104,3,796000000,base_footprint,-0.0027788115426293303,0.0026813833301146807,0.7182885313851614,0.6957346290579446,0.0,0.0,0.0,0.0,0.0,0.0,0.0,0.0,0.0,-2.270429885582864e-05,-0.00023620075036662452,-0.04043212176499092,0.0,0.0,0.0,0.0,0.0,0.0,0.0,0.0,0.0,-0.008055242870610865,0.007125142716927866,-0.00026942660426499846,0.0,0.0,0.0,0.0,0.0,0.0,0.0,0.0,0.0
3.83,105,3,830000000,base_footprint,-0.0027781557695873175,0.0026851501990560215,0.7178096818661487,0.6962286495384595,0.0,0.0,0.0,0.0,0.0,0.0,0.0,0.0,0.0,-7.871491287341195e-05,-0.0002902273902801437,-0.040652245984660905,0.0,0.0,0.0,0.0,0.0,0.0,0.0,0.0,0.0,-0.006305614545987254,0.008739698710335923,-0.0002507312575493361,0.0,0.0,0.0,0.0,0.0,0.0,0.0,0.0,0.0
3.864,106,3,864000000,base_footprint,-0.0027789055479962243,0.002690199527577831,0.7173250939214539,0.696727888160819,0.0,0.0,0.0,0.0,0.0,0.0,0.0,0.0,0.0,-6.728564458371562e-05,-0.000392273017886479,-0.04117912248956107,0.0,0.0,0.0,0.0,0.0,0.0,0.0,0.0,0.0,-0.005920992387806924,0.008875510792303266,-0.00034506069819846216,0.0,0.0,0.0,0.0,0.0,0.0,0.0,0.0,0.0
3.898,107,3,898000000,base_footprint,-0.0027807896118143983,0.0026942875576476707,0.7168593685329464,0.6972070379523122,0.0,0.0,0.0,0.0,0.0,0.0,0.0,0.0,0.0,-3.1767076916910743e-05,-0.00029285664571795635,-0.032394444604245794,0.0,0.0,0.0,0.0,0.0,0.0,0.0,0.0,0.0,-0.001850911112656384,0.009483084180396645,-0.00026882657191518725,0.0,0.0,0.0,0.0,0.0,0.0,0.0,0.0,0.0
3.932,108,3,932000000,base_footprint,-0.00278062391929915,0.002698725651397692,0.7164582683771603,0.6976191903069174,0.0,0.0,0.0,0.0,0.0,0.0,0.0,0.0,0.0,-3.083440002893754e-05,-0.00029771336937647425,-0.03434889480772539,0.0,0.0,0.0,0.0,0.0,0.0,0.0,0.0,0.0,0.000515605136603735,0.008389860547917077,1.190405647630027e-05,0.0,0.0,0.0,0.0,0.0,0.0,0.0,0.0,0.0
3.966,109,3,966000000,base_footprint,-0.0027795797609793103,0.002701380738143622,0.716051986647664,0.698036194546095,0.0,0.0,0.0,0.0,0.0,0.0,0.0,0.0,0.0,-5.205434483412678e-05,-0.00011625945894685619,-0.03409256325355134,0.0,0.0,0.0,0.0,0.0,0.0,0.0,0.0,0.0,0.005322943578098008,0.009572644139700517,0.00026848053429501717,0.0,0.0,0.0,0.0,0.0,0.0,0.0,0.0,0.0
4.0,110,4,0,base_footprint,-0.002755367866909356,0.0026981675465402037,0.7157000384631932,0.6983971526170427,0.0,0.0,0.0,0.0,0.0,0.0,0.0,0.0,0.0,1.7052059774332984e-05,0.0007503256591910735,-0.014320911908910917,0.0,0.0,0.0,0.0,0.0,0.0,0.0,0.0,0.0,0.05992421162800955,0.005448382095861726,0.001724057792812187,0.0,0.0,0.0,0.0,0.0,0.0,0.0,0.0,0.0
4.034,111,4,34000000,base_footprint,-0.0027839013037611214,0.0026979937811195285,0.7154655989941957,0.6986372072678099,0.0,0.0,0.0,0.0,0.0,0.0,0.0,0.0,0.0,5.865049403335984e-05,-0.0002501583424283358,-0.04348912000675514,0.0,0.0,0.0,0.0,0.0,0.0,0.0,0.0,0.0,0.1678674556763094,0.011927853946024358,-0.00159443904098876,0.0,0.0,0.0,0.0,0.0,0.0,0.0,0.0,0.0
4.068,112,4,68000000,base_footprint,-0.002770928153879155,0.0027017614700116863,0.7149839176398984,0.699130188132674,0.0,0.0,0.0,0.0,0.0,0.0,0.0,0.0,0.0,0.00043028993444010433,-0.0001845247864823835,-0.014659966481694882,0.0,0.0,0.0,0.0,0.0,0.0,0.0,0.0,0.0,0.1770423695439474,0.016436280630633515,-0.0012129296861104124,0.0,0.0,0.0,0.0,0.0,0.0,0.0,0.0,0.0
4.102,113,4,102000000,base_footprint,-0.002774831476429118,0.0027020486513353414,0.7146878472019104,0.699432827586225,0.0,0.0,0.0,0.0,0.0,0.0,0.0,0.0,0.0,-0.00022155061095260878,-0.00010745193067385119,-0.02968951135758834,0.0,0.0,0.0,0.0,0.0,0.0,0.0,0.0,0.0,-0.031262186375198626,0.003757038348316274,0.001012599845153888,0.0,0.0,0.0,0.0,0.0,0.0,0.0,0.0,0.0
4.136,114,4,136000000,base_footprint,-0.0027709812797872975,0.0027001686533300096,0.7143386933146318,0.6997894411789414,0.0,0.0,0.0,0.0,0.0,0.0,0.0,0.0,0.0,0.00014108964398685514,9.436223021917723e-05,-0.029277256780421163,0.0,0.0,0.0,0.0,0.0,0.0,0.0,0.0,0.0,-0.002708021490566249,0.00722833327429016,0.00024086046918977917,0.0,0.0,0.0,0.0,0.0,0.0,0.0,0.0,0.0
4.17,115,4,170000000,base_footprint,-0.0027675658044352307,0.0026989251117470166,0.7139859240713073,0.7001493816399473,0.0,0.0,0.0,0.0,0.0,0.0,0.0,0.0,0.0,-0.00012228503029071587,0.00017972547146874365,-0.02979668983806743,0.0,0.0,0.0,0.0,0.0,0.0,0.0,0.0,0.0,-0.005893504292249505,0.00570556647665239,0.0003268417199252887,0.0,0.0,0.0,0.0,0.0,0.0,0.0,0.0,0.0
4.204,116,4,204000000,base_footprint,-0.002762617908028218,0.002695196862279876,0.7137764428066121,0.7003629727152251,0.0,0.0,0.0,0.0,0.0,0.0,0.0,0.0,0.0,-0.0004140315943338466,0.0016597960780662631,0.03552008182422642,0.0,0.0,0.0,0.0,0.0,0.0,0.0,0.0,0.0,-0.26227422994904215,-0.00889686044697352,0.001107778776294947,0.0,0.0,0.0,0.0,0.0,0.0,0.0,0.0,0.0
4.238,117,4,238000000,base_footprint,-0.0027641760858401177,0.0026948867175430194,0.7145023314599859,0.6996224090567645,0.0,0.0,0.0,0.0,0.0,0.0,0.0,0.0,0.0,-0.00011685973291360372,0.0006501066345422829,0.06222839391869993,0.0,0.0,0.0,0.0,0.0,0.0,0.0,0.0,0.0,-0.06448366738784964,-0.012558773269790796,-0.001411665269160538,0.0,0.0,0.0,0.0,0.0,0.0,0.0,0.0,0.0
4.272,118,4,272000000,base_footprint,-0.002766692338378824,0.002692778865154855,0.715239280143924,0.6988689909379937,0.0,0.0,0.0,0.0,0.0,0.0,0.0,0.0,0.0,-0.0001096794711749587,0.0006117413428750565,0.061794932626395335,0.0,0.0,0.0,0.0,0.0,0.0,0.0,0.0,0.0,-0.005362080793874786,-0.013731365873578691,-7.996502505570035e-06,0.0,0.0,0.0,0.0,0.0,0.0,0.0,0.0,0.0
4.306,119,4,306000000,base_footprint,-0.002770281671430672,0.002691881592729133,0.7159306624893169,0.6981607020024542,0.0,0.0,0.0,0.0,0.0,0.0,0.0,0.0,0.0,-9.440600075492598e-05,0.0004269813946816505,0.054675895578077255,0.0,0.0,0.0,0.0,0.0,0.0,0.0,0.0,0.0,-0.0069651698690292255,-0.013221618746660191,-0.00015412154254054391,0.0,0.0,0.0,0.0,0.0,0.0,0.0,0.0,0.0
4.34,120,4,340000000,base_footprint,-0.0027750491964840746,0.002692372329057001,0.7165771104708633,0.6974971648561928,0.0,0.0,0.0,0.0,0.0,0.0,0.0,0.0,0.0,-0.00010167563488238697,0.0003557818948660337,0.05427596636956623,0.0,0.0,0.0,0.0,0.0,0.0,0.0,0.0,0.0,-0.004832422775595676,-0.011950551082181633,-0.00011761536788767101,0.0,0.0,0.0,0.0,0.0,0.0,0.0,0.0,0.0
4.374,121,4,374000000,base_footprint,-0.0027808881165388667,0.0026928458008512574,0.7172156272504657,0.696840555127568,0.0,0.0,0.0,0.0,0.0,0.0,0.0,0.0,0.0,-2.6548606362534433e-05,0.00023208556251890454,0.05364157486196137,0.0,0.0,0.0,0.0,0.0,0.0,0.0,0.0,0.0,-0.0035459675216563584,-0.011213658858062622,-0.0003320573748296233,0.0,0.0,0.0,0.0,0.0,0.0,0.0,0.0,0.0
4.408,122,4,408000000,base_footprint,-0.0027848746489018547,0.0026931407507902964,0.7177994680248694,0.6962391221191905,0.0,0.0,0.0,0.0,0.0,0.0,0.0,0.0,0.0,4.2964152548940694e-05,0.0002913115383975478,0.045285202339057855,0.0,0.0,0.0,0.0,0.0,0.0,0.0,0.0,0.0,-0.006507670072263547,-0.009386851793646882,0.0002415388536702638,0.0,0.0,0.0,0.0,0.0,0.0,0.0,0.0,0.0
4.442,123,4,442000000,base_footprint,-0.002787866143473656,0.002691812062181167,0.7183332590398975,0.695688371979371,0.0,0.0,0.0,0.0,0.0,0.0,0.0,0.0,0.0,-4.199081440480116e-05,0.00046596243968728804,0.04519638629740498,0.0,0.0,0.0,0.0,0.0,0.0,0.0,0.0,0.0,0.0021895349874881125,-0.008244053477007268,0.0004102590571816632,0.0,0.0,0.0,0.0,0.0,0.0,0.0,0.0,0.0
4.476,124,4,476000000,base_footprint,-0.0027889676241527415,0.0026872159029122863,0.7188672095143308,0.6951366308973811,0.0,0.0,0.0,0.0,0.0,0.0,0.0,0.0,0.0,8.531861054043974e-05,0.0008138076282778377,0.04328729627565739,0.0,0.0,0.0,0.0,0.0,0.0,0.0,0.0,0.0,0.013002742559719045,-0.008845148198478722,0.0007347046950839109,0.0,0.0,0.0,0.0,0.0,0.0,0.0,0.0,0.0
4.51,125,4,510000000,base_footprint,-0.002787597819113639,0.002683718927980726,0.719320332997468,0.6946677518695727,0.0,0.0,0.0,0.0,0.0,0.0,0.0,0.0,0.0,-0.0005339500302736515,0.00046093299561901827,0.04361548823631138,0.0,0.0,0.0,0.0,0.0,0.0,0.0,0.0,0.0,0.04463593470356412,-0.011207463591634215,-0.0002684980525341613,0.0,0.0,0.0,0.0,0.0,0.0,0.0,0.0,0.0
4.5440000000000005,126,4,544000000,base_footprint,-0.002791268659443428,0.002680900776423952,0.7199675715324357,0.6939969146415458,0.0,0.0,0.0,0.0,0.0,0.0,0.0,0.0,0.0,-0.00017525811729069917,0.0007654092578551667,0.055741761920670346,0.0,0.0,0.0,0.0,0.0,0.0,0.0,0.0,0.0,0.033387981415620244,-0.009807135155423672,0.000827490165230305,0.0,0.0,0.0,0.0,0.0,0.0,0.0,0.0,0.0
4.578,127,4,578000000,base_footprint,-0.0027985667301720844,0.0026774624238139434,0.7204878386269853,0.6934567568420119,0.0,0.0,0.0,0.0,0.0,0.0,0.0,0.0,0.0,-0.000254703090634893,0.0006244355452346796,0.037019781237433796,0.0,0.0,0.0,0.0,0.0,0.0,0.0,0.0,0.0,-0.05261053799039585,-0.01656837950572749,-0.000328241448111236,0.0,0.0,0.0,0.0,0.0,0.0,0.0,0.0,0.0
4.612,128,4,612000000,base_footprint,-0.002796122938856788,0.0026732009553052044,0.720861454910055,0.6930683938242476,0.0,0.0,0.0,0.0,0.0,0.0,0.0,0.0,0.0,-1.7129784273828773e-05,0.0005898719391406879,0.028746820294967265,0.0,0.0,0.0,0.0,0.0,0.0,0.0,0.0,0.0,0.00046691777605171927,-0.003538001271619675,8.438062927464593e-05,0.0,0.0,0.0,0.0,0.0,0.0,0.0,0.0,0.0
4.646,129,4,646000000,base_footprint,-0.0027955223325505717,0.0026697464371942758,0.7212005976344801,0.6927154938937905,0.0,0.0,0.0,0.0,0.0,0.0,0.0,0.0,0.0,-5.452168510324771e-05,0.0005251830114833601,0.02891986855258375,0.0,0.0,0.0,0.0,0.0,0.0,0.0,0.0,0.0,-0.004261722334467156,-0.006457853452983898,4.231265914315534e-05,0.0,0.0,0.0,0.0,0.0,0.0,0.0,0.0,0.0
4.68,130,4,680000000,base_footprint,-0.0027933621726668016,0.002667250312787962,0.7215394610160447,0.6923625416645653,0.0,0.0,0.0,0.0,0.0,0.0,0.0,0.0,0.0,-0.00015550496050366236,0.0005219464018038475,0.028625130595227803,0.0,0.0,0.0,0.0,0.0,0.0,0.0,0.0,0.0,-0.005070546420799619,-0.006581133062675112,0.00011590947074659554,0.0,0.0,0.0,0.0,0.0,0.0,0.0,0.0,0.0
4.714,131,4,714000000,base_footprint,-0.002791029302347333,0.0026686278179655415,0.7212855234211795,0.6926270874605165,0.0,0.0,0.0,0.0,0.0,0.0,0.0,0.0,0.0,-0.0001136780989277823,-0.00017686025093006404,-0.04303788036883658,0.0,0.0,0.0,0.0,0.0,0.0,0.0,0.0,0.0,-0.02510904366484667,0.002240027574444175,-0.00023860006407797873,0.0,0.0,0.0,0.0,0.0,0.0,0.0,0.0,0.0
4.748,132,4,748000000,base_footprint,-0.002788479630463975,0.0026714589626002437,0.7207762558848296,0.6931570360610995,0.0,0.0,0.0,0.0,0.0,0.0,0.0,0.0,0.0,-9.635633746292739e-05,-0.00020962788296489623,-0.04344404402640291,0.0,0.0,0.0,0.0,0.0,0.0,0.0,0.0,0.0,-0.006459456277744668,0.008828012532122214,-0.00021699201228879655,0.0,0.0,0.0,0.0,0.0,0.0,0.0,0.0,0.0
4.782,133,4,782000000,base_footprint,-0.0027874380591705926,0.0026755078004921623,0.7202610363923939,0.6936923751217325,0.0,0.0,0.0,0.0,0.0,0.0,0.0,0.0,0.0,-8.824974454358175e-05,-0.0003133174711001188,-0.04393557625697163,0.0,0.0,0.0,0.0,0.0,0.0,0.0,0.0,0.0,-0.006487943005827137,0.009299607732917006,-0.00028873191558707775,0.0,0.0,0.0,0.0,0.0,0.0,0.0,0.0,0.0
4.816,134,4,816000000,base_footprint,-0.0027880791216138992,0.002683212146495173,0.7200272974889641,0.69393495218077,0.0,0.0,0.0,0.0,0.0,0.0,0.0,0.0,0.0,-0.00043200264491352543,0.0007841104723164624,0.03681451846783433,0.0,0.0,0.0,0.0,0.0,0.0,0.0,0.0,0.0,0.618578318948373,0.051479991087044874,0.00021417459343513472,0.0,0.0,0.0,0.0,0.0,0.0,0.0,0.0,0.0
4.85,135,4,850000000,base_footprint,-0.002785960079827306,0.0026785412385657422,0.720188823459036,0.6937673402574932,0.0,0.0,0.0,0.0,0.0,0.0,0.0,0.0,0.0,-0.0009662228040334242,-0.0003589419305715349,-0.05269836762232859,0.0,0.0,0.0,0.0,0.0,0.0,0.0,0.0,0.0,-0.2888766016390206,-0.02777037172713065,0.0008001423193856164,0.0,0.0,0.0,0.0,0.0,0.0,0.0,0.0,0.0
4.884,136,4,884000000,base_footprint,-0.002791593228112304,0.002686340714867707,0.7195626831616992,0.6944166872864942,0.0,0.0,0.0,0.0,0.0,0.0,0.0,0.0,0.0,-1.9576538526506432e-05,-0.00044133885107052953,-0.053344798706099344,0.0,0.0,0.0,0.0,0.0,0.0,0.0,0.0,0.0,-0.0013101775577646782,0.014504511185277357,-0.0016065152850327016,0.0,0.0,0.0,0.0,0.0,0.0,0.0,0.0,0.0
4.918,137,4,918000000,base_footprint,-0.0027904094565161233,0.002690002054276905,0.7189968071237057,0.6950025675131924,0.0,0.0,0.0,0.0,0.0,0.0,0.0,0.0,0.0,-6.19505229809959e-05,-0.0003353775322302699,-0.047253663396588166,0.0,0.0,0.0,0.0,0.0,0.0,0.0,0.0,0.0,0.004472162633938978,0.01157201998902926,1.959056635177646e-05,0.0,0.0,0.0,0.0,0.0,0.0,0.0,0.0,0.0
4.952,138,4,952000000,base_footprint,-0.0027886207593477924,0.0026905646710012774,0.7184396230212324,0.6955785308138265,0.0,0.0,0.0,0.0,0.0,0.0,0.0,0.0,0.0,0.00014971184474262878,-0.00019075377003424876,-0.0475056999910924,0.0,0.0,0.0,0.0,0.0,0.0,0.0,0.0,0.0,0.01054800518169899,0.011047331315328174,0.00014029484195533928,0.0,0.0,0.0,0.0,0.0,0.0,0.0,0.0,0.0
4.986,139,4,986000000,base_footprint,-0.0027837090369914343,0.00269084171471244,0.7178541490794987,0.6961827568851533,0.0,0.0,0.0,0.0,0.0,0.0,0.0,0.0,0.0,-0.00034050809078941174,-0.0003413307915810246,-0.04478204005481254,0.0,0.0,0.0,0.0,0.0,0.0,0.0,0.0,0.0,0.029485954785409316,0.011538112528040727,-0.00017801998992120807,0.0,0.0,0.0,0.0,0.0,0.0,0.0,0.0,0.0
5.02,140,5,20000000,base_footprint,-0.002781798818736984,0.0026898472103766063,0.7179929847843832,0.6960395822923647,0.0,0.0,0.0,0.0,0.0,0.0,0.0,0.0,0.0,-0.0010270576284265348,-0.0010064128199650825,0.07458260472420963,0.0,0.0,0.0,0.0,0.0,0.0,0.0,0.0,0.0,-0.0016261790861847192,-0.0017060454325970615,-0.0019107363233533347,0.0,0.0,0.0,0.0,0.0,0.0,0.0,0.0,0.0
5.054,141,5,54000000,base_footprint,-0.002774013607005966,0.00268247191430662,0.7188728038525287,0.6951309236928975,0.0,0.0,0.0,0.0,0.0,0.0,0.0,0.0,0.0,-7.783407362306146e-05,0.0005228605606642114,0.05577456256338742,0.0,0.0,0.0,0.0,0.0,0.0,0.0,0.0,0.0,-0.09767734856170561,-0.026628296063673146,0.0022095408689144806,0.0,0.0,0.0,0.0,0.0,0.0,0.0,0.0,0.0
5.088,142,5,88000000,base_footprint,-0.002773238950689844,0.002679352825916077,0.7191191054857936,0.6948761345300821,0.0,0.0,0.0,0.0,0.0,0.0,0.0,0.0,0.0,0.001172886363397457,-0.000420630759458536,-0.0183617783398049,0.0,0.0,0.0,0.0,0.0,0.0,0.0,0.0,0.0,-0.19413336048500784,-0.015207796265436418,-0.001352912974717652,0.0,0.0,0.0,0.0,0.0,0.0,0.0,0.0,0.0
5.122,143,5,122000000,base_footprint,-0.0027855032685761604,0.002681729891354555,0.7186302062232479,0.6953816764913084,0.0,0.0,0.0,0.0,0.0,0.0,0.0,0.0,0.0,9.603658565204812e-05,1.7897501570732926e-05,-0.04379523911903431,0.0,0.0,0.0,0.0,0.0,0.0,0.0,0.0,0.0,-0.05796031491616814,0.00414451262089903,0.0018549108112899078,0.0,0.0,0.0,0.0,0.0,0.0,0.0,0.0,0.0
5.156,144,5,156000000,base_footprint,-0.002780206035594917,0.002682194006136255,0.7181117161707395,0.6959171210625791,0.0,0.0,0.0,0.0,0.0,0.0,0.0,0.0,0.0,-0.0001276018496019533,-9.12566271019663e-06,-0.04401130848198264,0.0,0.0,0.0,0.0,0.0,0.0,0.0,0.0,0.0,-0.0056075871374884,0.008867921997067485,0.00012124985493707206,0.0,0.0,0.0,0.0,0.0,0.0,0.0,0.0,0.0
5.189,145,5,190000000,base_footprint,-0.002775938665061372,0.002683934918889909,0.7175855090084354,0.6964597101907501,0.0,0.0,0.0,0.0,0.0,0.0,0.0,0.0,0.0,-0.00022655017581413937,-6.102769515831558e-05,-0.04844891992002422,0.0,0.0,0.0,0.0,0.0,0.0,0.0,0.0,0.0,-0.0068193350232731735,0.00959313688228983,-0.0001590609149289003,0.0,0.0,0.0,0.0,0.0,0.0,0.0,0.0,0.0
5.224,146,5,224000000,base_footprint,-0.0027732418701766045,0.002686758238384304,0.7169848636353219,0.6970780413824103,0.0,0.0,0.0,0.0,0.0,0.0,0.0,0.0,0.0,-8.083389830832943e-05,-0.0002405264901723064,-0.05093567358151892,0.0,0.0,0.0,0.0,0.0,0.0,0.0,0.0,0.0,-0.00774164295005553,0.010556809676564072,-0.0003637599508859948,0.0,0.0,0.0,0.0,0.0,0.0,0.0,0.0,0.0
5.258,147,5,258000000,base_footprint,-0.002771695435345165,0.002690608947688785,0.7163777251106214,0.697701965951964,0.0,0.0,0.0,0.0,0.0,0.0,0.0,0.0,0.0,-6.853629359343755e-05,-0.00033728301603503394,-0.05145912347679345,0.0,0.0,0.0,0.0,0.0,0.0,0.0,0.0,0.0,-0.006449015543647786,0.011072333107225945,-0.00028836899283148543,0.0,0.0,0.0,0.0,0.0,0.0,0.0,0.0,0.0
5.292,148,5,292000000,base_footprint,-0.0027711995546580845,0.0026985263825780965,0.7158130728463737,0.6982812349982082,0.0,0.0,0.0,0.0,0.0,0.0,0.0,0.0,0.0,0.00043914984159588457,0.0007592443728040605,0.003694512981397189,0.0,0.0,0.0,0.0,0.0,0.0,0.0,0.0,0.0,0.017010627281055055,0.009192269096224618,0.0026531529076853373,0.0,0.0,0.0,0.0,0.0,0.0,0.0,0.0,0.0
5.326,149,5,326000000,base_footprint,-0.002781200118226375,0.0026951339444844344,0.7170601204700289,0.6970005629914738,0.0,0.0,0.0,0.0,0.0,0.0,0.0,0.0,0.0,4.022871954135695e-05,0.001842238896706918,0.1527255087030412,0.0,0.0,0.0,0.0,0.0,0.0,0.0,0.0,0.0,0.3704832756713153,0.0024105369186054604,-0.0023856267794571096,0.0,0.0,0.0,0.0,0.0,0.0,0.0,0.0,0.0
5.36,150,5,360000000,base_footprint,-0.002789769497902604,0.0026892036425857457,0.7188539075922682,0.6951503757527892,0.0,0.0,0.0,0.0,0.0,0.0,0.0,0.0,0.0,-1.9434390789873257e-05,0.0011177586002954795,0.15060018948468795,0.0,0.0,0.0,0.0,0.0,0.0,0.0,0.0,0.0,-0.001000727839566196,-0.030856784863312753,-0.0005300156140198288,0.0,0.0,0.0,0.0,0.0,0.0,0.0,0.0,0.0
5.394,151,5,394000000,base_footprint,-0.00279863414410745,0.002680283201449661,0.7205878906283892,0.6933527786117368,0.0,0.0,0.0,0.0,0.0,0.0,0.0,0.0,0.0,-0.0008067368786579612,0.004589253834620137,0.1255293055235187,0.0,0.0,0.0,0.0,0.0,0.0,0.0,0.0,0.0,-0.051825056788712735,-0.03688714622983968,0.008115713475639046,0.0,0.0,0.0,0.0,0.0,0.0,0.0,0.0,0.0
5.428,152,5,428000000,base_footprint,-0.0027938415812176483,0.002666250921981595,0.7216775785448041,0.6922185768822939,0.0,0.0,0.0,0.0,0.0,0.0,0.0,0.0,0.0,0.0006261268751105353,-0.00037950046901320936,0.06226161235105033,0.0,0.0,0.0,0.0,0.0,0.0,0.0,0.0,0.0,-0.16828911890536047,-0.037142643988302415,-0.009035802559880896,0.0,0.0,0.0,0.0,0.0,0.0,0.0,0.0,0.0
5.462,153,5,462000000,base_footprint,-0.0028027280540156314,0.0026614167634499567,0.7225629686064247,0.6912943063377115,0.0,0.0,0.0,0.0,0.0,0.0,0.0,0.0,0.0,0.00044516306483933984,0.001441667825854679,0.09993754183244967,0.0,0.0,0.0,0.0,0.0,0.0,0.0,0.0,0.0,-0.027325993147634967,-0.011309837194805609,0.003398704488728817,0.0,0.0,0.0,0.0,0.0,0.0,0.0,0.0,0.0
5.496,154,5,496000000,base_footprint,-0.0028098336451177915,0.0026639033794616015,0.724121239523544,0.6896618293950725,0.0,0.0,0.0,0.0,0.0,0.0,0.0,0.0,0.0,-3.300365172219334e-05,0.004925446037423054,0.12863056661786193,0.0,0.0,0.0,0.0,0.0,0.0,0.0,0.0,0.0,0.07082157679686586,-0.03282780572836239,0.004455362619415497,0.0,0.0,0.0,0.0,0.0,0.0,0.0,0.0,0.0
5.53,155,5,530000000,base_footprint,-0.0028075124152073345,0.0026471634666699914,0.7252408855848046,0.6884843994425638,0.0,0.0,0.0,0.0,0.0,0.0,0.0,0.0,0.0,-0.0007076742132662432,-0.0015261745018743248,0.11724066149637788,0.0,0.0,0.0,0.0,0.0,0.0,0.0,0.0,0.0,0.27570118597326737,0.01820762868851264,-0.009653138209044235,0.0,0.0,0.0,0.0,0.0,0.0,0.0,0.0,0.0
5.564,156,5,564000000,base_footprint,-0.002820251416974375,0.002650424684099024,0.7265808431951004,0.6870700835670521,0.0,0.0,0.0,0.0,0.0,0.0,0.0,0.0,0.0,-0.00010051869793623779,0.0013864572783030163,0.11279453312637744,0.0,0.0,0.0,0.0,0.0,0.0,0.0,0.0,0.0,-0.05905604072904891,-0.03300306098789052,0.004887096285325273,0.0,0.0,0.0,0.0,0.0,0.0,0.0,0.0,0.0
5.598,157,5,598000000,base_footprint,-0.0028099486879610727,0.002635134500677906,0.7279501744812827,0.6856192119006034,0.0,0.0,0.0,0.0,0.0,0.0,0.0,0.0,0.0,-0.00010742867297180053,0.0005996479527276696,0.14171298994284792,0.0,0.0,0.0,0.0,0.0,0.0,0.0,0.0,0.0,-0.16042938604935003,-0.03974788953582984,0.00026029591935513706,0.0,0.0,0.0,0.0,0.0,0.0,0.0,0.0,0.0
5.632,158,5,632000000,base_footprint,-0.002824818330035168,0.0026358872347739606,0.7291779300786452,0.6843132460986785,0.0,0.0,0.0,0.0,0.0,0.0,0.0,0.0,0.0,-0.00022855741464178187,0.0010548666650052937,0.08886057469972646,0.0,0.0,0.0,0.0,0.0,0.0,0.0,0.0,0.0,-0.1874206056157681,-0.050653635261626154,0.00019524085191683076,0.0,0.0,0.0,0.0,0.0,0.0,0.0,0.0,0.0
5.666,159,5,666000000,base_footprint,-0.002826201705730365,0.002631362005158749,0.7302076492224302,0.6832143715811083,0.0,0.0,0.0,0.0,0.0,0.0,0.0,0.0,0.0,-0.0002124556315749508,0.0009256011043371598,0.08845982995429111,0.0,0.0,0.0,0.0,0.0,0.0,0.0,0.0,0.0,-0.003515465529685796,-0.01943169424984397,3.8101195088788806e-05,0.0,0.0,0.0,0.0,0.0,0.0,0.0,0.0,0.0
5.7,160,5,700000000,base_footprint,-0.0028286551065102093,0.002628405991301791,0.7311466580629528,0.6822093920458799,0.0,0.0,0.0,0.0,0.0,0.0,0.0,0.0,0.0,-0.00023129479235206612,0.0009111356762324822,0.06483874765254086,0.0,0.0,0.0,0.0,0.0,0.0,0.0,0.0,0.0,-0.010008673856427973,-0.02065892075850106,0.0002844527202769847,0.0,0.0,0.0,0.0,0.0,0.0,0.0,0.0,0.0
5.734,161,5,734000000,base_footprint,-0.0028313343988931178,0.002627034732476919,0.7319022748302181,0.6813986662243976,0.0,0.0,0.0,0.0,0.0,0.0,0.0,0.0,0.0,-0.000185151845975589,0.0005583391832118086,0.06509731536074465,0.0,0.0,0.0,0.0,0.0,0.0,0.0,0.0,0.0,-0.0030299241467371552,-0.01364224426618669,-0.00040684269619821375,0.0,0.0,0.0,0.0,0.0,0.0,0.0,0.0,0.0
5.768,162,5,768000000,base_footprint,-0.0028354417336166823,0.002626907982236213,0.7326527595458201,0.6805916496361993,0.0,0.0,0.0,0.0,0.0,0.0,0.0,0.0,0.0,-0.00021896356304351,0.0004528566858862001,0.0645744874650901,0.0,0.0,0.0,0.0,0.0,0.0,0.0,0.0,0.0,-0.0034122903740320173,-0.014708876069663788,-0.000160503343829624,0.0,0.0,0.0,0.0,0.0,0.0,0.0,0.0,0.0
5.802,163,5,802000000,base_footprint,-0.0028397753956738952,0.0026271130044162702,0.7332965605500203,0.6798979248670161,0.0,0.0,0.0,0.0,0.0,0.0,0.0,0.0,0.0,-2.9344316388767354e-05,0.0003656857658140144,0.0412209185170298,0.0,0.0,0.0,0.0,0.0,0.0,0.0,0.0,0.0,-0.009815149166986148,-0.014819710388940673,-1.6163586742094924e-05,0.0,0.0,0.0,0.0,0.0,0.0,0.0,0.0,0.0
5.836,164,5,836000000,base_footprint,-0.002844406817974883,0.00262820539953618,0.733770962525042,0.679385881838374,0.0,0.0,0.0,0.0,0.0,0.0,0.0,0.0,0.0,-0.00010720569573210469,0.000281029427292783,0.04028368488885312,0.0,0.0,0.0,0.0,0.0,0.0,0.0,0.0,0.0,-0.0007411768999480077,-0.0062448839479972845,-3.729925096858281e-05,0.0,0.0,0.0,0.0,0.0,0.0,0.0,0.0,0.0
5.87,165,5,870000000,base_footprint,-0.0028467437088249563,0.0026265212446011893,0.7342219099244003,0.6788985081905644,0.0,0.0,0.0,0.0,0.0,0.0,0.0,0.0,0.0,0.00010459956475517647,0.0005712955150648249,0.03839922727126802,0.0,0.0,0.0,0.0,0.0,0.0,0.0,0.0,0.0,-0.0010826001527463117,-0.008782567654312415,0.0004910606633177669,0.0,0.0,0.0,0.0,0.0,0.0,0.0,0.0,0.0
5.904,166,5,904000000,base_footprint,-0.0028512869590614515,0.0026200428164237133,0.7346233448881349,0.6784641086186399,0.0,0.0,0.0,0.0,0.0,0.0,0.0,0.0,0.0,0.00034794651376926153,0.0001994410762128454,0.024463982561390846,0.0,0.0,0.0,0.0,0.0,0.0,0.0,0.0,0.0,0.008061763748433136,-0.008230001369235794,-0.00041572974900655675,0.0,0.0,0.0,0.0,0.0,0.0,0.0,0.0,0.0
5.938,167,5,938000000,base_footprint,-0.002853048027388771,0.0026217054853323084,0.7348849868534386,0.6781806860083255,0.0,0.0,0.0,0.0,0.0,0.0,0.0,0.0,0.0,7.703106407183066e-05,0.0006481408747881338,0.02801744220379849,0.0,0.0,0.0,0.0,0.0,0.0,0.0,0.0,0.0,0.014483008674060095,-0.002402049810800268,0.0009528319670169064,0.0,0.0,0.0,0.0,0.0,0.0,0.0,0.0,0.0
5.972,168,5,972000000,base_footprint,-0.0028492494916962517,0.0026171894999767777,0.7352280750732898,0.6778087560075337,0.0,0.0,0.0,0.0,0.0,0.0,0.0,0.0,0.0,-0.0003308056519749069,0.000505348958342171,0.03916301946011319,0.0,0.0,0.0,0.0,0.0,0.0,0.0,0.0,0.0,0.038554982393934074,-0.00581446259554505,-0.00018123135351016365,0.0,0.0,0.0,0.0,0.0,0.0,0.0,0.0,0.0
6.006,169,6,6000000,base_footprint,-0.002850172295355328,0.0026144494893639613,0.7357441277644584,0.6772485656181715,0.0,0.0,0.0,0.0,0.0,0.0,0.0,0.0,0.0,-0.000376342367002965,0.00041896104792411783,0.03989780237735801,0.0,0.0,0.0,0.0,0.0,0.0,0.0,0.0,0.0,0.029986769327125015,-0.002348253965163187,0.0002023119240582245,0.0,0.0,0.0,0.0,0.0,0.0,0.0,0.0,0.0
6.04,170,6,40000000,base_footprint,-0.002857084815889934,0.0026117166271825616,0.7360527371225646,0.6769131289737224,0.0,0.0,0.0,0.0,0.0,0.0,0.0,0.0,0.0,-0.0002219701877146381,0.000775811683118432,0.020891522100011967,0.0,0.0,0.0,0.0,0.0,0.0,0.0,0.0,0.0,-0.05321883274778762,-0.016100577891758578,0.0006896757768548862,0.0,0.0,0.0,0.0,0.0,0.0,0.0,0.0,0.0
6.074,171,6,74000000,base_footprint,-0.0028540807134162694,0.0026083322713336392,0.7363079532286358,0.6766355361923438,0.0,0.0,0.0,0.0,0.0,0.0,0.0,0.0,0.0,-2.203276834789717e-05,0.0004592159821382926,0.022372514492620028,0.0,0.0,0.0,0.0,0.0,0.0,0.0,0.0,0.0,0.00021790654411275976,-0.0025268627962642103,-0.0006151094882920066,0.0,0.0,0.0,0.0,0.0,0.0,0.0,0.0,0.0
6.108,172,6,108000000,base_footprint,-0.0028529596096999493,0.002606777537073538,0.7364433931402937,0.676488132957518,0.0,0.0,0.0,0.0,0.0,0.0,0.0,0.0,0.0,-0.00018848130380634412,0.00032549340252048287,0.0036260918957801806,0.0,0.0,0.0,0.0,0.0,0.0,0.0,0.0,0.0,-0.008774834247873255,-0.004889565205542132,0.0002212490178528258,0.0,0.0,0.0,0.0,0.0,0.0,0.0,0.0,0.0
6.142,173,6,142000000,base_footprint,-0.0028500561921203315,0.0026065217314707647,0.7364827946637905,0.6764452501040851,0.0,0.0,0.0,0.0,0.0,0.0,0.0,0.0,0.0,-0.0001867045734647845,0.0002641726469007641,0.003238515809342919,0.0,0.0,0.0,0.0,0.0,0.0,0.0,0.0,0.0,-0.005626463897007265,-0.0009515810383181932,-6.486777136670211e-05,0.0,0.0,0.0,0.0,0.0,0.0,0.0,0.0,0.0
6.176,174,6,176000000,base_footprint,-0.0028487540359909435,0.002607262436964001,0.7365168184027533,0.6764082073666116,0.0,0.0,0.0,0.0,0.0,0.0,0.0,0.0,0.0,-0.00016315008391868085,0.0001681448571941527,0.0027610893715157027,0.0,0.0,0.0,0.0,0.0,0.0,0.0,0.0,0.0,-0.005699308023622398,-0.0015931749964108533,-0.00018327612341965447,0.0,0.0,0.0,0.0,0.0,0.0,0.0,0.0,0.0
6.21,175,6,210000000,base_footprint,-0.0028542084544012154,0.00260818491458652,0.7366794646769064,0.6762310383211473,0.0,0.0,0.0,0.0,0.0,0.0,0.0,0.0,0.0,-0.00024081937546105772,0.0012275017048121062,0.03910855674043578,0.0,0.0,0.0,0.0,0.0,0.0,0.0,0.0,0.0,0.577839205383816,0.09686655428195323,0.0005352677768557365,0.0,0.0,0.0,0.0,0.0,0.0,0.0,0.0,0.0
6.244,176,6,244000000,base_footprint,-0.0028489435120482693,0.002601308537467223,0.7372906321012784,0.6755646827139912,0.0,0.0,0.0,0.0,0.0,0.0,0.0,0.0,0.0,-0.00039242015540018126,-0.0003267051241308879,0.031166292491135762,0.0,0.0,0.0,0.0,0.0,0.0,0.0,0.0,0.0,-0.16443176642797339,-0.04083850766162815,-0.0019469501589374873,0.0,0.0,0.0,0.0,0.0,0.0,0.0,0.0,0.0
6.2780000000000005,177,6,278000000,base_footprint,-0.0028547047450025367,0.0026106508642635253,0.7372779133106543,0.6755785029936722,0.0,0.0,0.0,0.0,0.0,0.0,0.0,0.0,0.0,-0.0001443790857805466,-4.639495183105427e-05,-0.004452442500237078,0.0,0.0,0.0,0.0,0.0,0.0,0.0,0.0,0.0,-0.09076544176399808,-0.014177155109849099,0.0008440674477641861,0.0,0.0,0.0,0.0,0.0,0.0,0.0,0.0,0.0
6.312,178,6,312000000,base_footprint,-0.00285684521128436,0.002613654839432452,0.7370358247302451,0.6758425854502116,0.0,0.0,0.0,0.0,0.0,0.0,0.0,0.0,0.0,6.110451513717039e-05,-0.0004388123057043011,-0.029083746066537318,0.0,0.0,0.0,0.0,0.0,0.0,0.0,0.0,0.0,-0.00805782863119082,0.002518804445939763,-0.0005378224406573914,0.0,0.0,0.0,0.0,0.0,0.0,0.0,0.0,0.0
6.346,179,6,346000000,base_footprint,-0.002856198182959424,0.002616558908971632,0.7366868118989089,0.6762229934907843,0.0,0.0,0.0,0.0,0.0,0.0,0.0,0.0,0.0,-1.2442353744649913e-05,-0.00017572749256061207,-0.03131471557685104,0.0,0.0,0.0,0.0,0.0,0.0,0.0,0.0,0.0,-0.00023410220894380575,0.00819884512471514,0.0003951362672104208,0.0,0.0,0.0,0.0,0.0,0.0,0.0,0.0,0.0
6.38,180,6,380000000,base_footprint,-0.0028581533616913865,0.0026154828793174116,0.7363206635165679,0.676621659930563,0.0,0.0,0.0,0.0,0.0,0.0,0.0,0.0,0.0,0.00019719883748402646,-0.00016628773149987558,-0.03399863888918481,0.0,0.0,0.0,0.0,0.0,0.0,0.0,0.0,0.0,0.008590452237516916,0.00788625789632301,-0.0001174063275484706,0.0,0.0,0.0,0.0,0.0,0.0,0.0,0.0,0.0
6.414,181,6,414000000,base_footprint,-0.002850023164931398,0.0026002162972116514,0.735774702037414,0.6772154044947013,0.0,0.0,0.0,0.0,0.0,0.0,0.0,0.0,0.0,5.0420576876743343e-05,-0.00023815871714157977,-0.054264001373338866,0.0,0.0,0.0,0.0,0.0,0.0,0.0,0.0,0.0,-0.13277123367068516,-0.014440813885079208,0.0004595480992473464,0.0,0.0,0.0,0.0,0.0,0.0,0.0,0.0,0.0
6.448,182,6,448000000,base_footprint,-0.0028470152821385175,0.0026162596308968895,0.7354643938325107,0.6775523412210342,0.0,0.0,0.0,0.0,0.0,0.0,0.0,0.0,0.0,-0.0009503382962801218,9.567769951082959e-05,0.0014641938300575768,0.0,0.0,0.0,0.0,0.0,0.0,0.0,0.0,0.0,-0.11257302952909541,-0.015136556406929985,0.0007852498842828957,0.0,0.0,0.0,0.0,0.0,0.0,0.0,0.0,0.0
6.482,183,6,482000000,base_footprint,-0.002846354668487891,0.00261584091103721,0.735570710292964,0.6774369238538257,0.0,0.0,0.0,0.0,0.0,0.0,0.0,0.0,0.0,-0.000648232581265698,0.0007204893415520092,0.010795812164145064,0.0,0.0,0.0,0.0,0.0,0.0,0.0,0.0,0.0,0.033806572580740366,0.004569704010123953,0.0007372422488970067,0.0,0.0,0.0,0.0,0.0,0.0,0.0,0.0,0.0
6.516,184,6,516000000,base_footprint,-0.0028464546297188847,0.002614560693368802,0.7354881817239929,0.6775265281247344,0.0,0.0,0.0,0.0,0.0,0.0,0.0,0.0,0.0,0.0008248008729520285,-0.0007085825111080345,-0.026400010711880785,0.0,0.0,0.0,0.0,0.0,0.0,0.0,0.0,0.0,-0.07795942089718916,-0.009514262193329633,-0.0035815838736851795,0.0,0.0,0.0,0.0,0.0,0.0,0.0,0.0,0.0
6.55,185,6,550000000,base_footprint,-0.0028500944618491415,0.002614373038364291,0.7350858114949035,0.6779630460091864,0.0,0.0,0.0,0.0,0.0,0.0,0.0,0.0,0.0,0.0001012379610458635,2.0069814391351746e-05,-0.03510097509815238,0.0,0.0,0.0,0.0,0.0,0.0,0.0,0.0,0.0,-0.029569116322718036,0.0033830961481503725,0.002248893003548777,0.0,0.0,0.0,0.0,0.0,0.0,0.0,0.0,0.0
6.584,186,6,584000000,base_footprint,-0.002847210445931621,0.002614451420294796,0.734677469145383,0.6784055382782355,0.0,0.0,0.0,0.0,0.0,0.0,0.0,0.0,0.0,-4.112786180215029e-05,1.6636450283149683e-06,-0.035758213900051655,0.0,0.0,0.0,0.0,0.0,0.0,0.0,0.0,0.0,-0.007429685836016912,0.005874939210429535,4.836270939566117e-05,0.0,0.0,0.0,0.0,0.0,0.0,0.0,0.0,0.0
6.618,187,6,618000000,base_footprint,-0.002842157561186958,0.0026157758311925604,0.7342475013692225,0.6788708909581056,0.0,0.0,0.0,0.0,0.0,0.0,0.0,0.0,0.0,-0.00016313580908141584,-1.8589773547631743e-05,-0.037672830691819356,0.0,0.0,0.0,0.0,0.0,0.0,0.0,0.0,0.0,-0.006956390279022848,0.007169564861070349,4.958468104577424e-05,0.0,0.0,0.0,0.0,0.0,0.0,0.0,0.0,0.0
6.647,188,6,652000000,base_footprint,-0.002838702402780922,0.002618153166087719,0.733809301583451,0.6793445340563764,0.0,0.0,0.0,0.0,0.0,0.0,0.0,0.0,0.0,-0.00013309383956268002,-0.00011845480048708722,-0.038165271706731174,0.0,0.0,0.0,0.0,0.0,0.0,0.0,0.0,0.0,-0.00709822023720275,0.007376781983382323,-0.00025857880633979916,0.0,0.0,0.0,0.0,0.0,0.0,0.0,0.0,0.0
6.684,189,6,686000000,base_footprint,-0.002836714558040519,0.002621540910998563,0.7333648898980607,0.6798242558474754,0.0,0.0,0.0,0.0,0.0,0.0,0.0,0.0,0.0,-0.00011821955833550083,-0.00021603563450417444,-0.03869516123256328,0.0,0.0,0.0,0.0,0.0,0.0,0.0,0.0,0.0,-0.007082606756389035,0.007578239350355257,-0.00026021974780596506,0.0,0.0,0.0,0.0,0.0,0.0,0.0,0.0,0.0
6.72,190,6,720000000,base_footprint,-0.0028358882679918236,0.002626411390804014,0.7328542236083837,0.6803747104649693,0.0,0.0,0.0,0.0,0.0,0.0,0.0,0.0,0.0,-0.00010912798679016213,-0.0003791391535631145,-0.044923430304705914,0.0,0.0,0.0,0.0,0.0,0.0,0.0,0.0,0.0,-0.008454341563604178,0.008691216197294741,-0.0003114742996337711,0.0,0.0,0.0,0.0,0.0,0.0,0.0,0.0,0.0
6.754,191,6,754000000,base_footprint,-0.0028360817371666266,0.0026312412600379156,0.7323290405153363,0.6809399456836841,0.0,0.0,0.0,0.0,0.0,0.0,0.0,0.0,0.0,-9.323187509985617e-05,-0.00040205367232352333,-0.04593321082167752,0.0,0.0,0.0,0.0,0.0,0.0,0.0,0.0,0.0,-0.006098595292019745,0.00970230996750476,-0.00024205284862982346,0.0,0.0,0.0,0.0,0.0,0.0,0.0,0.0,0.0
6.788,192,6,788000000,base_footprint,-0.002837189290739065,0.002635940690381766,0.7317869675031443,0.6815224401046215,0.0,0.0,0.0,0.0,0.0,0.0,0.0,0.0,0.0,-7.893955894735627e-06,-0.00042936772430998617,-0.04771247546596129,0.0,0.0,0.0,0.0,0.0,0.0,0.0,0.0,0.0,-0.0029720767516533864,0.010370994964078607,-0.0002910589631821383,0.0,0.0,0.0,0.0,0.0,0.0,0.0,0.0,0.0
6.822,193,6,822000000,base_footprint,-0.0028357690434383186,0.002639832442555646,0.731147061313328,0.6822088862155729,0.0,0.0,0.0,0.0,0.0,0.0,0.0,0.0,0.0,-5.556033869205521e-06,-0.0004140134112562548,-0.055915759474673754,0.0,0.0,0.0,0.0,0.0,0.0,0.0,0.0,0.0,-0.0029561301379297704,0.013289467246508275,5.1184041136478504e-05,0.0,0.0,0.0,0.0,0.0,0.0,0.0,0.0,0.0
6.856,194,6,856000000,base_footprint,-0.002836154110439379,0.0026407512690167063,0.7304965820202587,0.6829053567803641,0.0,0.0,0.0,0.0,0.0,0.0,0.0,0.0,0.0,0.000308428146663376,-0.0003989730404199412,-0.05706041322973922,0.0,0.0,0.0,0.0,0.0,0.0,0.0,0.0,0.0,0.008337461985648352,0.011622399695821833,-0.00020129886960663825,0.0,0.0,0.0,0.0,0.0,0.0,0.0,0.0,0.0
6.89,195,6,890000000,base_footprint,-0.0028299507434130997,0.002648458071093255,0.7297930734927678,0.6836571121041712,0.0,0.0,0.0,0.0,0.0,0.0,0.0,0.0,0.0,-0.00743309384500101,-0.0019662508025318107,-0.061098055348136324,0.0,0.0,0.0,0.0,0.0,0.0,0.0,0.0,0.0,0.03288250753822079,0.01221863504370167,0.005961275176464964,0.0,0.0,0.0,0.0,0.0,0.0,0.0,0.0,0.0
6.924,196,6,924000000,base_footprint,-0.0028373166584894863,0.0026537518549967585,0.7289073387326294,0.684601342955875,0.0,0.0,0.0,0.0,0.0,0.0,0.0,0.0,0.0,-0.00013324278505838895,-0.004246684459984329,-0.08270899938145708,0.0,0.0,0.0,0.0,0.0,0.0,0.0,0.0,0.0,0.1648768122506936,0.04620228915865259,-0.00923349041064587,0.0,0.0,0.0,0.0,0.0,0.0,0.0,0.0,0.0
6.958,197,6,958000000,base_footprint,-0.00282030225734578,0.002648276922906497,0.7280182709422579,0.6855468107275842,0.0,0.0,0.0,0.0,0.0,0.0,0.0,0.0,0.0,-0.000392378953420691,0.00019817430161589905,-0.042398430601905346,0.0,0.0,0.0,0.0,0.0,0.0,0.0,0.0,0.0,0.16935543270866155,0.03054891276799844,0.0036759654049158177,0.0,0.0,0.0,0.0,0.0,0.0,0.0,0.0,0.0
6.992,198,6,992000000,base_footprint,-0.002825367100190849,0.0026477142542075975,0.7275379084853217,0.6860565564345121,0.0,0.0,0.0,0.0,0.0,0.0,0.0,0.0,0.0,-0.0007198098024813423,-0.0004253704762797011,-0.030249773605443425,0.0,0.0,0.0,0.0,0.0,0.0,0.0,0.0,0.0,-0.007766897877349304,0.007646536976024149,-0.0008653935263655264,0.0,0.0,0.0,0.0,0.0,0.0,0.0,0.0,0.0
7.026,199,7,26000000,base_footprint,-0.00282073067028901,0.002646443536781039,0.7272237933357348,0.6863895353379719,0.0,0.0,0.0,0.0,0.0,0.0,0.0,0.0,0.0,0.00010198083463442646,6.135954672511643e-05,-0.027303058792841374,0.0,0.0,0.0,0.0,0.0,0.0,0.0,0.0,0.0,0.001284313177118638,0.009151939452738452,0.0005359790877306732,0.0,0.0,0.0,0.0,0.0,0.0,0.0,0.0,0.0
7.06,200,7,60000000,base_footprint,-0.002817572681072208,0.00264596707876153,0.72690143240468,0.686730928173786,0.0,0.0,0.0,0.0,0.0,0.0,0.0,0.0,0.0,-0.00016378741834679696,0.00016104781316770314,-0.027752553431605143,0.0,0.0,0.0,0.0,0.0,0.0,0.0,0.0,0.0,-0.006258382819784041,0.0049355377879432595,0.00037791271463936846,0.0,0.0,0.0,0.0,0.0,0.0,0.0,0.0,0.0
7.094,201,7,94000000,base_footprint,-0.0028034096565378187,0.0026407518452175125,0.7265882138221451,0.6870623951714535,0.0,0.0,0.0,0.0,0.0,0.0,0.0,0.0,0.0,-0.0008184952468531584,0.000980688333654492,-0.016613170235268045,0.0,0.0,0.0,0.0,0.0,0.0,0.0,0.0,0.0,-0.13055963919508226,-0.005068018294277013,0.0016066646150280821,0.0,0.0,0.0,0.0,0.0,0.0,0.0,0.0,0.0
7.128,202,7,128000000,base_footprint,-0.002812746312941568,0.002645133874665011,0.7270024414946149,0.6866240177752546,0.0,0.0,0.0,0.0,0.0,0.0,0.0,0.0,0.0,-0.0001618678982092346,0.0005521809799003222,0.04848822805076512,0.0,0.0,0.0,0.0,0.0,0.0,0.0,0.0,0.0,-0.1987888346804519,-0.033513097514793755,-0.0018069433845032757,0.0,0.0,0.0,0.0,0.0,0.0,0.0,0.0,0.0
7.162,203,7,162000000,base_footprint,-0.00281449295750246,0.002644145848217623,0.7275656384180196,0.6860272071248378,0.0,0.0,0.0,0.0,0.0,0.0,0.0,0.0,0.0,-0.00015862759646586194,0.00046830656442854794,0.0481051715249286,0.0,0.0,0.0,0.0,0.0,0.0,0.0,0.0,0.0,-0.004482799491758327,-0.01121386805413903,-0.00010530388875411878,0.0,0.0,0.0,0.0,0.0,0.0,0.0,0.0,0.0
7.196,204,7,196000000,base_footprint,-0.0028174241359736666,0.0026448378034335113,0.7281090797308446,0.6854503884073115,0.0,0.0,0.0,0.0,0.0,0.0,0.0,0.0,0.0,-9.1154953276553e-06,0.0002262573253714466,0.04125011830993855,0.0,0.0,0.0,0.0,0.0,0.0,0.0,0.0,0.0,-0.005930708989178135,-0.010881016997158977,-0.00022663342724101116,0.0,0.0,0.0,0.0,0.0,0.0,0.0,0.0,0.0
7.23,205,7,230000000,base_footprint,-0.0028214248475550443,0.0026454928526181034,0.7285881343079936,0.6849411445335968,0.0,0.0,0.0,0.0,0.0,0.0,0.0,0.0,0.0,-0.00017307802506523213,0.00024878645980028023,0.04081486310095984,0.0,0.0,0.0,0.0,0.0,0.0,0.0,0.0,0.0,-0.004070696921987725,-0.0090690761837658,-7.215755906319105e-05,0.0,0.0,0.0,0.0,0.0,0.0,0.0,0.0,0.0
7.264,206,7,264000000,base_footprint,-0.0028262080458638043,0.002646634193540872,0.7290606368179365,0.6844381606238449,0.0,0.0,0.0,0.0,0.0,0.0,0.0,0.0,0.0,-9.391843982412771e-05,0.00017049647945999708,0.04021810173520373,0.0,0.0,0.0,0.0,0.0,0.0,0.0,0.0,0.0,-0.0034322687495386963,-0.008360270077509543,-0.00023853807979398354,0.0,0.0,0.0,0.0,0.0,0.0,0.0,0.0,0.0
7.298,207,7,298000000,base_footprint,-0.0028285270546855486,0.002647064159471811,0.7294977356965128,0.6839722553581378,0.0,0.0,0.0,0.0,0.0,0.0,0.0,0.0,0.0,-0.0002740470497595475,9.217322854497833e-06,0.030157188433277075,0.0,0.0,0.0,0.0,0.0,0.0,0.0,0.0,0.0,-0.0043019092728060855,-0.006416705200158518,8.529544657291389e-05,0.0,0.0,0.0,0.0,0.0,0.0,0.0,0.0,0.0
7.332,208,7,332000000,base_footprint,-0.0028320730961638755,0.0026425491692435056,0.7298438317459184,0.6836029385237471,0.0,0.0,0.0,0.0,0.0,0.0,0.0,0.0,0.0,0.00036207232002792713,0.0002784121858368812,0.029820084270179632,0.0,0.0,0.0,0.0,0.0,0.0,0.0,0.0,0.0,0.011033205951254725,-0.011304809410385395,0.00018909238659610547,0.0,0.0,0.0,0.0,0.0,0.0,0.0,0.0,0.0
7.366,209,7,366000000,base_footprint,-0.002834642265641906,0.002640652109400277,0.7301342830260301,0.683292704856219,0.0,0.0,0.0,0.0,0.0,0.0,0.0,0.0,0.0,-0.0003442376899634015,-7.897184880689001e-06,0.025500973140347924,0.0,0.0,0.0,0.0,0.0,0.0,0.0,0.0,0.0,0.023129032860455208,0.0013949560674380544,-0.0001524817960075415,0.0,0.0,0.0,0.0,0.0,0.0,0.0,0.0,0.0
7.4,210,7,400000000,base_footprint,-0.002831374557114894,0.0026357522277097264,0.730471992341689,0.6829316982924976,0.0,0.0,0.0,0.0,0.0,0.0,0.0,0.0,0.0,-0.000517377662499618,0.0008663825716355967,0.02839374988535922,0.0,0.0,0.0,0.0,0.0,0.0,0.0,0.0,0.0,0.03134660670592401,-0.013838463490474623,0.001728220875671,0.0,0.0,0.0,0.0,0.0,0.0,0.0,0.0,0.0
7.434,211,7,434000000,base_footprint,-0.002832517097674892,0.0026350646528026053,0.7309544129553096,0.6824153276871248,0.0,0.0,0.0,0.0,0.0,0.0,0.0,0.0,0.0,-4.348393187792409e-05,0.0007602935245829733,0.04284247962237827,0.0,0.0,0.0,0.0,0.0,0.0,0.0,0.0,0.0,0.031267411919907014,0.0036146791173346515,-0.0009192200181096729,0.0,0.0,0.0,0.0,0.0,0.0,0.0,0.0,0.0
7.468,212,7,468000000,base_footprint,-0.002840021781936921,0.0026328263430876837,0.731313501991219,0.6820304716851473,0.0,0.0,0.0,0.0,0.0,0.0,0.0,0.0,0.0,-7.08181654334873e-05,0.0006303419729136099,0.021929108084141925,0.0,0.0,0.0,0.0,0.0,0.0,0.0,0.0,0.0,-0.058634992590387444,-0.01774264543132465,0.0007500086748290182,0.0,0.0,0.0,0.0,0.0,0.0,0.0,0.0,0.0
7.502,213,7,502000000,base_footprint,-0.002836415770584902,0.0026287066043741824,0.7315956915906495,0.681727796626457,0.0,0.0,0.0,0.0,0.0,0.0,0.0,0.0,0.0,-1.9863385850682496e-05,0.0004903396962275184,0.024104298097881602,0.0,0.0,0.0,0.0,0.0,0.0,0.0,0.0,0.0,0.0038720502260377013,-0.001664423650224579,-0.00031831514200177026,0.0,0.0,0.0,0.0,0.0,0.0,0.0,0.0,0.0
7.536,214,7,536000000,base_footprint,-0.0028355565294657667,0.0026261473770030786,0.7318766961472214,0.6814261255673651,0.0,0.0,0.0,0.0,0.0,0.0,0.0,0.0,0.0,2.412016976432283e-05,0.00041599122551256326,0.024369168128680098,0.0,0.0,0.0,0.0,0.0,0.0,0.0,0.0,0.0,-0.003473588300777669,-0.00573190356232499,-0.0001337565418911845,0.0,0.0,0.0,0.0,0.0,0.0,0.0,0.0,0.0
7.57,215,7,570000000,base_footprint,-0.002833749800367298,0.0026244273737387395,0.7321573464561234,0.6811245864548988,0.0,0.0,0.0,0.0,0.0,0.0,0.0,0.0,0.0,-0.0001907384683696296,0.00045214938259945233,0.024066537115132233,0.0,0.0,0.0,0.0,0.0,0.0,0.0,0.0,0.0,-0.004692681864520841,-0.005870681667516658,0.0003397988923032503,0.0,0.0,0.0,0.0,0.0,0.0,0.0,0.0,0.0
7.604,216,7,604000000,base_footprint,-0.0028392577791713828,0.002627012840171623,0.7324510740856123,0.6808086820022451,0.0,0.0,0.0,0.0,0.0,0.0,0.0,0.0,0.0,7.854152579430556e-05,-0.0012319671335005561,0.031344137185123494,0.0,0.0,0.0,0.0,0.0,0.0,0.0,0.0,0.0,0.44417318030401487,0.06032498549391713,-0.0023295957344906166,0.0,0.0,0.0,0.0,0.0,0.0,0.0,0.0,0.0
7.638,217,7,638000000,base_footprint,-0.0028307331428868237,0.0026201368035640923,0.732596745960374,0.6806519886412405,0.0,0.0,0.0,0.0,0.0,0.0,0.0,0.0,0.0,0.0009385419451738132,-0.00044238080804251964,0.017570838887930908,0.0,0.0,0.0,0.0,0.0,0.0,0.0,0.0,0.0,-0.10936562439973366,-0.021150633767493425,0.0014214827887447186,0.0,0.0,0.0,0.0,0.0,0.0,0.0,0.0,0.0
7.672,218,7,672000000,base_footprint,-0.002835044711672235,0.0026259157689719074,0.7327922026064196,0.6804415146705035,0.0,0.0,0.0,0.0,0.0,0.0,0.0,0.0,0.0,-0.00015846705519760874,0.00016654142873499345,0.017843475868198653,0.0,0.0,0.0,0.0,0.0,0.0,0.0,0.0,0.0,-0.013748957290955625,-0.003722654396779942,0.00029015531019915407,0.0,0.0,0.0,0.0,0.0,0.0,0.0,0.0,0.0
7.706,219,7,706000000,base_footprint,-0.0028350934957513145,0.002622724166592815,0.7330581456457457,0.6801550107624269,0.0,0.0,0.0,0.0,0.0,0.0,0.0,0.0,0.0,0.00013574363416868834,0.0003069902751013736,0.05683523632500152,0.0,0.0,0.0,0.0,0.0,0.0,0.0,0.0,0.0,-0.24197595660087828,-0.04281469403325276,-0.00021806156886686412,0.0,0.0,0.0,0.0,0.0,0.0,0.0,0.0,0.0
7.74,220,7,740000000,base_footprint,-0.0028447316469032797,0.0026263328729643157,0.7340912273389264,0.6790398219703512,0.0,0.0,0.0,0.0,0.0,0.0,0.0,0.0,0.0,-5.05593146766711e-05,0.0005820493773591718,0.09216245751110044,0.0,0.0,0.0,0.0,0.0,0.0,0.0,0.0,0.0,-0.07847030688833509,-0.02892427098570987,4.629077891246932e-06,0.0,0.0,0.0,0.0,0.0,0.0,0.0,0.0,0.0
7.774,221,7,774000000,base_footprint,-0.0028502394690004076,0.0026229115017560667,0.7351480796368133,0.6778954915593767,0.0,0.0,0.0,0.0,0.0,0.0,0.0,0.0,0.0,-3.990296717377821e-05,0.0008160902562839968,0.09198138947574638,0.0,0.0,0.0,0.0,0.0,0.0,0.0,0.0,0.0,-0.0017479026241732452,-0.018727003471944777,0.0005103579628868509,0.0,0.0,0.0,0.0,0.0,0.0,0.0,0.0,0.0
7.808,222,7,808000000,base_footprint,-0.002857314907332581,0.0026151595954518854,0.7361943403593697,0.6767591077441392,0.0,0.0,0.0,0.0,0.0,0.0,0.0,0.0,0.0,0.0005284676944110399,0.0008891880485199874,0.08734458276101835,0.0,0.0,0.0,0.0,0.0,0.0,0.0,0.0,0.0,0.0016766007828309965,-0.02225910156814855,7.784547206910665e-05,0.0,0.0,0.0,0.0,0.0,0.0,0.0,0.0,0.0
7.8420000000000005,223,7,842000000,base_footprint,-0.0028633943388808973,0.002611511873167222,0.7370903180193964,0.6757831338977479,0.0,0.0,0.0,0.0,0.0,0.0,0.0,0.0,0.0,-0.0004070867629765836,-1.4991594294588699e-05,0.07966392281951416,0.0,0.0,0.0,0.0,0.0,0.0,0.0,0.0,0.0,0.026360903594424882,-0.008975352001566458,-0.0008781178099978344,0.0,0.0,0.0,0.0,0.0,0.0,0.0,0.0,0.0
7.876,224,7,876000000,base_footprint,-0.002865101224141418,0.002604025127362064,0.7380421461089846,0.6747435074270488,0.0,0.0,0.0,0.0,0.0,0.0,0.0,0.0,0.0,-0.0004789698183467551,0.0011855344239277863,0.08581285706579639,0.0,0.0,0.0,0.0,0.0,0.0,0.0,0.0,0.0,0.015680455106276945,-0.02455485910947493,0.0023322859814814065,0.0,0.0,0.0,0.0,0.0,0.0,0.0,0.0,0.0
7.91,225,7,910000000,base_footprint,-0.0028629938790289008,0.0026009224142067747,0.7387208070417656,0.6740004508249282,0.0,0.0,0.0,0.0,0.0,0.0,0.0,0.0,0.0,-3.2102543012048465e-05,0.0007379873216942581,-0.0015750262759392335,0.0,0.0,0.0,0.0,0.0,0.0,0.0,0.0,0.0,0.25022239639529154,0.03602072839583173,-0.00013279383376412531,0.0,0.0,0.0,0.0,0.0,0.0,0.0,0.0,0.0
7.944,226,7,944000000,base_footprint,-0.0028639523731624995,0.0026012019144999138,0.7385355971188338,0.6742033842348555,0.0,0.0,0.0,0.0,0.0,0.0,0.0,0.0,0.0,-2.5839113469813753e-05,-0.0001164051751892681,0.01991075248336232,0.0,0.0,0.0,0.0,0.0,0.0,0.0,0.0,0.0,0.2838249933078145,0.05580279773949215,-0.0012463103985577877,0.0,0.0,0.0,0.0,0.0,0.0,0.0,0.0,0.0
7.978,227,7,978000000,base_footprint,-0.0028687540382933423,0.0025960961974974685,0.7392561026438744,0.6734132796719935,0.0,0.0,0.0,0.0,0.0,0.0,0.0,0.0,0.0,0.0004593810074885155,0.0003638723709651128,0.0716636457248226,0.0,0.0,0.0,0.0,0.0,0.0,0.0,0.0,0.0,0.13508264637430784,0.015579946168641175,-0.0004049889498758238,0.0,0.0,0.0,0.0,0.0,0.0,0.0,0.0,0.0
8.012,228,8,12000000,base_footprint,-0.002855620205289976,0.002590278135909645,0.7397522697172639,0.6728682748804392,0.0,0.0,0.0,0.0,0.0,0.0,0.0,0.0,0.0,-4.534920875978106e-05,3.3923716733855744e-05,-0.0030409098604746517,0.0,0.0,0.0,0.0,0.0,0.0,0.0,0.0,0.0,-0.16215832143208278,-0.04288970395437376,0.0009338123908910424,0.0,0.0,0.0,0.0,0.0,0.0,0.0,0.0,0.0
8.046,229,8,46000000,base_footprint,-0.00285522388478857,0.0025906254904536755,0.7396747039291726,0.6729535412815858,0.0,0.0,0.0,0.0,0.0,0.0,0.0,0.0,0.0,-0.0005454759351801566,0.0002288007748354262,-0.003412648692023532,0.0,0.0,0.0,0.0,0.0,0.0,0.0,0.0,0.0,-0.49387695930480247,-0.09274252986790438,0.0013666599591587658,0.0,0.0,0.0,0.0,0.0,0.0,0.0,0.0,0.0
8.08,230,8,80000000,base_footprint,-0.0028617536537737524,0.002593589712134658,0.7394750530572168,0.6731728823745478,0.0,0.0,0.0,0.0,0.0,0.0,0.0,0.0,0.0,-0.00016660287061293254,4.632751852175206e-05,-0.018247632597125002,0.0,0.0,0.0,0.0,0.0,0.0,0.0,0.0,0.0,-0.045596415660630316,-0.004333005521709107,-0.0007447857263649961,0.0,0.0,0.0,0.0,0.0,0.0,0.0,0.0,0.0
8.114,231,8,114000000,base_footprint,-0.0028606079263045385,0.0025948957748875706,0.7392075533929178,0.6734666112325586,0.0,0.0,0.0,0.0,0.0,0.0,0.0,0.0,0.0,0.0001174146603112887,-0.0007983513972206032,-0.07122408384336774,0.0,0.0,0.0,0.0,0.0,0.0,0.0,0.0,0.0,0.5615236993031796,0.1124637801905001,-0.0009170527218676744,0.0,0.0,0.0,0.0,0.0,0.0,0.0,0.0,0.0
8.148,232,8,148000000,base_footprint,-0.0028568212053858614,0.0025997667408711985,0.738482414118731,0.674261673108345,0.0,0.0,0.0,0.0,0.0,0.0,0.0,0.0,0.0,-0.0004910445367822922,-0.0011673070365476753,-0.02242816410505749,0.0,0.0,0.0,0.0,0.0,0.0,0.0,0.0,0.0,-0.2449818480452296,-0.03370091201912591,-0.0010844626657775713,0.0,0.0,0.0,0.0,0.0,0.0,0.0,0.0,0.0
8.181,233,8,182000000,base_footprint,-0.002857184869847238,0.0026048058193777995,0.7382167980988623,0.6745524519901522,0.0,0.0,0.0,0.0,0.0,0.0,0.0,0.0,0.0,-0.00015975597372480584,-0.00018023517720797258,-0.023537051610017425,0.0,0.0,0.0,0.0,0.0,0.0,0.0,0.0,0.0,-0.002868978946012714,0.004729681341447275,0.001066666692117189,0.0,0.0,0.0,0.0,0.0,0.0,0.0,0.0,0.0
8.216,234,8,216000000,base_footprint,-0.002856282184232103,0.002611058785312308,0.7373463814266151,0.6755037659563272,0.0,0.0,0.0,0.0,0.0,0.0,0.0,0.0,0.0,-0.00011659079050685428,-0.000784363173439009,-0.09341047545648792,0.0,0.0,0.0,0.0,0.0,0.0,0.0,0.0,0.0,-0.03016947172571625,0.010301517065953369,-0.0003227936889918329,0.0,0.0,0.0,0.0,0.0,0.0,0.0,0.0,0.0
8.25,235,8,250000000,base_footprint,-0.002854192961434356,0.002611165798788031,0.7363523947535511,0.6765871607830144,0.0,0.0,0.0,0.0,0.0,0.0,0.0,0.0,0.0,0.00023625202718875835,-0.0005275669838081583,-0.055985646122531145,0.0,0.0,0.0,0.0,0.0,0.0,0.0,0.0,0.0,-0.22910828410727763,-0.019122769320778443,1.3369019592575446e-05,0.0,0.0,0.0,0.0,0.0,0.0,0.0,0.0,0.0
8.284,236,8,284000000,base_footprint,-0.002853637359368169,0.0026104254259516923,0.7360001415667471,0.6769703346873074,0.0,0.0,0.0,0.0,0.0,0.0,0.0,0.0,0.0,-0.0002197922148830454,-0.0007549768591724793,-0.01580275036997724,0.0,0.0,0.0,0.0,0.0,0.0,0.0,0.0,0.0,-0.087480677914697,-0.007527440237826796,-0.0008306780264353361,0.0,0.0,0.0,0.0,0.0,0.0,0.0,0.0,0.0
8.318,237,8,318000000,base_footprint,-0.0028574888592259083,0.002611779160243575,0.736453282777724,0.6764773282623381,0.0,0.0,0.0,0.0,0.0,0.0,0.0,0.0,0.0,0.0025871465994817626,-0.0010124936883230073,0.09051685885872052,0.0,0.0,0.0,0.0,0.0,0.0,0.0,0.0,0.0,0.24886835009794867,0.04107514882076521,-0.003885671654699582,0.0,0.0,0.0,0.0,0.0,0.0,0.0,0.0,0.0
8.352,238,8,352000000,base_footprint,-0.002859709594858836,0.0026085560174497224,0.7369010273069211,0.6759895660811204,0.0,0.0,0.0,0.0,0.0,0.0,0.0,0.0,0.0,0.0008000193739136903,-0.0006793784693581237,-0.01500807721214523,0.0,0.0,0.0,0.0,0.0,0.0,0.0,0.0,0.0,0.05424415836880983,-0.008100930864772635,0.0032123760972094205,0.0,0.0,0.0,0.0,0.0,0.0,0.0,0.0,0.0
8.386,239,8,386000000,base_footprint,-0.0028612177593958514,0.0026132764381705236,0.7366321378773152,0.6762825427774157,0.0,0.0,0.0,0.0,0.0,0.0,0.0,0.0,0.0,-0.00010892760762272317,0.00037860467608650974,-0.012513991477780245,0.0,0.0,0.0,0.0,0.0,0.0,0.0,0.0,0.0,0.0911326057922013,0.016856774989205466,0.0021840755218510534,0.0,0.0,0.0,0.0,0.0,0.0,0.0,0.0,0.0
8.42,240,8,420000000,base_footprint,-0.0028539724635803163,0.0026146777866823817,0.7358296855256794,0.6771555893592173,0.0,0.0,0.0,0.0,0.0,0.0,0.0,0.0,0.0,0.00011134644641349174,-0.0010922276604622158,-0.12883954431817538,0.0,0.0,0.0,0.0,0.0,0.0,0.0,0.0,0.0,0.3677009422903219,0.07689449636465998,-0.0009462937445356027,0.0,0.0,0.0,0.0,0.0,0.0,0.0,0.0,0.0
8.454,241,8,454000000,base_footprint,-0.002855453767107438,0.0026143543410668568,0.735411863122459,0.6776093292701311,0.0,0.0,0.0,0.0,0.0,0.0,0.0,0.0,0.0,0.0004099595098552142,-0.000686554968567278,-0.012018230970852754,0.0,0.0,0.0,0.0,0.0,0.0,0.0,0.0,0.0,-0.058146877753086176,0.0007010047516888343,-0.00097489113120845,0.0,0.0,0.0,0.0,0.0,0.0,0.0,0.0,0.0
8.488,242,8,488000000,base_footprint,-0.0028521535702852774,0.0026129217913799657,0.7353029477877295,0.6777275358389973,0.0,0.0,0.0,0.0,0.0,0.0,0.0,0.0,0.0,1.3967443383205243e-06,0.00026857231771453113,-0.00866442077032561,0.0,0.0,0.0,0.0,0.0,0.0,0.0,0.0,0.0,0.002398537075235043,0.002300548013913338,0.0014622387636412672,0.0,0.0,0.0,0.0,0.0,0.0,0.0,0.0,0.0
8.522,243,8,522000000,base_footprint,-0.0028355216663410944,0.002609344036106689,0.7350176469957571,0.6780370268247905,0.0,0.0,0.0,0.0,0.0,0.0,0.0,0.0,0.0,-0.0002563561321114651,0.0026822531045974864,-0.07131164009904042,0.0,0.0,0.0,0.0,0.0,0.0,0.0,0.0,0.0,-0.3544875848623349,-0.0539257390413605,0.0032847107276341527,0.0,0.0,0.0,0.0,0.0,0.0,0.0,0.0,0.0
8.556000000000001,244,8,556000000,base_footprint,-0.0028442071484642453,0.0026136177108156316,0.734643637559838,0.6784421900803397,0.0,0.0,0.0,0.0,0.0,0.0,0.0,0.0,0.0,-0.00011393137567047059,-4.4783436609315374e-05,-0.01706216656842342,0.0,0.0,0.0,0.0,0.0,0.0,0.0,0.0,0.0,-0.3314474707345709,-0.04446174858338933,-0.003062681036688302,0.0,0.0,0.0,0.0,0.0,0.0,0.0,0.0,0.0
8.59,245,8,590000000,base_footprint,-0.0028467797548393453,0.002617950905425083,0.7344437695715655,0.678658523497343,0.0,0.0,0.0,0.0,0.0,0.0,0.0,0.0,0.0,0.002152505315322671,-0.005725703538317459,-0.016326472022860666,0.0,0.0,0.0,0.0,0.0,0.0,0.0,0.0,0.0,0.05468416696073388,0.010601544839500675,-0.007033356306925691,0.0,0.0,0.0,0.0,0.0,0.0,0.0,0.0,0.0
8.624,246,8,624000000,base_footprint,-0.0028348513664568815,0.0026162933885834484,0.7338977075560168,0.6792490511371055,0.0,0.0,0.0,0.0,0.0,0.0,0.0,0.0,0.0,-0.000493062548507231,0.0028983394685103627,-0.09833771204608562,0.0,0.0,0.0,0.0,0.0,0.0,0.0,0.0,0.0,0.4916587979955478,0.09012728138095441,0.011159961306538482,0.0,0.0,0.0,0.0,0.0,0.0,0.0,0.0,0.0
8.658,247,8,658000000,base_footprint,-0.0028377504201002675,0.002622363240051474,0.7334068554492257,0.6797789749349925,0.0,0.0,0.0,0.0,0.0,0.0,0.0,0.0,0.0,-0.00014375162811821148,-0.00017288074832882307,-0.023526356041171828,0.0,0.0,0.0,0.0,0.0,0.0,0.0,0.0,0.0,-0.2314751451855294,-0.028242951832098365,-0.004842301803275934,0.0,0.0,0.0,0.0,0.0,0.0,0.0,0.0,0.0
8.692,248,8,692000000,base_footprint,-0.002838090115759591,0.0026202575482040975,0.7330904508250078,0.6801201882050427,0.0,0.0,0.0,0.0,0.0,0.0,0.0,0.0,0.0,0.0007457536830389928,0.003213625284413588,-0.070741739850116,0.0,0.0,0.0,0.0,0.0,0.0,0.0,0.0,0.0,-0.028759714796463148,0.0028681864494844948,0.004667882870074507,0.0,0.0,0.0,0.0,0.0,0.0,0.0,0.0,0.0
8.726,249,8,726000000,base_footprint,-0.002835144590693243,0.002631702394336454,0.7320038560731981,0.6812895058575513,0.0,0.0,0.0,0.0,0.0,0.0,0.0,0.0,0.0,0.0005744296170631314,0.0013464791820979028,-0.10190004094442362,0.0,0.0,0.0,0.0,0.0,0.0,0.0,0.0,0.0,-0.09142561105529418,0.006673749187947733,0.0002858024481926511,0.0,0.0,0.0,0.0,0.0,0.0,0.0,0.0,0.0
8.76,250,8,760000000,base_footprint,-0.0028356521680807283,0.002632097631050618,0.7312732842641424,0.6820736139599428,0.0,0.0,0.0,0.0,0.0,0.0,0.0,0.0,0.0,0.0002781047032874571,7.094590724427511e-05,-0.023444837806687827,0.0,0.0,0.0,0.0,0.0,0.0,0.0,0.0,0.0,-0.21313585673143615,-0.015786235219468717,-0.004654970493634782,0.0,0.0,0.0,0.0,0.0,0.0,0.0,0.0,0.0
8.794,251,8,794000000,base_footprint,-0.0028275017077310735,0.0026279662625151873,0.7311279357563425,0.6822294632922895,0.0,0.0,0.0,0.0,0.0,0.0,0.0,0.0,0.0,-0.0028504136950764977,0.01020857944779109,0.004315692291561897,0.0,0.0,0.0,0.0,0.0,0.0,0.0,0.0,0.0,0.02803150277290462,-0.008606598402072575,0.009225760582073389,0.0,0.0,0.0,0.0,0.0,0.0,0.0,0.0,0.0
8.828,252,8,828000000,base_footprint,-0.002844121370119028,0.0026290837766798723,0.7318062628987736,0.6815017186143102,0.0,0.0,0.0,0.0,0.0,0.0,0.0,0.0,0.0,-0.0029749524263630598,0.0029622557510113998,0.06970093425950327,0.0,0.0,0.0,0.0,0.0,0.0,0.0,0.0,0.0,0.19445784329316027,0.029496805624986785,-0.003158186255318663,0.0,0.0,0.0,0.0,0.0,0.0,0.0,0.0,0.0
8.862,253,8,862000000,base_footprint,-0.002841424747165725,0.0026284041120364695,0.732046375965495,0.6812438045465184,0.0,0.0,0.0,0.0,0.0,0.0,0.0,0.0,0.0,0.0002833871481751967,-0.0004302260908847381,-0.022323054110137824,0.0,0.0,0.0,0.0,0.0,0.0,0.0,0.0,0.0,0.08419852923012666,0.007168928700496832,-0.0071790553725689195,0.0,0.0,0.0,0.0,0.0,0.0,0.0,0.0,0.0
8.896,254,8,896000000,base_footprint,-0.002840095977034123,0.002633930796479122,0.7317300378605065,0.681583559041782,0.0,0.0,0.0,0.0,0.0,0.0,0.0,0.0,0.0,-0.0008252422225337734,0.00515930186710538,-0.04049730455700727,0.0,0.0,0.0,0.0,0.0,0.0,0.0,0.0,0.0,0.1343111190713628,0.018042542220191526,0.008616859880885692,0.0,0.0,0.0,0.0,0.0,0.0,0.0,0.0,0.0
8.93,255,8,930000000,base_footprint,-0.0028368923554908635,0.0026333237056326317,0.7315865574972951,0.6817375789387599,0.0,0.0,0.0,0.0,0.0,0.0,0.0,0.0,0.0,-2.9119177755782834e-05,0.00045033115542082876,0.03133278507863649,0.0,0.0,0.0,0.0,0.0,0.0,0.0,0.0,0.0,0.2221142711805227,0.03943164146020449,-0.00786650323020297,0.0,0.0,0.0,0.0,0.0,0.0,0.0,0.0,0.0
8.964,256,8,964000000,base_footprint,-0.0028413499475614767,0.0026281957333912317,0.7321730300455396,0.6811076812014353,0.0,0.0,0.0,0.0,0.0,0.0,0.0,0.0,0.0,-0.00021931681185908815,0.0010414560741464076,0.05012329553180437,0.0,0.0,0.0,0.0,0.0,0.0,0.0,0.0,0.0,0.04999251500792502,-0.003641605507007286,0.0007385041596257331,0.0,0.0,0.0,0.0,0.0,0.0,0.0,0.0,0.0
8.998,257,8,998000000,base_footprint,-0.002828392656404127,0.0026200728750649083,0.7326717914280186,0.6805712170366659,0.0,0.0,0.0,0.0,0.0,0.0,0.0,0.0,0.0,-0.0005820231304544457,0.00031602745089337567,0.009934756740139812,0.0,0.0,0.0,0.0,0.0,0.0,0.0,0.0,0.0,-0.06515838734660898,-0.01477959949437926,0.00012076197421387016,0.0,0.0,0.0,0.0,0.0,0.0,0.0,0.0,0.0
9.032,258,9,32000000,base_footprint,-0.0028313207328160566,0.0026196989364034727,0.7324305637989628,0.6808308086547818,0.0,0.0,0.0,0.0,0.0,0.0,0.0,0.0,0.0,0.000445424512832584,0.000800906391089244,0.034287452740369595,0.0,0.0,0.0,0.0,0.0,0.0,0.0,0.0,0.0,-0.2654465069673252,-0.03358161463649033,-0.0017697035594353549,0.0,0.0,0.0,0.0,0.0,0.0,0.0,0.0,0.0
9.066,259,9,66000000,base_footprint,-0.002835780048415156,0.00262145190034057,0.7328224054131321,0.680409000870772,0.0,0.0,0.0,0.0,0.0,0.0,0.0,0.0,0.0,-0.00016535959781014312,0.00045897723018387257,0.032570425318712855,0.0,0.0,0.0,0.0,0.0,0.0,0.0,0.0,0.0,-0.020858453692746283,-0.012757167839392475,0.001330754610363252,0.0,0.0,0.0,0.0,0.0,0.0,0.0,0.0,0.0
9.1,260,9,100000000,base_footprint,-0.0028393819527103964,0.002622622527599214,0.7332117470883727,0.6799894070445662,0.0,0.0,0.0,0.0,0.0,0.0,0.0,0.0,0.0,-0.00204803363919812,0.002850845290055256,0.04165962300751399,0.0,0.0,0.0,0.0,0.0,0.0,0.0,0.0,0.0,0.3056079772092065,0.038021708881516625,0.003063346407130868,0.0,0.0,0.0,0.0,0.0,0.0,0.0,0.0,0.0
9.134,261,9,134000000,base_footprint,-0.0028377170579800856,0.0026193733501102003,0.733721054431064,0.6794398432015297,0.0,0.0,0.0,0.0,0.0,0.0,0.0,0.0,0.0,-0.00015559764968608655,0.000448067609745335,0.04436418758688639,0.0,0.0,0.0,0.0,0.0,0.0,0.0,0.0,0.0,0.026109718598744506,-0.003208933807774844,-0.0033723790105882594,0.0,0.0,0.0,0.0,0.0,0.0,0.0,0.0,0.0
9.168,262,9,168000000,base_footprint,-0.0028405502863991725,0.0026194301496988526,0.7342300728792257,0.6788897332700858,0.0,0.0,0.0,0.0,0.0,0.0,0.0,0.0,0.0,-0.00015365683384105646,0.0003548540673795499,0.043881059171712936,0.0,0.0,0.0,0.0,0.0,0.0,0.0,0.0,0.0,-0.003966177296110698,-0.009457069262892701,-0.00012790266789895684,0.0,0.0,0.0,0.0,0.0,0.0,0.0,0.0,0.0
9.202,263,9,202000000,base_footprint,-0.0028395407432218983,0.0026135959782674014,0.7347039482733507,0.6783768970977562,0.0,0.0,0.0,0.0,0.0,0.0,0.0,0.0,0.0,3.067468070068054e-05,0.0004146645374223701,0.03114004427854682,0.0,0.0,0.0,0.0,0.0,0.0,0.0,0.0,0.0,-0.2719678332834721,-0.051961020720847365,0.0005715222804281851,0.0,0.0,0.0,0.0,0.0,0.0,0.0,0.0,0.0
9.236,264,9,236000000,base_footprint,-0.002847478550747486,0.0026206712949765156,0.7348337970199884,0.6782361791478343,0.0,0.0,0.0,0.0,0.0,0.0,0.0,0.0,0.0,-8.950045450174273e-05,-0.0017918894963101606,-0.0004760065943965093,0.0,0.0,0.0,0.0,0.0,0.0,0.0,0.0,0.0,-0.422914814399895,-0.07099371098184998,-0.003445019225068082,0.0,0.0,0.0,0.0,0.0,0.0,0.0,0.0,0.0
9.27,265,9,270000000,base_footprint,-0.0028495550542834975,0.002624134710726708,0.7348147111491822,0.6782568350055579,0.0,0.0,0.0,0.0,0.0,0.0,0.0,0.0,0.0,-5.595271850303071e-05,-5.619159231218724e-06,-0.0023761346326304656,0.0,0.0,0.0,0.0,0.0,0.0,0.0,0.0,0.0,0.005561074922314733,0.003401302384500205,0.0030545218799282806,0.0,0.0,0.0,0.0,0.0,0.0,0.0,0.0,0.0
9.304,266,9,304000000,base_footprint,-0.0028411829372612047,0.0026180187614666794,0.734956379582049,0.6781033798536391,0.0,0.0,0.0,0.0,0.0,0.0,0.0,0.0,0.0,0.0008467835715946787,-0.002720005855502437,0.05777471820647171,0.0,0.0,0.0,0.0,0.0,0.0,0.0,0.0,0.0,0.15009522798110803,0.01881734639019808,-0.006767233631990457,0.0,0.0,0.0,0.0,0.0,0.0,0.0,0.0,0.0
9.338,267,9,338000000,base_footprint,-0.002854881935174842,0.0026122780050033528,0.7357521947176483,0.6772397903408545,0.0,0.0,0.0,0.0,0.0,0.0,0.0,0.0,0.0,0.00022224111576049277,0.00048483354689768366,0.04824799007956651,0.0,0.0,0.0,0.0,0.0,0.0,0.0,0.0,0.0,0.07725329832407908,-0.0009321967757279503,0.0068657485654298744,0.0,0.0,0.0,0.0,0.0,0.0,0.0,0.0,0.0
9.372,268,9,372000000,base_footprint,-0.002857695558055186,0.0026109782514617706,0.7359373821815005,0.6770385409092365,0.0,0.0,0.0,0.0,0.0,0.0,0.0,0.0,0.0,-0.000663649321979098,0.00015610036001641948,-0.010176426204536222,0.0,0.0,0.0,0.0,0.0,0.0,0.0,0.0,0.0,0.1550028293700884,0.016812490258342555,0.00014539802526945377,0.0,0.0,0.0,0.0,0.0,0.0,0.0,0.0,0.0
9.406,269,9,406000000,base_footprint,-0.0028428298346019286,0.0026052896955905476,0.7362399030759122,0.676709639286234,0.0,0.0,0.0,0.0,0.0,0.0,0.0,0.0,0.0,-0.0027208227174173663,-0.0017079382833683943,0.07636165910211497,0.0,0.0,0.0,0.0,0.0,0.0,0.0,0.0,0.0,-0.06905897512633447,-0.012653847682448385,-2.663983524189228e-05,0.0,0.0,0.0,0.0,0.0,0.0,0.0,0.0,0.0
9.44,270,9,440000000,base_footprint,-0.002842819810877797,0.002607592720738926,0.7370441599835603,0.6758335779390173,0.0,0.0,0.0,0.0,0.0,0.0,0.0,0.0,0.0,-1.119259382244663e-05,0.000589745036736679,0.05102551786478919,0.0,0.0,0.0,0.0,0.0,0.0,0.0,0.0,0.0,-0.09383317651270323,-0.032228431048353254,0.0005126107159002327,0.0,0.0,0.0,0.0,0.0,0.0,0.0,0.0,0.0
9.474,271,9,474000000,base_footprint,-0.0028534481225523448,0.002605992055917903,0.7372442936242507,0.6756152145694295,0.0,0.0,0.0,0.0,0.0,0.0,0.0,0.0,0.0,0.002050974446903768,-0.0016538663421957899,-0.01741475106807229,0.0,0.0,0.0,0.0,0.0,0.0,0.0,0.0,0.0,-0.17933737764950763,-0.03193456820389064,-0.00392167241190159,0.0,0.0,0.0,0.0,0.0,0.0,0.0,0.0,0.0
9.508,272,9,508000000,base_footprint,-0.0028504003621991547,0.002604309663071317,0.736963711453053,0.6759212829836737,0.0,0.0,0.0,0.0,0.0,0.0,0.0,0.0,0.0,0.0005676427055580646,0.0005163576211532874,-0.028084881235025817,0.0,0.0,0.0,0.0,0.0,0.0,0.0,0.0,0.0,0.33543068162003864,0.06572029695099862,0.0033292242597070584,0.0,0.0,0.0,0.0,0.0,0.0,0.0,0.0,0.0
9.542,273,9,542000000,base_footprint,-0.002851360366512977,0.0026065928322645286,0.7366137379228966,0.6763026515703788,0.0,0.0,0.0,0.0,0.0,0.0,0.0,0.0,0.0,-0.00015414125889823168,4.7576927318929916e-05,-0.03081833167275578,0.0,0.0,0.0,0.0,0.0,0.0,0.0,0.0,0.0,-0.01696806128572991,-0.0007365648657344619,0.000807449738653218,0.0,0.0,0.0,0.0,0.0,0.0,0.0,0.0,0.0
9.576,274,9,576000000,base_footprint,-0.0028478592777919447,0.0026080482068111164,0.7362559475090801,0.6766921512324432,0.0,0.0,0.0,0.0,0.0,0.0,0.0,0.0,0.0,-0.00012805533348288236,-2.7084579260028643e-05,-0.031340116087523635,0.0,0.0,0.0,0.0,0.0,0.0,0.0,0.0,0.0,-0.006597955673733749,0.005335248605640627,-0.00020697013429752894,0.0,0.0,0.0,0.0,0.0,0.0,0.0,0.0,0.0
9.61,275,9,610000000,base_footprint,-0.0028459310819111757,0.002610005425856876,0.7359580314446266,0.6770161478872598,0.0,0.0,0.0,0.0,0.0,0.0,0.0,0.0,0.0,-0.00011847040566522821,1.4881558026582411e-05,-0.022546676811400098,0.0,0.0,0.0,0.0,0.0,0.0,0.0,0.0,0.0,0.008605492371467145,0.007085001807586208,-0.0001594442694355855,0.0,0.0,0.0,0.0,0.0,0.0,0.0,0.0,0.0
9.644,276,9,644000000,base_footprint,-0.0028459665930205946,0.002613581234666469,0.7356619372455444,0.6773378652898522,0.0,0.0,0.0,0.0,0.0,0.0,0.0,0.0,0.0,-0.00015405282000451395,0.0010465630059576327,-0.03879121879997653,0.0,0.0,0.0,0.0,0.0,0.0,0.0,0.0,0.0,0.31924446556151553,0.060007930052429936,0.0011573620429037271,0.0,0.0,0.0,0.0,0.0,0.0,0.0,0.0,0.0
9.678,277,9,678000000,base_footprint,-0.002845489607611435,0.0026173207895282048,0.7352217934810562,0.6778155849574994,0.0,0.0,0.0,0.0,0.0,0.0,0.0,0.0,0.0,-7.898059864755108e-05,-0.0003486918880067617,-0.037974686366200563,0.0,0.0,0.0,0.0,0.0,0.0,0.0,0.0,0.0,-0.011889742296871085,0.004379362379437276,-0.0019080451922068387,0.0,0.0,0.0,0.0,0.0,0.0,0.0,0.0,0.0
9.712,278,9,712000000,base_footprint,-0.0028486437000071925,0.002621558833874831,0.7349025997383013,0.6781616190527424,0.0,0.0,0.0,0.0,0.0,0.0,0.0,0.0,0.0,-0.0014590272343305434,-0.0016429542906117188,-0.034333767149107616,0.0,0.0,0.0,0.0,0.0,0.0,0.0,0.0,0.0,0.35348859582572323,0.06698607889727604,-0.0020415405126513464,0.0,0.0,0.0,0.0,0.0,0.0,0.0,0.0,0.0
9.746,279,9,746000000,base_footprint,-0.002847867769428571,0.0026246054020781897,0.7345285702102005,0.6785667105308144,0.0,0.0,0.0,0.0,0.0,0.0,0.0,0.0,0.0,-2.9132899922037082e-05,-0.00021536618730613472,-0.03238868775194653,0.0,0.0,0.0,0.0,0.0,0.0,0.0,0.0,0.0,-0.022192827500291234,-0.0005831732381013713,0.001582254757192183,0.0,0.0,0.0,0.0,0.0,0.0,0.0,0.0,0.0
9.78,280,9,780000000,base_footprint,-0.002847508162311246,0.0026274266516651767,0.7341479994690001,0.6789784261684025,0.0,0.0,0.0,0.0,0.0,0.0,0.0,0.0,0.0,-1.4288540734272188e-05,-0.00022140454459103982,-0.0335807603850085,0.0,0.0,0.0,0.0,0.0,0.0,0.0,0.0,0.0,-0.00022507870638879346,0.007016144706713259,-3.2575821143846853e-05,0.0,0.0,0.0,0.0,0.0,0.0,0.0,0.0,0.0
9.814,281,9,814000000,base_footprint,-0.002850052604171695,0.0026209167726894992,0.7341323790260427,0.6789953299257565,0.0,0.0,0.0,0.0,0.0,0.0,0.0,0.0,0.0,0.00088810040224686,-0.0018784423110020923,0.0411300340263748,0.0,0.0,0.0,0.0,0.0,0.0,0.0,0.0,0.0,0.2324673931955123,0.04193204149182758,-0.005133105700862453,0.0,0.0,0.0,0.0,0.0,0.0,0.0,0.0,0.0
9.848,282,9,848000000,base_footprint,-0.0028499482183011924,0.0026185380562816244,0.7344808581381411,0.6786183685122741,0.0,0.0,0.0,0.0,0.0,0.0,0.0,0.0,0.0,0.0008580699562211443,0.0019322255066955595,0.01897012039882557,0.0,0.0,0.0,0.0,0.0,0.0,0.0,0.0,0.0,0.010825320657167823,-0.00694246409856276,0.0071879955567203495,0.0,0.0,0.0,0.0,0.0,0.0,0.0,0.0,0.0
9.882,283,9,882000000,base_footprint,-0.0028515082539952463,0.0026173082296949116,0.7344510510645295,0.6786506260135005,0.0,0.0,0.0,0.0,0.0,0.0,0.0,0.0,0.0,0.0001991214020252012,0.00022413712572005748,-0.031577786127778486,0.0,0.0,0.0,0.0,0.0,0.0,0.0,0.0,0.0,0.12301154687092296,0.016479649308703256,-0.001624752475021932,0.0,0.0,0.0,0.0,0.0,0.0,0.0,0.0,0.0
9.916,284,9,916000000,base_footprint,-0.002850214618736925,0.002623024401583193,0.7336802599048966,0.6794838278027662,0.0,0.0,0.0,0.0,0.0,0.0,0.0,0.0,0.0,-0.0017466194322114804,0.002527357540350618,-0.10895067555358547,0.0,0.0,0.0,0.0,0.0,0.0,0.0,0.0,0.0,0.1984571801466989,0.04066171490633627,0.006339140760332643,0.0,0.0,0.0,0.0,0.0,0.0,0.0,0.0,0.0
9.95,285,9,950000000,base_footprint,-0.0028385904589381086,0.0026295811908946224,0.7328414138466045,0.6803884845132793,0.0,0.0,0.0,0.0,0.0,0.0,0.0,0.0,0.0,-0.00016058594919161006,5.367180253455924e-05,-0.036808872059720624,0.0,0.0,0.0,0.0,0.0,0.0,0.0,0.0,0.0,0.14958228921562405,0.033855373893383924,-0.007047014785553798,0.0,0.0,0.0,0.0,0.0,0.0,0.0,0.0,0.0
9.984,286,9,984000000,base_footprint,-0.0028436814652932785,0.0026304545507156133,0.732406508986355,0.6808565926676492,0.0,0.0,0.0,0.0,0.0,0.0,0.0,0.0,0.0,-0.00013591900750441034,0.00012856381682861115,-0.04075412637858015,0.0,0.0,0.0,0.0,0.0,0.0,0.0,0.0,0.0,-0.010963257714129242,0.0034355099743441403,0.000664395843523267,0.0,0.0,0.0,0.0,0.0,0.0,0.0,0.0,0.0
10.018,287,10,18000000,base_footprint,-0.0028348942393815885,0.00262839209489914,0.731907715349779,0.6813928023842885,0.0,0.0,0.0,0.0,0.0,0.0,0.0,0.0,0.0,0.00035774566909064126,0.0004910053718287378,-0.02125571171927624,0.0,0.0,0.0,0.0,0.0,0.0,0.0,0.0,0.0,0.366191621277574,0.06658885024434313,-0.0009907390251883011,0.0,0.0,0.0,0.0,0.0,0.0,0.0,0.0,0.0
10.052,288,10,52000000,base_footprint,-0.002836452013047522,0.0026290168517051943,0.7315949224892907,0.6817286206389314,0.0,0.0,0.0,0.0,0.0,0.0,0.0,0.0,0.0,0.0001196369843831889,5.1446427750645636e-05,-0.027315159409482644,0.0,0.0,0.0,0.0,0.0,0.0,0.0,0.0,0.0,-0.029994122368838826,-0.0032448965757727044,0.00026286916410089357,0.0,0.0,0.0,0.0,0.0,0.0,0.0,0.0,0.0
10.086,289,10,86000000,base_footprint,-0.0028343650837068537,0.002628754712127553,0.7312745386862453,0.6820722872925237,0.0,0.0,0.0,0.0,0.0,0.0,0.0,0.0,0.0,-9.810679949636406e-05,9.233109938458866e-05,-0.027807712448218818,0.0,0.0,0.0,0.0,0.0,0.0,0.0,0.0,0.0,-0.004870737286892154,0.0029067298031854013,0.00028568264851753416,0.0,0.0,0.0,0.0,0.0,0.0,0.0,0.0,0.0
10.12,290,10,120000000,base_footprint,-0.0028301761661333313,0.0026293466771959944,0.7308914596020991,0.6824827843393804,0.0,0.0,0.0,0.0,0.0,0.0,0.0,0.0,0.0,-0.00017506521179850535,0.00029755836325228406,-0.0336327712360249,0.0,0.0,0.0,0.0,0.0,0.0,0.0,0.0,0.0,0.3328149101396843,0.0500119238464814,3.2913196804727e-05,0.0,0.0,0.0,0.0,0.0,0.0,0.0,0.0,0.0
10.154,291,10,154000000,base_footprint,-0.0028272235729171484,0.002630822116500427,0.7305069043198078,0.6828943903144551,0.0,0.0,0.0,0.0,0.0,0.0,0.0,0.0,0.0,-9.951423486891461e-05,-2.8851144161137633e-05,-0.03322324058066721,0.0,0.0,0.0,0.0,0.0,0.0,0.0,0.0,0.0,-0.005043656206799834,0.004685131147734201,-0.0004015268990506828,0.0,0.0,0.0,0.0,0.0,0.0,0.0,0.0,0.0
10.188,292,10,188000000,base_footprint,-0.0028247121686479216,0.002632488643231969,0.7301191739399089,0.6833089219745434,0.0,0.0,0.0,0.0,0.0,0.0,0.0,0.0,0.0,-9.172720696141479e-05,-5.873063759287888e-05,-0.033518107381767075,0.0,0.0,0.0,0.0,0.0,0.0,0.0,0.0,0.0,-0.004315240513047898,0.004112153813599739,-9.356742232609237e-05,0.0,0.0,0.0,0.0,0.0,0.0,0.0,0.0,0.0
10.222,293,10,222000000,base_footprint,-0.0028229451003605175,0.0026341080989854006,0.7297955432926262,0.6836545600269948,0.0,0.0,0.0,0.0,0.0,0.0,0.0,0.0,0.0,-1.3841309801750793e-05,-0.0002167609215192726,-0.025315429368558514,0.0,0.0,0.0,0.0,0.0,0.0,0.0,0.0,0.0,0.33543880908737966,0.04744812996905365,-0.0005958504776553945,0.0,0.0,0.0,0.0,0.0,0.0,0.0,0.0,0.0
10.256,294,10,256000000,base_footprint,-0.002821984546220705,0.002636035497622374,0.7295179691953587,0.6839507440899204,0.0,0.0,0.0,0.0,0.0,0.0,0.0,0.0,0.0,-8.428652084819865e-05,-4.061985252884976e-05,-0.02397593659674647,0.0,0.0,0.0,0.0,0.0,0.0,0.0,0.0,0.0,-0.0028208214959434055,0.00334330266466871,0.00025397029114158687,0.0,0.0,0.0,0.0,0.0,0.0,0.0,0.0,0.0
10.29,295,10,290000000,base_footprint,-0.002824341754811682,0.0026402552875011355,0.7292386871667338,0.6842484850439989,0.0,0.0,0.0,0.0,0.0,0.0,0.0,0.0,0.0,0.0009967721553503926,-0.0034149212164548974,-0.02157857753673737,0.0,0.0,0.0,0.0,0.0,0.0,0.0,0.0,0.0,0.05273025673669715,0.007879714342789137,-0.0017795394312851197,0.0,0.0,0.0,0.0,0.0,0.0,0.0,0.0,0.0
10.324,296,10,324000000,base_footprint,-0.002820781886778334,0.0026407500350645835,0.7289029738300328,0.6846061089199643,0.0,0.0,0.0,0.0,0.0,0.0,0.0,0.0,0.0,0.0001329243884597622,0.00011455112450516503,-0.03180545821979662,0.0,0.0,0.0,0.0,0.0,0.0,0.0,0.0,0.0,0.2778694255723912,0.040251652894054246,0.00200290892515756,0.0,0.0,0.0,0.0,0.0,0.0,0.0,0.0,0.0
10.358,297,10,358000000,base_footprint,-0.0028208998535085026,0.002644098482856918,0.7285372748720902,0.6849952484427744,0.0,0.0,0.0,0.0,0.0,0.0,0.0,0.0,0.0,-7.194396639464649e-05,-0.00019160811166019396,-0.031600812944363794,0.0,0.0,0.0,0.0,0.0,0.0,0.0,0.0,0.0,-0.004937680960318945,0.003586020525104435,-0.0006747273598325637,0.0,0.0,0.0,0.0,0.0,0.0,0.0,0.0,0.0
10.392,298,10,392000000,base_footprint,-0.002821447248581979,0.0026473169620706274,0.7281748728229959,0.685380467869883,0.0,0.0,0.0,0.0,0.0,0.0,0.0,0.0,0.0,0.0006429317508492675,-0.0002201526773732984,-0.023709137853122363,0.0,0.0,0.0,0.0,0.0,0.0,0.0,0.0,0.0,-0.0013738513087636116,0.003708837268563469,-0.0005623165333273616,0.0,0.0,0.0,0.0,0.0,0.0,0.0,0.0,0.0
10.426,299,10,426000000,base_footprint,-0.002821962163369294,0.002649406426157282,0.727903664871789,0.68566848537858,0.0,0.0,0.0,0.0,0.0,0.0,0.0,0.0,0.0,-5.6670160540126255e-05,-0.00018447354909407782,-0.023691056663590164,0.0,0.0,0.0,0.0,0.0,0.0,0.0,0.0,0.0,-0.0016772025223568657,0.0027173950781569237,0.00024926096297647656,0.0,0.0,0.0,0.0,0.0,0.0,0.0,0.0,0.0
10.46,300,10,460000000,base_footprint,-0.00282203959152035,0.002652111906753442,0.727625273415065,0.6859638940080082,0.0,0.0,0.0,0.0,0.0,0.0,0.0,0.0,0.0,-3.497440252692559e-05,-0.00015196777969253314,-0.0241610556454631,0.0,0.0,0.0,0.0,0.0,0.0,0.0,0.0,0.0,-0.0011021680047424531,0.003029813861069572,-6.0810029549136455e-05,0.0,0.0,0.0,0.0,0.0,0.0,0.0,0.0,0.0
10.494,301,10,494000000,base_footprint,-0.0028173350630541732,0.0026541167536389063,0.7274016705126918,0.686201011382777,0.0,0.0,0.0,0.0,0.0,0.0,0.0,0.0,0.0,0.0030936401004688033,0.003595426894807299,0.02606650484343008,0.0,0.0,0.0,0.0,0.0,0.0,0.0,0.0,0.0,0.023287298896860615,0.004134439950619292,0.0026585387767391303,0.0,0.0,0.0,0.0,0.0,0.0,0.0,0.0,0.0
10.528,302,10,528000000,base_footprint,-0.002825646883173517,0.0026519921442141395,0.72797424157297,0.685593528458093,0.0,0.0,0.0,0.0,0.0,0.0,0.0,0.0,0.0,4.261105669175821e-05,0.0005709953211997484,0.04818166341167181,0.0,0.0,0.0,0.0,0.0,0.0,0.0,0.0,0.0,-0.008148122694009979,-0.0027995555150095003,-0.002458198281774584,0.0,0.0,0.0,0.0,0.0,0.0,0.0,0.0,0.0
10.562,303,10,562000000,base_footprint,-0.0028279953676798733,0.002649412836218316,0.728540259862827,0.6849920239045331,0.0,0.0,0.0,0.0,0.0,0.0,0.0,0.0,0.0,-5.42024466927896e-05,0.0004991965916522335,0.04848116787188425,0.0,0.0,0.0,0.0,0.0,0.0,0.0,0.0,0.0,0.0012674528592415768,-0.005103339362782271,-2.509511326654563e-05,0.0,0.0,0.0,0.0,0.0,0.0,0.0,0.0,0.0
10.596,304,10,596000000,base_footprint,-0.0028252223766091844,0.0026448426201728065,0.7290748902295421,0.6844229886282447,0.0,0.0,0.0,0.0,0.0,0.0,0.0,0.0,0.0,-0.0024659943734160355,0.002417238501715794,0.02954009816621657,0.0,0.0,0.0,0.0,0.0,0.0,0.0,0.0,0.0,-0.025540191382949756,-0.01267165262889788,0.0039030386389897072,0.0,0.0,0.0,0.0,0.0,0.0,0.0,0.0,0.0
10.63,305,10,630000000,base_footprint,-0.0028246849545127705,0.0026402784396953967,0.729066312987422,0.6844321451770038,0.0,0.0,0.0,0.0,0.0,0.0,0.0,0.0,0.0,0.000864976726546233,0.0003516411606648164,-0.023746782037372696,0.0,0.0,0.0,0.0,0.0,0.0,0.0,0.0,0.0,-0.049237012260857395,-0.005758126867439584,-0.003617324544689261,0.0,0.0,0.0,0.0,0.0,0.0,0.0,0.0,0.0
10.664,306,10,664000000,base_footprint,-0.0028285086233456507,0.002642083628520738,0.7286371816996667,0.6848889518585,0.0,0.0,0.0,0.0,0.0,0.0,0.0,0.0,0.0,-0.0003223947043639346,-0.0004772421965397179,-0.05096221303882313,0.0,0.0,0.0,0.0,0.0,0.0,0.0,0.0,0.0,0.10591529304325695,0.017519568513497875,-0.0005352818981055605,0.0,0.0,0.0,0.0,0.0,0.0,0.0,0.0,0.0
10.698,307,10,698000000,base_footprint,-0.002817678849199852,0.0026334386351909446,0.7282851865791016,0.6852633163217632,0.0,0.0,0.0,0.0,0.0,0.0,0.0,0.0,0.0,-0.000260827802835628,0.0010618306396778716,0.005537354627266396,0.0,0.0,0.0,0.0,0.0,0.0,0.0,0.0,0.0,0.002812388110178172,-0.005419245312633002,0.0029269603351927136,0.0,0.0,0.0,0.0,0.0,0.0,0.0,0.0,0.0
10.732,308,10,732000000,base_footprint,-0.0028251809950247046,0.0026456459243213255,0.7291159196770655,0.6843792768512615,0.0,0.0,0.0,0.0,0.0,0.0,0.0,0.0,0.0,-0.0003732959052095122,0.0005815942613416577,0.12247554045290908,0.0,0.0,0.0,0.0,0.0,0.0,0.0,0.0,0.0,-0.003510682607480011,-0.002765195035183493,-0.00304652892339632,0.0,0.0,0.0,0.0,0.0,0.0,0.0,0.0,0.0
10.766,309,10,766000000,base_footprint,-0.002838680256607456,0.002637999961978646,0.7306604008724965,0.6827300794951431,0.0,0.0,0.0,0.0,0.0,0.0,0.0,0.0,0.0,0.0004855747029036793,0.0006840613660984395,0.13044810528987585,0.0,0.0,0.0,0.0,0.0,0.0,0.0,0.0,0.0,0.03763814640465949,-0.003943296905208605,-0.0005851643706350595,0.0,0.0,0.0,0.0,0.0,0.0,0.0,0.0,0.0
10.8,310,10,800000000,base_footprint,-0.0028336886824445635,0.0026248148193576486,0.7319792236669578,0.6813160035369293,0.0,0.0,0.0,0.0,0.0,0.0,0.0,0.0,0.0,7.932153378431659e-05,0.0014015934695506488,0.0680613800582521,0.0,0.0,0.0,0.0,0.0,0.0,0.0,0.0,0.0,0.03002094941121322,-0.008556893706030445,0.0007118196158254031,0.0,0.0,0.0,0.0,0.0,0.0,0.0,0.0,0.0
10.834,311,10,834000000,base_footprint,-0.0028443415555547994,0.0026269988812457454,0.7326726028715593,0.6805702503044103,0.0,0.0,0.0,0.0,0.0,0.0,0.0,0.0,0.0,-0.00017274756861202482,0.0007912893260916445,0.057711819204622955,0.0,0.0,0.0,0.0,0.0,0.0,0.0,0.0,0.0,-0.04704772951380654,-0.017962729933486396,0.001096001409624266,0.0,0.0,0.0,0.0,0.0,0.0,0.0,0.0,0.0
10.868,312,10,868000000,base_footprint,-0.002845319887706894,0.002622430964572916,0.733336930974649,0.679854376083037,0.0,0.0,0.0,0.0,0.0,0.0,0.0,0.0,0.0,7.280652135960601e-06,0.0007003727705498229,0.057562016889441556,0.0,0.0,0.0,0.0,0.0,0.0,0.0,0.0,0.0,-0.0018728970313596515,-0.005794835840430583,-8.306097568392591e-05,0.0,0.0,0.0,0.0,0.0,0.0,0.0,0.0,0.0
10.902,313,10,902000000,base_footprint,-0.0028465947535401184,0.002618319379892309,0.7339767377204973,0.6791635957463492,0.0,0.0,0.0,0.0,0.0,0.0,0.0,0.0,0.0,-1.1908433918121061e-05,0.0005062065774195468,0.05159588666885141,0.0,0.0,0.0,0.0,0.0,0.0,0.0,0.0,0.0,-0.0030711146573810105,-0.007468652963320268,-0.00010618855487142254,0.0,0.0,0.0,0.0,0.0,0.0,0.0,0.0,0.0
10.936,314,10,936000000,base_footprint,-0.0028478111702826803,0.002614672408197508,0.7345756833053197,0.6785157470215847,0.0,0.0,0.0,0.0,0.0,0.0,0.0,0.0,0.0,2.0601093423385647e-05,0.0006038057438947928,0.05202657545517665,0.0,0.0,0.0,0.0,0.0,0.0,0.0,0.0,0.0,-0.0006654573746593048,-0.005829689251105065,0.00010967387917731772,0.0,0.0,0.0,0.0,0.0,0.0,0.0,0.0,0.0
10.97,315,10,970000000,base_footprint,-0.0028486731274832604,0.0026113508224341743,0.7351759008129594,0.6778653706836991,0.0,0.0,0.0,0.0,0.0,0.0,0.0,0.0,0.0,-0.00016071868791787345,0.0006666068946906543,0.05206139843250163,0.0,0.0,0.0,0.0,0.0,0.0,0.0,0.0,0.0,-0.0016011458814025742,-0.006248681405207457,0.0003690420940290882,0.0,0.0,0.0,0.0,0.0,0.0,0.0,0.0,0.0
11.004,316,11,4000000,base_footprint,-0.0028500042183144223,0.002606907523736383,0.7361398604329397,0.676818430150133,0.0,0.0,0.0,0.0,0.0,0.0,0.0,0.0,0.0,0.00015612602272017486,0.0002848370027231556,0.12965070012735694,0.0,0.0,0.0,0.0,0.0,0.0,0.0,0.0,0.0,0.019974278917385402,-0.0032766935181677993,-0.0012542930267783043,0.0,0.0,0.0,0.0,0.0,0.0,0.0,0.0,0.0
11.038,317,11,38000000,base_footprint,-0.002854840368635823,0.0026004523376030883,0.7376191972348025,0.6752059000073941,0.0,0.0,0.0,0.0,0.0,0.0,0.0,0.0,0.0,-0.00021225633301168867,0.001206462708729331,0.12863134221883352,0.0,0.0,0.0,0.0,0.0,0.0,0.0,0.0,0.0,-0.0017525441400878892,-0.017703979852410637,0.0013405059574449574,0.0,0.0,0.0,0.0,0.0,0.0,0.0,0.0,0.0
11.072,318,11,72000000,base_footprint,-0.002859620318387796,0.0025944538026454883,0.7390930929523932,0.6735922292686917,0.0,0.0,0.0,0.0,0.0,0.0,0.0,0.0,0.0,-0.00021545098271015344,0.0011736064766694548,0.12853112607592415,0.0,0.0,0.0,0.0,0.0,0.0,0.0,0.0,0.0,-0.0002949497818407077,-0.015043852866492749,6.274452736192071e-05,0.0,0.0,0.0,0.0,0.0,0.0,0.0,0.0,0.0
11.106,319,11,106000000,base_footprint,-0.002863126070351755,0.002591039184165752,0.740046865983055,0.672544218006303,0.0,0.0,0.0,0.0,0.0,0.0,0.0,0.0,0.0,-0.0002419561575077151,0.0007245922836147423,0.023827052122743178,0.0,0.0,0.0,0.0,0.0,0.0,0.0,0.0,0.0,-0.029137821808718233,-0.019535272733042935,0.0003633217887766447,0.0,0.0,0.0,0.0,0.0,0.0,0.0,0.0,0.0
11.14,320,11,140000000,base_footprint,-0.0028638143896163788,0.0025907257174843375,0.740323997750754,0.6722391427622616,0.0,0.0,0.0,0.0,0.0,0.0,0.0,0.0,0.0,-0.00013913632317464784,0.00032260063989560345,0.024239156030808943,0.0,0.0,0.0,0.0,0.0,0.0,0.0,0.0,0.0,-0.0013165776773310942,7.827364500476706e-05,-0.0003327347725982934,0.0,0.0,0.0,0.0,0.0,0.0,0.0,0.0,0.0
11.174,321,11,174000000,base_footprint,-0.0028650083056134174,0.002590679784623219,0.7405993014680874,0.6719358263782662,0.0,0.0,0.0,0.0,0.0,0.0,0.0,0.0,0.0,-0.00014174869017954375,0.00030144430165781916,0.024012644560813506,0.0,0.0,0.0,0.0,0.0,0.0,0.0,0.0,0.0,-0.002450718244948748,-0.0032503651251632047,-2.3513389757910696e-05,0.0,0.0,0.0,0.0,0.0,0.0,0.0,0.0,0.0
11.208,322,11,208000000,base_footprint,-0.002870867022812885,0.0025892041523014244,0.741001297992068,0.6714924649751967,0.0,0.0,0.0,0.0,0.0,0.0,0.0,0.0,0.0,-0.0002614107935736003,0.0013905387772421402,0.06163761896091541,0.0,0.0,0.0,0.0,0.0,0.0,0.0,0.0,0.0,0.5069497079968927,0.09679935658144728,0.0005739501821036637,0.0,0.0,0.0,0.0,0.0,0.0,0.0,0.0,0.0
11.242,323,11,242000000,base_footprint,-0.0028744488518807586,0.0025836661811765287,0.7421254769769278,0.6702498329985839,0.0,0.0,0.0,0.0,0.0,0.0,0.0,0.0,0.0,-0.0002765020529182476,0.0016270683362569188,0.13155267890789862,0.0,0.0,0.0,0.0,0.0,0.0,0.0,0.0,0.0,0.8396671116752283,0.16360654166587763,-0.0009305719883769444,0.0,0.0,0.0,0.0,0.0,0.0,0.0,0.0,0.0
11.276,324,11,276000000,base_footprint,-0.002881484959212456,0.0025752111468173556,0.7439881936705977,0.6681815868540082,0.0,0.0,0.0,0.0,0.0,0.0,0.0,0.0,0.0,-0.0002754815643019141,0.0018428674230746333,0.1948439906389518,0.0,0.0,0.0,0.0,0.0,0.0,0.0,0.0,0.0,0.8158397044687223,0.16687514103347684,-0.0008983874670635654,0.0,0.0,0.0,0.0,0.0,0.0,0.0,0.0,0.0
11.31,325,11,310000000,base_footprint,-0.0028914884891294355,0.002562679144803999,0.7465172941873227,0.6653547936621156,0.0,0.0,0.0,0.0,0.0,0.0,0.0,0.0,0.0,-0.0004681000251585529,0.001991903450932196,0.21420370958890284,0.0,0.0,0.0,0.0,0.0,0.0,0.0,0.0,0.0,0.7247693690228525,0.160658968623061,-0.00044181223802834354,0.0,0.0,0.0,0.0,0.0,0.0,0.0,0.0,0.0
11.344,326,11,344000000,base_footprint,-0.0028962046640309443,0.002556397681187296,0.7478645623880775,0.6638400960724872,0.0,0.0,0.0,0.0,0.0,0.0,0.0,0.0,0.0,-5.5938028582900836e-05,0.0005228780602686597,0.029521484164196317,0.0,0.0,0.0,0.0,0.0,0.0,0.0,0.0,0.0,0.374527329529019,0.08741258752423628,-0.00041636425961121687,0.0,0.0,0.0,0.0,0.0,0.0,0.0,0.0,0.0
11.378,327,11,378000000,base_footprint,-0.002895247376961495,0.002562378974146799,0.7478991824532722,0.6638010730952054,0.0,0.0,0.0,0.0,0.0,0.0,0.0,0.0,0.0,-8.77324274736073e-05,0.0001050270105233281,0.0010679776052514858,0.0,0.0,0.0,0.0,0.0,0.0,0.0,0.0,0.0,0.06385092453045127,0.014948931770595659,-0.0003741551509640012,0.0,0.0,0.0,0.0,0.0,0.0,0.0,0.0,0.0
11.412,328,11,412000000,base_footprint,-0.002895290592621339,0.0025624556248367777,0.7479102168467464,0.6637886400427534,0.0,0.0,0.0,0.0,0.0,0.0,0.0,0.0,0.0,-0.00011014576565670912,0.00019195638241099712,0.0010210794457330887,0.0,0.0,0.0,0.0,0.0,0.0,0.0,0.0,0.0,-8.794062402426693e-05,7.822126829056713e-05,0.00010738010224978448,0.0,0.0,0.0,0.0,0.0,0.0,0.0,0.0,0.0
11.446,329,11,446000000,base_footprint,-0.002895252949549149,0.0025624861530307327,0.7479208973681553,0.6637766058359447,0.0,0.0,0.0,0.0,0.0,0.0,0.0,0.0,0.0,-0.0001105572538243097,0.00019279897160084177,0.0010063132163140127,0.0,0.0,0.0,0.0,0.0,0.0,0.0,0.0,0.0,6.772411530935161e-06,2.89649895651231e-05,2.177072399683013e-06,0.0,0.0,0.0,0.0,0.0,0.0,0.0,0.0,0.0
