Time,yaw_world,delta_position_x_world,delta_position_y_world,delta_yaw,Theta_calculated,linear_velocity_x,world_velocity_x,world_velocity_y,angular_velocity_yaw,linear_acceleration_x,angular_acceleration_yaw,kinematic_delta_x,kinematic_delta_y,kinematic_delta_yaw,header.seq_x,header.stamp.secs_x,header.stamp.nsecs_x,header.frame_id_x,child_frame_id,pose.pose.position.x,pose.pose.position.y,pose.pose.position.z,pose.pose.orientation.x,pose.pose.orientation.y,pose.pose.orientation.z,pose.pose.orientation.w,pose.covariance,twist.twist.linear.x,twist.twist.linear.y,twist.twist.linear.z,twist.twist.angular.x,twist.twist.angular.y,twist.twist.angular.z,twist.covariance,linear.x,linear.y,linear.z,angular.x,angular.y,angular.z,header.seq_y,header.stamp.secs_y,header.stamp.nsecs_y,header.frame_id_y,orientation.x,orientation.y,orientation.z,orientation.w,orientation_covariance_0,orientation_covariance_1,orientation_covariance_2,orientation_covariance_3,orientation_covariance_4,orientation_covariance_5,orientation_covariance_6,orientation_covariance_7,orientation_covariance_8,angular_velocity.x,angular_velocity.y,angular_velocity.z,angular_velocity_covariance_0,angular_velocity_covariance_1,angular_velocity_covariance_2,angular_velocity_covariance_3,angular_velocity_covariance_4,angular_velocity_covariance_5,angular_velocity_covariance_6,angular_velocity_covariance_7,angular_velocity_covariance_8,linear_acceleration.x,linear_acceleration.y,linear_acceleration.z,linear_acceleration_covariance_0,linear_acceleration_covariance_1,linear_acceleration_covariance_2,linear_acceleration_covariance_3,linear_acceleration_covariance_4,linear_acceleration_covariance_5,linear_acceleration_covariance_6,linear_acceleration_covariance_7,linear_acceleration_covariance_8
0.36900000000000005,3.1414825425066275,-3.7468354974843493e-06,-1.0734977404651514e-05,-1.1268669898090167e-05,3.1415911668236025,0.00014159403892496846,-0.00014159403892481195,2.105172298822484e-10,-9.59306639456644e-05,0.00425893904265184,-0.0030280972472235762,-4.7150814962283836e-06,8.193631718865987e-12,-3.194491109390625e-06,6.0,0.0,364000000.0,odom,base_footprint,1.1348407380783188e-05,-8.220482324428231e-06,-0.001002874508186,-0.0039350400324633,-7.65671374261667e-06,0.9999922562245424,5.3779800864937065e-05,"(1e-05, 0.0, 0.0, 0.0, 0.0, 0.0, 0.0, 1e-05, 0.0, 0.0, 0.0, 0.0, 0.0, 0.0, 1000000000000.0, 0.0, 0.0, 0.0, 0.0, 0.0, 0.0, 1000000000000.0, 0.0, 0.0, 0.0, 0.0, 0.0, 0.0, 1000000000000.0, 0.0, 0.0, 0.0, 0.0, 0.0, 0.0, 0.001)",0.0002237213039842,0.0005237451006071,0.0,0.0,0.0,-0.0006801215953799,"(0.0, 0.0, 0.0, 0.0, 0.0, 0.0, 0.0, 0.0, 0.0, 0.0, 0.0, 0.0, 0.0, 0.0, 0.0, 0.0, 0.0, 0.0, 0.0, 0.0, 0.0, 0.0, 0.0, 0.0, 0.0, 0.0, 0.0, 0.0, 0.0, 0.0, 0.0, 0.0, 0.0, 0.0, 0.0, 0.0)",,,,,,,5,0,369000000,base_footprint,-0.0038897213989435,-7.752379136056978e-06,0.9999924334612156,5.502413724586813e-05,0.0,0.0,0.0,0.0,0.0,0.0,0.0,0.0,0.0,-2.358495000724144e-05,-0.0299431821159393,-0.0006010636391527,0.0,0.0,0.0,0.0,0.0,0.0,0.0,0.0,0.0,0.0058678400699294,0.0054482186698309,0.1310388267572772,0.0,0.0,0.0,0.0,0.0,0.0,0.0,0.0,0.0
0.403,3.141471861374055,-9.378664429680536e-07,4.206414505733397e-07,-1.0681132572631924e-05,3.141587972332493,5.388129826264417e-05,-5.388129826205379e-05,2.522322208322893e-10,-0.00036722822392257887,-0.0026340162361058344,-0.008147073873180614,-1.7942472320707977e-06,1.695453064313922e-11,-1.2228699856621878e-05,7.0,0.0,397000000.0,odom,base_footprint,9.5519654612344e-06,-8.979194849465042e-06,-0.0010024857723497,-0.0038614533231143,-7.05668505312422e-06,0.9999925427069132,6.048965837667178e-05,"(1e-05, 0.0, 0.0, 0.0, 0.0, 0.0, 0.0, 1e-05, 0.0, 0.0, 0.0, 0.0, 0.0, 0.0, 1000000000000.0, 0.0, 0.0, 0.0, 0.0, 0.0, 0.0, 1000000000000.0, 0.0, 0.0, 0.0, 0.0, 0.0, 0.0, 1000000000000.0, 0.0, 0.0, 0.0, 0.0, 0.0, 0.0, 0.001)",4.641983189345858e-07,4.995981725237324e-06,0.0,0.0,0.0,8.101221589965119e-05,"(0.0, 0.0, 0.0, 0.0, 0.0, 0.0, 0.0, 0.0, 0.0, 0.0, 0.0, 0.0, 0.0, 0.0, 0.0, 0.0, 0.0, 0.0, 0.0, 0.0, 0.0, 0.0, 0.0, 0.0, 0.0, 0.0, 0.0, 0.0, 0.0, 0.0, 0.0, 0.0, 0.0, 0.0, 0.0, 0.0)",,,,,,,6,0,403000000,base_footprint,-0.0038605055379087,-7.002915931139557e-06,0.9999925463740662,6.036772265825835e-05,0.0,0.0,0.0,0.0,0.0,0.0,0.0,0.0,0.0,4.423575720532158e-05,0.0001036600545918,7.20538920527011e-05,0.0,0.0,0.0,0.0,0.0,0.0,0.0,0.0,0.0,-0.006230114039407,-0.0053175408617007,0.0006936701347581,0.0,0.0,0.0,0.0,0.0,0.0,0.0,0.0,0.0
0.437,3.141478537214482,7.01655492865369e-08,-4.284602921408588e-07,6.675840427128321e-06,3.1415757436326364,-2.897474317635158e-06,2.8974743172208966e-06,-4.899616657201996e-11,8.289301008046169e-05,-0.0017050682456540337,0.013517154174265482,9.648589476734007e-08,-1.368515262127329e-12,2.7603372356793744e-06,8.0,0.0,430000000.0,odom,base_footprint,9.607260249886763e-06,-9.3216718302234e-06,-0.0010024077309261,-0.0038607296665398,-7.117452320060412e-06,0.999992545659508,5.780312064896045e-05,"(1e-05, 0.0, 0.0, 0.0, 0.0, 0.0, 0.0, 1e-05, 0.0, 0.0, 0.0, 0.0, 0.0, 0.0, 1000000000000.0, 0.0, 0.0, 0.0, 0.0, 0.0, 0.0, 1000000000000.0, 0.0, 0.0, 0.0, 0.0, 0.0, 0.0, 1000000000000.0, 0.0, 0.0, 0.0, 0.0, 0.0, 0.0, 0.001)",-2.559123043124821e-06,1.7266704009099498e-05,0.0,0.0,0.0,0.0002659181641272,"(0.0, 0.0, 0.0, 0.0, 0.0, 0.0, 0.0, 0.0, 0.0, 0.0, 0.0, 0.0, 0.0, 0.0, 0.0, 0.0, 0.0, 0.0, 0.0, 0.0, 0.0, 0.0, 0.0, 0.0, 0.0, 0.0, 0.0, 0.0, 0.0, 0.0, 0.0, 0.0, 0.0, 0.0, 0.0, 0.0)",,,,,,,7,0,437000000,base_footprint,-0.0038607289116306,-7.134760105679486e-06,0.9999925457067256,5.702936634052262e-05,0.0,0.0,0.0,0.0,0.0,0.0,0.0,0.0,0.0,2.7123447024911222e-05,-0.0001927565965951,0.0002846133550302,0.0,0.0,0.0,0.0,0.0,0.0,0.0,0.0,0.0,-5.5093198517648455e-05,0.0004150956208291,0.0002965387754679,0.0,0.0,0.0,0.0,0.0,0.0,0.0,0.0,0.0
0.47100000000000003,3.141488485542095,1.017577721234442e-07,-6.458956934494666e-07,9.948327612807617e-06,3.141578503969872,-2.1427233637927974e-06,2.142723363578298e-06,-3.0318721192932055e-11,0.00022490471895337833,2.2665193809079893e-05,0.004264615882069568,7.13526880109358e-08,-6.463641465219043e-13,7.4893271411474995e-06,9.0,0.0,464000000.0,odom,base_footprint,9.706099192008724e-06,-9.947705948786182e-06,-0.0010023945290479,-0.0038606328090407,-7.184668965882038e-06,0.9999925463002316,5.2978045388350406e-05,"(1e-05, 0.0, 0.0, 0.0, 0.0, 0.0, 0.0, 1e-05, 0.0, 0.0, 0.0, 0.0, 0.0, 0.0, 1000000000000.0, 0.0, 0.0, 0.0, 0.0, 0.0, 0.0, 1000000000000.0, 0.0, 0.0, 0.0, 0.0, 0.0, 0.0, 1000000000000.0, 0.0, 0.0, 0.0, 0.0, 0.0, 0.0, 0.001)",-3.12456290983914e-06,2.116765952457228e-05,0.0,0.0,0.0,0.0003244114570628,"(0.0, 0.0, 0.0, 0.0, 0.0, 0.0, 0.0, 0.0, 0.0, 0.0, 0.0, 0.0, 0.0, 0.0, 0.0, 0.0, 0.0, 0.0, 0.0, 0.0, 0.0, 0.0, 0.0, 0.0, 0.0, 0.0, 0.0, 0.0, 0.0, 0.0, 0.0, 0.0, 0.0, 0.0, 0.0, 0.0)",,,,,,,8,0,471000000,base_footprint,-0.0038606234664272,-7.192654952459012e-06,0.9999925463847138,5.205509105772208e-05,0.0,0.0,0.0,0.0,0.0,0.0,0.0,0.0,0.0,2.929566147629025e-05,-0.0001809803860202,0.0003287243118187,0.0,0.0,0.0,0.0,0.0,0.0,0.0,0.0,0.0,-1.290025340884918e-05,8.655654385678311e-05,-1.846419814675484e-05,0.0,0.0,0.0,0.0,0.0,0.0,0.0,0.0,0.0
0.505,3.141499243147818,1.0987061116549648e-07,-6.998067430505891e-07,1.0757605723110686e-05,3.141585993297013,-9.723744030990702e-07,9.72374403077503e-07,-6.476298216448501e-12,0.0002540278390994371,3.5145614435247056e-05,0.0008745681725543176,3.238006762284413e-08,-3.5116032512277835e-14,8.459127042011256e-06,10.0,0.0,497000000.0,odom,base_footprint,9.811946544529585e-06,-1.0621656967203034e-05,-0.0010023908828484,-0.0038606026044184,-7.222163570910159e-06,0.9999925466776344,4.779696977586501e-05,"(1e-05, 0.0, 0.0, 0.0, 0.0, 0.0, 0.0, 1e-05, 0.0, 0.0, 0.0, 0.0, 0.0, 0.0, 1000000000000.0, 0.0, 0.0, 0.0, 0.0, 0.0, 0.0, 1000000000000.0, 0.0, 0.0, 0.0, 0.0, 0.0, 0.0, 1000000000000.0, 0.0, 0.0, 0.0, 0.0, 0.0, 0.0, 0.001)",-3.266228123927207e-06,2.211984609994412e-05,0.0,0.0,0.0,0.000338648051348,"(0.0, 0.0, 0.0, 0.0, 0.0, 0.0, 0.0, 0.0, 0.0, 0.0, 0.0, 0.0, 0.0, 0.0, 0.0, 0.0, 0.0, 0.0, 0.0, 0.0, 0.0, 0.0, 0.0, 0.0, 0.0, 0.0, 0.0, 0.0, 0.0, 0.0, 0.0, 0.0, 0.0, 0.0, 0.0, 0.0)",,,,,,,9,0,505000000,base_footprint,-0.0038605999505097,-7.228729876142064e-06,0.9999925467407712,4.6676269365270206e-05,0.0,0.0,0.0,0.0,0.0,0.0,0.0,0.0,0.0,2.983942517504428e-05,-0.0001790809576326,0.0003401856043313,0.0,0.0,0.0,0.0,0.0,0.0,0.0,0.0,0.0,-3.3221285503947275e-06,2.2535823530603164e-05,-3.451511252522792e-06,0.0,0.0,0.0,0.0,0.0,0.0,0.0,0.0,0.0
0.539,3.1415102122118053,1.1198717516595039e-07,-7.138986984368981e-07,1.0969063987342764e-05,3.141499243147818,-2.58115208950478e-07,2.5811520782438447e-07,-2.4110655713552513e-11,0.00026340827256965085,2.1449225049507276e-05,0.00028169469880521734,8.59523645783189e-09,6.472901107995331e-14,8.771495476569375e-06,10.0,0.0,497000000.0,odom,base_footprint,9.811946544529585e-06,-1.0621656967203034e-05,-0.0010023908828484,-0.0038606026044184,-7.222163570910159e-06,0.9999925466776344,4.779696977586501e-05,"(1e-05, 0.0, 0.0, 0.0, 0.0, 0.0, 0.0, 1e-05, 0.0, 0.0, 0.0, 0.0, 0.0, 0.0, 1000000000000.0, 0.0, 0.0, 0.0, 0.0, 0.0, 0.0, 1000000000000.0, 0.0, 0.0, 0.0, 0.0, 0.0, 0.0, 1000000000000.0, 0.0, 0.0, 0.0, 0.0, 0.0, 0.0, 0.001)",-3.266228123927207e-06,2.211984609994412e-05,0.0,0.0,0.0,0.000338648051348,"(0.0, 0.0, 0.0, 0.0, 0.0, 0.0, 0.0, 0.0, 0.0, 0.0, 0.0, 0.0, 0.0, 0.0, 0.0, 0.0, 0.0, 0.0, 0.0, 0.0, 0.0, 0.0, 0.0, 0.0, 0.0, 0.0, 0.0, 0.0, 0.0, 0.0, 0.0, 0.0, 0.0, 0.0, 0.0, 0.0)",,,,,,,10,0,539000000,base_footprint,-0.0038605938441648,-7.2577814689076605e-06,0.999992547005094,4.119174788136298e-05,0.0,0.0,0.0,0.0,0.0,0.0,0.0,0.0,0.0,3.0016136599962704e-05,-0.0001785711381733,0.0003432305370827,0.0,0.0,0.0,0.0,0.0,0.0,0.0,0.0,0.0,-8.894893089492206e-07,5.98251871320641e-06,-9.151400702392936e-07,0.0,0.0,0.0,0.0,0.0,0.0,0.0,0.0,0.0
0.5730000000000001,3.1415212376105144,1.1255812795534118e-07,-7.176489917335569e-07,1.1025398709119116e-05,3.1415102122118053,3.728085347027164e-07,-3.7280853343580474e-07,3.0734849291754183e-11,0.0002729779793050676,1.8946658968564392e-05,0.0002873785806431451,-1.2414524203948674e-08,-2.043634650792552e-13,9.090166710858752e-06,11.0,0.0,530000000.0,odom,base_footprint,9.920390678506974e-06,-1.1312905644698748e-05,-0.001002389993567,-0.0038605946231701,-7.251233572634059e-06,0.9999925469479768,4.248616016144419e-05,"(1e-05, 0.0, 0.0, 0.0, 0.0, 0.0, 0.0, 1e-05, 0.0, 0.0, 0.0, 0.0, 0.0, 0.0, 1000000000000.0, 0.0, 0.0, 0.0, 0.0, 0.0, 0.0, 1000000000000.0, 0.0, 0.0, 0.0, 0.0, 0.0, 0.0, 1000000000000.0, 0.0, 0.0, 0.0, 0.0, 0.0, 0.0, 0.001)",-3.30538830680467e-06,2.238318661306868e-05,0.0,0.0,0.0,0.0003425869824477,"(0.0, 0.0, 0.0, 0.0, 0.0, 0.0, 0.0, 0.0, 0.0, 0.0, 0.0, 0.0, 0.0, 0.0, 0.0, 0.0, 0.0, 0.0, 0.0, 0.0, 0.0, 0.0, 0.0, 0.0, 0.0, 0.0, 0.0, 0.0, 0.0, 0.0, 0.0, 0.0, 0.0, 0.0, 0.0, 0.0)",,,,,,,11,0,573000000,base_footprint,-0.0038605924282036,-7.284609155965973e-06,0.999992547222249,3.567906821423605e-05,0.0,0.0,0.0,0.0,0.0,0.0,0.0,0.0,0.0,3.0088459839753136e-05,-0.0001784352966547,0.0003440495351339,0.0,0.0,0.0,0.0,0.0,0.0,0.0,0.0,0.0,-2.458382570135474e-07,1.6046141463795634e-06,-2.3823402292454545e-07,0.0,0.0,0.0,0.0,0.0,0.0,0.0,0.0,0.0
0.607,3.141532278278972,1.1271972864042995e-07,-7.186615842541692e-07,1.1040668457695801e-05,3.1415212376105144,9.824856207882741e-07,-9.824856182828167e-07,7.016517267634538e-11,0.00026318618599228613,1.83086212037705e-05,-0.0002940478472306741,-3.2716771162297803e-08,-8.306388374307855e-13,8.764099993543128e-06,13.0,0.0,597000000.0,odom,base_footprint,1.0142252861058793e-05,-1.272744031766511e-05,-0.0010023898981376,-0.0038605922501144,-7.303720069279213e-06,0.9999925473593732,3.1620339957037834e-05,"(1e-05, 0.0, 0.0, 0.0, 0.0, 0.0, 0.0, 1e-05, 0.0, 0.0, 0.0, 0.0, 0.0, 0.0, 1000000000000.0, 0.0, 0.0, 0.0, 0.0, 0.0, 0.0, 1000000000000.0, 0.0, 0.0, 0.0, 0.0, 0.0, 0.0, 1000000000000.0, 0.0, 0.0, 0.0, 0.0, 0.0, 0.0, 0.001)",-3.319548566498902e-06,2.2477540719419623e-05,0.0,0.0,0.0,0.0003440020956352,"(0.0, 0.0, 0.0, 0.0, 0.0, 0.0, 0.0, 0.0, 0.0, 0.0, 0.0, 0.0, 0.0, 0.0, 0.0, 0.0, 0.0, 0.0, 0.0, 0.0, 0.0, 0.0, 0.0, 0.0, 0.0, 0.0, 0.0, 0.0, 0.0, 0.0, 0.0, 0.0, 0.0, 0.0, 0.0, 0.0)",,,,,,,12,0,607000000,base_footprint,-0.0038605922549673,-7.310516462811174e-06,0.9999925474044528,3.0158757386022383e-05,0.0,0.0,0.0,0.0,0.0,0.0,0.0,0.0,0.0,3.0131330111748192e-05,-0.0001783986591642,0.0003442792036824,0.0,0.0,0.0,0.0,0.0,0.0,0.0,0.0,0.0,-7.53954651246879e-08,4.45529562546387e-07,-5.9359091938736025e-08,0.0,0.0,0.0,0.0,0.0,0.0,0.0,0.0,0.0
0.641,3.1415433233456613,1.1277295419026556e-07,-7.189493843759009e-07,1.1045066689252536e-05,3.141532278278972,1.6489263199279393e-06,-1.648926316922624e-06,9.955443902635765e-11,0.00025930016344808543,2.001323420839835e-05,-0.00011669737369972074,-5.4909246420472003e-08,-1.871755917616264e-12,8.634695442821246e-06,13.0,0.0,597000000.0,odom,base_footprint,1.0142252861058793e-05,-1.272744031766511e-05,-0.0010023898981376,-0.0038605922501144,-7.303720069279213e-06,0.9999925473593732,3.1620339957037834e-05,"(1e-05, 0.0, 0.0, 0.0, 0.0, 0.0, 0.0, 1e-05, 0.0, 0.0, 0.0, 0.0, 0.0, 0.0, 1000000000000.0, 0.0, 0.0, 0.0, 0.0, 0.0, 0.0, 1000000000000.0, 0.0, 0.0, 0.0, 0.0, 0.0, 0.0, 1000000000000.0, 0.0, 0.0, 0.0, 0.0, 0.0, 0.0, 0.001)",-3.319548566498902e-06,2.2477540719419623e-05,0.0,0.0,0.0,0.0003440020956352,"(0.0, 0.0, 0.0, 0.0, 0.0, 0.0, 0.0, 0.0, 0.0, 0.0, 0.0, 0.0, 0.0, 0.0, 0.0, 0.0, 0.0, 0.0, 0.0, 0.0, 0.0, 0.0, 0.0, 0.0, 0.0, 0.0, 0.0, 0.0, 0.0, 0.0, 0.0, 0.0, 0.0, 0.0, 0.0, 0.0)",,,,,,,13,0,641000000,base_footprint,-0.0038605924131251,-7.335879361385211e-06,0.9999925475549606,2.463624958958558e-05,0.0,0.0,0.0,0.0,0.0,0.0,0.0,0.0,0.0,3.0164663388553232e-05,-0.0001783882859728,0.0003443528518664,0.0,0.0,0.0,0.0,0.0,0.0,0.0,0.0,0.0,-3.0262264909019415e-08,1.386619111026049e-07,-1.249487303437756e-08,0.0,0.0,0.0,0.0,0.0,0.0,0.0,0.0,0.0
0.675,3.141554369932279,1.1279748570423853e-07,-7.190452766621288e-07,1.104658661787994e-05,3.1415433233456613,2.4981606026666713e-06,-2.498160599627068e-06,1.2323487236027714e-10,0.00026092307510945943,2.5502531013175133e-05,4.8736085927147215e-05,-8.318874799312563e-08,-3.5563081199697357e-12,8.688738401145e-06,15.0,0.0,664000000.0,odom,base_footprint,1.0364490591734455e-05,-1.41442218926077e-05,-0.0010023901091155,-0.003860592584107,-7.35352750948107e-06,0.9999925476426214,2.073752117779691e-05,"(1e-05, 0.0, 0.0, 0.0, 0.0, 0.0, 0.0, 1e-05, 0.0, 0.0, 0.0, 0.0, 0.0, 0.0, 1000000000000.0, 0.0, 0.0, 0.0, 0.0, 0.0, 0.0, 1000000000000.0, 0.0, 0.0, 0.0, 0.0, 0.0, 0.0, 1000000000000.0, 0.0, 0.0, 0.0, 0.0, 0.0, 0.0, 0.001)",-3.320996448555405e-06,2.248623374523816e-05,0.0,0.0,0.0,0.0003441367543164,"(0.0, 0.0, 0.0, 0.0, 0.0, 0.0, 0.0, 0.0, 0.0, 0.0, 0.0, 0.0, 0.0, 0.0, 0.0, 0.0, 0.0, 0.0, 0.0, 0.0, 0.0, 0.0, 0.0, 0.0, 0.0, 0.0, 0.0, 0.0, 0.0, 0.0, 0.0, 0.0, 0.0, 0.0, 0.0, 0.0)",,,,,,,14,0,675000000,base_footprint,-0.0038605926611733,-7.360825381288659e-06,0.9999925476746396,1.911298345366538e-05,0.0,0.0,0.0,0.0,0.0,0.0,0.0,0.0,0.0,3.019389512062218e-05,-0.0001783848771746,0.0003443851884159,0.0,0.0,0.0,0.0,0.0,0.0,0.0,0.0,0.0,-1.830704486137786e-08,5.7399429459614236e-08,-5.210226698251391e-10,0.0,0.0,0.0,0.0,0.0,0.0,0.0,0.0,0.0
0.7090000000000001,3.141565417276563,1.1281441866014402e-07,-7.190903324434375e-07,1.1047344283809936e-05,3.141554369932279,3.3423236397387335e-06,-3.3423236372894145e-06,1.2795637349353745e-10,0.00024481482084211687,2.5350241353515376e-05,-0.00048373135937965645,-1.1129937705693291e-07,-5.69523859440718e-12,8.152333534042493e-06,15.0,0.0,664000000.0,odom,base_footprint,1.0364490591734455e-05,-1.41442218926077e-05,-0.0010023901091155,-0.003860592584107,-7.35352750948107e-06,0.9999925476426214,2.073752117779691e-05,"(1e-05, 0.0, 0.0, 0.0, 0.0, 0.0, 0.0, 1e-05, 0.0, 0.0, 0.0, 0.0, 0.0, 0.0, 1000000000000.0, 0.0, 0.0, 0.0, 0.0, 0.0, 0.0, 1000000000000.0, 0.0, 0.0, 0.0, 0.0, 0.0, 0.0, 1000000000000.0, 0.0, 0.0, 0.0, 0.0, 0.0, 0.0, 0.001)",-3.320996448555405e-06,2.248623374523816e-05,0.0,0.0,0.0,0.0003441367543164,"(0.0, 0.0, 0.0, 0.0, 0.0, 0.0, 0.0, 0.0, 0.0, 0.0, 0.0, 0.0, 0.0, 0.0, 0.0, 0.0, 0.0, 0.0, 0.0, 0.0, 0.0, 0.0, 0.0, 0.0, 0.0, 0.0, 0.0, 0.0, 0.0, 0.0, 0.0, 0.0, 0.0, 0.0, 0.0, 0.0)",,,,,,,15,0,709000000,base_footprint,-0.0038605929349763,-7.385413682926679e-06,0.99999254776372,1.3589339873629943e-05,0.0,0.0,0.0,0.0,0.0,0.0,0.0,0.0,0.0,3.02206105220855e-05,-0.000178383322471,0.0003444065804069,0.0,0.0,0.0,0.0,0.0,0.0,0.0,0.0,0.0,-1.5136780677653438e-08,3.5862471782092435e-08,2.256235152302492e-09,0.0,0.0,0.0,0.0,0.0,0.0,0.0,0.0,0.0
0.743,3.1415764651764446,1.128293382257253e-07,-7.191218997770489e-07,1.1047899881599932e-05,3.141565417276563,4.429142349004525e-06,-4.429142347361719e-06,1.206335083437918e-10,0.00023375898505827728,3.2637198476450186e-05,-0.0003320070805957835,-1.4749043996567215e-07,-8.722387356570373e-12,7.784174202440633e-06,16.0,0.0,697000000.0,odom,base_footprint,1.0473982204755455e-05,-1.4842151287189928e-05,-0.0010023902145688,-0.0038605928450299,-7.377495210505137e-06,0.9999925477382432,1.5376433749552046e-05,"(1e-05, 0.0, 0.0, 0.0, 0.0, 0.0, 0.0, 1e-05, 0.0, 0.0, 0.0, 0.0, 0.0, 0.0, 1000000000000.0, 0.0, 0.0, 0.0, 0.0, 0.0, 0.0, 1000000000000.0, 0.0, 0.0, 0.0, 0.0, 0.0, 0.0, 1000000000000.0, 0.0, 0.0, 0.0, 0.0, 0.0, 0.0, 0.001)",-3.321273219467037e-06,2.248758119370852e-05,0.0,0.0,0.0,0.0003441592453389,"(0.0, 0.0, 0.0, 0.0, 0.0, 0.0, 0.0, 0.0, 0.0, 0.0, 0.0, 0.0, 0.0, 0.0, 0.0, 0.0, 0.0, 0.0, 0.0, 0.0, 0.0, 0.0, 0.0, 0.0, 0.0, 0.0, 0.0, 0.0, 0.0, 0.0, 0.0, 0.0, 0.0, 0.0, 0.0, 0.0)",,,,,,,16,0,743000000,base_footprint,-0.0038605932173685,-7.409682968654089e-06,0.9999925478222604,8.065419731976441e-06,0.0,0.0,0.0,0.0,0.0,0.0,0.0,0.0,0.0,3.0245362104522856e-05,-0.000178382268005,0.0003444250675081,0.0,0.0,0.0,0.0,0.0,0.0,0.0,0.0,0.0,-1.42930273016232e-08,3.01384912162713e-08,2.635653076044815e-09,0.0,0.0,0.0,0.0,0.0,0.0,0.0,0.0,0.0
0.777,3.1415875135781794,1.1284372328050799e-07,-7.191498683738156e-07,1.1048401734825576e-05,3.1415764651764446,5.932051752396372e-06,-5.9320517516190815e-06,9.603050576898651e-11,0.00022599342679436904,4.51324145162717e-05,-0.00023319994786511218,-1.9753732290852016e-07,-1.3194218256457363e-11,7.52558111225249e-06,18.0,0.0,764000000.0,odom,base_footprint,1.0696326903884314e-05,-1.6259253001800348e-05,-0.0010023904138216,-0.0038605934022763,-7.425231454903536e-06,0.9999925478438724,4.490984721795868e-06,"(1e-05, 0.0, 0.0, 0.0, 0.0, 0.0, 0.0, 1e-05, 0.0, 0.0, 0.0, 0.0, 0.0, 0.0, 1000000000000.0, 0.0, 0.0, 0.0, 0.0, 0.0, 0.0, 1000000000000.0, 0.0, 0.0, 0.0, 0.0, 0.0, 0.0, 1000000000000.0, 0.0, 0.0, 0.0, 0.0, 0.0, 0.0, 0.001)",-3.3217358979786623e-06,2.2489670740289768e-05,0.0,0.0,0.0,0.0003441952974972,"(0.0, 0.0, 0.0, 0.0, 0.0, 0.0, 0.0, 0.0, 0.0, 0.0, 0.0, 0.0, 0.0, 0.0, 0.0, 0.0, 0.0, 0.0, 0.0, 0.0, 0.0, 0.0, 0.0, 0.0, 0.0, 0.0, 0.0, 0.0, 0.0, 0.0, 0.0, 0.0, 0.0, 0.0, 0.0, 0.0)",,,,,,,17,0,777000000,base_footprint,-0.0038605935036361,-7.433664384821294e-06,0.999992547850274,2.541249780560968e-06,0.0,0.0,0.0,0.0,0.0,0.0,0.0,0.0,0.0,3.026841674828677e-05,-0.0001783813546976,0.0003444427787953,0.0,0.0,0.0,0.0,0.0,0.0,0.0,0.0,0.0,-1.4065786247881244e-08,2.8602770134718943e-08,2.4134448413266037e-09,0.0,0.0,0.0,0.0,0.0,0.0,0.0,0.0,0.0
0.811,-3.141586744712275,1.1285796559356437e-07,-7.191768589237033e-07,1.1048889131860099e-05,3.1415875135781794,7.332562522355874e-06,-7.332562522259012e-06,3.7689456523595716e-11,0.0002015464877169487,4.205738047926432e-05,-0.0007341423146372472,-2.441743313235563e-07,-1.8047435631990753e-11,6.7114980409743925e-06,18.0,0.0,764000000.0,odom,base_footprint,1.0696326903884314e-05,-1.6259253001800348e-05,-0.0010023904138216,-0.0038605934022763,-7.425231454903536e-06,0.9999925478438724,4.490984721795868e-06,"(1e-05, 0.0, 0.0, 0.0, 0.0, 0.0, 0.0, 1e-05, 0.0, 0.0, 0.0, 0.0, 0.0, 0.0, 1000000000000.0, 0.0, 0.0, 0.0, 0.0, 0.0, 0.0, 1000000000000.0, 0.0, 0.0, 0.0, 0.0, 0.0, 0.0, 1000000000000.0, 0.0, 0.0, 0.0, 0.0, 0.0, 0.0, 0.001)",-3.3217358979786623e-06,2.2489670740289768e-05,0.0,0.0,0.0,0.0003441952974972,"(0.0, 0.0, 0.0, 0.0, 0.0, 0.0, 0.0, 0.0, 0.0, 0.0, 0.0, 0.0, 0.0, 0.0, 0.0, 0.0, 0.0, 0.0, 0.0, 0.0, 0.0, 0.0, 0.0, 0.0, 0.0, 0.0, 0.0, 0.0, 0.0, 0.0, 0.0, 0.0, 0.0, 0.0, 0.0, 0.0)",,,,,,,18,0,811000000,base_footprint,-0.0038605937923766,-7.457385135928205e-06,0.999992547847762,-2.9831628578440915e-06,0.0,0.0,0.0,0.0,0.0,0.0,0.0,0.0,0.0,3.028995444798825e-05,-0.0001783804864936,0.0003444602785444,0.0,0.0,0.0,0.0,0.0,0.0,0.0,0.0,0.0,-1.40022569090906e-08,2.8177669702150784e-08,2.0616719610235823e-09,0.0,0.0,0.0,0.0,0.0,0.0,0.0,0.0,0.0
0.8450000000000001,-3.1415756953397778,1.128721690939194e-07,-7.192035675844008e-07,1.1049372497407008e-05,-3.1415167319726165,9.111813558932422e-06,-9.111813532671757e-06,-6.917836201425522e-10,0.0001809162123857542,5.343096205935579e-05,-0.0006195277877235585,-3.034233905271129e-07,-2.4358853491322957e-11,6.0245098724456155e-06,20.0,0.0,831000000.0,odom,base_footprint,1.0915407370418878e-05,-1.7655308265231253e-05,-0.0010023905911209,-0.0038605939631596,-7.471226689036305e-06,0.9999925478320242,-6.232929867465184e-06,"(1e-05, 0.0, 0.0, 0.0, 0.0, 0.0, 0.0, 1e-05, 0.0, 0.0, 0.0, 0.0, 0.0, 0.0, 1000000000000.0, 0.0, 0.0, 0.0, 0.0, 0.0, 0.0, 1000000000000.0, 0.0, 0.0, 0.0, 0.0, 0.0, 0.0, 1000000000000.0, 0.0, 0.0, 0.0, 0.0, 0.0, 0.0, 0.001)",-3.322180328378171e-06,2.249160133543773e-05,0.0,0.0,0.0,0.0003442289804416,"(0.0, 0.0, 0.0, 0.0, 0.0, 0.0, 0.0, 0.0, 0.0, 0.0, 0.0, 0.0, 0.0, 0.0, 0.0, 0.0, 0.0, 0.0, 0.0, 0.0, 0.0, 0.0, 0.0, 0.0, 0.0, 0.0, 0.0, 0.0, 0.0, 0.0, 0.0, 0.0, 0.0, 0.0, 0.0, 0.0)",,,,,,,19,0,845000000,base_footprint,-0.0038605940830782,-7.480869621686477e-06,0.9999925478147222,-8.507816261182606e-06,0.0,0.0,0.0,0.0,0.0,0.0,0.0,0.0,0.0,3.0310122053192287e-05,-0.0001783796373798,0.0003444777167503,0.0,0.0,0.0,0.0,0.0,0.0,0.0,0.0,0.0,-1.3982509234334144e-08,2.8048331644056775e-08,1.703011662536014e-09,0.0,0.0,0.0,0.0,0.0,0.0,0.0,0.0,0.0
0.879,-3.141564645485167,1.128863614981157e-07,-7.192301809089447e-07,1.104985461086727e-05,-3.1415107074627437,-0.00015361241300003157,0.000153612412484265,1.2587942297991403e-08,0.0022253708734155963,-0.004886613410179099,0.06139503486576102,5.115293314688878e-06,6.155988391915892e-10,7.410485008473937e-05,20.0,0.0,831000000.0,odom,base_footprint,1.0915407370418878e-05,-1.7655308265231253e-05,-0.0010023905911209,-0.0038605939631596,-7.471226689036305e-06,0.9999925478320242,-6.232929867465184e-06,"(1e-05, 0.0, 0.0, 0.0, 0.0, 0.0, 0.0, 1e-05, 0.0, 0.0, 0.0, 0.0, 0.0, 0.0, 1000000000000.0, 0.0, 0.0, 0.0, 0.0, 0.0, 0.0, 1000000000000.0, 0.0, 0.0, 0.0, 0.0, 0.0, 0.0, 1000000000000.0, 0.0, 0.0, 0.0, 0.0, 0.0, 0.0, 0.001)",-3.322180328378171e-06,2.249160133543773e-05,0.0,0.0,0.0,0.0003442289804416,"(0.0, 0.0, 0.0, 0.0, 0.0, 0.0, 0.0, 0.0, 0.0, 0.0, 0.0, 0.0, 0.0, 0.0, 0.0, 0.0, 0.0, 0.0, 0.0, 0.0, 0.0, 0.0, 0.0, 0.0, 0.0, 0.0, 0.0, 0.0, 0.0, 0.0, 0.0, 0.0, 0.0, 0.0, 0.0, 0.0)",,,,,,,20,0,879000000,base_footprint,-0.0038605943754785,-7.504139901977429e-06,0.9999925477511517,-1.4032709888827606e-05,0.0,0.0,0.0,0.0,0.0,0.0,0.0,0.0,0.0,3.0329048400549956e-05,-0.0001783787997496,0.0003444951337645,0.0,0.0,0.0,0.0,0.0,0.0,0.0,0.0,0.0,-1.3974776108862616e-08,2.7999048053078718e-08,1.367020274811968e-09,0.0,0.0,0.0,0.0,0.0,0.0,0.0,0.0,0.0
0.913,-3.141553595148939,1.1290055033658961e-07,-7.192567502273759e-07,1.10503362278358e-05,-3.141436602612659,1.0702166979612634e-05,-1.0702166849303544e-05,-1.6700836078440305e-09,0.00016371061729099115,0.004934371771160486,-0.061911719403141295,-3.5638215584552883e-07,-5.706497501374403e-11,5.451563555790006e-06,21.0,0.0,864000000.0,odom,base_footprint,1.1028287888646682e-05,-1.837452749462981e-05,-0.0010023906760554,-0.0038605942548855,-7.494582637716837e-06,0.9999925477810252,-1.1757724611033156e-05,"(1e-05, 0.0, 0.0, 0.0, 0.0, 0.0, 0.0, 1e-05, 0.0, 0.0, 0.0, 0.0, 0.0, 0.0, 1000000000000.0, 0.0, 0.0, 0.0, 0.0, 0.0, 0.0, 1000000000000.0, 0.0, 0.0, 0.0, 0.0, 0.0, 0.0, 1000000000000.0, 0.0, 0.0, 0.0, 0.0, 0.0, 0.0, 0.001)",-3.322403069659524e-06,2.2492591095904978e-05,0.0,0.0,0.0,0.0003442462693963,"(0.0, 0.0, 0.0, 0.0, 0.0, 0.0, 0.0, 0.0, 0.0, 0.0, 0.0, 0.0, 0.0, 0.0, 0.0, 0.0, 0.0, 0.0, 0.0, 0.0, 0.0, 0.0, 0.0, 0.0, 0.0, 0.0, 0.0, 0.0, 0.0, 0.0, 0.0, 0.0, 0.0, 0.0, 0.0, 0.0)",,,,,,,20,0,879000000,base_footprint,-0.0038605943754785,-7.504139901977429e-06,0.9999925477511517,-1.4032709888827606e-05,0.0,0.0,0.0,0.0,0.0,0.0,0.0,0.0,0.0,3.0329048400549956e-05,-0.0001783787997496,0.0003444951337645,0.0,0.0,0.0,0.0,0.0,0.0,0.0,0.0,0.0,-1.3974776108862616e-08,2.7999048053078718e-08,1.367020274811968e-09,0.0,0.0,0.0,0.0,0.0,0.0,0.0,0.0,0.0
0.9470000000000001,-3.141542544331374,1.1291473776386088e-07,-7.192832909879727e-07,1.1050817565028126e-05,-3.1414311510491033,8.888367248527038e-06,-8.888367132609084e-06,-1.43549388698192e-09,0.00018746711371604737,-5.446846039296082e-05,0.0007134083010527393,-2.9598262530158e-07,-4.912426339845004e-11,6.242654886744378e-06,21.0,0.0,864000000.0,odom,base_footprint,1.1028287888646682e-05,-1.837452749462981e-05,-0.0010023906760554,-0.0038605942548855,-7.494582637716837e-06,0.9999925477810252,-1.1757724611033156e-05,"(1e-05, 0.0, 0.0, 0.0, 0.0, 0.0, 0.0, 1e-05, 0.0, 0.0, 0.0, 0.0, 0.0, 0.0, 1000000000000.0, 0.0, 0.0, 0.0, 0.0, 0.0, 0.0, 1000000000000.0, 0.0, 0.0, 0.0, 0.0, 0.0, 0.0, 1000000000000.0, 0.0, 0.0, 0.0, 0.0, 0.0, 0.0, 0.001)",-3.322403069659524e-06,2.2492591095904978e-05,0.0,0.0,0.0,0.0003442462693963,"(0.0, 0.0, 0.0, 0.0, 0.0, 0.0, 0.0, 0.0, 0.0, 0.0, 0.0, 0.0, 0.0, 0.0, 0.0, 0.0, 0.0, 0.0, 0.0, 0.0, 0.0, 0.0, 0.0, 0.0, 0.0, 0.0, 0.0, 0.0, 0.0, 0.0, 0.0, 0.0, 0.0, 0.0, 0.0, 0.0)",,,,,,,22,0,947000000,base_footprint,-0.0038605949646651,-7.55011594831777e-06,0.999992547532404,-2.5083217232525097e-05,0.0,0.0,0.0,0.0,0.0,0.0,0.0,0.0,0.0,3.036362930919214e-05,-0.0001783771500384,0.0003445299411009,0.0,0.0,0.0,0.0,0.0,0.0,0.0,0.0,0.0,-1.3967643854063456e-08,2.7952961111784023e-08,7.798195036009067e-10,0.0,0.0,0.0,0.0,0.0,0.0,0.0,0.0,0.0
0.9810000000000001,-3.1415314930326783,1.1292892449724615e-07,-7.193098089109857e-07,1.105129869571897e-05,-3.1414249083942165,7.451788479171161e-06,-7.45178837433027e-06,-1.2500017099728035e-09,0.00021547599765281525,-4.3140503584260565e-05,0.000841107625728765,-2.4814455266298597e-07,-4.284937843715347e-11,7.175350721838748e-06,23.0,0.0,930000000.0,odom,base_footprint,1.124744940026335e-05,-1.977073480029552e-05,-0.0010023908303011,-0.0038605948255527,-7.5393603398094835e-06,0.9999925475948634,-2.248301149988779e-05,"(1e-05, 0.0, 0.0, 0.0, 0.0, 0.0, 0.0, 1e-05, 0.0, 0.0, 0.0, 0.0, 0.0, 0.0, 1000000000000.0, 0.0, 0.0, 0.0, 0.0, 0.0, 0.0, 1000000000000.0, 0.0, 0.0, 0.0, 0.0, 0.0, 0.0, 1000000000000.0, 0.0, 0.0, 0.0, 0.0, 0.0, 0.0, 0.001)",-3.322841769496449e-06,2.249450861523788e-05,0.0,0.0,0.0,0.000344279822836,"(0.0, 0.0, 0.0, 0.0, 0.0, 0.0, 0.0, 0.0, 0.0, 0.0, 0.0, 0.0, 0.0, 0.0, 0.0, 0.0, 0.0, 0.0, 0.0, 0.0, 0.0, 0.0, 0.0, 0.0, 0.0, 0.0, 0.0, 0.0, 0.0, 0.0, 0.0, 0.0, 0.0, 0.0, 0.0, 0.0)",,,,,,,23,0,981000000,base_footprint,-0.0038605952611615,-7.5728562867189615e-06,0.9999925473772198,-3.060883083854445e-05,0.0,0.0,0.0,0.0,0.0,0.0,0.0,0.0,0.0,3.037948340275239e-05,-0.0001783763358367,0.0003445473362232,0.0,0.0,0.0,0.0,0.0,0.0,0.0,0.0,0.0,-1.3965347820763929e-08,2.7936725300649364e-08,5.257946498446149e-10,0.0,0.0,0.0,0.0,0.0,0.0,0.0,0.0,0.0
1.015,-3.141520441253026,1.129431108611404e-07,-7.193363069887181e-07,1.1051779652326845e-05,-3.141417733043495,5.821054539121638e-06,-5.82105445006766e-06,-1.0182220348230076e-09,0.00022764996918620518,-4.897098919067638e-05,0.00036558473073243036,-1.9384111300978237e-07,-3.4902478530857026e-11,7.5807439739006335e-06,25.0,0.0,997000000.0,odom,base_footprint,1.1469986221331226e-05,-2.118819901074585e-05,-0.0010023909746345,-0.0038605954098299,-7.584171307028218e-06,0.9999925472881735,-3.337172761065311e-05,"(1e-05, 0.0, 0.0, 0.0, 0.0, 0.0, 0.0, 1e-05, 0.0, 0.0, 0.0, 0.0, 0.0, 0.0, 1000000000000.0, 0.0, 0.0, 0.0, 0.0, 0.0, 0.0, 1000000000000.0, 0.0, 0.0, 0.0, 0.0, 0.0, 0.0, 1000000000000.0, 0.0, 0.0, 0.0, 0.0, 0.0, 0.0, 0.001)",-3.323288870488631e-06,2.24964526117578e-05,0.0,0.0,0.0,0.0003443138902189,"(0.0, 0.0, 0.0, 0.0, 0.0, 0.0, 0.0, 0.0, 0.0, 0.0, 0.0, 0.0, 0.0, 0.0, 0.0, 0.0, 0.0, 0.0, 0.0, 0.0, 0.0, 0.0, 0.0, 0.0, 0.0, 0.0, 0.0, 0.0, 0.0, 0.0, 0.0, 0.0, 0.0, 0.0, 0.0, 0.0)",,,,,,,24,1,15000000,base_footprint,-0.003860595558759,-7.595451898816782e-06,0.9999925471914906,-3.613468435793673e-05,0.0,0.0,0.0,0.0,0.0,0.0,0.0,0.0,0.0,3.039449766043512e-05,-0.0001783755278118,0.0003445647268545,0.0,0.0,0.0,0.0,0.0,0.0,0.0,0.0,0.0,-1.3963500204793468e-08,2.7922477507286454e-08,2.9542258747232274e-10,0.0,0.0,0.0,0.0,0.0,0.0,0.0,0.0,0.0
1.049,-3.141509388992567,1.1295729707757129e-07,-7.193627874573402e-07,1.1052260458832563e-05,-3.141410152299521,4.679972576013531e-06,-4.679972498076261e-06,-8.541010288198019e-10,0.00024267657039442575,-3.426672561886206e-05,0.00045124928553214906,-1.5584308403177468e-07,-2.928105701841798e-11,8.081129794134378e-06,25.0,0.0,997000000.0,odom,base_footprint,1.1469986221331226e-05,-2.118819901074585e-05,-0.0010023909746345,-0.0038605954098299,-7.584171307028218e-06,0.9999925472881735,-3.337172761065311e-05,"(1e-05, 0.0, 0.0, 0.0, 0.0, 0.0, 0.0, 1e-05, 0.0, 0.0, 0.0, 0.0, 0.0, 0.0, 1000000000000.0, 0.0, 0.0, 0.0, 0.0, 0.0, 0.0, 1000000000000.0, 0.0, 0.0, 0.0, 0.0, 0.0, 0.0, 1000000000000.0, 0.0, 0.0, 0.0, 0.0, 0.0, 0.0, 0.001)",-3.323288870488631e-06,2.24964526117578e-05,0.0,0.0,0.0,0.0003443138902189,"(0.0, 0.0, 0.0, 0.0, 0.0, 0.0, 0.0, 0.0, 0.0, 0.0, 0.0, 0.0, 0.0, 0.0, 0.0, 0.0, 0.0, 0.0, 0.0, 0.0, 0.0, 0.0, 0.0, 0.0, 0.0, 0.0, 0.0, 0.0, 0.0, 0.0, 0.0, 0.0, 0.0, 0.0, 0.0, 0.0)",,,,,,,25,1,49000000,base_footprint,-0.0038605958573464,-7.617916314524783e-06,0.9999925469752128,-4.166077776740485e-05,0.0,0.0,0.0,0.0,0.0,0.0,0.0,0.0,0.0,3.0408750104552352e-05,-0.000178374725447,0.0003445821135653,0.0,0.0,0.0,0.0,0.0,0.0,0.0,0.0,0.0,-1.3962018105195426e-08,2.7909778528446993e-08,8.622812770074004e-11,0.0,0.0,0.0,0.0,0.0,0.0,0.0,0.0,0.0
1.083,-3.1414983362514364,1.1297148330702447e-07,-7.193892520769494e-07,1.1052741130779253e-05,-3.141402071169727,3.865096486761257e-06,-3.865096416567899e-06,-7.366194377780187e-10,0.0002627052110802365,-2.4470753430999215e-05,0.0006014606812555773,-1.2870771053122e-07,-2.526566858427185e-11,8.748083528971876e-06,27.0,1.0,64000000.0,odom,base_footprint,1.1692578130938734e-05,-2.2605766085705565e-05,-0.0010023911087746,-0.0038605959981717,-7.628445949165136e-06,0.9999925468628637,-4.426137531420842e-05,"(1e-05, 0.0, 0.0, 0.0, 0.0, 0.0, 0.0, 1e-05, 0.0, 0.0, 0.0, 0.0, 0.0, 0.0, 1000000000000.0, 0.0, 0.0, 0.0, 0.0, 0.0, 0.0, 1000000000000.0, 0.0, 0.0, 0.0, 0.0, 0.0, 0.0, 1000000000000.0, 0.0, 0.0, 0.0, 0.0, 0.0, 0.0, 0.001)",-3.3237358533537934e-06,2.2498394883414013e-05,0.0,0.0,0.0,0.0003443479650327,"(0.0, 0.0, 0.0, 0.0, 0.0, 0.0, 0.0, 0.0, 0.0, 0.0, 0.0, 0.0, 0.0, 0.0, 0.0, 0.0, 0.0, 0.0, 0.0, 0.0, 0.0, 0.0, 0.0, 0.0, 0.0, 0.0, 0.0, 0.0, 0.0, 0.0, 0.0, 0.0, 0.0, 0.0, 0.0, 0.0)",,,,,,,26,1,83000000,base_footprint,-0.0038605961568233,-7.640261806907174e-06,0.9999925467283828,-4.718711104716178e-05,0.0,0.0,0.0,0.0,0.0,0.0,0.0,0.0,0.0,3.0422311463853143e-05,-0.0001783739281254,0.0003445994967855,0.0,0.0,0.0,0.0,0.0,0.0,0.0,0.0,0.0,-1.3960850074357514e-08,2.7898311207058116e-08,-1.0337601134197238e-10,0.0,0.0,0.0,0.0,0.0,0.0,0.0,0.0,0.0
1.117,-3.1414872830297527,1.129856696969328e-07,-7.194157024274686e-07,1.1053221683710037e-05,-3.1413933230861977,3.015920624427876e-06,-3.0159205645126174e-06,-6.011649728904742e-10,0.00026479838974082166,-2.5500776646648085e-05,6.285821803559103e-05,-1.0043015468143287e-07,-2.0596781201890307e-11,8.817786378369362e-06,27.0,1.0,64000000.0,odom,base_footprint,1.1692578130938734e-05,-2.2605766085705565e-05,-0.0010023911087746,-0.0038605959981717,-7.628445949165136e-06,0.9999925468628637,-4.426137531420842e-05,"(1e-05, 0.0, 0.0, 0.0, 0.0, 0.0, 0.0, 1e-05, 0.0, 0.0, 0.0, 0.0, 0.0, 0.0, 1000000000000.0, 0.0, 0.0, 0.0, 0.0, 0.0, 0.0, 1000000000000.0, 0.0, 0.0, 0.0, 0.0, 0.0, 0.0, 1000000000000.0, 0.0, 0.0, 0.0, 0.0, 0.0, 0.0, 0.001)",-3.3237358533537934e-06,2.2498394883414013e-05,0.0,0.0,0.0,0.0003443479650327,"(0.0, 0.0, 0.0, 0.0, 0.0, 0.0, 0.0, 0.0, 0.0, 0.0, 0.0, 0.0, 0.0, 0.0, 0.0, 0.0, 0.0, 0.0, 0.0, 0.0, 0.0, 0.0, 0.0, 0.0, 0.0, 0.0, 0.0, 0.0, 0.0, 0.0, 0.0, 0.0, 0.0, 0.0, 0.0, 0.0)",,,,,,,27,1,117000000,base_footprint,-0.0038605964570984,-7.662499508991472e-06,0.999992546450997,-5.271368418047999e-05,0.0,0.0,0.0,0.0,0.0,0.0,0.0,0.0,0.0,3.043524602997732e-05,-0.0001783731353721,0.0003446168769778,0.0,0.0,0.0,0.0,0.0,0.0,0.0,0.0,0.0,-1.3959982323144997e-08,2.7888106318513487e-08,-2.7550310324720165e-10,0.0,0.0,0.0,0.0,0.0,0.0,0.0,0.0,0.0
1.151,-3.141476229327621,1.1299985638347884e-07,-7.19442139997792e-07,1.1053702131835763e-05,-3.1413845052998193,2.4441305696846955e-06,-2.444130516737849e-06,-5.08741594879362e-10,0.0002725033447843467,-1.7170872514810215e-05,0.0002313800313370882,-8.138954610694279e-08,-1.741994397612454e-11,9.074361381318746e-06,29.0,1.0,130000000.0,odom,base_footprint,1.1911901634624468e-05,-2.4002275897395504e-05,-0.0010023912326824,-0.0038605965809535,-7.671627272776358e-06,0.999992546327897,-5.498940165328285e-05,"(1e-05, 0.0, 0.0, 0.0, 0.0, 0.0, 0.0, 1e-05, 0.0, 0.0, 0.0, 0.0, 0.0, 0.0, 1000000000000.0, 0.0, 0.0, 0.0, 0.0, 0.0, 0.0, 1000000000000.0, 0.0, 0.0, 0.0, 0.0, 0.0, 0.0, 1000000000000.0, 0.0, 0.0, 0.0, 0.0, 0.0, 0.0, 0.001)",-3.3241741721255284e-06,2.2500307102742008e-05,0.0,0.0,0.0,0.000344381538067,"(0.0, 0.0, 0.0, 0.0, 0.0, 0.0, 0.0, 0.0, 0.0, 0.0, 0.0, 0.0, 0.0, 0.0, 0.0, 0.0, 0.0, 0.0, 0.0, 0.0, 0.0, 0.0, 0.0, 0.0, 0.0, 0.0, 0.0, 0.0, 0.0, 0.0, 0.0, 0.0, 0.0, 0.0, 0.0, 0.0)",0.0,0.0,0.0,0.0,0.0,0.0,28,1,151000000,base_footprint,-0.0038605967580889,-7.684639519615557e-06,0.9999925461430512,-5.824049715382551e-05,0.0,0.0,0.0,0.0,0.0,0.0,0.0,0.0,0.0,3.044761203996904e-05,-0.0001783723468099,0.0003446342544777,0.0,0.0,0.0,0.0,0.0,0.0,0.0,0.0,0.0,-1.3959362038048494e-08,2.7878880674345613e-08,-4.3166085239275025e-10,0.0,0.0,0.0,0.0,0.0,0.0,0.0,0.0,0.0
1.185,-3.141465175145133,1.1301404347595695e-07,-7.194685660602987e-07,1.1054182488035025e-05,-3.1413754309384383,2.0451273851126226e-06,-2.045127336862259e-06,-4.442479894590744e-10,0.00028720347941863764,-1.1982077614776964e-05,0.00044144548451324154,-6.810274022498105e-08,-1.5210802481998084e-11,9.563875864640634e-06,29.0,1.0,130000000.0,odom,base_footprint,1.1911901634624468e-05,-2.4002275897395504e-05,-0.0010023912326824,-0.0038605965809535,-7.671627272776358e-06,0.999992546327897,-5.498940165328285e-05,"(1e-05, 0.0, 0.0, 0.0, 0.0, 0.0, 0.0, 1e-05, 0.0, 0.0, 0.0, 0.0, 0.0, 0.0, 1000000000000.0, 0.0, 0.0, 0.0, 0.0, 0.0, 0.0, 1000000000000.0, 0.0, 0.0, 0.0, 0.0, 0.0, 0.0, 1000000000000.0, 0.0, 0.0, 0.0, 0.0, 0.0, 0.0, 0.001)",-3.3241741721255284e-06,2.2500307102742008e-05,0.0,0.0,0.0,0.000344381538067,"(0.0, 0.0, 0.0, 0.0, 0.0, 0.0, 0.0, 0.0, 0.0, 0.0, 0.0, 0.0, 0.0, 0.0, 0.0, 0.0, 0.0, 0.0, 0.0, 0.0, 0.0, 0.0, 0.0, 0.0, 0.0, 0.0, 0.0, 0.0, 0.0, 0.0, 0.0, 0.0, 0.0, 0.0, 0.0, 0.0)",0.0,0.0,0.0,0.0,0.0,0.0,29,1,185000000,base_footprint,-0.0038605970597194,-7.706690999429156e-06,0.999992545804542,-6.376754995597086e-05,0.0,0.0,0.0,0.0,0.0,0.0,0.0,0.0,0.0,3.0459462323428246e-05,-0.0001783715619876,0.0003446516296595,0.0,0.0,0.0,0.0,0.0,0.0,0.0,0.0,0.0,-1.3958990316971966e-08,2.7870679688709164e-08,-5.732630282131535e-10,0.0,0.0,0.0,0.0,0.0,0.0,0.0,0.0,0.0
1.219,-3.1414541204823716,1.130282310827721e-07,-7.194949817913922e-07,1.1054662761189606e-05,-3.1413658670625733,1.6198542654819814e-06,-1.6198542238257049e-06,-3.6736112032210293e-10,0.0002837878152312497,-1.2770964553472709e-05,-0.00010257249811975724,-5.3941145577557736e-08,-1.2560617802476223e-11,9.450134247200617e-06,30.0,1.0,164000000.0,odom,base_footprint,1.2024907332694457e-05,-2.472172892003205e-05,-0.0010023912938001,-0.0038605968822162,-7.693729770480195e-06,0.9999925460073666,-6.051631338085077e-05,"(1e-05, 0.0, 0.0, 0.0, 0.0, 0.0, 0.0, 1e-05, 0.0, 0.0, 0.0, 0.0, 0.0, 0.0, 1000000000000.0, 0.0, 0.0, 0.0, 0.0, 0.0, 0.0, 1000000000000.0, 0.0, 0.0, 0.0, 0.0, 0.0, 0.0, 1000000000000.0, 0.0, 0.0, 0.0, 0.0, 0.0, 0.0, 0.001)",-3.324396542997007e-06,2.250129225895062e-05,0.0,0.0,0.0,0.0003443988357428,"(0.0, 0.0, 0.0, 0.0, 0.0, 0.0, 0.0, 0.0, 0.0, 0.0, 0.0, 0.0, 0.0, 0.0, 0.0, 0.0, 0.0, 0.0, 0.0, 0.0, 0.0, 0.0, 0.0, 0.0, 0.0, 0.0, 0.0, 0.0, 0.0, 0.0, 0.0, 0.0, 0.0, 0.0, 0.0, 0.0)",0.0,0.0,0.0,0.0,0.0,0.0,30,1,219000000,base_footprint,-0.0038605973619217,-7.728662258213322e-06,0.9999925454354656,-6.92948425779489e-05,0.0,0.0,0.0,0.0,0.0,0.0,0.0,0.0,0.0,3.0470844811814425e-05,-0.0001783707805591,0.000344669002842,0.0,0.0,0.0,0.0,0.0,0.0,0.0,0.0,0.0,-1.3958834129899022e-08,2.7863368139396517e-08,-7.018942496917437e-10,0.0,0.0,0.0,0.0,0.0,0.0,0.0,0.0,0.0
1.2530000000000001,-3.141439360634268,-0.00019679214965256714,-9.62705243902338e-07,1.4759848103729212e-05,-3.141356416928326,1.33178294467117e-06,-1.3317829075092585e-06,-3.146159537216261e-10,0.0002878091892320385,-8.650790414739082e-06,0.0001207619820056689,-4.434837075399656e-08,-1.0748932190564166e-11,9.584046001426882e-06,32.0,1.0,230000000.0,odom,base_footprint,1.2244311835388036e-05,-2.6118389615615534e-05,-0.0010023914079468,-0.003860597468706,-7.736399100426835e-06,0.9999925452979048,-7.124570899539592e-05,"(1e-05, 0.0, 0.0, 0.0, 0.0, 0.0, 0.0, 1e-05, 0.0, 0.0, 0.0, 0.0, 0.0, 0.0, 1000000000000.0, 0.0, 0.0, 0.0, 0.0, 0.0, 0.0, 1000000000000.0, 0.0, 0.0, 0.0, 0.0, 0.0, 0.0, 1000000000000.0, 0.0, 0.0, 0.0, 0.0, 0.0, 0.0, 0.001)",-3.3248348188362432e-06,2.2503202948268096e-05,0.0,0.0,0.0,0.0003444324180789,"(0.0, 0.0, 0.0, 0.0, 0.0, 0.0, 0.0, 0.0, 0.0, 0.0, 0.0, 0.0, 0.0, 0.0, 0.0, 0.0, 0.0, 0.0, 0.0, 0.0, 0.0, 0.0, 0.0, 0.0, 0.0, 0.0, 0.0, 0.0, 0.0, 0.0, 0.0, 0.0, 0.0, 0.0, 0.0, 0.0)",0.2199999988079071,2.250224861199968e-05,0.0,0.0,0.0,0.0,31,1,253000000,base_footprint,-0.0038556454405956,-7.5442021787535965e-06,0.9999925640035736,-7.667385652376882e-05,0.0,0.0,0.0,0.0,0.0,0.0,0.0,0.0,0.0,3.1412598515234854e-05,0.0001571459454879,0.0004611608825896,0.0,0.0,0.0,0.0,0.0,0.0,0.0,0.0,0.0,0.5056309616277278,0.0003004689330517,0.0035031306309268,0.0,0.0,0.0,0.0,0.0,0.0,0.0,0.0,0.0
1.287,-3.141426516933346,-0.0010513824432716,-8.35138816285318e-07,1.2843700921916223e-05,-3.141346832882325,0.0340461101913406,-0.03404610916267449,-8.369238809492654e-06,-0.00035743270851891566,1.0223657179698475,-0.019376633566094717,-0.0011337354363937884,-2.7347475931095504e-07,-1.1902509193679892e-05,33.0,1.0,264000000.0,odom,base_footprint,-0.0004524365399925,-2.7102972435671933e-05,-0.0010020812690745,-0.0038555206701142,-7.555450152211495e-06,0.999992564319501,-7.879712053007175e-05,"(1e-05, 0.0, 0.0, 0.0, 0.0, 0.0, 0.0, 1e-05, 0.0, 0.0, 0.0, 0.0, 0.0, 0.0, 1000000000000.0, 0.0, 0.0, 0.0, 0.0, 0.0, 0.0, 1000000000000.0, 0.0, 0.0, 0.0, 0.0, 0.0, 0.0, 1000000000000.0, 0.0, 0.0, 0.0, 0.0, 0.0, 0.0, 0.001)",0.0266658816559956,1.6706397112678464e-05,0.0,0.0,0.0,0.0003217700768243,"(0.0, 0.0, 0.0, 0.0, 0.0, 0.0, 0.0, 0.0, 0.0, 0.0, 0.0, 0.0, 0.0, 0.0, 0.0, 0.0, 0.0, 0.0, 0.0, 0.0, 0.0, 0.0, 0.0, 0.0, 0.0, 0.0, 0.0, 0.0, 0.0, 0.0, 0.0, 0.0, 0.0, 0.0, 0.0, 0.0)",0.2199999988079071,2.250224861199968e-05,0.0,0.0,0.0,0.0,32,1,287000000,base_footprint,-0.0038560152185689,-7.607192734648614e-06,0.9999925620642643,-8.309580909144514e-05,0.0,0.0,0.0,0.0,0.0,0.0,0.0,0.0,0.0,3.078476117548564e-05,-0.0001232979887116,0.0005386013213254,0.0,0.0,0.0,0.0,0.0,0.0,0.0,0.0,0.0,0.7861971468116824,0.0002809756346615,0.0063638948909228,0.0,0.0,0.0,0.0,0.0,0.0,0.0,0.0,0.0
1.321,-3.141411501634343,-0.0019602630468906,-9.784164314119297e-07,1.5015299002829609e-05,-3.1413587353915187,0.06672381302819368,-0.06672381120270611,-1.560791398322639e-05,2.142740974843317e-05,0.9813123975030953,0.011377180728749213,-0.0022219029116085447,-5.235269826758224e-07,7.135327446228247e-07,34.0,1.0,297000000.0,odom,base_footprint,-0.0017711502375889,-2.79885767821609e-05,-0.0010021438629076,-0.0038559882970956,-7.629117575909388e-06,0.999992561956792,-8.559871885581082e-05,"(1e-05, 0.0, 0.0, 0.0, 0.0, 0.0, 0.0, 1e-05, 0.0, 0.0, 0.0, 0.0, 0.0, 0.0, 1000000000000.0, 0.0, 0.0, 0.0, 0.0, 0.0, 0.0, 1000000000000.0, 0.0, 0.0, 0.0, 0.0, 0.0, 0.0, 1000000000000.0, 0.0, 0.0, 0.0, 0.0, 0.0, 0.0, 0.001)",0.0526124507247592,1.9935997053533416e-05,0.0,0.0,0.0,0.0004434989295336,"(0.0, 0.0, 0.0, 0.0, 0.0, 0.0, 0.0, 0.0, 0.0, 0.0, 0.0, 0.0, 0.0, 0.0, 0.0, 0.0, 0.0, 0.0, 0.0, 0.0, 0.0, 0.0, 0.0, 0.0, 0.0, 0.0, 0.0, 0.0, 0.0, 0.0, 0.0, 0.0, 0.0, 0.0, 0.0, 0.0)",0.2199999988079071,2.250224861199968e-05,0.0,0.0,0.0,0.0,33,1,321000000,base_footprint,-0.0038566472612134,-7.702879850291925e-06,0.9999925589740878,-9.060366429844596e-05,0.0,0.0,0.0,0.0,0.0,0.0,0.0,0.0,0.0,3.056255590556496e-05,-0.0002185368497643,0.0005709271138314,0.0,0.0,0.0,0.0,0.0,0.0,0.0,0.0,0.0,0.7862924729450114,0.0002051894143229,0.0061635463012215,0.0,0.0,0.0,0.0,0.0,0.0,0.0,0.0,0.0
1.355,-3.1413950857021486,-0.0028654840903199,-1.0708138189808988e-06,1.641593219448012e-05,-3.1413580218587738,0.10008720228570607,-0.10008719953070329,-2.348363330972009e-05,2.1489758690430335e-05,1.0019035813066783,1.8723406005154424e-06,-0.0033329037436804635,-7.876846388714171e-07,7.156089643913303e-07,35.0,1.0,330000000.0,odom,base_footprint,-0.003945914845488,-2.8968760557032017e-05,-0.0010022411040835,-0.0038567290224362,-7.731290663503357e-06,0.9999925584276392,-9.311723290461616e-05,"(1e-05, 0.0, 0.0, 0.0, 0.0, 0.0, 0.0, 1e-05, 0.0, 0.0, 0.0, 0.0, 0.0, 0.0, 1000000000000.0, 0.0, 0.0, 0.0, 0.0, 0.0, 0.0, 1000000000000.0, 0.0, 0.0, 0.0, 0.0, 0.0, 0.0, 1000000000000.0, 0.0, 0.0, 0.0, 0.0, 0.0, 0.0, 0.001)",0.0785143971322676,1.8477481184045808e-05,0.0,0.0,0.0,0.0005064456568693,"(0.0, 0.0, 0.0, 0.0, 0.0, 0.0, 0.0, 0.0, 0.0, 0.0, 0.0, 0.0, 0.0, 0.0, 0.0, 0.0, 0.0, 0.0, 0.0, 0.0, 0.0, 0.0, 0.0, 0.0, 0.0, 0.0, 0.0, 0.0, 0.0, 0.0, 0.0, 0.0, 0.0, 0.0, 0.0, 0.0)",0.2199999988079071,1.6706397218513303e-05,0.0,0.0,0.0,0.0,34,1,355000000,base_footprint,-0.0038576070813253,-7.827886543145034e-06,0.9999925544935482,-9.881193576019626e-05,0.0,0.0,0.0,0.0,0.0,0.0,0.0,0.0,0.0,3.012855487445786e-05,-0.0002658253862874,0.0006004844042627,0.0,0.0,0.0,0.0,0.0,0.0,0.0,0.0,0.0,0.778331714852113,0.0002111272805142,0.0060505487008085,0.0,0.0,0.0,0.0,0.0,0.0,0.0,0.0,0.0
1.389,-3.1413779917330467,-0.0037519136916565003,-1.1154992410207522e-06,1.7093969101988904e-05,-3.1413573062498097,0.13715396672821337,-0.13715396292984602,-3.227882093969873e-05,2.2141842748523914e-05,1.1131160493245433,1.9582103846653997e-05,-0.004567226964777633,-1.0827170009961769e-06,7.373233635258464e-07,35.0,1.0,330000000.0,odom,base_footprint,-0.003945914845488,-2.8968760557032017e-05,-0.0010022411040835,-0.0038567290224362,-7.731290663503357e-06,0.9999925584276392,-9.311723290461616e-05,"(1e-05, 0.0, 0.0, 0.0, 0.0, 0.0, 0.0, 1e-05, 0.0, 0.0, 0.0, 0.0, 0.0, 0.0, 1000000000000.0, 0.0, 0.0, 0.0, 0.0, 0.0, 0.0, 1000000000000.0, 0.0, 0.0, 0.0, 0.0, 0.0, 0.0, 1000000000000.0, 0.0, 0.0, 0.0, 0.0, 0.0, 0.0, 0.001)",0.0785143971322676,1.8477481184045808e-05,0.0,0.0,0.0,0.0005064456568693,"(0.0, 0.0, 0.0, 0.0, 0.0, 0.0, 0.0, 0.0, 0.0, 0.0, 0.0, 0.0, 0.0, 0.0, 0.0, 0.0, 0.0, 0.0, 0.0, 0.0, 0.0, 0.0, 0.0, 0.0, 0.0, 0.0, 0.0, 0.0, 0.0, 0.0, 0.0, 0.0, 0.0, 0.0, 0.0, 0.0)",0.2199999988079071,1.6706397218513303e-05,0.0,0.0,0.0,0.0,35,1,389000000,base_footprint,-0.0038590767901541,-7.97919135560059e-06,0.9999925479405514,-0.0001073593230618,0.0,0.0,0.0,0.0,0.0,0.0,0.0,0.0,0.0,2.875486047814975e-05,-0.0002411471867146,0.0006106277654475,0.0,0.0,0.0,0.0,0.0,0.0,0.0,0.0,0.0,0.752028821686936,0.0001810608241727,0.0057724006077479,0.0,0.0,0.0,0.0,0.0,0.0,0.0,0.0,0.0
1.423,-3.1413620420847024,-0.004590662758585499,-1.0398729938198878e-06,1.5949648344282252e-05,-3.141356568926446,0.16681343270605467,-0.1668134280573006,-3.938209273637441e-05,2.1071294737236003e-05,0.8906746539892283,-3.214858892756488e-05,-0.005554887152560531,-1.3208500763755626e-06,7.01674114749959e-07,36.0,1.0,364000000.0,odom,base_footprint,-0.0070750594425107,-3.006477680797309e-05,-0.0010023845141956,-0.0038578751927143,-7.865099765640292e-06,0.999992553188034,-0.0001015165724931,"(1e-05, 0.0, 0.0, 0.0, 0.0, 0.0, 0.0, 1e-05, 0.0, 0.0, 0.0, 0.0, 0.0, 0.0, 1000000000000.0, 0.0, 0.0, 0.0, 0.0, 0.0, 0.0, 1000000000000.0, 0.0, 0.0, 0.0, 0.0, 0.0, 0.0, 1000000000000.0, 0.0, 0.0, 0.0, 0.0, 0.0, 0.0, 0.001)",0.1047977374521079,1.5337530436650935e-05,0.0,0.0,0.0,0.0005599002988821,"(0.0, 0.0, 0.0, 0.0, 0.0, 0.0, 0.0, 0.0, 0.0, 0.0, 0.0, 0.0, 0.0, 0.0, 0.0, 0.0, 0.0, 0.0, 0.0, 0.0, 0.0, 0.0, 0.0, 0.0, 0.0, 0.0, 0.0, 0.0, 0.0, 0.0, 0.0, 0.0, 0.0, 0.0, 0.0, 0.0)",0.2199999988079071,1.6706397218513303e-05,0.0,0.0,0.0,0.0,36,1,423000000,base_footprint,-0.0038609622720615,-8.1456875969579e-06,0.9999925397731254,-0.0001153346244043,0.0,0.0,0.0,0.0,0.0,0.0,0.0,0.0,0.0,2.9505734501332395e-05,-0.0002459664316935,0.0005366160171762,0.0,0.0,0.0,0.0,0.0,0.0,0.0,0.0,0.0,0.6942465119590868,1.6352543322164977e-05,0.0053665621119647,0.0,0.0,0.0,0.0,0.0,0.0,0.0,0.0,0.0
1.457,-3.141348204934876,-0.005337849803874101,-9.002948565270202e-07,1.383714982639006e-05,-3.141355867252331,0.20017650577573767,-0.2001765001640126,-4.739906120566293e-05,1.984808257288845e-05,1.0018940861766668,-3.673309802845499e-05,-0.006665877454149283,-1.5895665697962027e-06,6.609411496771855e-07,38.0,1.0,430000000.0,odom,base_footprint,-0.0155977105898873,-3.212161754386056e-05,-0.0010027972825443,-0.0038614230700769,-8.181947511032113e-06,0.9999925377664436,-0.0001172874988313,"(1e-05, 0.0, 0.0, 0.0, 0.0, 0.0, 0.0, 1e-05, 0.0, 0.0, 0.0, 0.0, 0.0, 0.0, 1000000000000.0, 0.0, 0.0, 0.0, 0.0, 0.0, 0.0, 1000000000000.0, 0.0, 0.0, 0.0, 0.0, 0.0, 0.0, 1000000000000.0, 0.0, 0.0, 0.0, 0.0, 0.0, 0.0, 0.001)",0.1514152609736468,-2.264775865427424e-06,0.0,0.0,0.0,0.0005089260471392,"(0.0, 0.0, 0.0, 0.0, 0.0, 0.0, 0.0, 0.0, 0.0, 0.0, 0.0, 0.0, 0.0, 0.0, 0.0, 0.0, 0.0, 0.0, 0.0, 0.0, 0.0, 0.0, 0.0, 0.0, 0.0, 0.0, 0.0, 0.0, 0.0, 0.0, 0.0, 0.0, 0.0, 0.0, 0.0, 0.0)",0.2199999988079071,1.5337531294790097e-05,0.0,0.0,0.0,0.0,37,1,457000000,base_footprint,-0.0038632390136278,-8.305772176771459e-06,0.9999925301567888,-0.0001222536783363,0.0,0.0,0.0,0.0,0.0,0.0,0.0,0.0,0.0,3.0262478039795773e-05,-0.0001504204607459,0.00043807991682,0.0,0.0,0.0,0.0,0.0,0.0,0.0,0.0,0.0,0.5926622275628639,-4.652305446242292e-05,0.0044816979862538,0.0,0.0,0.0,0.0,0.0,0.0,0.0,0.0,0.0
1.491,-3.141334251713315,-0.005939916892466299,-9.077669736210576e-07,1.3953221560836226e-05,-3.1413552063111814,0.22462407715619648,-0.22462407082390787,-5.333637533024644e-05,-2.5883040015577253e-06,0.7341613027164805,-0.0006737653625959812,-0.0074799815484074455,-1.7858549643496908e-06,-8.619052325187226e-08,38.0,1.0,430000000.0,odom,base_footprint,-0.0155977105898873,-3.212161754386056e-05,-0.0010027972825443,-0.0038614230700769,-8.181947511032113e-06,0.9999925377664436,-0.0001172874988313,"(1e-05, 0.0, 0.0, 0.0, 0.0, 0.0, 0.0, 1e-05, 0.0, 0.0, 0.0, 0.0, 0.0, 0.0, 1000000000000.0, 0.0, 0.0, 0.0, 0.0, 0.0, 0.0, 1000000000000.0, 0.0, 0.0, 0.0, 0.0, 0.0, 0.0, 1000000000000.0, 0.0, 0.0, 0.0, 0.0, 0.0, 0.0, 0.001)",0.1514152609736468,-2.264775865427424e-06,0.0,0.0,0.0,0.0005089260471392,"(0.0, 0.0, 0.0, 0.0, 0.0, 0.0, 0.0, 0.0, 0.0, 0.0, 0.0, 0.0, 0.0, 0.0, 0.0, 0.0, 0.0, 0.0, 0.0, 0.0, 0.0, 0.0, 0.0, 0.0, 0.0, 0.0, 0.0, 0.0, 0.0, 0.0, 0.0, 0.0, 0.0, 0.0, 0.0, 0.0)",0.2199999988079071,1.5337531294790097e-05,0.0,0.0,0.0,0.0,38,1,491000000,base_footprint,-0.0038656820884659,-8.442975505974972e-06,0.9999925198370928,-0.000129230679897,0.0,0.0,0.0,0.0,0.0,0.0,0.0,0.0,0.0,3.064041875086109e-05,-6.046723378921127e-05,0.0004315836825432,0.0,0.0,0.0,0.0,0.0,0.0,0.0,0.0,0.0,0.4455192414747966,0.000102333371554,0.0033600702877274,0.0,0.0,0.0,0.0,0.0,0.0,0.0,0.0,0.0
1.525,-3.1413444827675057,-0.006348903738165601,6.876732388058179e-07,-1.0231054190512621e-05,-3.141355292501705,0.21801452868817617,-0.21801452254667575,-5.1748165262557335e-05,1.3570047970697771e-05,-0.19848493897958885,0.00048523579496262745,-0.007259883600315818,-1.73462887986288e-06,4.518825974242358e-07,40.0,1.0,497000000.0,odom,base_footprint,-0.0269628029999738,-3.3854715329585515e-05,-0.0010032883864898,-0.0038661781987215,-8.467130272366557e-06,0.9999925177393146,-0.0001306132838746,"(1e-05, 0.0, 0.0, 0.0, 0.0, 0.0, 0.0, 1e-05, 0.0, 0.0, 0.0, 0.0, 0.0, 0.0, 1000000000000.0, 0.0, 0.0, 0.0, 0.0, 0.0, 0.0, 1000000000000.0, 0.0, 0.0, 0.0, 0.0, 0.0, 0.0, 1000000000000.0, 0.0, 0.0, 0.0, 0.0, 0.0, 0.0, 0.001)",0.1839709039698384,-2.13054516083682e-05,0.0,0.0,0.0,0.0004106690082932,"(0.0, 0.0, 0.0, 0.0, 0.0, 0.0, 0.0, 0.0, 0.0, 0.0, 0.0, 0.0, 0.0, 0.0, 0.0, 0.0, 0.0, 0.0, 0.0, 0.0, 0.0, 0.0, 0.0, 0.0, 0.0, 0.0, 0.0, 0.0, 0.0, 0.0, 0.0, 0.0, 0.0, 0.0, 0.0, 0.0)",0.2199999988079071,0.0,0.0,0.0,0.0,0.0,39,1,525000000,base_footprint,-0.0038667455839207,-8.45274809658796e-06,0.9999925163732624,-0.0001241153127462,0.0,0.0,0.0,0.0,0.0,0.0,0.0,0.0,0.0,5.703412682354598e-05,-0.0003101088790561,-0.0016526432973614,0.0,0.0,0.0,0.0,0.0,0.0,0.0,0.0,0.0,0.2623224020172925,-0.0039781373339096,0.0025223566064259,0.0,0.0,0.0,0.0,0.0,0.0,0.0,0.0,0.0
1.5590000000000002,-3.1414830731429015,-0.0065301382619962,9.152539338432035e-06,-0.00013859037539587504,-3.1413548406191074,0.21801486498727002,-0.2180148588223537,-5.184676220759269e-05,7.8121505289516e-06,1.009907188740142e-05,-0.00017290983308547057,-0.007259894793555644,-1.7372103831880868e-06,2.601446126140883e-07,40.0,1.0,497000000.0,odom,base_footprint,-0.0269628029999738,-3.3854715329585515e-05,-0.0010032883864898,-0.0038661781987215,-8.467130272366557e-06,0.9999925177393146,-0.0001306132838746,"(1e-05, 0.0, 0.0, 0.0, 0.0, 0.0, 0.0, 1e-05, 0.0, 0.0, 0.0, 0.0, 0.0, 0.0, 1000000000000.0, 0.0, 0.0, 0.0, 0.0, 0.0, 0.0, 1000000000000.0, 0.0, 0.0, 0.0, 0.0, 0.0, 0.0, 1000000000000.0, 0.0, 0.0, 0.0, 0.0, 0.0, 0.0, 0.001)",0.1839709039698384,-2.13054516083682e-05,0.0,0.0,0.0,0.0004106690082932,"(0.0, 0.0, 0.0, 0.0, 0.0, 0.0, 0.0, 0.0, 0.0, 0.0, 0.0, 0.0, 0.0, 0.0, 0.0, 0.0, 0.0, 0.0, 0.0, 0.0, 0.0, 0.0, 0.0, 0.0, 0.0, 0.0, 0.0, 0.0, 0.0, 0.0, 0.0, 0.0, 0.0, 0.0, 0.0, 0.0)",0.2199999988079071,0.0,0.0,0.0,0.0,0.0,40,1,559000000,base_footprint,-0.003861781088886,-8.325365154212393e-06,0.9999925417582632,-5.4821148731056526e-05,0.0,0.0,0.0,0.0,0.0,0.0,0.0,0.0,0.0,0.0004581761260071,-0.0015065851599814,-0.0076418000420127,0.0,0.0,0.0,0.0,0.0,0.0,0.0,0.0,0.0,0.0551184988309069,-0.0116046448866444,0.0023283474607568,0.0,0.0,0.0,0.0,0.0,0.0,0.0,0.0,0.0
1.593,-3.141531212468643,-0.006536868862430996,2.4667276979766413e-06,-4.813932574165847e-05,-3.141354580474495,0.22461807198398795,-0.22461806561844566,-5.347552364438068e-05,-1.3322509505746698e-06,0.19829450440594384,-0.0002746066510368249,-0.007479781558164903,-1.7906215325554684e-06,-4.436395665413651e-08,42.0,1.0,564000000.0,odom,base_footprint,-0.039713926442275,-2.085578440860237e-05,-0.0010021613447055,-0.0038590939080744,-7.923990220508395e-06,0.9999925531180234,-3.224773077957878e-05,"(1e-05, 0.0, 0.0, 0.0, 0.0, 0.0, 0.0, 1e-05, 0.0, 0.0, 0.0, 0.0, 0.0, 0.0, 1000000000000.0, 0.0, 0.0, 0.0, 0.0, 0.0, 0.0, 1000000000000.0, 0.0, 0.0, 0.0, 0.0, 0.0, 0.0, 1000000000000.0, 0.0, 0.0, 0.0, 0.0, 0.0, 0.0, 0.001)",0.1919753767990212,-0.0004783131955975,0.0,0.0,0.0,-0.0070641702303615,"(0.0, 0.0, 0.0, 0.0, 0.0, 0.0, 0.0, 0.0, 0.0, 0.0, 0.0, 0.0, 0.0, 0.0, 0.0, 0.0, 0.0, 0.0, 0.0, 0.0, 0.0, 0.0, 0.0, 0.0, 0.0, 0.0, 0.0, 0.0, 0.0, 0.0, 0.0, 0.0, 0.0, 0.0, 0.0, 0.0)",0.2199999988079071,0.0,0.0,0.0,0.0,0.0,41,1,593000000,base_footprint,-0.0038462986376968,-6.145904245643283e-06,0.9999926024745652,-3.0743518003957294e-05,0.0,0.0,0.0,0.0,0.0,0.0,0.0,0.0,0.0,-0.0001936364931307,0.0008446401716444,0.0077177171330403,0.0,0.0,0.0,0.0,0.0,0.0,0.0,0.0,0.0,0.0236688565767939,0.0297999478694142,-0.0043901719066844,0.0,0.0,0.0,0.0,0.0,0.0,0.0,0.0,0.0
1.627,-3.14140995778202,-0.0066753102415942,-7.98874602674005e-06,0.00012125468662338433,-3.1413546248384514,0.21799730205400508,-0.2179972958783937,-5.18896251138126e-05,6.910041518411442e-05,-0.1988219198193053,0.0021150950791197923,-0.007259309948639751,-1.7460492238480973e-06,2.3010438256310105e-06,43.0,1.0,597000000.0,odom,base_footprint,-0.0460658041942765,-2.3913627114255808e-05,-0.0010009195272226,-0.0038491102467701,-6.605924622204533e-06,0.9999925908735956,-5.004581092901888e-05,"(1e-05, 0.0, 0.0, 0.0, 0.0, 0.0, 0.0, 1e-05, 0.0, 0.0, 0.0, 0.0, 0.0, 0.0, 1000000000000.0, 0.0, 0.0, 0.0, 0.0, 0.0, 0.0, 1000000000000.0, 0.0, 0.0, 0.0, 0.0, 0.0, 0.0, 1000000000000.0, 0.0, 0.0, 0.0, 0.0, 0.0, 0.0, 0.001)",0.1938494610398159,0.0004741388556612,0.0,0.0,0.0,0.0074843119610158,"(0.0, 0.0, 0.0, 0.0, 0.0, 0.0, 0.0, 0.0, 0.0, 0.0, 0.0, 0.0, 0.0, 0.0, 0.0, 0.0, 0.0, 0.0, 0.0, 0.0, 0.0, 0.0, 0.0, 0.0, 0.0, 0.0, 0.0, 0.0, 0.0, 0.0, 0.0, 0.0, 0.0, 0.0, 0.0, 0.0)",0.2199999988079071,0.0,0.0,0.0,0.0,0.0,42,1,627000000,base_footprint,-0.0038528572161297,-7.071075982784657e-06,0.9999925735185368,-9.137311377494344e-05,0.0,0.0,0.0,0.0,0.0,0.0,0.0,0.0,0.0,1.4976001777203591e-05,-0.0001860306559686,0.0015522900393125,0.0,0.0,0.0,0.0,0.0,0.0,0.0,0.0,0.0,0.207139770452835,-0.011931427444556,0.0038382699549035,0.0,0.0,0.0,0.0,0.0,0.0,0.0,0.0,0.0
1.661,-3.141367828466516,-0.007011598773262802,-2.7669614201339483e-06,4.212931550373611e-05,-3.1413523237946257,0.2180181060258683,-0.2180180997296787,-5.239624625962418e-05,5.627943374594199e-06,0.0006247438997962372,-0.0019060802345201267,-0.0072600027124575224,-1.7552536589216995e-06,1.8741051437398682e-07,44.0,1.0,630000000.0,odom,base_footprint,-0.0525771374849533,-2.9783468989918653e-05,-0.0010015053001185,-0.0038529269433616,-7.101667526626076e-06,0.9999925729479042,-9.461799924416538e-05,"(1e-05, 0.0, 0.0, 0.0, 0.0, 0.0, 0.0, 1e-05, 0.0, 0.0, 0.0, 0.0, 0.0, 0.0, 1000000000000.0, 0.0, 0.0, 0.0, 0.0, 0.0, 0.0, 1000000000000.0, 0.0, 0.0, 0.0, 0.0, 0.0, 0.0, 1000000000000.0, 0.0, 0.0, 0.0, 0.0, 0.0, 0.0, 0.001)",0.2014273166625019,7.171107748808484e-05,0.0,0.0,0.0,0.0016695918536512,"(0.0, 0.0, 0.0, 0.0, 0.0, 0.0, 0.0, 0.0, 0.0, 0.0, 0.0, 0.0, 0.0, 0.0, 0.0, 0.0, 0.0, 0.0, 0.0, 0.0, 0.0, 0.0, 0.0, 0.0, 0.0, 0.0, 0.0, 0.0, 0.0, 0.0, 0.0, 0.0, 0.0, 0.0, 0.0, 0.0)",0.2199999988079071,0.0,0.0,0.0,0.0,0.0,43,1,661000000,base_footprint,-0.0038524019023305,-7.077387674564574e-06,0.9999925731260916,-0.0001124373240601,0.0,0.0,0.0,0.0,0.0,0.0,0.0,0.0,0.0,8.069820291161482e-05,-0.00032775244018,0.0010746700922835,0.0,0.0,0.0,0.0,0.0,0.0,0.0,0.0,0.0,0.3677650773881374,-0.0008442627522294,0.0031603848044772,0.0,0.0,0.0,0.0,0.0,0.0,0.0,0.0,0.0
1.695,-3.1413338971110103,-0.007415566119153498,-2.2275698227983324e-06,3.3931355505778527e-05,-3.1413521363841115,0.22462463886898532,-0.22462463237188318,-5.402608994715374e-05,6.4499873690308425e-06,0.19839437967318374,2.468600583893825e-05,-0.007480000257680577,-1.8099358013920297e-06,2.1478457938872707e-07,45.0,1.0,664000000.0,odom,base_footprint,-0.0596403022074161,-3.2407295518952554e-05,-0.0010014281904809,-0.0038519222213999,-6.872718967154922e-06,0.9999925747302651,-0.0001145962526146,"(1e-05, 0.0, 0.0, 0.0, 0.0, 0.0, 0.0, 1e-05, 0.0, 0.0, 0.0, 0.0, 0.0, 0.0, 1000000000000.0, 0.0, 0.0, 0.0, 0.0, 0.0, 0.0, 1000000000000.0, 0.0, 0.0, 0.0, 0.0, 0.0, 0.0, 1000000000000.0, 0.0, 0.0, 0.0, 0.0, 0.0, 0.0, 0.001)",0.2145535185013368,2.47623296557788e-05,0.0,0.0,0.0,0.0011232372189913,"(0.0, 0.0, 0.0, 0.0, 0.0, 0.0, 0.0, 0.0, 0.0, 0.0, 0.0, 0.0, 0.0, 0.0, 0.0, 0.0, 0.0, 0.0, 0.0, 0.0, 0.0, 0.0, 0.0, 0.0, 0.0, 0.0, 0.0, 0.0, 0.0, 0.0, 0.0, 0.0, 0.0, 0.0, 0.0, 0.0)",0.2199999988079071,0.0,0.0,0.0,0.0,0.0,44,1,695000000,base_footprint,-0.0038671814912967,-9.172763017844237e-06,0.999992514009988,-0.0001294108097258,0.0,0.0,0.0,0.0,0.0,0.0,0.0,0.0,0.0,1.0463573697065976e-05,0.00027882756579,0.0015638924222321,0.0,0.0,0.0,0.0,0.0,0.0,0.0,0.0,0.0,0.1975146392685128,0.0010029503560073,0.0005993909431343,0.0,0.0,0.0,0.0,0.0,0.0,0.0,0.0,0.0
1.729,-3.141290459339474,-0.0074659705138659105,-2.8567700229159283e-06,4.343777153614781e-05,-3.141351921599532,0.2174670796241297,-0.21746707332281548,-5.2351282388567534e-05,0.0016034100866464936,-0.2149417190647332,0.04795675973806194,-0.007241653489080385,-1.9463754073381084e-06,5.339355588532824e-05,45.0,1.0,664000000.0,odom,base_footprint,-0.0596403022074161,-3.2407295518952554e-05,-0.0010014281904809,-0.0038519222213999,-6.872718967154922e-06,0.9999925747302651,-0.0001145962526146,"(1e-05, 0.0, 0.0, 0.0, 0.0, 0.0, 0.0, 1e-05, 0.0, 0.0, 0.0, 0.0, 0.0, 0.0, 1000000000000.0, 0.0, 0.0, 0.0, 0.0, 0.0, 0.0, 1000000000000.0, 0.0, 0.0, 0.0, 0.0, 0.0, 0.0, 1000000000000.0, 0.0, 0.0, 0.0, 0.0, 0.0, 0.0, 0.001)",0.2145535185013368,2.47623296557788e-05,0.0,0.0,0.0,0.0011232372189913,"(0.0, 0.0, 0.0, 0.0, 0.0, 0.0, 0.0, 0.0, 0.0, 0.0, 0.0, 0.0, 0.0, 0.0, 0.0, 0.0, 0.0, 0.0, 0.0, 0.0, 0.0, 0.0, 0.0, 0.0, 0.0, 0.0, 0.0, 0.0, 0.0, 0.0, 0.0, 0.0, 0.0, 0.0, 0.0, 0.0)",0.2084210515022277,3.590295455069281e-05,0.0,0.0,0.0,0.0,45,1,729000000,base_footprint,-0.0038635817699734,-8.743833962733119e-06,0.9999925248820232,-0.000151127524137,0.0,0.0,0.0,0.0,0.0,0.0,0.0,0.0,0.0,4.677092224215403e-05,-0.0003677160881746,0.0012199362953822,0.0,0.0,0.0,0.0,0.0,0.0,0.0,0.0,0.0,0.0065021691203161,-0.000664510664938,0.001104110035799,0.0,0.0,0.0,0.0,0.0,0.0,0.0,0.0,0.0
1.763,-3.1412700828306495,-0.007172694864632595,-2.6297523308717725e-06,2.0376508824693218e-05,-3.1412985280436465,0.2176106860073544,-0.21761067659462197,-6.400486094643573e-05,0.001253473471569117,0.004312504000741517,-0.010508607059380675,-0.007246435480911873,-2.292352722892591e-06,4.17406666032516e-05,47.0,1.0,730000000.0,odom,base_footprint,-0.0741057842206735,-3.736504338737596e-05,-0.001002773943936,-0.0038633810984993,-8.726765573638352e-06,0.999992525476392,-0.0001523209739916,"(1e-05, 0.0, 0.0, 0.0, 0.0, 0.0, 0.0, 1e-05, 0.0, 0.0, 0.0, 0.0, 0.0, 0.0, 1000000000000.0, 0.0, 0.0, 0.0, 0.0, 0.0, 0.0, 1000000000000.0, 0.0, 0.0, 0.0, 0.0, 0.0, 0.0, 1000000000000.0, 0.0, 0.0, 0.0, 0.0, 0.0, 0.0, 0.001)",0.2196868901069352,1.3222405555973329e-05,0.0,0.0,0.0,0.001217625523107,"(0.0, 0.0, 0.0, 0.0, 0.0, 0.0, 0.0, 0.0, 0.0, 0.0, 0.0, 0.0, 0.0, 0.0, 0.0, 0.0, 0.0, 0.0, 0.0, 0.0, 0.0, 0.0, 0.0, 0.0, 0.0, 0.0, 0.0, 0.0, 0.0, 0.0, 0.0, 0.0, 0.0, 0.0, 0.0, 0.0)",0.2084210515022277,3.590295455069281e-05,0.0,0.0,0.0,0.0,46,1,763000000,base_footprint,-0.003860341339932,-8.561040400630956e-06,0.9999925358066308,-0.0001613148223694,0.0,0.0,0.0,0.0,0.0,0.0,0.0,0.0,0.0,4.960710526731229e-05,-0.0003881733338874,-1.6785577412182293e-05,0.0,0.0,0.0,0.0,0.0,0.0,0.0,0.0,0.0,-0.3261536538362498,-0.0007671135091111,-0.0025532305188612,0.0,0.0,0.0,0.0,0.0,0.0,0.0,0.0,0.0
1.7970000000000002,-3.141246530166524,-0.007085797495994001,-3.024166797067115e-06,2.3552664125237044e-05,-3.1412835716842302,0.20650188946628642,-0.20650187960255603,-6.38259964823691e-05,0.0007521661758291131,-0.1969049031902992,0.046741733482951055,-0.006876512560454153,-2.2207814635242268e-06,2.5047133655109467e-05,48.0,1.0,764000000.0,odom,base_footprint,-0.0812562984746999,-3.995704555862189e-05,-0.0010024014711072,-0.0038604372437024,-8.552072727729523e-06,0.9999925354432032,-0.0001612731336403,"(1e-05, 0.0, 0.0, 0.0, 0.0, 0.0, 0.0, 1e-05, 0.0, 0.0, 0.0, 0.0, 0.0, 0.0, 1000000000000.0, 0.0, 0.0, 0.0, 0.0, 0.0, 0.0, 1000000000000.0, 0.0, 0.0, 0.0, 0.0, 0.0, 0.0, 1000000000000.0, 0.0, 0.0, 0.0, 0.0, 0.0, 0.0, 0.001)",0.20860152554034,4.94376491411505e-07,0.0,0.0,0.0,-8.233049766955977e-05,"(0.0, 0.0, 0.0, 0.0, 0.0, 0.0, 0.0, 0.0, 0.0, 0.0, 0.0, 0.0, 0.0, 0.0, 0.0, 0.0, 0.0, 0.0, 0.0, 0.0, 0.0, 0.0, 0.0, 0.0, 0.0, 0.0, 0.0, 0.0, 0.0, 0.0, 0.0, 0.0, 0.0, 0.0, 0.0, 0.0)",0.2084210515022277,3.590295455069281e-05,0.0,0.0,0.0,0.0,47,1,797000000,base_footprint,-0.0038602861292097,-8.410975515541133e-06,0.99999253405213,-0.0001730903113655,0.0,0.0,0.0,0.0,0.0,0.0,0.0,0.0,0.0,5.372079476719341e-05,-0.0001872973064154,0.000568723107467,0.0,0.0,0.0,0.0,0.0,0.0,0.0,0.0,0.0,-0.0033016432110063,0.001197036598754,-0.000348073985697,0.0,0.0,0.0,0.0,0.0,0.0,0.0,0.0,0.0
1.831,-3.1412337834361517,-0.007091134085828996,-3.1368154572883358e-06,1.2746730372548143e-05,-3.141258524550575,0.20666614566419328,-0.20666613412786028,-6.905315940482185e-05,0.0004027663782791036,0.004932618555761534,-0.010492486412913195,-0.0068819822475759095,-2.3548858707689224e-06,1.3412120396694152e-05,49.0,1.0,797000000.0,odom,base_footprint,-0.0881333817684583,-4.2955208570822734e-05,-0.0010023572320188,-0.0038602882157716,-8.407879439146472e-06,0.999992533994105,-0.0001733789134315,"(1e-05, 0.0, 0.0, 0.0, 0.0, 0.0, 0.0, 1e-05, 0.0, 0.0, 0.0, 0.0, 0.0, 0.0, 1000000000000.0, 0.0, 0.0, 0.0, 0.0, 0.0, 0.0, 1000000000000.0, 0.0, 0.0, 0.0, 0.0, 0.0, 0.0, 1000000000000.0, 0.0, 0.0, 0.0, 0.0, 0.0, 0.0, 0.001)",0.2084790090956743,2.6229910308054924e-05,0.0,0.0,0.0,0.0005550576122435,"(0.0, 0.0, 0.0, 0.0, 0.0, 0.0, 0.0, 0.0, 0.0, 0.0, 0.0, 0.0, 0.0, 0.0, 0.0, 0.0, 0.0, 0.0, 0.0, 0.0, 0.0, 0.0, 0.0, 0.0, 0.0, 0.0, 0.0, 0.0, 0.0, 0.0, 0.0, 0.0, 0.0, 0.0, 0.0, 0.0)",0.2084210515022277,2.6229910872643813e-05,0.0,0.0,0.0,0.0,48,1,831000000,base_footprint,-0.003861086200142,-8.390955213572204e-06,0.9999925298400048,-0.0001794634617561,0.0,0.0,0.0,0.0,0.0,0.0,0.0,0.0,0.0,4.461256040045431e-05,-0.0001153598136272,0.0001485339621514,0.0,0.0,0.0,0.0,0.0,0.0,0.0,0.0,0.0,0.0055775720336241,-4.2385757580826e-05,-0.0001116222538691,0.0,0.0,0.0,0.0,0.0,0.0,0.0,0.0,0.0
1.8650000000000002,-3.141235107998381,-0.007097434315381804,-3.049961586848271e-06,-1.3245622292323846e-06,-3.1412451124301786,0.2131097358168968,-0.21310972294668237,-7.406440322000452e-05,7.233231299204896e-06,0.19350120578689234,-0.01187787228167864,-0.007096553769190406,-2.4767524198006444e-06,2.408666022635231e-07,50.0,1.0,830000000.0,odom,base_footprint,-0.0950160434175108,-4.599879388333195e-05,-0.0010024624535248,-0.003861086200142,-8.390955213572204e-06,0.9999925298400048,-0.0001794634617561,"(1e-05, 0.0, 0.0, 0.0, 0.0, 0.0, 0.0, 1e-05, 0.0, 0.0, 0.0, 0.0, 0.0, 0.0, 1000000000000.0, 0.0, 0.0, 0.0, 0.0, 0.0, 0.0, 1000000000000.0, 0.0, 0.0, 0.0, 0.0, 0.0, 0.0, 1000000000000.0, 0.0, 0.0, 0.0, 0.0, 0.0, 0.0, 0.001)",0.2086629221937389,2.2083343868606877e-05,0.0,0.0,0.0,0.0001481871260858,"(0.0, 0.0, 0.0, 0.0, 0.0, 0.0, 0.0, 0.0, 0.0, 0.0, 0.0, 0.0, 0.0, 0.0, 0.0, 0.0, 0.0, 0.0, 0.0, 0.0, 0.0, 0.0, 0.0, 0.0, 0.0, 0.0, 0.0, 0.0, 0.0, 0.0, 0.0, 0.0, 0.0, 0.0, 0.0, 0.0)",0.2084210515022277,2.6229910872643813e-05,0.0,0.0,0.0,0.0,49,1,865000000,base_footprint,-0.0038633850680856,-8.581984065139347e-06,0.9999925210780471,-0.000178801948014,0.0,0.0,0.0,0.0,0.0,0.0,0.0,0.0,0.0,3.27581117562607e-05,-2.629342916485296e-05,-0.0002536178182406,0.0,0.0,0.0,0.0,0.0,0.0,0.0,0.0,0.0,0.0054702350161271,-0.0001373158186334,-0.0001556836419995,0.0,0.0,0.0,0.0,0.0,0.0,0.0,0.0,0.0
1.899,-3.141249271070447,-0.007103457678229799,-2.8163610223697427e-06,-1.4163072066253335e-05,-3.1412448715635763,0.20700846691183006,-0.20700845439275117,-7.199382261534519e-05,-0.00035397703428604227,-0.18322128844044253,-0.010847155122680094,-0.006893381542032205,-2.3660466939217948e-06,-1.178743524172521e-05,50.0,1.0,830000000.0,odom,base_footprint,-0.0950160434175108,-4.599879388333195e-05,-0.0010024624535248,-0.003861086200142,-8.390955213572204e-06,0.9999925298400048,-0.0001794634617561,"(1e-05, 0.0, 0.0, 0.0, 0.0, 0.0, 0.0, 1e-05, 0.0, 0.0, 0.0, 0.0, 0.0, 0.0, 1000000000000.0, 0.0, 0.0, 0.0, 0.0, 0.0, 0.0, 1000000000000.0, 0.0, 0.0, 0.0, 0.0, 0.0, 0.0, 1000000000000.0, 0.0, 0.0, 0.0, 0.0, 0.0, 0.0, 0.001)",0.2086629221937389,2.2083343868606877e-05,0.0,0.0,0.0,0.0001481871260858,"(0.0, 0.0, 0.0, 0.0, 0.0, 0.0, 0.0, 0.0, 0.0, 0.0, 0.0, 0.0, 0.0, 0.0, 0.0, 0.0, 0.0, 0.0, 0.0, 0.0, 0.0, 0.0, 0.0, 0.0, 0.0, 0.0, 0.0, 0.0, 0.0, 0.0, 0.0, 0.0, 0.0, 0.0, 0.0, 0.0)",0.2084210515022277,2.6229910872643813e-05,0.0,0.0,0.0,0.0,50,1,899000000,base_footprint,-0.0038674707442039,-9.00797595080574e-06,0.9999925065221088,-0.0001717222450897,0.0,0.0,0.0,0.0,0.0,0.0,0.0,0.0,0.0,1.809297747396836e-05,9.13469202201728e-05,-0.000600408644922,0.0,0.0,0.0,0.0,0.0,0.0,0.0,0.0,0.0,0.0050566582168942,-0.0002712858422062,-0.000225885039367,0.0,0.0,0.0,0.0,0.0,0.0,0.0,0.0,0.0
1.933,-3.141268020015778,-0.007110057126735805,-2.0450562886492024e-06,-1.874894533093752e-05,-3.141256658998818,0.20714162368390424,-0.20714161199155043,-6.959846381409602e-05,-0.0005422732242020443,0.003998701864089422,-0.005654540237717779,-0.006897815696830018,-2.2646355007481473e-06,-1.805769836592808e-05,52.0,1.0,897000000.0,odom,base_footprint,-0.1090079299491868,-5.1787046447965913e-05,-0.0010032971062423,-0.0038673209357728,-8.991860324102627e-06,0.9999925070519354,-0.0001720113692868,"(1e-05, 0.0, 0.0, 0.0, 0.0, 0.0, 0.0, 1e-05, 0.0, 0.0, 0.0, 0.0, 0.0, 0.0, 1000000000000.0, 0.0, 0.0, 0.0, 0.0, 0.0, 0.0, 1000000000000.0, 0.0, 0.0, 0.0, 0.0, 0.0, 0.0, 1000000000000.0, 0.0, 0.0, 0.0, 0.0, 0.0, 0.0, 0.001)",0.2090160495817448,1.1417161947921832e-05,0.0,0.0,0.0,-0.0005916415785659,"(0.0, 0.0, 0.0, 0.0, 0.0, 0.0, 0.0, 0.0, 0.0, 0.0, 0.0, 0.0, 0.0, 0.0, 0.0, 0.0, 0.0, 0.0, 0.0, 0.0, 0.0, 0.0, 0.0, 0.0, 0.0, 0.0, 0.0, 0.0, 0.0, 0.0, 0.0, 0.0, 0.0, 0.0, 0.0, 0.0)",0.2199999988079071,1.7580014173290692e-05,0.0,0.0,0.0,0.0,51,1,933000000,base_footprint,-0.0038705593037726,-9.012091509118404e-06,0.9999924961381352,-0.0001623480208149,0.0,0.0,0.0,0.0,0.0,0.0,0.0,0.0,0.0,-0.0001160326197553,-0.0003133192921988,0.0004489156600951,0.0,0.0,0.0,0.0,0.0,0.0,0.0,0.0,0.0,0.0346446397061871,-0.0015685905962208,-0.002105776366418,0.0,0.0,0.0,0.0,0.0,0.0,0.0,0.0,0.0
1.967,-3.1412496441881106,-0.007403885929963189,-2.332283050133913e-06,1.8375827667505007e-05,-3.141274716697184,0.22450583462053053,-0.22450582327357158,-7.137868622936865e-05,-0.0006830759521187896,0.5214477758746635,-0.004228310147650009,-0.007476043938295247,-2.3019480438965033e-06,-2.2746429205555698e-05,54.0,1.0,964000000.0,odom,base_footprint,-0.1232896985650951,-5.6286063309779866e-05,-0.0010040265220957,-0.0038735413817909,-8.074545785713537e-06,0.9999924827906668,-0.0001731303655306,"(1e-05, 0.0, 0.0, 0.0, 0.0, 0.0, 0.0, 1e-05, 0.0, 0.0, 0.0, 0.0, 0.0, 0.0, 1000000000000.0, 0.0, 0.0, 0.0, 0.0, 0.0, 0.0, 1000000000000.0, 0.0, 0.0, 0.0, 0.0, 0.0, 0.0, 1000000000000.0, 0.0, 0.0, 0.0, 0.0, 0.0, 0.0, 0.001)",0.2206283459545514,-9.295817947311354e-05,0.0,0.0,0.0,-0.0023238906126867,"(0.0, 0.0, 0.0, 0.0, 0.0, 0.0, 0.0, 0.0, 0.0, 0.0, 0.0, 0.0, 0.0, 0.0, 0.0, 0.0, 0.0, 0.0, 0.0, 0.0, 0.0, 0.0, 0.0, 0.0, 0.0, 0.0, 0.0, 0.0, 0.0, 0.0, 0.0, 0.0, 0.0, 0.0, 0.0, 0.0)",0.2199999988079071,1.7580014173290692e-05,0.0,0.0,0.0,0.0,52,1,967000000,base_footprint,-0.0038744542924397,-8.064573784123998e-06,0.9999924795295426,-0.0001715320842493,0.0,0.0,0.0,0.0,0.0,0.0,0.0,0.0,0.0,-2.3724218924854308e-05,0.0007483142497203,-0.0013484037773376,0.0,0.0,0.0,0.0,0.0,0.0,0.0,0.0,0.0,0.3058112344141812,-0.0012288836151369,0.0027730666804777,0.0,0.0,0.0,0.0,0.0,0.0,0.0,0.0,0.0
2.001,-3.141243481522991,-0.007498180456256706,-6.836207846428748e-07,6.162665119546774e-06,-3.1412974631263895,0.21852931583942328,-0.21852930631838408,-6.450776907310862e-05,-9.844073898727571e-05,-0.17947503847168914,0.01755661300695237,-0.007277025901261693,-2.1459778582282693e-06,-3.2780766082762812e-06,54.0,1.0,964000000.0,odom,base_footprint,-0.1232896985650951,-5.6286063309779866e-05,-0.0010040265220957,-0.0038735413817909,-8.074545785713537e-06,0.9999924827906668,-0.0001731303655306,"(1e-05, 0.0, 0.0, 0.0, 0.0, 0.0, 0.0, 1e-05, 0.0, 0.0, 0.0, 0.0, 0.0, 0.0, 1000000000000.0, 0.0, 0.0, 0.0, 0.0, 0.0, 0.0, 1000000000000.0, 0.0, 0.0, 0.0, 0.0, 0.0, 0.0, 1000000000000.0, 0.0, 0.0, 0.0, 0.0, 0.0, 0.0, 0.001)",0.2206283459545514,-9.295817947311354e-05,0.0,0.0,0.0,-0.0023238906126867,"(0.0, 0.0, 0.0, 0.0, 0.0, 0.0, 0.0, 0.0, 0.0, 0.0, 0.0, 0.0, 0.0, 0.0, 0.0, 0.0, 0.0, 0.0, 0.0, 0.0, 0.0, 0.0, 0.0, 0.0, 0.0, 0.0, 0.0, 0.0, 0.0, 0.0, 0.0, 0.0, 0.0, 0.0, 0.0, 0.0)",0.2199999988079071,1.7580014173290692e-05,0.0,0.0,0.0,0.0,53,2,1000000,base_footprint,-0.0038761235473193,-7.462651629143787e-06,0.9999924725324412,-0.0001746110243111,0.0,0.0,0.0,0.0,0.0,0.0,0.0,0.0,0.0,7.39257286075525e-05,-0.0001359029591443,-7.306398428075064e-05,0.0,0.0,0.0,0.0,0.0,0.0,0.0,0.0,0.0,-0.0049148538535774,0.0003248735516669,0.0021463143189742,0.0,0.0,0.0,0.0,0.0,0.0,0.0,0.0,0.0
2.035,-3.1412667732278723,-0.007486598202829292,1.541841365145717e-06,-2.3291704881245327e-05,-3.141300741202998,0.21825352115039148,-0.2182535118513902,-6.371090538067774e-05,-3.715318813762908e-05,-0.008282122793747739,0.0018404669924818806,-0.007267841943626934,-2.1268610551965656e-06,-1.2372011649830484e-06,55.0,1.0,997000000.0,odom,base_footprint,-0.130567773501567,-5.694229005755292e-05,-0.001004419993426,-0.0038761608054108,-7.57176683435547e-06,0.9999924723663496,-0.0001747304043968,"(1e-05, 0.0, 0.0, 0.0, 0.0, 0.0, 0.0, 1e-05, 0.0, 0.0, 0.0, 0.0, 0.0, 0.0, 1000000000000.0, 0.0, 0.0, 0.0, 0.0, 0.0, 0.0, 1000000000000.0, 0.0, 0.0, 0.0, 0.0, 0.0, 0.0, 1000000000000.0, 0.0, 0.0, 0.0, 0.0, 0.0, 0.0, 0.001)",0.220454715559898,-7.786317082095511e-05,0.0,0.0,0.0,-1.0736499149650232e-05,"(0.0, 0.0, 0.0, 0.0, 0.0, 0.0, 0.0, 0.0, 0.0, 0.0, 0.0, 0.0, 0.0, 0.0, 0.0, 0.0, 0.0, 0.0, 0.0, 0.0, 0.0, 0.0, 0.0, 0.0, 0.0, 0.0, 0.0, 0.0, 0.0, 0.0, 0.0, 0.0, 0.0, 0.0, 0.0, 0.0)",0.2199999988079071,0.0,0.0,0.0,0.0,0.0,54,2,35000000,base_footprint,-0.0038724917860625,-7.278913134105568e-06,0.9999924885702344,-0.0001629647027383,0.0,0.0,0.0,0.0,0.0,0.0,0.0,0.0,0.0,-1.8129644821936025e-05,-0.0005369784363942,-0.0014125634586203,0.0,0.0,0.0,0.0,0.0,0.0,0.0,0.0,0.0,-0.0173656724595683,-0.0026028301348651,0.0006565998430242,0.0,0.0,0.0,0.0,0.0,0.0,0.0,0.0,0.0
2.069,-3.14123161032877,-0.007434743722370019,-2.3197910403415566e-06,3.516289910221459e-05,-3.1413019784041625,0.2245444888640492,-0.22454447937793565,-6.526951006379623e-05,5.5450749692132124e-05,0.18891794935909081,0.0027808990339267627,-0.00747733115907411,-2.190443715169825e-06,1.846509964748e-06,56.0,2.0,30000000.0,odom,base_footprint,-0.1378361036819246,-5.573364321480751e-05,-0.0010040287306454,-0.0038733314508592,-7.220266086525255e-06,0.9999924848842362,-0.0001656091492089,"(1e-05, 0.0, 0.0, 0.0, 0.0, 0.0, 0.0, 1e-05, 0.0, 0.0, 0.0, 0.0, 0.0, 0.0, 1000000000000.0, 0.0, 0.0, 0.0, 0.0, 0.0, 0.0, 1000000000000.0, 0.0, 0.0, 0.0, 0.0, 0.0, 0.0, 1000000000000.0, 0.0, 0.0, 0.0, 0.0, 0.0, 0.0, 0.001)",0.2199754000829031,-0.0001491427393672,0.0,0.0,0.0,-0.0011547886513937,"(0.0, 0.0, 0.0, 0.0, 0.0, 0.0, 0.0, 0.0, 0.0, 0.0, 0.0, 0.0, 0.0, 0.0, 0.0, 0.0, 0.0, 0.0, 0.0, 0.0, 0.0, 0.0, 0.0, 0.0, 0.0, 0.0, 0.0, 0.0, 0.0, 0.0, 0.0, 0.0, 0.0, 0.0, 0.0, 0.0)",0.2199999988079071,0.0,0.0,0.0,0.0,0.0,55,2,69000000,base_footprint,-0.0038716371830112,-6.242355038597615e-06,0.99999248886741,-0.0001805417389087,0.0,0.0,0.0,0.0,0.0,0.0,0.0,0.0,0.0,2.4136523636077126e-05,0.0010026930265081,0.0038267084298631,0.0,0.0,0.0,0.0,0.0,0.0,0.0,0.0,0.0,-0.0590113308987497,0.0101458059630243,-0.003694765421802,0.0,0.0,0.0,0.0,0.0,0.0,0.0,0.0,0.0
2.103,-3.1411728578891758,-0.007453774323669893,-5.43116965554212e-06,5.8752439594300654e-05,-3.141300131894198,0.21745662206957797,-0.21745661276581146,-6.361077889902379e-05,0.0007397374015580846,-0.2128488526868239,0.020549148704683256,-0.007241305175294841,-2.217175861541815e-06,2.463325547188422e-05,56.0,2.0,30000000.0,odom,base_footprint,-0.1378361036819246,-5.573364321480751e-05,-0.0010040287306454,-0.0038733314508592,-7.220266086525255e-06,0.9999924848842362,-0.0001656091492089,"(1e-05, 0.0, 0.0, 0.0, 0.0, 0.0, 0.0, 1e-05, 0.0, 0.0, 0.0, 0.0, 0.0, 0.0, 1000000000000.0, 0.0, 0.0, 0.0, 0.0, 0.0, 0.0, 1000000000000.0, 0.0, 0.0, 0.0, 0.0, 0.0, 0.0, 1000000000000.0, 0.0, 0.0, 0.0, 0.0, 0.0, 0.0, 0.001)",0.2199754000829031,-0.0001491427393672,0.0,0.0,0.0,-0.0011547886513937,"(0.0, 0.0, 0.0, 0.0, 0.0, 0.0, 0.0, 0.0, 0.0, 0.0, 0.0, 0.0, 0.0, 0.0, 0.0, 0.0, 0.0, 0.0, 0.0, 0.0, 0.0, 0.0, 0.0, 0.0, 0.0, 0.0, 0.0, 0.0, 0.0, 0.0, 0.0, 0.0, 0.0, 0.0, 0.0, 0.0)",0.2199999988079071,0.0,0.0,0.0,0.0,0.0,56,2,103000000,base_footprint,-0.0038742823678297,-8.565969067077306e-06,0.9999924728685226,-0.000209926310104,0.0,0.0,0.0,0.0,0.0,0.0,0.0,0.0,0.0,-0.0001930975788364,-0.0008469850692475,0.0009305893822359,0.0,0.0,0.0,0.0,0.0,0.0,0.0,0.0,0.0,0.0418717038525072,0.0010966853465726,0.0039100918482774,0.0,0.0,0.0,0.0,0.0,0.0,0.0,0.0,0.0
2.137,-3.141118670853638,-0.007456252332977309,-4.468651761843672e-06,5.418703553772275e-05,-3.141275498638726,0.2173875000845162,-0.21738748915130948,-6.894552079606624e-05,0.0014364859688055422,-0.0020757352871399307,0.02092338039782155,-0.007239003327711292,-2.478769945788448e-06,4.783498276122456e-05,58.0,2.0,97000000.0,odom,base_footprint,-0.1525072373626173,-6.170786555702679e-05,-0.0010044549798695,-0.0038766809458067,-7.882501185251224e-06,0.999992464121168,-0.0002073248296462,"(1e-05, 0.0, 0.0, 0.0, 0.0, 0.0, 0.0, 1e-05, 0.0, 0.0, 0.0, 0.0, 0.0, 0.0, 1000000000000.0, 0.0, 0.0, 0.0, 0.0, 0.0, 0.0, 1000000000000.0, 0.0, 0.0, 0.0, 0.0, 0.0, 0.0, 1000000000000.0, 0.0, 0.0, 0.0, 0.0, 0.0, 0.0, 0.001)",0.2196031504643277,0.000168878555415,0.0,0.0,0.0,0.0013761441980407,"(0.0, 0.0, 0.0, 0.0, 0.0, 0.0, 0.0, 0.0, 0.0, 0.0, 0.0, 0.0, 0.0, 0.0, 0.0, 0.0, 0.0, 0.0, 0.0, 0.0, 0.0, 0.0, 0.0, 0.0, 0.0, 0.0, 0.0, 0.0, 0.0, 0.0, 0.0, 0.0, 0.0, 0.0, 0.0, 0.0)",0.2199999988079071,0.0002216450375271,0.0,0.0,0.0,0.0,57,2,137000000,base_footprint,-0.0038708036216209,-8.92722970466344e-06,0.9999924802821596,-0.0002370205953372,0.0,0.0,0.0,0.0,0.0,0.0,0.0,0.0,0.0,-1.9591614458600035e-05,-0.0002677652066838,0.0016803123640423,0.0,0.0,0.0,0.0,0.0,0.0,0.0,0.0,0.0,0.0024443270828088,-0.0043092260463332,-0.0007975369784564,0.0,0.0,0.0,0.0,0.0,0.0,0.0,0.0,0.0
2.171,-3.141061880700909,-0.007459770060929682,-5.020427849599285e-06,5.6790152728858345e-05,-3.1412276636559646,0.22399501181360942,-0.22399499689356484,-8.175592272456805e-05,0.0016864558120740132,0.19842377564844482,0.007506601899954082,-0.007459033312248823,-2.941959619244334e-06,5.6158978542064646e-05,60.0,2.0,164000000.0,odom,base_footprint,-0.1672034770236437,-7.175494950559494e-05,-0.0010034506714363,-0.0038685206820774,-9.337853202362424e-06,0.999992483322193,-0.0002603068387615,"(1e-05, 0.0, 0.0, 0.0, 0.0, 0.0, 0.0, 1e-05, 0.0, 0.0, 0.0, 0.0, 0.0, 0.0, 1000000000000.0, 0.0, 0.0, 0.0, 0.0, 0.0, 0.0, 1000000000000.0, 0.0, 0.0, 0.0, 0.0, 0.0, 0.0, 1000000000000.0, 0.0, 0.0, 0.0, 0.0, 0.0, 0.0, 0.001)",0.2194342598240314,3.754003601847891e-05,0.0,0.0,0.0,0.0016395993224131,"(0.0, 0.0, 0.0, 0.0, 0.0, 0.0, 0.0, 0.0, 0.0, 0.0, 0.0, 0.0, 0.0, 0.0, 0.0, 0.0, 0.0, 0.0, 0.0, 0.0, 0.0, 0.0, 0.0, 0.0, 0.0, 0.0, 0.0, 0.0, 0.0, 0.0, 0.0, 0.0, 0.0, 0.0, 0.0, 0.0)",0.2199999988079071,0.0002216450375271,0.0,0.0,0.0,0.0,58,2,171000000,base_footprint,-0.0038679247701717,-9.52504586363923e-06,0.999992484282201,-0.0002654173281251,0.0,0.0,0.0,0.0,0.0,0.0,0.0,0.0,0.0,-0.0001331292464648,-0.0003113285069269,0.001720750478952,0.0,0.0,0.0,0.0,0.0,0.0,0.0,0.0,0.0,0.0035533657984456,0.0001153282652023,0.0001829338797852,0.0,0.0,0.0,0.0,0.0,0.0,0.0,0.0,0.0
2.205,-3.1410048355781286,-0.007464592349214205,-4.9375980834617675e-06,5.704512278059681e-05,-3.141171504677423,0.2175325137957275,-0.21753249450424764,-9.161357888206128e-05,0.0016727160677247447,-0.19406900954600387,-0.0004126049354134668,-0.007243831973873714,-3.2622299515998283e-06,5.570144505523401e-05,60.0,2.0,164000000.0,odom,base_footprint,-0.1672034770236437,-7.175494950559494e-05,-0.0010034506714363,-0.0038685206820774,-9.337853202362424e-06,0.999992483322193,-0.0002603068387615,"(1e-05, 0.0, 0.0, 0.0, 0.0, 0.0, 0.0, 1e-05, 0.0, 0.0, 0.0, 0.0, 0.0, 0.0, 1000000000000.0, 0.0, 0.0, 0.0, 0.0, 0.0, 0.0, 1000000000000.0, 0.0, 0.0, 0.0, 0.0, 0.0, 0.0, 1000000000000.0, 0.0, 0.0, 0.0, 0.0, 0.0, 0.0, 0.001)",0.2194342598240314,3.754003601847891e-05,0.0,0.0,0.0,0.0016395993224131,"(0.0, 0.0, 0.0, 0.0, 0.0, 0.0, 0.0, 0.0, 0.0, 0.0, 0.0, 0.0, 0.0, 0.0, 0.0, 0.0, 0.0, 0.0, 0.0, 0.0, 0.0, 0.0, 0.0, 0.0, 0.0, 0.0, 0.0, 0.0, 0.0, 0.0, 0.0, 0.0, 0.0, 0.0, 0.0, 0.0)",0.2199999988079071,0.0002216450375271,0.0,0.0,0.0,0.0,59,2,205000000,base_footprint,-0.0038637674657349,-9.654601273618396e-06,0.9999924923754172,-0.0002939397234601,0.0,0.0,0.0,0.0,0.0,0.0,0.0,0.0,0.0,7.857559383740031e-05,-0.0003960450314536,0.0014776872392678,0.0,0.0,0.0,0.0,0.0,0.0,0.0,0.0,0.0,0.0051355684046771,0.0002689051361767,0.0003642826552109,0.0,0.0,0.0,0.0,0.0,0.0,0.0,0.0,0.0
2.239,-3.140492377516115,-0.007465526186574201,-7.407047318576431e-06,0.0005124580620137209,-3.1411158032323674,0.21770281018173282,-0.21770278543041902,-0.00010381165891354723,0.0013693536347279209,0.005114005585745503,-0.009109982972877594,-0.0072495026686207,-3.631974466846181e-06,4.559947603643977e-05,61.0,2.0,197000000.0,odom,base_footprint,-0.174447462288109,-7.652775863254722e-05,-0.0010029443079561,-0.0038645853265107,-9.793561826059069e-06,0.9999924907859848,-0.0002885411277023,"(1e-05, 0.0, 0.0, 0.0, 0.0, 0.0, 0.0, 1e-05, 0.0, 0.0, 0.0, 0.0, 0.0, 0.0, 1000000000000.0, 0.0, 0.0, 0.0, 0.0, 0.0, 0.0, 1000000000000.0, 0.0, 0.0, 0.0, 0.0, 0.0, 0.0, 1000000000000.0, 0.0, 0.0, 0.0, 0.0, 0.0, 0.0, 0.001)",0.2195934958715231,2.178309426530652e-05,0.0,0.0,0.0,0.0015877297171236,"(0.0, 0.0, 0.0, 0.0, 0.0, 0.0, 0.0, 0.0, 0.0, 0.0, 0.0, 0.0, 0.0, 0.0, 0.0, 0.0, 0.0, 0.0, 0.0, 0.0, 0.0, 0.0, 0.0, 0.0, 0.0, 0.0, 0.0, 0.0, 0.0, 0.0, 0.0, 0.0, 0.0, 0.0, 0.0, 0.0)",0.2199999988079071,3.754003773792647e-05,0.0,0.0,0.0,0.091896004974842,60,2,239000000,base_footprint,-0.0038621874059774,-9.85911723098209e-06,0.9999923903365748,-0.000550163777862,0.0,0.0,0.0,0.0,0.0,0.0,0.0,0.0,0.0,0.0012941592542516,-0.001369411308172,0.0899364158266404,0.0,0.0,0.0,0.0,0.0,0.0,0.0,0.0,0.0,-0.0199046203235573,0.0074101756509988,0.0006047463492406,0.0,0.0,0.0,0.0,0.0,0.0,0.0,0.0,0.0
2.273,-3.1373607088181745,-0.007449457649043589,-1.9301373832504934e-05,0.0031316686979403485,-3.141070203756331,0.2245574721716517,-0.2245574415247415,-0.00011732000860163475,0.09309311918447365,0.20584570540296937,2.7544674339262976,-0.007477744749551142,-1.5507343061073827e-05,0.0031000008688429727,62.0,2.0,230000000.0,odom,base_footprint,-0.1816973284392209,-8.158933352870645e-05,-0.0010025335268841,-0.0038615716284414,-9.23535068640464e-06,0.9999924956681148,-0.0003111056455153,"(1e-05, 0.0, 0.0, 0.0, 0.0, 0.0, 0.0, 1e-05, 0.0, 0.0, 0.0, 0.0, 0.0, 0.0, 1000000000000.0, 0.0, 0.0, 0.0, 0.0, 0.0, 0.0, 1000000000000.0, 0.0, 0.0, 0.0, 0.0, 0.0, 0.0, 1000000000000.0, 0.0, 0.0, 0.0, 0.0, 0.0, 0.0, 0.001)",0.2197876169171881,2.6744073076833173e-05,0.0,0.0,0.0,0.0011334055810736,"(0.0, 0.0, 0.0, 0.0, 0.0, 0.0, 0.0, 0.0, 0.0, 0.0, 0.0, 0.0, 0.0, 0.0, 0.0, 0.0, 0.0, 0.0, 0.0, 0.0, 0.0, 0.0, 0.0, 0.0, 0.0, 0.0, 0.0, 0.0, 0.0, 0.0, 0.0, 0.0, 0.0, 0.0, 0.0, 0.0)",0.2199999988079071,3.754003773792647e-05,0.0,0.0,0.0,0.091896004974842,61,2,273000000,base_footprint,-0.0038616967805533,-1.594198418416939e-05,0.999990304778576,-0.0021159850375539,0.0,0.0,0.0,0.0,0.0,0.0,0.0,0.0,0.0,-0.0006618411171174,-0.0001807997347564,0.0916345918270784,0.0,0.0,0.0,0.0,0.0,0.0,0.0,0.0,0.0,0.0077223435886934,0.0150939155509131,-0.0011071486238682,0.0,0.0,0.0,0.0,0.0,0.0,0.0,0.0,0.0
2.307,-3.1342524833549463,-0.007456640091683009,-4.309476331329998e-05,0.003108225463228198,-3.1379702028874883,0.2180850259502141,-0.2180835950796663,-0.0007900005276621163,0.09074376786660136,-0.19436775439752585,-0.0705510906267953,-0.00726213286722173,-3.728906090406145e-05,0.0030217674699578255,62.0,2.0,230000000.0,odom,base_footprint,-0.1816973284392209,-8.158933352870645e-05,-0.0010025335268841,-0.0038615716284414,-9.23535068640464e-06,0.9999924956681148,-0.0003111056455153,"(1e-05, 0.0, 0.0, 0.0, 0.0, 0.0, 0.0, 1e-05, 0.0, 0.0, 0.0, 0.0, 0.0, 0.0, 1000000000000.0, 0.0, 0.0, 0.0, 0.0, 0.0, 0.0, 1000000000000.0, 0.0, 0.0, 0.0, 0.0, 0.0, 0.0, 1000000000000.0, 0.0, 0.0, 0.0, 0.0, 0.0, 0.0, 0.001)",0.2197876169171881,2.6744073076833173e-05,0.0,0.0,0.0,0.0011334055810736,"(0.0, 0.0, 0.0, 0.0, 0.0, 0.0, 0.0, 0.0, 0.0, 0.0, 0.0, 0.0, 0.0, 0.0, 0.0, 0.0, 0.0, 0.0, 0.0, 0.0, 0.0, 0.0, 0.0, 0.0, 0.0, 0.0, 0.0, 0.0, 0.0, 0.0, 0.0, 0.0, 0.0, 0.0, 0.0, 0.0)",0.2199999988079071,3.754003773792647e-05,0.0,0.0,0.0,0.091896004974842,62,2,307000000,base_footprint,-0.0038623983584411,-2.196921768665081e-05,0.999985805855246,-0.0036700796051603,0.0,0.0,0.0,0.0,0.0,0.0,0.0,0.0,0.0,-0.0006714808601389,-0.0001237489354303,0.0912497666707728,0.0,0.0,0.0,0.0,0.0,0.0,0.0,0.0,0.0,0.0054046624374832,0.0200099293725779,-9.940903735939974e-05,0.0,0.0,0.0,0.0,0.0,0.0,0.0,0.0,0.0
2.341,-3.131236398759116,-0.007463402538270297,-6.60639439861e-05,0.003016084595830471,-3.13494843541753,0.21826146250743034,-0.21825664487971114,-0.001450166105691018,0.09038415174214227,0.005298395111599021,-0.010799283016789457,-0.007267862549375134,-5.9237738522312724e-05,0.003009792253013338,64.0,2.0,297000000.0,odom,base_footprint,-0.1963819855317791,-0.0001337078437673,-0.0010025992452683,-0.0038620660138757,-2.0356208796142356e-05,0.9999872302689136,-0.0032593451545263,"(1e-05, 0.0, 0.0, 0.0, 0.0, 0.0, 0.0, 1e-05, 0.0, 0.0, 0.0, 0.0, 0.0, 0.0, 1000000000000.0, 0.0, 0.0, 0.0, 0.0, 0.0, 0.0, 1000000000000.0, 0.0, 0.0, 0.0, 0.0, 0.0, 0.0, 1000000000000.0, 0.0, 0.0, 0.0, 0.0, 0.0, 0.0, 0.001)",0.2193669581065736,-1.033019796411517e-05,0.0,0.0,0.0,0.0913548788428801,"(0.0, 0.0, 0.0, 0.0, 0.0, 0.0, 0.0, 0.0, 0.0, 0.0, 0.0, 0.0, 0.0, 0.0, 0.0, 0.0, 0.0, 0.0, 0.0, 0.0, 0.0, 0.0, 0.0, 0.0, 0.0, 0.0, 0.0, 0.0, 0.0, 0.0, 0.0, 0.0, 0.0, 0.0, 0.0, 0.0)",0.2199999988079071,0.0,0.0,0.0,0.0,0.0831497386097908,63,2,341000000,base_footprint,-0.0038645023772314,-2.785366293669858e-05,0.9999791258662576,-0.0051780959150188,0.0,0.0,0.0,0.0,0.0,0.0,0.0,0.0,0.0,-0.0007883737011243,5.201004406975423e-06,0.0817876713833475,0.0,0.0,0.0,0.0,0.0,0.0,0.0,0.0,0.0,0.0076227392006819,0.0198166072355165,-0.0002535333431649,0.0,0.0,0.0,0.0,0.0,0.0,0.0,0.0,0.0
2.375,-3.1284544893404003,-0.007471420058149103,-8.756968720840001e-05,0.002781909418715589,-3.131938643164517,0.22504956357944766,-0.2250390763605427,-0.0021725970849881117,0.08401290999600414,0.20384687903955936,-0.1913285809651092,-0.007493690155290373,-8.28399111288328e-05,0.002797629902866938,66.0,2.0,364000000.0,odom,base_footprint,-0.2110932058052884,-0.0002731249034922,-0.0010033262631388,-0.0038674170502162,-3.21439935474214e-05,0.999973545135594,-0.0061604448764466,"(1e-05, 0.0, 0.0, 0.0, 0.0, 0.0, 0.0, 1e-05, 0.0, 0.0, 0.0, 0.0, 0.0, 0.0, 1000000000000.0, 0.0, 0.0, 0.0, 0.0, 0.0, 0.0, 1000000000000.0, 0.0, 0.0, 0.0, 0.0, 0.0, 0.0, 1000000000000.0, 0.0, 0.0, 0.0, 0.0, 0.0, 0.0, 0.001)",0.2198090813769361,-1.7579148792289893e-05,0.0,0.0,0.0,0.0818099436256374,"(0.0, 0.0, 0.0, 0.0, 0.0, 0.0, 0.0, 0.0, 0.0, 0.0, 0.0, 0.0, 0.0, 0.0, 0.0, 0.0, 0.0, 0.0, 0.0, 0.0, 0.0, 0.0, 0.0, 0.0, 0.0, 0.0, 0.0, 0.0, 0.0, 0.0, 0.0, 0.0, 0.0, 0.0, 0.0, 0.0)",0.2199999988079071,0.0,0.0,0.0,0.0,0.0831497386097908,64,2,375000000,base_footprint,-0.0038688617553531,-3.3897293439185166e-05,0.9999709389553628,-0.0065690185280425,0.0,0.0,0.0,0.0,0.0,0.0,0.0,0.0,0.0,-0.000633159036045,9.325647224122229e-05,0.0816833703397504,0.0,0.0,0.0,0.0,0.0,0.0,0.0,0.0,0.0,0.004487536885439,0.0176953456772916,-0.0001407902146311,0.0,0.0,0.0,0.0,0.0,0.0,0.0,0.0,0.0
2.409,-3.125684390637886,-0.007476177525036709,-0.00010784735865470001,0.0027700987025141006,-3.12914101326165,0.2185829990545588,-0.2185660543536206,-0.0027216465559368776,0.08097915252886846,-0.1941911268735394,-0.09110382784191216,-0.007278118456162474,-0.00010045379748637168,0.00269660577921132,66.0,2.0,364000000.0,odom,base_footprint,-0.2110932058052884,-0.0002731249034922,-0.0010033262631388,-0.0038674170502162,-3.21439935474214e-05,0.999973545135594,-0.0061604448764466,"(1e-05, 0.0, 0.0, 0.0, 0.0, 0.0, 0.0, 1e-05, 0.0, 0.0, 0.0, 0.0, 0.0, 0.0, 1000000000000.0, 0.0, 0.0, 0.0, 0.0, 0.0, 0.0, 1000000000000.0, 0.0, 0.0, 0.0, 0.0, 0.0, 0.0, 1000000000000.0, 0.0, 0.0, 0.0, 0.0, 0.0, 0.0, 0.001)",0.2198090813769361,-1.7579148792289893e-05,0.0,0.0,0.0,0.0818099436256374,"(0.0, 0.0, 0.0, 0.0, 0.0, 0.0, 0.0, 0.0, 0.0, 0.0, 0.0, 0.0, 0.0, 0.0, 0.0, 0.0, 0.0, 0.0, 0.0, 0.0, 0.0, 0.0, 0.0, 0.0, 0.0, 0.0, 0.0, 0.0, 0.0, 0.0, 0.0, 0.0, 0.0, 0.0, 0.0, 0.0)",0.2199999988079071,0.0,0.0,0.0,0.0,0.0831497386097908,65,2,409000000,base_footprint,-0.0038739413130029,-3.9436339995360966e-05,0.9999608615183184,-0.0079540213113303,0.0,0.0,0.0,0.0,0.0,0.0,0.0,0.0,0.0,-0.0006516647893472,8.11042110889877e-05,0.0813712911905018,0.0,0.0,0.0,0.0,0.0,0.0,0.0,0.0,0.0,0.0028175705028684,0.0171525918096266,-0.0001802168722593,0.0,0.0,0.0,0.0,0.0,0.0,0.0,0.0,0.0
2.443,-3.1229674890580994,-0.007444475419225577,-0.00012693009137899994,0.002716901579786768,-3.1264444074824387,0.21862759692745917,-0.21860251323973945,-0.003311697985189567,0.08105721808050109,0.0013392754624735864,0.002344310859838757,-0.007279305856374415,-0.00012011358632370125,0.0026992053620806867,67.0,2.0,397000000.0,odom,base_footprint,-0.2183482560577969,-0.0003718205945148,-0.0010040283182232,-0.00387270640698,-3.767395614392335e-05,0.9999643263184288,-0.0075064516443618,"(1e-05, 0.0, 0.0, 0.0, 0.0, 0.0, 0.0, 1e-05, 0.0, 0.0, 0.0, 0.0, 0.0, 0.0, 1000000000000.0, 0.0, 0.0, 0.0, 0.0, 0.0, 0.0, 1000000000000.0, 0.0, 0.0, 0.0, 0.0, 0.0, 0.0, 1000000000000.0, 0.0, 0.0, 0.0, 0.0, 0.0, 0.0, 0.001)",0.219949761955852,-3.295538730551002e-05,0.0,0.0,0.0,0.0814311770750684,"(0.0, 0.0, 0.0, 0.0, 0.0, 0.0, 0.0, 0.0, 0.0, 0.0, 0.0, 0.0, 0.0, 0.0, 0.0, 0.0, 0.0, 0.0, 0.0, 0.0, 0.0, 0.0, 0.0, 0.0, 0.0, 0.0, 0.0, 0.0, 0.0, 0.0, 0.0, 0.0, 0.0, 0.0, 0.0, 0.0)",0.2084210515022277,0.0,0.0,0.0,0.0,-0.0084464596584439,66,2,443000000,base_footprint,-0.0038699469106516,-5.240077529603207e-05,0.9999491483087576,-0.0093124412297632,0.0,0.0,0.0,0.0,0.0,0.0,0.0,0.0,0.0,-0.0020169817332653,0.0024103641756832,0.071030442932619,0.0,0.0,0.0,0.0,0.0,0.0,0.0,0.0,0.0,-0.1483278927992652,0.0105627821347377,-0.0042846457555515,0.0,0.0,0.0,0.0,0.0,0.0,0.0,0.0,0.0
2.477,-3.1218881852281815,-0.007209556017961916,-0.00013441658424870003,0.0010793038299179436,-3.1237452021203578,0.21318694115128778,-0.21315298867192076,-0.0038046415955610645,-0.012566752484662309,-0.16338305634148328,-2.8115306476025044,-0.007098020656163418,-0.00012521895795987282,-0.0004184728577392549,69.0,2.0,464000000.0,odom,base_footprint,-0.2328944798173878,-0.0006227373337257,-0.0010034736614229,-0.0038675441097698,-5.6489200010490416e-05,0.9999446775476152,-0.0097816540383234,"(1e-05, 0.0, 0.0, 0.0, 0.0, 0.0, 0.0, 1e-05, 0.0, 0.0, 0.0, 0.0, 0.0, 0.0, 1000000000000.0, 0.0, 0.0, 0.0, 0.0, 0.0, 0.0, 1000000000000.0, 0.0, 0.0, 0.0, 0.0, 0.0, 0.0, 1000000000000.0, 0.0, 0.0, 0.0, 0.0, 0.0, 0.0, 0.001)",0.2113503884419896,-0.0001464374991268,0.0,0.0,0.0,0.0204303402554087,"(0.0, 0.0, 0.0, 0.0, 0.0, 0.0, 0.0, 0.0, 0.0, 0.0, 0.0, 0.0, 0.0, 0.0, 0.0, 0.0, 0.0, 0.0, 0.0, 0.0, 0.0, 0.0, 0.0, 0.0, 0.0, 0.0, 0.0, 0.0, 0.0, 0.0, 0.0, 0.0, 0.0, 0.0, 0.0, 0.0)",0.2084210515022277,0.0,0.0,0.0,0.0,-0.0084464596584439,67,2,477000000,base_footprint,-0.003873818256684,-5.028583292236052e-05,0.9999439625086476,-0.0098520478050907,0.0,0.0,0.0,0.0,0.0,0.0,0.0,0.0,0.0,0.0008818143946768,0.0007219886911605,0.005813860481832,0.0,0.0,0.0,0.0,0.0,0.0,0.0,0.0,0.0,-0.1427340925536345,-0.0018321675608967,0.0012461892785271,0.0,0.0,0.0,0.0,0.0,0.0,0.0,0.0,0.0
2.511,-3.1220838910602873,-0.007100580191656297,-0.00013192138004279998,-0.00019570583210581916,-3.124163674978097,0.20692075647707978,-0.20688932918644154,-0.0036062348552474196,-0.008243319357811836,-0.18817371394018026,0.12983282663214632,-0.006889430897161507,-0.00011915131300138302,-0.00027450253461513415,69.0,2.0,464000000.0,odom,base_footprint,-0.2328944798173878,-0.0006227373337257,-0.0010034736614229,-0.0038675441097698,-5.6489200010490416e-05,0.9999446775476152,-0.0097816540383234,"(1e-05, 0.0, 0.0, 0.0, 0.0, 0.0, 0.0, 1e-05, 0.0, 0.0, 0.0, 0.0, 0.0, 0.0, 1000000000000.0, 0.0, 0.0, 0.0, 0.0, 0.0, 0.0, 1000000000000.0, 0.0, 0.0, 0.0, 0.0, 0.0, 0.0, 1000000000000.0, 0.0, 0.0, 0.0, 0.0, 0.0, 0.0, 0.001)",0.2113503884419896,-0.0001464374991268,0.0,0.0,0.0,0.0204303402554087,"(0.0, 0.0, 0.0, 0.0, 0.0, 0.0, 0.0, 0.0, 0.0, 0.0, 0.0, 0.0, 0.0, 0.0, 0.0, 0.0, 0.0, 0.0, 0.0, 0.0, 0.0, 0.0, 0.0, 0.0, 0.0, 0.0, 0.0, 0.0, 0.0, 0.0, 0.0, 0.0, 0.0, 0.0, 0.0, 0.0)",0.2084210515022277,0.0,0.0,0.0,0.0,-0.0084464596584439,68,2,511000000,base_footprint,-0.0038748026026443,-4.0709941301851866e-05,0.9999449187429436,-0.0097541646315477,0.0,0.0,0.0,0.0,0.0,0.0,0.0,0.0,0.0,0.0004948304591237,-0.0004513009032825,-0.0080822302191068,0.0,0.0,0.0,0.0,0.0,0.0,0.0,0.0,0.0,-0.0569933247597475,-0.006754899097585,0.0014968206147328,0.0,0.0,0.0,0.0,0.0,0.0,0.0,0.0,0.0
2.545,-3.1219902724081154,-0.007044355731045504,-0.0001261403315846,9.361865217183407e-05,-3.1244381775127126,0.20654851053085638,-0.20651812013627874,-0.0035430577038546678,-0.009058530931360664,-0.011178556943645598,-0.024480828034499334,-0.00687707093366248,-0.00011695584942255671,-0.00030164908001431014,71.0,2.0,530000000.0,odom,base_footprint,-0.2466754386630244,-0.0008735719705607,-0.0010036805141618,-0.0038712140306006,-4.027992634441083e-05,0.9999451140456128,-0.0097355521550229,"(1e-05, 0.0, 0.0, 0.0, 0.0, 0.0, 0.0, 1e-05, 0.0, 0.0, 0.0, 0.0, 0.0, 0.0, 1000000000000.0, 0.0, 0.0, 0.0, 0.0, 0.0, 0.0, 1000000000000.0, 0.0, 0.0, 0.0, 0.0, 0.0, 0.0, 1000000000000.0, 0.0, 0.0, 0.0, 0.0, 0.0, 0.0, 0.001)",0.2071628114037279,-0.0004881183464338,0.0,0.0,0.0,0.0061627798889824,"(0.0, 0.0, 0.0, 0.0, 0.0, 0.0, 0.0, 0.0, 0.0, 0.0, 0.0, 0.0, 0.0, 0.0, 0.0, 0.0, 0.0, 0.0, 0.0, 0.0, 0.0, 0.0, 0.0, 0.0, 0.0, 0.0, 0.0, 0.0, 0.0, 0.0, 0.0, 0.0, 0.0, 0.0, 0.0, 0.0)",0.2084210515022277,0.0,0.0,0.0,0.0,-0.0174332838505506,69,2,545000000,base_footprint,-0.0038690101429077,-4.3202483933176806e-05,0.9999444832943242,-0.0098009807318749,0.0,0.0,0.0,0.0,0.0,0.0,0.0,0.0,0.0,-0.0009423522487373,-0.0002467641478925,0.0071411440006616,0.0,0.0,0.0,0.0,0.0,0.0,0.0,0.0,0.0,-0.0632761459717698,0.0124403393256623,-0.0015193304296319,0.0,0.0,0.0,0.0,0.0,0.0,0.0,0.0,0.0
2.579,-3.1220220255001534,-0.007015183149343074,-0.00014173997868460004,-3.1753092037956065e-05,-3.1247398265927266,0.21246008226589966,-0.2124299117597724,-0.0035803835224984325,-0.01798795299680118,0.17752467672802644,-0.26815081277599145,-0.007073951189269892,-0.0001171176536176207,-0.0005989988347934794,72.0,2.0,564000000.0,odom,base_footprint,-0.2536850824378314,-0.0010122000361837,-0.001003709505817,-0.0038705646268664,-4.22097044925066e-05,0.9999443553678682,-0.0098134150910305,"(1e-05, 0.0, 0.0, 0.0, 0.0, 0.0, 0.0, 1e-05, 0.0, 0.0, 0.0, 0.0, 0.0, 0.0, 1000000000000.0, 0.0, 0.0, 0.0, 0.0, 0.0, 0.0, 1000000000000.0, 0.0, 0.0, 0.0, 0.0, 0.0, 0.0, 1000000000000.0, 0.0, 0.0, 0.0, 0.0, 0.0, 0.0, 0.001)",0.2064936863244144,2.3006581132788487e-05,0.0,0.0,0.0,0.0004134806035366,"(0.0, 0.0, 0.0, 0.0, 0.0, 0.0, 0.0, 0.0, 0.0, 0.0, 0.0, 0.0, 0.0, 0.0, 0.0, 0.0, 0.0, 0.0, 0.0, 0.0, 0.0, 0.0, 0.0, 0.0, 0.0, 0.0, 0.0, 0.0, 0.0, 0.0, 0.0, 0.0, 0.0, 0.0, 0.0, 0.0)",0.2084210515022277,0.0,0.0,0.0,0.0,-0.0174332838505506,70,2,579000000,base_footprint,-0.0038713442299383,-4.410913088813342e-05,0.9999446296655468,-0.009785108648882,0.0,0.0,0.0,0.0,0.0,0.0,0.0,0.0,0.0,-0.0005891677324689,0.00015657071579,-0.0112214222533169,0.0,0.0,0.0,0.0,0.0,0.0,0.0,0.0,0.0,0.03933922900076,-0.0007997625284377,-0.000299880593269,0.0,0.0,0.0,0.0,0.0,0.0,0.0,0.0,0.0
2.613,-3.122587556705961,-0.007067409025700799,-0.00013861199444379995,-0.0005655312058077122,-3.1253388254275203,0.20590983488619874,-0.2058826361414424,-0.003346675710623395,-0.016170057183865286,-0.1967041255165441,0.05459146585393079,-0.006855921308967098,-0.00010960770372995758,-0.000538462904222714,72.0,2.0,564000000.0,odom,base_footprint,-0.2536850824378314,-0.0010122000361837,-0.001003709505817,-0.0038705646268664,-4.22097044925066e-05,0.9999443553678682,-0.0098134150910305,"(1e-05, 0.0, 0.0, 0.0, 0.0, 0.0, 0.0, 1e-05, 0.0, 0.0, 0.0, 0.0, 0.0, 0.0, 1000000000000.0, 0.0, 0.0, 0.0, 0.0, 0.0, 0.0, 1000000000000.0, 0.0, 0.0, 0.0, 0.0, 0.0, 0.0, 1000000000000.0, 0.0, 0.0, 0.0, 0.0, 0.0, 0.0, 0.001)",0.2064936863244144,2.3006581132788487e-05,0.0,0.0,0.0,0.0004134806035366,"(0.0, 0.0, 0.0, 0.0, 0.0, 0.0, 0.0, 0.0, 0.0, 0.0, 0.0, 0.0, 0.0, 0.0, 0.0, 0.0, 0.0, 0.0, 0.0, 0.0, 0.0, 0.0, 0.0, 0.0, 0.0, 0.0, 0.0, 0.0, 0.0, 0.0, 0.0, 0.0, 0.0, 0.0, 0.0, 0.0)",0.2084210515022277,0.0,0.0,0.0,0.0,-0.0174332838505506,71,2,613000000,base_footprint,-0.0038720444591504,-4.568607112044042e-05,0.999947353701804,-0.0095023686125621,0.0,0.0,0.0,0.0,0.0,0.0,0.0,0.0,0.0,0.0001140045550467,-0.0001918179168654,-0.0160743439983101,0.0,0.0,0.0,0.0,0.0,0.0,0.0,0.0,0.0,0.015441187572592,-0.0057225079059879,0.0012491677757383,0.0,0.0,0.0,0.0,0.0,0.0,0.0,0.0,0.0
2.6470000000000002,-3.1229253027153607,-0.0071330867598027314,-0.00013370784779910007,-0.00033774600939961985,-3.125877288331743,0.2059404376108727,-0.20591500730076912,-0.003236295981823585,-0.01581875753793456,0.0009190007409594721,0.010549538916838585,-0.006856997667706685,-0.00010597187775814454,-0.000526764626013221,73.0,2.0,597000000.0,odom,base_footprint,-0.2605320018459119,-0.0011484826134451,-0.0010042165746225,-0.0038741788239153,-4.635480223367181e-05,0.999946214425832,-0.0096206468140322,"(1e-05, 0.0, 0.0, 0.0, 0.0, 0.0, 0.0, 1e-05, 0.0, 0.0, 0.0, 0.0, 0.0, 0.0, 1000000000000.0, 0.0, 0.0, 0.0, 0.0, 0.0, 0.0, 1000000000000.0, 0.0, 0.0, 0.0, 0.0, 0.0, 0.0, 1000000000000.0, 0.0, 0.0, 0.0, 0.0, 0.0, 0.0, 0.001)",0.2079383013493219,0.0001368592001193,0.0,0.0,0.0,-0.0163897760171175,"(0.0, 0.0, 0.0, 0.0, 0.0, 0.0, 0.0, 0.0, 0.0, 0.0, 0.0, 0.0, 0.0, 0.0, 0.0, 0.0, 0.0, 0.0, 0.0, 0.0, 0.0, 0.0, 0.0, 0.0, 0.0, 0.0, 0.0, 0.0, 0.0, 0.0, 0.0, 0.0, 0.0, 0.0, 0.0, 0.0)",0.2199999988079071,2.30065816140268e-05,0.0,0.0,0.0,0.0578493922948837,72,2,647000000,base_footprint,-0.0038580572997057,-4.720716475602234e-05,0.9999489980436584,-0.0093335136384807,0.0,0.0,0.0,0.0,0.0,0.0,0.0,0.0,0.0,-0.0017615652294505,0.0013966513352633,0.0125755443387203,0.0,0.0,0.0,0.0,0.0,0.0,0.0,0.0,0.0,0.2197588775465872,0.0054340075264285,-0.0015938405703826,0.0,0.0,0.0,0.0,0.0,0.0,0.0,0.0,0.0
2.681,-3.1211307599286573,-0.007427911801377585,-0.00014544374172100003,0.0017945427867034347,-3.126404052957756,0.22418843706176148,-0.22416257814129426,-0.0034049777155730544,0.062214253743557074,0.5479879714981617,2.3433336721168656,-0.007464490896696051,-0.00012112807251338762,0.002071734649660451,75.0,2.0,664000000.0,odom,base_footprint,-0.2747059768749749,-0.0014173779733932,-0.0010033593536198,-0.0038681733555318,-4.688001810869331e-05,0.9999449474441936,-0.0097538258126882,"(1e-05, 0.0, 0.0, 0.0, 0.0, 0.0, 0.0, 1e-05, 0.0, 0.0, 0.0, 0.0, 0.0, 0.0, 1000000000000.0, 0.0, 0.0, 0.0, 0.0, 0.0, 0.0, 1000000000000.0, 0.0, 0.0, 0.0, 0.0, 0.0, 0.0, 1000000000000.0, 0.0, 0.0, 0.0, 0.0, 0.0, 0.0, 0.001)",0.2191365892722476,3.6726612023755406e-06,0.0,0.0,0.0,0.0593435869082181,"(0.0, 0.0, 0.0, 0.0, 0.0, 0.0, 0.0, 0.0, 0.0, 0.0, 0.0, 0.0, 0.0, 0.0, 0.0, 0.0, 0.0, 0.0, 0.0, 0.0, 0.0, 0.0, 0.0, 0.0, 0.0, 0.0, 0.0, 0.0, 0.0, 0.0, 0.0, 0.0, 0.0, 0.0, 0.0, 0.0)",0.2199999988079071,2.30065816140268e-05,0.0,0.0,0.0,0.0578493922948837,73,2,681000000,base_footprint,-0.0038645311863762,-4.890708613158249e-05,0.9999401958159774,-0.0102307281418048,0.0,0.0,0.0,0.0,0.0,0.0,0.0,0.0,0.0,-0.0003456209894908,-0.0004361573560366,0.0595590619610084,0.0,0.0,0.0,0.0,0.0,0.0,0.0,0.0,0.0,0.1094716217992227,0.0167084194762229,0.0047974093257863,0.0,0.0,0.0,0.0,0.0,0.0,0.0,0.0,0.0
2.715,-3.1191116017379272,-0.007450137372595034,-0.00016023673580419992,0.002019158190730064,-3.1243323183080958,0.21762072186017614,-0.21758830597210946,-0.003756020118667394,0.059032352472928123,-0.19722868473229227,-0.09555259070957808,-0.007245562809112481,-0.00013220684843317986,0.001965777337348507,75.0,2.0,664000000.0,odom,base_footprint,-0.2747059768749749,-0.0014173779733932,-0.0010033593536198,-0.0038681733555318,-4.688001810869331e-05,0.9999449474441936,-0.0097538258126882,"(1e-05, 0.0, 0.0, 0.0, 0.0, 0.0, 0.0, 1e-05, 0.0, 0.0, 0.0, 0.0, 0.0, 0.0, 1000000000000.0, 0.0, 0.0, 0.0, 0.0, 0.0, 0.0, 1000000000000.0, 0.0, 0.0, 0.0, 0.0, 0.0, 0.0, 1000000000000.0, 0.0, 0.0, 0.0, 0.0, 0.0, 0.0, 0.001)",0.2191365892722476,3.6726612023755406e-06,0.0,0.0,0.0,0.0593435869082181,"(0.0, 0.0, 0.0, 0.0, 0.0, 0.0, 0.0, 0.0, 0.0, 0.0, 0.0, 0.0, 0.0, 0.0, 0.0, 0.0, 0.0, 0.0, 0.0, 0.0, 0.0, 0.0, 0.0, 0.0, 0.0, 0.0, 0.0, 0.0, 0.0, 0.0, 0.0, 0.0, 0.0, 0.0, 0.0, 0.0)",0.2199999988079071,2.30065816140268e-05,0.0,0.0,0.0,0.0578493922948837,74,2,715000000,base_footprint,-0.0038611739571971,-5.187763584692328e-05,0.9999293703512326,-0.0112402381367543,0.0,0.0,0.0,0.0,0.0,0.0,0.0,0.0,0.0,-0.0003583760915486,-0.0003099881456622,0.0591800105061463,0.0,0.0,0.0,0.0,0.0,0.0,0.0,0.0,0.0,0.0049745520570989,0.0131898189173145,-0.0001852735207123,0.0,0.0,0.0,0.0,0.0,0.0,0.0,0.0,0.0
2.749,-3.1169378944185224,-0.007455117835886871,-0.0001755068460672,0.002173707319404805,-3.1223665409707473,0.21779615764740318,-0.2177559054305288,-0.004187115487194324,0.0586825250542144,0.005268341958769823,-0.010505327889300912,-0.007251130605696887,-0.00014652557316858304,0.00195412808430534,77.0,2.0,730000000.0,odom,base_footprint,-0.2891682514401047,-0.0017286442950835,-0.0010024280942795,-0.0038603925073603,-5.339560887611776e-05,0.9999239479187692,-0.0117129371696751,"(1e-05, 0.0, 0.0, 0.0, 0.0, 0.0, 0.0, 1e-05, 0.0, 0.0, 0.0, 0.0, 0.0, 0.0, 1000000000000.0, 0.0, 0.0, 0.0, 0.0, 0.0, 0.0, 1000000000000.0, 0.0, 0.0, 0.0, 0.0, 0.0, 0.0, 1000000000000.0, 0.0, 0.0, 0.0, 0.0, 0.0, 0.0, 0.001)",0.21936427296483,5.4566394173906005e-06,0.0,0.0,0.0,0.0589916129796233,"(0.0, 0.0, 0.0, 0.0, 0.0, 0.0, 0.0, 0.0, 0.0, 0.0, 0.0, 0.0, 0.0, 0.0, 0.0, 0.0, 0.0, 0.0, 0.0, 0.0, 0.0, 0.0, 0.0, 0.0, 0.0, 0.0, 0.0, 0.0, 0.0, 0.0, 0.0, 0.0, 0.0, 0.0, 0.0, 0.0)",0.2199999988079071,6.698178367514629e-06,0.0,0.0,0.0,0.0675812661647796,75,2,749000000,base_footprint,-0.0038598292781903,-5.547194716976536e-05,0.9999165683019208,-0.0123270059672381,0.0,0.0,0.0,0.0,0.0,0.0,0.0,0.0,0.0,-0.0004577132095056,-0.0002236799970487,0.0686454043572954,0.0,0.0,0.0,0.0,0.0,0.0,0.0,0.0,0.0,0.0025349760388463,0.0138512277218141,-0.0001449195723618,0.0,0.0,0.0,0.0,0.0,0.0,0.0,0.0,0.0
2.783,-3.114613167385468,-0.007459790112425091,-0.00019273518488539983,0.002324727033054419,-3.120412412886442,0.22459407261221778,-0.2245436977534128,-0.004756600862609504,0.06982229659127073,0.2041415905349731,0.3345276737854753,-0.00747711403276932,-0.0001670974035382436,0.0023250824764893155,78.0,2.0,764000000.0,odom,base_footprint,-0.2966249300581302,-0.0019120433254573,-0.0010023565829586,-0.0038598630845332,-5.741479129043896e-05,0.999909664029813,-0.0128748569039508,"(1e-05, 0.0, 0.0, 0.0, 0.0, 0.0, 0.0, 1e-05, 0.0, 0.0, 0.0, 0.0, 0.0, 0.0, 1000000000000.0, 0.0, 0.0, 0.0, 0.0, 0.0, 0.0, 1000000000000.0, 0.0, 0.0, 0.0, 0.0, 0.0, 0.0, 1000000000000.0, 0.0, 0.0, 0.0, 0.0, 0.0, 0.0, 0.001)",0.2194778680287022,1.082992720706326e-06,0.0,0.0,0.0,0.0683746913474615,"(0.0, 0.0, 0.0, 0.0, 0.0, 0.0, 0.0, 0.0, 0.0, 0.0, 0.0, 0.0, 0.0, 0.0, 0.0, 0.0, 0.0, 0.0, 0.0, 0.0, 0.0, 0.0, 0.0, 0.0, 0.0, 0.0, 0.0, 0.0, 0.0, 0.0, 0.0, 0.0, 0.0, 0.0, 0.0, 0.0)",0.2199999988079071,6.698178367514629e-06,0.0,0.0,0.0,0.0675812661647796,76,2,783000000,base_footprint,-0.0038602575445061,-5.962282755324801e-05,0.99990156248104,-0.0134892625737454,0.0,0.0,0.0,0.0,0.0,0.0,0.0,0.0,0.0,-0.000453361217094,-0.0001431043637214,0.0681666372805733,0.0,0.0,0.0,0.0,0.0,0.0,0.0,0.0,0.0,0.0052313923768015,0.0153894787570948,-0.0001333967441034,0.0,0.0,0.0,0.0,0.0,0.0,0.0,0.0,0.0
2.817,-3.112301686607161,-0.007466001743883899,-0.0002100534508485,0.002311480778307118,-3.1180873304099523,0.2181723698504838,-0.21811210248444263,-0.005127739852245517,0.06760978116675291,-0.19284392677879827,-0.06644190464017483,-0.007262934418030708,-0.00017893949649033433,0.002251405712852872,78.0,2.0,764000000.0,odom,base_footprint,-0.2966249300581302,-0.0019120433254573,-0.0010023565829586,-0.0038598630845332,-5.741479129043896e-05,0.999909664029813,-0.0128748569039508,"(1e-05, 0.0, 0.0, 0.0, 0.0, 0.0, 0.0, 1e-05, 0.0, 0.0, 0.0, 0.0, 0.0, 0.0, 1000000000000.0, 0.0, 0.0, 0.0, 0.0, 0.0, 0.0, 1000000000000.0, 0.0, 0.0, 0.0, 0.0, 0.0, 0.0, 1000000000000.0, 0.0, 0.0, 0.0, 0.0, 0.0, 0.0, 0.001)",0.2194778680287022,1.082992720706326e-06,0.0,0.0,0.0,0.0683746913474615,"(0.0, 0.0, 0.0, 0.0, 0.0, 0.0, 0.0, 0.0, 0.0, 0.0, 0.0, 0.0, 0.0, 0.0, 0.0, 0.0, 0.0, 0.0, 0.0, 0.0, 0.0, 0.0, 0.0, 0.0, 0.0, 0.0, 0.0, 0.0, 0.0, 0.0, 0.0, 0.0, 0.0, 0.0, 0.0, 0.0)",0.2199999988079071,6.698178367514629e-06,0.0,0.0,0.0,0.0675812661647796,77,2,817000000,base_footprint,-0.0038622421748676,-6.390217151454455e-05,0.999885296681938,-0.0146448790083076,0.0,0.0,0.0,0.0,0.0,0.0,0.0,0.0,0.0,-0.0004602258746152,-4.94448953321658e-05,0.0677958347579665,0.0,0.0,0.0,0.0,0.0,0.0,0.0,0.0,0.0,0.0049475066702525,0.0151050361562448,-0.0001633963572868,0.0,0.0,0.0,0.0,0.0,0.0,0.0,0.0,0.0
2.851,-3.111539370913617,-0.007485489817360136,-0.0002255557268747003,0.0007623156935436803,-3.1158359246970995,0.21835326709166208,-0.21828084232535913,-0.0056234440812061946,0.06725108591586891,0.005432349584933482,-0.010771629155675682,-0.007268536029256202,-0.00019540935700993096,0.002239461160998435,79.0,2.0,797000000.0,odom,base_footprint,-0.3038680866116418,-0.0021067777520312,-0.0010024996395441,-0.0038609248953649,-6.149603056683701e-05,0.9998945410223176,-0.0139998682479221,"(1e-05, 0.0, 0.0, 0.0, 0.0, 0.0, 0.0, 1e-05, 0.0, 0.0, 0.0, 0.0, 0.0, 0.0, 1000000000000.0, 0.0, 0.0, 0.0, 0.0, 0.0, 0.0, 1000000000000.0, 0.0, 0.0, 0.0, 0.0, 0.0, 0.0, 1000000000000.0, 0.0, 0.0, 0.0, 0.0, 0.0, 0.0, 0.001)",0.219671452104004,-3.7086425305025983e-06,0.0,0.0,0.0,0.0680012715523688,"(0.0, 0.0, 0.0, 0.0, 0.0, 0.0, 0.0, 0.0, 0.0, 0.0, 0.0, 0.0, 0.0, 0.0, 0.0, 0.0, 0.0, 0.0, 0.0, 0.0, 0.0, 0.0, 0.0, 0.0, 0.0, 0.0, 0.0, 0.0, 0.0, 0.0, 0.0, 0.0, 0.0, 0.0, 0.0, 0.0)",0.2199999988079071,0.0,0.0,0.0,0.0,-0.0222551375627517,78,2,851000000,base_footprint,-0.003866138035373,-6.532172642435763e-05,0.9998796269007808,-0.0150259914321512,0.0,0.0,0.0,0.0,0.0,0.0,0.0,0.0,0.0,7.575172048773768e-05,0.0002524314779857,-0.0230191574813789,0.0,0.0,0.0,0.0,0.0,0.0,0.0,0.0,0.0,0.0296010521500051,0.0100374811071055,-0.000615417822796,0.0,0.0,0.0,0.0,0.0,0.0,0.0,0.0,0.0
2.885,-3.1123135394540915,-0.0075049376150214675,-0.00022283894840569984,-0.000774168540474296,-3.1135964635361013,0.22507749840207028,-0.22498929779308977,-0.006300489306898347,-0.022099181804877605,0.2019288681804263,-2.6831912228452404,-0.007492219860045932,-0.0002070596167548701,-0.0007359027541024243,81.0,2.0,864000000.0,odom,base_footprint,-0.3186162219788985,-0.0025445015344076,-0.0010035576501954,-0.0038688824189804,-6.50386648925124e-05,0.9998819948673284,-0.0148668711883923,"(1e-05, 0.0, 0.0, 0.0, 0.0, 0.0, 0.0, 1e-05, 0.0, 0.0, 0.0, 0.0, 0.0, 0.0, 1000000000000.0, 0.0, 0.0, 0.0, 0.0, 0.0, 0.0, 1000000000000.0, 0.0, 0.0, 0.0, 0.0, 0.0, 0.0, 1000000000000.0, 0.0, 0.0, 0.0, 0.0, 0.0, 0.0, 0.001)",0.2208328176607761,1.043940010825306e-06,0.0,0.0,0.0,-0.022682078984692,"(0.0, 0.0, 0.0, 0.0, 0.0, 0.0, 0.0, 0.0, 0.0, 0.0, 0.0, 0.0, 0.0, 0.0, 0.0, 0.0, 0.0, 0.0, 0.0, 0.0, 0.0, 0.0, 0.0, 0.0, 0.0, 0.0, 0.0, 0.0, 0.0, 0.0, 0.0, 0.0, 0.0, 0.0, 0.0, 0.0)",0.2199999988079071,0.0,0.0,0.0,0.0,-0.0222551375627517,79,2,885000000,base_footprint,-0.0038712441040519,-6.437533948754666e-05,0.9998853485994984,-0.0146389542304834,0.0,0.0,0.0,0.0,0.0,0.0,0.0,0.0,0.0,0.0002211082302078,5.292955324191689e-05,-0.0228758422721144,0.0,0.0,0.0,0.0,0.0,0.0,0.0,0.0,0.0,0.0031905003120469,-0.0082077782983715,0.0004444486535868,0.0,0.0,0.0,0.0,0.0,0.0,0.0,0.0,0.0
2.919,-3.113097122927681,-0.007507282386441216,-0.00021610805029050007,-0.000783583473589644,-3.1143323662902036,0.21863928520711112,-0.21855805226821204,-0.005959431567020346,-0.022617062157659452,-0.19333973558435907,-0.015551962546001417,-0.007278056919781471,-0.00019571815060623004,-0.0007531481698500598,81.0,2.0,864000000.0,odom,base_footprint,-0.3186162219788985,-0.0025445015344076,-0.0010035576501954,-0.0038688824189804,-6.50386648925124e-05,0.9998819948673284,-0.0148668711883923,"(1e-05, 0.0, 0.0, 0.0, 0.0, 0.0, 0.0, 1e-05, 0.0, 0.0, 0.0, 0.0, 0.0, 0.0, 1000000000000.0, 0.0, 0.0, 0.0, 0.0, 0.0, 0.0, 1000000000000.0, 0.0, 0.0, 0.0, 0.0, 0.0, 0.0, 1000000000000.0, 0.0, 0.0, 0.0, 0.0, 0.0, 0.0, 0.001)",0.2208328176607761,1.043940010825306e-06,0.0,0.0,0.0,-0.022682078984692,"(0.0, 0.0, 0.0, 0.0, 0.0, 0.0, 0.0, 0.0, 0.0, 0.0, 0.0, 0.0, 0.0, 0.0, 0.0, 0.0, 0.0, 0.0, 0.0, 0.0, 0.0, 0.0, 0.0, 0.0, 0.0, 0.0, 0.0, 0.0, 0.0, 0.0, 0.0, 0.0, 0.0, 0.0, 0.0, 0.0)",0.2199999988079071,0.0,0.0,0.0,0.0,-0.0222551375627517,80,2,919000000,base_footprint,-0.0038743347305655,-6.23166788994485e-05,0.9998909954732388,-0.0142472038857757,0.0,0.0,0.0,0.0,0.0,0.0,0.0,0.0,0.0,0.000209172747836,7.288828443256966e-05,-0.0231809764337098,0.0,0.0,0.0,0.0,0.0,0.0,0.0,0.0,0.0,-0.0003248265665618,-0.0054104659765697,-5.307402939820873e-05,0.0,0.0,0.0,0.0,0.0,0.0,0.0,0.0,0.0
2.9530000000000003,-3.1138845153144823,-0.007503031165059404,-0.00020895670826889985,-0.0007873923868011445,-3.1150855144600538,0.21862913296217482,-0.21855232993767282,-0.005794554219863247,-0.02292000333633956,-0.00030487222030951144,-0.009097332693096392,-0.007277865260806278,-0.00019019109750567333,-0.0007632361111001074,83.0,2.0,930000000.0,odom,base_footprint,-0.3331876221192899,-0.0029655157269539,-0.0010043745126843,-0.0038753108836315,-6.167093260830219e-05,0.999892956612025,-0.014108631397642,"(1e-05, 0.0, 0.0, 0.0, 0.0, 0.0, 0.0, 1e-05, 0.0, 0.0, 0.0, 0.0, 0.0, 0.0, 1000000000000.0, 0.0, 0.0, 0.0, 0.0, 0.0, 0.0, 1000000000000.0, 0.0, 0.0, 0.0, 0.0, 0.0, 0.0, 1000000000000.0, 0.0, 0.0, 0.0, 0.0, 0.0, 0.0, 0.001)",0.2208096962589093,-3.554035064717333e-05,0.0,0.0,0.0,-0.0230578213686501,"(0.0, 0.0, 0.0, 0.0, 0.0, 0.0, 0.0, 0.0, 0.0, 0.0, 0.0, 0.0, 0.0, 0.0, 0.0, 0.0, 0.0, 0.0, 0.0, 0.0, 0.0, 0.0, 0.0, 0.0, 0.0, 0.0, 0.0, 0.0, 0.0, 0.0, 0.0, 0.0, 0.0, 0.0, 0.0, 0.0)",0.2199999988079071,0.0,0.0,0.0,0.0,-0.0226116813719272,81,2,953000000,base_footprint,-0.0038758698269712,-6.021893158244393e-05,0.9998965212652298,-0.0138535471434785,0.0,0.0,0.0,0.0,0.0,0.0,0.0,0.0,0.0,0.0002589214560219,-0.0001559713914712,-0.0229902956999148,0.0,0.0,0.0,0.0,0.0,0.0,0.0,0.0,0.0,-0.0057593166868754,-0.0079504132670594,0.0003974560196506,0.0,0.0,0.0,0.0,0.0,0.0,0.0,0.0,0.0
2.987,-3.114624030104464,-0.007494396483438692,-0.00019977263023970024,-0.0007395147899815768,-3.115848750571154,0.22505034366739562,-0.22497577189241777,-0.00579303428469998,-0.023970617022849514,0.19282915030693118,-0.031549960555854406,-0.007491769144447623,-0.00018992809148559532,-0.0007982215468608889,84.0,2.0,964000000.0,odom,base_footprint,-0.3406881312948743,-0.0031711649318031,-0.0010043148747739,-0.003875045497554,-5.926067023072429e-05,0.9998983967384718,-0.013717751652456,"(1e-05, 0.0, 0.0, 0.0, 0.0, 0.0, 0.0, 1e-05, 0.0, 0.0, 0.0, 0.0, 0.0, 0.0, 1000000000000.0, 0.0, 0.0, 0.0, 0.0, 0.0, 0.0, 1000000000000.0, 0.0, 0.0, 0.0, 0.0, 0.0, 0.0, 1000000000000.0, 0.0, 0.0, 0.0, 0.0, 0.0, 0.0, 0.001)",0.2205789663113622,-0.0001389916977439,0.0,0.0,0.0,-0.0223475541037763,"(0.0, 0.0, 0.0, 0.0, 0.0, 0.0, 0.0, 0.0, 0.0, 0.0, 0.0, 0.0, 0.0, 0.0, 0.0, 0.0, 0.0, 0.0, 0.0, 0.0, 0.0, 0.0, 0.0, 0.0, 0.0, 0.0, 0.0, 0.0, 0.0, 0.0, 0.0, 0.0, 0.0, 0.0, 0.0, 0.0)",0.2199999988079071,0.0,0.0,0.0,0.0,-0.0226116813719272,82,2,987000000,base_footprint,-0.0038714630220768,-5.7350217484857046e-05,0.9999015926733316,-0.0134838219491457,0.0,0.0,0.0,0.0,0.0,0.0,0.0,0.0,0.0,0.000316489907761,-0.0004823723032811,-0.0200545129270528,0.0,0.0,0.0,0.0,0.0,0.0,0.0,0.0,0.0,-0.0114516867326433,-0.007405830371345,0.0005763281461329,0.0,0.0,0.0,0.0,0.0,0.0,0.0,0.0,0.0
3.021,-3.115159327268044,-0.007449202530045884,-0.00019748043828939988,-0.0005352971635801396,-3.116646972118015,0.21812129458330407,-0.21805343107697994,-0.005440620024710797,-0.023214546631870028,-0.2080795520748216,0.02270481654593051,-0.007261248318770745,-0.00017837579719746764,-0.000773044402841272,85.0,2.0,997000000.0,odom,base_footprint,-0.3479557171899552,-0.0033627486582321,-0.0010034451038006,-0.0038688268981718,-5.670174345841765e-05,0.9999030134045176,-0.0133788171341755,"(1e-05, 0.0, 0.0, 0.0, 0.0, 0.0, 0.0, 1e-05, 0.0, 0.0, 0.0, 0.0, 0.0, 0.0, 1000000000000.0, 0.0, 0.0, 0.0, 0.0, 0.0, 0.0, 1000000000000.0, 0.0, 0.0, 0.0, 0.0, 0.0, 0.0, 1000000000000.0, 0.0, 0.0, 0.0, 0.0, 0.0, 0.0, 0.001)",0.2197901397359852,-0.0001422966023654,0.0,0.0,0.0,-0.0183216078850172,"(0.0, 0.0, 0.0, 0.0, 0.0, 0.0, 0.0, 0.0, 0.0, 0.0, 0.0, 0.0, 0.0, 0.0, 0.0, 0.0, 0.0, 0.0, 0.0, 0.0, 0.0, 0.0, 0.0, 0.0, 0.0, 0.0, 0.0, 0.0, 0.0, 0.0, 0.0, 0.0, 0.0, 0.0, 0.0, 0.0)",0.2199999988079071,0.0,0.0,0.0,0.0,-0.0226116813719272,83,3,21000000,base_footprint,-0.0038682285885129,-5.639050579311729e-05,0.9999051783492028,-0.0132161998375831,0.0,0.0,0.0,0.0,0.0,0.0,0.0,0.0,0.0,0.0001220717923547,0.000601458076521,-0.0071288526411204,0.0,0.0,0.0,0.0,0.0,0.0,0.0,0.0,0.0,-0.0717014737240334,0.0035433584667188,-0.0027965306554328,0.0,0.0,0.0,0.0,0.0,0.0,0.0,0.0,0.0
3.055,-3.1155408674500196,-0.007414948050759929,-0.0001985641561866999,-0.0003815401819755593,-3.117420016520856,0.21779142128255538,-0.21772779483305907,-0.005264080300381715,-0.023312204315862582,-0.009906105127588116,-0.002932663182959596,-0.007250402647516658,-0.00017248941249146943,-0.0007762964037182241,86.0,3.0,30000000.0,odom,base_footprint,-0.3551631779156246,-0.0035554726907995,-0.0010039223383279,-0.0038723405666399,-5.614869698753202e-05,0.9999054561208588,-0.0131939624676391,"(1e-05, 0.0, 0.0, 0.0, 0.0, 0.0, 0.0, 1e-05, 0.0, 0.0, 0.0, 0.0, 0.0, 0.0, 1000000000000.0, 0.0, 0.0, 0.0, 0.0, 0.0, 0.0, 1000000000000.0, 0.0, 0.0, 0.0, 0.0, 0.0, 0.0, 1000000000000.0, 0.0, 0.0, 0.0, 0.0, 0.0, 0.0, 0.001)",0.2179968766711419,5.33890956883696e-05,0.0,0.0,0.0,-0.0032693905531226,"(0.0, 0.0, 0.0, 0.0, 0.0, 0.0, 0.0, 0.0, 0.0, 0.0, 0.0, 0.0, 0.0, 0.0, 0.0, 0.0, 0.0, 0.0, 0.0, 0.0, 0.0, 0.0, 0.0, 0.0, 0.0, 0.0, 0.0, 0.0, 0.0, 0.0, 0.0, 0.0, 0.0, 0.0, 0.0, 0.0)",0.2199999988079071,0.0,0.0,0.0,0.0,-0.0305526833981275,84,3,55000000,base_footprint,-0.0038712385492033,-5.680432714664811e-05,0.9999076696833644,-0.013025451767496,0.0,0.0,0.0,0.0,0.0,0.0,0.0,0.0,0.0,2.622618769334764e-05,0.0006870019544327,-0.0227360840046198,0.0,0.0,0.0,0.0,0.0,0.0,0.0,0.0,0.0,0.0334916650173014,-0.0047027161893522,0.0006607316162166,0.0,0.0,0.0,0.0,0.0,0.0,0.0,0.0,0.0
3.089,-3.116536230930277,-0.007462117400833468,-0.00019258651478670005,-0.0009953634802575273,-3.118196312924574,0.2240286422749805,-0.2239673296919151,-0.005240972261346947,-0.03031725288114438,0.18730393370646034,-0.21036181877723112,-0.007458198678745918,-0.00017076966471073245,-0.001009564520942108,86.0,3.0,30000000.0,odom,base_footprint,-0.3551631779156246,-0.0035554726907995,-0.0010039223383279,-0.0038723405666399,-5.614869698753202e-05,0.9999054561208588,-0.0131939624676391,"(1e-05, 0.0, 0.0, 0.0, 0.0, 0.0, 0.0, 1e-05, 0.0, 0.0, 0.0, 0.0, 0.0, 0.0, 1000000000000.0, 0.0, 0.0, 0.0, 0.0, 0.0, 0.0, 1000000000000.0, 0.0, 0.0, 0.0, 0.0, 0.0, 0.0, 1000000000000.0, 0.0, 0.0, 0.0, 0.0, 0.0, 0.0, 0.001)",0.2179968766711419,5.33890956883696e-05,0.0,0.0,0.0,-0.0032693905531226,"(0.0, 0.0, 0.0, 0.0, 0.0, 0.0, 0.0, 0.0, 0.0, 0.0, 0.0, 0.0, 0.0, 0.0, 0.0, 0.0, 0.0, 0.0, 0.0, 0.0, 0.0, 0.0, 0.0, 0.0, 0.0, 0.0, 0.0, 0.0, 0.0, 0.0, 0.0, 0.0, 0.0, 0.0, 0.0, 0.0)",0.2199999988079071,0.0,0.0,0.0,0.0,-0.0305526833981275,85,3,89000000,base_footprint,-0.0038720268051794,-5.739770803361532e-05,0.9999140251731288,-0.0125278240726264,0.0,0.0,0.0,0.0,0.0,0.0,0.0,0.0,0.0,0.0002523442673033,-0.0001595416234834,-0.0285512536360655,0.0,0.0,0.0,0.0,0.0,0.0,0.0,0.0,0.0,0.0174558543210804,-0.00750674367227,0.0014206646001149,0.0,0.0,0.0,0.0,0.0,0.0,0.0,0.0,0.0
3.123,-3.117501988068164,-0.00746511969965169,-0.00018401541852150005,-0.0009657571378869356,-3.1192058774455163,0.21743874672813157,-0.21738426236036268,-0.004867345964854398,-0.028994039037013267,-0.1978947611666348,0.03973615147540878,-0.007238972843924521,-0.00015859775855912015,-0.0009655014999325419,87.0,3.0,64000000.0,odom,base_footprint,-0.362594150434845,-0.0037527525878064,-0.0010042827613297,-0.0038742117494769,-5.933552192795485e-05,0.9999095088375703,-0.0128825889798793,"(1e-05, 0.0, 0.0, 0.0, 0.0, 0.0, 0.0, 1e-05, 0.0, 0.0, 0.0, 0.0, 0.0, 0.0, 1000000000000.0, 0.0, 0.0, 0.0, 0.0, 0.0, 0.0, 1000000000000.0, 0.0, 0.0, 0.0, 0.0, 0.0, 0.0, 1000000000000.0, 0.0, 0.0, 0.0, 0.0, 0.0, 0.0, 0.001)",0.2197568792011984,7.315064619888186e-05,0.0,0.0,0.0,-0.0324192957460996,"(0.0, 0.0, 0.0, 0.0, 0.0, 0.0, 0.0, 0.0, 0.0, 0.0, 0.0, 0.0, 0.0, 0.0, 0.0, 0.0, 0.0, 0.0, 0.0, 0.0, 0.0, 0.0, 0.0, 0.0, 0.0, 0.0, 0.0, 0.0, 0.0, 0.0, 0.0, 0.0, 0.0, 0.0, 0.0, 0.0)",0.2199999988079071,0.0,0.0,0.0,0.0,-0.0305526833981275,86,3,123000000,base_footprint,-0.0038685022276992,-5.647272205329847e-05,0.999919971662006,-0.0120449895308808,0.0,0.0,0.0,0.0,0.0,0.0,0.0,0.0,0.0,7.576282487610739e-05,-0.0002923974350177,-0.0287406681966341,0.0,0.0,0.0,0.0,0.0,0.0,0.0,0.0,0.0,0.0052986708146764,-0.0051365808531607,0.0003019396105687,0.0,0.0,0.0,0.0,0.0,0.0,0.0,0.0,0.0
3.157,-3.118222762404929,-0.00746935506306895,-0.0001777979296214002,-0.0007207743367647622,-3.120171378945449,0.2174777474539992,-0.217427852245469,-0.004658294278807503,-0.028987524601150644,0.0011711929689978155,0.00019562870458327033,-0.007240421019293262,-0.00015163642504756076,-0.0009652845692183165,89.0,3.0,130000000.0,odom,base_footprint,-0.3770850538461576,-0.0041144913557959,-0.0010034353493816,-0.0038677291346663,-5.6310776611364445e-05,0.9999213587353736,-0.0119295366733951,"(1e-05, 0.0, 0.0, 0.0, 0.0, 0.0, 0.0, 1e-05, 0.0, 0.0, 0.0, 0.0, 0.0, 0.0, 1000000000000.0, 0.0, 0.0, 0.0, 0.0, 0.0, 0.0, 1000000000000.0, 0.0, 0.0, 0.0, 0.0, 0.0, 0.0, 1000000000000.0, 0.0, 0.0, 0.0, 0.0, 0.0, 0.0, 0.001)",0.2197692316385633,3.2962052161068095e-05,0.0,0.0,0.0,-0.0289095343696617,"(0.0, 0.0, 0.0, 0.0, 0.0, 0.0, 0.0, 0.0, 0.0, 0.0, 0.0, 0.0, 0.0, 0.0, 0.0, 0.0, 0.0, 0.0, 0.0, 0.0, 0.0, 0.0, 0.0, 0.0, 0.0, 0.0, 0.0, 0.0, 0.0, 0.0, 0.0, 0.0, 0.0, 0.0, 0.0, 0.0)",0.2199999988079071,2.7534526452654973e-05,0.0,0.0,0.0,-0.0201321709901094,87,3,157000000,base_footprint,-0.0038641017698449,-5.464801943204331e-05,0.9999242647187824,-0.0116846291215877,0.0,0.0,0.0,0.0,0.0,0.0,0.0,0.0,0.0,0.0002658403072518,-0.0004147886326219,-0.018613640359221,0.0,0.0,0.0,0.0,0.0,0.0,0.0,0.0,0.0,0.0028245418806007,-0.0041508386481495,0.0004333404300662,0.0,0.0,0.0,0.0,0.0,0.0,0.0,0.0,0.0
3.191,-3.1188620482185745,-0.007474735686964051,-0.0001732509428638996,-0.0006392858136456958,-3.121136663514667,0.2241911629837313,-0.22414425850016031,-0.004585732374581641,-0.01915599708176093,0.20160406996192465,0.29524106664833977,-0.007464051804301406,-0.0001503343018411611,-0.000637894702822639,89.0,3.0,130000000.0,odom,base_footprint,-0.3770850538461576,-0.0041144913557959,-0.0010034353493816,-0.0038677291346663,-5.6310776611364445e-05,0.9999213587353736,-0.0119295366733951,"(1e-05, 0.0, 0.0, 0.0, 0.0, 0.0, 0.0, 1e-05, 0.0, 0.0, 0.0, 0.0, 0.0, 0.0, 1000000000000.0, 0.0, 0.0, 0.0, 0.0, 0.0, 0.0, 1000000000000.0, 0.0, 0.0, 0.0, 0.0, 0.0, 0.0, 1000000000000.0, 0.0, 0.0, 0.0, 0.0, 0.0, 0.0, 0.001)",0.2197692316385633,3.2962052161068095e-05,0.0,0.0,0.0,-0.0289095343696617,"(0.0, 0.0, 0.0, 0.0, 0.0, 0.0, 0.0, 0.0, 0.0, 0.0, 0.0, 0.0, 0.0, 0.0, 0.0, 0.0, 0.0, 0.0, 0.0, 0.0, 0.0, 0.0, 0.0, 0.0, 0.0, 0.0, 0.0, 0.0, 0.0, 0.0, 0.0, 0.0, 0.0, 0.0, 0.0, 0.0)",0.2199999988079071,2.7534526452654973e-05,0.0,0.0,0.0,-0.0201321709901094,88,3,191000000,base_footprint,-0.003861328399295,-5.254357326453143e-05,0.9999279594075836,-0.0113650066938656,0.0,0.0,0.0,0.0,0.0,0.0,0.0,0.0,0.0,0.000243307488162,-0.0002814390246658,-0.0190071514326652,0.0,0.0,0.0,0.0,0.0,0.0,0.0,0.0,0.0,0.0059729515857213,-0.0039150703922565,-0.0001865346427315,0.0,0.0,0.0,0.0,0.0,0.0,0.0,0.0,0.0
3.225,-3.1195151786946433,-0.007481503063343553,-0.00016855284225420018,-0.0006531304760688528,-3.12177455821749,0.21777371366853973,-0.21773094900344697,-0.004315577718628114,-0.018688377798353598,-0.19271619565139816,0.014042621123343282,-0.007250484660006351,-0.00014146243170055345,-0.0006223229806851749,91.0,3.0,197000000.0,odom,base_footprint,-0.3918113887844625,-0.0044583094962537,-0.001002512707545,-0.0038609987560186,-5.215338718112717e-05,0.999928716055132,-0.0112983528430442,"(1e-05, 0.0, 0.0, 0.0, 0.0, 0.0, 0.0, 1e-05, 0.0, 0.0, 0.0, 0.0, 0.0, 0.0, 1000000000000.0, 0.0, 0.0, 0.0, 0.0, 0.0, 0.0, 1000000000000.0, 0.0, 0.0, 0.0, 0.0, 0.0, 0.0, 1000000000000.0, 0.0, 0.0, 0.0, 0.0, 0.0, 0.0, 0.001)",0.2200427161259341,3.421289398743924e-05,0.0,0.0,0.0,-0.0190931858678582,"(0.0, 0.0, 0.0, 0.0, 0.0, 0.0, 0.0, 0.0, 0.0, 0.0, 0.0, 0.0, 0.0, 0.0, 0.0, 0.0, 0.0, 0.0, 0.0, 0.0, 0.0, 0.0, 0.0, 0.0, 0.0, 0.0, 0.0, 0.0, 0.0, 0.0, 0.0, 0.0, 0.0, 0.0, 0.0, 0.0)",0.2084210515022277,3.4212895116070285e-05,0.0,0.0,0.0,-0.0272983144968748,89,3,225000000,base_footprint,-0.0038603951750477,-5.0762186440327206e-05,0.9999316212217356,-0.0110384624456631,0.0,0.0,0.0,0.0,0.0,0.0,0.0,0.0,0.0,0.000228702371894,-0.0001968562567179,-0.0194228647561798,0.0,0.0,0.0,0.0,0.0,0.0,0.0,0.0,0.0,0.0060691060211893,-0.0039979632882412,-0.0001243791242789,0.0,0.0,0.0,0.0,0.0,0.0,0.0,0.0,0.0
3.259,-3.119969404909943,-0.007220196572526871,-0.00015805189946619964,-0.00045422621529977997,-3.122396881198175,0.21795863850123565,-0.2179184832878074,-0.004183627475521716,-0.01907255662145799,0.005553298279156612,-0.011536901594726503,-0.007256729061707814,-0.00013702013580977216,-0.0006351161354945511,91.0,3.0,197000000.0,odom,base_footprint,-0.3918113887844625,-0.0044583094962537,-0.001002512707545,-0.0038609987560186,-5.215338718112717e-05,0.999928716055132,-0.0112983528430442,"(1e-05, 0.0, 0.0, 0.0, 0.0, 0.0, 0.0, 1e-05, 0.0, 0.0, 0.0, 0.0, 0.0, 0.0, 1000000000000.0, 0.0, 0.0, 0.0, 0.0, 0.0, 0.0, 1000000000000.0, 0.0, 0.0, 0.0, 0.0, 0.0, 0.0, 1000000000000.0, 0.0, 0.0, 0.0, 0.0, 0.0, 0.0, 0.001)",0.2200427161259341,3.421289398743924e-05,0.0,0.0,0.0,-0.0190931858678582,"(0.0, 0.0, 0.0, 0.0, 0.0, 0.0, 0.0, 0.0, 0.0, 0.0, 0.0, 0.0, 0.0, 0.0, 0.0, 0.0, 0.0, 0.0, 0.0, 0.0, 0.0, 0.0, 0.0, 0.0, 0.0, 0.0, 0.0, 0.0, 0.0, 0.0, 0.0, 0.0, 0.0, 0.0, 0.0, 0.0)",0.2084210515022277,3.4212895116070285e-05,0.0,0.0,0.0,-0.0272983144968748,90,3,259000000,base_footprint,-0.0038606147562594,-4.958607509535299e-05,0.9999341016367332,-0.0108113634137581,0.0,0.0,0.0,0.0,0.0,0.0,0.0,0.0,0.0,0.0001254316038415,-0.0001849588490109,-0.0079541242962944,0.0,0.0,0.0,0.0,0.0,0.0,0.0,0.0,0.0,-0.3493166873064759,-0.0190372850037141,-0.0026822486146624,0.0,0.0,0.0,0.0,0.0,0.0,0.0,0.0,0.0
