Time,header.seq,header.stamp.secs,header.stamp.nsecs,header.frame_id,orientation.x,orientation.y,orientation.z,orientation.w,orientation_covariance_0,orientation_covariance_1,orientation_covariance_2,orientation_covariance_3,orientation_covariance_4,orientation_covariance_5,orientation_covariance_6,orientation_covariance_7,orientation_covariance_8,angular_velocity.x,angular_velocity.y,angular_velocity.z,angular_velocity_covariance_0,angular_velocity_covariance_1,angular_velocity_covariance_2,angular_velocity_covariance_3,angular_velocity_covariance_4,angular_velocity_covariance_5,angular_velocity_covariance_6,angular_velocity_covariance_7,angular_velocity_covariance_8,linear_acceleration.x,linear_acceleration.y,linear_acceleration.z,linear_acceleration_covariance_0,linear_acceleration_covariance_1,linear_acceleration_covariance_2,linear_acceleration_covariance_3,linear_acceleration_covariance_4,linear_acceleration_covariance_5,linear_acceleration_covariance_6,linear_acceleration_covariance_7,linear_acceleration_covariance_8
0.268,0,0,266000000,base_footprint,0.0013143384656014807,-6.267174880511466e-06,0.9999991351692779,4.6214898487392426e-05,0.0,0.0,0.0,0.0,0.0,0.0,0.0,0.0,0.0,-1.6980355118362776e-05,-0.1569133548914,5.901202903403473e-06,0.0,0.0,0.0,0.0,0.0,0.0,0.0,0.0,0.0,0.00021882259904275998,-2.0359837566418727e-06,-0.13918362111694219,0.0,0.0,0.0,0.0,0.0,0.0,0.0,0.0,0.0
0.30000000000000004,1,0,300000000,base_footprint,0.0009554417895071302,-1.7732122100784638e-05,0.9999995423200252,4.665081889743661e-05,0.0,0.0,0.0,0.0,0.0,0.0,0.0,0.0,0.0,-0.00028337632992349624,0.04758799142272875,2.6468244875220054e-06,0.0,0.0,0.0,0.0,0.0,0.0,0.0,0.0,0.0,-0.0003408917599287301,2.3265465853180545e-06,0.005131748679945535,0.0,0.0,0.0,0.0,0.0,0.0,0.0,0.0,0.0
0.338,2,0,334000000,base_footprint,0.0001442680945152505,-2.2781257577155877e-05,0.9999999882474448,4.661374986343369e-05,0.0,0.0,0.0,0.0,0.0,0.0,0.0,0.0,0.0,-0.0002837837375476409,0.04756041008294899,3.2315359380251014e-06,0.0,0.0,0.0,0.0,0.0,0.0,0.0,0.0,0.0,-0.000214976847746328,2.998747221342312e-07,7.846402313990019e-05,0.0,0.0,0.0,0.0,0.0,0.0,0.0,0.0,0.0
0.36900000000000005,3,0,368000000,base_footprint,-0.0009389499799981795,-3.0715217152883674e-05,0.9999995576302639,4.657023893846026e-05,0.0,0.0,0.0,0.0,0.0,0.0,0.0,0.0,0.0,-0.0004203212577189502,0.06777050692349584,6.819772988770117e-06,0.0,0.0,0.0,0.0,0.0,0.0,0.0,0.0,0.0,-0.0003673309727730065,3.44486204116624e-08,0.0028139967223474826,0.0,0.0,0.0,0.0,0.0,0.0,0.0,0.0,0.0
0.402,4,0,402000000,base_footprint,-0.002092468497588257,-3.817498468482086e-05,0.9999978089770054,4.646983662155763e-05,0.0,0.0,0.0,0.0,0.0,0.0,0.0,0.0,0.0,-0.0004207755261393115,0.06769334313062904,8.03064481510863e-06,0.0,0.0,0.0,0.0,0.0,0.0,0.0,0.0,0.0,-0.0002958506533429006,3.970697042179586e-07,0.0001509395746004907,0.0,0.0,0.0,0.0,0.0,0.0,0.0,0.0,0.0
0.43600000000000005,5,0,436000000,base_footprint,-0.0032446826301795045,-4.5641898063222704e-05,0.999994733887676,4.635043474905583e-05,0.0,0.0,0.0,0.0,0.0,0.0,0.0,0.0,0.0,-0.0004212576839605158,0.06761697244587432,9.061244986367185e-06,0.0,0.0,0.0,0.0,0.0,0.0,0.0,0.0,0.0,-0.000294711323579689,4.589119685188194e-08,0.0001497907256323983,0.0,0.0,0.0,0.0,0.0,0.0,0.0,0.0,0.0
0.47000000000000003,6,0,470000000,base_footprint,-0.003936843275214827,-6.8278122561128905e-06,0.9999922494422285,4.7685211079760545e-05,0.0,0.0,0.0,0.0,0.0,0.0,0.0,0.0,0.0,-4.566823077494664e-05,-0.024601802989128712,-0.0001274772500912432,0.0,0.0,0.0,0.0,0.0,0.0,0.0,0.0,0.0,0.000936220786891887,0.00015259720156454758,0.13220735442215284,0.0,0.0,0.0,0.0,0.0,0.0,0.0,0.0,0.0
0.504,7,0,504000000,base_footprint,-0.003852785283229284,-6.878840237996296e-06,0.9999925768028257,4.8347573084518076e-05,0.0,0.0,0.0,0.0,0.0,0.0,0.0,0.0,0.0,8.267225892068879e-05,-0.000947393252781674,9.497934361464165e-06,0.0,0.0,0.0,0.0,0.0,0.0,0.0,0.0,0.0,-0.0010244578957106516,-0.00013511091398164433,0.0005630172074973096,0.0,0.0,0.0,0.0,0.0,0.0,0.0,0.0,0.0
0.538,8,0,538000000,base_footprint,-0.0038531032113110213,-6.875268870228815e-06,0.9999925755838447,4.822408793604715e-05,0.0,0.0,0.0,0.0,0.0,0.0,0.0,0.0,0.0,3.850280044278241e-05,-0.0001628401448581696,9.087462230120563e-06,0.0,0.0,0.0,0.0,0.0,0.0,0.0,0.0,0.0,-1.6315238767311524e-05,-1.4120513855794713e-06,-0.0008733597945344641,0.0,0.0,0.0,0.0,0.0,0.0,0.0,0.0,0.0
0.5720000000000001,9,0,572000000,base_footprint,-0.0038531018079711933,-6.875956101648118e-06,0.9999925755963621,4.8076322566680484e-05,0.0,0.0,0.0,0.0,0.0,0.0,0.0,0.0,0.0,3.871533685997682e-05,-0.0001807850359416175,9.762092612639765e-06,0.0,0.0,0.0,0.0,0.0,0.0,0.0,0.0,0.0,1.809658338789782e-07,1.315632557691578e-06,1.9514691703173132e-05,0.0,0.0,0.0,0.0,0.0,0.0,0.0,0.0,0.0
0.609,10,0,606000000,base_footprint,-0.0038531016370920127,-6.876598599275118e-06,0.9999925756043501,4.792353382888699e-05,0.0,0.0,0.0,0.0,0.0,0.0,0.0,0.0,0.0,3.871122221711987e-05,-0.00018040491969233485,9.859188774456866e-06,0.0,0.0,0.0,0.0,0.0,0.0,0.0,0.0,0.0,-3.6336513530958735e-08,1.888075577859938e-07,-4.2472268148805715e-07,0.0,0.0,0.0,0.0,0.0,0.0,0.0,0.0,0.0
0.64,11,0,640000000,base_footprint,-0.003853101627857904,-6.87723253474501e-06,0.9999925756117262,4.7770025482364684e-05,0.0,0.0,0.0,0.0,0.0,0.0,0.0,0.0,0.0,3.871155771984309e-05,-0.00018041050900687852,9.87315584602501e-06,0.0,0.0,0.0,0.0,0.0,0.0,0.0,0.0,0.0,-3.96638695618146e-09,2.7169805790397646e-08,4.964167748010605e-09,0.0,0.0,0.0,0.0,0.0,0.0,0.0,0.0,0.0
0.675,12,0,674000000,base_footprint,-0.0038531016253237206,-6.87786278403665e-06,0.999992575619058,4.7616411692306825e-05,0.0,0.0,0.0,0.0,0.0,0.0,0.0,0.0,0.0,3.8711811665699207e-05,-0.00018041015314971897,9.875075665826072e-06,0.0,0.0,0.0,0.0,0.0,0.0,0.0,0.0,0.0,-5.740592540649266e-10,3.734036997022757e-09,-5.206040077012712e-10,0.0,0.0,0.0,0.0,0.0,0.0,0.0,0.0,0.0
0.7080000000000001,13,0,708000000,base_footprint,-0.0038531016244440974,-6.878490439300146e-06,0.9999925756263607,4.7462782124459694e-05,0.0,0.0,0.0,0.0,0.0,0.0,0.0,0.0,0.0,3.871205515063708e-05,-0.00018041010119536238,9.875251814902946e-06,0.0,0.0,0.0,0.0,0.0,0.0,0.0,0.0,0.0,-5.865270505152856e-11,3.420534913466363e-10,-3.4992687448993016e-11,0.0,0.0,0.0,0.0,0.0,0.0,0.0,0.0,0.0
0.742,14,0,742000000,base_footprint,-0.0038531016237758915,-6.879115800192219e-06,0.9999925756336389,4.730914987530147e-05,0.0,0.0,0.0,0.0,0.0,0.0,0.0,0.0,0.0,3.871229081129911e-05,-0.00018041007300015008,9.875189761031286e-06,0.0,0.0,0.0,0.0,0.0,0.0,0.0,0.0,0.0,1.13674395172373e-11,-1.2144743034658796e-10,1.1396991622869446e-11,0.0,0.0,0.0,0.0,0.0,0.0,0.0,0.0,0.0
0.776,15,0,776000000,base_footprint,-0.0038531016231300196,-6.8797390316605385e-06,0.9999925756408937,4.7155516866463744e-05,0.0,0.0,0.0,0.0,0.0,0.0,0.0,0.0,0.0,3.8712519661295614e-05,-0.0001804100481212602,9.875107445689469e-06,0.0,0.0,0.0,0.0,0.0,0.0,0.0,0.0,0.0,1.7330532835594865e-11,-1.609914516412657e-10,1.649490810213187e-11,0.0,0.0,0.0,0.0,0.0,0.0,0.0,0.0,0.0
0.81,16,0,810000000,base_footprint,-0.0038531016224789545,-6.880360272161518e-06,0.9999925756481247,4.700188338203065e-05,0.0,0.0,0.0,0.0,0.0,0.0,0.0,0.0,0.0,3.8712742090639486e-05,-0.00018041002332995417,9.875036658672528e-06,0.0,0.0,0.0,0.0,0.0,0.0,0.0,0.0,0.0,1.3947458655781085e-11,-1.3868975739594023e-10,1.53444117432752e-11,0.0,0.0,0.0,0.0,0.0,0.0,0.0,0.0,0.0
0.8440000000000001,17,0,844000000,base_footprint,-0.003853101621818812,-6.880979648386592e-06,0.9999925756553323,4.684824946414197e-05,0.0,0.0,0.0,0.0,0.0,0.0,0.0,0.0,0.0,3.871295856504348e-05,-0.00018040999810470487,9.874981251310202e-06,0.0,0.0,0.0,0.0,0.0,0.0,0.0,0.0,0.0,9.428073276988778e-12,-1.0888838700315747e-10,1.3483908205694624e-11,0.0,0.0,0.0,0.0,0.0,0.0,0.0,0.0,0.0
0.878,18,0,878000000,base_footprint,-0.00385310162114975,-6.88159727870321e-06,0.9999925756625164,4.66946151203081e-05,0.0,0.0,0.0,0.0,0.0,0.0,0.0,0.0,0.0,3.8713169473633464e-05,-0.0001804099725300439,9.874940675923078e-06,0.0,0.0,0.0,0.0,0.0,0.0,0.0,0.0,0.0,5.073103203490722e-12,-8.014558153548743e-11,1.1495032469053428e-11,0.0,0.0,0.0,0.0,0.0,0.0,0.0,0.0,0.0
0.912,19,0,912000000,base_footprint,-0.0038531016204726163,-6.882213273703895e-06,0.9999925756696769,4.6540980360277216e-05,0.0,0.0,0.0,0.0,0.0,0.0,0.0,0.0,0.0,3.8713375189271294e-05,-0.00018040994645528353,9.87491368852855e-06,0.0,0.0,0.0,0.0,0.0,0.0,0.0,0.0,0.0,1.07878056043836e-12,-5.3813800968464375e-11,9.607412903885189e-12,0.0,0.0,0.0,0.0,0.0,0.0,0.0,0.0,0.0
0.9460000000000001,20,0,946000000,base_footprint,-0.0038531016197875453,-6.882827738562633e-06,0.9999925756768141,4.6387345186186805e-05,0.0,0.0,0.0,0.0,0.0,0.0,0.0,0.0,0.0,3.8713575827302995e-05,-0.0001804099200696897,9.874899745196849e-06,0.0,0.0,0.0,0.0,0.0,0.0,0.0,0.0,0.0,-2.751804486453801e-12,-2.8538812703901183e-11,7.90587238557397e-12,0.0,0.0,0.0,0.0,0.0,0.0,0.0,0.0,0.0
0.9800000000000001,21,0,980000000,base_footprint,-0.0038531016190949787,-6.883440778154074e-06,0.9999925756839274,4.62337096086907e-05,0.0,0.0,0.0,0.0,0.0,0.0,0.0,0.0,0.0,3.871377345758381e-05,-0.00018040989335300675,9.874899103749481e-06,0.0,0.0,0.0,0.0,0.0,0.0,0.0,0.0,0.0,-6.656685009566083e-12,-2.7300211631271576e-12,6.6505263664785245e-12,0.0,0.0,0.0,0.0,0.0,0.0,0.0,0.0,0.0
1.015,22,1,14000000,base_footprint,-0.0038531016183954384,-6.884052474840068e-06,0.9999925756910174,4.608007362307235e-05,0.0,0.0,0.0,0.0,0.0,0.0,0.0,0.0,0.0,3.871396697598993e-05,-0.00018040986625281693,9.874909852293192e-06,0.0,0.0,0.0,0.0,0.0,0.0,0.0,0.0,0.0,-1.000447838609885e-11,1.9344832044390624e-11,5.186269012823699e-12,0.0,0.0,0.0,0.0,0.0,0.0,0.0,0.0,0.0
1.048,23,1,48000000,base_footprint,-0.003853101617689624,-6.884662913204665e-06,0.9999925756980836,4.5926437235686534e-05,0.0,0.0,0.0,0.0,0.0,0.0,0.0,0.0,0.0,3.8714156424945834e-05,-0.00018040983885828416,9.874931373275227e-06,0.0,0.0,0.0,0.0,0.0,0.0,0.0,0.0,0.0,-1.316817571696715e-11,4.0220497727809564e-11,3.659920310746665e-12,0.0,0.0,0.0,0.0,0.0,0.0,0.0,0.0,0.0
1.081,24,1,82000000,base_footprint,-0.003853101616977305,-6.885272173195812e-06,0.9999925757051266,4.57728004460592e-05,0.0,0.0,0.0,0.0,0.0,0.0,0.0,0.0,0.0,3.871434202571209e-05,-0.0001804098112312068,9.874963506019317e-06,0.0,0.0,0.0,0.0,0.0,0.0,0.0,0.0,0.0,-1.62837931534086e-11,6.078759031108043e-11,2.3995707266196266e-12,0.0,0.0,0.0,0.0,0.0,0.0,0.0,0.0,0.0
1.116,25,1,116000000,base_footprint,-0.0038531016162593906,-6.885880329715583e-06,0.9999925757121458,4.561916325260613e-05,0.0,0.0,0.0,0.0,0.0,0.0,0.0,0.0,0.0,3.871452409470527e-05,-0.0001804097831019944,9.875004159297225e-06,0.0,0.0,0.0,0.0,0.0,0.0,0.0,0.0,0.0,-1.8792676409216764e-11,7.72959770737168e-11,9.305939221806674e-13,0.0,0.0,0.0,0.0,0.0,0.0,0.0,0.0,0.0
1.149,26,1,150000000,base_footprint,-0.003853101615536528,-6.886487452704722e-06,0.9999925757191414,4.546552566384955e-05,0.0,0.0,0.0,0.0,0.0,0.0,0.0,0.0,0.0,3.871470298750416e-05,-0.00018040975484942816,9.875053512114547e-06,0.0,0.0,0.0,0.0,0.0,0.0,0.0,0.0,0.0,-2.1345240361784115e-11,9.415624283213134e-11,-1.047459084373571e-13,0.0,0.0,0.0,0.0,0.0,0.0,0.0,0.0,0.0
1.184,27,1,184000000,base_footprint,-0.0038531016148084527,-6.887093607574266e-06,0.9999925757261136,4.531188767848249e-05,0.0,0.0,0.0,0.0,0.0,0.0,0.0,0.0,0.0,3.871487866179129e-05,-0.0001804097264435538,9.8751121047321e-06,0.0,0.0,0.0,0.0,0.0,0.0,0.0,0.0,0.0,-2.4059419509673816e-11,1.1206597393900204e-10,-8.819506368108399e-13,0.0,0.0,0.0,0.0,0.0,0.0,0.0,0.0,0.0
1.219,28,1,218000000,base_footprint,-0.0038531016140753815,-6.887698855925778e-06,0.9999925757330621,4.5158249297406236e-05,0.0,0.0,0.0,0.0,0.0,0.0,0.0,0.0,0.0,3.871505144841111e-05,-0.00018040969781326174,9.875178613389639e-06,0.0,0.0,0.0,0.0,0.0,0.0,0.0,0.0,0.0,-2.6383533273729582e-11,1.2740724113053865e-10,-2.083805413355882e-12,0.0,0.0,0.0,0.0,0.0,0.0,0.0,0.0,0.0
1.252,29,1,252000000,base_footprint,-0.0038531016133384983,-6.8883032555049776e-06,0.999992575739987,4.500461053086259e-05,0.0,0.0,0.0,0.0,0.0,0.0,0.0,0.0,0.0,3.87152215994427e-05,-0.00018040966880520162,9.875250543789565e-06,0.0,0.0,0.0,0.0,0.0,0.0,0.0,0.0,0.0,-2.7979975641073636e-11,1.3790642858564147e-10,-3.34466007542913e-12,0.0,0.0,0.0,0.0,0.0,0.0,0.0,0.0,0.0
1.288,30,1,286000000,base_footprint,-0.003853101612597116,-6.888906859956377e-06,0.9999925757468885,4.485097136690258e-05,0.0,0.0,0.0,0.0,0.0,0.0,0.0,0.0,0.0,3.871538919610171e-05,-0.0001804096396916823,9.87533129137701e-06,0.0,0.0,0.0,0.0,0.0,0.0,0.0,0.0,0.0,-3.056942224670987e-11,1.5500381243951602e-10,-3.899367496828377e-12,0.0,0.0,0.0,0.0,0.0,0.0,0.0,0.0,0.0
1.32,31,1,320000000,base_footprint,-0.0038531016118519934,-6.8895097199289445e-06,0.9999925757537662,4.4697331815018864e-05,0.0,0.0,0.0,0.0,0.0,0.0,0.0,0.0,0.0,3.8715554318051886e-05,-0.00018040961040395812,9.875416812019542e-06,0.0,0.0,0.0,0.0,0.0,0.0,0.0,0.0,0.0,-3.197183348950347e-11,1.642440806107697e-10,-4.8614715300143725e-12,0.0,0.0,0.0,0.0,0.0,0.0,0.0,0.0,0.0
1.354,32,1,354000000,base_footprint,-0.0038531016111036697,-6.890111882331984e-06,0.9999925757606206,4.454369189244035e-05,0.0,0.0,0.0,0.0,0.0,0.0,0.0,0.0,0.0,3.871571726409185e-05,-0.00018040958080168415,9.875507201662463e-06,0.0,0.0,0.0,0.0,0.0,0.0,0.0,0.0,0.0,-3.340594901749229e-11,1.7367485022048952e-10,-5.8168656282395236e-12,0.0,0.0,0.0,0.0,0.0,0.0,0.0,0.0,0.0
1.388,33,1,388000000,base_footprint,-0.0038531016103514927,-6.890713391655923e-06,0.9999925757674513,4.439005160134508e-05,0.0,0.0,0.0,0.0,0.0,0.0,0.0,0.0,0.0,3.8715878035449006e-05,-0.00018040955137428708,9.875605149744679e-06,0.0,0.0,0.0,0.0,0.0,0.0,0.0,0.0,0.0,-3.56180304898649e-11,1.8833219196360585e-10,-6.167446479286794e-12,0.0,0.0,0.0,0.0,0.0,0.0,0.0,0.0,0.0
1.4220000000000002,34,1,422000000,base_footprint,-0.0038531016095963554,-6.891314288975741e-06,0.9999925757742585,4.423641092659535e-05,0.0,0.0,0.0,0.0,0.0,0.0,0.0,0.0,0.0,3.871603690098138e-05,-0.00018040952155816734,9.87570781555868e-06,0.0,0.0,0.0,0.0,0.0,0.0,0.0,0.0,0.0,-3.7010745027693626e-11,1.9747303888139863e-10,-7.0000835710773575e-12,0.0,0.0,0.0,0.0,0.0,0.0,0.0,0.0,0.0
1.456,35,1,456000000,base_footprint,-0.0038531016088378415,-6.891914614442075e-06,0.999992575781042,4.408276987007039e-05,0.0,0.0,0.0,0.0,0.0,0.0,0.0,0.0,0.0,3.8716194005942726e-05,-0.00018040949138283527,9.875815227726042e-06,0.0,0.0,0.0,0.0,0.0,0.0,0.0,0.0,0.0,-3.840827382488259e-11,2.0667181488096518e-10,-8.040599287896553e-12,0.0,0.0,0.0,0.0,0.0,0.0,0.0,0.0,0.0
1.494,36,1,490000000,base_footprint,-0.0038531016080767273,-6.892514403223684e-06,0.999992575787802,4.392912843249295e-05,0.0,0.0,0.0,0.0,0.0,0.0,0.0,0.0,0.0,3.871634929147144e-05,-0.00018040946148787434,9.87592767632572e-06,0.0,0.0,0.0,0.0,0.0,0.0,0.0,0.0,0.0,-3.988099498246684e-11,2.1643309699661072e-10,-7.964351852381316e-12,0.0,0.0,0.0,0.0,0.0,0.0,0.0,0.0,0.0
1.524,37,1,524000000,base_footprint,-0.0038531016073129767,-6.893113689728158e-06,0.9999925757945384,4.377548661940793e-05,0.0,0.0,0.0,0.0,0.0,0.0,0.0,0.0,0.0,3.8716503036852685e-05,-0.00018040943129405275,9.87604449446366e-06,0.0,0.0,0.0,0.0,0.0,0.0,0.0,0.0,0.0,-4.1166306195526994e-11,2.2490127407589387e-10,-9.044385297763908e-12,0.0,0.0,0.0,0.0,0.0,0.0,0.0,0.0,0.0
1.558,38,1,558000000,base_footprint,-0.003853101606546811,-6.893712505956846e-06,0.9999925758012513,4.362184443122215e-05,0.0,0.0,0.0,0.0,0.0,0.0,0.0,0.0,0.0,3.871665524659471e-05,-0.00018040940103669815,9.876164881390584e-06,0.0,0.0,0.0,0.0,0.0,0.0,0.0,0.0,0.0,-4.221617649492835e-11,2.3181588112359373e-10,-9.242152358145755e-12,0.0,0.0,0.0,0.0,0.0,0.0,0.0,0.0,0.0
1.592,39,1,592000000,base_footprint,-0.003853101605778012,-6.8943108819400645e-06,0.9999925758079404,4.346820186381389e-05,0.0,0.0,0.0,0.0,0.0,0.0,0.0,0.0,0.0,3.871680602205782e-05,-0.00018040937056236907,9.876288469226086e-06,0.0,0.0,0.0,0.0,0.0,0.0,0.0,0.0,0.0,-4.3157928299822026e-11,2.380159060901221e-10,-1.0031004252190694e-11,0.0,0.0,0.0,0.0,0.0,0.0,0.0,0.0,0.0
1.626,40,1,626000000,base_footprint,-0.0038531016050072915,-6.8949088452647355e-06,0.9999925758146062,4.3314558922932526e-05,0.0,0.0,0.0,0.0,0.0,0.0,0.0,0.0,0.0,3.871695545597918e-05,-0.00018040934001861063,9.876416799711847e-06,0.0,0.0,0.0,0.0,0.0,0.0,0.0,0.0,0.0,-4.455074529966096e-11,2.4721225726978503e-10,-1.041301081434381e-11,0.0,0.0,0.0,0.0,0.0,0.0,0.0,0.0,0.0
1.6600000000000001,41,1,660000000,base_footprint,-0.0038531016042344136,-6.895506422400773e-06,0.9999925758212482,4.316091560802328e-05,0.0,0.0,0.0,0.0,0.0,0.0,0.0,0.0,0.0,3.871710373457632e-05,-0.0001804093094098236,9.87654742869003e-06,0.0,0.0,0.0,0.0,0.0,0.0,0.0,0.0,0.0,-4.522598843911288e-11,2.516627137856619e-10,-1.0834002928890437e-11,0.0,0.0,0.0,0.0,0.0,0.0,0.0,0.0,0.0
1.694,42,1,694000000,base_footprint,-0.0038531016034596176,-6.8961036378426964e-06,0.9999925758278667,4.3007271916572846e-05,0.0,0.0,0.0,0.0,0.0,0.0,0.0,0.0,0.0,3.8717250783048816e-05,-0.00018040927876435866,9.87668217875374e-06,0.0,0.0,0.0,0.0,0.0,0.0,0.0,0.0,0.0,-4.6435043555800824e-11,2.596531564177627e-10,-1.1214242384998032e-11,0.0,0.0,0.0,0.0,0.0,0.0,0.0,0.0,0.0
1.7280000000000002,43,1,728000000,base_footprint,-0.003853101602683099,-6.896700514523617e-06,0.9999925758344618,4.285362785245546e-05,0.0,0.0,0.0,0.0,0.0,0.0,0.0,0.0,0.0,3.871739680061802e-05,-0.0001804092478536124,9.876818523538995e-06,0.0,0.0,0.0,0.0,0.0,0.0,0.0,0.0,0.0,-4.6909707196936415e-11,2.6273801590810727e-10,-1.1670440914350892e-11,0.0,0.0,0.0,0.0,0.0,0.0,0.0,0.0,0.0
1.7650000000000001,44,1,762000000,base_footprint,-0.0038531016019047208,-6.8972970743523185e-06,0.9999925758410331,4.269998341568569e-05,0.0,0.0,0.0,0.0,0.0,0.0,0.0,0.0,0.0,3.871754178708785e-05,-0.00018040921699968374,9.876958755384822e-06,0.0,0.0,0.0,0.0,0.0,0.0,0.0,0.0,0.0,-4.804725265155759e-11,2.7027642050252597e-10,-1.1996979926168497e-11,0.0,0.0,0.0,0.0,0.0,0.0,0.0,0.0,0.0
1.796,45,1,796000000,base_footprint,-0.0038531016011248147,-6.897893337222981e-06,0.9999925758475808,4.254633860514708e-05,0.0,0.0,0.0,0.0,0.0,0.0,0.0,0.0,0.0,3.871768570119375e-05,-0.0001804091860478929,9.87710121202773e-06,0.0,0.0,0.0,0.0,0.0,0.0,0.0,0.0,0.0,-4.870247726689986e-11,2.7458548880101923e-10,-1.223897392358024e-11,0.0,0.0,0.0,0.0,0.0,0.0,0.0,0.0,0.0
1.831,46,1,830000000,base_footprint,-0.0038477894005378927,-6.9588361353787394e-06,0.9999925963448318,4.151898565033324e-05,0.0,0.0,0.0,0.0,0.0,0.0,0.0,0.0,0.0,3.6555408499170754e-05,-0.00018433180975457728,-2.5686459312362264e-05,0.0,0.0,0.0,0.0,0.0,0.0,0.0,0.0,0.0,0.7148364121486223,-0.00012868458918527997,0.005488642417938369,0.0,0.0,0.0,0.0,0.0,0.0,0.0,0.0,0.0
1.864,47,1,864000000,base_footprint,-0.0038482955779462133,-7.002585591157877e-06,0.9999925943546188,4.25209049917637e-05,0.0,0.0,0.0,0.0,0.0,0.0,0.0,0.0,0.0,3.590453509788853e-05,-0.00010983317641986909,-7.345980501420256e-05,0.0,0.0,0.0,0.0,0.0,0.0,0.0,0.0,0.0,0.7861970110922546,-0.00015965665922951184,0.005959626297272156,0.0,0.0,0.0,0.0,0.0,0.0,0.0,0.0,0.0
1.901,48,1,898000000,base_footprint,-0.003849002945626226,-7.064295823770854e-06,0.9999925915288912,4.487485487942368e-05,0.0,0.0,0.0,0.0,0.0,0.0,0.0,0.0,0.0,3.485871369370285e-05,-9.266508107885729e-05,-0.0001524635496712531,0.0,0.0,0.0,0.0,0.0,0.0,0.0,0.0,0.0,0.7851192594423695,-0.00022388768261235757,0.00601589828579983,0.0,0.0,0.0,0.0,0.0,0.0,0.0,0.0,0.0
1.932,49,1,932000000,base_footprint,-0.003850086717065718,-7.142303271608265e-06,0.9999925871474081,4.931016052376541e-05,0.0,0.0,0.0,0.0,0.0,0.0,0.0,0.0,0.0,3.504301374039415e-05,-7.714691384346466e-05,-0.0002747199425474007,0.0,0.0,0.0,0.0,0.0,0.0,0.0,0.0,0.0,0.7734101356358581,-0.0003136444849778246,0.005932067240235937,0.0,0.0,0.0,0.0,0.0,0.0,0.0,0.0,0.0
1.952,50,1,966000000,base_footprint,-0.0038515769826761278,-7.228133486413683e-06,0.9999925809988652,5.7006391898408754e-05,0.0,0.0,0.0,0.0,0.0,0.0,0.0,0.0,0.0,3.6124554376942384e-05,-6.519238714877514e-05,-0.00047240947738394403,0.0,0.0,0.0,0.0,0.0,0.0,0.0,0.0,0.0,0.7399999375331008,-0.0004681622003002425,0.005684518729767309,0.0,0.0,0.0,0.0,0.0,0.0,0.0,0.0,0.0
2.0,51,2,0,base_footprint,-0.0038522865700805885,-7.359181497861269e-06,0.9999925774480892,6.987669121938202e-05,0.0,0.0,0.0,0.0,0.0,0.0,0.0,0.0,0.0,-1.409103908486202e-05,-0.002436443786298087,-0.0009237710215169194,0.0,0.0,0.0,0.0,0.0,0.0,0.0,0.0,0.0,0.6730381843133703,-0.0009710486491933397,0.006914685585841857,0.0,0.0,0.0,0.0,0.0,0.0,0.0,0.0,0.0
2.034,52,2,34000000,base_footprint,-0.0038557543908281926,-7.922210288378951e-06,0.9999925625659811,8.892715410912303e-05,0.0,0.0,0.0,0.0,0.0,0.0,0.0,0.0,0.0,3.164658053563554e-05,-3.016465886297346e-05,-0.001235256003645786,0.0,0.0,0.0,0.0,0.0,0.0,0.0,0.0,0.0,0.554241269458207,-0.0007027349919640788,0.002468360409982287,0.0,0.0,0.0,0.0,0.0,0.0,0.0,0.0,0.0
2.069,53,2,68000000,base_footprint,-0.00385770568430666,-7.93036924964526e-06,0.999992553125506,0.00010833971848951262,0.0,0.0,0.0,0.0,0.0,0.0,0.0,0.0,0.0,0.00015043644944261523,-4.367180911533893e-05,-0.00045451453906944516,0.0,0.0,0.0,0.0,0.0,0.0,0.0,0.0,0.0,0.3958489749808288,0.0014313935547756213,0.0031478547599542678,0.0,0.0,0.0,0.0,0.0,0.0,0.0,0.0,0.0
2.102,54,2,102000000,base_footprint,-0.003859813312177794,-7.382045001367188e-06,0.9999925444179452,0.00011355714177473821,0.0,0.0,0.0,0.0,0.0,0.0,0.0,0.0,0.0,2.942653416798786e-05,-9.289421584675981e-05,0.0008009786245317034,0.0,0.0,0.0,0.0,0.0,0.0,0.0,0.0,0.0,0.20122811419113076,-0.0004627783495677748,0.0016088370390371935,0.0,0.0,0.0,0.0,0.0,0.0,0.0,0.0,0.0
2.136,55,2,136000000,base_footprint,-0.003852279382978488,-1.2706096887335413e-06,0.999992579060302,4.202697561438951e-05,0.0,0.0,0.0,0.0,0.0,0.0,0.0,0.0,0.0,-1.32084604065212e-06,-0.00018885831441494593,0.0036531716460348426,0.0,0.0,0.0,0.0,0.0,0.0,0.0,0.0,0.0,0.036886627134438056,0.008386839065721182,0.0003740950054991455,0.0,0.0,0.0,0.0,0.0,0.0,0.0,0.0,0.0
2.173,56,2,170000000,base_footprint,-0.0038466784978687767,-4.830422380200102e-06,0.9999925679345683,0.00025906915912184115,0.0,0.0,0.0,0.0,0.0,0.0,0.0,0.0,0.0,-3.0072110325770132e-06,-0.00021971022610607727,-0.032200641726364373,0.0,0.0,0.0,0.0,0.0,0.0,0.0,0.0,0.0,0.08194421619945305,-0.00792882661403735,0.0010902543661314092,0.0,0.0,0.0,0.0,0.0,0.0,0.0,0.0,0.0
2.204,57,2,204000000,base_footprint,-0.003869009409663147,-1.0624217345057454e-06,0.9999917820653448,0.0012110189244549892,0.0,0.0,0.0,0.0,0.0,0.0,0.0,0.0,0.0,-0.0003287207690666376,0.003402929077399391,-0.06860921632231114,0.0,0.0,0.0,0.0,0.0,0.0,0.0,0.0,0.0,0.10531871238872782,-0.01308337046952304,-0.0049874047170791296,0.0,0.0,0.0,0.0,0.0,0.0,0.0,0.0,0.0
2.243,58,2,238000000,base_footprint,-0.00384780335165396,5.305654837398688e-06,0.9999910960477115,0.0017326876561670553,0.0,0.0,0.0,0.0,0.0,0.0,0.0,0.0,0.0,-0.0008120807883024518,-0.00040349755744905524,-0.05327894346343133,0.0,0.0,0.0,0.0,0.0,0.0,0.0,0.0,0.0,-0.4845630285896867,-0.0027672616907974345,0.0015121035357609995,0.0,0.0,0.0,0.0,0.0,0.0,0.0,0.0,0.0
2.284,59,2,272000000,base_footprint,-0.0038489111154033644,1.2260036889029421e-05,0.9999827783991251,0.004430421885503112,0.0,0.0,0.0,0.0,0.0,0.0,0.0,0.0,0.0,0.001814418640683354,0.0001418762738812789,-0.23194461966370497,0.0,0.0,0.0,0.0,0.0,0.0,0.0,0.0,0.0,0.315992570256349,-0.03253062384599148,0.0018181513757855056,0.0,0.0,0.0,0.0,0.0,0.0,0.0,0.0,0.0
2.312,60,2,306000000,base_footprint,-0.0038551093281970388,2.52952639171218e-05,0.9999509105842407,0.009127645587184095,0.0,0.0,0.0,0.0,0.0,0.0,0.0,0.0,0.0,0.0018272202786839952,0.0005127006513451165,-0.20235694384150232,0.0,0.0,0.0,0.0,0.0,0.0,0.0,0.0,0.0,0.12610132342086192,-0.05848097467409313,0.0008871726136272887,0.0,0.0,0.0,0.0,0.0,0.0,0.0,0.0,0.0
2.34,61,2,340000000,base_footprint,-0.003848862632384678,3.2666642779532016e-05,0.9999401646340954,0.010239743203116339,0.0,0.0,0.0,0.0,0.0,0.0,0.0,0.0,0.0,-1.5513430442989939e-06,-0.0018137466450753896,-0.08257991868093736,0.0,0.0,0.0,0.0,0.0,0.0,0.0,0.0,0.0,0.1601064262827467,-0.020949875354276164,0.0030719249220764002,0.0,0.0,0.0,0.0,0.0,0.0,0.0,0.0,0.0
2.374,62,2,374000000,base_footprint,-0.003850270541339888,4.3817283137731594e-05,0.9999047193147477,0.01325616041317079,0.0,0.0,0.0,0.0,0.0,0.0,0.0,0.0,0.0,0.0020063766352203935,-0.00011787534062364164,-0.26865987580613154,0.0,0.0,0.0,0.0,0.0,0.0,0.0,0.0,0.0,0.48739744144691294,-0.05957707192696863,0.0024673005964980406,0.0,0.0,0.0,0.0,0.0,0.0,0.0,0.0,0.0
2.404,63,2,408000000,base_footprint,-0.0038558706961886193,6.489663512429567e-05,0.9998236997706477,0.018376545554995988,0.0,0.0,0.0,0.0,0.0,0.0,0.0,0.0,0.0,0.0015176547455171172,-0.004290782188177243,-0.2950178418648862,0.0,0.0,0.0,0.0,0.0,0.0,0.0,0.0,0.0,-0.12494460401539675,-0.056503359073245746,0.0037026153976830512,0.0,0.0,0.0,0.0,0.0,0.0,0.0,0.0,0.0
2.442,64,2,442000000,base_footprint,-0.003852016590693209,7.629278034922257e-05,0.9997510415419707,0.021977513129142846,0.0,0.0,0.0,0.0,0.0,0.0,0.0,0.0,0.0,0.0017507461838251492,-0.00014143485161882577,-0.22521933806281225,0.0,0.0,0.0,0.0,0.0,0.0,0.0,0.0,0.0,-0.30849692776164167,-0.019945902668725698,-0.006898983972782043,0.0,0.0,0.0,0.0,0.0,0.0,0.0,0.0,0.0
2.474,65,2,476000000,base_footprint,-0.003854083718987998,9.507756690780248e-05,0.9996355622061464,0.026718528622382772,0.0,0.0,0.0,0.0,0.0,0.0,0.0,0.0,0.0,0.0021259381197856683,-0.00024258390688179746,-0.2929096896067748,0.0,0.0,0.0,0.0,0.0,0.0,0.0,0.0,0.0,0.17232429157562215,-0.07520986068813906,0.0011784532167453936,0.0,0.0,0.0,0.0,0.0,0.0,0.0,0.0,0.0
2.519,66,2,510000000,base_footprint,-0.0038495444876205614,0.00011817207671008805,0.9994878931851311,0.031766624292585526,0.0,0.0,0.0,0.0,0.0,0.0,0.0,0.0,0.0,0.0028120976062490626,0.00019197017353124303,-0.301957889758592,0.0,0.0,0.0,0.0,0.0,0.0,0.0,0.0,0.0,-0.17242567456710747,-0.04068292636190573,-0.0015317071846335452,0.0,0.0,0.0,0.0,0.0,0.0,0.0,0.0,0.0
2.544,67,2,544000000,base_footprint,-0.003855076151252737,0.00013072629032900916,0.9993330537935616,0.03631210396189716,0.0,0.0,0.0,0.0,0.0,0.0,0.0,0.0,0.0,0.002267765753203842,-0.0013419057935088793,-0.2819684641143918,0.0,0.0,0.0,0.0,0.0,0.0,0.0,0.0,0.0,-0.1768300908997821,-0.030383516609952664,0.0007950388986923932,0.0,0.0,0.0,0.0,0.0,0.0,0.0,0.0,0.0
2.577,68,2,578000000,base_footprint,-0.003848893020234593,0.00015463720343362783,0.9991604419463442,0.04078692632989428,0.0,0.0,0.0,0.0,0.0,0.0,0.0,0.0,0.0,0.0015935195293167747,0.0003541823390049825,-0.20519668497218368,0.0,0.0,0.0,0.0,0.0,0.0,0.0,0.0,0.0,0.03420678234464908,-0.060075769637479653,-0.0027294051457396845,0.0,0.0,0.0,0.0,0.0,0.0,0.0,0.0,0.0
2.612,69,2,612000000,base_footprint,-0.00384939446831116,0.00016520609449550915,0.9990431151071129,0.0435661454141857,0.0,0.0,0.0,0.0,0.0,0.0,0.0,0.0,0.0,0.0016923680867923264,0.00016695817836161634,-0.17727663067035498,0.0,0.0,0.0,0.0,0.0,0.0,0.0,0.0,0.0,0.049913341487310935,-0.04151967390335194,0.0005359113676061012,0.0,0.0,0.0,0.0,0.0,0.0,0.0,0.0,0.0
2.6470000000000002,70,2,646000000,base_footprint,-0.003847106965054134,0.00017884501674839397,0.9988869685095156,0.04701055120214288,0.0,0.0,0.0,0.0,0.0,0.0,0.0,0.0,0.0,0.0019767396406494193,-0.0003146663967064691,-0.23553665604562407,0.0,0.0,0.0,0.0,0.0,0.0,0.0,0.0,0.0,0.1423304433634992,-0.06722335236476706,0.0021093151392627954,0.0,0.0,0.0,0.0,0.0,0.0,0.0,0.0,0.0
2.68,71,2,680000000,base_footprint,-0.0038521166500346373,0.00018592181518283223,0.9986640649322972,0.0515287496771821,0.0,0.0,0.0,0.0,0.0,0.0,0.0,0.0,0.0,0.0017981213040277728,-0.00040036748237960804,-0.24360717117569855,0.0,0.0,0.0,0.0,0.0,0.0,0.0,0.0,0.0,-0.04624301448961685,-0.04866709236846676,7.188926552650736e-05,0.0,0.0,0.0,0.0,0.0,0.0,0.0,0.0,0.0
2.72,72,2,714000000,base_footprint,-0.0038486238623258143,0.00021017140966946208,0.9984821746658131,0.054940793559736995,0.0,0.0,0.0,0.0,0.0,0.0,0.0,0.0,0.0,0.0018328875403213602,-0.000927537204580352,-0.2551646003508262,0.0,0.0,0.0,0.0,0.0,0.0,0.0,0.0,0.0,-0.14119865495582518,-0.010731246007334976,-0.00043552909100670677,0.0,0.0,0.0,0.0,0.0,0.0,0.0,0.0,0.0
2.749,73,2,748000000,base_footprint,-0.00384529226232244,0.00022627512703553068,0.9981221592907894,0.06113360499493114,0.0,0.0,0.0,0.0,0.0,0.0,0.0,0.0,0.0,0.003720575813316033,2.915510757911261e-05,-0.409861171399765,0.0,0.0,0.0,0.0,0.0,0.0,0.0,0.0,0.0,0.25311730776298025,-0.13773513985048802,-0.0004701404139156025,0.0,0.0,0.0,0.0,0.0,0.0,0.0,0.0,0.0
2.782,74,2,782000000,base_footprint,-0.003845640808210769,0.00025521343101678483,0.9976736113980375,0.06806255235352825,0.0,0.0,0.0,0.0,0.0,0.0,0.0,0.0,0.0,0.0034991833204362113,-8.317419059474478e-05,-0.4084938460702342,0.0,0.0,0.0,0.0,0.0,0.0,0.0,0.0,0.0,-0.018448106459327294,-0.08501232508570652,0.0008613271417015954,0.0,0.0,0.0,0.0,0.0,0.0,0.0,0.0,0.0
2.811,75,2,816000000,base_footprint,-0.003840133281863924,0.00028001533127196195,0.9971581862265808,0.07523780040051387,0.0,0.0,0.0,0.0,0.0,0.0,0.0,0.0,0.0,0.0030120473805295015,-0.001784450553139692,-0.42975265228734577,0.0,0.0,0.0,0.0,0.0,0.0,0.0,0.0,0.0,0.1410778501233681,-0.13725620373358377,0.0034822227611729364,0.0,0.0,0.0,0.0,0.0,0.0,0.0,0.0,0.0
2.8520000000000003,76,2,850000000,base_footprint,-0.0038425023381448483,0.00030758565940126187,0.9966438263321568,0.08176933411029672,0.0,0.0,0.0,0.0,0.0,0.0,0.0,0.0,0.0,0.002899007045242635,-0.0003132656560037514,-0.35733057110530675,0.0,0.0,0.0,0.0,0.0,0.0,0.0,0.0,0.0,0.11811964897882707,-0.1298009496620726,-0.0009916482715342982,0.0,0.0,0.0,0.0,0.0,0.0,0.0,0.0,0.0
2.872,77,2,884000000,base_footprint,-0.0038399630605641727,0.00033033251103840915,0.9961286734140706,0.0878226142086957,0.0,0.0,0.0,0.0,0.0,0.0,0.0,0.0,0.0,0.0026654919112524293,-0.0006029905402124805,-0.35758244160765,0.0,0.0,0.0,0.0,0.0,0.0,0.0,0.0,0.0,-0.026135071236601408,-0.07537281611157012,0.0003902040494719928,0.0,0.0,0.0,0.0,0.0,0.0,0.0,0.0,0.0
2.918,78,2,918000000,base_footprint,-0.003838677518805281,0.00035050088552217437,0.9956433701614402,0.09316341104535325,0.0,0.0,0.0,0.0,0.0,0.0,0.0,0.0,0.0,0.0015173364670676912,-0.0011017808403187294,-0.2663206432571877,0.0,0.0,0.0,0.0,0.0,0.0,0.0,0.0,0.0,-0.046804765919690836,-0.05839991162394238,0.0004319027328170299,0.0,0.0,0.0,0.0,0.0,0.0,0.0,0.0,0.0
2.952,79,2,952000000,base_footprint,-0.003837773752214026,0.00036751680657971434,0.9952123383277289,0.09766031980429885,0.0,0.0,0.0,0.0,0.0,0.0,0.0,0.0,0.0,0.0018636768626721142,-0.0004540632899459239,-0.2657025273916204,0.0,0.0,0.0,0.0,0.0,0.0,0.0,0.0,0.0,-0.022672486771158663,-0.054642980623318294,-0.0009020772890749675,0.0,0.0,0.0,0.0,0.0,0.0,0.0,0.0,0.0
2.988,80,2,986000000,base_footprint,-0.0038367325711345826,0.0003845843444418405,0.9947618643580799,0.10214678064871456,0.0,0.0,0.0,0.0,0.0,0.0,0.0,0.0,0.0,0.0018342969268921893,-0.00044941471183258786,-0.2649569308365387,0.0,0.0,0.0,0.0,0.0,0.0,0.0,0.0,0.0,-0.024386153501666605,-0.053544235156918814,-0.00017229756818793192,0.0,0.0,0.0,0.0,0.0,0.0,0.0,0.0,0.0
3.015,81,3,20000000,base_footprint,-0.0038307488354657406,0.0004063253611409722,0.9942538370316493,0.10697881944994153,0.0,0.0,0.0,0.0,0.0,0.0,0.0,0.0,0.0,0.0013971451729565538,0.0010809862947422579,-0.29941325633865756,0.0,0.0,0.0,0.0,0.0,0.0,0.0,0.0,0.0,-0.11865632133411363,-0.015588771201696508,-0.003925965173446395,0.0,0.0,0.0,0.0,0.0,0.0,0.0,0.0,0.0
3.056,82,3,54000000,base_footprint,-0.0038360610311523446,0.00042076387650102437,0.9937227751793686,0.11180408616566628,0.0,0.0,0.0,0.0,0.0,0.0,0.0,0.0,0.0,0.0019965997327644645,-0.000506242813075604,-0.2625602870386126,0.0,0.0,0.0,0.0,0.0,0.0,0.0,0.0,0.0,-0.11310023522057142,-0.015727905045826714,0.0025188828004978413,0.0,0.0,0.0,0.0,0.0,0.0,0.0,0.0,0.0
3.088,83,3,88000000,base_footprint,-0.0038264864817268074,0.00043893931559188217,0.9932921889241433,0.11556726507002996,0.0,0.0,0.0,0.0,0.0,0.0,0.0,0.0,0.0,0.0012188486498736033,-0.0004252201087476488,-0.19916068400779952,0.0,0.0,0.0,0.0,0.0,0.0,0.0,0.0,0.0,-0.17015416630572014,0.03110150742336206,-0.0015341578928958848,0.0,0.0,0.0,0.0,0.0,0.0,0.0,0.0,0.0
3.122,84,3,122000000,base_footprint,-0.003829987395033173,0.000448329455890337,0.9929828552433079,0.11819551340935396,0.0,0.0,0.0,0.0,0.0,0.0,0.0,0.0,0.0,0.0008940367954522654,0.0002909438074547345,-0.12392099358263758,0.0,0.0,0.0,0.0,0.0,0.0,0.0,0.0,0.0,-0.02808712750020417,-0.02344537353916618,-0.001214618615154613,0.0,0.0,0.0,0.0,0.0,0.0,0.0,0.0,0.0
3.156,85,3,156000000,base_footprint,-0.003828102202358085,0.000457278879486687,0.9927319192891293,0.12028496561946792,0.0,0.0,0.0,0.0,0.0,0.0,0.0,0.0,0.0,0.000941045996704565,-0.0003412253091669471,-0.12374450625507008,0.0,0.0,0.0,0.0,0.0,0.0,0.0,0.0,0.0,-0.012995456166062668,-0.02240431396888986,0.0009204016984123007,0.0,0.0,0.0,0.0,0.0,0.0,0.0,0.0,0.0
3.19,86,3,190000000,base_footprint,-0.0038272216009840325,0.0004678987029883184,0.992454416956641,0.12255351365372795,0.0,0.0,0.0,0.0,0.0,0.0,0.0,0.0,0.0,0.0010535618531979601,6.605744510353347e-07,-0.12672065090367665,0.0,0.0,0.0,0.0,0.0,0.0,0.0,0.0,0.0,0.12575596655423946,-0.09979971965090915,0.0009610010457249524,0.0,0.0,0.0,0.0,0.0,0.0,0.0,0.0,0.0
3.224,87,3,224000000,base_footprint,-0.003827308724333545,0.0004756100518966804,0.9922137751172149,0.12448674616461103,0.0,0.0,0.0,0.0,0.0,0.0,0.0,0.0,0.0,0.0007851086193011032,-0.0003338364031325752,-0.11152872072310192,0.0,0.0,0.0,0.0,0.0,0.0,0.0,0.0,0.0,0.017902495305767492,-0.036702577208096554,0.0007339579860238482,0.0,0.0,0.0,0.0,0.0,0.0,0.0,0.0,0.0
3.258,88,3,258000000,base_footprint,-0.0038207978044597847,0.0004776251190543606,0.9919527061536719,0.1265503936492887,0.0,0.0,0.0,0.0,0.0,0.0,0.0,0.0,0.0,0.0007242573562134379,-0.0007746848548900875,-0.1298783192735152,0.0,0.0,0.0,0.0,0.0,0.0,0.0,0.0,0.0,-0.045142361366204996,-0.005135459048443839,0.00013935838877794022,0.0,0.0,0.0,0.0,0.0,0.0,0.0,0.0,0.0
3.292,89,3,292000000,base_footprint,-0.0038195345335667245,0.0004852565679723203,0.9916849810750324,0.12863154353510273,0.0,0.0,0.0,0.0,0.0,0.0,0.0,0.0,0.0,0.000767067786833541,-0.0004111642093605558,-0.11024653683672618,0.0,0.0,0.0,0.0,0.0,0.0,0.0,0.0,0.0,0.023532436358148365,-0.04427995087743361,-0.0002124505250476998,0.0,0.0,0.0,0.0,0.0,0.0,0.0,0.0,0.0
3.326,90,3,326000000,base_footprint,-0.003827137456294125,0.0004973380050778539,0.9915395888734639,0.12974725188011363,0.0,0.0,0.0,0.0,0.0,0.0,0.0,0.0,0.0,0.00016277392824274654,-0.00021360967262200537,-0.02236696861111862,0.0,0.0,0.0,0.0,0.0,0.0,0.0,0.0,0.0,-0.4849807257775141,0.2595461551391851,-0.004046317617985113,0.0,0.0,0.0,0.0,0.0,0.0,0.0,0.0,0.0
3.36,91,3,360000000,base_footprint,-0.003818399803968937,0.0004940935651490796,0.9914143931739411,0.13070071423688695,0.0,0.0,0.0,0.0,0.0,0.0,0.0,0.0,0.0,0.0006168050103555172,-0.0004015470964230996,-0.08667871057271402,0.0,0.0,0.0,0.0,0.0,0.0,0.0,0.0,0.0,0.24077366940089504,-0.15062346171990482,0.0017356765515136189,0.0,0.0,0.0,0.0,0.0,0.0,0.0,0.0,0.0
3.39,92,3,394000000,base_footprint,-0.003822306587744348,0.0004997728302721127,0.9912716009194729,0.1317791842819377,0.0,0.0,0.0,0.0,0.0,0.0,0.0,0.0,0.0,0.000385864043040891,-0.000145106272957854,-0.05984861461812406,0.0,0.0,0.0,0.0,0.0,0.0,0.0,0.0,0.0,0.0406218253148048,-0.03957608761538988,0.00019887713620583323,0.0,0.0,0.0,0.0,0.0,0.0,0.0,0.0,0.0
3.431,93,3,428000000,base_footprint,-0.003822058972140173,0.0005046362516531928,0.9910869576900123,0.13316072808535834,0.0,0.0,0.0,0.0,0.0,0.0,0.0,0.0,0.0,0.0005460801534924538,-0.00015703879652967102,-0.08630317338227038,0.0,0.0,0.0,0.0,0.0,0.0,0.0,0.0,0.0,-0.0027645673299883664,-0.018039360274298644,7.21098253822407e-05,0.0,0.0,0.0,0.0,0.0,0.0,0.0,0.0,0.0
3.471,94,3,462000000,base_footprint,-0.0038219325627968973,0.0005098757709838673,0.9908916203030342,0.1346065736560115,0.0,0.0,0.0,0.0,0.0,0.0,0.0,0.0,0.0,0.0004559421275111767,-0.0001787989187467939,-0.08562477121996098,0.0,0.0,0.0,0.0,0.0,0.0,0.0,0.0,0.0,-0.010283093667727377,-0.014847373370220282,-3.2127848723527506e-05,0.0,0.0,0.0,0.0,0.0,0.0,0.0,0.0,0.0
3.496,95,3,496000000,base_footprint,-0.003821965344290347,0.0005153114305978482,0.9906972657607135,0.13602960945795228,0.0,0.0,0.0,0.0,0.0,0.0,0.0,0.0,0.0,0.000455998895830051,-0.00018625416661528435,-0.08246643145108319,0.0,0.0,0.0,0.0,0.0,0.0,0.0,0.0,0.0,-0.015362134542383114,-0.01070574806704256,-6.248298177342164e-05,0.0,0.0,0.0,0.0,0.0,0.0,0.0,0.0,0.0
3.5300000000000002,96,3,530000000,base_footprint,-0.00381384928792231,0.0005215853347501715,0.9906386452704818,0.13645606252201517,0.0,0.0,0.0,0.0,0.0,0.0,0.0,0.0,0.0,4.4034024252575255e-05,-0.00013129440258470153,-0.015115204209256066,0.0,0.0,0.0,0.0,0.0,0.0,0.0,0.0,0.0,0.13085736950079116,-0.08694812060842988,0.00139441494788346,0.0,0.0,0.0,0.0,0.0,0.0,0.0,0.0,0.0
3.564,97,3,564000000,base_footprint,-0.0038131764249120727,0.0005240172132918437,0.9905528508284621,0.1370774773882246,0.0,0.0,0.0,0.0,0.0,0.0,0.0,0.0,0.0,0.00034997104978771564,-0.00021572676700728078,-0.06947006961948324,0.0,0.0,0.0,0.0,0.0,0.0,0.0,0.0,0.0,0.1379925975419772,-0.09330799249844049,0.0011084979875127484,0.0,0.0,0.0,0.0,0.0,0.0,0.0,0.0,0.0
3.598,98,3,598000000,base_footprint,-0.0038188272369324575,0.0005265368802164122,0.9903731049719673,0.13836998325371389,0.0,0.0,0.0,0.0,0.0,0.0,0.0,0.0,0.0,0.0004394906474411434,-0.0003230332879167886,-0.07655416992895855,0.0,0.0,0.0,0.0,0.0,0.0,0.0,0.0,0.0,0.008171527285884536,-0.025328508579029022,0.00022848524888894676,0.0,0.0,0.0,0.0,0.0,0.0,0.0,0.0,0.0
3.632,99,3,632000000,base_footprint,-0.0038175348922154977,0.0005358609428167138,0.9900595460943906,0.14059599733906405,0.0,0.0,0.0,0.0,0.0,0.0,0.0,0.0,0.0,0.0009830611858250991,-0.0004515166308643949,-0.1377809893349441,0.0,0.0,0.0,0.0,0.0,0.0,0.0,0.0,0.0,-0.0005937171954454347,-0.03327511572439087,-0.00010900541081000376,0.0,0.0,0.0,0.0,0.0,0.0,0.0,0.0,0.0
3.657,100,3,666000000,base_footprint,-0.0038162781262817778,0.0005454561682199619,0.9897264328350911,0.14292209992285143,0.0,0.0,0.0,0.0,0.0,0.0,0.0,0.0,0.0,0.0010334521587585322,-0.0004192859702846622,-0.13824586762098443,0.0,0.0,0.0,0.0,0.0,0.0,0.0,0.0,0.0,-0.01613377461730458,-0.02592526982715609,-0.00014575957295332842,0.0,0.0,0.0,0.0,0.0,0.0,0.0,0.0,0.0
3.699,101,3,700000000,base_footprint,-0.003816381860748743,0.0005553265700944724,0.9893872218718598,0.1452516851488377,0.0,0.0,0.0,0.0,0.0,0.0,0.0,0.0,0.0,0.0024422747134603302,0.0010326036485073476,-0.12950356832332338,0.0,0.0,0.0,0.0,0.0,0.0,0.0,0.0,0.0,-0.029548912496179486,-0.01578202921194716,-0.003567705407312056,0.0,0.0,0.0,0.0,0.0,0.0,0.0,0.0,0.0
3.732,102,3,734000000,base_footprint,-0.0038162293556815207,0.0005597315621083246,0.9892368828206172,0.1462720505135279,0.0,0.0,0.0,0.0,0.0,0.0,0.0,0.0,0.0,0.0004152156801237051,-0.0002062563733724864,-0.05682417890706863,0.0,0.0,0.0,0.0,0.0,0.0,0.0,0.0,0.0,-0.09451859001786461,0.044995924256288795,0.0028603339713021035,0.0,0.0,0.0,0.0,0.0,0.0,0.0,0.0,0.0
3.768,103,3,768000000,base_footprint,-0.003809963357757778,0.0005577715357778661,0.9890687852358381,0.14740458317918798,0.0,0.0,0.0,0.0,0.0,0.0,0.0,0.0,0.0,0.0004511891734386007,-0.00028913075441710064,-0.0704448298338488,0.0,0.0,0.0,0.0,0.0,0.0,0.0,0.0,0.0,-0.030804924913346993,0.0030288458961630817,-0.00019166703320844624,0.0,0.0,0.0,0.0,0.0,0.0,0.0,0.0,0.0
3.802,104,3,802000000,base_footprint,-0.003812408396101886,0.000564083237635491,0.9889171678406342,0.148418268762243,0.0,0.0,0.0,0.0,0.0,0.0,0.0,0.0,0.0,0.002534382259587814,0.001660219321960036,-0.07476259704654172,0.0,0.0,0.0,0.0,0.0,0.0,0.0,0.0,0.0,0.05477709216208556,-0.053972959989537196,-0.0024791518835671684,0.0,0.0,0.0,0.0,0.0,0.0,0.0,0.0,0.0
3.8440000000000003,105,3,836000000,base_footprint,-0.0038122977178109306,0.0005704373264338921,0.9886666764703137,0.15007779257608841,0.0,0.0,0.0,0.0,0.0,0.0,0.0,0.0,0.0,0.000722557358043025,-0.00027016364348029484,-0.09963018197068012,0.0,0.0,0.0,0.0,0.0,0.0,0.0,0.0,0.0,0.03936418932795631,-0.052226605027247665,0.002995334417385383,0.0,0.0,0.0,0.0,0.0,0.0,0.0,0.0,0.0
3.87,106,3,870000000,base_footprint,-0.003811746317378244,0.0005762068551678816,0.988411566659104,0.15174884997972093,0.0,0.0,0.0,0.0,0.0,0.0,0.0,0.0,0.0,0.0006550626326793437,-0.00027903108201925224,-0.09955689547642507,0.0,0.0,0.0,0.0,0.0,0.0,0.0,0.0,0.0,-0.012251012003863505,-0.01830601474823039,-6.953937644873009e-06,0.0,0.0,0.0,0.0,0.0,0.0,0.0,0.0,0.0
3.904,107,3,904000000,base_footprint,-0.00381297200747499,0.0005889004834227269,0.9881483342720659,0.1534535236351139,0.0,0.0,0.0,0.0,0.0,0.0,0.0,0.0,0.0,0.0008790188187933988,-0.0013955764690440364,-0.12566682448607738,0.0,0.0,0.0,0.0,0.0,0.0,0.0,0.0,0.0,-0.08361065101894277,0.03193343659464936,0.00034275351082863775,0.0,0.0,0.0,0.0,0.0,0.0,0.0,0.0,0.0
3.947,108,3,938000000,base_footprint,-0.003804420279127744,0.0005946687622257808,0.987812736317374,0.1555993917873238,0.0,0.0,0.0,0.0,0.0,0.0,0.0,0.0,0.0,0.00014894983837013175,-0.0008237400328360857,-0.11126019758497116,0.0,0.0,0.0,0.0,0.0,0.0,0.0,0.0,0.0,-0.18277549901032758,0.0987321705749469,-0.0019257358806620951,0.0,0.0,0.0,0.0,0.0,0.0,0.0,0.0,0.0
3.972,109,3,972000000,base_footprint,-0.003809448699346623,0.0005977338717456527,0.9875424401498303,0.15730562519422003,0.0,0.0,0.0,0.0,0.0,0.0,0.0,0.0,0.0,0.0004973134961287653,0.0003939597906224854,-0.0975048277660271,0.0,0.0,0.0,0.0,0.0,0.0,0.0,0.0,0.0,-0.04241212127739112,0.0018521218595057547,-0.0018919826477922599,0.0,0.0,0.0,0.0,0.0,0.0,0.0,0.0,0.0
4.006,110,4,6000000,base_footprint,-0.0037991745597852726,0.0006058633124603404,0.9873105605497939,0.1587547045890695,0.0,0.0,0.0,0.0,0.0,0.0,0.0,0.0,0.0,0.0005395197014572826,-0.000777752801102938,-0.057228132713578066,0.0,0.0,0.0,0.0,0.0,0.0,0.0,0.0,0.0,0.04251254347305104,-0.05346391945965824,0.0025135472783528565,0.0,0.0,0.0,0.0,0.0,0.0,0.0,0.0,0.0
4.042,111,4,40000000,base_footprint,-0.0038076968162088524,0.0006061446557958781,0.9872338597656836,0.15923077644024386,0.0,0.0,0.0,0.0,0.0,0.0,0.0,0.0,0.0,0.00019905201716673962,0.0006083658093884415,-0.036618755239396505,0.0,0.0,0.0,0.0,0.0,0.0,0.0,0.0,0.0,0.19116087796995568,-0.15010814346416418,-0.0004634127408461293,0.0,0.0,0.0,0.0,0.0,0.0,0.0,0.0,0.0
4.077,112,4,74000000,base_footprint,-0.0038060676584219144,0.0006089366611522495,0.9871347951447528,0.1598437964378015,0.0,0.0,0.0,0.0,0.0,0.0,0.0,0.0,0.0,0.00015387392158669819,-0.00019021451744040706,-0.036440037403297286,0.0,0.0,0.0,0.0,0.0,0.0,0.0,0.0,0.0,-0.004659374331291167,-0.0064623659552769455,0.0013047148605315289,0.0,0.0,0.0,0.0,0.0,0.0,0.0,0.0,0.0
4.108,113,4,108000000,base_footprint,-0.0038108237132779377,0.0006083354325375324,0.9870404386162858,0.16042530999439655,0.0,0.0,0.0,0.0,0.0,0.0,0.0,0.0,0.0,-0.0006423863660249554,-0.001693339191679326,-0.022250103402099992,0.0,0.0,0.0,0.0,0.0,0.0,0.0,0.0,0.0,-0.16758483215619688,0.11652096231494465,0.0008357197456674121,0.0,0.0,0.0,0.0,0.0,0.0,0.0,0.0,0.0
4.142,114,4,142000000,base_footprint,-0.0038013743607082607,0.0006153679033975552,0.9869806805236726,0.160792745944403,0.0,0.0,0.0,0.0,0.0,0.0,0.0,0.0,0.0,0.0006516827949219635,0.0002334424492098386,-0.0672436331600957,0.0,0.0,0.0,0.0,0.0,0.0,0.0,0.0,0.0,-0.20928013608850715,0.15238383719155868,-0.005113343263054959,0.0,0.0,0.0,0.0,0.0,0.0,0.0,0.0,0.0
4.176,115,4,176000000,base_footprint,-0.0038053428104410972,0.0006180758926897789,0.9868278404019671,0.16172801475278034,0.0,0.0,0.0,0.0,0.0,0.0,0.0,0.0,0.0,0.00035247983207481026,-0.0003410829407751383,-0.047543311356488906,0.0,0.0,0.0,0.0,0.0,0.0,0.0,0.0,0.0,0.09428789805008976,-0.08622275012341712,0.0017816213074241386,0.0,0.0,0.0,0.0,0.0,0.0,0.0,0.0,0.0
4.209,116,4,210000000,base_footprint,-0.003805620309724491,0.0006233816964406963,0.9866606433741155,0.16274490304121741,0.0,0.0,0.0,0.0,0.0,0.0,0.0,0.0,0.0,0.0016927138773570733,0.0011400439062025202,-0.1046057559912476,0.0,0.0,0.0,0.0,0.0,0.0,0.0,0.0,0.0,0.08042723469001985,-0.07576129737879113,-0.001140159661571092,0.0,0.0,0.0,0.0,0.0,0.0,0.0,0.0,0.0
4.251,117,4,244000000,base_footprint,-0.0037992733900500918,0.000624273040527537,0.9863565276269753,0.16457817659864418,0.0,0.0,0.0,0.0,0.0,0.0,0.0,0.0,0.0,0.0013351735366916883,0.0002109859231571589,-0.11980301875599061,0.0,0.0,0.0,0.0,0.0,0.0,0.0,0.0,0.0,-0.03887389912737484,0.0004647007654478121,0.000963174525856904,0.0,0.0,0.0,0.0,0.0,0.0,0.0,0.0,0.0
4.293,118,4,278000000,base_footprint,-0.0037987278848157654,0.0006312258977534438,0.9860208922453788,0.16657722316076148,0.0,0.0,0.0,0.0,0.0,0.0,0.0,0.0,0.0,0.0006773458517084229,-0.00044539963594266904,-0.11185681627802127,0.0,0.0,0.0,0.0,0.0,0.0,0.0,0.0,0.0,-0.001529033440554945,-0.031170919316165953,0.0008534488705415572,0.0,0.0,0.0,0.0,0.0,0.0,0.0,0.0,0.0
4.316,119,4,312000000,base_footprint,-0.003797110768464542,0.0006379483095770575,0.9857303826008367,0.16828781236136672,0.0,0.0,0.0,0.0,0.0,0.0,0.0,0.0,0.0,0.0004199358688370425,-7.923959780081778e-05,-0.10522212537195132,0.0,0.0,0.0,0.0,0.0,0.0,0.0,0.0,0.0,0.12715146429739368,-0.13019059266639538,0.00046704276424833376,0.0,0.0,0.0,0.0,0.0,0.0,0.0,0.0,0.0
4.341,120,4,346000000,base_footprint,-0.003800669500894454,0.0006449723055549483,0.9855051716960704,0.16960157865529654,0.0,0.0,0.0,0.0,0.0,0.0,0.0,0.0,0.0,0.0005795740658936354,-0.00015151307498638742,-0.07171305631769821,0.0,0.0,0.0,0.0,0.0,0.0,0.0,0.0,0.0,0.042847881632160155,-0.057508349595255255,0.0006827300920074267,0.0,0.0,0.0,0.0,0.0,0.0,0.0,0.0,0.0
4.379,121,4,380000000,base_footprint,-0.0037963510791594124,0.0006523874340791736,0.9853332809698704,0.17059744289487513,0.0,0.0,0.0,0.0,0.0,0.0,0.0,0.0,0.0,0.000160018357859673,-0.0005732757637795604,-0.025931438136233567,0.0,0.0,0.0,0.0,0.0,0.0,0.0,0.0,0.0,-0.07040892706368268,0.04067507561919423,0.00022681100144658314,0.0,0.0,0.0,0.0,0.0,0.0,0.0,0.0,0.0
4.414,122,4,414000000,base_footprint,-0.003800350118346424,0.0006453780132734895,0.9853863131111422,0.17029079469961952,0.0,0.0,0.0,0.0,0.0,0.0,0.0,0.0,0.0,0.0006153348741443528,-0.00014874941963814237,0.07097992666999511,0.0,0.0,0.0,0.0,0.0,0.0,0.0,0.0,0.0,0.027713149528193197,-0.019333464375831937,-0.0005525686549962235,0.0,0.0,0.0,0.0,0.0,0.0,0.0,0.0,0.0
4.452,123,4,448000000,base_footprint,-0.0038032613631877217,0.0006426332456811457,0.985584452090642,0.16914020817861156,0.0,0.0,0.0,0.0,0.0,0.0,0.0,0.0,0.0,-0.0007008816444800234,-0.0002080585011501143,0.07444994675345458,0.0,0.0,0.0,0.0,0.0,0.0,0.0,0.0,0.0,0.0029993370369123607,0.016991660552023558,0.0008529724687715578,0.0,0.0,0.0,0.0,0.0,0.0,0.0,0.0,0.0
4.489,124,4,482000000,base_footprint,-0.0038029779497758733,0.0006389666186538761,0.9857923862467299,0.16792409088142174,0.0,0.0,0.0,0.0,0.0,0.0,0.0,0.0,0.0,-0.0005391139797476948,0.0008883760272475843,0.06648036339300471,0.0,0.0,0.0,0.0,0.0,0.0,0.0,0.0,0.0,0.0266648413545312,-0.0013462680953582112,-0.001507171877985157,0.0,0.0,0.0,0.0,0.0,0.0,0.0,0.0,0.0
4.516,125,4,516000000,base_footprint,-0.0038032959275300805,0.0006357449314851197,0.985953982042046,0.16697268059147485,0.0,0.0,0.0,0.0,0.0,0.0,0.0,0.0,0.0,-0.0006942458094755224,-5.908020061310882e-05,0.04306582390541556,0.0,0.0,0.0,0.0,0.0,0.0,0.0,0.0,0.0,0.008551990363236296,0.009585655359439848,0.001382779189809335,0.0,0.0,0.0,0.0,0.0,0.0,0.0,0.0,0.0
4.55,126,4,550000000,base_footprint,-0.003801931022488397,0.0006337858778482885,0.9860763656935116,0.16624844256905735,0.0,0.0,0.0,0.0,0.0,0.0,0.0,0.0,0.0,-0.0004486191516725075,2.66456352395129e-05,0.04333572011996339,0.0,0.0,0.0,0.0,0.0,0.0,0.0,0.0,0.0,0.005782721274126946,0.007506027466109437,-9.571693274444652e-05,0.0,0.0,0.0,0.0,0.0,0.0,0.0,0.0,0.0
4.584,127,4,584000000,base_footprint,-0.0038022292114952504,0.0006316472990335534,0.9861978737992645,0.16552612418746132,0.0,0.0,0.0,0.0,0.0,0.0,0.0,0.0,0.0,-0.0003511142975829155,2.4241580646629777e-06,0.04324724602929274,0.0,0.0,0.0,0.0,0.0,0.0,0.0,0.0,0.0,0.006779885897666751,0.006791643764961375,-0.0001241196844353351,0.0,0.0,0.0,0.0,0.0,0.0,0.0,0.0,0.0
4.618,128,4,618000000,base_footprint,-0.0038027361604496255,0.0006298045842437118,0.9863076521745795,0.16487073059141996,0.0,0.0,0.0,0.0,0.0,0.0,0.0,0.0,0.0,-0.00024607968271955766,-3.3568336957073315e-05,0.036031986591786254,0.0,0.0,0.0,0.0,0.0,0.0,0.0,0.0,0.0,0.007359276998599676,0.005231816455404342,4.6518429726617914e-05,0.0,0.0,0.0,0.0,0.0,0.0,0.0,0.0,0.0
4.652,129,4,652000000,base_footprint,-0.0038035895288154897,0.0006281503613125293,0.9864072292029539,0.16427390635755637,0.0,0.0,0.0,0.0,0.0,0.0,0.0,0.0,0.0,-0.00018819212851275285,-7.958340618919959e-05,0.035459098526880464,0.0,0.0,0.0,0.0,0.0,0.0,0.0,0.0,0.0,0.004943181476699105,0.006103685648144084,2.2772516629668938e-05,0.0,0.0,0.0,0.0,0.0,0.0,0.0,0.0,0.0
4.69,130,4,686000000,base_footprint,-0.00380523120829246,0.0006270065057777124,0.9865034149032021,0.16369526402011117,0.0,0.0,0.0,0.0,0.0,0.0,0.0,0.0,0.0,-3.125659295198432e-05,-7.717146184974201e-05,0.032919437115674244,0.0,0.0,0.0,0.0,0.0,0.0,0.0,0.0,0.0,0.002020885567421615,0.009049296736054558,-0.00013504953551908726,0.0,0.0,0.0,0.0,0.0,0.0,0.0,0.0,0.0
4.72,131,4,720000000,base_footprint,-0.003802314117376685,0.0006221913047049943,0.9865272393485675,0.16355170836352467,0.0,0.0,0.0,0.0,0.0,0.0,0.0,0.0,0.0,-0.0013039210881191103,-0.000585721943954675,-0.014161887338520278,0.0,0.0,0.0,0.0,0.0,0.0,0.0,0.0,0.0,-0.010433493353250771,0.010177010165000729,0.0018377356394685422,0.0,0.0,0.0,0.0,0.0,0.0,0.0,0.0,0.0
4.751,132,4,754000000,base_footprint,-0.0038021067332193108,0.0006225944323033036,0.9865006515394417,0.1637120058908915,0.0,0.0,0.0,0.0,0.0,0.0,0.0,0.0,0.0,0.00093524515290126,0.00010133297431529279,-0.0008601044156901718,0.0,0.0,0.0,0.0,0.0,0.0,0.0,0.0,0.0,0.021563523921416822,-0.019593416463785394,-0.0027833687385957896,0.0,0.0,0.0,0.0,0.0,0.0,0.0,0.0,0.0
4.788,133,4,788000000,base_footprint,-0.00380378376548512,0.0006234241186562001,0.9864969987845373,0.1637339731409898,0.0,0.0,0.0,0.0,0.0,0.0,0.0,0.0,0.0,-6.713220242355125e-05,-9.339839854220713e-05,-0.0018485692981907384,0.0,0.0,0.0,0.0,0.0,0.0,0.0,0.0,0.0,-0.000707475108358295,0.00025772853446640525,0.0010930848776371494,0.0,0.0,0.0,0.0,0.0,0.0,0.0,0.0,0.0
4.822,134,4,822000000,base_footprint,-0.003802271678983353,0.0006252249249803634,0.9865513625872726,0.16340612228759455,0.0,0.0,0.0,0.0,0.0,0.0,0.0,0.0,0.0,-0.0009788451467907292,-0.0005256861844209895,0.07224977340315611,0.0,0.0,0.0,0.0,0.0,0.0,0.0,0.0,0.0,-0.2165217281817096,0.1713994475302092,-0.0009270792613038407,0.0,0.0,0.0,0.0,0.0,0.0,0.0,0.0,0.0
4.857,135,4,856000000,base_footprint,-0.003805922688018052,0.0006145556591235196,0.9868377835028351,0.16166733227540517,0.0,0.0,0.0,0.0,0.0,0.0,0.0,0.0,0.0,-0.0008750354871981411,0.00028263936796591403,0.10821995668193313,0.0,0.0,0.0,0.0,0.0,0.0,0.0,0.0,0.0,-0.06098568807117079,0.07306362969178883,-0.0018685348570854432,0.0,0.0,0.0,0.0,0.0,0.0,0.0,0.0,0.0
4.89,136,4,890000000,base_footprint,-0.003807594448532684,0.0006071010038175272,0.9871347312899554,0.15984416140101645,0.0,0.0,0.0,0.0,0.0,0.0,0.0,0.0,0.0,-0.0009633513515564338,0.0002862482896989959,0.10885949230222983,0.0,0.0,0.0,0.0,0.0,0.0,0.0,0.0,0.0,0.01270532430364273,0.018450117224170615,0.0001538043255781737,0.0,0.0,0.0,0.0,0.0,0.0,0.0,0.0,0.0
4.924,137,4,924000000,base_footprint,-0.0038094862837754354,0.0005982080327050019,0.9875210533464144,0.15743982710544238,0.0,0.0,0.0,0.0,0.0,0.0,0.0,0.0,0.0,-0.0008106131113722816,-0.0013148090160674793,0.167810399636748,0.0,0.0,0.0,0.0,0.0,0.0,0.0,0.0,0.0,0.09776322702405532,-0.03419276367858137,0.003961836133097972,0.0,0.0,0.0,0.0,0.0,0.0,0.0,0.0,0.0
4.963,138,4,958000000,base_footprint,-0.003803220943015924,0.0005917429648492959,0.9879539386335372,0.15470035710754945,0.0,0.0,0.0,0.0,0.0,0.0,0.0,0.0,0.0,-0.0012168887383036072,0.00016360132505019605,0.15121937006880873,0.0,0.0,0.0,0.0,0.0,0.0,0.0,0.0,0.0,0.05543253129382973,0.00215002658255716,-0.002296542560021814,0.0,0.0,0.0,0.0,0.0,0.0,0.0,0.0,0.0
4.992,139,4,992000000,base_footprint,-0.003803729171065743,0.0005862139393739241,0.9881802903862537,0.15324784399706878,0.0,0.0,0.0,0.0,0.0,0.0,0.0,0.0,0.0,-0.0003715737807246938,-8.195959774275904e-05,0.037007403613169544,0.0,0.0,0.0,0.0,0.0,0.0,0.0,0.0,0.0,0.07809155828713729,-0.031427240735032,0.000584800956051946,0.0,0.0,0.0,0.0,0.0,0.0,0.0,0.0,0.0
5.026,140,5,26000000,base_footprint,-0.0038098404151516926,0.0005840088165692838,0.9881735614124049,0.15329108446102602,0.0,0.0,0.0,0.0,0.0,0.0,0.0,0.0,0.0,-0.00023573166170498183,-0.0007563567439949444,-0.01838876027915881,0.0,0.0,0.0,0.0,0.0,0.0,0.0,0.0,0.0,0.11910892352851042,-0.0848016434208621,0.001693996018297078,0.0,0.0,0.0,0.0,0.0,0.0,0.0,0.0,0.0
5.06,141,5,60000000,base_footprint,-0.003809873812332709,0.0005858710580766618,0.9881234899314386,0.15361350937450674,0.0,0.0,0.0,0.0,0.0,0.0,0.0,0.0,0.0,0.00013215885696436528,-0.00016886499998781018,-0.019122206769880065,0.0,0.0,0.0,0.0,0.0,0.0,0.0,0.0,0.0,-0.00013988993659404356,-0.004815938576218989,-0.0008714868035913329,0.0,0.0,0.0,0.0,0.0,0.0,0.0,0.0,0.0
5.094,142,5,94000000,base_footprint,-0.0038097211464780682,0.0005878486497095089,0.9880726008841125,0.15394049448035535,0.0,0.0,0.0,0.0,0.0,0.0,0.0,0.0,0.0,0.00014072320336133178,-0.00016670757813903972,-0.01946899962188213,0.0,0.0,0.0,0.0,0.0,0.0,0.0,0.0,0.0,-0.0018744034311190304,-0.0039055762054881014,-6.133910887677054e-05,0.0,0.0,0.0,0.0,0.0,0.0,0.0,0.0,0.0
5.13,143,5,128000000,base_footprint,-0.0038120407629096318,0.0005809180834209301,0.9881809848121305,0.15324317973446844,0.0,0.0,0.0,0.0,0.0,0.0,0.0,0.0,0.0,-0.001005494099788147,6.232108569722465e-05,0.12551255940541298,0.0,0.0,0.0,0.0,0.0,0.0,0.0,0.0,0.0,-0.48802171512470144,0.35454049264775134,-0.003900369500553941,0.0,0.0,0.0,0.0,0.0,0.0,0.0,0.0,0.0
5.165,144,5,162000000,base_footprint,-0.003812483282594784,0.0005851568921497659,0.9882428305129342,0.15284381080834056,0.0,0.0,0.0,0.0,0.0,0.0,0.0,0.0,0.0,-0.00020616363021754865,-0.0007887203579377362,-0.04039277615655004,0.0,0.0,0.0,0.0,0.0,0.0,0.0,0.0,0.0,0.1877233414228774,-0.12348713667309374,0.002357630675221571,0.0,0.0,0.0,0.0,0.0,0.0,0.0,0.0,0.0
5.196,145,5,196000000,base_footprint,-0.0038067334233830414,0.0005825463011813559,0.9881106273571538,0.15369631590998603,0.0,0.0,0.0,0.0,0.0,0.0,0.0,0.0,0.0,0.00014744079212272845,-0.00022088692548623282,-0.06088671118466486,0.0,0.0,0.0,0.0,0.0,0.0,0.0,0.0,0.0,-0.04021036542039409,0.015505503109047008,-0.001045597761510741,0.0,0.0,0.0,0.0,0.0,0.0,0.0,0.0,0.0
5.23,146,5,230000000,base_footprint,-0.003805297429018199,0.0005883292443003288,0.9878414325730217,0.15541710868581154,0.0,0.0,0.0,0.0,0.0,0.0,0.0,0.0,0.0,0.0005959827028605808,-0.0004667697371703256,-0.1013551453405843,0.0,0.0,0.0,0.0,0.0,0.0,0.0,0.0,0.0,0.08929489924727355,-0.09016575151253564,0.0007720322500184779,0.0,0.0,0.0,0.0,0.0,0.0,0.0,0.0,0.0
5.261,147,5,264000000,base_footprint,-0.003804773632415649,0.0005927253666884456,0.9876424677255242,0.15667650851127213,0.0,0.0,0.0,0.0,0.0,0.0,0.0,0.0,0.0,0.00024236060196847222,-0.00022267587358262484,-0.04353854474660554,0.0,0.0,0.0,0.0,0.0,0.0,0.0,0.0,0.0,0.08880037624087353,-0.08487169440639307,0.0005712574991427917,0.0,0.0,0.0,0.0,0.0,0.0,0.0,0.0,0.0
5.298,148,5,298000000,base_footprint,-0.0038088227817091058,0.0005952820833698236,0.9876457458809368,0.15665573449940184,0.0,0.0,0.0,0.0,0.0,0.0,0.0,0.0,0.0,0.00046916126037549195,0.0004976692904466516,0.032868843698166936,0.0,0.0,0.0,0.0,0.0,0.0,0.0,0.0,0.0,0.13021612114524214,-0.09581534280760184,-2.773259193187259e-05,0.0,0.0,0.0,0.0,0.0,0.0,0.0,0.0,0.0
5.332,149,5,332000000,base_footprint,-0.0038091263934502493,0.0005944911828597766,0.9876621721465964,0.15655213459745396,0.0,0.0,0.0,0.0,0.0,0.0,0.0,0.0,0.0,-0.0004165027445214363,-0.0004278150400685013,-0.0018219743723380927,0.0,0.0,0.0,0.0,0.0,0.0,0.0,0.0,0.0,-0.2673386157566504,0.1966190445941992,-0.0008465794420392231,0.0,0.0,0.0,0.0,0.0,0.0,0.0,0.0,0.0
5.366,150,5,366000000,base_footprint,-0.0038094226278346053,0.0005943756935127616,0.9876595801530127,0.1565684794227512,0.0,0.0,0.0,0.0,0.0,0.0,0.0,0.0,0.0,-0.00011863756366863264,-1.0538441948645923e-05,-0.0008666464656809591,0.0,0.0,0.0,0.0,0.0,0.0,0.0,0.0,0.0,-0.0007327141240237754,0.0009239741271079081,-0.0005906490169413042,0.0,0.0,0.0,0.0,0.0,0.0,0.0,0.0,0.0
5.402,151,5,400000000,base_footprint,-0.003809544840577327,0.0005932671364318071,0.9876599132766076,0.15656637924106373,0.0,0.0,0.0,0.0,0.0,0.0,0.0,0.0,0.0,-0.002926097116943421,-0.000333376757366601,0.007813565490323353,0.0,0.0,0.0,0.0,0.0,0.0,0.0,0.0,0.0,0.0053460874730350055,-0.004416753561185267,-0.0011491453762113438,0.0,0.0,0.0,0.0,0.0,0.0,0.0,0.0,0.0
5.433,152,5,434000000,base_footprint,-0.003803284896933581,0.0005936779155789481,0.9878740801275736,0.15520948547890304,0.0,0.0,0.0,0.0,0.0,0.0,0.0,0.0,0.0,-0.0007110909614088876,0.00012017893494375444,0.09226513808293241,0.0,0.0,0.0,0.0,0.0,0.0,0.0,0.0,0.0,0.12710608397962347,-0.07143327365560309,0.0026619574091428823,0.0,0.0,0.0,0.0,0.0,0.0,0.0,0.0,0.0
5.47,153,5,468000000,base_footprint,-0.003803502054755156,0.0005892554990694675,0.9880588680963643,0.15402876136036261,0.0,0.0,0.0,0.0,0.0,0.0,0.0,0.0,0.0,-0.0004447324412114541,-3.4558270788558016e-05,0.04263317023211821,0.0,0.0,0.0,0.0,0.0,0.0,0.0,0.0,0.0,0.11503837569063972,-0.06302008986842322,0.0009978290954479494,0.0,0.0,0.0,0.0,0.0,0.0,0.0,0.0,0.0
5.5,154,5,502000000,base_footprint,-0.0038117076347835115,0.0005845318687539412,0.9881290168199202,0.15357791288430522,0.0,0.0,0.0,0.0,0.0,0.0,0.0,0.0,0.0,-4.271922060958691e-05,0.0012428954443770884,0.03763276846410261,0.0,0.0,0.0,0.0,0.0,0.0,0.0,0.0,0.0,0.04214569813693504,-0.023059535063386424,0.0002926306957551073,0.0,0.0,0.0,0.0,0.0,0.0,0.0,0.0,0.0
5.537,155,5,536000000,base_footprint,-0.0038101753419625237,0.0005832450701593649,0.9882273931861346,0.1529436554603971,0.0,0.0,0.0,0.0,0.0,0.0,0.0,0.0,0.0,-0.0003374170209208305,-1.0461237895995418e-05,0.03781715127536578,0.0,0.0,0.0,0.0,0.0,0.0,0.0,0.0,0.0,0.0040771081913234496,0.0073417178821923446,-0.00010123056645355135,0.0,0.0,0.0,0.0,0.0,0.0,0.0,0.0,0.0
5.569,156,5,570000000,base_footprint,-0.0038105953749973586,0.0005815179626344065,0.9883246385152096,0.1523139852525947,0.0,0.0,0.0,0.0,0.0,0.0,0.0,0.0,0.0,-0.0002840861880084459,-2.7812741586986247e-05,0.03753159866273803,0.0,0.0,0.0,0.0,0.0,0.0,0.0,0.0,0.0,0.005396935836409045,0.006346214253955767,-5.2399663415535503e-05,0.0,0.0,0.0,0.0,0.0,0.0,0.0,0.0,0.0
5.604,157,5,604000000,base_footprint,-0.003815755545377516,0.0005812308274990967,0.9884298077793848,0.15162986933171055,0.0,0.0,0.0,0.0,0.0,0.0,0.0,0.0,0.0,-0.00025508939437601276,-0.0007316474910600075,0.07124417076250446,0.0,0.0,0.0,0.0,0.0,0.0,0.0,0.0,0.0,-0.018825584725719928,0.02399712816281311,0.0007460545914326364,0.0,0.0,0.0,0.0,0.0,0.0,0.0,0.0,0.0
5.643,158,5,638000000,base_footprint,-0.003813450302895676,0.0005756158205524727,0.9886304378049542,0.15031627892147692,0.0,0.0,0.0,0.0,0.0,0.0,0.0,0.0,0.0,-0.0002579215629539696,5.329806255572294e-05,0.0753897921876581,0.0,0.0,0.0,0.0,0.0,0.0,0.0,0.0,0.0,0.019082200747497932,0.008264927821694936,-0.0010306835637082896,0.0,0.0,0.0,0.0,0.0,0.0,0.0,0.0,0.0
5.672,159,5,672000000,base_footprint,-0.0038091084905294247,0.0005655079803312152,0.9887937062748364,0.1492386589476872,0.0,0.0,0.0,0.0,0.0,0.0,0.0,0.0,0.0,-0.0007460625047333012,-1.855454580231361e-05,0.05488717634487191,0.0,0.0,0.0,0.0,0.0,0.0,0.0,0.0,0.0,-0.026541874020655668,0.03480041164588539,0.0004872117386089511,0.0,0.0,0.0,0.0,0.0,0.0,0.0,0.0,0.0
5.704,160,5,706000000,base_footprint,-0.003812467342464484,0.0005640199447673049,0.9889379075131715,0.14828001233387625,0.0,0.0,0.0,0.0,0.0,0.0,0.0,0.0,0.0,-7.662500811593062e-05,0.000279682685020304,0.04313573126608209,0.0,0.0,0.0,0.0,0.0,0.0,0.0,0.0,0.0,0.05365037755897079,-0.021511468720556044,-0.0008675987179727046,0.0,0.0,0.0,0.0,0.0,0.0,0.0,0.0,0.0
5.74,161,5,740000000,base_footprint,-0.003813156129642628,0.0005611034067887208,0.9890482985767847,0.14754188586860842,0.0,0.0,0.0,0.0,0.0,0.0,0.0,0.0,0.0,-0.00034834896578307234,2.3914777967026623e-05,0.04369982955202734,0.0,0.0,0.0,0.0,0.0,0.0,0.0,0.0,0.0,0.006863544686583251,0.0069252914845706354,0.0007438222898740362,0.0,0.0,0.0,0.0,0.0,0.0,0.0,0.0,0.0
5.774,162,5,774000000,base_footprint,-0.0038139221356921797,0.0005576208087623414,0.9891579366463938,0.14680503883186427,0.0,0.0,0.0,0.0,0.0,0.0,0.0,0.0,0.0,-0.0003851167121782068,4.383363740304687e-05,0.043547662764913696,0.0,0.0,0.0,0.0,0.0,0.0,0.0,0.0,0.0,0.006387083488757201,0.007263565075345918,1.6914782814677305e-05,0.0,0.0,0.0,0.0,0.0,0.0,0.0,0.0,0.0
5.808,163,5,808000000,base_footprint,-0.003808137341905994,0.0005548489930290986,0.9892983525768091,0.14585595572821802,0.0,0.0,0.0,0.0,0.0,0.0,0.0,0.0,0.0,0.00048174763137327883,0.0011322502639503347,0.12548755603530026,0.0,0.0,0.0,0.0,0.0,0.0,0.0,0.0,0.0,0.0026245008017885857,0.012476054812518926,-0.0013934864402655196,0.0,0.0,0.0,0.0,0.0,0.0,0.0,0.0,0.0
5.8420000000000005,164,5,842000000,base_footprint,-0.0038167065301761617,0.0005445662779416598,0.9896256100659373,0.14361855068358287,0.0,0.0,0.0,0.0,0.0,0.0,0.0,0.0,0.0,-0.0011348915685927886,0.0002846725953228153,0.13306669277342978,0.0,0.0,0.0,0.0,0.0,0.0,0.0,0.0,0.0,-0.0003689756552703611,0.03440028292601138,0.0012836157619448064,0.0,0.0,0.0,0.0,0.0,0.0,0.0,0.0,0.0
5.876,165,5,876000000,base_footprint,-0.0038189255506581275,0.000535600185201536,0.9899491753525194,0.1413709982950782,0.0,0.0,0.0,0.0,0.0,0.0,0.0,0.0,0.0,-0.001195075373913339,0.00041370030884752153,0.13417795913609223,0.0,0.0,0.0,0.0,0.0,0.0,0.0,0.0,0.0,0.014438354357373222,0.026427152894489523,-0.00013625081251981332,0.0,0.0,0.0,0.0,0.0,0.0,0.0,0.0,0.0
5.91,166,5,910000000,base_footprint,-0.003818425195503074,0.0005281496561430624,0.9902825032923785,0.13901692112813976,0.0,0.0,0.0,0.0,0.0,0.0,0.0,0.0,0.0,-0.0012992882024934454,-0.0005303373501141988,0.14875511172404454,0.0,0.0,0.0,0.0,0.0,0.0,0.0,0.0,0.0,-0.0015102986704494887,0.03640478427350852,0.0014521476396729828,0.0,0.0,0.0,0.0,0.0,0.0,0.0,0.0,0.0
5.942,167,5,944000000,base_footprint,-0.003820205853593588,0.0005188167731809702,0.990616696797868,0.13661514148026535,0.0,0.0,0.0,0.0,0.0,0.0,0.0,0.0,0.0,-0.0012462341299534383,-0.00039201597644864265,0.14358791846544305,0.0,0.0,0.0,0.0,0.0,0.0,0.0,0.0,0.0,0.028273778791685147,0.01883304012042989,-8.87554209044208e-05,0.0,0.0,0.0,0.0,0.0,0.0,0.0,0.0,0.0
5.978,168,5,978000000,base_footprint,-0.003821093434166789,0.0005102369670715003,0.9909445006990754,0.1342167479767895,0.0,0.0,0.0,0.0,0.0,0.0,0.0,0.0,0.0,-0.0011261189164132367,0.0002457794225346955,0.1426542270789306,0.0,0.0,0.0,0.0,0.0,0.0,0.0,0.0,0.0,0.018864021067729192,0.024946904051773744,-0.0009379003256298798,0.0,0.0,0.0,0.0,0.0,0.0,0.0,0.0,0.0
6.012,169,6,12000000,base_footprint,-0.003818710017019036,0.0004993599824113768,0.9912555432212387,0.13190002322433855,0.0,0.0,0.0,0.0,0.0,0.0,0.0,0.0,0.0,-0.0009312580328486537,0.0003468371581642609,0.10367778285375398,0.0,0.0,0.0,0.0,0.0,0.0,0.0,0.0,0.0,-0.13051489729932025,0.11197536474003517,-0.001175374129828791,0.0,0.0,0.0,0.0,0.0,0.0,0.0,0.0,0.0
6.048,170,6,46000000,base_footprint,-0.0038225889357240608,0.0004994901847885939,0.9913655578063971,0.13107047386270768,0.0,0.0,0.0,0.0,0.0,0.0,0.0,0.0,0.0,-0.00015365273256320543,1.3055935652080529e-05,0.03479230079060012,0.0,0.0,0.0,0.0,0.0,0.0,0.0,0.0,0.0,-0.11723278277388757,0.0807223126548002,-0.0011786906232442722,0.0,0.0,0.0,0.0,0.0,0.0,0.0,0.0,0.0
6.08,171,6,80000000,base_footprint,-0.0038219223519816384,0.0004976953355964374,0.9914807199031503,0.13019649484229331,0.0,0.0,0.0,0.0,0.0,0.0,0.0,0.0,0.0,2.329274392642538e-05,0.0013328864674577536,0.08607929327724259,0.0,0.0,0.0,0.0,0.0,0.0,0.0,0.0,0.0,-0.029122019277517834,0.028449119802492387,-0.0014392459917700246,0.0,0.0,0.0,0.0,0.0,0.0,0.0,0.0,0.0
6.114,172,6,114000000,base_footprint,-0.0038214430741390624,0.0004936965480988977,0.9916159156176371,0.12916279932838548,0.0,0.0,0.0,0.0,0.0,0.0,0.0,0.0,0.0,-0.00057565474477832,-0.000556259947128083,-0.03387268860292363,0.0,0.0,0.0,0.0,0.0,0.0,0.0,0.0,0.0,0.1697380830827263,-0.08013412135865289,0.004307682872752239,0.0,0.0,0.0,0.0,0.0,0.0,0.0,0.0,0.0
6.148,173,6,148000000,base_footprint,-0.0038188443464186937,0.000490783616701042,0.9915076171510628,0.1299916177709971,0.0,0.0,0.0,0.0,0.0,0.0,0.0,0.0,0.0,0.00026199613140024075,-0.00030423765161435455,-0.047648000872227106,0.0,0.0,0.0,0.0,0.0,0.0,0.0,0.0,0.0,-0.0008597281248230867,-0.011395646448970688,-0.0011325432136017684,0.0,0.0,0.0,0.0,0.0,0.0,0.0,0.0,0.0
6.182,174,6,182000000,base_footprint,-0.0038183536816865904,0.0004925053558631818,0.9914394171215899,0.13051076503966302,0.0,0.0,0.0,0.0,0.0,0.0,0.0,0.0,0.0,2.6325853343268365e-05,-0.00021338955636755337,-0.00792154285119859,0.0,0.0,0.0,0.0,0.0,0.0,0.0,0.0,0.0,0.06927442723674031,-0.04835078446607089,0.0004873310431130243,0.0,0.0,0.0,0.0,0.0,0.0,0.0,0.0,0.0
6.217,175,6,216000000,base_footprint,-0.0038227265954841666,0.0004935158881806556,0.9915009561587522,0.1300422898126781,0.0,0.0,0.0,0.0,0.0,0.0,0.0,0.0,0.0,-0.0005410774592149847,-0.00028596159008627747,0.04758676841405878,0.0,0.0,0.0,0.0,0.0,0.0,0.0,0.0,0.0,0.08987853240637138,-0.045593746392823466,0.0008357811421132403,0.0,0.0,0.0,0.0,0.0,0.0,0.0,0.0,0.0
6.261,176,6,250000000,base_footprint,-0.003822860053550084,0.0004897449629423208,0.99160656958354,0.12923450409873638,0.0,0.0,0.0,0.0,0.0,0.0,0.0,0.0,0.0,-0.0004152845653487637,1.4909869088708256e-05,0.04771104000914865,0.0,0.0,0.0,0.0,0.0,0.0,0.0,0.0,0.0,0.006481644617150608,0.008426461946728185,-0.00035651371275478573,0.0,0.0,0.0,0.0,0.0,0.0,0.0,0.0,0.0
6.284,177,6,284000000,base_footprint,-0.0038239113524742197,0.00048618985372023593,0.991711439977754,0.12842726010720726,0.0,0.0,0.0,0.0,0.0,0.0,0.0,0.0,0.0,-0.0004331819258899065,3.700075443996568e-05,0.047769074397141946,0.0,0.0,0.0,0.0,0.0,0.0,0.0,0.0,0.0,0.005948059190611279,0.008670131660348341,-1.692192311620837e-05,0.0,0.0,0.0,0.0,0.0,0.0,0.0,0.0,0.0
6.32,178,6,318000000,base_footprint,-0.003824945565511858,0.00048254556008331596,0.9918199110791565,0.1275868368137461,0.0,0.0,0.0,0.0,0.0,0.0,0.0,0.0,0.0,-0.0004991607057602019,6.0948649110130474e-05,0.05123825943907085,0.0,0.0,0.0,0.0,0.0,0.0,0.0,0.0,0.0,0.004447996049892233,0.0099600835905775,4.4636251838584116e-05,0.0,0.0,0.0,0.0,0.0,0.0,0.0,0.0,0.0
6.352,179,6,352000000,base_footprint,-0.003825820630424984,0.00047936629082605665,0.9919309132389629,0.12672094012190796,0.0,0.0,0.0,0.0,0.0,0.0,0.0,0.0,0.0,-0.0005296262467365256,8.105252284216203e-05,0.050596574080400636,0.0,0.0,0.0,0.0,0.0,0.0,0.0,0.0,0.0,0.008046823259534477,0.00929485995148145,2.840669953046168e-06,0.0,0.0,0.0,0.0,0.0,0.0,0.0,0.0,0.0
6.386,180,6,386000000,base_footprint,-0.0038275097441501376,0.0004760350013026328,0.9920407545234617,0.1258581142571137,0.0,0.0,0.0,0.0,0.0,0.0,0.0,0.0,0.0,-0.0005543720469190631,-7.880427035601812e-06,0.05470047773075572,0.0,0.0,0.0,0.0,0.0,0.0,0.0,0.0,0.0,-0.003693335501159625,0.013708533293160578,0.00016112006773460653,0.0,0.0,0.0,0.0,0.0,0.0,0.0,0.0,0.0
6.42,181,6,420000000,base_footprint,-0.003826872436244379,0.0004734218687848427,0.9921634311818557,0.12488737624170852,0.0,0.0,0.0,0.0,0.0,0.0,0.0,0.0,0.0,-0.0005880986020362139,0.0006722067518511841,0.055143653064685515,0.0,0.0,0.0,0.0,0.0,0.0,0.0,0.0,0.0,0.013786287347678507,0.007026325275809516,-0.0009549729183544016,0.0,0.0,0.0,0.0,0.0,0.0,0.0,0.0,0.0
6.454,182,6,454000000,base_footprint,-0.003826648612722289,0.000470498046284497,0.9922847398516447,0.12391985494478748,0.0,0.0,0.0,0.0,0.0,0.0,0.0,0.0,0.0,-0.00047908096110878235,-5.1616618820999165e-05,0.057912864101081846,0.0,0.0,0.0,0.0,0.0,0.0,0.0,0.0,0.0,0.00026946802091619665,0.014291152483051416,0.0009428182553304106,0.0,0.0,0.0,0.0,0.0,0.0,0.0,0.0,0.0
6.483,183,6,488000000,base_footprint,-0.0038268566059575693,0.00046758724820977526,0.992405629161443,0.12294797167649135,0.0,0.0,0.0,0.0,0.0,0.0,0.0,0.0,0.0,-0.00043831660073083336,-9.69189925616267e-06,0.057761985619621564,0.0,0.0,0.0,0.0,0.0,0.0,0.0,0.0,0.0,0.006572241262791634,0.010832689208796067,-4.052590854673643e-05,0.0,0.0,0.0,0.0,0.0,0.0,0.0,0.0,0.0
6.522,184,6,522000000,base_footprint,-0.0038281267488520653,0.00046236921087341516,0.9926001214357832,0.12136774936520883,0.0,0.0,0.0,0.0,0.0,0.0,0.0,0.0,0.0,-0.0008048541212839447,-0.00022055934238897855,0.11747503567353071,0.0,0.0,0.0,0.0,0.0,0.0,0.0,0.0,0.0,-0.005216060993815036,0.025370075794278985,-4.6945370331175304e-05,0.0,0.0,0.0,0.0,0.0,0.0,0.0,0.0,0.0
6.556,185,6,556000000,base_footprint,-0.003829347836151148,0.0004559528800401971,0.9928391528836014,0.11939658581171374,0.0,0.0,0.0,0.0,0.0,0.0,0.0,0.0,0.0,-0.0006822037888955855,0.0001642944872208683,0.1156614161651518,0.0,0.0,0.0,0.0,0.0,0.0,0.0,0.0,0.0,0.010295872750049095,0.02427886857019445,-0.0002766829477022564,0.0,0.0,0.0,0.0,0.0,0.0,0.0,0.0,0.0
6.59,186,6,590000000,base_footprint,-0.003825673886706851,0.0004447431766131146,0.9930526015827713,0.1176082348839109,0.0,0.0,0.0,0.0,0.0,0.0,0.0,0.0,0.0,-0.0010932742607692343,-0.0004101654688710055,0.0945525365504968,0.0,0.0,0.0,0.0,0.0,0.0,0.0,0.0,0.0,-0.027968547720312882,0.040178865247980394,0.0011980716992354644,0.0,0.0,0.0,0.0,0.0,0.0,0.0,0.0,0.0
6.624,187,6,624000000,base_footprint,-0.0038248467005929233,0.00043467911206415054,0.9933111877176876,0.11540392522208032,0.0,0.0,0.0,0.0,0.0,0.0,0.0,0.0,0.0,-0.0013287671431910617,-9.694136550976752e-05,0.15804377448886175,0.0,0.0,0.0,0.0,0.0,0.0,0.0,0.0,0.0,-0.02530633857165378,0.0432650336159172,-0.0008770123709270043,0.0,0.0,0.0,0.0,0.0,0.0,0.0,0.0,0.0
6.66,188,6,658000000,base_footprint,-0.0038300155126651907,0.0004259720195398888,0.9936602963367916,0.11235819958014087,0.0,0.0,0.0,0.0,0.0,0.0,0.0,0.0,0.0,-0.0017122475641272333,-0.00031626842494932944,0.18977991980744466,0.0,0.0,0.0,0.0,0.0,0.0,0.0,0.0,0.0,0.0779576963252611,0.0050223308395847144,0.0008401473245681606,0.0,0.0,0.0,0.0,0.0,0.0,0.0,0.0,0.0
6.691,189,6,692000000,base_footprint,-0.0038312078205218363,0.00041302192474319615,0.9940185376200769,0.10914347496378145,0.0,0.0,0.0,0.0,0.0,0.0,0.0,0.0,0.0,-0.0014201679069441625,0.00016031716440344533,0.19006968756465628,0.0,0.0,0.0,0.0,0.0,0.0,0.0,0.0,0.0,0.0195094243524945,0.03671018164161394,-0.0006053337361536911,0.0,0.0,0.0,0.0,0.0,0.0,0.0,0.0,0.0
6.728,190,6,726000000,base_footprint,-0.0038302320964188875,0.0004031796268305506,0.9942536646708844,0.1069804517507407,0.0,0.0,0.0,0.0,0.0,0.0,0.0,0.0,0.0,-0.0007181706587240134,-0.0009301425001259418,0.060428323804386085,0.0,0.0,0.0,0.0,0.0,0.0,0.0,0.0,0.0,-0.2660862083791861,0.15409374810491216,-0.0013159769367353262,0.0,0.0,0.0,0.0,0.0,0.0,0.0,0.0,0.0
6.761,191,6,760000000,base_footprint,-0.003833524380918701,0.00039996347920669254,0.994363868208486,0.10595112892977106,0.0,0.0,0.0,0.0,0.0,0.0,0.0,0.0,0.0,-0.0005571036230522205,4.508612128779902e-05,0.06067609240255778,0.0,0.0,0.0,0.0,0.0,0.0,0.0,0.0,0.0,0.007150534461462234,0.010378369520997556,-0.0010462474347289244,0.0,0.0,0.0,0.0,0.0,0.0,0.0,0.0,0.0
6.792,192,6,794000000,base_footprint,-0.0038353178195664585,0.0003947064775344908,0.9945120874864742,0.1045506689950624,0.0,0.0,0.0,0.0,0.0,0.0,0.0,0.0,0.0,-0.0008461944688116327,0.00034611927204498884,0.1172151385936011,0.0,0.0,0.0,0.0,0.0,0.0,0.0,0.0,0.0,0.3051253455740194,-0.1177416422175376,0.0018950858376792594,0.0,0.0,0.0,0.0,0.0,0.0,0.0,0.0,0.0
6.827,193,6,828000000,base_footprint,-0.003836111019617267,0.0003864283362278631,0.9947193005615499,0.10256046029404911,0.0,0.0,0.0,0.0,0.0,0.0,0.0,0.0,0.0,-0.0010437960730513528,0.00014306431926009672,0.11789943177792024,0.0,0.0,0.0,0.0,0.0,0.0,0.0,0.0,0.0,0.00909905060535208,0.024115217199075247,0.0005345520615892827,0.0,0.0,0.0,0.0,0.0,0.0,0.0,0.0,0.0
6.862,194,6,862000000,base_footprint,-0.0038381812116938885,0.0003784159537639898,0.9949235964841929,0.10055924783584613,0.0,0.0,0.0,0.0,0.0,0.0,0.0,0.0,0.0,-0.0010864662847723339,0.0002750986584251878,0.11873945769690786,0.0,0.0,0.0,0.0,0.0,0.0,0.0,0.0,0.0,0.009082221290465918,0.024922231455649837,-0.00024145798666513636,0.0,0.0,0.0,0.0,0.0,0.0,0.0,0.0,0.0
6.896,195,6,896000000,base_footprint,-0.0038360163382129366,0.0003730810175900088,0.9951310609078574,0.09848511260901084,0.0,0.0,0.0,0.0,0.0,0.0,0.0,0.0,0.0,-0.0008852688690669125,-0.0006265573976332728,0.12636349332549304,0.0,0.0,0.0,0.0,0.0,0.0,0.0,0.0,0.0,-0.007443399947956989,0.03199669376406303,0.0013065486385023964,0.0,0.0,0.0,0.0,0.0,0.0,0.0,0.0,0.0
6.93,196,6,930000000,base_footprint,-0.0038401545739648177,0.000366058853460452,0.995279300519251,0.09697542560707997,0.0,0.0,0.0,0.0,0.0,0.0,0.0,0.0,0.0,-0.000678844217195614,0.0003504543737256183,0.0775099301268264,0.0,0.0,0.0,0.0,0.0,0.0,0.0,0.0,0.0,0.03657140734012172,0.006103160342078653,-0.001378251532134371,0.0,0.0,0.0,0.0,0.0,0.0,0.0,0.0,0.0
6.96,197,6,964000000,base_footprint,-0.0038389354804770773,0.0003624309312008396,0.9954079299400406,0.09564614069935236,0.0,0.0,0.0,0.0,0.0,0.0,0.0,0.0,0.0,-0.0005757382451579229,3.4862134062778314e-05,0.07863181640346666,0.0,0.0,0.0,0.0,0.0,0.0,0.0,0.0,0.0,0.0024925079887013176,0.017711839542692297,0.00046488644219429027,0.0,0.0,0.0,0.0,0.0,0.0,0.0,0.0,0.0
6.998,198,6,998000000,base_footprint,-0.0038395617646622593,0.0003584228210336776,0.9955338833552964,0.0943261172213727,0.0,0.0,0.0,0.0,0.0,0.0,0.0,0.0,0.0,-0.0004757334345871647,2.787762067554225e-05,0.07773256962151283,0.0,0.0,0.0,0.0,0.0,0.0,0.0,0.0,0.0,0.005770468841612993,0.016462934502715985,-4.939860305878372e-05,0.0,0.0,0.0,0.0,0.0,0.0,0.0,0.0,0.0
7.03,199,7,32000000,base_footprint,-0.0038410117621716917,0.00035372639532224153,0.9956622523168993,0.09296128666019718,0.0,0.0,0.0,0.0,0.0,0.0,0.0,0.0,0.0,-0.000652123458745597,1.1950912727924835e-05,0.0726298897757839,0.0,0.0,0.0,0.0,0.0,0.0,0.0,0.0,0.0,-0.016451579540172533,0.025708611778140367,0.0001447428818662505,0.0,0.0,0.0,0.0,0.0,0.0,0.0,0.0,0.0
7.066,200,7,66000000,base_footprint,-0.00383477290102854,0.0003439980488057671,0.995762931914524,0.0918768719925266,0.0,0.0,0.0,0.0,0.0,0.0,0.0,0.0,0.0,-0.0005215457566211626,-0.00010421917666529828,0.06614843605289573,0.0,0.0,0.0,0.0,0.0,0.0,0.0,0.0,0.0,-0.007024790277171122,0.017393231288108577,0.0001395333653275036,0.0,0.0,0.0,0.0,0.0,0.0,0.0,0.0,0.0
7.099,201,7,100000000,base_footprint,-0.00383841685079315,0.0003422686543292549,0.9958844082041722,0.09055051023640664,0.0,0.0,0.0,0.0,0.0,0.0,0.0,0.0,0.0,-0.0005052753967950145,-0.000615921250673265,0.08068526522515906,0.0,0.0,0.0,0.0,0.0,0.0,0.0,0.0,0.0,0.04028585585896617,0.002708378629221858,0.0005332082092841001,0.0,0.0,0.0,0.0,0.0,0.0,0.0,0.0,0.0
7.134,202,7,134000000,base_footprint,-0.0038386185539020625,0.00033651401411669116,0.9960067826679678,0.08919439806019103,0.0,0.0,0.0,0.0,0.0,0.0,0.0,0.0,0.0,-0.0005461320475778043,-6.572374673645823e-05,0.07994462998311272,0.0,0.0,0.0,0.0,0.0,0.0,0.0,0.0,0.0,0.0076123398104190184,0.015872788202463645,-0.0003190737476168692,0.0,0.0,0.0,0.0,0.0,0.0,0.0,0.0,0.0
7.168,203,7,168000000,base_footprint,-0.0038387624970479565,0.0003305666072279818,0.9961279548539079,0.08783081570144026,0.0,0.0,0.0,0.0,0.0,0.0,0.0,0.0,0.0,-0.0009173634698364532,-0.0003775628640422925,0.08934785380351197,0.0,0.0,0.0,0.0,0.0,0.0,0.0,0.0,0.0,0.005093165602296403,0.01684836549502242,8.385120242022898e-05,0.0,0.0,0.0,0.0,0.0,0.0,0.0,0.0,0.0
7.202,204,7,202000000,base_footprint,-0.0038398857914982787,0.00032473064405387064,0.9962609146171971,0.0863095581799786,0.0,0.0,0.0,0.0,0.0,0.0,0.0,0.0,0.0,-0.0007406599707425877,2.4935831023677015e-05,0.08960810404853062,0.0,0.0,0.0,0.0,0.0,0.0,0.0,0.0,0.0,0.007641544183497387,0.018057321629533475,-0.00018868584187368542,0.0,0.0,0.0,0.0,0.0,0.0,0.0,0.0,0.0
7.236,205,7,236000000,base_footprint,-0.003840891554153357,0.00031858619885128314,0.9963913594880814,0.0847903578975599,0.0,0.0,0.0,0.0,0.0,0.0,0.0,0.0,0.0,-0.0007892009520195803,2.461636140707203e-05,0.08951750959555126,0.0,0.0,0.0,0.0,0.0,0.0,0.0,0.0,0.0,0.00786764105749981,0.018063615959865133,5.3576439432025656e-05,0.0,0.0,0.0,0.0,0.0,0.0,0.0,0.0,0.0
7.27,206,7,270000000,base_footprint,-0.0038416722810081082,0.0003126979352765562,0.9965205071872651,0.08325876848309983,0.0,0.0,0.0,0.0,0.0,0.0,0.0,0.0,0.0,-0.000958661345543202,0.0001050845866417244,0.09690937548470759,0.0,0.0,0.0,0.0,0.0,0.0,0.0,0.0,0.0,0.0050662765108465055,0.01900263768654367,-0.00040306558825630974,0.0,0.0,0.0,0.0,0.0,0.0,0.0,0.0,0.0
7.304,207,7,304000000,base_footprint,-0.0038433786702610673,0.0003059030435859389,0.9966565934297891,0.08161353831720108,0.0,0.0,0.0,0.0,0.0,0.0,0.0,0.0,0.0,-0.0008597243863328566,5.9525583431408806e-05,0.09718641939602042,0.0,0.0,0.0,0.0,0.0,0.0,0.0,0.0,0.0,0.00677200298794991,0.020255662183682164,0.00027613613860519347,0.0,0.0,0.0,0.0,0.0,0.0,0.0,0.0,0.0
7.338,208,7,338000000,base_footprint,-0.0038449338352649007,0.00029935434258567515,0.996790570011269,0.07996053030958064,0.0,0.0,0.0,0.0,0.0,0.0,0.0,0.0,0.0,-0.0008668795854578688,0.00015352268139481976,0.09785221874152808,0.0,0.0,0.0,0.0,0.0,0.0,0.0,0.0,0.0,0.006095008514637642,0.02139507181077725,-0.00025143122324395895,0.0,0.0,0.0,0.0,0.0,0.0,0.0,0.0,0.0
7.372,209,7,372000000,base_footprint,-0.003846467623190398,0.00029319542319099787,0.9969234774688586,0.07828600637831694,0.0,0.0,0.0,0.0,0.0,0.0,0.0,0.0,0.0,-0.0007296436546723893,-0.00022117409548713955,0.10334578179464675,0.0,0.0,0.0,0.0,0.0,0.0,0.0,0.0,0.0,-0.006364858372788271,0.023990864238232542,0.0006307655607723825,0.0,0.0,0.0,0.0,0.0,0.0,0.0,0.0,0.0
7.406,210,7,406000000,base_footprint,-0.0038499481266981734,0.0002822548766854649,0.9970536551565736,0.07661009705334364,0.0,0.0,0.0,0.0,0.0,0.0,0.0,0.0,0.0,-0.000646072056055722,-0.002080828483687282,0.08161061537251814,0.0,0.0,0.0,0.0,0.0,0.0,0.0,0.0,0.0,-0.052276434400006774,0.03898758558826156,0.00239804762810038,0.0,0.0,0.0,0.0,0.0,0.0,0.0,0.0,0.0
7.44,211,7,440000000,base_footprint,-0.0038436537052206777,0.00028680786011763747,0.9971463270796912,0.07539460497228855,0.0,0.0,0.0,0.0,0.0,0.0,0.0,0.0,0.0,-0.0018270229328604401,-0.0021327922028198452,0.08979459968154099,0.0,0.0,0.0,0.0,0.0,0.0,0.0,0.0,0.0,-0.3021328934385502,0.110720556238986,-0.0031347212910082783,0.0,0.0,0.0,0.0,0.0,0.0,0.0,0.0,0.0
7.474,212,7,474000000,base_footprint,-0.0038471649630622043,0.00027858222079506933,0.9972744654795098,0.07368013447498029,0.0,0.0,0.0,0.0,0.0,0.0,0.0,0.0,0.0,-0.0007411001497949372,1.773361428105205e-05,0.10775402284987914,0.0,0.0,0.0,0.0,0.0,0.0,0.0,0.0,0.0,0.05447344272869778,0.004900442737753765,-0.0021734992096430397,0.0,0.0,0.0,0.0,0.0,0.0,0.0,0.0,0.0
7.508,213,7,508000000,base_footprint,-0.003842566694584098,0.0002683119737070422,0.9973943136206325,0.0720398906655893,0.0,0.0,0.0,0.0,0.0,0.0,0.0,0.0,0.0,-0.001782283091845078,-0.0009817158827417824,0.08385754900178977,0.0,0.0,0.0,0.0,0.0,0.0,0.0,0.0,0.0,-0.03663510153397405,0.03229587204072003,0.0016752218962388793,0.0,0.0,0.0,0.0,0.0,0.0,0.0,0.0,0.0
7.543,214,7,542000000,base_footprint,-0.003841307426561712,0.0002619271822839926,0.9974996003835567,0.07056715231643355,0.0,0.0,0.0,0.0,0.0,0.0,0.0,0.0,0.0,-0.0007573717215299126,-3.6314122537038e-05,0.09749362590832993,0.0,0.0,0.0,0.0,0.0,0.0,0.0,0.0,0.0,0.033037498737202284,0.008707542263569644,-0.0012702794885551959,0.0,0.0,0.0,0.0,0.0,0.0,0.0,0.0,0.0
7.577,215,7,576000000,base_footprint,-0.0038544923770621265,0.00025966406735617034,0.9976282636228606,0.06872352642235005,0.0,0.0,0.0,0.0,0.0,0.0,0.0,0.0,0.0,-0.0018609790085645627,-0.0025429882498838683,0.13802458616508467,0.0,0.0,0.0,0.0,0.0,0.0,0.0,0.0,0.0,-0.20169847914786623,0.07983741052427577,0.0016713186865060514,0.0,0.0,0.0,0.0,0.0,0.0,0.0,0.0,0.0
7.61,216,7,610000000,base_footprint,-0.0038445198357417586,0.00025078699942316746,0.9977474715589819,0.06697118612337863,0.0,0.0,0.0,0.0,0.0,0.0,0.0,0.0,0.0,-0.0007216327627648177,-0.00018040245034838038,0.09626081789542644,0.0,0.0,0.0,0.0,0.0,0.0,0.0,0.0,0.0,-0.09874319058321127,0.04919135479116476,-0.004074992511855217,0.0,0.0,0.0,0.0,0.0,0.0,0.0,0.0,0.0
7.645,217,7,644000000,base_footprint,-0.0038453603672053836,0.00024440158170517285,0.9978558974403043,0.06533575908427347,0.0,0.0,0.0,0.0,0.0,0.0,0.0,0.0,0.0,-0.0006658677892274405,-6.475172686858655e-05,0.0962613592873692,0.0,0.0,0.0,0.0,0.0,0.0,0.0,0.0,0.0,0.006372744220296329,0.01782169763193111,-0.0001476835433120896,0.0,0.0,0.0,0.0,0.0,0.0,0.0,0.0,0.0
7.678,218,7,678000000,base_footprint,-0.0038458726288443114,0.000237909080521657,0.9979615523973183,0.06370159024488171,0.0,0.0,0.0,0.0,0.0,0.0,0.0,0.0,0.0,-0.0007076736978076738,-7.370694640582054e-05,0.0961693133730072,0.0,0.0,0.0,0.0,0.0,0.0,0.0,0.0,0.0,0.005959120451007487,0.017900004847943584,6.636757108603088e-05,0.0,0.0,0.0,0.0,0.0,0.0,0.0,0.0,0.0
7.712,219,7,712000000,base_footprint,-0.0038432227379090835,0.0002297435609033504,0.9980603098746196,0.06213529359278502,0.0,0.0,0.0,0.0,0.0,0.0,0.0,0.0,0.0,-0.000677223341591924,-0.0003926050568033733,0.07848916237630209,0.0,0.0,0.0,0.0,0.0,0.0,0.0,0.0,0.0,0.2723832830280952,-0.05042629210662687,0.002472493736462688,0.0,0.0,0.0,0.0,0.0,0.0,0.0,0.0,0.0
7.746,220,7,746000000,base_footprint,-0.0038474621466530303,0.00022810522714204276,0.998112501235697,0.06129094451920428,0.0,0.0,0.0,0.0,0.0,0.0,0.0,0.0,0.0,-0.0003478272188302328,0.00012321863179477012,0.02448447442136031,0.0,0.0,0.0,0.0,0.0,0.0,0.0,0.0,0.0,0.4160834343814471,-0.0929898621456967,0.002376288730235817,0.0,0.0,0.0,0.0,0.0,0.0,0.0,0.0,0.0
7.78,221,7,780000000,base_footprint,-0.0038482933282444646,0.00022619911758896632,0.9981379879004271,0.06087443291321921,0.0,0.0,0.0,0.0,0.0,0.0,0.0,0.0,0.0,-0.00028200359872887173,-8.593492134820954e-05,0.024417517233439785,0.0,0.0,0.0,0.0,0.0,0.0,0.0,0.0,0.0,0.0023518419098308117,0.004762147910782209,0.000317177999273723,0.0,0.0,0.0,0.0,0.0,0.0,0.0,0.0,0.0
7.814,222,7,814000000,base_footprint,-0.0038477885831763843,0.00022438239085574257,0.998188459541445,0.0600411809830474,0.0,0.0,0.0,0.0,0.0,0.0,0.0,0.0,0.0,-0.00160065980409282,0.0013781977289541551,0.10138063029491909,0.0,0.0,0.0,0.0,0.0,0.0,0.0,0.0,0.0,-0.02127856427970276,0.015545026196665567,-0.0030942061475200512,0.0,0.0,0.0,0.0,0.0,0.0,0.0,0.0,0.0
7.848,223,7,848000000,base_footprint,-0.003850743270826243,0.00021639973090019541,0.9982893401676073,0.05833967993691729,0.0,0.0,0.0,0.0,0.0,0.0,0.0,0.0,0.0,-0.0008978016481923963,0.00016255356406559392,0.10050938957408308,0.0,0.0,0.0,0.0,0.0,0.0,0.0,0.0,0.0,0.007734554695809324,0.02167848835376846,0.0024535179172174605,0.0,0.0,0.0,0.0,0.0,0.0,0.0,0.0,0.0
7.882,224,7,882000000,base_footprint,-0.003853522831012599,0.0002089871525961471,0.9983916381854075,0.05656185541174434,0.0,0.0,0.0,0.0,0.0,0.0,0.0,0.0,0.0,-0.0009385147239116497,0.00018321337105055464,0.11317397343139564,0.0,0.0,0.0,0.0,0.0,0.0,0.0,0.0,0.0,0.006014566464126342,0.02085664837655203,8.376732137477502e-05,0.0,0.0,0.0,0.0,0.0,0.0,0.0,0.0,0.0
7.916,225,7,916000000,base_footprint,-0.003851955063784553,0.00020369013593654777,0.9985028204676776,0.05456407674109461,0.0,0.0,0.0,0.0,0.0,0.0,0.0,0.0,0.0,-0.0012740227034545091,0.0009489967393373384,0.11295594126476136,0.0,0.0,0.0,0.0,0.0,0.0,0.0,0.0,0.0,0.005755596740430333,0.02545456840143655,-0.0011826325059543286,0.0,0.0,0.0,0.0,0.0,0.0,0.0,0.0,0.0
7.9510000000000005,226,7,950000000,base_footprint,-0.003852966607765022,0.00019758331120489587,0.9986075012102278,0.05261344063848679,0.0,0.0,0.0,0.0,0.0,0.0,0.0,0.0,0.0,-0.0007499980709243113,2.9884598069886543e-05,0.11447248334578183,0.0,0.0,0.0,0.0,0.0,0.0,0.0,0.0,0.0,-0.0071868382549141185,0.028192898493869214,0.001326948905330448,0.0,0.0,0.0,0.0,0.0,0.0,0.0,0.0,0.0
7.986,227,7,984000000,base_footprint,-0.0038476472017387746,0.00018656400371230223,0.998698662615033,0.05085412565198723,0.0,0.0,0.0,0.0,0.0,0.0,0.0,0.0,0.0,-0.0011383595658205662,-0.0002819365070294081,0.09294047848435259,0.0,0.0,0.0,0.0,0.0,0.0,0.0,0.0,0.0,-0.039046889336966234,0.031038991990721052,0.0007182765352177188,0.0,0.0,0.0,0.0,0.0,0.0,0.0,0.0,0.0
8.018,228,8,18000000,base_footprint,-0.0038550727473391187,0.00018550474600779684,0.9987761781800382,0.049307706316343354,0.0,0.0,0.0,0.0,0.0,0.0,0.0,0.0,0.0,-0.0004773080383421515,0.0006481605294342836,0.062220963999755304,0.0,0.0,0.0,0.0,0.0,0.0,0.0,0.0,0.0,-0.14645836847485397,0.04922948042909242,-0.002951004326915872,0.0,0.0,0.0,0.0,0.0,0.0,0.0,0.0,0.0
8.054,229,8,52000000,base_footprint,-0.0038508349673990663,0.00018209465496570385,0.9987923763159389,0.048978841602781875,0.0,0.0,0.0,0.0,0.0,0.0,0.0,0.0,0.0,-0.00013198985555889017,-0.0003695423581550213,0.00880791225185463,0.0,0.0,0.0,0.0,0.0,0.0,0.0,0.0,0.0,-0.10915377315394305,0.02672058990272656,0.00044236724330400307,0.0,0.0,0.0,0.0,0.0,0.0,0.0,0.0,0.0
8.078,230,8,86000000,base_footprint,-0.003849156408054243,0.00018107356205211123,0.9987997215446955,0.0488289611762342,0.0,0.0,0.0,0.0,0.0,0.0,0.0,0.0,0.0,2.6717096117890687e-05,-0.00015214749207350436,0.008763946833969962,0.0,0.0,0.0,0.0,0.0,0.0,0.0,0.0,0.0,0.0013853148467297344,0.0015676852989342054,-8.87531009169874e-05,0.0,0.0,0.0,0.0,0.0,0.0,0.0,0.0,0.0
8.119,231,8,120000000,base_footprint,-0.0038489710811688725,0.00018076409637559937,0.9988023267354705,0.0487756584145026,0.0,0.0,0.0,0.0,0.0,0.0,0.0,0.0,0.0,8.9379167331771e-05,-0.00017814662416449102,-0.0005255991245181168,0.0,0.0,0.0,0.0,0.0,0.0,0.0,0.0,0.0,0.0036941159630204928,2.739749958162693e-05,6.316049565351336e-05,0.0,0.0,0.0,0.0,0.0,0.0,0.0,0.0,0.0
8.155,232,8,154000000,base_footprint,-0.0038489540070336422,0.00018064109815722884,0.9988019068789192,0.048784257059835,0.0,0.0,0.0,0.0,0.0,0.0,0.0,0.0,0.0,1.4215487834209394e-05,-0.00017883453418142875,-0.0006543149746369493,0.0,0.0,0.0,0.0,0.0,0.0,0.0,0.0,0.0,0.0012184450333567166,-0.0004108715482070776,0.00010417486267520594,0.0,0.0,0.0,0.0,0.0,0.0,0.0,0.0,0.0
8.188,233,8,188000000,base_footprint,-0.00384926018434896,0.00018050768726635017,0.9988013999419437,0.04879461124982412,0.0,0.0,0.0,0.0,0.0,0.0,0.0,0.0,0.0,-5.154424525946063e-05,-0.0001455854135407141,-0.0007617440266374676,0.0,0.0,0.0,0.0,0.0,0.0,0.0,0.0,0.0,0.0012132796494698644,-0.0003587802722712139,-0.00010230732403327956,0.0,0.0,0.0,0.0,0.0,0.0,0.0,0.0,0.0
8.222,234,8,222000000,base_footprint,-0.0038468276809171913,0.00017930547873346204,0.9987948365658438,0.048928971129059216,0.0,0.0,0.0,0.0,0.0,0.0,0.0,0.0,0.0,0.00018162130852239418,4.438623654812264e-05,-0.017757724994169603,0.0,0.0,0.0,0.0,0.0,0.0,0.0,0.0,0.0,0.47663862778119714,-0.09605021332096836,0.0035004728238303244,0.0,0.0,0.0,0.0,0.0,0.0,0.0,0.0,0.0
8.256,235,8,256000000,base_footprint,-0.0038509870220025783,0.00018062483774950887,0.9987951400166772,0.04892244426324788,0.0,0.0,0.0,0.0,0.0,0.0,0.0,0.0,0.0,-0.00012502551814106506,-0.00010983112347584794,0.006510497236990094,0.0,0.0,0.0,0.0,0.0,0.0,0.0,0.0,0.0,-0.14192221139026345,0.027908596766207796,-0.0011315330393819331,0.0,0.0,0.0,0.0,0.0,0.0,0.0,0.0,0.0
8.29,236,8,290000000,base_footprint,-0.003851438340740137,0.0001799997781259739,0.9988007757138452,0.048807217255325545,0.0,0.0,0.0,0.0,0.0,0.0,0.0,0.0,0.0,-0.00013996417242162455,-7.53749221251056e-05,0.0069311157397048675,0.0,0.0,0.0,0.0,0.0,0.0,0.0,0.0,0.0,8.791533010208986e-05,0.0014160521273147077,-9.54634361492143e-05,0.0,0.0,0.0,0.0,0.0,0.0,0.0,0.0,0.0
8.324,237,8,324000000,base_footprint,-0.0038520779202209023,0.000178913095714271,0.9988162708198915,0.048489036196296936,0.0,0.0,0.0,0.0,0.0,0.0,0.0,0.0,0.0,-0.00013775969828495486,-0.00015222933917072754,0.022083683448824117,0.0,0.0,0.0,0.0,0.0,0.0,0.0,0.0,0.0,0.0001500630394337259,0.003976348810122372,0.00014854376376301708,0.0,0.0,0.0,0.0,0.0,0.0,0.0,0.0,0.0
8.359,238,8,358000000,base_footprint,-0.003853614446821774,0.0001777524697141551,0.9988355029957391,0.048091121997763824,0.0,0.0,0.0,0.0,0.0,0.0,0.0,0.0,0.0,-0.0002594472035065147,3.2391962111419087e-06,0.02489963958011745,0.0,0.0,0.0,0.0,0.0,0.0,0.0,0.0,0.0,-0.00653697807224131,0.007039614179774598,-0.0003984969620598074,0.0,0.0,0.0,0.0,0.0,0.0,0.0,0.0,0.0
8.392,239,8,392000000,base_footprint,-0.0038527738910366645,0.00017762202488513744,0.9988566656083951,0.04764961860749536,0.0,0.0,0.0,0.0,0.0,0.0,0.0,0.0,0.0,-0.0003109446641795412,0.0002482793184221864,0.023891859267288023,0.0,0.0,0.0,0.0,0.0,0.0,0.0,0.0,0.0,0.001735158616386158,0.0051617506161213845,-0.00044955993965696247,0.0,0.0,0.0,0.0,0.0,0.0,0.0,0.0,0.0
8.426,240,8,426000000,base_footprint,-0.0038540231967627027,0.0001771987342514282,0.9988706678043249,0.047355085323007674,0.0,0.0,0.0,0.0,0.0,0.0,0.0,0.0,0.0,-2.262452114334055e-05,-3.7017526028466684e-05,0.01535052617971399,0.0,0.0,0.0,0.0,0.0,0.0,0.0,0.0,0.0,-0.0031459402992097415,0.0052732032145549525,0.0005069390444622326,0.0,0.0,0.0,0.0,0.0,0.0,0.0,0.0,0.0
8.46,241,8,460000000,base_footprint,-0.0038477967769001797,0.0001721377317457827,0.9988743249337295,0.047278407510736836,0.0,0.0,0.0,0.0,0.0,0.0,0.0,0.0,0.0,-0.0002426934358598388,-0.0007211275048622691,-0.00631045766697061,0.0,0.0,0.0,0.0,0.0,0.0,0.0,0.0,0.0,-0.04496447995646628,0.009641326449258459,0.0006891153302876697,0.0,0.0,0.0,0.0,0.0,0.0,0.0,0.0,0.0
8.493,242,8,494000000,base_footprint,-0.003846803150467893,0.00017201813579272227,0.9988726444923035,0.047313978909355126,0.0,0.0,0.0,0.0,0.0,0.0,0.0,0.0,0.0,-0.0002843622635779766,-0.00013466364786309456,0.009730286811476337,0.0,0.0,0.0,0.0,0.0,0.0,0.0,0.0,0.0,0.034484279792343975,-0.008018104253492754,-7.864232594816123e-05,0.0,0.0,0.0,0.0,0.0,0.0,0.0,0.0,0.0
8.528,243,8,528000000,base_footprint,-0.00385016635020158,0.00017411724872209056,0.9988847441174524,0.04705755913422533,0.0,0.0,0.0,0.0,0.0,0.0,0.0,0.0,0.0,6.282399819529201e-06,-6.257112713264757e-05,0.01536797603080907,0.0,0.0,0.0,0.0,0.0,0.0,0.0,0.0,0.0,0.01313615631190127,0.0011393181988324608,-0.0003290698915650974,0.0,0.0,0.0,0.0,0.0,0.0,0.0,0.0,0.0
8.563,244,8,562000000,base_footprint,-0.003849499591227206,0.0001729756378061022,0.9988969294983236,0.046798244316930526,0.0,0.0,0.0,0.0,0.0,0.0,0.0,0.0,0.0,-2.6768098797406534e-05,-0.00014370936768705488,0.01517290712852662,0.0,0.0,0.0,0.0,0.0,0.0,0.0,0.0,0.0,0.0015195975204741828,0.0030951870251456574,0.00018739361071778683,0.0,0.0,0.0,0.0,0.0,0.0,0.0,0.0,0.0
8.596,245,8,596000000,base_footprint,-0.0038493315030423865,0.00017151296622054657,0.9989135448646057,0.0464422557194367,0.0,0.0,0.0,0.0,0.0,0.0,0.0,0.0,0.0,-8.828791955054124e-05,-0.00014879384575094886,0.021645537108769337,0.0,0.0,0.0,0.0,0.0,0.0,0.0,0.0,0.0,0.0003719097858035478,0.00453162391969107,2.3613665381416654e-05,0.0,0.0,0.0,0.0,0.0,0.0,0.0,0.0,0.0
8.631,246,8,630000000,base_footprint,-0.003849428248091519,0.00016996796969986677,0.9989305863627275,0.046074251399991065,0.0,0.0,0.0,0.0,0.0,0.0,0.0,0.0,0.0,-0.00013313570643291788,-0.0001567206999652574,0.021534345564238142,0.0,0.0,0.0,0.0,0.0,0.0,0.0,0.0,0.0,0.0021985290833588145,0.004413611132270963,7.003298645305906e-05,0.0,0.0,0.0,0.0,0.0,0.0,0.0,0.0,0.0
8.668,247,8,664000000,base_footprint,-0.0038498190031588846,0.00016837726617580627,0.9989474142600479,0.04570792147870642,0.0,0.0,0.0,0.0,0.0,0.0,0.0,0.0,0.0,-0.00019080543748828806,-0.00013954152681806383,0.02142929449407642,0.0,0.0,0.0,0.0,0.0,0.0,0.0,0.0,0.0,0.002184035567265523,0.004424547561680105,-2.845036679868296e-05,0.0,0.0,0.0,0.0,0.0,0.0,0.0,0.0,0.0
8.698,248,8,698000000,base_footprint,-0.0038505084342264823,0.0001667529910967454,0.998964015103133,0.045343602715990326,0.0,0.0,0.0,0.0,0.0,0.0,0.0,0.0,0.0,-0.0002469543224582096,-9.652572546492571e-05,0.021338740902009372,0.0,0.0,0.0,0.0,0.0,0.0,0.0,0.0,0.0,0.002166898935633403,0.004378106144069351,-0.00014217062035093311,0.0,0.0,0.0,0.0,0.0,0.0,0.0,0.0,0.0
8.733,249,8,732000000,base_footprint,-0.0038514754030331577,0.0001646759490904362,0.9989853729720855,0.044870520465837185,0.0,0.0,0.0,0.0,0.0,0.0,0.0,0.0,0.0,-0.00028864707189271374,-7.267588452113296e-05,0.028020769671253696,0.0,0.0,0.0,0.0,0.0,0.0,0.0,0.0,0.0,-0.002160706502589468,0.00644221407682838,-0.00016047135670557732,0.0,0.0,0.0,0.0,0.0,0.0,0.0,0.0,0.0
8.766,250,8,766000000,base_footprint,-0.0038522704036515506,0.00016422568626774767,0.998991143084084,0.04474180463745791,0.0,0.0,0.0,0.0,0.0,0.0,0.0,0.0,0.0,-0.00010365760501268868,-0.00043025884226019804,0.012859880404061224,0.0,0.0,0.0,0.0,0.0,0.0,0.0,0.0,0.0,-0.3297689150532494,0.061546110276480354,-0.002116103984119805,0.0,0.0,0.0,0.0,0.0,0.0,0.0,0.0,0.0
8.8,251,8,800000000,base_footprint,-0.0038528295831378725,0.0001638409156998243,0.9990009264617405,0.044522778315619266,0.0,0.0,0.0,0.0,0.0,0.0,0.0,0.0,0.0,0.0005634658864966333,-0.0003809769210738477,0.01564919276586671,0.0,0.0,0.0,0.0,0.0,0.0,0.0,0.0,0.0,0.0054931493121851156,0.0021704020162078117,-0.0005750384781744262,0.0,0.0,0.0,0.0,0.0,0.0,0.0,0.0,0.0
8.834,252,8,834000000,base_footprint,-0.003854489885078907,0.00016247716991519217,0.9990160524146456,0.04418193665688851,0.0,0.0,0.0,0.0,0.0,0.0,0.0,0.0,0.0,-0.00021026880420292073,5.331094252078061e-06,0.02110406198186553,0.0,0.0,0.0,0.0,0.0,0.0,0.0,0.0,0.0,-0.008694876146825608,0.0058311698500270554,-0.0002236428453532894,0.0,0.0,0.0,0.0,0.0,0.0,0.0,0.0,0.0
8.867,253,8,868000000,base_footprint,-0.0038528133267743073,0.00016327506124296274,0.9990330813071371,0.04379533793328529,0.0,0.0,0.0,0.0,0.0,0.0,0.0,0.0,0.0,-0.00016328225791856582,6.564792037979126e-06,0.02128663760843809,0.0,0.0,0.0,0.0,0.0,0.0,0.0,0.0,0.0,-0.0020282615992162486,0.004860973217595585,-8.228689579847772e-05,0.0,0.0,0.0,0.0,0.0,0.0,0.0,0.0,0.0
8.902,254,8,902000000,base_footprint,-0.003851027609960513,0.0001650627472539469,0.9990474955370082,0.04346543456435719,0.0,0.0,0.0,0.0,0.0,0.0,0.0,0.0,0.0,0.0013909029285347628,-0.002760651361838548,0.010472524156943564,0.0,0.0,0.0,0.0,0.0,0.0,0.0,0.0,0.0,0.015300304753467555,0.0025062102685928884,0.005412103452440773,0.0,0.0,0.0,0.0,0.0,0.0,0.0,0.0,0.0
8.936,255,8,936000000,base_footprint,-0.0038508108318394013,0.0001597497175535967,0.9990081469872445,0.04436065812268189,0.0,0.0,0.0,0.0,0.0,0.0,0.0,0.0,0.0,0.0005070282672621462,-0.00024400100522140226,-0.08780472654093785,0.0,0.0,0.0,0.0,0.0,0.0,0.0,0.0,0.0,0.09309590218225407,-0.027257673503469162,-0.003929198553203325,0.0,0.0,0.0,0.0,0.0,0.0,0.0,0.0,0.0
8.969,256,8,970000000,base_footprint,-0.0038471791879742183,0.00016584267418677504,0.9989442596419671,0.04577704486820192,0.0,0.0,0.0,0.0,0.0,0.0,0.0,0.0,0.0,0.0004782106116761255,-0.00022926446173508045,-0.07228280768086486,0.0,0.0,0.0,0.0,0.0,0.0,0.0,0.0,0.0,0.029001298185108,-0.02385994874397292,0.0002167911202170963,0.0,0.0,0.0,0.0,0.0,0.0,0.0,0.0,0.0
9.004,257,9,4000000,base_footprint,-0.003852822002693853,0.00016695687054042022,0.9989110431741722,0.046495760158387515,0.0,0.0,0.0,0.0,0.0,0.0,0.0,0.0,0.0,-0.00013394763711303137,0.0017655971185942833,0.028288129941727712,0.0,0.0,0.0,0.0,0.0,0.0,0.0,0.0,0.0,0.04506205992973708,-0.018877250737149034,-0.002112962868895583,0.0,0.0,0.0,0.0,0.0,0.0,0.0,0.0,0.0
9.038,258,9,38000000,base_footprint,-0.0038508123686723725,0.0001659219842994971,0.9989780547839541,0.04503320745920442,0.0,0.0,0.0,0.0,0.0,0.0,0.0,0.0,0.0,-0.0007556389544324433,-8.384444373380742e-05,0.11207631569871124,0.0,0.0,0.0,0.0,0.0,0.0,0.0,0.0,0.0,0.12634708220193358,-0.005339045738133302,0.003344096329800716,0.0,0.0,0.0,0.0,0.0,0.0,0.0,0.0,0.0
9.072,259,9,72000000,base_footprint,-0.003849733595377038,0.0001584690062885688,0.999062290256569,0.0431241768166977,0.0,0.0,0.0,0.0,0.0,0.0,0.0,0.0,0.0,-0.0007506853914220117,-0.00010513745372094658,0.11366312160625393,0.0,0.0,0.0,0.0,0.0,0.0,0.0,0.0,0.0,0.004941601864448916,0.02415688918981779,0.00019008816516335585,0.0,0.0,0.0,0.0,0.0,0.0,0.0,0.0,0.0
9.106,260,9,106000000,base_footprint,-0.0038500502819457895,0.00015095454725402155,0.999143756249613,0.04119355135169834,0.0,0.0,0.0,0.0,0.0,0.0,0.0,0.0,0.0,-0.0007986214549347697,-8.835082160021247e-05,0.1135616028409918,0.0,0.0,0.0,0.0,0.0,0.0,0.0,0.0,0.0,0.005435180784124877,0.024333869449749974,-2.4090884531901833e-07,0.0,0.0,0.0,0.0,0.0,0.0,0.0,0.0,0.0
9.14,261,9,140000000,base_footprint,-0.0038506007079213145,0.00014341555686685507,0.999221448418002,0.039263842496584045,0.0,0.0,0.0,0.0,0.0,0.0,0.0,0.0,0.0,-0.0008270960280835516,-9.362773347122889e-05,0.11348454303720876,0.0,0.0,0.0,0.0,0.0,0.0,0.0,0.0,0.0,0.0052950519659179145,0.024333662290656637,2.8806892452761674e-05,0.0,0.0,0.0,0.0,0.0,0.0,0.0,0.0,0.0
9.174,262,9,174000000,base_footprint,-0.00385012572550104,0.00013573416968338218,0.9993032727663589,0.03712313492388871,0.0,0.0,0.0,0.0,0.0,0.0,0.0,0.0,0.0,-0.0022568516914359795,0.0008390109829927403,0.18713629684806807,0.0,0.0,0.0,0.0,0.0,0.0,0.0,0.0,0.0,-0.014065811296095573,0.02890569474059171,-0.0021048901538384774,0.0,0.0,0.0,0.0,0.0,0.0,0.0,0.0,0.0
9.208,263,9,208000000,base_footprint,-0.0038525245643912876,0.00012276955091427376,0.9994161384851354,0.03394886032812835,0.0,0.0,0.0,0.0,0.0,0.0,0.0,0.0,0.0,-0.0014702302002140427,3.830514316146647e-06,0.18674008357735522,0.0,0.0,0.0,0.0,0.0,0.0,0.0,0.0,0.0,0.0072876738833566445,0.04048040125020594,0.001721166776007057,0.0,0.0,0.0,0.0,0.0,0.0,0.0,0.0,0.0
9.242,264,9,242000000,base_footprint,-0.0038538947881998215,0.00011049963323742559,0.9995189352086006,0.030773908498239338,0.0,0.0,0.0,0.0,0.0,0.0,0.0,0.0,0.0,-0.0014717268926501294,2.3322347321213448e-06,0.18696907477390773,0.0,0.0,0.0,0.0,0.0,0.0,0.0,0.0,0.0,0.0057303324811518366,0.04037705203201369,-4.249295575705072e-05,0.0,0.0,0.0,0.0,0.0,0.0,0.0,0.0,0.0
9.276,265,9,276000000,base_footprint,-0.003852095797750762,9.806699894664141e-05,0.9996054386151243,0.027822991066630554,0.0,0.0,0.0,0.0,0.0,0.0,0.0,0.0,0.0,0.00010555054464464762,-0.001989932641183294,0.11120434879776864,0.0,0.0,0.0,0.0,0.0,0.0,0.0,0.0,0.0,-0.044508987841498975,0.04483507041272377,0.0035016880458189612,0.0,0.0,0.0,0.0,0.0,0.0,0.0,0.0,0.0
9.31,266,9,310000000,base_footprint,-0.0038511203437207315,0.00010118444344793548,0.9996317061715069,0.026862811663131727,0.0,0.0,0.0,0.0,0.0,0.0,0.0,0.0,0.0,-0.0001611319754113725,-0.00047248387706256276,0.062344338346479254,0.0,0.0,0.0,0.0,0.0,0.0,0.0,0.0,0.0,-0.1908316613026505,0.033505617459834575,-0.004316217861832729,0.0,0.0,0.0,0.0,0.0,0.0,0.0,0.0,0.0
9.344,267,9,344000000,base_footprint,-0.003860660177872307,8.598069157177718e-05,0.9996789054134008,0.025043441891572687,0.0,0.0,0.0,0.0,0.0,0.0,0.0,0.0,0.0,-0.0011443594333827454,0.0005865754743313451,0.12909148067175258,0.0,0.0,0.0,0.0,0.0,0.0,0.0,0.0,0.0,0.04219693902844678,0.01548686344309537,-0.0010803573483477353,0.0,0.0,0.0,0.0,0.0,0.0,0.0,0.0,0.0
9.378,268,9,378000000,base_footprint,-0.0038611634801186097,7.937038261266411e-05,0.9997369270335487,0.02260888857151752,0.0,0.0,0.0,0.0,0.0,0.0,0.0,0.0,0.0,-0.0011508275481552064,-6.491563025411983e-05,0.1652248389066793,0.0,0.0,0.0,0.0,0.0,0.0,0.0,0.0,0.0,-0.1301900077813967,0.04376857896916079,-0.000357766511548222,0.0,0.0,0.0,0.0,0.0,0.0,0.0,0.0,0.0
9.41,269,9,412000000,base_footprint,-0.0038523411690002587,6.538360259102739e-05,0.9997951889472625,0.019867947815764012,0.0,0.0,0.0,0.0,0.0,0.0,0.0,0.0,0.0,-0.0010515684228692705,-4.668572627602137e-05,0.1526808501453179,0.0,0.0,0.0,0.0,0.0,0.0,0.0,0.0,0.0,-0.018816493300974603,0.03490701380018738,-0.0013763332052698567,0.0,0.0,0.0,0.0,0.0,0.0,0.0,0.0,0.0
9.446,270,9,446000000,base_footprint,-0.0038540544206091525,5.833246677871045e-05,0.9998455838139781,0.017145010630838533,0.0,0.0,0.0,0.0,0.0,0.0,0.0,0.0,0.0,-0.0012017221581410245,-0.00014532380661374264,0.16130729253685733,0.0,0.0,0.0,0.0,0.0,0.0,0.0,0.0,0.0,0.016143566037326345,0.03166194546943044,0.00125619976822429,0.0,0.0,0.0,0.0,0.0,0.0,0.0,0.0,0.0
9.487,271,9,480000000,base_footprint,-0.003853756294348569,4.7943347340195836e-05,0.9998888470726646,0.014402769301669805,0.0,0.0,0.0,0.0,0.0,0.0,0.0,0.0,0.0,-0.0012228038185486392,-7.498651780747256e-05,0.16126330731086824,0.0,0.0,0.0,0.0,0.0,0.0,0.0,0.0,0.0,0.003291805135104888,0.03321455373703206,-4.2326115740620566e-05,0.0,0.0,0.0,0.0,0.0,0.0,0.0,0.0,0.0
9.514,272,9,514000000,base_footprint,-0.003853343423157552,3.7608693098442324e-05,0.9999239719893914,0.011713264745932657,0.0,0.0,0.0,0.0,0.0,0.0,0.0,0.0,0.0,-0.0011190300011770056,-0.00012512218713011975,0.15428791222718352,0.0,0.0,0.0,0.0,0.0,0.0,0.0,0.0,0.0,0.004548882174866044,0.032612841214552886,0.00016748667527017135,0.0,0.0,0.0,0.0,0.0,0.0,0.0,0.0,0.0
9.548,273,9,548000000,base_footprint,-0.003853014544700678,2.759819894022149e-05,0.9999512539857354,0.009090828873821,0.0,0.0,0.0,0.0,0.0,0.0,0.0,0.0,0.0,-0.0010932177587627725,-0.00012272666405329868,0.1542412031011749,0.0,0.0,0.0,0.0,0.0,0.0,0.0,0.0,0.0,0.0023885534576627704,0.03182244270006858,8.802543617762127e-05,0.0,0.0,0.0,0.0,0.0,0.0,0.0,0.0,0.0
9.582,274,9,582000000,base_footprint,-0.003852904259657283,1.7574460765235002e-05,0.9999716507271664,0.006469355600865883,0.0,0.0,0.0,0.0,0.0,0.0,0.0,0.0,0.0,-0.0011275683290484142,-0.00015295262192315776,0.15416753811124037,0.0,0.0,0.0,0.0,0.0,0.0,0.0,0.0,0.0,0.002153892660892851,0.03182941237477009,0.00010505478957151683,0.0,0.0,0.0,0.0,0.0,0.0,0.0,0.0,0.0
9.616,275,9,616000000,base_footprint,-0.003850144258079024,8.057301221086745e-06,0.99998460464785,0.003995846788236967,0.0,0.0,0.0,0.0,0.0,0.0,0.0,0.0,0.0,-0.0007468900484417371,0.0020667719835281086,0.12010496242087716,0.0,0.0,0.0,0.0,0.0,0.0,0.0,0.0,0.0,0.3507649363913313,0.02489694844864282,0.0011386279571544448,0.0,0.0,0.0,0.0,0.0,0.0,0.0,0.0,0.0
9.648,276,9,650000000,base_footprint,-0.0038534725666404903,2.1583673517058354e-07,0.9999906613810671,0.0019565019263179046,0.0,0.0,0.0,0.0,0.0,0.0,0.0,0.0,0.0,-0.0008769168032539865,-0.00015361228892566483,0.11990649315451259,0.0,0.0,0.0,0.0,0.0,0.0,0.0,0.0,0.0,0.0022686174370895222,0.0262122024532175,0.0015080829192578738,0.0,0.0,0.0,0.0,0.0,0.0,0.0,0.0,0.0
9.684,277,9,684000000,base_footprint,-0.003854100501900328,-7.628481569070337e-06,0.9999925695711704,-8.156945199706297e-05,0.0,0.0,0.0,0.0,0.0,0.0,0.0,0.0,0.0,-0.0009167627643679759,-0.00011321451231189183,0.11984582733307514,0.0,0.0,0.0,0.0,0.0,0.0,0.0,0.0,0.0,0.001371558955484865,0.026273353695710877,-0.00023687371711610995,0.0,0.0,0.0,0.0,0.0,0.0,0.0,0.0,0.0
9.718,278,9,718000000,base_footprint,-0.003854995976414218,-1.4533170665530378e-05,0.999990788198538,-0.00188740903767435,0.0,0.0,0.0,0.0,0.0,0.0,0.0,0.0,0.0,-0.0007218204842755174,-9.596873411840547e-05,0.09489336284791677,0.0,0.0,0.0,0.0,0.0,0.0,0.0,0.0,0.0,0.007846815468854264,0.02358491462742697,-2.9147539225740764e-05,0.0,0.0,0.0,0.0,0.0,0.0,0.0,0.0,0.0
9.752,279,9,752000000,base_footprint,-0.0038562507612889744,-2.068396441258318e-05,0.9999864392175432,-0.0035000404652985834,0.0,0.0,0.0,0.0,0.0,0.0,0.0,0.0,0.0,-0.0007223083189094592,-7.88553589267176e-05,0.09485973451282124,0.0,0.0,0.0,0.0,0.0,0.0,0.0,0.0,0.0,-2.838829015125266e-05,0.020773060023732418,-9.800874067174063e-05,0.0,0.0,0.0,0.0,0.0,0.0,0.0,0.0,0.0
9.786,280,9,786000000,base_footprint,-0.003857295520816878,-2.670406637096602e-05,0.9999794931201167,-0.005112132372356076,0.0,0.0,0.0,0.0,0.0,0.0,0.0,0.0,0.0,-0.0007069733651659823,-4.839118171044296e-05,0.09479413140003595,0.0,0.0,0.0,0.0,0.0,0.0,0.0,0.0,0.0,-0.0018370781717717546,0.020767153766901636,-0.00014352025449055906,0.0,0.0,0.0,0.0,0.0,0.0,0.0,0.0,0.0
9.82,281,9,820000000,base_footprint,-0.003858783162332964,-3.023485184908676e-05,0.9999712846508988,-0.0065221738700415996,0.0,0.0,0.0,0.0,0.0,0.0,0.0,0.0,0.0,-0.000808346968463266,-0.00021901667257187145,0.07141216861686676,0.0,0.0,0.0,0.0,0.0,0.0,0.0,0.0,0.0,0.002609254018058701,0.018216842049524548,0.0005328580752376537,0.0,0.0,0.0,0.0,0.0,0.0,0.0,0.0,0.0
9.854,282,9,854000000,base_footprint,-0.003854211628681373,-4.035899047957344e-05,0.999963897432722,-0.007572797041651422,0.0,0.0,0.0,0.0,0.0,0.0,0.0,0.0,0.0,-0.0012959103505852064,-0.000756735543279332,0.050960580500032465,0.0,0.0,0.0,0.0,0.0,0.0,0.0,0.0,0.0,-0.04271389507003076,0.014755091953380288,0.0005191338581345688,0.0,0.0,0.0,0.0,0.0,0.0,0.0,0.0,0.0
9.888,283,9,888000000,base_footprint,-0.00385118378241827,-4.351445975015072e-05,0.9999554369257154,-0.008619202554035282,0.0,0.0,0.0,0.0,0.0,0.0,0.0,0.0,0.0,-0.0009774843295342326,0.0004096148150234339,0.07051798918978469,0.0,0.0,0.0,0.0,0.0,0.0,0.0,0.0,0.0,0.025089771128530138,0.012048535225513296,-0.0018630253856200278,0.0,0.0,0.0,0.0,0.0,0.0,0.0,0.0,0.0
9.921,284,9,922000000,base_footprint,-0.003855199204802645,-4.5810740006961975e-05,0.9999440490894688,-0.00985058531384906,0.0,0.0,0.0,0.0,0.0,0.0,0.0,0.0,0.0,-0.0005831248344189505,-0.00020117888809676615,0.07019044966566963,0.0,0.0,0.0,0.0,0.0,0.0,0.0,0.0,0.0,0.011201267453350396,0.016484729521337005,0.001133406154639956,0.0,0.0,0.0,0.0,0.0,0.0,0.0,0.0,0.0
9.956,285,9,956000000,base_footprint,-0.003853936099934649,-4.9658821517903446e-05,0.9999315534905737,-0.011046856768653747,0.0,0.0,0.0,0.0,0.0,0.0,0.0,0.0,0.0,-0.0006084732714046292,-0.00018508861096838014,0.07046004567436474,0.0,0.0,0.0,0.0,0.0,0.0,0.0,0.0,0.0,-9.646896339649997e-05,0.015194937010489911,6.27864623741134e-05,0.0,0.0,0.0,0.0,0.0,0.0,0.0,0.0,0.0
9.993,286,9,990000000,base_footprint,-0.003853253463107297,-5.431447059295758e-05,0.9999176138131471,-0.012243981129905579,0.0,0.0,0.0,0.0,0.0,0.0,0.0,0.0,0.0,-0.0005483917029287465,-0.00013351717761161323,0.07038482387986657,0.0,0.0,0.0,0.0,0.0,0.0,0.0,0.0,0.0,0.0004741749794959443,0.01567320121340432,3.0050030817874383e-06,0.0,0.0,0.0,0.0,0.0,0.0,0.0,0.0,0.0
10.026,287,10,24000000,base_footprint,-0.003852766029366837,-5.8212653470653326e-05,0.9999046450170189,-0.01326098331947911,0.0,0.0,0.0,0.0,0.0,0.0,0.0,0.0,0.0,-0.00045582412141481404,-9.754106644999067e-05,0.055928700865865655,0.0,0.0,0.0,0.0,0.0,0.0,0.0,0.0,0.0,0.004364920245786202,0.013503058773724574,0.0001034462539147291,0.0,0.0,0.0,0.0,0.0,0.0,0.0,0.0,0.0
10.058,288,10,58000000,base_footprint,-0.003852527932329748,-6.183863922772677e-05,0.9998915960435971,-0.014210924174782794,0.0,0.0,0.0,0.0,0.0,0.0,0.0,0.0,0.0,-0.0003829590523005303,-0.00019122014576621366,0.055851035957789,0.0,0.0,0.0,0.0,0.0,0.0,0.0,0.0,0.0,0.0005180176446659044,0.012327446234564696,0.00024037561836495573,0.0,0.0,0.0,0.0,0.0,0.0,0.0,0.0,0.0
10.092,289,10,92000000,base_footprint,-0.003852537205660609,-6.548933648657556e-05,0.9998776695526768,-0.015159142394408217,0.0,0.0,0.0,0.0,0.0,0.0,0.0,0.0,0.0,-0.0003799409732349616,-0.00019291760560636757,0.05574124874663057,0.0,0.0,0.0,0.0,0.0,0.0,0.0,0.0,0.0,0.0006268946874939245,0.012307225449310705,-2.8117960105834825e-07,0.0,0.0,0.0,0.0,0.0,0.0,0.0,0.0,0.0
10.126,290,10,126000000,base_footprint,-0.003855623698261037,-6.991087622663498e-05,0.9998576942344816,-0.01642317138900925,0.0,0.0,0.0,0.0,0.0,0.0,0.0,0.0,0.0,-0.0009672270174709681,2.776673275867934e-06,0.1401990800245088,0.0,0.0,0.0,0.0,0.0,0.0,0.0,0.0,0.0,-0.6301587192459128,-0.02611198918238516,-0.00511309465021568,0.0,0.0,0.0,0.0,0.0,0.0,0.0,0.0,0.0
10.16,291,10,160000000,base_footprint,-0.0038529769174549693,-7.747613390868719e-05,0.9998250519359378,-0.018303390058171436,0.0,0.0,0.0,0.0,0.0,0.0,0.0,0.0,0.0,-0.0002603563270336148,0.000499450593858581,0.04729116414265099,0.0,0.0,0.0,0.0,0.0,0.0,0.0,0.0,0.0,0.29316251873544413,0.0448911699196669,0.0015493778279371561,0.0,0.0,0.0,0.0,0.0,0.0,0.0,0.0,0.0
10.195,292,10,194000000,base_footprint,-0.0038540615956357354,-8.090040297660014e-05,0.9998099236551191,-0.01911167771512981,0.0,0.0,0.0,0.0,0.0,0.0,0.0,0.0,0.0,-0.0003403864338288931,-0.00010134405943148455,0.04755642588578749,0.0,0.0,0.0,0.0,0.0,0.0,0.0,0.0,0.0,-0.00040491088571564674,0.009571044120660756,0.0005121742236427306,0.0,0.0,0.0,0.0,0.0,0.0,0.0,0.0,0.0
10.227,293,10,228000000,base_footprint,-0.0038554209125858225,-8.32625184149936e-05,0.9997988949596022,-0.019679899250206048,0.0,0.0,0.0,0.0,0.0,0.0,0.0,0.0,0.0,-0.0002225407201621594,-7.958846879187683e-05,0.0307666795959776,0.0,0.0,0.0,0.0,0.0,0.0,0.0,0.0,0.0,0.004389214447978833,0.007430863938604142,-8.70864986148431e-05,0.0,0.0,0.0,0.0,0.0,0.0,0.0,0.0,0.0
10.26,294,10,262000000,base_footprint,-0.003855955098049456,-8.571334437450906e-05,0.9997884048657006,-0.020205686318518143,0.0,0.0,0.0,0.0,0.0,0.0,0.0,0.0,0.0,-0.00023416584284245836,-0.00011513744623069227,0.0312929695087857,0.0,0.0,0.0,0.0,0.0,0.0,0.0,0.0,0.0,0.0002755252329618399,0.006213641549393886,-4.310634961650204e-06,0.0,0.0,0.0,0.0,0.0,0.0,0.0,0.0,0.0
10.296,295,10,296000000,base_footprint,-0.0038564788330130557,-8.774391060279365e-05,0.9997774299631591,-0.02074151412691917,0.0,0.0,0.0,0.0,0.0,0.0,0.0,0.0,0.0,-0.00018584791559133717,1.060134159956874e-05,0.031113302301478806,0.0,0.0,0.0,0.0,0.0,0.0,0.0,0.0,0.0,0.0011114696463508165,0.0065035254340536156,-0.00022514672234177818,0.0,0.0,0.0,0.0,0.0,0.0,0.0,0.0,0.0
10.33,296,10,330000000,base_footprint,-0.003853437919178714,-9.442993684374081e-05,0.9997691770553444,-0.02113609967021869,0.0,0.0,0.0,0.0,0.0,0.0,0.0,0.0,0.0,-0.0002049432077474685,-0.0003272105211282314,0.025675627044693013,0.0,0.0,0.0,0.0,0.0,0.0,0.0,0.0,0.0,0.03382497749939385,0.0028913216860460915,0.0012376186230223035,0.0,0.0,0.0,0.0,0.0,0.0,0.0,0.0,0.0
10.364,297,10,364000000,base_footprint,-0.0038449019593317334,-9.143785618559967e-05,0.9997473540535967,-0.02214579939568631,0.0,0.0,0.0,0.0,0.0,0.0,0.0,0.0,0.0,-0.0005392724613170693,4.498571250447035e-05,0.0924424021674558,0.0,0.0,0.0,0.0,0.0,0.0,0.0,0.0,0.0,0.0565413601050261,0.02264058866168188,-0.00011006940365151572,0.0,0.0,0.0,0.0,0.0,0.0,0.0,0.0,0.0
10.398,298,10,398000000,base_footprint,-0.0038483929000722784,-9.409857271200603e-05,0.9997148625223578,-0.023566388553381026,0.0,0.0,0.0,0.0,0.0,0.0,0.0,0.0,0.0,-0.00041681234303832693,-0.00026258047152341113,0.0629698552805727,0.0,0.0,0.0,0.0,0.0,0.0,0.0,0.0,0.0,0.09341900234098903,0.02679932080350864,0.0009730732497066697,0.0,0.0,0.0,0.0,0.0,0.0,0.0,0.0,0.0
10.432,299,10,432000000,base_footprint,-0.0038529458102833,-0.00010238073920484582,0.99968559770706,-0.024775997736629776,0.0,0.0,0.0,0.0,0.0,0.0,0.0,0.0,0.0,-0.0004807493244115011,-0.00036931797995347804,0.07017835628782708,0.0,0.0,0.0,0.0,0.0,0.0,0.0,0.0,0.0,0.12778735124136495,0.027693995858562054,0.001127579891653052,0.0,0.0,0.0,0.0,0.0,0.0,0.0,0.0,0.0
10.466,300,10,466000000,base_footprint,-0.0038522807601822314,-0.00010687010302474218,0.9996554095405281,-0.025965567355348083,0.0,0.0,0.0,0.0,0.0,0.0,0.0,0.0,0.0,-0.0005754172638146996,-0.00018331339661423473,0.06998145196666196,0.0,0.0,0.0,0.0,0.0,0.0,0.0,0.0,0.0,0.00020356041815513507,0.015390680234158433,-0.00016455758822201544,0.0,0.0,0.0,0.0,0.0,0.0,0.0,0.0,0.0
10.5,301,10,500000000,base_footprint,-0.0038516780363866796,-0.00011186154487017196,0.9996237474031949,-0.02715724011920825,0.0,0.0,0.0,0.0,0.0,0.0,0.0,0.0,0.0,-0.0015411431692246619,-0.0002167408275831185,0.07684287391677046,0.0,0.0,0.0,0.0,0.0,0.0,0.0,0.0,0.0,-0.001025060486080583,0.01533126835669885,-0.0003215225392408577,0.0,0.0,0.0,0.0,0.0,0.0,0.0,0.0,0.0
10.534,302,10,534000000,base_footprint,-0.003851289071252619,-0.00011652593772403255,0.9995864904590821,-0.02849565029773763,0.0,0.0,0.0,0.0,0.0,0.0,0.0,0.0,0.0,-0.0006273504264361953,-0.00019444285903910091,0.07870419100720266,0.0,0.0,0.0,0.0,0.0,0.0,0.0,0.0,0.0,-0.002490917762270522,0.017050090588576438,0.00037173930508485104,0.0,0.0,0.0,0.0,0.0,0.0,0.0,0.0,0.0
10.566,303,10,568000000,base_footprint,-0.0038511138026512143,-0.00012163629611908285,0.9995475146839341,-0.029831527219723764,0.0,0.0,0.0,0.0,0.0,0.0,0.0,0.0,0.0,-0.0005842383243640228,-0.00020366347497204813,0.07859924006939967,0.0,0.0,0.0,0.0,0.0,0.0,0.0,0.0,0.0,-0.0007241038406550573,0.017289657737994655,6.909608851019406e-05,0.0,0.0,0.0,0.0,0.0,0.0,0.0,0.0,0.0
10.603,304,10,602000000,base_footprint,-0.003850966807294442,-0.00012681509723277994,0.9995071597757886,-0.031154317991512775,0.0,0.0,0.0,0.0,0.0,0.0,0.0,0.0,0.0,-0.0003608973959998749,-0.0002783316000867185,0.07048909513812557,0.0,0.0,0.0,0.0,0.0,0.0,0.0,0.0,0.0,0.0012288626932947405,0.017518109677001882,-7.697969230325468e-05,0.0,0.0,0.0,0.0,0.0,0.0,0.0,0.0,0.0
10.636,305,10,636000000,base_footprint,-0.0038517099870250316,-0.00013139213925459674,0.9994691063066196,-0.03235201083285158,0.0,0.0,0.0,0.0,0.0,0.0,0.0,0.0,0.0,-0.0005139772370306537,-0.00013503156553865145,0.07048974008228168,0.0,0.0,0.0,0.0,0.0,0.0,0.0,0.0,0.0,-0.000507249762005551,0.01543594521030951,-0.00020604071890919162,0.0,0.0,0.0,0.0,0.0,0.0,0.0,0.0,0.0
10.672,306,10,670000000,base_footprint,-0.003852400552185041,-0.00013601885534017283,0.9994296639803056,-0.03354828259494079,0.0,0.0,0.0,0.0,0.0,0.0,0.0,0.0,0.0,-0.0005021584570751703,-0.00011913335764255603,0.0703816985545678,0.0,0.0,0.0,0.0,0.0,0.0,0.0,0.0,0.0,-0.0006647403241904767,0.015528836269749425,-8.23023946254914e-05,0.0,0.0,0.0,0.0,0.0,0.0,0.0,0.0,0.0
10.704,307,10,704000000,base_footprint,-0.0038505296814041827,-0.00014433970082183543,0.9993910859948322,-0.03467866521787203,0.0,0.0,0.0,0.0,0.0,0.0,0.0,0.0,0.0,0.0006312302341452637,-0.0009406721280424345,0.030899335148066406,0.0,0.0,0.0,0.0,0.0,0.0,0.0,0.0,0.0,0.01624681165677841,0.017792815660253945,0.002164492397054989,0.0,0.0,0.0,0.0,0.0,0.0,0.0,0.0,0.0
10.738,308,10,738000000,base_footprint,-0.003854041447948018,-0.00014297606324121536,0.9993739199835548,-0.03516950353738764,0.0,0.0,0.0,0.0,0.0,0.0,0.0,0.0,0.0,-0.00018710709786315817,-9.80262386023516e-05,0.02966682604191567,0.0,0.0,0.0,0.0,0.0,0.0,0.0,0.0,0.0,-0.006058903073030801,0.004826220179963666,-0.0022238662206693995,0.0,0.0,0.0,0.0,0.0,0.0,0.0,0.0,0.0
10.772,309,10,772000000,base_footprint,-0.0038469140762858317,-0.00014184341789735973,0.999355163618618,-0.03569927284049248,0.0,0.0,0.0,0.0,0.0,0.0,0.0,0.0,0.0,0.0005221025397838022,-0.0017565835991061125,0.04534584608240059,0.0,0.0,0.0,0.0,0.0,0.0,0.0,0.0,0.0,-0.034992490749834244,0.002257669485591514,0.0015204375618639914,0.0,0.0,0.0,0.0,0.0,0.0,0.0,0.0,0.0
10.806000000000001,310,10,806000000,base_footprint,-0.003851541194258253,-0.00014376703039687476,0.9993088665551045,-0.03697207305281156,0.0,0.0,0.0,0.0,0.0,0.0,0.0,0.0,0.0,-0.0008070064877698346,-6.658228678019845e-05,0.082596988625959,0.0,0.0,0.0,0.0,0.0,0.0,0.0,0.0,0.0,-0.196263660689639,-0.013389661399298366,-0.003155595997788758,0.0,0.0,0.0,0.0,0.0,0.0,0.0,0.0,0.0
10.84,311,10,840000000,base_footprint,-0.0038564145138810014,-0.00015547516761590607,0.9992650651642065,-0.038137034978395996,0.0,0.0,0.0,0.0,0.0,0.0,0.0,0.0,0.0,-0.0007301703887353011,0.00035168263934311575,0.07400749903906896,0.0,0.0,0.0,0.0,0.0,0.0,0.0,0.0,0.0,-0.11988469515210477,-0.0036122261351086136,-0.0018700532491489814,0.0,0.0,0.0,0.0,0.0,0.0,0.0,0.0,0.0
10.874,312,10,874000000,base_footprint,-0.003850186452874146,-0.00015616031170319662,0.9992163737193316,-0.039392767983783786,0.0,0.0,0.0,0.0,0.0,0.0,0.0,0.0,0.0,-0.0009926307631911602,-0.005005174948290163,0.035455904650059385,0.0,0.0,0.0,0.0,0.0,0.0,0.0,0.0,0.0,-0.038610969776672444,0.010547862878768195,0.006977554213314249,0.0,0.0,0.0,0.0,0.0,0.0,0.0,0.0,0.0
10.908,313,10,908000000,base_footprint,-0.0038510016704074623,-0.00016115339879943608,0.9991965848345706,-0.03989146112450085,0.0,0.0,0.0,0.0,0.0,0.0,0.0,0.0,0.0,-0.00027365172759546974,1.5259771969351742e-05,0.028059800839158343,0.0,0.0,0.0,0.0,0.0,0.0,0.0,0.0,0.0,0.03341827309495596,0.011089390684135265,-0.006190205533381761,0.0,0.0,0.0,0.0,0.0,0.0,0.0,0.0,0.0
10.942,314,10,942000000,base_footprint,-0.0038505383042784064,-0.00016295001986568682,0.9991774552436573,-0.040367805673181135,0.0,0.0,0.0,0.0,0.0,0.0,0.0,0.0,0.0,-0.00023411681260660622,-0.00015601569703095776,0.02808315541610915,0.0,0.0,0.0,0.0,0.0,0.0,0.0,0.0,0.0,-0.00018094411966180439,0.005864977955620095,0.0003433658027444852,0.0,0.0,0.0,0.0,0.0,0.0,0.0,0.0,0.0
10.976,315,10,976000000,base_footprint,-0.0038499531778723437,-0.00016460361642534266,0.9991581167758137,-0.040843707559273704,0.0,0.0,0.0,0.0,0.0,0.0,0.0,0.0,0.0,-0.00024987302434673867,-0.00016551891140350884,0.028016837522344566,0.0,0.0,0.0,0.0,0.0,0.0,0.0,0.0,0.0,0.00011747912310014762,0.005932029855724138,7.316585901804652e-05,0.0,0.0,0.0,0.0,0.0,0.0,0.0,0.0,0.0
11.01,316,11,10000000,base_footprint,-0.003843682127188343,-0.00016526031395413355,0.9991362359194157,-0.041376090553793626,0.0,0.0,0.0,0.0,0.0,0.0,0.0,0.0,0.0,-0.0004936120149169262,0.0008165884260941783,0.0471615840550419,0.0,0.0,0.0,0.0,0.0,0.0,0.0,0.0,0.0,0.2259836033095983,0.04423360350453574,0.00030551486555986966,0.0,0.0,0.0,0.0,0.0,0.0,0.0,0.0,0.0
11.046,317,11,44000000,base_footprint,-0.003849141688976978,-0.00017177390640461937,0.9990773480527909,-0.042773908049019385,0.0,0.0,0.0,0.0,0.0,0.0,0.0,0.0,0.0,-0.000568822261318068,-0.0002934297800323378,0.08590338279802057,0.0,0.0,0.0,0.0,0.0,0.0,0.0,0.0,0.0,0.09312560813158038,0.033660912582872356,0.002454502523322889,0.0,0.0,0.0,0.0,0.0,0.0,0.0,0.0,0.0
11.078,318,11,78000000,base_footprint,-0.0038491374404638415,-0.00017731257948771836,0.999013904882446,-0.0442308778201491,0.0,0.0,0.0,0.0,0.0,0.0,0.0,0.0,0.0,-0.0005659409508875504,-0.00021329517199527147,0.08579252697621569,0.0,0.0,0.0,0.0,0.0,0.0,0.0,0.0,0.0,-0.0018884953436445954,0.018766483872703722,-0.00014216366352859942,0.0,0.0,0.0,0.0,0.0,0.0,0.0,0.0,0.0
11.112,319,11,112000000,base_footprint,-0.003849409007503999,-0.00018287324472897218,0.9989484397235521,-0.045685483269309664,0.0,0.0,0.0,0.0,0.0,0.0,0.0,0.0,0.0,-0.0005568086496984925,-0.00017228486233006557,0.0855741344294619,0.0,0.0,0.0,0.0,0.0,0.0,0.0,0.0,0.0,-0.001986327851193505,0.01875071631520422,-0.00019182260817288255,0.0,0.0,0.0,0.0,0.0,0.0,0.0,0.0,0.0
11.146,320,11,146000000,base_footprint,-0.003849970399702345,-0.00018841951785932343,0.9988809812900068,-0.04713732537087651,0.0,0.0,0.0,0.0,0.0,0.0,0.0,0.0,0.0,-0.000597977586674304,-0.00014467038372742552,0.08549117518226941,0.0,0.0,0.0,0.0,0.0,0.0,0.0,0.0,0.0,-0.002151448986882491,0.01866432924721817,-0.00018767856578723107,0.0,0.0,0.0,0.0,0.0,0.0,0.0,0.0,0.0
11.18,321,11,180000000,base_footprint,-0.003850780924224197,-0.0001937650286795641,0.9988142585294276,-0.0485305151394163,0.0,0.0,0.0,0.0,0.0,0.0,0.0,0.0,0.0,-0.000584987063993285,-0.0002600655178747279,0.07735301725918828,0.0,0.0,0.0,0.0,0.0,0.0,0.0,0.0,0.0,-0.0005988898955881139,0.018340597905445677,5.859593107192137e-05,0.0,0.0,0.0,0.0,0.0,0.0,0.0,0.0,0.0
11.214,322,11,214000000,base_footprint,-0.0038516812431224077,-0.00019900168778386954,0.9987498737703906,-0.04983788311674694,0.0,0.0,0.0,0.0,0.0,0.0,0.0,0.0,0.0,-0.0005204820420416996,-5.683172111442625e-05,0.07680964033160878,0.0,0.0,0.0,0.0,0.0,0.0,0.0,0.0,0.0,-0.003971229497037057,0.016338306757712657,-0.00031537182100700755,0.0,0.0,0.0,0.0,0.0,0.0,0.0,0.0,0.0
11.248,323,11,248000000,base_footprint,-0.0038531864949754827,-0.00020384997741156315,0.998683654710223,-0.05114752402270921,0.0,0.0,0.0,0.0,0.0,0.0,0.0,0.0,0.0,-0.0005414415027986798,-5.155332488820131e-05,0.07613514515421979,0.0,0.0,0.0,0.0,0.0,0.0,0.0,0.0,0.0,-0.006221815647506275,0.016135630284636663,-7.202001134278417e-05,0.0,0.0,0.0,0.0,0.0,0.0,0.0,0.0,0.0
11.282,324,11,282000000,base_footprint,-0.0038515857368312595,-0.0002102067171631539,0.9986215404029696,-0.05234634794948067,0.0,0.0,0.0,0.0,0.0,0.0,0.0,0.0,0.0,-0.0002457544718449504,0.00021498327448842133,0.06778892084830171,0.0,0.0,0.0,0.0,0.0,0.0,0.0,0.0,0.0,0.003416835590906316,0.016704548084524984,-0.0001265897151316599,0.0,0.0,0.0,0.0,0.0,0.0,0.0,0.0,0.0
11.316,325,11,316000000,base_footprint,-0.0038528566851664817,-0.00021628746175398903,0.998557840729541,-0.053547618365843284,0.0,0.0,0.0,0.0,0.0,0.0,0.0,0.0,0.0,-0.00049961835006681,-0.00018210956064271,0.07751848956206339,0.0,0.0,0.0,0.0,0.0,0.0,0.0,0.0,0.0,-0.03481043120522468,0.008715005951071723,0.00025492983235376603,0.0,0.0,0.0,0.0,0.0,0.0,0.0,0.0,0.0
11.351,326,11,350000000,base_footprint,-0.003844288323504135,-0.00021546314180356308,0.9984796488258904,-0.0549869612130662,0.0,0.0,0.0,0.0,0.0,0.0,0.0,0.0,0.0,3.9196447829691105e-06,-0.0003147884566882378,0.08172479200922407,0.0,0.0,0.0,0.0,0.0,0.0,0.0,0.0,0.0,-0.014466261097317044,0.015822930970943373,0.000826306634487983,0.0,0.0,0.0,0.0,0.0,0.0,0.0,0.0,0.0
11.384,327,11,384000000,base_footprint,-0.0038482804620496042,-0.00022415359964192975,0.9984116376790053,-0.05620802647110055,0.0,0.0,0.0,0.0,0.0,0.0,0.0,0.0,0.0,-0.00040477741193405413,-0.0005474153026776834,0.06983110731675363,0.0,0.0,0.0,0.0,0.0,0.0,0.0,0.0,0.0,0.027319753293444663,0.021718077495815117,-5.528130293012521e-05,0.0,0.0,0.0,0.0,0.0,0.0,0.0,0.0,0.0
