Time,header.seq,header.stamp.secs,header.stamp.nsecs,header.frame_id,orientation.x,orientation.y,orientation.z,orientation.w,orientation_covariance_0,orientation_covariance_1,orientation_covariance_2,orientation_covariance_3,orientation_covariance_4,orientation_covariance_5,orientation_covariance_6,orientation_covariance_7,orientation_covariance_8,angular_velocity.x,angular_velocity.y,angular_velocity.z,angular_velocity_covariance_0,angular_velocity_covariance_1,angular_velocity_covariance_2,angular_velocity_covariance_3,angular_velocity_covariance_4,angular_velocity_covariance_5,angular_velocity_covariance_6,angular_velocity_covariance_7,angular_velocity_covariance_8,linear_acceleration.x,linear_acceleration.y,linear_acceleration.z,linear_acceleration_covariance_0,linear_acceleration_covariance_1,linear_acceleration_covariance_2,linear_acceleration_covariance_3,linear_acceleration_covariance_4,linear_acceleration_covariance_5,linear_acceleration_covariance_6,linear_acceleration_covariance_7,linear_acceleration_covariance_8
0.10500000000000001,0,0,103000000,base_footprint,-7.291288667319148e-06,-0.0014850636194200938,-1.344643839986689e-06,0.9999988972649296,0.0,0.0,0.0,0.0,0.0,0.0,0.0,0.0,0.0,-9.447227292760371e-05,-0.16689789496491242,-7.627936272037039e-05,0.0,0.0,0.0,0.0,0.0,0.0,0.0,0.0,0.0,0.0034451042498238734,-1.2923051915664687e-05,-0.13168378048082202,0.0,0.0,0.0,0.0,0.0,0.0,0.0,0.0,0.0
0.137,1,0,137000000,base_footprint,-2.1378602586355435e-05,-0.0009079185315532509,-2.2073571352956576e-06,0.9999995876109266,0.0,0.0,0.0,0.0,0.0,0.0,0.0,0.0,0.0,-0.0004474816903721002,0.0476635214322558,-4.729203081844818e-05,0.0,0.0,0.0,0.0,0.0,0.0,0.0,0.0,0.0,-0.002092268329587123,-0.00011793359474177198,0.005136042987903735,0.0,0.0,0.0,0.0,0.0,0.0,0.0,0.0,0.0
0.171,2,0,171000000,base_footprint,-2.910443274918172e-05,-9.507285534478637e-05,-2.4602275915647347e-06,0.9999999950540158,0.0,0.0,0.0,0.0,0.0,0.0,0.0,0.0,0.0,-0.00044250068386553665,0.047639601134448206,-8.345708925510588e-06,0.0,0.0,0.0,0.0,0.0,0.0,0.0,0.0,0.0,-0.00019780446643281925,0.00010835166735116751,6.991013903815065e-05,0.0,0.0,0.0,0.0,0.0,0.0,0.0,0.0,0.0
0.20500000000000002,3,0,205000000,base_footprint,-4.0105628665978057e-05,0.0010100727697123421,-2.9183284671972046e-06,0.9999994890678805,0.0,0.0,0.0,0.0,0.0,0.0,0.0,0.0,0.0,-0.0006056642517580307,0.06780029040532726,-2.386461578883285e-05,0.0,0.0,0.0,0.0,0.0,0.0,0.0,0.0,0.0,-0.0011850412202057453,-2.7430659231420097e-05,0.002986276783151603,0.0,0.0,0.0,0.0,0.0,0.0,0.0,0.0,0.0
0.24000000000000002,4,0,239000000,base_footprint,-5.058575329040933e-05,0.0021644724037791488,-3.0047874081587103e-06,0.9999976562428865,0.0,0.0,0.0,0.0,0.0,0.0,0.0,0.0,0.0,-0.0006028663345012874,0.06772452652789679,-4.060212037949611e-06,0.0,0.0,0.0,0.0,0.0,0.0,0.0,0.0,0.0,-0.00023157283092847374,3.5997078281653574e-05,0.00015146244012765822,0.0,0.0,0.0,0.0,0.0,0.0,0.0,0.0,0.0
0.273,5,0,273000000,base_footprint,-6.104177177777759e-05,0.0033175768000469393,-2.8968899934043356e-06,0.9999944949596903,0.0,0.0,0.0,0.0,0.0,0.0,0.0,0.0,0.0,-0.0006023634473091875,0.0676484716793652,2.2631097760940214e-06,0.0,0.0,0.0,0.0,0.0,0.0,0.0,0.0,0.0,-0.00023204046032878402,9.682552263042178e-06,0.000152943527166946,0.0,0.0,0.0,0.0,0.0,0.0,0.0,0.0,0.0
0.307,6,0,307000000,base_footprint,-7.890464718894557e-06,0.0038525432655153523,-9.274763933771403e-06,0.9999925788535168,0.0,0.0,0.0,0.0,0.0,0.0,0.0,0.0,0.0,9.754643153237582e-05,-0.03962623636401016,-0.0005614695277757342,0.0,0.0,0.0,0.0,0.0,0.0,0.0,0.0,0.0,0.007797580490164988,0.00217860749275384,0.13149728382636214,0.0,0.0,0.0,0.0,0.0,0.0,0.0,0.0,0.0
0.342,7,0,341000000,base_footprint,-7.190383775851717e-06,0.0038609654631243952,-1.3974008920274789e-05,0.9999925463215804,0.0,0.0,0.0,0.0,0.0,0.0,0.0,0.0,0.0,2.2988528631727996e-05,0.00029996990279729745,0.00010228942701198772,0.0,0.0,0.0,0.0,0.0,0.0,0.0,0.0,0.0,-0.006122681238068565,-0.0019845577880640724,2.4244497672417418e-06,0.0,0.0,0.0,0.0,0.0,0.0,0.0,0.0,0.0
0.375,8,0,375000000,base_footprint,-7.318370437923973e-06,0.0038607099400362146,-1.0441727184190734e-05,0.9999925473503145,0.0,0.0,0.0,0.0,0.0,0.0,0.0,0.0,0.0,3.2413096912344445e-05,-0.00019773564619556094,0.00028868092245049254,0.0,0.0,0.0,0.0,0.0,0.0,0.0,0.0,0.0,-3.540470308142612e-05,0.0003644820960820639,0.0005154850322566071,0.0,0.0,0.0,0.0,0.0,0.0,0.0,0.0,0.0
0.40900000000000003,9,0,409000000,base_footprint,-7.374007847319779e-06,0.003860620853666293,-5.42592483610063e-06,0.9999925477336357,0.0,0.0,0.0,0.0,0.0,0.0,0.0,0.0,0.0,3.4460828268830995e-05,-0.00018061587004897242,0.000329406762051248,0.0,0.0,0.0,0.0,0.0,0.0,0.0,0.0,0.0,-1.2424933981471718e-05,7.998386984249302e-05,-2.3603631686245328e-05,0.0,0.0,0.0,0.0,0.0,0.0,0.0,0.0,0.0
0.443,10,0,443000000,base_footprint,-7.409394117130542e-06,0.00386059899171309,-3.6299878910589523e-08,0.9999925478324951,0.0,0.0,0.0,0.0,0.0,0.0,0.0,0.0,0.0,3.5142659152578504e-05,-0.00017901619115104177,0.0003399994291912151,0.0,0.0,0.0,0.0,0.0,0.0,0.0,0.0,0.0,-3.1205592457340257e-06,2.0844887195823472e-05,-2.973089453079552e-06,0.0,0.0,0.0,0.0,0.0,0.0,0.0,0.0,0.0
0.47700000000000004,11,0,477000000,base_footprint,-7.438238917162448e-06,0.003860593365367075,5.451087764929691e-06,0.9999925478391455,0.0,0.0,0.0,0.0,0.0,0.0,0.0,0.0,0.0,3.5352003833844195e-05,-0.00017854085896591492,0.0003428138248995889,0.0,0.0,0.0,0.0,0.0,0.0,0.0,0.0,0.0,-8.377704688450092e-07,5.534589164947611e-06,-8.370740051975308e-07,0.0,0.0,0.0,0.0,0.0,0.0,0.0,0.0,0.0
0.511,12,0,511000000,base_footprint,-7.464991535756628e-06,0.0038605920750913666,1.0964534835571275e-05,0.9999925477986737,0.0,0.0,0.0,0.0,0.0,0.0,0.0,0.0,0.0,3.5433111559642625e-05,-0.00017841513745657918,0.00034357143263746576,0.0,0.0,0.0,0.0,0.0,0.0,0.0,0.0,0.0,-2.3204958752405036e-07,1.4860505886130837e-06,-2.1631321540318265e-07,0.0,0.0,0.0,0.0,0.0,0.0,0.0,0.0,0.0
0.545,13,0,545000000,base_footprint,-7.490860495319856e-06,0.0038605919344057546,1.6485057400339523e-05,0.9999925477232549,0.0,0.0,0.0,0.0,0.0,0.0,0.0,0.0,0.0,3.547839547706686e-05,-0.00017838110478344605,0.0003437845070992103,0.0,0.0,0.0,0.0,0.0,0.0,0.0,0.0,0.0,-7.169178517198895e-08,4.1413839758983296e-07,-5.345249553191326e-08,0.0,0.0,0.0,0.0,0.0,0.0,0.0,0.0,0.0
0.5790000000000001,14,0,579000000,base_footprint,-7.516196488719101e-06,0.0038605921004506425,2.200762983400532e-05,0.9999925476161334,0.0,0.0,0.0,0.0,0.0,0.0,0.0,0.0,0.0,3.551246695539396e-05,-0.00017837137098449527,0.0003438534468213715,0.0,0.0,0.0,0.0,0.0,0.0,0.0,0.0,0.0,-2.9235600502912312e-08,1.3034832286272145e-07,-1.0799608362920468e-08,0.0,0.0,0.0,0.0,0.0,0.0,0.0,0.0,0.0
0.613,15,0,613000000,base_footprint,-7.541120192812936e-06,0.003860592349857392,2.753092166578236e-05,0.999992547478174,0.0,0.0,0.0,0.0,0.0,0.0,0.0,0.0,0.0,3.5542002425060843e-05,-0.000178368081316925,0.000343884245393055,0.0,0.0,0.0,0.0,0.0,0.0,0.0,0.0,0.0,-1.7995873585655382e-08,5.519515543999395e-08,6.11869288453144e-11,0.0,0.0,0.0,0.0,0.0,0.0,0.0,0.0,0.0
0.648,16,0,647000000,base_footprint,-7.5656888089027045e-06,0.003860592623290296,3.305458063192811e-05,0.9999925473096049,0.0,0.0,0.0,0.0,0.0,0.0,0.0,0.0,0.0,3.5568914659367915e-05,-0.00017836650869709295,0.00034390496069004365,0.0,0.0,0.0,0.0,0.0,0.0,0.0,0.0,0.0,-1.5021142471759048e-08,3.5275879620017935e-08,2.546211198876728e-09,0.0,0.0,0.0,0.0,0.0,0.0,0.0,0.0,0.0
0.681,17,0,681000000,base_footprint,-7.589940389228432e-06,0.0038605929048550563,3.8578513427398946e-05,0.9999925471104845,0.0,0.0,0.0,0.0,0.0,0.0,0.0,0.0,0.0,3.5593842297595356e-05,-0.00017836540043565573,0.0003439230187073011,0.0,0.0,0.0,0.0,0.0,0.0,0.0,0.0,0.0,-1.423459467558182e-08,2.997986230626124e-08,2.850000214840817e-09,0.0,0.0,0.0,0.0,0.0,0.0,0.0,0.0,0.0
0.7180000000000001,18,0,715000000,base_footprint,-7.613905788762886e-06,0.003860593190173941,4.4102695308563335e-05,0.999992546880826,0.0,0.0,0.0,0.0,0.0,0.0,0.0,0.0,0.0,3.561707428511482e-05,-0.0001783644242257151,0.00034394038445686954,0.0,0.0,0.0,0.0,0.0,0.0,0.0,0.0,0.0,-1.4027486243967219e-08,2.855759558059936e-08,2.6098071403213586e-09,0.0,0.0,0.0,0.0,0.0,0.0,0.0,0.0,0.0
0.749,19,0,749000000,base_footprint,-7.637612026835917e-06,0.0038605934779329964,4.962711968605204e-05,0.9999925466206305,0.0,0.0,0.0,0.0,0.0,0.0,0.0,0.0,0.0,3.5638795704767063e-05,-0.00017836349127934884,0.0003439575774421936,0.0,0.0,0.0,0.0,0.0,0.0,0.0,0.0,0.0,-1.3973903628737903e-08,2.8163324646937407e-08,2.254856330079788e-09,0.0,0.0,0.0,0.0,0.0,0.0,0.0,0.0,0.0
0.783,20,0,783000000,base_footprint,-7.661083355857025e-06,0.003860593767644689,5.515178477908617e-05,0.9999925463298963,0.0,0.0,0.0,0.0,0.0,0.0,0.0,0.0,0.0,3.565915436386624e-05,-0.00017836257716928656,0.00034397473370023244,0.0,0.0,0.0,0.0,0.0,0.0,0.0,0.0,0.0,-1.3960821364075818e-08,2.804178070207254e-08,1.8969359075929103e-09,0.0,0.0,0.0,0.0,0.0,0.0,0.0,0.0,0.0
0.8170000000000001,21,0,817000000,base_footprint,-7.684341707754509e-06,0.0038605940590527837,6.067669008371181e-05,0.9999925460086198,0.0,0.0,0.0,0.0,0.0,0.0,0.0,0.0,0.0,3.567827866871537e-05,-0.0001783616748083812,0.00034399188853974843,0.0,0.0,0.0,0.0,0.0,0.0,0.0,0.0,0.0,-1.3958512290278864e-08,2.7994228317531938e-08,1.562263314437931e-09,0.0,0.0,0.0,0.0,0.0,0.0,0.0,0.0,0.0
0.8510000000000001,22,0,851000000,base_footprint,-7.707406958987093e-06,0.0038605943519736123,6.6201835436817e-05,0.9999925456567976,0.0,0.0,0.0,0.0,0.0,0.0,0.0,0.0,0.0,3.56962839480165e-05,-0.00017836078175835902,0.00034400905072575524,0.0,0.0,0.0,0.0,0.0,0.0,0.0,0.0,0.0,-1.3959109666477367e-08,2.796801728028882e-08,1.25650518749546e-09,0.0,0.0,0.0,0.0,0.0,0.0,0.0,0.0,0.0
0.885,23,0,885000000,base_footprint,-7.730297135095017e-06,0.003860594646253142,7.172722077159899e-05,0.9999925452744265,0.0,0.0,0.0,0.0,0.0,0.0,0.0,0.0,0.0,3.571327423413005e-05,-0.00017835989671549792,0.0003440262225043616,0.0,0.0,0.0,0.0,0.0,0.0,0.0,0.0,0.0,-1.3960671734511398e-08,2.7949908109162846e-08,9.783945125930549e-10,0.0,0.0,0.0,0.0,0.0,0.0,0.0,0.0,0.0
0.916,24,0,919000000,base_footprint,-7.753028585425243e-06,0.0038605949417561294,7.7252846052756e-05,0.9999925448615026,0.0,0.0,0.0,0.0,0.0,0.0,0.0,0.0,0.0,3.572934391071645e-05,-0.00017835901892399424,0.00034404340294694115,0.0,0.0,0.0,0.0,0.0,0.0,0.0,0.0,0.0,-1.396222925613471e-08,2.7933349744858296e-08,7.258244683797139e-10,0.0,0.0,0.0,0.0,0.0,0.0,0.0,0.0,0.0
0.9540000000000001,25,0,953000000,base_footprint,-7.775616140396862e-06,0.003860595238359974,8.277871124777502e-05,0.9999925444180224,0.0,0.0,0.0,0.0,0.0,0.0,0.0,0.0,0.0,3.5744578601684335e-05,-0.00017835814763281238,0.00034406059178182866,0.0,0.0,0.0,0.0,0.0,0.0,0.0,0.0,0.0,-1.3963954521417705e-08,2.791929705205322e-08,4.966933350135167e-10,0.0,0.0,0.0,0.0,0.0,0.0,0.0,0.0,0.0
0.9870000000000001,26,0,987000000,base_footprint,-7.798073252851229e-06,0.0038605955359537806,8.830481633401556e-05,0.9999925439439824,0.0,0.0,0.0,0.0,0.0,0.0,0.0,0.0,0.0,3.575905573045744e-05,-0.00017835728227155235,0.0003440777880088916,0.0,0.0,0.0,0.0,0.0,0.0,0.0,0.0,0.0,-1.3965603385218327e-08,2.7906046792470466e-08,2.889112265060929e-10,0.0,0.0,0.0,0.0,0.0,0.0,0.0,0.0,0.0
1.021,27,1,21000000,base_footprint,-7.820412125962512e-06,0.0038605958344365755,9.383116129217335e-05,0.9999925434393787,0.0,0.0,0.0,0.0,0.0,0.0,0.0,0.0,0.0,3.5772845887057836e-05,-0.000178356422043123,0.00034409499157213037,0.0,0.0,0.0,0.0,0.0,0.0,0.0,0.0,0.0,-1.3967449158766477e-08,2.7895185614752196e-08,1.0000531201147442e-10,0.0,0.0,0.0,0.0,0.0,0.0,0.0,0.0,0.0
1.055,28,1,55000000,base_footprint,-7.842643829152535e-06,0.0038605961337177903,9.935774610563816e-05,0.9999925429042077,0.0,0.0,0.0,0.0,0.0,0.0,0.0,0.0,0.0,3.578601287999941e-05,-0.00017835556674868495,0.00034411220155255637,0.0,0.0,0.0,0.0,0.0,0.0,0.0,0.0,0.0,-1.3969195029184729e-08,2.7884793881307128e-08,-7.090061695284985e-11,0.0,0.0,0.0,0.0,0.0,0.0,0.0,0.0,0.0
1.089,29,1,89000000,base_footprint,-7.864778403696807e-06,0.003860596433714031,0.00010488457076020828,0.9999925423384658,0.0,0.0,0.0,0.0,0.0,0.0,0.0,0.0,0.0,3.579861448272868e-05,-0.00017835471585678496,0.0003441294176407731,0.0,0.0,0.0,0.0,0.0,0.0,0.0,0.0,0.0,-1.3971018076299579e-08,2.787584931535567e-08,-2.2615063497354348e-10,0.0,0.0,0.0,0.0,0.0,0.0,0.0,0.0,0.0
1.123,30,1,123000000,base_footprint,-7.886824957875553e-06,0.0038605967343503847,0.00011041163524551983,0.9999925417421491,0.0,0.0,0.0,0.0,0.0,0.0,0.0,0.0,0.0,3.581070336332541e-05,-0.00017835386887445637,0.000344146639070549,0.0,0.0,0.0,0.0,0.0,0.0,0.0,0.0,0.0,-1.3972769267276182e-08,2.7867280292476156e-08,-3.6704665988509836e-10,0.0,0.0,0.0,0.0,0.0,0.0,0.0,0.0,0.0
1.158,31,1,157000000,base_footprint,-7.90879175405864e-06,0.003860597035558045,0.0001159389395544625,0.9999925411152538,0.0,0.0,0.0,0.0,0.0,0.0,0.0,0.0,0.0,3.5822327167018896e-05,-0.00017835302548653583,0.00034416386615462977,0.0,0.0,0.0,0.0,0.0,0.0,0.0,0.0,0.0,-1.3974745518574228e-08,2.786100761813096e-08,-4.94834312109959e-10,0.0,0.0,0.0,0.0,0.0,0.0,0.0,0.0,0.0
1.191,32,1,191000000,base_footprint,-7.930686286820386e-06,0.0038605973372760056,0.00012146648367739889,0.9999925404577761,0.0,0.0,0.0,0.0,0.0,0.0,0.0,0.0,0.0,3.583352909604718e-05,-0.00017835218528369085,0.00034418109717857795,0.0,0.0,0.0,0.0,0.0,0.0,0.0,0.0,0.0,-1.3976344643199775e-08,2.7852926841123775e-08,-6.107708543026008e-10,0.0,0.0,0.0,0.0,0.0,0.0,0.0,0.0,0.0
1.225,33,1,225000000,base_footprint,-7.952515355057973e-06,0.0038605976394468435,0.00012699426761039187,0.9999925397697125,0.0,0.0,0.0,0.0,0.0,0.0,0.0,0.0,0.0,3.5844348429818124e-05,-0.00017835134794342701,0.00034419833318558853,0.0,0.0,0.0,0.0,0.0,0.0,0.0,0.0,0.0,-1.397836153394935e-08,2.7848272012831877e-08,-7.160658834053324e-10,0.0,0.0,0.0,0.0,0.0,0.0,0.0,0.0,0.0
1.259,34,1,259000000,base_footprint,-7.974285125775246e-06,0.00386059794202042,0.00013252229135177963,0.9999925390510588,0.0,0.0,0.0,0.0,0.0,0.0,0.0,0.0,0.0,3.585482067175942e-05,-0.00017835051334299078,0.00034421557331317594,0.0,0.0,0.0,0.0,0.0,0.0,0.0,0.0,0.0,-1.398022159205624e-08,2.7843192823612647e-08,-8.114481251379587e-10,0.0,0.0,0.0,0.0,0.0,0.0,0.0,0.0,0.0
1.2930000000000001,35,1,293000000,base_footprint,-7.996001192991738e-06,0.0038605982449498584,0.0001380505548992271,0.9999925383018112,0.0,0.0,0.0,0.0,0.0,0.0,0.0,0.0,0.0,3.586497809171296e-05,-0.0001783496811013477,0.0003442328168844803,0.0,0.0,0.0,0.0,0.0,0.0,0.0,0.0,0.0,-1.3981976245852418e-08,2.783794600771893e-08,-8.979228535433625e-10,0.0,0.0,0.0,0.0,0.0,0.0,0.0,0.0,0.0
1.329,36,1,327000000,base_footprint,-8.017668631261362e-06,0.003860598548193248,0.00014357905825166124,0.999992537521966,0.0,0.0,0.0,0.0,0.0,0.0,0.0,0.0,0.0,3.587484998777645e-05,-0.0001783488509726222,0.00034425006420856185,0.0,0.0,0.0,0.0,0.0,0.0,0.0,0.0,0.0,-1.3983910285923203e-08,2.7834329200008158e-08,-9.767172005951201e-10,0.0,0.0,0.0,0.0,0.0,0.0,0.0,0.0,0.0
1.361,37,1,361000000,base_footprint,-8.039292043839424e-06,0.003860598851712454,0.00014910780141089668,0.9999925367115194,0.0,0.0,0.0,0.0,0.0,0.0,0.0,0.0,0.0,3.588446293061281e-05,-0.00017834802276661162,0.0003442673148020523,0.0,0.0,0.0,0.0,0.0,0.0,0.0,0.0,0.0,-1.3985773151842141e-08,2.783072234310275e-08,-1.0479602028121749e-09,0.0,0.0,0.0,0.0,0.0,0.0,0.0,0.0,0.0
1.395,38,1,395000000,base_footprint,-8.060875606051504e-06,0.0038605991554727204,0.00015463678437894308,0.9999925358704674,0.0,0.0,0.0,0.0,0.0,0.0,0.0,0.0,0.0,3.58938410035949e-05,-0.00017834719626714436,0.00034428456846688634,0.0,0.0,0.0,0.0,0.0,0.0,0.0,0.0,0.0,-1.3987648098702995e-08,2.7827580250727342e-08,-1.1126588982518237e-09,0.0,0.0,0.0,0.0,0.0,0.0,0.0,0.0,0.0
1.429,39,1,429000000,base_footprint,-8.08242310576415e-06,0.003860599459442466,0.00016016600715717071,0.9999925349988061,0.0,0.0,0.0,0.0,0.0,0.0,0.0,0.0,0.0,3.5903005964518e-05,-0.00017834637140861625,0.0003443018250290016,0.0,0.0,0.0,0.0,0.0,0.0,0.0,0.0,0.0,-1.3989529059371908e-08,2.7824872312529652e-08,-1.1712432201789535e-09,0.0,0.0,0.0,0.0,0.0,0.0,0.0,0.0,0.0
1.466,40,1,463000000,base_footprint,-8.103937978404696e-06,0.0038605997635935436,0.00016569546975582028,0.9999925340965315,0.0,0.0,0.0,0.0,0.0,0.0,0.0,0.0,0.0,3.591197774321817e-05,-0.00017834554783404777,0.00034431908445533996,0.0,0.0,0.0,0.0,0.0,0.0,0.0,0.0,0.0,-1.3991466734346072e-08,2.782280179125463e-08,-1.224815294385001e-09,0.0,0.0,0.0,0.0,0.0,0.0,0.0,0.0,0.0
1.498,41,1,497000000,base_footprint,-8.125423340820516e-06,0.0038606000678995315,0.0001712251721759769,0.99999253316364,0.0,0.0,0.0,0.0,0.0,0.0,0.0,0.0,0.0,3.592077428753483e-05,-0.0001783447255279572,0.0003443363461464086,0.0,0.0,0.0,0.0,0.0,0.0,0.0,0.0,0.0,-1.399327182262994e-08,2.7820204238109285e-08,-1.272990219164486e-09,0.0,0.0,0.0,0.0,0.0,0.0,0.0,0.0,0.0
1.5310000000000001,42,1,531000000,base_footprint,-8.146882020314136e-06,0.0038606003723370766,0.0001767551144232596,0.9999925322001275,0.0,0.0,0.0,0.0,0.0,0.0,0.0,0.0,0.0,3.592941183247388e-05,-0.000178343904374453,0.00034435361052486286,0.0,0.0,0.0,0.0,0.0,0.0,0.0,0.0,0.0,-1.3995249082036379e-08,2.781900253001758e-08,-1.317014512182372e-09,0.0,0.0,0.0,0.0,0.0,0.0,0.0,0.0,0.0
1.565,43,1,565000000,base_footprint,-8.168316581113289e-06,0.0038606006768845836,0.0001822852965027367,0.9999925312059901,0.0,0.0,0.0,0.0,0.0,0.0,0.0,0.0,0.0,3.593790527204965e-05,-0.00017834308413545416,0.0003443708766372486,0.0,0.0,0.0,0.0,0.0,0.0,0.0,0.0,0.0,-1.3996989737925853e-08,2.7816480163670466e-08,-1.3568857480572523e-09,0.0,0.0,0.0,0.0,0.0,0.0,0.0,0.0,0.0
1.5990000000000002,44,1,599000000,base_footprint,-8.189729349723332e-06,0.0038606009815230417,0.00018781571842229518,0.9999925301812238,0.0,0.0,0.0,0.0,0.0,0.0,0.0,0.0,0.0,3.594626800853493e-05,-0.0001783422647365263,0.0003443881454630778,0.0,0.0,0.0,0.0,0.0,0.0,0.0,0.0,0.0,-1.3999055847662436e-08,2.7816331659557033e-08,-1.392996398715222e-09,0.0,0.0,0.0,0.0,0.0,0.0,0.0,0.0,0.0
1.634,45,1,633000000,base_footprint,-8.00869387829027e-06,0.0038554387393760054,0.0001960675427454193,0.999992548514991,0.0,0.0,0.0,0.0,0.0,0.0,0.0,0.0,0.0,4.155977096318443e-05,-0.00011004474442786918,0.0004225115665763086,0.0,0.0,0.0,0.0,0.0,0.0,0.0,0.0,0.0,0.7378946099250839,0.00043812870284783194,-0.005774611566698055,0.0,0.0,0.0,0.0,0.0,0.0,0.0,0.0,0.0
1.667,46,1,667000000,base_footprint,-8.092978329564912e-06,0.003855981237916893,0.00020527235827669428,0.9999925445754362,0.0,0.0,0.0,0.0,0.0,0.0,0.0,0.0,0.0,4.107838379581769e-05,-0.00012029184452026292,0.0006295340051313483,0.0,0.0,0.0,0.0,0.0,0.0,0.0,0.0,0.0,0.7863434200373624,0.0007245184805379362,-0.006067103210138687,0.0,0.0,0.0,0.0,0.0,0.0,0.0,0.0,0.0
1.701,47,1,701000000,base_footprint,-8.213574026854327e-06,0.0038567549865077093,0.0002170622879376813,0.9999925391009047,0.0,0.0,0.0,0.0,0.0,0.0,0.0,0.0,0.0,4.100049786875853e-05,-0.0001252366233446813,0.0007981318318392421,0.0,0.0,0.0,0.0,0.0,0.0,0.0,0.0,0.0,0.7849633936655328,0.0006679122320335774,-0.006058986959851556,0.0,0.0,0.0,0.0,0.0,0.0,0.0,0.0,0.0
1.7360000000000002,48,1,735000000,base_footprint,-8.406692577772495e-06,0.0038558667604274128,0.0002313553460468684,0.9999925393199478,0.0,0.0,0.0,0.0,0.0,0.0,0.0,0.0,0.0,-2.9335774237490596e-05,-0.0041540167550814765,0.0008701653642336966,0.0,0.0,0.0,0.0,0.0,0.0,0.0,0.0,0.0,0.7752623091516031,0.00049511969801676,-0.0030787168373787245,0.0,0.0,0.0,0.0,0.0,0.0,0.0,0.0,0.0
1.766,49,1,769000000,base_footprint,-8.6141401595515e-06,0.003856477954741826,0.0002478024038645823,0.9999925330208971,0.0,0.0,0.0,0.0,0.0,0.0,0.0,0.0,0.0,5.359145285538773e-06,-0.002099593443600141,0.0008968514023407014,0.0,0.0,0.0,0.0,0.0,0.0,0.0,0.0,0.0,0.7347367438261373,0.0004174805555648142,-0.00569520156546676,0.0,0.0,0.0,0.0,0.0,0.0,0.0,0.0,0.0
1.802,50,1,803000000,base_footprint,-8.797611719340542e-06,0.003859974881127148,0.0002656847973946696,0.9999925149360408,0.0,0.0,0.0,0.0,0.0,0.0,0.0,0.0,0.0,2.3163768737944976e-05,-0.0011787101139311698,0.0010676709756633604,0.0,0.0,0.0,0.0,0.0,0.0,0.0,0.0,0.0,0.666330863250431,0.0006861793413570065,-0.006477680806602896,0.0,0.0,0.0,0.0,0.0,0.0,0.0,0.0,0.0
1.839,51,1,837000000,base_footprint,-8.974306212915937e-06,0.0038640321062193977,0.0002849524476286491,0.999992493960553,0.0,0.0,0.0,0.0,0.0,0.0,0.0,0.0,0.0,4.220980542030058e-05,-6.128203394413662e-05,0.0012480331179496999,0.0,0.0,0.0,0.0,0.0,0.0,0.0,0.0,0.0,0.5494097082924319,0.0006638516093389898,-0.005863279436167903,0.0,0.0,0.0,0.0,0.0,0.0,0.0,0.0,0.0
1.871,52,1,871000000,base_footprint,-9.162306955749225e-06,0.00386643445635419,0.0003069317023227016,0.9999924781684996,0.0,0.0,0.0,0.0,0.0,0.0,0.0,0.0,0.0,4.3761347959871565e-05,-6.465709343599339e-05,0.0013315431205515918,0.0,0.0,0.0,0.0,0.0,0.0,0.0,0.0,0.0,0.3900868185592531,0.0004013419020356941,-0.002995561745572252,0.0,0.0,0.0,0.0,0.0,0.0,0.0,0.0,0.0
1.905,53,1,905000000,base_footprint,-9.13279435451256e-06,0.003866872889707825,0.0003054024852514408,0.9999924769416862,0.0,0.0,0.0,0.0,0.0,0.0,0.0,0.0,0.0,9.318196065676828e-06,-0.0007880430686914141,-0.0012338482542244165,0.0,0.0,0.0,0.0,0.0,0.0,0.0,0.0,0.0,0.19896975418351973,-0.004853892430791688,-0.0005127518570404908,0.0,0.0,0.0,0.0,0.0,0.0,0.0,0.0,0.0
1.939,54,1,939000000,base_footprint,-7.973119217051614e-06,0.0038605915722509467,0.00025464346117111246,0.9999925154349154,0.0,0.0,0.0,0.0,0.0,0.0,0.0,0.0,0.0,0.0006369950599428119,0.0003642125057446343,-0.0028929244557127504,0.0,0.0,0.0,0.0,0.0,0.0,0.0,0.0,0.0,-0.004618344624418542,-0.003188570636486202,-0.0023897976507089983,0.0,0.0,0.0,0.0,0.0,0.0,0.0,0.0,0.0
1.976,55,1,973000000,base_footprint,-5.677019799342476e-06,0.0038485579931527136,0.0003162198490859023,0.999992544259282,0.0,0.0,0.0,0.0,0.0,0.0,0.0,0.0,0.0,4.4888892324654774e-05,0.0003211321957697562,0.00573255943834416,0.0,0.0,0.0,0.0,0.0,0.0,0.0,0.0,0.0,0.07193361791739779,0.016744974005782946,-0.0004016289991284698,0.0,0.0,0.0,0.0,0.0,0.0,0.0,0.0,0.0
2.017,56,2,7000000,base_footprint,-8.761554215354229e-06,0.0038771742047723217,0.0003681871988888837,0.9999924159120447,0.0,0.0,0.0,0.0,0.0,0.0,0.0,0.0,0.0,-0.0013544064030188395,0.0034753398721240427,0.001370605030895904,0.0,0.0,0.0,0.0,0.0,0.0,0.0,0.0,0.0,0.09918585799296467,-0.004231301507178051,-0.0036131311690390045,0.0,0.0,0.0,0.0,0.0,0.0,0.0,0.0,0.0
2.041,57,2,41000000,base_footprint,-8.930568737071568e-06,0.003870206805891263,0.0003955754267225582,0.9999924324411693,0.0,0.0,0.0,0.0,0.0,0.0,0.0,0.0,0.0,-3.335735676746063e-05,-0.00034208252653338927,0.002112557792370423,0.0,0.0,0.0,0.0,0.0,0.0,0.0,0.0,0.0,-0.021770068304370064,-0.0027307167174267953,0.004470724280926378,0.0,0.0,0.0,0.0,0.0,0.0,0.0,0.0,0.0
2.075,58,2,75000000,base_footprint,-9.883154064851046e-06,0.003867353787594494,0.00042535573443101056,0.999992431246109,0.0,0.0,0.0,0.0,0.0,0.0,0.0,0.0,0.0,-0.00010913590148748227,-0.000313176249154569,0.001746196206029999,0.0,0.0,0.0,0.0,0.0,0.0,0.0,0.0,0.0,0.0052233467533822344,0.0016287061459591033,-3.767958109154553e-05,0.0,0.0,0.0,0.0,0.0,0.0,0.0,0.0,0.0
2.11,59,2,109000000,base_footprint,-8.589216910122122e-06,0.003851985652827451,0.00046031609711455094,0.9999924750926111,0.0,0.0,0.0,0.0,0.0,0.0,0.0,0.0,0.0,0.0001231682254021699,0.0016430911285805793,0.0034834312928634535,0.0,0.0,0.0,0.0,0.0,0.0,0.0,0.0,0.0,0.1520114404517114,0.0011755838660114806,-0.0029100572581726132,0.0,0.0,0.0,0.0,0.0,0.0,0.0,0.0,0.0
2.143,60,2,143000000,base_footprint,-9.512861940608633e-06,0.0038635482269760413,0.0005155756418783076,0.9999924035143273,0.0,0.0,0.0,0.0,0.0,0.0,0.0,0.0,0.0,3.130084142481239e-05,-0.0014709028030962532,0.0009260923383906005,0.0,0.0,0.0,0.0,0.0,0.0,0.0,0.0,0.0,0.5440032330036254,0.001969120087891082,-0.0008366073456721068,0.0,0.0,0.0,0.0,0.0,0.0,0.0,0.0,0.0
2.177,61,2,177000000,base_footprint,-9.419769301302419e-06,0.0038603381291837033,0.000528512929096397,0.9999924091586296,0.0,0.0,0.0,0.0,0.0,0.0,0.0,0.0,0.0,6.178753127902075e-05,-0.00018759802888888928,0.0005079424915847142,0.0,0.0,0.0,0.0,0.0,0.0,0.0,0.0,0.0,0.0017702169634586163,-0.0005952144047258741,-0.0016985251768030466,0.0,0.0,0.0,0.0,0.0,0.0,0.0,0.0,0.0
2.211,62,2,211000000,base_footprint,-9.681865779954538e-06,0.0038661256550184377,0.0005380636451385333,0.9999923817040782,0.0,0.0,0.0,0.0,0.0,0.0,0.0,0.0,0.0,-0.0004700348841263102,-0.001719036818534452,-0.0005338484385013563,0.0,0.0,0.0,0.0,0.0,0.0,0.0,0.0,0.0,-0.2688361808083241,0.001688331746860356,0.0025085735706952316,0.0,0.0,0.0,0.0,0.0,0.0,0.0,0.0,0.0
2.245,63,2,245000000,base_footprint,-9.751185263184783e-06,0.0038636916677541487,0.0005179983299599377,0.9999924017058036,0.0,0.0,0.0,0.0,0.0,0.0,0.0,0.0,0.0,5.5768459082433546e-05,-0.000210802979423075,-0.00028639258816579624,0.0,0.0,0.0,0.0,0.0,0.0,0.0,0.0,0.0,-0.06069434488900166,-0.002767843127862141,-8.936765286230037e-05,0.0,0.0,0.0,0.0,0.0,0.0,0.0,0.0,0.0
2.279,64,2,279000000,base_footprint,-1.016441981933492e-05,0.0038674893948202256,0.0005095788207238887,0.9999923913469998,0.0,0.0,0.0,0.0,0.0,0.0,0.0,0.0,0.0,4.500416128176711e-06,8.933611842817955e-05,-0.0006970353367186792,0.0,0.0,0.0,0.0,0.0,0.0,0.0,0.0,0.0,0.005321339741921346,-0.00023618653589122085,-0.0005341414924942331,0.0,0.0,0.0,0.0,0.0,0.0,0.0,0.0,0.0
2.313,65,2,313000000,base_footprint,-9.827819481152591e-06,0.0038617866709312353,0.0005205484186176853,0.9999924077394119,0.0,0.0,0.0,0.0,0.0,0.0,0.0,0.0,0.0,4.450193548045556e-05,0.00015335724628787992,0.0045086462090338664,0.0,0.0,0.0,0.0,0.0,0.0,0.0,0.0,0.0,0.2039515701643887,0.0023557558865399614,-0.0011313963556393814,0.0,0.0,0.0,0.0,0.0,0.0,0.0,0.0,0.0
2.347,66,2,347000000,base_footprint,-9.835501922655475e-06,0.0038742685534849885,0.0005203620195191957,0.9999923595557153,0.0,0.0,0.0,0.0,0.0,0.0,0.0,0.0,0.0,0.00013325174455439503,0.0001162128478313796,-7.610327377837122e-05,0.0,0.0,0.0,0.0,0.0,0.0,0.0,0.0,0.0,0.13921564711408274,-0.002667904666220962,-0.0016862098270871602,0.0,0.0,0.0,0.0,0.0,0.0,0.0,0.0,0.0
2.3810000000000002,67,2,381000000,base_footprint,-8.80570216240125e-06,0.0038759478258123107,0.0005241628137621123,0.999992351072875,0.0,0.0,0.0,0.0,0.0,0.0,0.0,0.0,0.0,0.0001226690632230454,-0.00023224446870572025,0.0008881210396151746,0.0,0.0,0.0,0.0,0.0,0.0,0.0,0.0,0.0,-0.00751446909204002,-0.002863357539959428,0.0006289009747537454,0.0,0.0,0.0,0.0,0.0,0.0,0.0,0.0,0.0
2.415,68,2,415000000,base_footprint,-8.353928437512792e-06,0.0038694458944847666,0.0005590208886596838,0.9999923573779589,0.0,0.0,0.0,0.0,0.0,0.0,0.0,0.0,0.0,0.00014043079332319932,0.0017203010694791824,0.003809933631600767,0.0,0.0,0.0,0.0,0.0,0.0,0.0,0.0,0.0,-0.05335843654709596,0.00426706711981016,-0.003939703838692971,0.0,0.0,0.0,0.0,0.0,0.0,0.0,0.0,0.0
2.449,69,2,449000000,base_footprint,-1.0704317035516803e-05,0.003866324468272928,0.0006064276800966454,0.9999923418036722,0.0,0.0,0.0,0.0,0.0,0.0,0.0,0.0,0.0,0.00013499894183166547,0.0008194782317589174,0.006254826172840498,0.0,0.0,0.0,0.0,0.0,0.0,0.0,0.0,0.0,-0.11805125850576904,0.004596967263088637,0.004489401019906671,0.0,0.0,0.0,0.0,0.0,0.0,0.0,0.0,0.0
2.484,70,2,483000000,base_footprint,-1.113784872635614e-05,0.0038696627208925595,0.0007122735909092859,0.9999922590963926,0.0,0.0,0.0,0.0,0.0,0.0,0.0,0.0,0.0,0.0003831476224516354,0.001288429435536219,0.002324072177812205,0.0,0.0,0.0,0.0,0.0,0.0,0.0,0.0,0.0,-0.23110683581632793,-0.007949993316406527,-0.0007368380135676948,0.0,0.0,0.0,0.0,0.0,0.0,0.0,0.0,0.0
2.517,71,2,517000000,base_footprint,-1.1184460243473407e-05,0.0038735139658291613,0.0007557404371125357,0.9999922122801038,0.0,0.0,0.0,0.0,0.0,0.0,0.0,0.0,0.0,0.00032077264841302616,0.0012827588655615469,0.005585066674097509,0.0,0.0,0.0,0.0,0.0,0.0,0.0,0.0,0.0,-0.23991651638325454,0.005959187186952324,0.004005283395160011,0.0,0.0,0.0,0.0,0.0,0.0,0.0,0.0,0.0
2.551,72,2,551000000,base_footprint,-1.1507880482829789e-05,0.0038687923655038297,0.0007749494592969327,0.999992215852972,0.0,0.0,0.0,0.0,0.0,0.0,0.0,0.0,0.0,-2.610169000437997e-07,-2.24126718331952e-06,0.0016234937239625075,0.0,0.0,0.0,0.0,0.0,0.0,0.0,0.0,0.0,-0.06882210443775584,-0.0005419511546504639,0.0013679463595561118,0.0,0.0,0.0,0.0,0.0,0.0,0.0,0.0,0.0
2.585,73,2,585000000,base_footprint,-1.2066967932682352e-05,0.0038654385420356964,0.0008019066020695003,0.9999922075621729,0.0,0.0,0.0,0.0,0.0,0.0,0.0,0.0,0.0,9.63079386359764e-05,-0.000393620533862606,0.0015161343454254638,0.0,0.0,0.0,0.0,0.0,0.0,0.0,0.0,0.0,0.004366927589143331,-0.0005309592326489321,0.0008954544905784044,0.0,0.0,0.0,0.0,0.0,0.0,0.0,0.0,0.0
2.6189999999999998,74,2,619000000,base_footprint,-1.1314684646005405e-05,0.003871038112581972,0.000841373334902205,0.9999921534826262,0.0,0.0,0.0,0.0,0.0,0.0,0.0,0.0,0.0,0.00023097979151200082,0.0016677998942080602,0.004689895442505847,0.0,0.0,0.0,0.0,0.0,0.0,0.0,0.0,0.0,-0.4921407501066566,-0.0015918361792606455,0.0014505018795430247,0.0,0.0,0.0,0.0,0.0,0.0,0.0,0.0,0.0
2.653,75,2,653000000,base_footprint,-1.1283010477704911e-05,0.0038610496963353436,0.0008468517794059298,0.9999921874744823,0.0,0.0,0.0,0.0,0.0,0.0,0.0,0.0,0.0,5.573064975235473e-05,-0.00023524386378537339,0.0008285081249830622,0.0,0.0,0.0,0.0,0.0,0.0,0.0,0.0,0.0,-0.1792790658899176,0.00014000396617333424,0.0034372476219626615,0.0,0.0,0.0,0.0,0.0,0.0,0.0,0.0,0.0
2.688,76,2,687000000,base_footprint,-1.1140540983674678e-05,0.0038603655695598066,0.0008581736139204522,0.9999921804652306,0.0,0.0,0.0,0.0,0.0,0.0,0.0,0.0,0.0,6.0478330754751136e-05,-0.00019195503177681965,0.0004786279358274223,0.0,0.0,0.0,0.0,0.0,0.0,0.0,0.0,0.0,0.004546248434927427,-2.198220155756801e-05,-0.00012131815169108121,0.0,0.0,0.0,0.0,0.0,0.0,0.0,0.0,0.0
2.72,77,2,721000000,base_footprint,-1.101215616535439e-05,0.00385610955760352,0.0009118437501585512,0.9999921493885778,0.0,0.0,0.0,0.0,0.0,0.0,0.0,0.0,0.0,7.093544161456886e-05,0.0004854462402965979,0.006280262928752217,0.0,0.0,0.0,0.0,0.0,0.0,0.0,0.0,0.0,0.4617388661160549,0.0035026151647553285,-0.004504448217792747,0.0,0.0,0.0,0.0,0.0,0.0,0.0,0.0,0.0
2.7560000000000002,78,2,755000000,base_footprint,-1.1559964757689106e-05,0.0038582097387426105,0.0010173431221770675,0.9999920395167908,0.0,0.0,0.0,0.0,0.0,0.0,0.0,0.0,0.0,8.227795141220848e-05,-2.9033833860433154e-07,0.007011312455562497,0.0,0.0,0.0,0.0,0.0,0.0,0.0,0.0,0.0,0.7733384601391604,0.002992155085184514,-0.0053127313199320255,0.0,0.0,0.0,0.0,0.0,0.0,0.0,0.0,0.0
2.789,79,2,789000000,base_footprint,-1.2477628058249315e-05,0.0038674008302024524,0.0010295997236405632,0.9999919914577,0.0,0.0,0.0,0.0,0.0,0.0,0.0,0.0,0.0,1.6460510784228964e-05,6.524368642605958e-06,-0.0006754567124276468,0.0,0.0,0.0,0.0,0.0,0.0,0.0,0.0,0.0,0.14332379998901504,-5.5875568620423306e-06,-0.001320581087435116,0.0,0.0,0.0,0.0,0.0,0.0,0.0,0.0,0.0
2.823,80,2,823000000,base_footprint,-1.27110059731939e-05,0.003875388368220038,0.001048261647013424,0.9999919411430002,0.0,0.0,0.0,0.0,0.0,0.0,0.0,0.0,0.0,0.0006279033110863249,0.0018559024177955674,0.0005709115444093385,0.0,0.0,0.0,0.0,0.0,0.0,0.0,0.0,0.0,-0.3592908978973268,-0.005998898038493924,-0.0006291008444590362,0.0,0.0,0.0,0.0,0.0,0.0,0.0,0.0,0.0
2.857,81,2,857000000,base_footprint,-1.2155926479095236e-05,0.0038746407194997813,0.0010453056468993239,0.9999919471413923,0.0,0.0,0.0,0.0,0.0,0.0,0.0,0.0,0.0,2.4833325958734963e-05,3.1188995244877735e-05,-0.00020875401500720746,0.0,0.0,0.0,0.0,0.0,0.0,0.0,0.0,0.0,0.02138138576495299,0.0036995169148327455,0.0029626505593409124,0.0,0.0,0.0,0.0,0.0,0.0,0.0,0.0,0.0
2.891,82,2,891000000,base_footprint,-1.136188250826323e-05,0.003876167564841696,0.0010489931321227615,0.99999193737216,0.0,0.0,0.0,0.0,0.0,0.0,0.0,0.0,0.0,0.00010371417536351667,-0.00017704404687487115,0.0007247897619464175,0.0,0.0,0.0,0.0,0.0,0.0,0.0,0.0,0.0,-0.006343538656343366,-0.002002440044583257,0.0005056269535471105,0.0,0.0,0.0,0.0,0.0,0.0,0.0,0.0,0.0
2.925,83,2,925000000,base_footprint,-1.2189842520008073e-05,0.0038489251460446195,0.0011343025613681542,0.9999919494597581,0.0,0.0,0.0,0.0,0.0,0.0,0.0,0.0,0.0,0.0015957289664200592,0.003886278650768831,0.008751087476887782,0.0,0.0,0.0,0.0,0.0,0.0,0.0,0.0,0.0,-0.13868949220180857,0.007013562659456112,-0.006749154617401491,0.0,0.0,0.0,0.0,0.0,0.0,0.0,0.0,0.0
2.959,84,2,959000000,base_footprint,-1.4343711004423509e-05,0.0038672602196497484,0.0012411350542681874,0.9999917518041979,0.0,0.0,0.0,0.0,0.0,0.0,0.0,0.0,0.0,0.0016202626831858498,-0.005541579493013538,0.005140609121064575,0.0,0.0,0.0,0.0,0.0,0.0,0.0,0.0,0.0,-0.08132235627803595,-0.0072040394570501995,0.01770912515258663,0.0,0.0,0.0,0.0,0.0,0.0,0.0,0.0,0.0
2.9930000000000003,85,2,993000000,base_footprint,-1.3767033409624556e-05,0.00387059132091606,0.0014003742360424712,0.9999915286067649,0.0,0.0,0.0,0.0,0.0,0.0,0.0,0.0,0.0,0.00011421869782446593,0.0001307649220192486,0.009686147281205211,0.0,0.0,0.0,0.0,0.0,0.0,0.0,0.0,0.0,-0.2499693949851649,0.008043248851029356,-0.007511666696298614,0.0,0.0,0.0,0.0,0.0,0.0,0.0,0.0,0.0
3.028,86,3,27000000,base_footprint,-1.4296015741965628e-05,0.0038729608975637693,0.0015523244055614292,0.9999912950913372,0.0,0.0,0.0,0.0,0.0,0.0,0.0,0.0,0.0,4.110074142119029e-06,-0.0001058767729870164,0.008586735905112648,0.0,0.0,0.0,0.0,0.0,0.0,0.0,0.0,0.0,-0.42061685315130914,-0.0034445582299433147,0.00357508946280623,0.0,0.0,0.0,0.0,0.0,0.0,0.0,0.0,0.0
3.061,87,3,61000000,base_footprint,-1.4621247026363089e-05,0.003871100933565457,0.0016054974572206721,0.9999912183322893,0.0,0.0,0.0,0.0,0.0,0.0,0.0,0.0,0.0,-3.702598250200675e-05,-0.0006713989559849399,-0.00043226864664448766,0.0,0.0,0.0,0.0,0.0,0.0,0.0,0.0,0.0,-0.16226715668401756,0.0023151458414924155,0.001897684703984384,0.0,0.0,0.0,0.0,0.0,0.0,0.0,0.0,0.0
3.095,88,3,95000000,base_footprint,-1.4876967741189221e-05,0.003868834066820945,0.0016075386659925926,0.9999912238220277,0.0,0.0,0.0,0.0,0.0,0.0,0.0,0.0,0.0,-9.436361090014749e-05,-0.00025482965392364997,8.685568037981964e-05,0.0,0.0,0.0,0.0,0.0,0.0,0.0,0.0,0.0,0.001131081890440927,-0.002111652102584782,-0.0005368077049387194,0.0,0.0,0.0,0.0,0.0,0.0,0.0,0.0,0.0
3.129,89,3,129000000,base_footprint,-1.495730353666827e-05,0.0038659224896033387,0.0016278814023878295,0.9999912021721609,0.0,0.0,0.0,0.0,0.0,0.0,0.0,0.0,0.0,-0.0002456849495254697,0.0011206588942221983,0.00036668801907419876,0.0,0.0,0.0,0.0,0.0,0.0,0.0,0.0,0.0,-0.348382483316365,-0.0030599976860446448,0.0007789717678412761,0.0,0.0,0.0,0.0,0.0,0.0,0.0,0.0,0.0
3.163,90,3,163000000,base_footprint,-1.4804249189506919e-05,0.003862800986962801,0.0016463696275409332,0.9999911839693483,0.0,0.0,0.0,0.0,0.0,0.0,0.0,0.0,0.0,8.08526352370521e-05,-0.0003623404640262063,0.001118359822080063,0.0,0.0,0.0,0.0,0.0,0.0,0.0,0.0,0.0,0.01527239850893763,0.0010775952640371164,0.002163949700151813,0.0,0.0,0.0,0.0,0.0,0.0,0.0,0.0,0.0
3.198,91,3,197000000,base_footprint,-1.4519824087763445e-05,0.0038611236813034153,0.0016632779646129617,0.9999911624707015,0.0,0.0,0.0,0.0,0.0,0.0,0.0,0.0,0.0,7.172376849385684e-05,-0.0002492954770837238,0.0008224655466993196,0.0,0.0,0.0,0.0,0.0,0.0,0.0,0.0,0.0,0.004266845879693358,0.00016723017191620245,-0.00020211722389952067,0.0,0.0,0.0,0.0,0.0,0.0,0.0,0.0,0.0
3.23,92,3,231000000,base_footprint,-1.4304277011377884e-05,0.003859885300217299,0.001662904600736219,0.9999911678755696,0.0,0.0,0.0,0.0,0.0,0.0,0.0,0.0,0.0,3.288704891675539e-05,-0.000301030984976127,-0.0014630235584639595,0.0,0.0,0.0,0.0,0.0,0.0,0.0,0.0,0.0,-0.34288647658028437,-0.0018003235507272862,0.0026086258771493022,0.0,0.0,0.0,0.0,0.0,0.0,0.0,0.0,0.0
3.265,93,3,265000000,base_footprint,-1.4259570365369447e-05,0.003860560722815922,0.001666254073277992,0.9999911596933913,0.0,0.0,0.0,0.0,0.0,0.0,0.0,0.0,0.0,5.389212966866086e-05,-0.0001721212276607937,0.00024713552030434415,0.0,0.0,0.0,0.0,0.0,0.0,0.0,0.0,0.0,0.01045454701450366,-0.00042787717594513884,-0.00020173585924046397,0.0,0.0,0.0,0.0,0.0,0.0,0.0,0.0,0.0
3.299,94,3,299000000,base_footprint,-1.4303651925816518e-05,0.0038614105433703748,0.0016683187070302514,0.9999911529692216,0.0,0.0,0.0,0.0,0.0,0.0,0.0,0.0,0.0,4.481084889771303e-05,-0.00013295543365071736,-3.987760728502707e-05,0.0,0.0,0.0,0.0,0.0,0.0,0.0,0.0,0.0,0.004018144085960089,-1.3161556143961106e-05,-0.00011753056396736771,0.0,0.0,0.0,0.0,0.0,0.0,0.0,0.0,0.0
3.333,95,3,333000000,base_footprint,-1.4378128817590526e-05,0.003862754689184147,0.0016549308334568816,0.9999911700227243,0.0,0.0,0.0,0.0,0.0,0.0,0.0,0.0,0.0,1.7516891814883758e-05,-0.0001306455567612362,-0.0022410225661581395,0.0,0.0,0.0,0.0,0.0,0.0,0.0,0.0,0.0,-0.3498629844135799,-0.0023354756336525246,0.002710322085952669,0.0,0.0,0.0,0.0,0.0,0.0,0.0,0.0,0.0
3.366,96,3,367000000,base_footprint,-1.4646160968489697e-05,0.003865148804675055,0.0016471443528206526,0.999991173623892,0.0,0.0,0.0,0.0,0.0,0.0,0.0,0.0,0.0,2.8356104212082426e-05,-5.628469248146557e-05,-0.000513128107431127,0.0,0.0,0.0,0.0,0.0,0.0,0.0,0.0,0.0,0.01646549039190794,-0.00025403823966423057,-0.0003173076701062572,0.0,0.0,0.0,0.0,0.0,0.0,0.0,0.0,0.0
3.402,97,3,401000000,base_footprint,-1.4979533236918737e-05,0.00386827469308479,0.0016369594524824611,0.9999911782562201,0.0,0.0,0.0,0.0,0.0,0.0,0.0,0.0,0.0,1.6969468129464768e-05,3.5794572371657592e-06,-0.0007146085543702094,0.0,0.0,0.0,0.0,0.0,0.0,0.0,0.0,0.0,0.003247601654118865,-0.00014685660600621727,-0.00016860326077468838,0.0,0.0,0.0,0.0,0.0,0.0,0.0,0.0,0.0
3.435,98,3,435000000,base_footprint,-1.4814366854501137e-05,0.0038710174204317424,0.0016605914203688243,0.9999911286810499,0.0,0.0,0.0,0.0,0.0,0.0,0.0,0.0,0.0,-1.717740541994022e-06,2.829932927047084e-05,-0.0013173510997144889,0.0,0.0,0.0,0.0,0.0,0.0,0.0,0.0,0.0,0.320356325597026,0.0019133385842628095,-0.0051010369042452635,0.0,0.0,0.0,0.0,0.0,0.0,0.0,0.0,0.0
3.472,99,3,469000000,base_footprint,-1.4695067216712997e-05,0.0038732112071922387,0.0016504657036968285,0.9999911369517034,0.0,0.0,0.0,0.0,0.0,0.0,0.0,0.0,0.0,2.306213807358434e-05,-6.400588516280675e-06,-0.0005726906830055171,0.0,0.0,0.0,0.0,0.0,0.0,0.0,0.0,0.0,0.023403378910337752,-0.0003659183539636529,0.002235167221249815,0.0,0.0,0.0,0.0,0.0,0.0,0.0,0.0,0.0
3.503,100,3,503000000,base_footprint,-1.3856876834849485e-05,0.0038759956089799,0.0016458668068009873,0.9999911337549351,0.0,0.0,0.0,0.0,0.0,0.0,0.0,0.0,0.0,0.0005405979166140473,-0.0004244421815943184,0.0006322443909238406,0.0,0.0,0.0,0.0,0.0,0.0,0.0,0.0,0.0,-0.027108063025173636,0.004741215898761828,0.006299954582839712,0.0,0.0,0.0,0.0,0.0,0.0,0.0,0.0,0.0
3.537,101,3,537000000,base_footprint,-1.6877114491998843e-05,0.00387993116974904,0.001735174463733922,0.9999909674686374,0.0,0.0,0.0,0.0,0.0,0.0,0.0,0.0,0.0,0.0005801106149521228,0.003646414261570873,0.004616149102760624,0.0,0.0,0.0,0.0,0.0,0.0,0.0,0.0,0.0,-0.3403835769972505,-0.011275338630342831,-0.009484846488371439,0.0,0.0,0.0,0.0,0.0,0.0,0.0,0.0,0.0
3.571,102,3,571000000,base_footprint,-1.2542324561579269e-05,0.0038727975523286436,0.0017760551291078346,0.9999909234138014,0.0,0.0,0.0,0.0,0.0,0.0,0.0,0.0,0.0,0.00012633910122931017,1.4896330462117578e-05,-0.000588988172441116,0.0,0.0,0.0,0.0,0.0,0.0,0.0,0.0,0.0,0.02303433907663132,0.0016610228521782068,0.005873728160951856,0.0,0.0,0.0,0.0,0.0,0.0,0.0,0.0,0.0
3.605,103,3,605000000,base_footprint,-1.1194080157422063e-05,0.0038689314673740157,0.0018308847646433953,0.9999908395105288,0.0,0.0,0.0,0.0,0.0,0.0,0.0,0.0,0.0,0.0003867548304898534,-0.001155728209832879,0.006525548085960652,0.0,0.0,0.0,0.0,0.0,0.0,0.0,0.0,0.0,-0.02702831011554052,0.0020242408207908325,-0.0001456309142982801,0.0,0.0,0.0,0.0,0.0,0.0,0.0,0.0,0.0
3.6390000000000002,104,3,639000000,base_footprint,-1.4735813182859886e-05,0.003864212785083304,0.0019263972102077083,0.9999906782746506,0.0,0.0,0.0,0.0,0.0,0.0,0.0,0.0,0.0,-4.483518435906756e-05,0.0007407695067779074,0.008034697532764474,0.0,0.0,0.0,0.0,0.0,0.0,0.0,0.0,0.0,-0.09680708879004805,0.0025326570468904696,0.0008926030662236525,0.0,0.0,0.0,0.0,0.0,0.0,0.0,0.0,0.0
3.6710000000000003,105,3,673000000,base_footprint,-1.4177383773021791e-05,0.003867959008506684,0.002095909568440856,0.9999903228807724,0.0,0.0,0.0,0.0,0.0,0.0,0.0,0.0,0.0,0.0006029354885057532,-0.000925192606226858,0.009041173267979579,0.0,0.0,0.0,0.0,0.0,0.0,0.0,0.0,0.0,-0.22159291407198534,0.0010450183975701465,0.0038153349099792166,0.0,0.0,0.0,0.0,0.0,0.0,0.0,0.0,0.0
3.706,106,3,707000000,base_footprint,-1.662873806262317e-05,0.003884971280661724,0.0021199253624827603,0.999990206271087,0.0,0.0,0.0,0.0,0.0,0.0,0.0,0.0,0.0,-0.00042894502081345347,-0.004720308960561937,0.0008617082905612322,0.0,0.0,0.0,0.0,0.0,0.0,0.0,0.0,0.0,-0.08749687360061571,0.01369923042698568,0.0065609323649961125,0.0,0.0,0.0,0.0,0.0,0.0,0.0,0.0,0.0
3.741,107,3,741000000,base_footprint,-1.7015138900614e-05,0.0038668047358565044,0.002197395812028531,0.999990109442721,0.0,0.0,0.0,0.0,0.0,0.0,0.0,0.0,0.0,0.0007391497714721318,0.0022532884736369166,0.00022792361542815954,0.0,0.0,0.0,0.0,0.0,0.0,0.0,0.0,0.0,-0.30681296184307155,-0.02617499796840211,-0.008895806750174418,0.0,0.0,0.0,0.0,0.0,0.0,0.0,0.0,0.0
3.773,108,3,775000000,base_footprint,-1.6140743879276033e-05,0.0038717319215392297,0.0021851601350793945,0.9999901172044594,0.0,0.0,0.0,0.0,0.0,0.0,0.0,0.0,0.0,-2.6719145944813295e-05,-0.000269467405913062,-0.0007956845725870571,0.0,0.0,0.0,0.0,0.0,0.0,0.0,0.0,0.0,0.022570981625842007,0.008517039232626816,0.0038342928458163492,0.0,0.0,0.0,0.0,0.0,0.0,0.0,0.0,0.0
3.821,109,3,809000000,base_footprint,-1.6309326024009282e-05,0.0038698818850087,0.0021814599113722413,0.9999901324417442,0.0,0.0,0.0,0.0,0.0,0.0,0.0,0.0,0.0,9.202645294188633e-05,-0.00013480184508425023,0.0019176381779390283,0.0,0.0,0.0,0.0,0.0,0.0,0.0,0.0,0.0,0.00035818932202785053,0.0003511440101960331,-0.00018296073360103525,0.0,0.0,0.0,0.0,0.0,0.0,0.0,0.0,0.0
3.843,110,3,843000000,base_footprint,-1.685763284188206e-05,0.0038683263520748142,0.002208303111803159,0.9999900795330025,0.0,0.0,0.0,0.0,0.0,0.0,0.0,0.0,0.0,-8.919450576340814e-05,-0.0002445879700092808,0.001554738531733229,0.0,0.0,0.0,0.0,0.0,0.0,0.0,0.0,0.0,0.0019582705522443638,6.418921938711925e-05,0.00021521421643609903,0.0,0.0,0.0,0.0,0.0,0.0,0.0,0.0,0.0
3.871,111,3,877000000,base_footprint,-1.742460403789946e-05,0.0038661091461392864,0.0022351838181206385,0.9999900283751597,0.0,0.0,0.0,0.0,0.0,0.0,0.0,0.0,0.0,7.57783257762348e-05,-0.00033192408052466245,0.001553156487916353,0.0,0.0,0.0,0.0,0.0,0.0,0.0,0.0,0.0,0.002326509124636505,0.0001053490442397647,0.0003041130280822998,0.0,0.0,0.0,0.0,0.0,0.0,0.0,0.0,0.0
3.9130000000000003,112,3,911000000,base_footprint,-1.8012199519389762e-05,0.003861790492704505,0.0025963463217594553,0.9999891725591477,0.0,0.0,0.0,0.0,0.0,0.0,0.0,0.0,0.0,0.0034357611781994806,-0.0022165949627246696,0.10756397539648745,0.0,0.0,0.0,0.0,0.0,0.0,0.0,0.0,0.0,-0.03234591026784315,0.0043425001711650535,0.00174187315102378,0.0,0.0,0.0,0.0,0.0,0.0,0.0,0.0,0.0
3.9450000000000003,113,3,945000000,base_footprint,-2.5442742306881495e-05,0.0038634405069251972,0.004449883380616787,0.9999826357082484,0.0,0.0,0.0,0.0,0.0,0.0,0.0,0.0,0.0,0.0008947126168667568,-0.00019549928248983745,0.10864310936937767,0.0,0.0,0.0,0.0,0.0,0.0,0.0,0.0,0.0,0.010297585653986722,0.009631078011086468,-0.001761049320001107,0.0,0.0,0.0,0.0,0.0,0.0,0.0,0.0,0.0
3.979,114,3,979000000,base_footprint,-3.240446060283718e-05,0.0038624449466775025,0.006295320357849374,0.9999727243333074,0.0,0.0,0.0,0.0,0.0,0.0,0.0,0.0,0.0,0.0008927523822538671,-0.0002122500045206253,0.10850784008885815,0.0,0.0,0.0,0.0,0.0,0.0,0.0,0.0,0.0,0.002713754929613975,0.01252252909966222,-7.910883456575828e-06,0.0,0.0,0.0,0.0,0.0,0.0,0.0,0.0,0.0
4.013,115,4,13000000,base_footprint,-3.7669763527081066e-05,0.003859292107589871,0.007650836751838378,0.9999632838971709,0.0,0.0,0.0,0.0,0.0,0.0,0.0,0.0,0.0,0.00032848547567241313,0.00034531776405973924,-5.6865940398723274e-05,0.0,0.0,0.0,0.0,0.0,0.0,0.0,0.0,0.0,0.028291580878090007,0.009421406493394728,-0.0005863839336801898,0.0,0.0,0.0,0.0,0.0,0.0,0.0,0.0,0.0
4.049,116,4,47000000,base_footprint,-3.7247274594849366e-05,0.0038603876392643466,0.007658399232520574,0.9999632217942371,0.0,0.0,0.0,0.0,0.0,0.0,0.0,0.0,0.0,6.426515731790973e-05,-0.00019481998603573076,0.000542015116890985,0.0,0.0,0.0,0.0,0.0,0.0,0.0,0.0,0.0,0.00547595844228905,0.001770026652511056,0.000264566512876121,0.0,0.0,0.0,0.0,0.0,0.0,0.0,0.0,0.0
4.081,117,4,81000000,base_footprint,-3.720766119400752e-05,0.003860669646994795,0.007665918833863333,0.9999631630884707,0.0,0.0,0.0,0.0,0.0,0.0,0.0,0.0,0.0,5.9444113453744983e-05,-0.00016996718785816073,0.0003158129682509063,0.0,0.0,0.0,0.0,0.0,0.0,0.0,0.0,0.0,0.003101026550215717,0.00013133886176011118,-7.546202866668967e-05,0.0,0.0,0.0,0.0,0.0,0.0,0.0,0.0,0.0
4.114,118,4,115000000,base_footprint,-3.6794628825032315e-05,0.0038613417620429052,0.00757349276568504,0.9999638647937635,0.0,0.0,0.0,0.0,0.0,0.0,0.0,0.0,0.0,-9.286073313693346e-05,-5.9350085118621725e-05,-0.014864249807504948,0.0,0.0,0.0,0.0,0.0,0.0,0.0,0.0,0.0,0.00724161938895745,0.0002756930041616874,-0.00026019024496885953,0.0,0.0,0.0,0.0,0.0,0.0,0.0,0.0,0.0
4.149,119,4,149000000,base_footprint,-3.5967178860778805e-05,0.0038626178558794177,0.00732329936298311,0.9999657235006116,0.0,0.0,0.0,0.0,0.0,0.0,0.0,0.0,0.0,-6.711853055009218e-05,-0.00012373255026886675,-0.0148160609733849,0.0,0.0,0.0,0.0,0.0,0.0,0.0,0.0,0.0,0.002825574568754103,-0.0022567034511419516,6.802757869033157e-05,0.0,0.0,0.0,0.0,0.0,0.0,0.0,0.0,0.0
4.183,120,4,183000000,base_footprint,-3.5149594304302085e-05,0.003864315920820344,0.007069844511021558,0.999967541035988,0.0,0.0,0.0,0.0,0.0,0.0,0.0,0.0,0.0,-7.413870766157151e-05,-9.450894011904958e-05,-0.015031637035112141,0.0,0.0,0.0,0.0,0.0,0.0,0.0,0.0,0.0,0.003025374076283214,-0.0017257413980154973,-9.550573707077746e-05,0.0,0.0,0.0,0.0,0.0,0.0,0.0,0.0,0.0
4.219,121,4,217000000,base_footprint,-3.469708609941325e-05,0.0038666121769827945,0.006874512011997324,0.999968894111703,0.0,0.0,0.0,0.0,0.0,0.0,0.0,0.0,0.0,1.3528957968738903e-05,-0.00012183815428317849,-0.006956281979834675,0.0,0.0,0.0,0.0,0.0,0.0,0.0,0.0,0.0,0.0006177805206593856,-0.0018171566111597139,2.1164485160983896e-05,0.0,0.0,0.0,0.0,0.0,0.0,0.0,0.0,0.0
4.251,122,4,251000000,base_footprint,-3.446887133899664e-05,0.0038695109112161265,0.006753329906336231,0.9999697086574079,0.0,0.0,0.0,0.0,0.0,0.0,0.0,0.0,0.0,-6.336678117592461e-05,7.648309940674798e-06,-0.007216339773502124,0.0,0.0,0.0,0.0,0.0,0.0,0.0,0.0,0.0,0.002637894940992581,-0.000572078118484634,-0.00032655235508280547,0.0,0.0,0.0,0.0,0.0,0.0,0.0,0.0,0.0
4.285,123,4,285000000,base_footprint,-3.3901932640160724e-05,0.003871480357045843,0.00663119672755929,0.9999705184256507,0.0,0.0,0.0,0.0,0.0,0.0,0.0,0.0,0.0,-3.0326722975644772e-05,-5.3100154959437565e-05,-0.00720709537841701,0.0,0.0,0.0,0.0,0.0,0.0,0.0,0.0,0.0,0.0016832885912065271,-0.0012448055741638997,-6.772328848323805e-05,0.0,0.0,0.0,0.0,0.0,0.0,0.0,0.0,0.0
4.319,124,4,319000000,base_footprint,-3.286817761987546e-05,0.003872912592898687,0.006432590473495177,0.9999718102264339,0.0,0.0,0.0,0.0,0.0,0.0,0.0,0.0,0.0,-0.0001671199561116083,4.8974519155687877e-05,-0.01597476613875614,0.0,0.0,0.0,0.0,0.0,0.0,0.0,0.0,0.0,0.0031811635896249156,-0.0011451556108036435,-0.00022154750186709527,0.0,0.0,0.0,0.0,0.0,0.0,0.0,0.0,0.0
4.353,125,4,353000000,base_footprint,-3.160832222340511e-05,0.003874725638994271,0.00616173076592737,0.9999735089371642,0.0,0.0,0.0,0.0,0.0,0.0,0.0,0.0,0.0,-9.24010062855744e-05,-3.315409382885885e-05,-0.0158256110679713,0.0,0.0,0.0,0.0,0.0,0.0,0.0,0.0,0.0,-0.0012522413990648266,-0.0021865706714873285,0.00015824837607538136,0.0,0.0,0.0,0.0,0.0,0.0,0.0,0.0,0.0
4.3870000000000005,126,4,387000000,base_footprint,-3.027527301484817e-05,0.0038760213093045164,0.0058956590007389325,0.9999751080637782,0.0,0.0,0.0,0.0,0.0,0.0,0.0,0.0,0.0,-8.008969947359277e-05,-7.112646996317453e-05,-0.015483652366722035,0.0,0.0,0.0,0.0,0.0,0.0,0.0,0.0,0.0,-0.002978745619229126,-0.0024113129205273055,9.295894962336082e-05,0.0,0.0,0.0,0.0,0.0,0.0,0.0,0.0,0.0
4.42,127,4,421000000,base_footprint,-2.9531415904068698e-05,0.0038757685114887913,0.005711045380142256,0.9999761804698185,0.0,0.0,0.0,0.0,0.0,0.0,0.0,0.0,0.0,0.0002884394912689621,-0.00015592207291549354,-0.0053071846068990245,0.0,0.0,0.0,0.0,0.0,0.0,0.0,0.0,0.0,-0.006132176875939274,-0.003027115736322407,0.0003050960925397396,0.0,0.0,0.0,0.0,0.0,0.0,0.0,0.0,0.0
4.45,128,4,455000000,base_footprint,-2.725601362097533e-05,0.0038731804298567474,0.005592499803422684,0.9999768605704915,0.0,0.0,0.0,0.0,0.0,0.0,0.0,0.0,0.0,3.852389276986945e-05,-0.0002655351538100373,-0.005776277327451002,0.0,0.0,0.0,0.0,0.0,0.0,0.0,0.0,0.0,-0.003924579871408711,-0.0010525814605600102,0.00016998891401291983,0.0,0.0,0.0,0.0,0.0,0.0,0.0,0.0,0.0
4.489,129,4,489000000,base_footprint,-2.5013661171944633e-05,0.0038683648195471476,0.005541131278547334,0.9999771652353335,0.0,0.0,0.0,0.0,0.0,0.0,0.0,0.0,0.0,0.00010964818111916379,-0.0003319109786550935,0.0007356951383294219,0.0,0.0,0.0,0.0,0.0,0.0,0.0,0.0,0.0,-0.0161521942428553,-0.0036893485504639447,0.00026415547661708913,0.0,0.0,0.0,0.0,0.0,0.0,0.0,0.0,0.0
4.524,130,4,523000000,base_footprint,-2.7126540254918443e-05,0.0038629169156565216,0.005695777931946263,0.9999763173449678,0.0,0.0,0.0,0.0,0.0,0.0,0.0,0.0,0.0,-0.0002450465265759877,-0.0007107593470121102,0.020304799061338624,0.0,0.0,0.0,0.0,0.0,0.0,0.0,0.0,0.0,-0.05319824058640813,0.0065127828874071755,0.001374560796131866,0.0,0.0,0.0,0.0,0.0,0.0,0.0,0.0,0.0
4.557,131,4,557000000,base_footprint,-3.507887513505935e-05,0.0038617971660184435,0.006358335759486717,0.9999723280463768,0.0,0.0,0.0,0.0,0.0,0.0,0.0,0.0,0.0,0.00019849794365210143,-0.00013381522174932603,0.06481277148089758,0.0,0.0,0.0,0.0,0.0,0.0,0.0,0.0,0.0,-0.06757586584286628,0.003047752353884188,-0.000985613600128146,0.0,0.0,0.0,0.0,0.0,0.0,0.0,0.0,0.0
4.591,132,4,591000000,base_footprint,-3.836458401651192e-05,0.0038709538000824854,0.007478737114587544,0.9999645407393241,0.0,0.0,0.0,0.0,0.0,0.0,0.0,0.0,0.0,0.00023039036234822707,-0.0006311293897331357,0.04887752733391385,0.0,0.0,0.0,0.0,0.0,0.0,0.0,0.0,0.0,-0.22670509285825782,-0.0010199055652263009,0.0025662339888581224,0.0,0.0,0.0,0.0,0.0,0.0,0.0,0.0,0.0
4.623,133,4,625000000,base_footprint,-4.004218323161886e-05,0.0038715444127921323,0.007992325117736898,0.9999605653623025,0.0,0.0,0.0,0.0,0.0,0.0,0.0,0.0,0.0,-2.4034791524479976e-05,-0.00017335227815744994,0.019972835322058638,0.0,0.0,0.0,0.0,0.0,0.0,0.0,0.0,0.0,-0.3769559834585297,-0.012965322492505817,0.00258354013125148,0.0,0.0,0.0,0.0,0.0,0.0,0.0,0.0,0.0
4.662,134,4,659000000,base_footprint,-4.137195351131653e-05,0.0038716603755004396,0.008322309668275333,0.9999578729606982,0.0,0.0,0.0,0.0,0.0,0.0,0.0,0.0,0.0,9.763665710638589e-05,-3.839336701058417e-05,0.018210122180945327,0.0,0.0,0.0,0.0,0.0,0.0,0.0,0.0,0.0,-0.4163403941908331,-0.010344028938749151,0.0030240350487446043,0.0,0.0,0.0,0.0,0.0,0.0,0.0,0.0,0.0
4.693,135,4,693000000,base_footprint,-4.2426179193570366e-05,0.0038717411871033126,0.008604963659276347,0.9999554802193056,0.0,0.0,0.0,0.0,0.0,0.0,0.0,0.0,0.0,5.542515909370809e-05,-0.0001307542181252737,0.015114134433543085,0.0,0.0,0.0,0.0,0.0,0.0,0.0,0.0,0.0,-0.4273945782530493,-0.013354732585031514,0.003395456753915604,0.0,0.0,0.0,0.0,0.0,0.0,0.0,0.0,0.0
4.727,136,4,727000000,base_footprint,-4.3299098215899606e-05,0.003871737866793525,0.008835655569170929,0.999953468398276,0.0,0.0,0.0,0.0,0.0,0.0,0.0,0.0,0.0,2.8846659411705094e-05,-0.0001773930984472686,0.01202802098908115,0.0,0.0,0.0,0.0,0.0,0.0,0.0,0.0,0.0,-0.42830299663319704,-0.013546908761348094,0.0033579732243712765,0.0,0.0,0.0,0.0,0.0,0.0,0.0,0.0,0.0
4.761,137,4,761000000,base_footprint,-4.396047717517743e-05,0.0038717495491120955,0.009010700967853807,0.9999519062889842,0.0,0.0,0.0,0.0,0.0,0.0,0.0,0.0,0.0,3.881518254284867e-06,-0.0001766360550982348,0.008646563682432344,0.0,0.0,0.0,0.0,0.0,0.0,0.0,0.0,0.0,-0.42833609793069133,-0.014267427855408195,0.003316863678329979,0.0,0.0,0.0,0.0,0.0,0.0,0.0,0.0,0.0
4.795,138,4,795000000,base_footprint,-4.438872191642799e-05,0.0038717724653543587,0.009126382628263678,0.9999508570663563,0.0,0.0,0.0,0.0,0.0,0.0,0.0,0.0,0.0,-2.3229856976042095e-05,-0.00017697361115776887,0.005067904791361959,0.0,0.0,0.0,0.0,0.0,0.0,0.0,0.0,0.0,-0.4283241536582388,-0.014747071290771087,0.0033189820744707874,0.0,0.0,0.0,0.0,0.0,0.0,0.0,0.0,0.0
4.829,139,4,829000000,base_footprint,-4.221210934241358e-05,0.0038526774845680845,0.009230706929156984,0.9999499733206286,0.0,0.0,0.0,0.0,0.0,0.0,0.0,0.0,0.0,0.00022658719963234363,-0.0008191708846573549,0.007229143310291623,0.0,0.0,0.0,0.0,0.0,0.0,0.0,0.0,0.0,0.128731530859677,0.0065626916245930195,-4.001042782759058e-05,0.0,0.0,0.0,0.0,0.0,0.0,0.0,0.0,0.0
4.863,140,4,863000000,base_footprint,-4.312085268749553e-05,0.003853155046551859,0.009378256706115813,0.9999485984979096,0.0,0.0,0.0,0.0,0.0,0.0,0.0,0.0,0.0,0.00012894164563187824,-7.285017966603899e-05,0.010622028285643981,0.0,0.0,0.0,0.0,0.0,0.0,0.0,0.0,0.0,0.27841377293914504,0.011786371209114401,-0.003165087621824936,0.0,0.0,0.0,0.0,0.0,0.0,0.0,0.0,0.0
4.897,141,4,897000000,base_footprint,-4.378013711965121e-05,0.0038531591309647856,0.009586611014910245,0.9999466226440589,0.0,0.0,0.0,0.0,0.0,0.0,0.0,0.0,0.0,0.00015838597502199783,-0.00014396179898171002,0.013830948583527557,0.0,0.0,0.0,0.0,0.0,0.0,0.0,0.0,0.0,0.33732740422181856,0.012678022735307305,-0.0024578934327353966,0.0,0.0,0.0,0.0,0.0,0.0,0.0,0.0,0.0
4.931,142,4,931000000,base_footprint,-4.471838271751256e-05,0.003852872205308458,0.009862900389983222,0.9999439367144206,0.0,0.0,0.0,0.0,0.0,0.0,0.0,0.0,0.0,0.0001918552294887377,-0.0001361085741755437,0.018421378956388887,0.0,0.0,0.0,0.0,0.0,0.0,0.0,0.0,0.0,0.4150590572153959,0.01706997572826001,-0.003216991722009803,0.0,0.0,0.0,0.0,0.0,0.0,0.0,0.0,0.0
4.965,143,4,965000000,base_footprint,-4.603836083207438e-05,0.003852716728196134,0.010226997787555245,0.9999402797020106,0.0,0.0,0.0,0.0,0.0,0.0,0.0,0.0,0.0,0.00023332309135229415,-0.00012200783017393846,0.02427666326021605,0.0,0.0,0.0,0.0,0.0,0.0,0.0,0.0,0.0,0.5084120829556643,0.021726823935134896,-0.0039411075962678685,0.0,0.0,0.0,0.0,0.0,0.0,0.0,0.0,0.0
4.9990000000000006,144,4,999000000,base_footprint,-4.785571384765008e-05,0.0038528057960984627,0.01070456096425622,0.999935280891664,0.0,0.0,0.0,0.0,0.0,0.0,0.0,0.0,0.0,0.00028759080743206083,-0.00011429114807007632,0.03185012265515983,0.0,0.0,0.0,0.0,0.0,0.0,0.0,0.0,0.0,0.6079992085346168,0.027664571432866575,-0.004704591873772372,0.0,0.0,0.0,0.0,0.0,0.0,0.0,0.0,0.0
5.033,145,5,33000000,base_footprint,-5.029921903892196e-05,0.0038531661430231717,0.01132741417116622,0.999928417572407,0.0,0.0,0.0,0.0,0.0,0.0,0.0,0.0,0.0,0.0003569341735354382,-0.00011350620380343116,0.04153397412022794,0.0,0.0,0.0,0.0,0.0,0.0,0.0,0.0,0.0,0.6991425463775717,0.034561808806443675,-0.005398650196131122,0.0,0.0,0.0,0.0,0.0,0.0,0.0,0.0,0.0
5.067,146,5,67000000,base_footprint,-5.358662472035991e-05,0.0038539462691528762,0.012136538090247612,0.9999189210480077,0.0,0.0,0.0,0.0,0.0,0.0,0.0,0.0,0.0,0.00044573985539560267,-0.00011596189273756413,0.05380643130382755,0.0,0.0,0.0,0.0,0.0,0.0,0.0,0.0,0.0,0.7623694231307974,0.04222118421211724,-0.005881899731406674,0.0,0.0,0.0,0.0,0.0,0.0,0.0,0.0,0.0
5.101,147,5,101000000,base_footprint,-5.787455749839425e-05,0.0038551671404556506,0.013179218515048862,0.999905716823435,0.0,0.0,0.0,0.0,0.0,0.0,0.0,0.0,0.0,0.0005568483010450176,-8.938768499626261e-05,0.06898914095908616,0.0,0.0,0.0,0.0,0.0,0.0,0.0,0.0,0.0,0.7853111618907136,0.050020479475008706,-0.0060879973575095276,0.0,0.0,0.0,0.0,0.0,0.0,0.0,0.0,0.0
5.136,148,5,135000000,base_footprint,-6.33513280975277e-05,0.0038567674654263846,0.014508126940315402,0.9998873114426498,0.0,0.0,0.0,0.0,0.0,0.0,0.0,0.0,0.0,0.0006940909393122638,-6.374548317583191e-05,0.0874411927132248,0.0,0.0,0.0,0.0,0.0,0.0,0.0,0.0,0.0,0.766128871995562,0.05783404571168203,-0.005939858220762467,0.0,0.0,0.0,0.0,0.0,0.0,0.0,0.0,0.0
5.169,149,5,169000000,base_footprint,-6.617321228370119e-05,0.003861336141712538,0.01519328669687987,0.9998771173217503,0.0,0.0,0.0,0.0,0.0,0.0,0.0,0.0,0.0,-0.00016328192537318537,2.755599618483649e-05,-0.03376846129562819,0.0,0.0,0.0,0.0,0.0,0.0,0.0,0.0,0.0,0.4963110751592937,0.04037557508463987,-0.004082950196803014,0.0,0.0,0.0,0.0,0.0,0.0,0.0,0.0,0.0
5.203,150,5,203000000,base_footprint,-6.181980965964681e-05,0.0038726680345683756,0.013731971222131266,0.9998982106129403,0.0,0.0,0.0,0.0,0.0,0.0,0.0,0.0,0.0,-0.0010250033121989599,0.00010724558043334843,-0.10056404181753588,0.0,0.0,0.0,0.0,0.0,0.0,0.0,0.0,0.0,0.17770554116620224,-0.010115697102509317,-0.0020530463885787887,0.0,0.0,0.0,0.0,0.0,0.0,0.0,0.0,0.0
5.237,151,5,237000000,base_footprint,-5.4652146429396485e-05,0.003875592672368367,0.01199186248893124,0.9999205828607727,0.0,0.0,0.0,0.0,0.0,0.0,0.0,0.0,0.0,-0.0007500864687588721,1.7412019493323807e-05,-0.10180451104498467,0.0,0.0,0.0,0.0,0.0,0.0,0.0,0.0,0.0,-0.0005002932515632752,-0.022536459296586125,0.000360041095590932,0.0,0.0,0.0,0.0,0.0,0.0,0.0,0.0,0.0
5.271,152,5,271000000,base_footprint,-4.69422560937313e-05,0.0038760409205621255,0.010274583061940732,0.9999397017051128,0.0,0.0,0.0,0.0,0.0,0.0,0.0,0.0,0.0,-0.0006371187045390518,-0.0002750296466641354,-0.0999544102226583,0.0,0.0,0.0,0.0,0.0,0.0,0.0,0.0,0.0,-0.0071766961677188585,-0.02583228256492153,0.0006602764296263356,0.0,0.0,0.0,0.0,0.0,0.0,0.0,0.0,0.0
5.305,153,5,305000000,base_footprint,-3.732927477830904e-05,0.003870548766192338,0.008649861052005459,0.9999550976731679,0.0,0.0,0.0,0.0,0.0,0.0,0.0,0.0,0.0,-0.000536661033393531,-0.00041334925866664705,-0.08686322915270664,0.0,0.0,0.0,0.0,0.0,0.0,0.0,0.0,0.0,-0.03085767140638794,-0.02463613924170329,0.0006702197129832149,0.0,0.0,0.0,0.0,0.0,0.0,0.0,0.0,0.0
5.34,154,5,339000000,base_footprint,-3.3885964454681786e-05,0.0038699065353512943,0.007336789323719081,0.999965596506984,0.0,0.0,0.0,0.0,0.0,0.0,0.0,0.0,0.0,-0.0007471349623911709,-0.00023190085340514337,-0.08376192844923813,0.0,0.0,0.0,0.0,0.0,0.0,0.0,0.0,0.0,-0.039460583062428015,-0.00787819810954822,-0.0009081719622882171,0.0,0.0,0.0,0.0,0.0,0.0,0.0,0.0,0.0
5.37,155,5,373000000,base_footprint,-2.937986226289347e-05,0.0038753471599855148,0.005779219017263117,0.9999757904313304,0.0,0.0,0.0,0.0,0.0,0.0,0.0,0.0,0.0,-0.0007928575740175779,-0.00017392425511430037,-0.09058753422626352,0.0,0.0,0.0,0.0,0.0,0.0,0.0,0.0,0.0,0.03107721339494925,-0.022229726578208164,0.00020907336473933454,0.0,0.0,0.0,0.0,0.0,0.0,0.0,0.0,0.0
5.407,156,5,407000000,base_footprint,-2.421509794363287e-05,0.003872533488502814,0.004218496250760154,0.9999836034592727,0.0,0.0,0.0,0.0,0.0,0.0,0.0,0.0,0.0,-0.0006951127885596094,-0.0004031921686764591,-0.092554481137106,0.0,0.0,0.0,0.0,0.0,0.0,0.0,0.0,0.0,0.01039753142675798,-0.020328885169276455,0.000568096705722854,0.0,0.0,0.0,0.0,0.0,0.0,0.0,0.0,0.0
5.442,157,5,441000000,base_footprint,-1.7348147842781637e-05,0.003868180893484811,0.0026744607854983548,0.9999889420064224,0.0,0.0,0.0,0.0,0.0,0.0,0.0,0.0,0.0,7.557146569129832e-05,-0.0005255442063303949,-0.08035066277105797,0.0,0.0,0.0,0.0,0.0,0.0,0.0,0.0,0.0,0.0017843427954981768,-0.020499806185339448,0.0002736822256160873,0.0,0.0,0.0,0.0,0.0,0.0,0.0,0.0,0.0
5.475,158,5,475000000,base_footprint,-1.2630092045981063e-05,0.0038638689220180326,0.0012860178473188069,0.9999917082233886,0.0,0.0,0.0,0.0,0.0,0.0,0.0,0.0,0.0,-0.0005740124687943777,-0.0003667831452891808,-0.08208685992813952,0.0,0.0,0.0,0.0,0.0,0.0,0.0,0.0,0.0,0.005358395958524025,-0.017685116022784192,-0.0001588528879137348,0.0,0.0,0.0,0.0,0.0,0.0,0.0,0.0,0.0
5.509,159,5,509000000,base_footprint,-7.294820321298616e-06,0.0038615382923196276,-0.00012015662001501759,0.9999925369877464,0.0,0.0,0.0,0.0,0.0,0.0,0.0,0.0,0.0,-0.0005865903332859563,-0.00027146425932062857,-0.08468587793515085,0.0,0.0,0.0,0.0,0.0,0.0,0.0,0.0,0.0,0.006353807659168966,-0.01811316102165249,-0.00023303645370623856,0.0,0.0,0.0,0.0,0.0,0.0,0.0,0.0,0.0
5.543,160,5,543000000,base_footprint,-1.984627440481491e-06,0.003861115732265564,-0.001562010387935126,0.9999913259148357,0.0,0.0,0.0,0.0,0.0,0.0,0.0,0.0,0.0,-0.0006330056488540707,-0.00017942426240984035,-0.08507433477868179,0.0,0.0,0.0,0.0,0.0,0.0,0.0,0.0,0.0,0.005793898161090098,-0.01888851677792477,-0.00022308807007126018,0.0,0.0,0.0,0.0,0.0,0.0,0.0,0.0,0.0
5.581,161,5,577000000,base_footprint,2.9814153528268902e-06,0.003862204809887347,-0.0030115678551892546,0.9999880068401678,0.0,0.0,0.0,0.0,0.0,0.0,0.0,0.0,0.0,-0.0006615707683983951,-9.185133655912807e-05,-0.08552630188195463,0.0,0.0,0.0,0.0,0.0,0.0,0.0,0.0,0.0,0.005594154255534195,-0.019001585780686597,-0.00023036091155160222,0.0,0.0,0.0,0.0,0.0,0.0,0.0,0.0,0.0
5.6129999999999995,162,5,611000000,base_footprint,7.238080470102724e-06,0.0038653533280317634,-0.00443399025185555,0.9999826992111945,0.0,0.0,0.0,0.0,0.0,0.0,0.0,0.0,0.0,-0.00046665570214051604,-7.651987918766769e-05,-0.07805628137182971,0.0,0.0,0.0,0.0,0.0,0.0,0.0,0.0,0.0,0.003202135180623511,-0.018877394553081017,-6.68468030484977e-05,0.0,0.0,0.0,0.0,0.0,0.0,0.0,0.0,0.0
5.645,163,5,645000000,base_footprint,1.150252149236802e-05,0.0038695022233667885,-0.0057649274811825595,0.9999758959251829,0.0,0.0,0.0,0.0,0.0,0.0,0.0,0.0,0.0,-0.0006637215748071947,6.346011017477999e-05,-0.07828594234765314,0.0,0.0,0.0,0.0,0.0,0.0,0.0,0.0,0.0,0.004227163517824199,-0.01777043335411974,-0.00046956086104026133,0.0,0.0,0.0,0.0,0.0,0.0,0.0,0.0,0.0
5.678,164,5,679000000,base_footprint,1.6909803992230387e-05,0.0038734818580911747,-0.007088450341446369,0.9999673743298381,0.0,0.0,0.0,0.0,0.0,0.0,0.0,0.0,0.0,-0.0006009579494803525,4.848638197085752e-05,-0.07722386693293533,0.0,0.0,0.0,0.0,0.0,0.0,0.0,0.0,0.0,0.0008979731252529577,-0.01783988595905466,-8.028145219896e-05,0.0,0.0,0.0,0.0,0.0,0.0,0.0,0.0,0.0
5.713,165,5,713000000,base_footprint,2.098945530812856e-05,0.003877471897239841,-0.0082763103853258,0.9999582328565203,0.0,0.0,0.0,0.0,0.0,0.0,0.0,0.0,0.0,-0.00038766159387134617,0.0010161851176033203,-0.05292907583728451,0.0,0.0,0.0,0.0,0.0,0.0,0.0,0.0,0.0,-0.011137510710808927,-0.011580959664448862,-0.0015933365707190507,0.0,0.0,0.0,0.0,0.0,0.0,0.0,0.0,0.0
5.747,166,5,747000000,base_footprint,2.6909950055761417e-05,0.0038768938023910154,-0.009183595706730356,0.9999503140357501,0.0,0.0,0.0,0.0,0.0,0.0,0.0,0.0,0.0,3.767071279613175e-05,-0.0004033390970714009,-0.054762517371965774,0.0,0.0,0.0,0.0,0.0,0.0,0.0,0.0,0.0,-0.004249488965735447,-0.012276308579638738,0.0026497695553536634,0.0,0.0,0.0,0.0,0.0,0.0,0.0,0.0,0.0
5.781,167,5,781000000,base_footprint,3.2804891092713906e-05,0.0038743831220823272,-0.010125192563930968,0.9999412325505964,0.0,0.0,0.0,0.0,0.0,0.0,0.0,0.0,0.0,-0.0005973763104056447,-0.0007897579244881068,-0.05274224428909524,0.0,0.0,0.0,0.0,0.0,0.0,0.0,0.0,0.0,-0.024477191457810264,-0.011950141953160211,0.0008443446873822937,0.0,0.0,0.0,0.0,0.0,0.0,0.0,0.0,0.0
5.817,168,5,815000000,base_footprint,2.910457189318666e-05,0.003873323822619768,-0.01115467616832767,0.9999302824272644,0.0,0.0,0.0,0.0,0.0,0.0,0.0,0.0,0.0,0.00017257139675192672,-0.00020676264621377182,-0.07189173374290767,0.0,0.0,0.0,0.0,0.0,0.0,0.0,0.0,0.0,-0.06353882624675461,-0.010023028332722062,-0.0007710708081297739,0.0,0.0,0.0,0.0,0.0,0.0,0.0,0.0,0.0
5.848,169,5,849000000,base_footprint,3.187666870515562e-05,0.0038685976986101633,-0.012374870937528403,0.9999159442198149,0.0,0.0,0.0,0.0,0.0,0.0,0.0,0.0,0.0,-0.00024364577672883152,-0.0004711701655608068,-0.0652799389811754,0.0,0.0,0.0,0.0,0.0,0.0,0.0,0.0,0.0,0.018031077795825686,-0.017475614308555043,-9.445302733830914e-06,0.0,0.0,0.0,0.0,0.0,0.0,0.0,0.0,0.0
5.883,170,5,883000000,base_footprint,4.082343718593329e-05,0.0038703188590532545,-0.013280155390093131,0.999904323642113,0.0,0.0,0.0,0.0,0.0,0.0,0.0,0.0,0.0,-0.0003984916075817322,-0.00039925858767826433,-0.05024955744108581,0.0,0.0,0.0,0.0,0.0,0.0,0.0,0.0,0.0,0.03430637604853166,-0.013390248243650078,0.00011634765398526507,0.0,0.0,0.0,0.0,0.0,0.0,0.0,0.0,0.0
5.917,171,5,917000000,base_footprint,4.5484692429031986e-05,0.003867927700289453,-0.01412311671445559,0.9998927815724635,0.0,0.0,0.0,0.0,0.0,0.0,0.0,0.0,0.0,-0.00017347039068951763,-0.0003786481612953512,-0.04958350071260935,0.0,0.0,0.0,0.0,0.0,0.0,0.0,0.0,0.0,0.007578287798996359,-0.01205161406856786,0.0001340603089457716,0.0,0.0,0.0,0.0,0.0,0.0,0.0,0.0,0.0
5.9510000000000005,172,5,951000000,base_footprint,4.885882412169803e-05,0.003864611172474923,-0.01497040489580558,0.999880467541274,0.0,0.0,0.0,0.0,0.0,0.0,0.0,0.0,0.0,-0.0003803902608118095,-0.0003245478876689279,-0.05004700880711531,0.0,0.0,0.0,0.0,0.0,0.0,0.0,0.0,0.0,0.004459770138532553,-0.011338041201141503,-5.284388898998749e-05,0.0,0.0,0.0,0.0,0.0,0.0,0.0,0.0,0.0
5.985,173,5,985000000,base_footprint,5.159172261465019e-05,0.0038626760826210188,-0.01582359469659701,0.9998673366615457,0.0,0.0,0.0,0.0,0.0,0.0,0.0,0.0,0.0,-0.0003870590063445491,-0.00023524401091836337,-0.05035815361911141,0.0,0.0,0.0,0.0,0.0,0.0,0.0,0.0,0.0,0.004946056233092883,-0.011412598256855228,-0.0002113426366046435,0.0,0.0,0.0,0.0,0.0,0.0,0.0,0.0,0.0
6.019,174,6,19000000,base_footprint,5.41231688517956e-05,0.003861789177484895,-0.016809060668406664,0.9998512585052224,0.0,0.0,0.0,0.0,0.0,0.0,0.0,0.0,0.0,-0.0005378581803689865,-0.0004604587887846208,-0.08182843009382161,0.0,0.0,0.0,0.0,0.0,0.0,0.0,0.0,0.0,-0.3304736458862231,0.011865703999433212,0.0025386374098844483,0.0,0.0,0.0,0.0,0.0,0.0,0.0,0.0,0.0
6.053,175,6,53000000,base_footprint,5.792724776126466e-05,0.003863409745406027,-0.0178608486863369,0.9998330164551363,0.0,0.0,0.0,0.0,0.0,0.0,0.0,0.0,0.0,-0.000343398479571665,-1.3178618720969403e-05,-0.04420132379262641,0.0,0.0,0.0,0.0,0.0,0.0,0.0,0.0,0.0,-0.002805358557759736,-0.015893999803633978,-0.00027147860703024553,0.0,0.0,0.0,0.0,0.0,0.0,0.0,0.0,0.0
6.086,176,6,87000000,base_footprint,5.966184027688414e-05,0.0038663872515355873,-0.018616621714489325,0.9998192181019655,0.0,0.0,0.0,0.0,0.0,0.0,0.0,0.0,0.0,-0.0004081705346090387,2.1830374756233664e-05,-0.04459964532392505,0.0,0.0,0.0,0.0,0.0,0.0,0.0,0.0,0.0,0.005011752897534346,-0.009388448382433308,-0.00028924331371714065,0.0,0.0,0.0,0.0,0.0,0.0,0.0,0.0,0.0
6.12,177,6,121000000,base_footprint,6.005360017283868e-05,0.003870376707697698,-0.019063380829484323,0.9998107841432077,0.0,0.0,0.0,0.0,0.0,0.0,0.0,0.0,0.0,-0.00011534263272464959,0.000235622861400646,-0.011962297357231344,0.0,0.0,0.0,0.0,0.0,0.0,0.0,0.0,0.0,-0.0052940057681276406,-0.005541696495276294,-0.0003033844531196385,0.0,0.0,0.0,0.0,0.0,0.0,0.0,0.0,0.0
6.155,178,6,155000000,base_footprint,6.123217429979615e-05,0.003874385144331148,-0.019259584131650485,0.9998070082818235,0.0,0.0,0.0,0.0,0.0,0.0,0.0,0.0,0.0,-0.00011407285640452786,8.125872908990488e-05,-0.010857118068962576,0.0,0.0,0.0,0.0,0.0,0.0,0.0,0.0,0.0,0.0014736881973787957,-0.003250992132128285,6.00495317396945e-05,0.0,0.0,0.0,0.0,0.0,0.0,0.0,0.0,0.0
6.189,179,6,189000000,base_footprint,6.223427867796018e-05,0.0038768129109841196,-0.019429093539937322,0.9998037191232908,0.0,0.0,0.0,0.0,0.0,0.0,0.0,0.0,0.0,-4.334386110843171e-05,3.5967670894555627e-06,-0.009080461133615457,0.0,0.0,0.0,0.0,0.0,0.0,0.0,0.0,0.0,-0.0033493985787785836,-0.002460774679711872,7.082847587727456e-05,0.0,0.0,0.0,0.0,0.0,0.0,0.0,0.0,0.0
6.223,180,6,223000000,base_footprint,6.748533694449507e-05,0.0038649649177331666,-0.019372351304668377,0.9998048657097257,0.0,0.0,0.0,0.0,0.0,0.0,0.0,0.0,0.0,0.000965377420095261,-0.0011052334730276574,0.028224134493890662,0.0,0.0,0.0,0.0,0.0,0.0,0.0,0.0,0.0,0.13770241662828453,-0.005561123953421458,0.0014408973949113439,0.0,0.0,0.0,0.0,0.0,0.0,0.0,0.0,0.0
6.257,181,6,257000000,base_footprint,7.42103262033106e-05,0.003868897518020038,-0.018779159095806783,0.9998161677570918,0.0,0.0,0.0,0.0,0.0,0.0,0.0,0.0,0.0,0.0007807178186358641,-0.0019060305258700705,0.025642839936944804,0.0,0.0,0.0,0.0,0.0,0.0,0.0,0.0,0.0,0.024823459561542298,0.0037971782817654382,0.0002700901403222204,0.0,0.0,0.0,0.0,0.0,0.0,0.0,0.0,0.0
6.29,182,6,291000000,base_footprint,6.057600541256605e-05,0.0038651095455138084,-0.018881458782920208,0.9998142566361903,0.0,0.0,0.0,0.0,0.0,0.0,0.0,0.0,0.0,-0.0015233686867453817,0.001312745402077482,-0.05152897766425147,0.0,0.0,0.0,0.0,0.0,0.0,0.0,0.0,0.0,0.07942809423314164,-0.005293766583404759,-0.006753703792303021,0.0,0.0,0.0,0.0,0.0,0.0,0.0,0.0,0.0
6.326,183,6,325000000,base_footprint,6.067923804723665e-05,0.00386739443763447,-0.0201016547361083,0.9997904595739869,0.0,0.0,0.0,0.0,0.0,0.0,0.0,0.0,0.0,-0.002035602182293353,-0.0013286260515333163,-0.07063088314781678,0.0,0.0,0.0,0.0,0.0,0.0,0.0,0.0,0.0,-0.004249463389611825,-0.01729714893225765,0.005835944938511206,0.0,0.0,0.0,0.0,0.0,0.0,0.0,0.0,0.0
6.361,184,6,359000000,base_footprint,6.995810233650846e-05,0.0038673823141752634,-0.02106004829583,0.9997707301305021,0.0,0.0,0.0,0.0,0.0,0.0,0.0,0.0,0.0,0.0008719929169345522,0.0008051510784538324,-0.03897598080322535,0.0,0.0,0.0,0.0,0.0,0.0,0.0,0.0,0.0,0.06744175531187539,-0.019599289727537675,-0.004656652003149041,0.0,0.0,0.0,0.0,0.0,0.0,0.0,0.0,0.0
6.393,185,6,393000000,base_footprint,7.4206632147876e-05,0.003867113212205921,-0.021686348202656566,0.9997573416736749,0.0,0.0,0.0,0.0,0.0,0.0,0.0,0.0,0.0,-0.00029094122015807446,-0.0002697352952804179,-0.03725459559614034,0.0,0.0,0.0,0.0,0.0,0.0,0.0,0.0,0.0,0.008118998165164794,-0.007817220500608573,0.002019131537393235,0.0,0.0,0.0,0.0,0.0,0.0,0.0,0.0,0.0
6.427,186,6,427000000,base_footprint,7.678987147196658e-05,0.0038646901031426026,-0.02216830860836272,0.9997467801234304,0.0,0.0,0.0,0.0,0.0,0.0,0.0,0.0,0.0,-0.0001360417169609911,-0.00024965041074031825,-0.025347693058699352,0.0,0.0,0.0,0.0,0.0,0.0,0.0,0.0,0.0,0.002646730000829532,-0.006530434858447204,0.0002193285361969902,0.0,0.0,0.0,0.0,0.0,0.0,0.0,0.0,0.0
6.461,187,6,461000000,base_footprint,7.769315092017167e-05,0.003862502687918021,-0.02260168713839178,0.9997370848254348,0.0,0.0,0.0,0.0,0.0,0.0,0.0,0.0,0.0,-0.00021387065827782763,-0.000252861110779694,-0.025655840172022458,0.0,0.0,0.0,0.0,0.0,0.0,0.0,0.0,0.0,0.005104395794562088,-0.006186720034114771,-7.105032025814744e-05,0.0,0.0,0.0,0.0,0.0,0.0,0.0,0.0,0.0
6.495,188,6,495000000,base_footprint,7.8559557805277e-05,0.0038620061594213224,-0.023039713172257482,0.9997270879363831,0.0,0.0,0.0,0.0,0.0,0.0,0.0,0.0,0.0,-0.00022259483851217184,-0.00016625156190849818,-0.025932779444036696,0.0,0.0,0.0,0.0,0.0,0.0,0.0,0.0,0.0,0.0051093999884707616,-0.006233822529602465,-0.0002142100069641562,0.0,0.0,0.0,0.0,0.0,0.0,0.0,0.0,0.0
6.529,189,6,529000000,base_footprint,7.8939648239468e-05,0.0038631003176662496,-0.02339627885357418,0.9997188026441602,0.0,0.0,0.0,0.0,0.0,0.0,0.0,0.0,0.0,-0.0001973210000967165,-8.538070066064917e-05,-0.019862888613748294,0.0,0.0,0.0,0.0,0.0,0.0,0.0,0.0,0.0,0.0034440483669229585,-0.0051124939789612385,-0.00021416114802496453,0.0,0.0,0.0,0.0,0.0,0.0,0.0,0.0,0.0
6.563,190,6,563000000,base_footprint,7.889633564780406e-05,0.003866120133945588,-0.02373475231007371,0.9997108123968939,0.0,0.0,0.0,0.0,0.0,0.0,0.0,0.0,0.0,-0.00030126729233168124,4.977856345448355e-05,-0.01996913138209948,0.0,0.0,0.0,0.0,0.0,0.0,0.0,0.0,0.0,0.0046030363275634785,-0.005090536682527981,-0.0004181485894521843,0.0,0.0,0.0,0.0,0.0,0.0,0.0,0.0,0.0
6.597,191,6,597000000,base_footprint,7.896929811905009e-05,0.0038702829575937288,-0.024073023849612064,0.9997027079069128,0.0,0.0,0.0,0.0,0.0,0.0,0.0,0.0,0.0,-0.0003062556210376418,0.00014670286051718455,-0.01979218641495711,0.0,0.0,0.0,0.0,0.0,0.0,0.0,0.0,0.0,0.003783030577705894,-0.005043320652635513,-0.00024754935441800494,0.0,0.0,0.0,0.0,0.0,0.0,0.0,0.0,0.0
6.631,192,6,631000000,base_footprint,7.953575873299512e-05,0.0038741896578474793,-0.02414795179427705,0.99970088564165,0.0,0.0,0.0,0.0,0.0,0.0,0.0,0.0,0.0,-3.833281762659223e-05,9.130196197665552e-05,-0.0011017223831305814,0.0,0.0,0.0,0.0,0.0,0.0,0.0,0.0,0.0,-0.0037745149551099344,-0.0013195236449695601,7.709159097302053e-05,0.0,0.0,0.0,0.0,0.0,0.0,0.0,0.0,0.0
6.666,193,6,665000000,base_footprint,8.005288396159077e-05,0.003876451971840885,-0.02414899999809425,0.9997008515104596,0.0,0.0,0.0,0.0,0.0,0.0,0.0,0.0,0.0,4.650446626494409e-05,-5.3073162693453434e-05,0.0009662805390191498,0.0,0.0,0.0,0.0,0.0,0.0,0.0,0.0,0.0,-0.0037649215433783584,-0.0008784565868534986,0.00023433777810025758,0.0,0.0,0.0,0.0,0.0,0.0,0.0,0.0,0.0
6.699,194,6,699000000,base_footprint,8.657511556606308e-05,0.003874744228273415,-0.024145797427622913,0.9997009349442958,0.0,0.0,0.0,0.0,0.0,0.0,0.0,0.0,0.0,0.00033579426687175385,2.1378124882886107e-05,-0.0010222918228682185,0.0,0.0,0.0,0.0,0.0,0.0,0.0,0.0,0.0,-0.0015939209864237614,0.0071544951817871984,-6.595322110315213e-05,0.0,0.0,0.0,0.0,0.0,0.0,0.0,0.0,0.0
6.7330000000000005,195,6,733000000,base_footprint,9.22497728258653e-05,0.0038701415063673336,-0.024828385560524305,0.999684232528031,0.0,0.0,0.0,0.0,0.0,0.0,0.0,0.0,0.0,0.00101013343323215,0.0016121748908118918,-0.06261710945859103,0.0,0.0,0.0,0.0,0.0,0.0,0.0,0.0,0.0,-0.2062713129440195,0.009871292129683856,-0.0008601566020030652,0.0,0.0,0.0,0.0,0.0,0.0,0.0,0.0,0.0
6.767,196,6,767000000,base_footprint,9.096496989175138e-05,0.003871091405347252,-0.025562486595297553,0.9996657269586525,0.0,0.0,0.0,0.0,0.0,0.0,0.0,0.0,0.0,-0.0012617792253205222,0.0009207219209056934,-0.028365049317784545,0.0,0.0,0.0,0.0,0.0,0.0,0.0,0.0,0.0,-0.1957797024065948,0.009242838595558946,0.002164275290322481,0.0,0.0,0.0,0.0,0.0,0.0,0.0,0.0,0.0
6.801,197,6,801000000,base_footprint,8.937330187263847e-05,0.003868348833154337,-0.026331344416849815,0.9996457813600372,0.0,0.0,0.0,0.0,0.0,0.0,0.0,0.0,0.0,-0.000859414437786266,-0.0005140569308146707,-0.04814158642968516,0.0,0.0,0.0,0.0,0.0,0.0,0.0,0.0,0.0,-0.019425278662462103,-0.008115274715385559,0.0038462755918873518,0.0,0.0,0.0,0.0,0.0,0.0,0.0,0.0,0.0
6.835,198,6,835000000,base_footprint,9.321545160651882e-05,0.0038648458132124327,-0.026831885515154526,0.9996324845649132,0.0,0.0,0.0,0.0,0.0,0.0,0.0,0.0,0.0,0.0009738255552183552,0.00041390330660044574,-0.014530908786030363,0.0,0.0,0.0,0.0,0.0,0.0,0.0,0.0,0.0,0.04160007812954869,-0.01188425846263335,-0.0034973131508213326,0.0,0.0,0.0,0.0,0.0,0.0,0.0,0.0,0.0
6.872,199,6,869000000,base_footprint,9.525706943368746e-05,0.003865260160963259,-0.027014872781848654,0.9996275543113843,0.0,0.0,0.0,0.0,0.0,0.0,0.0,0.0,0.0,-0.00018084247257391272,-0.0003000061388781824,-0.0111055488953868,0.0,0.0,0.0,0.0,0.0,0.0,0.0,0.0,0.0,0.012932018200101371,-0.0029062452495402027,0.001807359960672344,0.0,0.0,0.0,0.0,0.0,0.0,0.0,0.0,0.0
6.9030000000000005,200,6,903000000,base_footprint,9.456362880456485e-05,0.003859231922147412,-0.02721235085666246,0.9996222213154053,0.0,0.0,0.0,0.0,0.0,0.0,0.0,0.0,0.0,-0.001420811378862882,-0.0052010658603860145,-0.01733255199539793,0.0,0.0,0.0,0.0,0.0,0.0,0.0,0.0,0.0,0.04883280160575211,-0.006933227638669029,0.0067921488311418424,0.0,0.0,0.0,0.0,0.0,0.0,0.0,0.0,0.0
6.937,201,6,937000000,base_footprint,9.720908611804275e-05,0.003862483706503081,-0.028244007035678233,0.9995935913342878,0.0,0.0,0.0,0.0,0.0,0.0,0.0,0.0,0.0,-0.0011437985542904563,-0.00018929738539045615,-0.03697542820841316,0.0,0.0,0.0,0.0,0.0,0.0,0.0,0.0,0.0,0.3059464565213401,-0.045346045304960426,-0.008749159617150991,0.0,0.0,0.0,0.0,0.0,0.0,0.0,0.0,0.0
6.9670000000000005,202,6,971000000,base_footprint,9.863338037022142e-05,0.003861718115684438,-0.028427268416534975,0.9995883991999035,0.0,0.0,0.0,0.0,0.0,0.0,0.0,0.0,0.0,-0.000196575663379893,-0.0001126523786966616,-0.010318261058103531,0.0,0.0,0.0,0.0,0.0,0.0,0.0,0.0,0.0,-0.003261526628211802,-0.004921461429946961,-0.000987846770065319,0.0,0.0,0.0,0.0,0.0,0.0,0.0,0.0,0.0
7.006,203,7,5000000,base_footprint,9.840072933447338e-05,0.003862445962908617,-0.02859968600324228,0.999583478149272,0.0,0.0,0.0,0.0,0.0,0.0,0.0,0.0,0.0,-0.00021692667345974927,1.2861843111259682e-05,-0.008006918312143457,0.0,0.0,0.0,0.0,0.0,0.0,0.0,0.0,0.0,0.004746611427223905,-0.0028236100473387933,-0.00032812083179668453,0.0,0.0,0.0,0.0,0.0,0.0,0.0,0.0,0.0
7.039,204,7,39000000,base_footprint,9.807686040336828e-05,0.003864573255918493,-0.028732815597661106,0.9995796520349491,0.0,0.0,0.0,0.0,0.0,0.0,0.0,0.0,0.0,-0.0002008584669573376,2.0516943830089616e-05,-0.007915307860868257,0.0,0.0,0.0,0.0,0.0,0.0,0.0,0.0,0.0,0.004721617139912448,-0.0025577226476043735,-6.367792894317227e-05,0.0,0.0,0.0,0.0,0.0,0.0,0.0,0.0,0.0
7.08,205,7,73000000,base_footprint,9.745183364325566e-05,0.003868409266238261,-0.028866074150097062,0.9995757978642991,0.0,0.0,0.0,0.0,0.0,0.0,0.0,0.0,0.0,-0.00021124642364952253,0.00012943779142069763,-0.007738967896328663,0.0,0.0,0.0,0.0,0.0,0.0,0.0,0.0,0.0,0.0041816972390211725,-0.002458079618489151,-0.0002697353052155679,0.0,0.0,0.0,0.0,0.0,0.0,0.0,0.0,0.0
7.108,206,7,107000000,base_footprint,9.733815825567199e-05,0.0038732649562298774,-0.028990212394862696,0.9995721864523656,0.0,0.0,0.0,0.0,0.0,0.0,0.0,0.0,0.0,-8.381793680268545e-05,7.644827960898727e-05,-0.0065282119300645305,0.0,0.0,0.0,0.0,0.0,0.0,0.0,0.0,0.0,0.0012131489919170388,-0.0023015580481028936,7.800547952278295e-05,0.0,0.0,0.0,0.0,0.0,0.0,0.0,0.0,0.0
7.14,207,7,141000000,base_footprint,9.814682572019566e-05,0.003875565356966867,-0.029071506568557674,0.9995698164041363,0.0,0.0,0.0,0.0,0.0,0.0,0.0,0.0,0.0,-0.00016842085076057423,4.0551785890107215e-05,0.0004545924890407615,0.0,0.0,0.0,0.0,0.0,0.0,0.0,0.0,0.0,-0.0018095257575724976,-0.0019190255242941567,-4.1814041434476296e-05,0.0,0.0,0.0,0.0,0.0,0.0,0.0,0.0,0.0
7.175,208,7,175000000,base_footprint,0.00010504299873276952,0.00387376562583504,-0.0290555394599507,0.9995702869396108,0.0,0.0,0.0,0.0,0.0,0.0,0.0,0.0,0.0,0.00043835592991303934,-8.687133315233802e-05,-0.00032848947602436343,0.0,0.0,0.0,0.0,0.0,0.0,0.0,0.0,0.0,-0.004456173873141208,0.007179943514062348,0.0003454932261434493,0.0,0.0,0.0,0.0,0.0,0.0,0.0,0.0,0.0
7.209,209,7,209000000,base_footprint,0.00010024861191047689,0.0038640582021095267,-0.029030443214422285,0.9995710541883457,0.0,0.0,0.0,0.0,0.0,0.0,0.0,0.0,0.0,0.0005391925396773346,-0.0036798855659053234,-0.003162569885354885,0.0,0.0,0.0,0.0,0.0,0.0,0.0,0.0,0.0,-0.07472531599932263,0.010211874032405852,0.007026564260175966,0.0,0.0,0.0,0.0,0.0,0.0,0.0,0.0,0.0
7.243,210,7,243000000,base_footprint,0.00010750770024780036,0.0038766825518514094,-0.02914308794109362,0.9995677266697561,0.0,0.0,0.0,0.0,0.0,0.0,0.0,0.0,0.0,0.0010943389548459784,-0.0018925821771502028,0.0043394891730175866,0.0,0.0,0.0,0.0,0.0,0.0,0.0,0.0,0.0,-0.23206566629042688,0.02015315842869543,-0.003475452939764849,0.0,0.0,0.0,0.0,0.0,0.0,0.0,0.0,0.0
7.277,211,7,277000000,base_footprint,0.00010684507317551985,0.003873750302407794,-0.02904948280393847,0.9995704628446904,0.0,0.0,0.0,0.0,0.0,0.0,0.0,0.0,0.0,6.230275099976173e-06,-0.0003908584825825408,-0.0032107138393218763,0.0,0.0,0.0,0.0,0.0,0.0,0.0,0.0,0.0,-0.07315168535347172,0.010410771011470865,-0.00011489520771458226,0.0,0.0,0.0,0.0,0.0,0.0,0.0,0.0,0.0
7.312,212,7,311000000,base_footprint,0.00010238042702932858,0.0038525296522487627,-0.029160108095939552,0.9995673242105106,0.0,0.0,0.0,0.0,0.0,0.0,0.0,0.0,0.0,-0.0024138992146156128,-0.0004146287799446305,-0.03956469601328958,0.0,0.0,0.0,0.0,0.0,0.0,0.0,0.0,0.0,0.1280786318931029,-0.012975044275743978,0.0006837862094057106,0.0,0.0,0.0,0.0,0.0,0.0,0.0,0.0,0.0
7.345,213,7,345000000,base_footprint,0.00010541451726642132,0.003855899069023443,-0.030333942099712116,0.9995323771078356,0.0,0.0,0.0,0.0,0.0,0.0,0.0,0.0,0.0,0.00036292879859918,-0.0008024186160746288,-0.010948521159977234,0.0,0.0,0.0,0.0,0.0,0.0,0.0,0.0,0.0,0.19168342810733657,-0.043335918947859146,-0.002263177170623658,0.0,0.0,0.0,0.0,0.0,0.0,0.0,0.0,0.0
7.379,214,7,379000000,base_footprint,0.00011026656254602335,0.003864447170295709,-0.030370519820836907,0.9995312328362559,0.0,0.0,0.0,0.0,0.0,0.0,0.0,0.0,0.0,-4.9163783216779454e-05,-0.0004033231145472235,-0.0020083084393208456,0.0,0.0,0.0,0.0,0.0,0.0,0.0,0.0,0.0,0.03586792011910896,-0.0035079729238136487,-0.0008950890435572937,0.0,0.0,0.0,0.0,0.0,0.0,0.0,0.0,0.0
7.413,215,7,413000000,base_footprint,0.000110823808190235,0.0038625523773895215,-0.030517643273515384,0.9995267589495772,0.0,0.0,0.0,0.0,0.0,0.0,0.0,0.0,0.0,-0.0005626237578092893,-0.0010613213661523635,-0.05236459152718482,0.0,0.0,0.0,0.0,0.0,0.0,0.0,0.0,0.0,-0.22351893881610785,0.02517526055839412,0.0025031426163149508,0.0,0.0,0.0,0.0,0.0,0.0,0.0,0.0,0.0
7.447,216,7,447000000,base_footprint,0.00011213390763275924,0.003863134489700325,-0.031447524638961055,0.999497932370039,0.0,0.0,0.0,0.0,0.0,0.0,0.0,0.0,0.0,-0.00016553639546047327,-0.0013281578527826895,-0.0017408850067848712,0.0,0.0,0.0,0.0,0.0,0.0,0.0,0.0,0.0,-0.10598329247438476,-0.0008863662665817337,0.0013030663680336449,0.0,0.0,0.0,0.0,0.0,0.0,0.0,0.0,0.0
7.481,217,7,481000000,base_footprint,0.00011130032772505545,0.003862061784032954,-0.031493398179054034,0.9994964922210328,0.0,0.0,0.0,0.0,0.0,0.0,0.0,0.0,0.0,-7.841323682291407e-05,-0.00010415216359554996,-0.0029996231351225736,0.0,0.0,0.0,0.0,0.0,0.0,0.0,0.0,0.0,0.005799815871288155,0.0013209682902350867,-0.0018030094969846337,0.0,0.0,0.0,0.0,0.0,0.0,0.0,0.0,0.0
7.52,218,7,515000000,base_footprint,0.00010964118247892223,0.0038644445423623485,-0.03147899783037556,0.9994969368351188,0.0,0.0,0.0,0.0,0.0,0.0,0.0,0.0,0.0,-2.9702788855916795e-05,-0.00032374860516685473,0.007136661458678253,0.0,0.0,0.0,0.0,0.0,0.0,0.0,0.0,0.0,0.0021858377802569102,-0.0007568490783503443,0.00018890778191821568,0.0,0.0,0.0,0.0,0.0,0.0,0.0,0.0,0.0
7.549,219,7,549000000,base_footprint,0.00010755507432204693,0.003868306547876647,-0.03135995753641714,0.9995006641817061,0.0,0.0,0.0,0.0,0.0,0.0,0.0,0.0,0.0,-7.379653450243389e-05,3.657862146642813e-05,0.006980992061466256,0.0,0.0,0.0,0.0,0.0,0.0,0.0,0.0,0.0,0.004761682324170168,0.0008776659294612472,-0.0006739304698328508,0.0,0.0,0.0,0.0,0.0,0.0,0.0,0.0,0.0
7.583,220,7,583000000,base_footprint,0.00010673465340161494,0.003871570234894693,-0.031234249270972972,0.9995045878954777,0.0,0.0,0.0,0.0,0.0,0.0,0.0,0.0,0.0,-2.3726523286582027e-05,5.2740799716534774e-05,0.008024193732114368,0.0,0.0,0.0,0.0,0.0,0.0,0.0,0.0,0.0,0.002115117536541829,0.0007541022329699561,-5.952467349672664e-05,0.0,0.0,0.0,0.0,0.0,0.0,0.0,0.0,0.0
7.617,221,7,617000000,base_footprint,0.00010945052054597616,0.003865871006728412,-0.031021068134165934,0.9995112487579909,0.0,0.0,0.0,0.0,0.0,0.0,0.0,0.0,0.0,0.0009693002024298668,0.00111743575892184,0.010820310117867743,0.0,0.0,0.0,0.0,0.0,0.0,0.0,0.0,0.0,0.15797455877761865,-0.017145226771542295,-0.0024504970641699214,0.0,0.0,0.0,0.0,0.0,0.0,0.0,0.0,0.0
7.651,222,7,651000000,base_footprint,0.00010975968303527805,0.003865557913159221,-0.031028567388946673,0.9995110171582011,0.0,0.0,0.0,0.0,0.0,0.0,0.0,0.0,0.0,0.0007490173017308495,0.001042177850894857,0.018527433566862192,0.0,0.0,0.0,0.0,0.0,0.0,0.0,0.0,0.0,0.1784934209942244,-0.016691882754927785,-0.002174165036299501,0.0,0.0,0.0,0.0,0.0,0.0,0.0,0.0,0.0
7.684,223,7,685000000,base_footprint,0.00011574501276544812,0.0038710860181192064,-0.030732744605689834,0.9995201347172221,0.0,0.0,0.0,0.0,0.0,0.0,0.0,0.0,0.0,0.0003887874054523997,0.00012905037122674134,0.025960533032636998,0.0,0.0,0.0,0.0,0.0,0.0,0.0,0.0,0.0,-0.034418401886584016,0.004748595682921454,0.001986879964875023,0.0,0.0,0.0,0.0,0.0,0.0,0.0,0.0,0.0
7.72,224,7,719000000,base_footprint,0.00010587289494335574,0.0038680688969403546,-0.030314922065987734,0.9995329070791376,0.0,0.0,0.0,0.0,0.0,0.0,0.0,0.0,0.0,-0.0003340930520857892,-0.000705559173476629,0.023381010561013528,0.0,0.0,0.0,0.0,0.0,0.0,0.0,0.0,0.0,0.0023595071592696433,0.015265827761392466,0.0020924564080149317,0.0,0.0,0.0,0.0,0.0,0.0,0.0,0.0,0.0
7.755,225,7,753000000,base_footprint,0.00010278096442325232,0.003869920066509854,-0.03010569982190993,0.9995392238391575,0.0,0.0,0.0,0.0,0.0,0.0,0.0,0.0,0.0,0.0005636382727760824,6.300802500949537e-05,-0.003010425919698626,0.0,0.0,0.0,0.0,0.0,0.0,0.0,0.0,0.0,-0.06004813086689541,-0.0007318516592332643,-0.0016036335145254144,0.0,0.0,0.0,0.0,0.0,0.0,0.0,0.0,0.0
7.787,226,7,787000000,base_footprint,0.0001026006522648796,0.003864695978679021,-0.03013017661201008,0.9995385065396069,0.0,0.0,0.0,0.0,0.0,0.0,0.0,0.0,0.0,0.00022303331711386585,0.0001535859967111787,0.006495928059409482,0.0,0.0,0.0,0.0,0.0,0.0,0.0,0.0,0.0,0.022613300272063375,-0.002979116986581961,0.000310904209179915,0.0,0.0,0.0,0.0,0.0,0.0,0.0,0.0,0.0
7.821,227,7,821000000,base_footprint,0.0001064709359739229,0.0038664316777284203,-0.029885592980833132,0.9995458422214588,0.0,0.0,0.0,0.0,0.0,0.0,0.0,0.0,0.0,0.00017422645476850428,-0.0002583293690404674,0.0143384669714012,0.0,0.0,0.0,0.0,0.0,0.0,0.0,0.0,0.0,0.037739117413995535,-0.0009898490121103376,0.00018825600944423742,0.0,0.0,0.0,0.0,0.0,0.0,0.0,0.0,0.0
7.855,228,7,855000000,base_footprint,0.00010533036527472165,0.003864192682389632,-0.029640716740657765,0.9995531425749846,0.0,0.0,0.0,0.0,0.0,0.0,0.0,0.0,0.0,0.0001762106731353431,-0.00023643967363396276,0.014142638751422036,0.0,0.0,0.0,0.0,0.0,0.0,0.0,0.0,0.0,0.005909884349898454,0.0020347574343358463,-0.00013427552827735353,0.0,0.0,0.0,0.0,0.0,0.0,0.0,0.0,0.0
7.889,229,7,889000000,base_footprint,0.00010389167313459995,0.0038628457523161843,-0.02940315204797787,0.9995601644117564,0.0,0.0,0.0,0.0,0.0,0.0,0.0,0.0,0.0,5.149864160352008e-05,-0.0003143930925004297,0.013845498172016588,0.0,0.0,0.0,0.0,0.0,0.0,0.0,0.0,0.0,0.005533252183569754,0.0019358790217311615,0.00018860405580575258,0.0,0.0,0.0,0.0,0.0,0.0,0.0,0.0,0.0
7.923,230,7,923000000,base_footprint,0.00010189544206025402,0.003861421921549718,-0.029101328461221276,0.999569002980712,0.0,0.0,0.0,0.0,0.0,0.0,0.0,0.0,0.0,0.00013204819087385796,-0.00020360552553314124,0.020059349067551364,0.0,0.0,0.0,0.0,0.0,0.0,0.0,0.0,0.0,0.004322818822320716,0.003338340991976567,-0.00019712228028888803,0.0,0.0,0.0,0.0,0.0,0.0,0.0,0.0,0.0
7.957,231,7,957000000,base_footprint,9.940910978814493e-05,0.0038622971306175613,-0.02876174163503164,0.9995788288058244,0.0,0.0,0.0,0.0,0.0,0.0,0.0,0.0,0.0,5.675227924852746e-05,-7.845203330091701e-05,0.01989216329703232,0.0,0.0,0.0,0.0,0.0,0.0,0.0,0.0,0.0,0.0060169608084224635,0.003625988612166636,-0.0003641769376616772,0.0,0.0,0.0,0.0,0.0,0.0,0.0,0.0,0.0
7.991,232,7,991000000,base_footprint,9.76044490553314e-05,0.0038635380943742113,-0.028423474521306766,0.9995885001553897,0.0,0.0,0.0,0.0,0.0,0.0,0.0,0.0,0.0,4.1198585717581025e-05,-9.19487719125954e-05,0.019780516947142498,0.0,0.0,0.0,0.0,0.0,0.0,0.0,0.0,0.0,0.00566108742181436,0.002697883211459594,-8.529033247992112e-05,0.0,0.0,0.0,0.0,0.0,0.0,0.0,0.0,0.0
8.025,233,8,25000000,base_footprint,9.538873359560926e-05,0.0038658810364470084,-0.02809290964786582,0.9995978362783298,0.0,0.0,0.0,0.0,0.0,0.0,0.0,0.0,0.0,8.563765028276733e-06,2.9375072283622687e-05,0.019375941831826143,0.0,0.0,0.0,0.0,0.0,0.0,0.0,0.0,0.0,0.005353292888255506,0.003457296997437461,-0.00030927164601925026,0.0,0.0,0.0,0.0,0.0,0.0,0.0,0.0,0.0
8.059,234,8,59000000,base_footprint,9.297449801469462e-05,0.0038701949615561914,-0.0277572593942728,0.9996071966015557,0.0,0.0,0.0,0.0,0.0,0.0,0.0,0.0,0.0,9.223452949216109e-05,0.00012902859471400889,0.02029818796248583,0.0,0.0,0.0,0.0,0.0,0.0,0.0,0.0,0.0,0.0030807373309878717,0.003845764662913976,-0.0003223709236739068,0.0,0.0,0.0,0.0,0.0,0.0,0.0,0.0,0.0
8.093,235,8,93000000,base_footprint,9.072145727544547e-05,0.0038738350230879074,-0.02739364350281928,0.9996172134709724,0.0,0.0,0.0,0.0,0.0,0.0,0.0,0.0,0.0,0.00013182109878880356,0.0001277298739286813,0.02246358055294234,0.0,0.0,0.0,0.0,0.0,0.0,0.0,0.0,0.0,-0.00030224905864449354,0.004151218154247836,-3.4352389707631134e-05,0.0,0.0,0.0,0.0,0.0,0.0,0.0,0.0,0.0
8.127,236,8,127000000,base_footprint,9.112995856190336e-05,0.003870737801492181,-0.027738411676110946,0.9996077178583054,0.0,0.0,0.0,0.0,0.0,0.0,0.0,0.0,0.0,0.0015019145111192975,0.0019483606168464148,-0.08517885308021303,0.0,0.0,0.0,0.0,0.0,0.0,0.0,0.0,0.0,-0.24553812441435524,0.030742451930976526,-0.0016978006087324242,0.0,0.0,0.0,0.0,0.0,0.0,0.0,0.0,0.0
8.161,237,8,161000000,base_footprint,0.00010356017794660949,0.003863677175099968,-0.028915455646515913,0.9995743882766959,0.0,0.0,0.0,0.0,0.0,0.0,0.0,0.0,0.0,0.0008584370342735886,0.0006066348265944396,-0.029477041626894858,0.0,0.0,0.0,0.0,0.0,0.0,0.0,0.0,0.0,0.019029155874737427,-0.022501262880977216,0.0034686443023252225,0.0,0.0,0.0,0.0,0.0,0.0,0.0,0.0,0.0
8.195,238,8,195000000,base_footprint,0.00010606405620848342,0.003868306220409877,-0.02898356908470024,0.9995723974182729,0.0,0.0,0.0,0.0,0.0,0.0,0.0,0.0,0.0,-0.000629060496707787,0.00027923220905067404,0.023248801858577885,0.0,0.0,0.0,0.0,0.0,0.0,0.0,0.0,0.0,-0.15880623159949772,0.02524282889665063,0.0007952733762007324,0.0,0.0,0.0,0.0,0.0,0.0,0.0,0.0,0.0
8.229,239,8,229000000,base_footprint,0.00010010665288670516,0.0038711155218238524,-0.0288808955190795,0.9995753589986554,0.0,0.0,0.0,0.0,0.0,0.0,0.0,0.0,0.0,0.0006390715711925347,0.00028189137858130903,-0.007299669029450979,0.0,0.0,0.0,0.0,0.0,0.0,0.0,0.0,0.0,-0.05251037207239125,-0.0002749920633857599,0.0004572958896456538,0.0,0.0,0.0,0.0,0.0,0.0,0.0,0.0,0.0
8.263,240,8,263000000,base_footprint,9.745236404779527e-05,0.0038652261706461945,-0.028983663551403777,0.9995724074707273,0.0,0.0,0.0,0.0,0.0,0.0,0.0,0.0,0.0,-0.00035379627438333005,-0.0002793774893946461,0.0013433033011129715,0.0,0.0,0.0,0.0,0.0,0.0,0.0,0.0,0.0,0.020173831247072293,-0.003109028641879847,0.0015213763854157669,0.0,0.0,0.0,0.0,0.0,0.0,0.0,0.0,0.0
8.296,241,8,297000000,base_footprint,0.00010244001501134097,0.0038674623951832363,-0.02872234544972228,0.9995799413316235,0.0,0.0,0.0,0.0,0.0,0.0,0.0,0.0,0.0,2.2151061675271744e-05,-0.0007151990171272695,0.019619044121347955,0.0,0.0,0.0,0.0,0.0,0.0,0.0,0.0,0.0,0.0432267601111283,-0.0009041932160844411,-5.933300376443056e-06,0.0,0.0,0.0,0.0,0.0,0.0,0.0,0.0,0.0
8.331,242,8,331000000,base_footprint,0.00010441559955284142,0.003866542855897315,-0.029310137002340444,0.9995628818701853,0.0,0.0,0.0,0.0,0.0,0.0,0.0,0.0,0.0,-0.00014441551639232946,0.00146518693250199,-0.08877908123586771,0.0,0.0,0.0,0.0,0.0,0.0,0.0,0.0,0.0,0.392647185697148,-0.05167890461877428,-0.005662792341494895,0.0,0.0,0.0,0.0,0.0,0.0,0.0,0.0,0.0
8.365,243,8,365000000,base_footprint,0.00010489431476716985,0.0038629658934478213,-0.029410242185016776,0.9995599552534642,0.0,0.0,0.0,0.0,0.0,0.0,0.0,0.0,0.0,0.00013129726353581868,2.2772463859322946e-05,0.013942861810992269,0.0,0.0,0.0,0.0,0.0,0.0,0.0,0.0,0.0,-0.04312261677117675,0.0011102429015985022,0.002036382684739071,0.0,0.0,0.0,0.0,0.0,0.0,0.0,0.0,0.0
8.399000000000001,244,8,399000000,base_footprint,0.00010290592901699965,0.0038614328948750397,-0.029176663983488654,0.9995668066843572,0.0,0.0,0.0,0.0,0.0,0.0,0.0,0.0,0.0,7.058528430036563e-05,-0.0002269616408488645,0.013591658007596473,0.0,0.0,0.0,0.0,0.0,0.0,0.0,0.0,0.0,0.005742903378428408,0.0018330981688168596,0.0002201360211547556,0.0,0.0,0.0,0.0,0.0,0.0,0.0,0.0,0.0
8.433,245,8,433000000,base_footprint,0.00010025243782192603,0.003861766860841799,-0.02876275409652635,0.9995788016374418,0.0,0.0,0.0,0.0,0.0,0.0,0.0,0.0,0.0,0.00015334537600612125,-0.000122814239530444,0.025191213695591498,0.0,0.0,0.0,0.0,0.0,0.0,0.0,0.0,0.0,0.0030702626667070626,0.004851826406288672,-0.00022879547286542887,0.0,0.0,0.0,0.0,0.0,0.0,0.0,0.0,0.0
8.467,246,8,467000000,base_footprint,9.731253596444742e-05,0.003863874697026369,-0.02833597506800204,0.9995909831123636,0.0,0.0,0.0,0.0,0.0,0.0,0.0,0.0,0.0,0.00012680854955692482,-3.91199656850897e-05,0.024993805881188078,0.0,0.0,0.0,0.0,0.0,0.0,0.0,0.0,0.0,0.006046123116472747,0.0047042737756898614,-0.0002387794353237492,0.0,0.0,0.0,0.0,0.0,0.0,0.0,0.0,0.0
8.504,247,8,501000000,base_footprint,9.495324679436614e-05,0.0038666599322849955,-0.027911176078425824,0.9996029242528096,0.0,0.0,0.0,0.0,0.0,0.0,0.0,0.0,0.0,0.00010806793472393604,-0.00014676599971689185,0.024874728303283456,0.0,0.0,0.0,0.0,0.0,0.0,0.0,0.0,0.0,0.005639735499048987,0.003697608443967202,3.64477453019186e-06,0.0,0.0,0.0,0.0,0.0,0.0,0.0,0.0,0.0
8.535,248,8,535000000,base_footprint,9.233506938510374e-05,0.003869774170611727,-0.027394165674525756,0.9996172147422733,0.0,0.0,0.0,0.0,0.0,0.0,0.0,0.0,0.0,0.00011221523105408982,9.297414581553332e-05,0.03098386891937168,0.0,0.0,0.0,0.0,0.0,0.0,0.0,0.0,0.0,0.00306449257012717,0.005851167027146135,-0.0004730228789114438,0.0,0.0,0.0,0.0,0.0,0.0,0.0,0.0,0.0
8.569,249,8,569000000,base_footprint,8.937824968512941e-05,0.0038731980183937193,-0.026852735821603538,0.9996318927122794,0.0,0.0,0.0,0.0,0.0,0.0,0.0,0.0,0.0,0.0002062480840863146,5.850515380930767e-05,0.03294251596742616,0.0,0.0,0.0,0.0,0.0,0.0,0.0,0.0,0.0,0.00044708913166462973,0.0065809169111625465,-5.7084506211473114e-05,0.0,0.0,0.0,0.0,0.0,0.0,0.0,0.0,0.0
8.606,250,8,603000000,base_footprint,9.0361132296661e-05,0.003874915069241896,-0.026286069119776916,0.9996469473960806,0.0,0.0,0.0,0.0,0.0,0.0,0.0,0.0,0.0,0.0007856759723833699,-0.00027627990325301117,0.03197903487811165,0.0,0.0,0.0,0.0,0.0,0.0,0.0,0.0,0.0,0.0030617653442245756,0.011108492475222307,0.0006883048111599112,0.0,0.0,0.0,0.0,0.0,0.0,0.0,0.0,0.0
8.637,251,8,637000000,base_footprint,9.469691441647828e-05,0.003874441243574342,-0.0257511199766308,0.9996608722749399,0.0,0.0,0.0,0.0,0.0,0.0,0.0,0.0,0.0,0.0004519057991651608,-0.000363829778403984,0.03488817746221827,0.0,0.0,0.0,0.0,0.0,0.0,0.0,0.0,0.0,-0.014695231756246919,0.005029302778779832,0.0002569299131175208,0.0,0.0,0.0,0.0,0.0,0.0,0.0,0.0,0.0
8.672,252,8,671000000,base_footprint,8.858040826789487e-05,0.003873953667044432,-0.025103957851868912,0.9996773359122775,0.0,0.0,0.0,0.0,0.0,0.0,0.0,0.0,0.0,-0.0006607166573001126,-0.00018548137817849116,0.028904359617323322,0.0,0.0,0.0,0.0,0.0,0.0,0.0,0.0,0.0,-0.024999254922158855,0.017951240653834456,-0.0001420593478998446,0.0,0.0,0.0,0.0,0.0,0.0,0.0,0.0,0.0
8.704,253,8,705000000,base_footprint,8.440469779154725e-05,0.0038713917067874346,-0.024834755759642047,0.9996840701483937,0.0,0.0,0.0,0.0,0.0,0.0,0.0,0.0,0.0,-6.975501076884271e-05,-0.00023727742192892172,0.00167681472896141,0.0,0.0,0.0,0.0,0.0,0.0,0.0,0.0,0.0,-0.054544544445449115,0.0016866679496732831,0.001086302442878894,0.0,0.0,0.0,0.0,0.0,0.0,0.0,0.0,0.0
8.741,254,8,739000000,base_footprint,8.266808001663591e-05,0.003867600786811292,-0.02477570102018473,0.999685550295242,0.0,0.0,0.0,0.0,0.0,0.0,0.0,0.0,0.0,0.000820557044560821,0.0002262814682561814,0.014282331665860607,0.0,0.0,0.0,0.0,0.0,0.0,0.0,0.0,0.0,0.03585516906215947,-0.0005553776276796983,-0.002074569193958582,0.0,0.0,0.0,0.0,0.0,0.0,0.0,0.0,0.0
8.775,255,8,773000000,base_footprint,8.512176598817426e-05,0.003867615450941594,-0.024385676878237547,0.9996951400643093,0.0,0.0,0.0,0.0,0.0,0.0,0.0,0.0,0.0,0.00035851683631493855,-0.00016200171833227067,0.024086269513557124,0.0,0.0,0.0,0.0,0.0,0.0,0.0,0.0,0.0,0.026225285184093713,0.0026695433909856726,0.0011663416226617986,0.0,0.0,0.0,0.0,0.0,0.0,0.0,0.0,0.0
8.807,256,8,807000000,base_footprint,8.347129995788911e-05,0.0038649574009647085,-0.023999958449762243,0.9997044849010335,0.0,0.0,0.0,0.0,0.0,0.0,0.0,0.0,0.0,-0.00016775860418860431,-0.00014849663035159503,0.015177361826704145,0.0,0.0,0.0,0.0,0.0,0.0,0.0,0.0,0.0,0.0065523574347056005,0.0047034755371517184,-6.485977632378822e-05,0.0,0.0,0.0,0.0,0.0,0.0,0.0,0.0,0.0
8.841,257,8,841000000,base_footprint,8.233896667635026e-05,0.003862812373874354,-0.02373727318150378,0.9997107650529555,0.0,0.0,0.0,0.0,0.0,0.0,0.0,0.0,0.0,9.798042165202008e-05,-0.0003089522163509628,0.0154159296576239,0.0,0.0,0.0,0.0,0.0,0.0,0.0,0.0,0.0,0.006285425099521004,0.0022344730624200833,0.0002497399016573127,0.0,0.0,0.0,0.0,0.0,0.0,0.0,0.0,0.0
8.875,258,8,875000000,base_footprint,8.050875369341327e-05,0.0038617325434137533,-0.0234768330934098,0.9997169193566787,0.0,0.0,0.0,0.0,0.0,0.0,0.0,0.0,0.0,9.86464820250991e-05,-0.00021247466165828547,0.015187192432796825,0.0,0.0,0.0,0.0,0.0,0.0,0.0,0.0,0.0,0.005969706234033394,0.0027744158257231146,-0.00022685214708959562,0.0,0.0,0.0,0.0,0.0,0.0,0.0,0.0,0.0
8.909,259,8,909000000,base_footprint,7.846602429823486e-05,0.0038626820457624412,-0.023198688521018092,0.9997234089393932,0.0,0.0,0.0,0.0,0.0,0.0,0.0,0.0,0.0,0.00018348258960666455,-5.6605530576588515e-05,0.021489585524203846,0.0,0.0,0.0,0.0,0.0,0.0,0.0,0.0,0.0,0.004288766880054933,0.0029465802101449503,-0.0002367494524608878,0.0,0.0,0.0,0.0,0.0,0.0,0.0,0.0,0.0
8.943,260,8,943000000,base_footprint,7.603056321148796e-05,0.0038645243752436225,-0.022839080403769727,0.999731682041245,0.0,0.0,0.0,0.0,0.0,0.0,0.0,0.0,0.0,0.0001067166967309888,-2.9320953998237162e-05,0.021000909037288743,0.0,0.0,0.0,0.0,0.0,0.0,0.0,0.0,0.0,0.005831881339535853,0.0041098107080072875,-0.00023449492702473423,0.0,0.0,0.0,0.0,0.0,0.0,0.0,0.0,0.0
8.977,261,8,977000000,base_footprint,7.419794790570137e-05,0.0038672260937301635,-0.022482038437509455,0.9997397646411285,0.0,0.0,0.0,0.0,0.0,0.0,0.0,0.0,0.0,4.0151890948418404e-05,-1.228883588547062e-06,0.020987400578307336,0.0,0.0,0.0,0.0,0.0,0.0,0.0,0.0,0.0,0.005379620049661095,0.0028979471411384626,-0.00021965446889793126,0.0,0.0,0.0,0.0,0.0,0.0,0.0,0.0,0.0
9.011,262,9,11000000,base_footprint,6.769574018601351e-05,0.0038708383841204543,-0.022213462629117314,0.9997457547324298,0.0,0.0,0.0,0.0,0.0,0.0,0.0,0.0,0.0,-0.001138073891203641,0.0014438442529187316,-0.015091115397419782,0.0,0.0,0.0,0.0,0.0,0.0,0.0,0.0,0.0,-0.16739736882713097,0.017461866259730598,-0.0010012860732012162,0.0,0.0,0.0,0.0,0.0,0.0,0.0,0.0,0.0
9.047,263,9,45000000,base_footprint,7.928000625176188e-05,0.0038652413791175977,-0.023152376577091082,0.9997244725836186,0.0,0.0,0.0,0.0,0.0,0.0,0.0,0.0,0.0,0.00018035129819826343,0.0017214076561832745,0.0008499301637747608,0.0,0.0,0.0,0.0,0.0,0.0,0.0,0.0,0.0,-0.12472992347106014,0.004503886560326749,0.0014534032045903924,0.0,0.0,0.0,0.0,0.0,0.0,0.0,0.0,0.0
9.079,264,9,79000000,base_footprint,7.587896353228015e-05,0.0038763179145836265,-0.02266595753531082,0.9997355764254945,0.0,0.0,0.0,0.0,0.0,0.0,0.0,0.0,0.0,0.0007385073913461877,-0.0006681499890321704,0.03367053890911066,0.0,0.0,0.0,0.0,0.0,0.0,0.0,0.0,0.0,-0.05882984302245191,0.009012624673323049,0.0034348012411080575,0.0,0.0,0.0,0.0,0.0,0.0,0.0,0.0,0.0
9.113,265,9,113000000,base_footprint,8.054550742471522e-05,0.003861694279177227,-0.022081474901114364,0.9997487130753943,0.0,0.0,0.0,0.0,0.0,0.0,0.0,0.0,0.0,0.0004376455737210719,-0.0018485828446254682,0.0477320016369171,0.0,0.0,0.0,0.0,0.0,0.0,0.0,0.0,0.0,0.03752458722357681,0.006931045559113745,0.0010060591542991946,0.0,0.0,0.0,0.0,0.0,0.0,0.0,0.0,0.0
9.147,266,9,147000000,base_footprint,7.760074284788504e-05,0.003860074757249665,-0.02160459613653588,0.9997591386062796,0.0,0.0,0.0,0.0,0.0,0.0,0.0,0.0,0.0,-0.00081929783342649,0.0007016001928043696,-0.0012102010077040995,0.0,0.0,0.0,0.0,0.0,0.0,0.0,0.0,0.0,0.07458942136086422,0.006246037775052811,-0.0029619910798483673,0.0,0.0,0.0,0.0,0.0,0.0,0.0,0.0,0.0
9.18,267,9,181000000,base_footprint,6.804938144668759e-05,0.0038632463615508755,-0.022325586040557965,0.9997432865014786,0.0,0.0,0.0,0.0,0.0,0.0,0.0,0.0,0.0,-0.0029000304759326584,-0.0024609899404090673,-0.05403510440876079,0.0,0.0,0.0,0.0,0.0,0.0,0.0,0.0,0.0,0.01901442101176171,-0.018895859107184727,0.005114468777190972,0.0,0.0,0.0,0.0,0.0,0.0,0.0,0.0,0.0
9.215,268,9,215000000,base_footprint,7.272375625057826e-05,0.0038584411218980114,-0.023136619558355307,0.9997248641395172,0.0,0.0,0.0,0.0,0.0,0.0,0.0,0.0,0.0,-3.710815411318067e-05,-0.00041617940706915185,-0.031925456486525915,0.0,0.0,0.0,0.0,0.0,0.0,0.0,0.0,0.0,0.049234372371274225,-0.015019580249329933,-0.00480734756599074,0.0,0.0,0.0,0.0,0.0,0.0,0.0,0.0,0.0
9.249,269,9,249000000,base_footprint,7.729627696157752e-05,0.003862045999148471,-0.023189888429495785,0.9997236156561541,0.0,0.0,0.0,0.0,0.0,0.0,0.0,0.0,0.0,0.0018024078376732613,0.0017844650539150344,0.027507817928780015,0.0,0.0,0.0,0.0,0.0,0.0,0.0,0.0,0.0,0.1306851116469636,-0.01668140239029016,-0.005087462910810785,0.0,0.0,0.0,0.0,0.0,0.0,0.0,0.0,0.0
9.283,270,9,283000000,base_footprint,7.73265956395564e-05,0.0038635416830683426,-0.022683368189041733,0.9997352308855886,0.0,0.0,0.0,0.0,0.0,0.0,0.0,0.0,0.0,0.0002027677795996898,-0.00021807939026945324,0.029541016255914373,0.0,0.0,0.0,0.0,0.0,0.0,0.0,0.0,0.0,0.010719638197926632,0.008353040363114675,0.003444867756806409,0.0,0.0,0.0,0.0,0.0,0.0,0.0,0.0,0.0
9.317,271,9,317000000,base_footprint,7.553935956687032e-05,0.0038626088246931436,-0.022246485138551722,0.9997450517236146,0.0,0.0,0.0,0.0,0.0,0.0,0.0,0.0,0.0,0.00010741918520411743,-0.0001363814118491508,0.020886681243023807,0.0,0.0,0.0,0.0,0.0,0.0,0.0,0.0,0.0,0.00810527544848338,0.004693766987417853,-4.5820885774977995e-05,0.0,0.0,0.0,0.0,0.0,0.0,0.0,0.0,0.0
9.351,272,9,351000000,base_footprint,7.329050529282695e-05,0.003861638743033487,-0.021890393181155193,0.9997529160052971,0.0,0.0,0.0,0.0,0.0,0.0,0.0,0.0,0.0,4.399180568624779e-05,-0.00016163000014729421,0.02095621832103806,0.0,0.0,0.0,0.0,0.0,0.0,0.0,0.0,0.0,0.005616312868099271,0.003974900573547845,-5.687646586658049e-05,0.0,0.0,0.0,0.0,0.0,0.0,0.0,0.0,0.0
9.385,273,9,385000000,base_footprint,7.132216652516113e-05,0.0038619840411949747,-0.02153375106302532,0.999760660137,0.0,0.0,0.0,0.0,0.0,0.0,0.0,0.0,0.0,6.373448346257832e-05,-0.00012173578697271429,0.021054366421250498,0.0,0.0,0.0,0.0,0.0,0.0,0.0,0.0,0.0,0.005415018261642938,0.0038684580234700093,-0.00012458379733081113,0.0,0.0,0.0,0.0,0.0,0.0,0.0,0.0,0.0
9.419,274,9,419000000,base_footprint,7.192308477964538e-05,0.0038641533324219155,-0.021789166029636407,0.9997551177112456,0.0,0.0,0.0,0.0,0.0,0.0,0.0,0.0,0.0,-0.0005644618566041275,9.44767473835299e-05,-0.05547225608836241,0.0,0.0,0.0,0.0,0.0,0.0,0.0,0.0,0.0,0.026680340603330625,-0.0036515018379169053,-0.0007063996828954011,0.0,0.0,0.0,0.0,0.0,0.0,0.0,0.0,0.0
9.453,275,9,453000000,base_footprint,7.451901355238386e-05,0.003867262378871621,-0.022725203898664788,0.9997342666110699,0.0,0.0,0.0,0.0,0.0,0.0,0.0,0.0,0.0,-0.000556442952580695,0.00011427085968174589,-0.05502628093085211,0.0,0.0,0.0,0.0,0.0,0.0,0.0,0.0,0.0,0.002092252122796659,-0.013725848233901229,2.1005237332325633e-05,0.0,0.0,0.0,0.0,0.0,0.0,0.0,0.0,0.0
9.487,276,9,487000000,base_footprint,7.701348663096253e-05,0.003872586555088655,-0.023657197624963457,0.9997126257794435,0.0,0.0,0.0,0.0,0.0,0.0,0.0,0.0,0.0,-0.0005481722516324349,0.00022404617739804131,-0.05446889144077336,0.0,0.0,0.0,0.0,0.0,0.0,0.0,0.0,0.0,0.0018536861217757713,-0.012629830821050217,-0.00025562531808825294,0.0,0.0,0.0,0.0,0.0,0.0,0.0,0.0,0.0
9.521,277,9,521000000,base_footprint,8.009913829391994e-05,0.0038760694322217174,-0.02450931790898988,0.9996920840966587,0.0,0.0,0.0,0.0,0.0,0.0,0.0,0.0,0.0,-0.000279778007008499,-0.00012629947579852234,-0.04629389814517019,0.0,0.0,0.0,0.0,0.0,0.0,0.0,0.0,0.0,-0.005890889615621262,-0.011134903591774952,0.0005825891570273405,0.0,0.0,0.0,0.0,0.0,0.0,0.0,0.0,0.0
9.555,278,9,555000000,base_footprint,8.805138680560339e-05,0.0038752007909037206,-0.02529462534959521,0.9996725248771255,0.0,0.0,0.0,0.0,0.0,0.0,0.0,0.0,0.0,0.00020477874495232443,-0.0002857466738333496,-0.04685819313291095,0.0,0.0,0.0,0.0,0.0,0.0,0.0,0.0,0.0,-0.0025641678528868033,-0.004885350074797742,0.0004087140258574228,0.0,0.0,0.0,0.0,0.0,0.0,0.0,0.0,0.0
9.589,279,9,589000000,base_footprint,9.537229926837372e-05,0.003875362590948199,-0.026086693434817648,0.9996521679537094,0.0,0.0,0.0,0.0,0.0,0.0,0.0,0.0,0.0,-0.00026002952392146773,-0.0004218884384896563,-0.0435430141956201,0.0,0.0,0.0,0.0,0.0,0.0,0.0,0.0,0.0,-0.01831966061459006,-0.013747454815471866,0.0003526322861512947,0.0,0.0,0.0,0.0,0.0,0.0,0.0,0.0,0.0
9.625,280,9,623000000,base_footprint,9.26677127921088e-05,0.0038679937744595374,-0.02669442877661849,0.9996361525620939,0.0,0.0,0.0,0.0,0.0,0.0,0.0,0.0,0.0,0.0007084411698425768,0.0007098553251472901,-0.01912751397095415,0.0,0.0,0.0,0.0,0.0,0.0,0.0,0.0,0.0,-0.17966415687843298,0.018289841065656037,-0.0007250511830884591,0.0,0.0,0.0,0.0,0.0,0.0,0.0,0.0,0.0
9.657,281,9,657000000,base_footprint,9.180929587642511e-05,0.00387020538370959,-0.026844885460319157,0.9996321149332706,0.0,0.0,0.0,0.0,0.0,0.0,0.0,0.0,0.0,-0.0008081957833143017,-0.00024662341436346787,-0.024477185904576416,0.0,0.0,0.0,0.0,0.0,0.0,0.0,0.0,0.0,-0.14580212569374112,0.010328593611987291,0.0032176304159940356,0.0,0.0,0.0,0.0,0.0,0.0,0.0,0.0,0.0
9.691,282,9,691000000,base_footprint,9.783190729440897e-05,0.003871296909682671,-0.027596642210670673,0.9996116390017933,0.0,0.0,0.0,0.0,0.0,0.0,0.0,0.0,0.0,0.0005602176593690397,0.00010915187148334306,-0.04139555690497998,0.0,0.0,0.0,0.0,0.0,0.0,0.0,0.0,0.0,-0.037547665550266625,-0.0074636947298975746,-0.0005765926184575017,0.0,0.0,0.0,0.0,0.0,0.0,0.0,0.0,0.0
9.725,283,9,725000000,base_footprint,0.00010160144466051207,0.003868289805806536,-0.028190290495576052,0.9995950847882856,0.0,0.0,0.0,0.0,0.0,0.0,0.0,0.0,0.0,-0.00017425277844550964,-0.00038931313928952655,-0.03322928045006496,0.0,0.0,0.0,0.0,0.0,0.0,0.0,0.0,0.0,0.0043723564864220415,-0.007699074492839866,0.0009429747468654628,0.0,0.0,0.0,0.0,0.0,0.0,0.0,0.0,0.0
9.759,284,9,759000000,base_footprint,0.00010458058041270545,0.003865604771293293,-0.028752470076112313,0.9995790822277029,0.0,0.0,0.0,0.0,0.0,0.0,0.0,0.0,0.0,-0.00025299012517818875,-0.00034228356535579053,-0.033106625756426575,0.0,0.0,0.0,0.0,0.0,0.0,0.0,0.0,0.0,0.005251129072646149,-0.007430196915609155,-2.4823088743156117e-05,0.0,0.0,0.0,0.0,0.0,0.0,0.0,0.0,0.0
9.793,285,9,793000000,base_footprint,0.00010593597897256962,0.0038628040011436824,-0.029318316740904706,0.9995626562783833,0.0,0.0,0.0,0.0,0.0,0.0,0.0,0.0,0.0,-0.0002906318775087158,-0.0002850471968806868,-0.03353299804673143,0.0,0.0,0.0,0.0,0.0,0.0,0.0,0.0,0.0,0.004352227871218749,-0.0075484529614892795,-0.00012035218603229148,0.0,0.0,0.0,0.0,0.0,0.0,0.0,0.0,0.0
9.827,286,9,827000000,base_footprint,0.00010884912361203637,0.0038633921655822348,-0.030269689297412916,0.999534295691089,0.0,0.0,0.0,0.0,0.0,0.0,0.0,0.0,0.0,-0.0008412194412194463,-0.0009716533272881166,-0.07126244168339796,0.0,0.0,0.0,0.0,0.0,0.0,0.0,0.0,0.0,0.36273426860690783,-0.05629280787841867,-0.001969723605761232,0.0,0.0,0.0,0.0,0.0,0.0,0.0,0.0,0.0
9.861,287,9,861000000,base_footprint,0.00010993228454097412,0.0038617723381225186,-0.030920826323135815,0.9995143706464634,0.0,0.0,0.0,0.0,0.0,0.0,0.0,0.0,0.0,-0.0002870325533112179,-0.000187049328768301,-0.027924265847416162,0.0,0.0,0.0,0.0,0.0,0.0,0.0,0.0,0.0,-0.017516895103716294,-0.00599144876114149,-0.0009949718579494256,0.0,0.0,0.0,0.0,0.0,0.0,0.0,0.0,0.0
9.895,288,9,895000000,base_footprint,0.00011024328602685613,0.003863846148704627,-0.03139789149304137,0.9994994902195541,0.0,0.0,0.0,0.0,0.0,0.0,0.0,0.0,0.0,-0.00030015727687621977,-8.993108326507902e-06,-0.028253604311955227,0.0,0.0,0.0,0.0,0.0,0.0,0.0,0.0,0.0,0.004500022980941606,-0.007108273308011812,-0.0003313134007951603,0.0,0.0,0.0,0.0,0.0,0.0,0.0,0.0,0.0
9.929,289,9,929000000,base_footprint,0.00011017508025455789,0.0038677716698719616,-0.03188316579168157,0.9994841129016817,0.0,0.0,0.0,0.0,0.0,0.0,0.0,0.0,0.0,-0.0003678758066812125,0.00012936942724436296,-0.02862432219002902,0.0,0.0,0.0,0.0,0.0,0.0,0.0,0.0,0.0,0.003927856319088605,-0.007084699466083453,-0.00039722485794080564,0.0,0.0,0.0,0.0,0.0,0.0,0.0,0.0,0.0
9.963000000000001,290,9,963000000,base_footprint,0.0001117575648052806,0.00387107324061397,-0.03236340871873712,0.9994686648806538,0.0,0.0,0.0,0.0,0.0,0.0,0.0,0.0,0.0,-0.0002975528439966653,7.774440358335561e-05,-0.027725901869042523,0.0,0.0,0.0,0.0,0.0,0.0,0.0,0.0,0.0,0.001551652341669163,-0.007080417952338133,4.405005216382954e-05,0.0,0.0,0.0,0.0,0.0,0.0,0.0,0.0,0.0
9.997,291,9,997000000,base_footprint,0.00011393160836841823,0.003874861376196625,-0.0328160131750248,0.9994538917569937,0.0,0.0,0.0,0.0,0.0,0.0,0.0,0.0,0.0,-0.00017542148658647642,8.719863668406607e-05,-0.025475998925772687,0.0,0.0,0.0,0.0,0.0,0.0,0.0,0.0,0.0,-0.002834493702163255,-0.005666555320788841,-0.00011216592727780984,0.0,0.0,0.0,0.0,0.0,0.0,0.0,0.0,0.0
10.031,292,10,31000000,base_footprint,0.0001178970861744669,0.0038742149356968156,-0.03315751925211106,0.9994426224030848,0.0,0.0,0.0,0.0,0.0,0.0,0.0,0.0,0.0,0.00039379216393208445,-0.0004777222209971489,-0.018511683504183904,0.0,0.0,0.0,0.0,0.0,0.0,0.0,0.0,0.0,-0.006819513313634911,7.769582761588454e-05,0.0011377036530136656,0.0,0.0,0.0,0.0,0.0,0.0,0.0,0.0,0.0
10.065,293,10,65000000,base_footprint,0.00012428092331733613,0.003873783525700409,-0.03346100482328983,0.9994325087326628,0.0,0.0,0.0,0.0,0.0,0.0,0.0,0.0,0.0,-2.951179007771737e-05,-0.00022768880184002673,-0.014043096051662275,0.0,0.0,0.0,0.0,0.0,0.0,0.0,0.0,0.0,-0.01895770544195748,-0.004247559464376535,-0.00036284023493699744,0.0,0.0,0.0,0.0,0.0,0.0,0.0,0.0,0.0
10.099,294,10,99000000,base_footprint,0.00012205935607649279,0.0038731755240438894,-0.03372748378673139,0.9994235540801955,0.0,0.0,0.0,0.0,0.0,0.0,0.0,0.0,0.0,-0.0008657877222996574,-0.0009236983399414071,-0.020112159288058352,0.0,0.0,0.0,0.0,0.0,0.0,0.0,0.0,0.0,-0.004677492323027799,0.0034878988866329876,0.0014906094798472352,0.0,0.0,0.0,0.0,0.0,0.0,0.0,0.0,0.0
10.133,295,10,133000000,base_footprint,0.00011912418068908015,0.0038677240280354406,-0.03418104699393452,0.9994081661396764,0.0,0.0,0.0,0.0,0.0,0.0,0.0,0.0,0.0,0.000300636556972532,-0.0005474845435988886,-0.0409703532494283,0.0,0.0,0.0,0.0,0.0,0.0,0.0,0.0,0.0,-0.06320338720848472,-0.004088389931919359,-0.0005857931074611443,0.0,0.0,0.0,0.0,0.0,0.0,0.0,0.0,0.0
10.168,296,10,167000000,base_footprint,0.00011991495859566727,0.0038617525663640767,-0.03492043098176779,0.9993826274193317,0.0,0.0,0.0,0.0,0.0,0.0,0.0,0.0,0.0,-0.00024146833762709276,-0.0004377126694943794,-0.03828759495826167,0.0,0.0,0.0,0.0,0.0,0.0,0.0,0.0,0.0,0.012114419930398457,-0.00904771984020837,-0.000340950603879128,0.0,0.0,0.0,0.0,0.0,0.0,0.0,0.0,0.0
10.201,297,10,201000000,base_footprint,0.00012758854060782748,0.003865799024779845,-0.035339825380463666,0.9993678682352874,0.0,0.0,0.0,0.0,0.0,0.0,0.0,0.0,0.0,-0.0005205816723147763,-0.0006935354296100325,-0.01983633245837839,0.0,0.0,0.0,0.0,0.0,0.0,0.0,0.0,0.0,0.043262022682301705,-0.011513415152785379,0.0002869176167333306,0.0,0.0,0.0,0.0,0.0,0.0,0.0,0.0,0.0
10.235,298,10,235000000,base_footprint,0.00012736106959679294,0.003863270347592226,-0.03539860188740421,0.9993657978467128,0.0,0.0,0.0,0.0,0.0,0.0,0.0,0.0,0.0,-8.472986671520536e-05,-0.00022624838689296782,-0.0031585929413717496,0.0,0.0,0.0,0.0,0.0,0.0,0.0,0.0,0.0,0.001395633736514791,-0.0024469416624150744,-0.0007121431606210955,0.0,0.0,0.0,0.0,0.0,0.0,0.0,0.0,0.0
10.269,299,10,269000000,base_footprint,0.00012709827037459803,0.003862199510615657,-0.03545382509770647,0.9993638444264987,0.0,0.0,0.0,0.0,0.0,0.0,0.0,0.0,0.0,-0.00013175496552738484,-0.0001981006874627962,-0.003360634285192142,0.0,0.0,0.0,0.0,0.0,0.0,0.0,0.0,0.0,0.004570601429287996,-0.0015260507476094166,7.844440306485968e-06,0.0,0.0,0.0,0.0,0.0,0.0,0.0,0.0,0.0
10.303,300,10,303000000,base_footprint,0.00012609247324776583,0.0038610668167708227,-0.03550801665051942,0.9993619249387438,0.0,0.0,0.0,0.0,0.0,0.0,0.0,0.0,0.0,-0.0002408998405523515,-0.00021872755618582637,0.00019170314088864674,0.0,0.0,0.0,0.0,0.0,0.0,0.0,0.0,0.0,0.0051127770820220166,-0.0013709607029086847,-0.00010933041039651426,0.0,0.0,0.0,0.0,0.0,0.0,0.0,0.0,0.0
10.337,301,10,337000000,base_footprint,0.0001251380634032991,0.0038614296068428663,-0.03547324610733373,0.999363158472667,0.0,0.0,0.0,0.0,0.0,0.0,0.0,0.0,0.0,-0.00012382743032344926,-8.745812788364858e-05,0.001925851428308301,0.0,0.0,0.0,0.0,0.0,0.0,0.0,0.0,0.0,0.004387810255040464,-0.0005868812456691584,-0.00017448783631451433,0.0,0.0,0.0,0.0,0.0,0.0,0.0,0.0,0.0
10.371,302,10,371000000,base_footprint,0.00012402973953190696,0.0038631850336444456,-0.03544065261721395,0.9993643082280285,0.0,0.0,0.0,0.0,0.0,0.0,0.0,0.0,0.0,-0.00013015017103190185,-4.354318211745887e-06,0.0018650057696023912,0.0,0.0,0.0,0.0,0.0,0.0,0.0,0.0,0.0,0.005245651196959285,-0.0004876749910601328,-0.000217940632859792,0.0,0.0,0.0,0.0,0.0,0.0,0.0,0.0,0.0
10.405,303,10,405000000,base_footprint,0.00012731313967089496,0.0038667118626472523,-0.03542130662747329,0.9993649800586061,0.0,0.0,0.0,0.0,0.0,0.0,0.0,0.0,0.0,0.0022455686637042824,-0.003375950674904567,-0.009527000416200308,0.0,0.0,0.0,0.0,0.0,0.0,0.0,0.0,0.0,-0.07889401225733302,0.01162347489990436,0.006612853609690457,0.0,0.0,0.0,0.0,0.0,0.0,0.0,0.0,0.0
10.439,304,10,439000000,base_footprint,0.0001290557329426385,0.003866316999653987,-0.03642896741520929,0.9993287573519226,0.0,0.0,0.0,0.0,0.0,0.0,0.0,0.0,0.0,-0.001369435313645475,-0.002004916914868521,-0.029229165678856486,0.0,0.0,0.0,0.0,0.0,0.0,0.0,0.0,0.0,-0.22815688149215577,0.0213504780870859,-0.00199540811520344,0.0,0.0,0.0,0.0,0.0,0.0,0.0,0.0,0.0
10.473,305,10,473000000,base_footprint,0.00012627312353929575,0.0038741178564367642,-0.03654387213185827,0.9993245322094035,0.0,0.0,0.0,0.0,0.0,0.0,0.0,0.0,0.0,-5.849594175732724e-05,9.19068042894755e-05,-0.0061068722384057415,0.0,0.0,0.0,0.0,0.0,0.0,0.0,0.0,0.0,-0.024118528772441562,-4.337472962924471e-05,-0.00237233109792707,0.0,0.0,0.0,0.0,0.0,0.0,0.0,0.0,0.0
10.506,306,10,507000000,base_footprint,0.00013197381346291787,0.0038726566768870242,-0.03663515798413597,0.999321194768055,0.0,0.0,0.0,0.0,0.0,0.0,0.0,0.0,0.0,0.00046724862131024546,-0.0002994746732099017,-0.0055322285117609645,0.0,0.0,0.0,0.0,0.0,0.0,0.0,0.0,0.0,0.0009136455338972634,0.0041907551924724624,0.0007471658097670997,0.0,0.0,0.0,0.0,0.0,0.0,0.0,0.0,0.0
10.541,307,10,541000000,base_footprint,0.000136873463807313,0.00387298822452663,-0.03671019329360446,0.9993184392055487,0.0,0.0,0.0,0.0,0.0,0.0,0.0,0.0,0.0,0.00010675192494699918,-0.0002614940155886041,9.556729786765426e-05,0.0,0.0,0.0,0.0,0.0,0.0,0.0,0.0,0.0,-0.02021786755598933,-0.0018031971028315621,7.780985456548062e-05,0.0,0.0,0.0,0.0,0.0,0.0,0.0,0.0,0.0
10.575,308,10,575000000,base_footprint,0.0001345462097753771,0.0038742939292676806,-0.03669804818192258,0.9993188805398927,0.0,0.0,0.0,0.0,0.0,0.0,0.0,0.0,0.0,-0.000530150675456543,-0.0006223269800892578,-0.004043531247832797,0.0,0.0,0.0,0.0,0.0,0.0,0.0,0.0,0.0,-0.00582675291251296,0.0025152326326665217,0.0008735185548787966,0.0,0.0,0.0,0.0,0.0,0.0,0.0,0.0,0.0
10.609,309,10,609000000,base_footprint,0.00012908621041853507,0.0038609428070563584,-0.03689995156748301,0.9993114979983511,0.0,0.0,0.0,0.0,0.0,0.0,0.0,0.0,0.0,-0.0013283968521537312,0.0014321194987310748,-0.04698193427224282,0.0,0.0,0.0,0.0,0.0,0.0,0.0,0.0,0.0,0.0032267258582922577,-0.0036154521305243586,-0.0036171348192299267,0.0,0.0,0.0,0.0,0.0,0.0,0.0,0.0,0.0
10.643,310,10,643000000,base_footprint,0.0001280460196724351,0.0038578591989215706,-0.0378268911892207,0.9992768519432326,0.0,0.0,0.0,0.0,0.0,0.0,0.0,0.0,0.0,-0.00031598704918383425,-0.00026316143064438293,-0.048860469364580855,0.0,0.0,0.0,0.0,0.0,0.0,0.0,0.0,0.0,0.01802431988562604,-0.012881140684112835,0.002812411078661868,0.0,0.0,0.0,0.0,0.0,0.0,0.0,0.0,0.0
10.677,311,10,677000000,base_footprint,0.000132897860247669,0.003855017937939909,-0.03830375160151179,0.9992586971290801,0.0,0.0,0.0,0.0,0.0,0.0,0.0,0.0,0.0,-2.9106420677307885e-05,-0.0001724107268447839,-0.0018926335900232563,0.0,0.0,0.0,0.0,0.0,0.0,0.0,0.0,0.0,0.10251589351908458,-0.023434092228185713,-0.0009946593975572555,0.0,0.0,0.0,0.0,0.0,0.0,0.0,0.0,0.0
10.71,312,10,711000000,base_footprint,0.00013227701591725198,0.0038565079698053097,-0.03763878590889941,0.9992839594651634,0.0,0.0,0.0,0.0,0.0,0.0,0.0,0.0,0.0,0.0025613467945173472,0.0021244069057522142,0.07974683542738166,0.0,0.0,0.0,0.0,0.0,0.0,0.0,0.0,0.0,0.17706347274404358,-0.02169290772438523,-0.005474528898848127,0.0,0.0,0.0,0.0,0.0,0.0,0.0,0.0,0.0
10.745,313,10,745000000,base_footprint,0.0001293302532698775,0.0038606627498598205,-0.03623408085442613,0.9993358644327004,0.0,0.0,0.0,0.0,0.0,0.0,0.0,0.0,0.0,0.0006192500535137861,-0.00017398421373897194,0.08256451322271166,0.0,0.0,0.0,0.0,0.0,0.0,0.0,0.0,0.0,0.015734855154802347,0.018064269540493103,0.0038185125982195226,0.0,0.0,0.0,0.0,0.0,0.0,0.0,0.0,0.0
10.779,314,10,779000000,base_footprint,0.00012325625590782485,0.0038601745387801963,-0.034831300643016594,0.9993857435224607,0.0,0.0,0.0,0.0,0.0,0.0,0.0,0.0,0.0,0.0004985128731871894,-0.00020908122343756463,0.08259599008373823,0.0,0.0,0.0,0.0,0.0,0.0,0.0,0.0,0.0,0.007857658863492949,0.016729938792424334,0.00011956344402036894,0.0,0.0,0.0,0.0,0.0,0.0,0.0,0.0,0.0
10.813,315,10,813000000,base_footprint,0.00011682440238653564,0.0038605844376147134,-0.033396682458268045,0.9994347121451409,0.0,0.0,0.0,0.0,0.0,0.0,0.0,0.0,0.0,0.0005144720465997192,-0.00026908310777168886,0.08836030528166493,0.0,0.0,0.0,0.0,0.0,0.0,0.0,0.0,0.0,0.006400722155436573,0.017386031715246643,-2.868806947155952e-05,0.0,0.0,0.0,0.0,0.0,0.0,0.0,0.0,0.0
10.847,316,10,847000000,base_footprint,0.00011024406377760624,0.0038623075014953662,-0.031897542831659804,0.9994836752985577,0.0,0.0,0.0,0.0,0.0,0.0,0.0,0.0,0.0,0.0005596457156202805,-5.352854566496627e-05,0.08822379220001661,0.0,0.0,0.0,0.0,0.0,0.0,0.0,0.0,0.0,0.007964725037906052,0.01862444053674744,-0.00038280559639010836,0.0,0.0,0.0,0.0,0.0,0.0,0.0,0.0,0.0
10.881,317,10,881000000,base_footprint,0.00010357007634702073,0.0038657228965818706,-0.030398128064292932,0.9995303893678835,0.0,0.0,0.0,0.0,0.0,0.0,0.0,0.0,0.0,0.0005561819075375835,4.954776860382731e-05,0.08830978804795737,0.0,0.0,0.0,0.0,0.0,0.0,0.0,0.0,0.0,0.007383956713009928,0.01841603390187728,-0.0002685367852274319,0.0,0.0,0.0,0.0,0.0,0.0,0.0,0.0,0.0
10.914,318,10,915000000,base_footprint,9.834402270386946e-05,0.003869606963824174,-0.02900219107179266,0.9995718530368061,0.0,0.0,0.0,0.0,0.0,0.0,0.0,0.0,0.0,0.0004157542428985031,0.00019042333562010905,0.07173542877740895,0.0,0.0,0.0,0.0,0.0,0.0,0.0,0.0,0.0,0.011423655042194652,0.01695809429787754,-0.00037242529886996677,0.0,0.0,0.0,0.0,0.0,0.0,0.0,0.0,0.0
10.949,319,10,949000000,base_footprint,9.298124738154859e-05,0.00387331662899658,-0.02776259320982027,0.9996070363853213,0.0,0.0,0.0,0.0,0.0,0.0,0.0,0.0,0.0,0.000582560471365604,-2.8914389262283127e-05,0.07341837335930929,0.0,0.0,0.0,0.0,0.0,0.0,0.0,0.0,0.0,0.0024445690849160917,0.014118562757846502,0.0003048749356922588,0.0,0.0,0.0,0.0,0.0,0.0,0.0,0.0,0.0
10.982,320,10,983000000,base_footprint,8.985374130210914e-05,0.0038759204711208014,-0.026519945266021916,0.9996407663105252,0.0,0.0,0.0,0.0,0.0,0.0,0.0,0.0,0.0,0.0009941036696408303,-0.00016022701540880483,0.07240563075570884,0.0,0.0,0.0,0.0,0.0,0.0,0.0,0.0,0.0,0.0035016202113527573,0.020372918095800597,0.00020396727695996665,0.0,0.0,0.0,0.0,0.0,0.0,0.0,0.0,0.0
11.017,321,11,17000000,base_footprint,9.327777319003486e-05,0.003875744268042716,-0.025361076828191918,0.9996708386702797,0.0,0.0,0.0,0.0,0.0,0.0,0.0,0.0,0.0,0.0007398830599891173,-0.0004321468289950389,0.06423574631419028,0.0,0.0,0.0,0.0,0.0,0.0,0.0,0.0,0.0,-0.013617381358234083,0.010709466598602575,0.0006468702198934059,0.0,0.0,0.0,0.0,0.0,0.0,0.0,0.0,0.0
11.051,322,11,51000000,base_footprint,8.52919394100143e-05,0.0038725331613493306,-0.024184719027572334,0.9997000027897153,0.0,0.0,0.0,0.0,0.0,0.0,0.0,0.0,0.0,-0.00043751697662145546,2.7087406005853158e-05,0.06336120843361027,0.0,0.0,0.0,0.0,0.0,0.0,0.0,0.0,0.0,-0.03260691495076475,0.026167345008288705,-0.0006867418069301114,0.0,0.0,0.0,0.0,0.0,0.0,0.0,0.0,0.0
11.085,323,11,85000000,base_footprint,7.884221680251625e-05,0.0038714998139058225,-0.023414184126483186,0.9997183509643038,0.0,0.0,0.0,0.0,0.0,0.0,0.0,0.0,0.0,-0.0002642440660953476,-0.00044939586749896616,0.03777778338764912,0.0,0.0,0.0,0.0,0.0,0.0,0.0,0.0,0.0,-0.04914163654596594,0.009245420049108772,0.0019721186822485985,0.0,0.0,0.0,0.0,0.0,0.0,0.0,0.0,0.0
11.119,324,11,119000000,base_footprint,7.942335825326724e-05,0.0038704796572104376,-0.022563243327574364,0.9997379222224664,0.0,0.0,0.0,0.0,0.0,0.0,0.0,0.0,0.0,0.000880132979844732,-0.0012122391594489726,0.06897958892658602,0.0,0.0,0.0,0.0,0.0,0.0,0.0,0.0,0.0,-0.2560893103037872,0.03582920441837932,0.0024094617630477547,0.0,0.0,0.0,0.0,0.0,0.0,0.0,0.0,0.0
11.153,325,11,153000000,base_footprint,6.960737764317667e-05,0.0038599424885598036,-0.021976845073005055,0.9997510261457275,0.0,0.0,0.0,0.0,0.0,0.0,0.0,0.0,0.0,0.0019990150373787735,0.0007540547486057673,0.049898571559316325,0.0,0.0,0.0,0.0,0.0,0.0,0.0,0.0,0.0,-0.04420298541171258,0.010565352686211813,-0.002064406259212055,0.0,0.0,0.0,0.0,0.0,0.0,0.0,0.0,0.0
