Time,header.seq,header.stamp.secs,header.stamp.nsecs,header.frame_id,orientation.x,orientation.y,orientation.z,orientation.w,orientation_covariance_0,orientation_covariance_1,orientation_covariance_2,orientation_covariance_3,orientation_covariance_4,orientation_covariance_5,orientation_covariance_6,orientation_covariance_7,orientation_covariance_8,angular_velocity.x,angular_velocity.y,angular_velocity.z,angular_velocity_covariance_0,angular_velocity_covariance_1,angular_velocity_covariance_2,angular_velocity_covariance_3,angular_velocity_covariance_4,angular_velocity_covariance_5,angular_velocity_covariance_6,angular_velocity_covariance_7,angular_velocity_covariance_8,linear_acceleration.x,linear_acceleration.y,linear_acceleration.z,linear_acceleration_covariance_0,linear_acceleration_covariance_1,linear_acceleration_covariance_2,linear_acceleration_covariance_3,linear_acceleration_covariance_4,linear_acceleration_covariance_5,linear_acceleration_covariance_6,linear_acceleration_covariance_7,linear_acceleration_covariance_8
0.47600000000000003,0,0,476000000,base_footprint,-0.00013140709492777966,0.00022949292160325503,0.38249668326273123,0.9239568265661465,0.0,0.0,0.0,0.0,0.0,0.0,0.0,0.0,0.0,-0.06840472773669733,-0.000519226108082433,-0.0003349981332022302,0.0,0.0,0.0,0.0,0.0,0.0,0.0,0.0,0.0,-3.8303998203376635e-05,-6.213719623085676e-05,-0.0386905759417408,0.0,0.0,0.0,0.0,0.0,0.0,0.0,0.0,0.0
0.51,1,0,510000000,base_footprint,-0.0005830061846780503,0.0012922713836426207,0.3824928242720076,0.9239573742975823,0.0,0.0,0.0,0.0,0.0,0.0,0.0,0.0,0.0,-0.06776226049380892,-0.0005638915226272335,-0.0001063966560868995,0.0,0.0,0.0,0.0,0.0,0.0,0.0,0.0,0.0,3.772279648864475e-05,-0.0005898884606357919,0.0008335279779279201,0.0,0.0,0.0,0.0,0.0,0.0,0.0,0.0,0.0
0.544,2,0,544000000,base_footprint,-0.0010342386170727222,0.0023540889323148276,0.3824884790094458,0.9239566829894258,0.0,0.0,0.0,0.0,0.0,0.0,0.0,0.0,0.0,-0.067685927226912,-0.000563657134628838,-7.407947525671841e-06,0.0,0.0,0.0,0.0,0.0,0.0,0.0,0.0,0.0,-8.428266178033873e-06,-0.0002648574779276153,0.0001523508498920839,0.0,0.0,0.0,0.0,0.0,0.0,0.0,0.0,0.0
0.5780000000000001,3,0,578000000,base_footprint,-0.0014849775625968473,0.0034147062810429662,0.38248343690127035,0.9239548447401772,0.0,0.0,0.0,0.0,0.0,0.0,0.0,0.0,0.0,-0.067609884731936,-0.0005634407616594075,8.991824678932014e-05,0.0,0.0,0.0,0.0,0.0,0.0,0.0,0.0,0.0,-9.590904679527114e-07,-0.0002679080386454746,0.00015258422866242473,0.0,0.0,0.0,0.0,0.0,0.0,0.0,0.0,0.0
0.612,4,0,612000000,base_footprint,-0.0014855202093959983,0.0035687771862379972,0.38247514882659717,0.9239576925320634,0.0,0.0,0.0,0.0,0.0,0.0,0.0,0.0,0.0,0.005033198166277059,5.459725507869079e-05,-0.0007920179599299393,0.0,0.0,0.0,0.0,0.0,0.0,0.0,0.0,0.0,-0.001468948926183479,0.00618326803033707,0.1372976218022115,0.0,0.0,0.0,0.0,0.0,0.0,0.0,0.0,0.0
0.646,5,0,646000000,base_footprint,-0.001483315702019308,0.003564460344753474,0.3824749667139464,0.9239577881235401,0.0,0.0,0.0,0.0,0.0,0.0,0.0,0.0,0.0,0.0001424087577524891,3.5090790361881585e-05,0.00018562306747399302,0.0,0.0,0.0,0.0,0.0,0.0,0.0,0.0,0.0,0.0018901623827399263,-0.004222859372130011,-0.005407775507436678,0.0,0.0,0.0,0.0,0.0,0.0,0.0,0.0,0.0
0.68,6,0,680000000,base_footprint,-0.0014833281885897778,0.0035643311889337393,0.382478766346452,0.9239562157238603,0.0,0.0,0.0,0.0,0.0,0.0,0.0,0.0,0.0,0.00018404646223050302,3.3705500357089884e-05,0.00029971454398038984,0.0,0.0,0.0,0.0,0.0,0.0,0.0,0.0,0.0,-0.00022221402357132868,-2.8413268903789556e-05,3.338152029236003e-05,0.0,0.0,0.0,0.0,0.0,0.0,0.0,0.0,0.0
0.7140000000000001,7,0,714000000,base_footprint,-0.0014833413689324824,0.0035642687129117567,0.3824834738687932,0.9239542672146634,0.0,0.0,0.0,0.0,0.0,0.0,0.0,0.0,0.0,0.00017936272146296066,3.450837328244444e-05,0.00032659183215198956,0.0,0.0,0.0,0.0,0.0,0.0,0.0,0.0,0.0,-5.2344858358977665e-05,-7.100246394479792e-06,-7.491093788155082e-06,0.0,0.0,0.0,0.0,0.0,0.0,0.0,0.0,0.0
0.748,8,0,748000000,base_footprint,-0.001483363376637181,0.003564246239365941,0.3824884044756911,0.9239522261586247,0.0,0.0,0.0,0.0,0.0,0.0,0.0,0.0,0.0,0.00017827841514103537,3.47164173008752e-05,0.00033328579361079785,0.0,0.0,0.0,0.0,0.0,0.0,0.0,0.0,0.0,-1.304384820709695e-05,-1.726760081665796e-06,-1.6798125197633624e-06,0.0,0.0,0.0,0.0,0.0,0.0,0.0,0.0,0.0
0.782,9,0,782000000,base_footprint,-0.0014833868990912478,0.003564233365525576,0.38249339057248,0.9239501620608073,0.0,0.0,0.0,0.0,0.0,0.0,0.0,0.0,0.0,0.0001780123782002469,3.4794806455233166e-05,0.00033495679044762014,0.0,0.0,0.0,0.0,0.0,0.0,0.0,0.0,0.0,-3.2563112656605364e-06,-4.3714376350021197e-07,-3.997441763902814e-07,0.0,0.0,0.0,0.0,0.0,0.0,0.0,0.0,0.0
0.8160000000000001,10,0,816000000,base_footprint,-0.0014834104652073246,0.003564223013623034,0.38249839056712837,0.9239480921682006,0.0,0.0,0.0,0.0,0.0,0.0,0.0,0.0,0.0,0.00017794739966254259,3.484000416644797e-05,0.0003353824855777432,0.0,0.0,0.0,0.0,0.0,0.0,0.0,0.0,0.0,-8.281801912700513e-07,-1.2683147696948105e-07,-1.0380243379541522e-07,0.0,0.0,0.0,0.0,0.0,0.0,0.0,0.0,0.0
0.8500000000000001,11,0,850000000,base_footprint,-0.0014834337468525968,0.003564213411873195,0.38250339414861323,0.9239460207565505,0.0,0.0,0.0,0.0,0.0,0.0,0.0,0.0,0.0,0.00017793243644313532,3.4875128600435857e-05,0.0003354993796765523,0.0,0.0,0.0,0.0,0.0,0.0,0.0,0.0,0.0,-2.260064753936515e-07,-4.9829989851771306e-08,-3.072869083346438e-08,0.0,0.0,0.0,0.0,0.0,0.0,0.0,0.0,0.0
0.884,12,0,884000000,base_footprint,-0.0014834566902101162,0.00356420410947274,0.3825083987599565,0.9239439488861911,0.0,0.0,0.0,0.0,0.0,0.0,0.0,0.0,0.0,0.00017792987623301297,3.490607195101966e-05,0.0003355397126310485,0.0,0.0,0.0,0.0,0.0,0.0,0.0,0.0,0.0,-7.665031686885485e-08,-3.0700071761782744e-08,-1.3039307450971505e-08,0.0,0.0,0.0,0.0,0.0,0.0,0.0,0.0,0.0
0.918,13,0,918000000,base_footprint,-0.0014834793068428994,0.003564194984083765,0.3825134037670638,0.923941876820072,0.0,0.0,0.0,0.0,0.0,0.0,0.0,0.0,0.0,0.00017793039582129151,3.493445189042309e-05,0.0003355610743079204,0.0,0.0,0.0,0.0,0.0,0.0,0.0,0.0,0.0,-3.9587102471135344e-08,-2.5926726606564757e-08,-9.039269255201753e-09,0.0,0.0,0.0,0.0,0.0,0.0,0.0,0.0,0.0
0.9520000000000001,14,0,952000000,base_footprint,-0.0014835016222146977,0.0035641859958000324,0.3825184090126792,0.9239398046234035,0.0,0.0,0.0,0.0,0.0,0.0,0.0,0.0,0.0,0.00017793168294655542,3.4960811231336125e-05,0.0003355777445986874,0.0,0.0,0.0,0.0,0.0,0.0,0.0,0.0,0.0,-3.0372748641536636e-08,-2.4717011685246116e-08,-8.398338620367273e-09,0.0,0.0,0.0,0.0,0.0,0.0,0.0,0.0,0.0
0.9860000000000001,15,0,986000000,base_footprint,-0.001483523663138341,0.003564177126045066,0.38252341445779453,0.9239377323123598,0.0,0.0,0.0,0.0,0.0,0.0,0.0,0.0,0.0,0.0001779331638170203,3.498541327417518e-05,0.00033559326337311365,0.0,0.0,0.0,0.0,0.0,0.0,0.0,0.0,0.0,-2.8066397282870738e-08,-2.4393713596567215e-08,-8.558179561722926e-09,0.0,0.0,0.0,0.0,0.0,0.0,0.0,0.0,0.0
1.02,16,1,20000000,base_footprint,-0.0014835454548580377,0.003564168362336874,0.3825284200927254,0.9239356598909535,0.0,0.0,0.0,0.0,0.0,0.0,0.0,0.0,0.0,0.00017793469591892287,3.500843991253458e-05,0.000335608507406566,0.0,0.0,0.0,0.0,0.0,0.0,0.0,0.0,0.0,-2.7475143826510982e-08,-2.4292599218714123e-08,-8.88654899661289e-09,0.0,0.0,0.0,0.0,0.0,0.0,0.0,0.0,0.0
1.054,17,1,54000000,base_footprint,-0.0014835670205026953,0.0035641596944360776,0.38253342591506123,0.9239335873601818,0.0,0.0,0.0,0.0,0.0,0.0,0.0,0.0,0.0,0.00017793624357505153,3.5030042076604816e-05,0.0003356236931605557,0.0,0.0,0.0,0.0,0.0,0.0,0.0,0.0,0.0,-2.7311039067136978e-08,-2.4248704182330816e-08,-9.230306100703882e-09,0.0,0.0,0.0,0.0,0.0,0.0,0.0,0.0,0.0
1.088,18,1,88000000,base_footprint,-0.0014835883811104053,0.0035641511133225217,0.38253843192419557,0.9239315147202927,0.0,0.0,0.0,0.0,0.0,0.0,0.0,0.0,0.0,0.00017793779773196035,3.5050353295530375e-05,0.0003356388733854008,0.0,0.0,0.0,0.0,0.0,0.0,0.0,0.0,0.0,-2.7254423661733286e-08,-2.4220890580172352e-08,-9.553647425975664e-09,0.0,0.0,0.0,0.0,0.0,0.0,0.0,0.0,0.0
1.122,19,1,122000000,base_footprint,-0.0014836095557803062,0.0035641426108800347,0.3825434381199714,0.9239294419713484,0.0,0.0,0.0,0.0,0.0,0.0,0.0,0.0,0.0,0.00017793935594492214,3.506949367042802e-05,0.0003356540604818188,0.0,0.0,0.0,0.0,0.0,0.0,0.0,0.0,0.0,-2.7226187728653173e-08,-2.4198821126479227e-08,-9.84964247426654e-09,0.0,0.0,0.0,0.0,0.0,0.0,0.0,0.0,0.0
1.156,20,1,156000000,base_footprint,-0.0014836305618416337,0.0035641341797623418,0.38254844450234393,0.9239273691133636,0.0,0.0,0.0,0.0,0.0,0.0,0.0,0.0,0.0,0.00017794091722804755,3.508757208780439e-05,0.0003356692567456078,0.0,0.0,0.0,0.0,0.0,0.0,0.0,0.0,0.0,-2.7206248568238162e-08,-2.4179725226865546e-08,-1.011927725584602e-08,0.0,0.0,0.0,0.0,0.0,0.0,0.0,0.0,0.0
1.19,21,1,190000000,base_footprint,-0.0014836514150156673,0.0035641258133093058,0.3825534510712976,0.9239252961463421,0.0,0.0,0.0,0.0,0.0,0.0,0.0,0.0,0.0,0.00017794248144697793,3.5104687258807984e-05,0.0003356844621639821,0.0,0.0,0.0,0.0,0.0,0.0,0.0,0.0,0.0,-2.7189749550237456e-08,-2.416278715226722e-08,-1.0363666120267975e-08,0.0,0.0,0.0,0.0,0.0,0.0,0.0,0.0,0.0
1.224,22,1,224000000,base_footprint,-0.0014836721295642596,0.003564117505479957,0.3825584578268247,0.9239232230702835,0.0,0.0,0.0,0.0,0.0,0.0,0.0,0.0,0.0,0.0001779440481110581,3.5120928519711e-05,0.0003356996760428126,0.0,0.0,0.0,0.0,0.0,0.0,0.0,0.0,0.0,-2.7175034353289327e-08,-2.4147643939361766e-08,-1.0585907621544961e-08,0.0,0.0,0.0,0.0,0.0,0.0,0.0,0.0,0.0
1.258,23,1,258000000,base_footprint,-0.0014836927184253964,0.0035641092507944865,0.3825634647689203,0.9239211498851863,0.0,0.0,0.0,0.0,0.0,0.0,0.0,0.0,0.0,0.0001779456170088562,3.513637716163189e-05,0.00033571489773673855,0.0,0.0,0.0,0.0,0.0,0.0,0.0,0.0,0.0,-2.7161916269554658e-08,-2.413411485003149e-08,-1.078752514777045e-08,0.0,0.0,0.0,0.0,0.0,0.0,0.0,0.0,0.0
1.292,24,1,292000000,base_footprint,-0.001483713193335646,0.0035641010442816557,0.3825684718975811,0.9239190765910484,0.0,0.0,0.0,0.0,0.0,0.0,0.0,0.0,0.0,0.00017794718803431514,3.515110680541545e-05,0.0003357301266570461,0.0,0.0,0.0,0.0,0.0,0.0,0.0,0.0,0.0,-2.7150236528097455e-08,-2.412204739290506e-08,-1.0970446173830457e-08,0.0,0.0,0.0,0.0,0.0,0.0,0.0,0.0,0.0
1.325,25,1,326000000,base_footprint,-0.0014837335649422751,0.0035640928814319617,0.382573479212805,0.9239170031878675,0.0,0.0,0.0,0.0,0.0,0.0,0.0,0.0,0.0,0.00017794876088808925,3.5165184236953045e-05,0.0003357453621815579,0.0,0.0,0.0,0.0,0.0,0.0,0.0,0.0,0.0,-2.7139689465019282e-08,-2.4111281417378195e-08,-1.113648868155892e-08,0.0,0.0,0.0,0.0,0.0,0.0,0.0,0.0,0.0
1.36,26,1,360000000,base_footprint,-0.0014837538429036527,0.003564084758154308,0.382578486714591,0.9239149296756407,0.0,0.0,0.0,0.0,0.0,0.0,0.0,0.0,0.0,0.00017795033548337417,3.517867001153366e-05,0.0003357606037116768,0.0,0.0,0.0,0.0,0.0,0.0,0.0,0.0,0.0,-2.7130104592006728e-08,-2.410167775708766e-08,-1.1287196141599044e-08,0.0,0.0,0.0,0.0,0.0,0.0,0.0,0.0,0.0
1.3940000000000001,27,1,394000000,base_footprint,-0.0014837740359817167,0.003564076670737532,0.38258349440293826,0.9239128560543641,0.0,0.0,0.0,0.0,0.0,0.0,0.0,0.0,0.0,0.00017795191165351896,3.5191619182491604e-05,0.0003357758507868825,0.0,0.0,0.0,0.0,0.0,0.0,0.0,0.0,0.0,-2.7121558153099764e-08,-2.4093146746262665e-08,-1.1424056188722817e-08,0.0,0.0,0.0,0.0,0.0,0.0,0.0,0.0,0.0
1.428,28,1,428000000,base_footprint,-0.0014837941521249221,0.003564068615814842,0.38258850227784746,0.9239107823240343,0.0,0.0,0.0,0.0,0.0,0.0,0.0,0.0,0.0,0.00017795348920515117,3.5204081519342536e-05,0.00033579110299426085,0.0,0.0,0.0,0.0,0.0,0.0,0.0,0.0,0.0,-2.7113953107784713e-08,-2.4085598509203308e-08,-1.154811670531306e-08,0.0,0.0,0.0,0.0,0.0,0.0,0.0,0.0,0.0
1.462,29,1,462000000,base_footprint,-0.0014838141985436398,0.0035640605903320237,0.38259351033931954,0.9239087084846477,0.0,0.0,0.0,0.0,0.0,0.0,0.0,0.0,0.0,0.00017795506806919973,3.521610240773904e-05,0.000335806359882247,0.0,0.0,0.0,0.0,0.0,0.0,0.0,0.0,0.0,-2.7107067126201014e-08,-2.407890874560503e-08,-1.1660984973360431e-08,0.0,0.0,0.0,0.0,0.0,0.0,0.0,0.0,0.0
1.496,30,1,496000000,base_footprint,-0.0014838341817788882,0.003564052591518474,0.3825985185873558,0.9239066345361997,0.0,0.0,0.0,0.0,0.0,0.0,0.0,0.0,0.0,0.0001779566480591522,3.5227722753147844e-05,0.00033582162112042954,0.0,0.0,0.0,0.0,0.0,0.0,0.0,0.0,0.0,-2.7100972201098645e-08,-2.4073020644968238e-08,-1.176316199394664e-08,0.0,0.0,0.0,0.0,0.0,0.0,0.0,0.0,0.0
1.53,31,1,530000000,base_footprint,-0.0014809741974879688,0.0035566327459719254,0.38260222974469754,0.9239051308837517,0.0,0.0,0.0,0.0,0.0,0.0,0.0,0.0,0.0,0.0040180983132087214,-7.970228739952309e-05,-0.0012163203469717683,0.0,0.0,0.0,0.0,0.0,0.0,0.0,0.0,0.0,-0.001035625004598844,0.0687255941113462,0.004583512612368141,0.0,0.0,0.0,0.0,0.0,0.0,0.0,0.0,0.0
1.564,32,1,564000000,base_footprint,-0.0014809293360704776,0.003557661031606254,0.3824413355010709,0.923971739176282,0.0,0.0,0.0,0.0,0.0,0.0,0.0,0.0,0.0,-0.0011277395250118795,2.297644304691314e-05,-0.018899545322485466,0.0,0.0,0.0,0.0,0.0,0.0,0.0,0.0,0.0,0.0021150763159588637,0.7392240091333633,-0.010025571732119863,0.0,0.0,0.0,0.0,0.0,0.0,0.0,0.0,0.0
1.598,33,1,598000000,base_footprint,-0.0014794794385792308,0.0035587360415181056,0.38200759669046813,0.9241511470582885,0.0,0.0,0.0,0.0,0.0,0.0,0.0,0.0,0.0,-0.0012474475875591982,-6.8028756156067e-05,-0.036287736753798816,0.0,0.0,0.0,0.0,0.0,0.0,0.0,0.0,0.0,0.00286062578278784,0.7495141086959896,-0.004139287946219758,0.0,0.0,0.0,0.0,0.0,0.0,0.0,0.0,0.0
1.6320000000000001,34,1,632000000,base_footprint,-0.0014775084779429508,0.0035615747400539587,0.3813001631033944,0.9244432474583789,0.0,0.0,0.0,0.0,0.0,0.0,0.0,0.0,0.0,-0.0021181080591654686,-0.00017549990532458588,-0.053697189704308396,0.0,0.0,0.0,0.0,0.0,0.0,0.0,0.0,0.0,0.006734950938599937,0.7459472451924851,-0.005363526794942669,0.0,0.0,0.0,0.0,0.0,0.0,0.0,0.0,0.0
1.666,35,1,666000000,base_footprint,-0.0014746897925895612,0.003565256376623266,0.38032013882610105,0.9248468555605733,0.0,0.0,0.0,0.0,0.0,0.0,0.0,0.0,0.0,-0.0024048924920031206,-0.0003049756256642878,-0.07088050138170585,0.0,0.0,0.0,0.0,0.0,0.0,0.0,0.0,0.0,0.012257239690739274,0.732515995409154,-0.004373980406195802,0.0,0.0,0.0,0.0,0.0,0.0,0.0,0.0,0.0
1.699,36,1,700000000,base_footprint,-0.0014705986183356163,0.003568768911381318,0.37907306957494585,0.9253586921573651,0.0,0.0,0.0,0.0,0.0,0.0,0.0,0.0,0.0,-0.002588788273286191,-0.00037710155549623746,-0.08752409819695416,0.0,0.0,0.0,0.0,0.0,0.0,0.0,0.0,0.0,0.01921810475048963,0.6945185672777261,-0.0040059320620596875,0.0,0.0,0.0,0.0,0.0,0.0,0.0,0.0,0.0
1.734,37,1,734000000,base_footprint,-0.0014659958121271644,0.003573835777505125,0.377572089980247,0.9259721353378094,0.0,0.0,0.0,0.0,0.0,0.0,0.0,0.0,0.0,-0.001507705941978497,-0.0005002514468542091,-0.10279045634867402,0.0,0.0,0.0,0.0,0.0,0.0,0.0,0.0,0.0,0.025808944451737426,0.6224379659658233,-0.002100405868849958,0.0,0.0,0.0,0.0,0.0,0.0,0.0,0.0,0.0
1.768,38,1,768000000,base_footprint,-0.0014601530842302975,0.003578636375494478,0.37584304710844196,0.9266752749776506,0.0,0.0,0.0,0.0,0.0,0.0,0.0,0.0,0.0,-0.0005740537968577934,-0.000576808628605679,-0.11609533832598957,0.0,0.0,0.0,0.0,0.0,0.0,0.0,0.0,0.0,0.03106151845898042,0.5011974078907997,-0.0016703179505149573,0.0,0.0,0.0,0.0,0.0,0.0,0.0,0.0,0.0
1.806,39,1,802000000,base_footprint,-0.0014534511136889583,0.003583946443965134,0.37392057442571575,0.9274526655462746,0.0,0.0,0.0,0.0,0.0,0.0,0.0,0.0,0.0,-0.0006141469764297925,-0.0006242059360174624,-0.12715127993588654,0.0,0.0,0.0,0.0,0.0,0.0,0.0,0.0,0.0,0.03390353256078389,0.33631950965757235,-0.0019230469127000521,0.0,0.0,0.0,0.0,0.0,0.0,0.0,0.0,0.0
1.836,40,1,836000000,base_footprint,-0.001444211540475785,0.0035865645198798575,0.37184081458659035,0.9282884570086778,0.0,0.0,0.0,0.0,0.0,0.0,0.0,0.0,0.0,-0.00038306120138959193,-0.0006134961130654582,-0.13585512802953503,0.0,0.0,0.0,0.0,0.0,0.0,0.0,0.0,0.0,0.03690919878400386,0.143215622886458,-0.000413494825512521,0.0,0.0,0.0,0.0,0.0,0.0,0.0,0.0,0.0
1.87,41,1,870000000,base_footprint,-0.0014327480663381415,0.003571572873836578,0.3696524681958241,0.9291621192541809,0.0,0.0,0.0,0.0,0.0,0.0,0.0,0.0,0.0,-0.001009983024321507,0.0008128055365857164,-0.1404725199122129,0.0,0.0,0.0,0.0,0.0,0.0,0.0,0.0,0.0,0.0001370542271616395,-0.033057079191065826,0.0019281894763608204,0.0,0.0,0.0,0.0,0.0,0.0,0.0,0.0,0.0
1.904,42,1,904000000,base_footprint,-0.0014242602588896277,0.0035793451157726344,0.3673765801308599,0.9300643032299493,0.0,0.0,0.0,0.0,0.0,0.0,0.0,0.0,0.0,-0.0008329952334276508,-0.0008070252308919805,-0.1478805002351568,0.0,0.0,0.0,0.0,0.0,0.0,0.0,0.0,0.0,0.040979509186284915,0.08363648366608098,-0.0033322883657223145,0.0,0.0,0.0,0.0,0.0,0.0,0.0,0.0,0.0
1.9380000000000002,43,1,938000000,base_footprint,-0.0014114774089941686,0.0035818447518317447,0.36496238348213533,0.9310143053480631,0.0,0.0,0.0,0.0,0.0,0.0,0.0,0.0,0.0,6.709742996558702e-05,0.00024571944007572595,-0.157202389726495,0.0,0.0,0.0,0.0,0.0,0.0,0.0,0.0,0.0,0.049677201877822555,0.2509884779553688,0.00047655639352710516,0.0,0.0,0.0,0.0,0.0,0.0,0.0,0.0,0.0
1.965,44,1,972000000,base_footprint,-0.001418439755079813,0.003594858691060366,0.36280400226474235,0.93185745742594,0.0,0.0,0.0,0.0,0.0,0.0,0.0,0.0,0.0,-2.9393063633426634e-05,-0.0003286041753175686,-0.09274314636016086,0.0,0.0,0.0,0.0,0.0,0.0,0.0,0.0,0.0,0.0515831665612496,0.2683272021000388,-0.002899399285260969,0.0,0.0,0.0,0.0,0.0,0.0,0.0,0.0,0.0
2.005,45,2,6000000,base_footprint,-0.0014118551968733345,0.003600774575637668,0.3622827869773062,0.932060203713963,0.0,0.0,0.0,0.0,0.0,0.0,0.0,0.0,0.0,0.0011089883237465645,-0.00015148611072816323,0.0003154092862273267,0.0,0.0,0.0,0.0,0.0,0.0,0.0,0.0,0.0,0.02491855028679489,0.2020158023568998,-0.0004919542593955989,0.0,0.0,0.0,0.0,0.0,0.0,0.0,0.0,0.0
2.04,46,2,40000000,base_footprint,-0.001406843389476291,0.003589330903297368,0.36227517127415504,0.9320632155458265,0.0,0.0,0.0,0.0,0.0,0.0,0.0,0.0,0.0,-0.0005529932964309619,-0.0011390964441952804,-0.0010118549827855521,0.0,0.0,0.0,0.0,0.0,0.0,0.0,0.0,0.0,0.022244846990361708,0.2407365582822297,-0.004936940571050975,0.0,0.0,0.0,0.0,0.0,0.0,0.0,0.0,0.0
2.074,47,2,74000000,base_footprint,-0.0014100904121910251,0.0035946583309425886,0.3626573126176245,0.9319145688749993,0.0,0.0,0.0,0.0,0.0,0.0,0.0,0.0,0.0,0.0004432422146391929,0.00018533580434210322,0.027497577272264644,0.0,0.0,0.0,0.0,0.0,0.0,0.0,0.0,0.0,0.0030898991713342525,0.0999127477076476,0.0020116181731160547,0.0,0.0,0.0,0.0,0.0,0.0,0.0,0.0,0.0
2.108,48,2,108000000,base_footprint,-0.0014114703214221213,0.003594075800269976,0.3630910985384104,0.9317456436886862,0.0,0.0,0.0,0.0,0.0,0.0,0.0,0.0,0.0,0.0003216550816759814,0.00018709004666532178,0.02726115187331226,0.0,0.0,0.0,0.0,0.0,0.0,0.0,0.0,0.0,-0.005360530232660889,0.006235314095816088,-0.00020246212480594725,0.0,0.0,0.0,0.0,0.0,0.0,0.0,0.0,0.0
2.142,49,2,142000000,base_footprint,-0.0014137539577952344,0.003594718063591219,0.36357583864549664,0.9315565945529096,0.0,0.0,0.0,0.0,0.0,0.0,0.0,0.0,0.0,0.000335875325523625,0.00024193768863535697,0.035493099170877083,0.0,0.0,0.0,0.0,0.0,0.0,0.0,0.0,0.0,-0.005930191919104495,0.003820951377605954,-8.024093203834157e-05,0.0,0.0,0.0,0.0,0.0,0.0,0.0,0.0,0.0
2.176,50,2,176000000,base_footprint,-0.0014170523836175403,0.0035968100520699714,0.3641339601686554,0.9313385603376915,0.0,0.0,0.0,0.0,0.0,0.0,0.0,0.0,0.0,0.0001702098019597575,0.00022289194913049275,0.03510354470078284,0.0,0.0,0.0,0.0,0.0,0.0,0.0,0.0,0.0,-0.007419395681658323,0.00621165978311925,-0.00032274304097031575,0.0,0.0,0.0,0.0,0.0,0.0,0.0,0.0,0.0
2.209,51,2,210000000,base_footprint,-0.0014214887021945398,0.003600429253004214,0.3646874251416461,0.9311219566859221,0.0,0.0,0.0,0.0,0.0,0.0,0.0,0.0,0.0,6.483374345475264e-05,0.00023943928346492738,0.03476506616772858,0.0,0.0,0.0,0.0,0.0,0.0,0.0,0.0,0.0,-0.006946493316978299,0.005065493268786102,-0.0003295177408866157,0.0,0.0,0.0,0.0,0.0,0.0,0.0,0.0,0.0
2.244,52,2,244000000,base_footprint,-0.0014183390339727647,0.0035906173149019118,0.3652498804855735,0.930901509606122,0.0,0.0,0.0,0.0,0.0,0.0,0.0,0.0,0.0,0.0013110476859703821,0.00019524877517441877,0.03762680321767784,0.0,0.0,0.0,0.0,0.0,0.0,0.0,0.0,0.0,-0.030849214251958842,-0.2822704949107102,0.003653996549052749,0.0,0.0,0.0,0.0,0.0,0.0,0.0,0.0,0.0
2.278,53,2,278000000,base_footprint,-0.0014236404664509708,0.003594170601032264,0.3658218689823063,0.9306768587215464,0.0,0.0,0.0,0.0,0.0,0.0,0.0,0.0,0.0,0.0010941416295116,0.0005163073322914087,0.02908396185927103,0.0,0.0,0.0,0.0,0.0,0.0,0.0,0.0,0.0,-0.011899537423563523,-0.06654534551122226,0.0009440808825601972,0.0,0.0,0.0,0.0,0.0,0.0,0.0,0.0,0.0
2.312,54,2,312000000,base_footprint,-0.0014283182224270397,0.003603191705939074,0.3662333630699184,0.9305149653235477,0.0,0.0,0.0,0.0,0.0,0.0,0.0,0.0,0.0,0.0007437046495264114,0.00013027857528489476,0.02685926687058522,0.0,0.0,0.0,0.0,0.0,0.0,0.0,0.0,0.0,-0.000197966243098638,0.00021090880072379502,-0.0012680064940318284,0.0,0.0,0.0,0.0,0.0,0.0,0.0,0.0,0.0
2.346,55,2,346000000,base_footprint,-0.001425155906513681,0.0035955326200243017,0.3665962497712787,0.9303720926217933,0.0,0.0,0.0,0.0,0.0,0.0,0.0,0.0,0.0,0.000862854117686757,0.0003087818806248766,0.01696573558890991,0.0,0.0,0.0,0.0,0.0,0.0,0.0,0.0,0.0,-0.007346259360504636,-0.04677405148923901,0.0007729091625462494,0.0,0.0,0.0,0.0,0.0,0.0,0.0,0.0,0.0
2.38,56,2,380000000,base_footprint,-0.0014203954255793576,0.0035802577429576133,0.3668269916698064,0.9302812060951295,0.0,0.0,0.0,0.0,0.0,0.0,0.0,0.0,0.0,0.001109312053341905,0.0025317899144606574,0.015296746203930484,0.0,0.0,0.0,0.0,0.0,0.0,0.0,0.0,0.0,-0.01604546383884357,-0.011735910576191326,0.00401442759225216,0.0,0.0,0.0,0.0,0.0,0.0,0.0,0.0,0.0
2.414,57,2,414000000,base_footprint,-0.001416412104000605,0.003577943348210021,0.3670998725973922,0.930173572854619,0.0,0.0,0.0,0.0,0.0,0.0,0.0,0.0,0.0,-0.00126440752906148,-0.0023518949564448723,0.01896547780038521,0.0,0.0,0.0,0.0,0.0,0.0,0.0,0.0,0.0,0.019077873190901554,0.20194787846736684,-0.011782210498658761,0.0,0.0,0.0,0.0,0.0,0.0,0.0,0.0,0.0
2.448,58,2,448000000,base_footprint,-0.0014314794636531665,0.003596120478270944,0.36756732969643785,0.9299888584944882,0.0,0.0,0.0,0.0,0.0,0.0,0.0,0.0,0.0,0.0010935495372164023,6.704310495453348e-05,0.03813446781394233,0.0,0.0,0.0,0.0,0.0,0.0,0.0,0.0,0.0,-0.000429060433672572,0.1690928260716352,0.00562828212933999,0.0,0.0,0.0,0.0,0.0,0.0,0.0,0.0,0.0
2.482,59,2,482000000,base_footprint,-0.001433111192590696,0.003592407022115074,0.3681742693937206,0.9297487553960463,0.0,0.0,0.0,0.0,0.0,0.0,0.0,0.0,0.0,0.000759692421745145,0.0002691473158229614,0.03847799055469739,0.0,0.0,0.0,0.0,0.0,0.0,0.0,0.0,0.0,-0.005152469373590072,0.005581017156491475,-7.589335146974289e-05,0.0,0.0,0.0,0.0,0.0,0.0,0.0,0.0,0.0
2.516,60,2,516000000,base_footprint,-0.0014331521614930117,0.00358791339862638,0.3687793179601892,0.9295089497133117,0.0,0.0,0.0,0.0,0.0,0.0,0.0,0.0,0.0,0.0005681269432388867,0.0002642238420376891,0.038122727986206015,0.0,0.0,0.0,0.0,0.0,0.0,0.0,0.0,0.0,-0.008113122998121516,0.006079746799785908,-0.00028476944926202725,0.0,0.0,0.0,0.0,0.0,0.0,0.0,0.0,0.0
2.55,61,2,550000000,base_footprint,-0.0014341137881581875,0.0035863151727347697,0.3692901186531672,0.9293061335890633,0.0,0.0,0.0,0.0,0.0,0.0,0.0,0.0,0.0,-0.0006430948921156651,0.00013294308024612412,0.023287839704294756,0.0,0.0,0.0,0.0,0.0,0.0,0.0,0.0,0.0,-0.02563584149550291,-0.3194632415107222,0.0003777446613927768,0.0,0.0,0.0,0.0,0.0,0.0,0.0,0.0,0.0
2.583,62,2,584000000,base_footprint,-0.0014351373776195348,0.003584551891175346,0.369733520650343,0.9291298160515297,0.0,0.0,0.0,0.0,0.0,0.0,0.0,0.0,0.0,0.0003833184349127351,0.00020512609748112091,0.030361484752643404,0.0,0.0,0.0,0.0,0.0,0.0,0.0,0.0,0.0,-0.006265352869533066,-0.006929530677752995,0.0012338085174305542,0.0,0.0,0.0,0.0,0.0,0.0,0.0,0.0,0.0
2.618,63,2,618000000,base_footprint,-0.001437249963596088,0.003584847328536957,0.3702097860343309,0.928940147429633,0.0,0.0,0.0,0.0,0.0,0.0,0.0,0.0,0.0,0.00027848145926376354,0.0002008977643796363,0.029978706799365616,0.0,0.0,0.0,0.0,0.0,0.0,0.0,0.0,0.0,-0.00585001911808575,0.005813317754985154,-0.00018258567704194546,0.0,0.0,0.0,0.0,0.0,0.0,0.0,0.0,0.0
2.652,64,2,652000000,base_footprint,-0.0014402956395933432,0.0035843442623120017,0.3708147385975844,0.9286988250576637,0.0,0.0,0.0,0.0,0.0,0.0,0.0,0.0,0.0,-0.0005690112212482959,0.0008157483195794081,0.06388553211339897,0.0,0.0,0.0,0.0,0.0,0.0,0.0,0.0,0.0,0.009592999743371938,0.3407536636619749,-0.0035472208483962055,0.0,0.0,0.0,0.0,0.0,0.0,0.0,0.0,0.0
2.686,65,2,686000000,base_footprint,-0.0014462309765899883,0.003588831740952823,0.3718145462997312,0.9282989668542256,0.0,0.0,0.0,0.0,0.0,0.0,0.0,0.0,0.0,0.00022579332773337902,0.0003732274986146827,0.06311409004211045,0.0,0.0,0.0,0.0,0.0,0.0,0.0,0.0,0.0,-0.013259372546339708,0.0019758574300064438,0.0012136837652690557,0.0,0.0,0.0,0.0,0.0,0.0,0.0,0.0,0.0
2.72,66,2,720000000,base_footprint,-0.0014520549826718867,0.003591436161369981,0.3728083993205191,0.9279002589280264,0.0,0.0,0.0,0.0,0.0,0.0,0.0,0.0,0.0,0.0002462701461129013,0.000341925728203903,0.06273280397044095,0.0,0.0,0.0,0.0,0.0,0.0,0.0,0.0,0.0,-0.012543152505981581,0.003181412821890881,-0.0001273009281967274,0.0,0.0,0.0,0.0,0.0,0.0,0.0,0.0,0.0
2.754,67,2,754000000,base_footprint,-0.0014496297034465695,0.003574671322023194,0.37391825591165967,0.9274536420730931,0.0,0.0,0.0,0.0,0.0,0.0,0.0,0.0,0.0,-0.0014530541869471074,-0.0008438097262503081,0.08032656441787343,0.0,0.0,0.0,0.0,0.0,0.0,0.0,0.0,0.0,-0.03010385767941043,-0.38356808102909185,1.7655733848586166e-06,0.0,0.0,0.0,0.0,0.0,0.0,0.0,0.0,0.0
2.7880000000000003,68,2,788000000,base_footprint,-0.0014573203478733974,0.0035863687503292826,0.37479435728396854,0.9270998888602497,0.0,0.0,0.0,0.0,0.0,0.0,0.0,0.0,0.0,-0.0011094279623085031,-0.0004050645787118659,0.030396685615558167,0.0,0.0,0.0,0.0,0.0,0.0,0.0,0.0,0.0,-0.009967491246970273,0.05139242818235055,0.00023155012406117352,0.0,0.0,0.0,0.0,0.0,0.0,0.0,0.0,0.0
2.822,69,2,822000000,base_footprint,-0.001462460282351779,0.0035829847301721202,0.3753210115678965,0.9268868117014056,0.0,0.0,0.0,0.0,0.0,0.0,0.0,0.0,0.0,0.0008564698597711521,0.00020111384290524348,0.028460901231604857,0.0,0.0,0.0,0.0,0.0,0.0,0.0,0.0,0.0,-0.005445067151669288,-0.04315337713485599,0.0036253591494694497,0.0,0.0,0.0,0.0,0.0,0.0,0.0,0.0,0.0
2.856,70,2,856000000,base_footprint,-0.0014571935355994214,0.003565405681280284,0.3758378257870647,0.9266774482941622,0.0,0.0,0.0,0.0,0.0,0.0,0.0,0.0,0.0,0.0024507251281861613,0.0016152625272892805,0.045505876048009694,0.0,0.0,0.0,0.0,0.0,0.0,0.0,0.0,0.0,-0.019981133502088265,-0.00998562613528188,0.004724622492133384,0.0,0.0,0.0,0.0,0.0,0.0,0.0,0.0,0.0
2.89,71,2,890000000,base_footprint,-0.0014552665074513784,0.0035676407196018893,0.37673162012049166,0.9263144393457752,0.0,0.0,0.0,0.0,0.0,0.0,0.0,0.0,0.0,-0.00048135154747572673,0.0015096835860641247,0.0653556249090718,0.0,0.0,0.0,0.0,0.0,0.0,0.0,0.0,0.0,0.00022754647513621024,0.1591891092125588,-0.008499260971642542,0.0,0.0,0.0,0.0,0.0,0.0,0.0,0.0,0.0
2.924,72,2,924000000,base_footprint,-0.0014648331756062431,0.0035802802050809396,0.37740878880866247,0.9260386827705412,0.0,0.0,0.0,0.0,0.0,0.0,0.0,0.0,0.0,-0.0020669889335918215,-0.0015350871972812411,0.009537922061276068,0.0,0.0,0.0,0.0,0.0,0.0,0.0,0.0,0.0,-0.001892955312252892,0.20100660107614607,-0.0033035696961257514,0.0,0.0,0.0,0.0,0.0,0.0,0.0,0.0,0.0
2.957,73,2,958000000,base_footprint,-0.0014670221683795183,0.0035797716351101024,0.3770884925328038,0.926169154031992,0.0,0.0,0.0,0.0,0.0,0.0,0.0,0.0,0.0,7.714209058587672e-05,-0.0002885437012212887,-0.023793680844487776,0.0,0.0,0.0,0.0,0.0,0.0,0.0,0.0,0.0,0.0025495324448718427,0.014237351380252415,0.004417107243333344,0.0,0.0,0.0,0.0,0.0,0.0,0.0,0.0,0.0
2.992,74,2,992000000,base_footprint,-0.0014637291559957885,0.0035768313366338206,0.3767082274302415,0.9263239040211112,0.0,0.0,0.0,0.0,0.0,0.0,0.0,0.0,0.0,0.00025191931320696847,-4.109725531141878e-05,-0.024328882887283985,0.0,0.0,0.0,0.0,0.0,0.0,0.0,0.0,0.0,0.004776233932374861,0.005552603442637137,0.0004041923308131144,0.0,0.0,0.0,0.0,0.0,0.0,0.0,0.0,0.0
3.026,75,3,26000000,base_footprint,-0.0014605280633051907,0.003575449466252085,0.37632092795676325,0.9264813231796156,0.0,0.0,0.0,0.0,0.0,0.0,0.0,0.0,0.0,0.0001421209137666819,-6.37935996693308e-05,-0.024826120010697256,0.0,0.0,0.0,0.0,0.0,0.0,0.0,0.0,0.0,0.005546495616209954,0.005600209159212523,-0.0002601778720223662,0.0,0.0,0.0,0.0,0.0,0.0,0.0,0.0,0.0
3.06,76,3,60000000,base_footprint,-0.0014587895702896027,0.003575333273447509,0.37605114964058,0.9265908599694752,0.0,0.0,0.0,0.0,0.0,0.0,0.0,0.0,0.0,0.00010060600910251344,-3.667039156905996e-05,-0.01691042414385721,0.0,0.0,0.0,0.0,0.0,0.0,0.0,0.0,0.0,0.00398678811384518,0.0034647308284673634,-0.00021121893638885065,0.0,0.0,0.0,0.0,0.0,0.0,0.0,0.0,0.0
3.094,77,3,94000000,base_footprint,-0.0014579254917088957,0.0035765748246389235,0.3757805320111231,0.9267006390022732,0.0,0.0,0.0,0.0,0.0,0.0,0.0,0.0,0.0,1.828991803611835e-05,-5.1935610333889795e-05,-0.017411124159624897,0.0,0.0,0.0,0.0,0.0,0.0,0.0,0.0,0.0,0.0040620535541019106,0.00563775251994406,-0.00022291643759250935,0.0,0.0,0.0,0.0,0.0,0.0,0.0,0.0,0.0
3.128,78,3,128000000,base_footprint,-0.001457170454525338,0.0035797470729089674,0.3755080506346331,0.9268110735062127,0.0,0.0,0.0,0.0,0.0,0.0,0.0,0.0,0.0,-0.0003467416872634058,0.0017773045566591415,-0.004971345245969796,0.0,0.0,0.0,0.0,0.0,0.0,0.0,0.0,0.0,0.0014193409898046192,0.001203158778726217,8.133996297819282e-05,0.0,0.0,0.0,0.0,0.0,0.0,0.0,0.0,0.0
3.162,79,3,162000000,base_footprint,-0.0014612631662903903,0.003582475735515749,0.37586999363625445,0.9266643289031069,0.0,0.0,0.0,0.0,0.0,0.0,0.0,0.0,0.0,-7.685015181540953e-06,0.00014734518765069127,0.023152561344048424,0.0,0.0,0.0,0.0,0.0,0.0,0.0,0.0,0.0,-0.0020222154359200327,-0.0014317974002940885,-0.0006247380635375165,0.0,0.0,0.0,0.0,0.0,0.0,0.0,0.0,0.0
3.196,80,3,196000000,base_footprint,-0.0014646635339649785,0.003586038223811263,0.3762304825366946,0.9265180079743704,0.0,0.0,0.0,0.0,0.0,0.0,0.0,0.0,0.0,6.929306080937211e-05,0.00010369442200827819,0.022596861173321256,0.0,0.0,0.0,0.0,0.0,0.0,0.0,0.0,0.0,-0.0032103946449273755,0.004424381090786799,-8.391371471085873e-05,0.0,0.0,0.0,0.0,0.0,0.0,0.0,0.0,0.0
3.23,81,3,230000000,base_footprint,-0.0014677928264309021,0.003588250718242754,0.3765872708560648,0.9263730336479915,0.0,0.0,0.0,0.0,0.0,0.0,0.0,0.0,0.0,0.0036724671360662334,-0.0001713338178938597,0.025035487528751572,0.0,0.0,0.0,0.0,0.0,0.0,0.0,0.0,0.0,-0.00859385742062542,-0.033685665530192366,0.011087168183639513,0.0,0.0,0.0,0.0,0.0,0.0,0.0,0.0,0.0
3.2640000000000002,82,3,264000000,base_footprint,-0.0014666643098903767,0.00357301771060352,0.37716898748049943,0.9261364031951108,0.0,0.0,0.0,0.0,0.0,0.0,0.0,0.0,0.0,-0.007199516822095834,0.0002606747055616558,0.0352264284973849,0.0,0.0,0.0,0.0,0.0,0.0,0.0,0.0,0.0,-0.011841061357630453,-0.32571202983884473,-0.01773678856810978,0.0,0.0,0.0,0.0,0.0,0.0,0.0,0.0,0.0
3.298,83,3,298000000,base_footprint,-0.0014675078769750807,0.0035866332037955816,0.3771171402486447,0.9261574623213791,0.0,0.0,0.0,0.0,0.0,0.0,0.0,0.0,0.0,-5.721810131276958e-06,-0.0006304443205580751,-0.015568736294957211,0.0,0.0,0.0,0.0,0.0,0.0,0.0,0.0,0.0,-6.880413610286552e-06,-0.021121946769243984,0.008968391969158607,0.0,0.0,0.0,0.0,0.0,0.0,0.0,0.0,0.0
3.332,84,3,332000000,base_footprint,-0.0014646964855143634,0.0035766254995081266,0.3769456546224495,0.9262273132851864,0.0,0.0,0.0,0.0,0.0,0.0,0.0,0.0,0.0,0.005032444762485857,-0.001761511168803074,0.0011854856690223146,0.0,0.0,0.0,0.0,0.0,0.0,0.0,0.0,0.0,-0.007277001419845689,-0.030914852477120707,0.011372348497724562,0.0,0.0,0.0,0.0,0.0,0.0,0.0,0.0,0.0
3.365,85,3,366000000,base_footprint,-0.001456732532574716,0.0035636016261830195,0.3771303300306942,0.9261521974517569,0.0,0.0,0.0,0.0,0.0,0.0,0.0,0.0,0.0,0.0009194357493496392,1.7541004370085443e-05,0.021217841759064656,0.0,0.0,0.0,0.0,0.0,0.0,0.0,0.0,0.0,0.005182278934659522,0.13928007905135004,-0.010656033455574818,0.0,0.0,0.0,0.0,0.0,0.0,0.0,0.0,0.0
3.4,86,3,400000000,base_footprint,-0.001466536284512508,0.0035792931394289886,0.3774676647316792,0.9260146867161239,0.0,0.0,0.0,0.0,0.0,0.0,0.0,0.0,0.0,-0.0014665449910112242,-0.0015702229984001473,0.0017481624091766597,0.0,0.0,0.0,0.0,0.0,0.0,0.0,0.0,0.0,0.0027925960974257563,0.2331388881565018,-0.005679452937905305,0.0,0.0,0.0,0.0,0.0,0.0,0.0,0.0,0.0
3.434,87,3,434000000,base_footprint,-0.001468439147574855,0.003580259133060286,0.377553384752379,0.925979733629755,0.0,0.0,0.0,0.0,0.0,0.0,0.0,0.0,0.0,0.0006379534036089025,0.001505396503367499,0.030524184862053605,0.0,0.0,0.0,0.0,0.0,0.0,0.0,0.0,0.0,-0.0022347931608399387,0.0013073318125612044,0.0044723290461997495,0.0,0.0,0.0,0.0,0.0,0.0,0.0,0.0,0.0
3.468,88,3,468000000,base_footprint,-0.0014695927355370452,0.0035746488877082803,0.37799309690972,0.9258003461174124,0.0,0.0,0.0,0.0,0.0,0.0,0.0,0.0,0.0,0.0005740459666520054,0.00024029893840514359,0.027499509409528514,0.0,0.0,0.0,0.0,0.0,0.0,0.0,0.0,0.0,-0.0056278519321201195,0.004823442477353053,-0.0002739665747127358,0.0,0.0,0.0,0.0,0.0,0.0,0.0,0.0,0.0
3.502,89,3,502000000,base_footprint,-0.001469400635065256,0.0035717567812626294,0.3784227249413649,0.9256248293251544,0.0,0.0,0.0,0.0,0.0,0.0,0.0,0.0,0.0,0.0004381610301615746,0.00022357368706323378,0.027120916323109742,0.0,0.0,0.0,0.0,0.0,0.0,0.0,0.0,0.0,-0.005923415922071384,0.005783221384950858,-0.00023313136626185085,0.0,0.0,0.0,0.0,0.0,0.0,0.0,0.0,0.0
3.536,90,3,536000000,base_footprint,-0.0014732769957438508,0.003577802771628568,0.3788401707948342,0.9254540257486387,0.0,0.0,0.0,0.0,0.0,0.0,0.0,0.0,0.0,0.005036344185917559,0.0006013111849454173,0.01885053629995642,0.0,0.0,0.0,0.0,0.0,0.0,0.0,0.0,0.0,-0.010870080859721618,-0.23694569735567428,0.0033030070440532963,0.0,0.0,0.0,0.0,0.0,0.0,0.0,0.0,0.0
3.5700000000000003,91,3,570000000,base_footprint,-0.0014706300030077743,0.0035713247479069407,0.378888541236666,0.9254342527735238,0.0,0.0,0.0,0.0,0.0,0.0,0.0,0.0,0.0,0.0006057927393099458,0.0002937978505232398,0.02050686766734121,0.0,0.0,0.0,0.0,0.0,0.0,0.0,0.0,0.0,-8.206192483783264e-05,-0.09150289189980536,-0.0013327696284963972,0.0,0.0,0.0,0.0,0.0,0.0,0.0,0.0,0.0
3.604,92,3,604000000,base_footprint,-0.001472182000235394,0.0035724549718763486,0.37919553087165375,0.9253084996975857,0.0,0.0,0.0,0.0,0.0,0.0,0.0,0.0,0.0,0.0001556727157476353,0.00015197948402257143,0.019200780982300047,0.0,0.0,0.0,0.0,0.0,0.0,0.0,0.0,0.0,-0.004761317028682247,0.006404946883326721,-0.0006340495072080845,0.0,0.0,0.0,0.0,0.0,0.0,0.0,0.0,0.0
3.638,93,3,638000000,base_footprint,-0.0014720396394118493,0.0035693407971994343,0.37946660125384035,0.9251973797187455,0.0,0.0,0.0,0.0,0.0,0.0,0.0,0.0,0.0,6.035633746801037e-05,0.0006754905417591257,0.011110467553565808,0.0,0.0,0.0,0.0,0.0,0.0,0.0,0.0,0.0,-0.0009476803267476908,0.20957158430534706,0.0003271251317186773,0.0,0.0,0.0,0.0,0.0,0.0,0.0,0.0,0.0
3.672,94,3,672000000,base_footprint,-0.0014799253473948685,0.0035787033046580717,0.3802639588658525,0.9248698958725452,0.0,0.0,0.0,0.0,0.0,0.0,0.0,0.0,0.0,0.0001862524741588186,0.0003426707626284485,0.059288788097415335,0.0,0.0,0.0,0.0,0.0,0.0,0.0,0.0,0.0,-0.007871940426487811,0.12878772463465532,-0.002736655426331456,0.0,0.0,0.0,0.0,0.0,0.0,0.0,0.0,0.0
3.706,95,3,706000000,base_footprint,-0.0014851355601907899,0.0035802164349445073,0.3811865326439965,0.9244900236095003,0.0,0.0,0.0,0.0,0.0,0.0,0.0,0.0,0.0,0.0002696755378647738,0.0002672405421512315,0.0578615462366253,0.0,0.0,0.0,0.0,0.0,0.0,0.0,0.0,0.0,-0.011821305697538467,0.0019557714019000313,0.00016738999908947106,0.0,0.0,0.0,0.0,0.0,0.0,0.0,0.0,0.0
3.74,96,3,740000000,base_footprint,-0.0014813089666250504,0.003560415217765594,0.38213860926549054,0.9240969713595318,0.0,0.0,0.0,0.0,0.0,0.0,0.0,0.0,0.0,-0.0007298997858385787,0.0006507429105846755,0.07183263090746901,0.0,0.0,0.0,0.0,0.0,0.0,0.0,0.0,0.0,-0.015675537320903356,-0.1281259261406682,0.0013229329095745584,0.0,0.0,0.0,0.0,0.0,0.0,0.0,0.0,0.0
3.774,97,3,774000000,base_footprint,-0.0014930224420312051,0.0035792030437285308,0.3834540662878979,0.923551806471535,0.0,0.0,0.0,0.0,0.0,0.0,0.0,0.0,0.0,8.757833307347293e-05,0.0016433890714338717,0.07857047040277444,0.0,0.0,0.0,0.0,0.0,0.0,0.0,0.0,0.0,-0.008782865148402118,-0.16687819727646377,0.00022427652941721285,0.0,0.0,0.0,0.0,0.0,0.0,0.0,0.0,0.0
3.808,98,3,808000000,base_footprint,-0.0014940560288153944,0.0035654462140811815,0.384369191074664,0.9231713710587465,0.0,0.0,0.0,0.0,0.0,0.0,0.0,0.0,0.0,1.6798884935869426e-05,0.0004237409737790672,0.038336651843665186,0.0,0.0,0.0,0.0,0.0,0.0,0.0,0.0,0.0,-0.028291502684875847,-0.09937289291374972,0.00045820602296551877,0.0,0.0,0.0,0.0,0.0,0.0,0.0,0.0,0.0
3.842,99,3,842000000,base_footprint,-0.0014894940972239221,0.0035539697538609707,0.3853809181930165,0.9227495318877331,0.0,0.0,0.0,0.0,0.0,0.0,0.0,0.0,0.0,-0.00021617782860049455,0.0010311210500944675,0.08197608396939973,0.0,0.0,0.0,0.0,0.0,0.0,0.0,0.0,0.0,-0.010751053154952535,0.04836725167572031,-0.000555434976938753,0.0,0.0,0.0,0.0,0.0,0.0,0.0,0.0,0.0
3.876,100,3,876000000,base_footprint,-0.0014912270044398154,0.0035608138496287123,0.38650271920537527,0.9222801878461884,0.0,0.0,0.0,0.0,0.0,0.0,0.0,0.0,0.0,0.0003540308518077044,0.00039761273444675096,0.04243858697804066,0.0,0.0,0.0,0.0,0.0,0.0,0.0,0.0,0.0,-0.014405650174393658,0.17578221988248754,0.0004931407939609552,0.0,0.0,0.0,0.0,0.0,0.0,0.0,0.0,0.0
3.91,101,3,910000000,base_footprint,-0.0015033560002682609,0.003565589419479944,0.3865580880205262,0.9222569441748559,0.0,0.0,0.0,0.0,0.0,0.0,0.0,0.0,0.0,0.0009270001231104885,-0.00018082918092363222,-0.013517339676640231,0.0,0.0,0.0,0.0,0.0,0.0,0.0,0.0,0.0,-0.005413374037455246,0.1516352540203188,0.0003590149926378875,0.0,0.0,0.0,0.0,0.0,0.0,0.0,0.0,0.0
3.944,102,3,944000000,base_footprint,-0.001502848810148226,0.0035617069919022257,0.3868043166913379,0.9221537161871143,0.0,0.0,0.0,0.0,0.0,0.0,0.0,0.0,0.0,-2.939937858226447e-05,-4.0388087402019657e-05,0.052767381029732024,0.0,0.0,0.0,0.0,0.0,0.0,0.0,0.0,0.0,0.0012167531062591097,-0.013761154568125157,-0.0017639104099957008,0.0,0.0,0.0,0.0,0.0,0.0,0.0,0.0,0.0
3.978,103,3,978000000,base_footprint,-0.001504366069126107,0.003557730162034274,0.38762317842384514,0.9218098236553027,0.0,0.0,0.0,0.0,0.0,0.0,0.0,0.0,0.0,0.0005924310185979714,0.0003846039453297565,0.052010690571612644,0.0,0.0,0.0,0.0,0.0,0.0,0.0,0.0,0.0,-0.012816848908164731,0.005750039123643937,0.0011693537105132424,0.0,0.0,0.0,0.0,0.0,0.0,0.0,0.0,0.0
4.012,104,4,12000000,base_footprint,-0.0015063031643209354,0.0035554371847593127,0.38843401062183824,0.921468452693545,0.0,0.0,0.0,0.0,0.0,0.0,0.0,0.0,0.0,0.0005007160283863487,0.00036517156007667977,0.051537594117612,0.0,0.0,0.0,0.0,0.0,0.0,0.0,0.0,0.0,-0.01147083738610325,0.005520285785138109,-0.00014261634865389336,0.0,0.0,0.0,0.0,0.0,0.0,0.0,0.0,0.0
4.046,105,4,46000000,base_footprint,-0.001508433815333636,0.003554976094499566,0.3890459283472634,0.921210265036603,0.0,0.0,0.0,0.0,0.0,0.0,0.0,0.0,0.0,0.00024739012508256594,0.0002218112408415804,0.028074156346838332,0.0,0.0,0.0,0.0,0.0,0.0,0.0,0.0,0.0,-0.009359058441126807,0.011748791494284745,-0.0002544576126642411,0.0,0.0,0.0,0.0,0.0,0.0,0.0,0.0,0.0
4.08,106,4,80000000,base_footprint,-0.0015106029551221342,0.003555989776781055,0.38948302338965796,0.9210255411804119,0.0,0.0,0.0,0.0,0.0,0.0,0.0,0.0,0.0,0.00020033136924503016,0.00020979236439260784,0.027697626655627593,0.0,0.0,0.0,0.0,0.0,0.0,0.0,0.0,0.0,-0.00591059665926353,0.0053434489592136215,-0.00012483896184278072,0.0,0.0,0.0,0.0,0.0,0.0,0.0,0.0,0.0
4.114,107,4,114000000,base_footprint,-0.0015136447344588082,0.003558683232531296,0.38991207017878365,0.9208439727674627,0.0,0.0,0.0,0.0,0.0,0.0,0.0,0.0,0.0,7.838879964550057e-05,0.00019782684089937556,0.027154271340941002,0.0,0.0,0.0,0.0,0.0,0.0,0.0,0.0,0.0,-0.006027377273094437,0.00512448747995266,-0.0002594340471974588,0.0,0.0,0.0,0.0,0.0,0.0,0.0,0.0,0.0
4.148,108,4,148000000,base_footprint,-0.0015159256017861589,0.0035631605423213377,0.3899594316190207,0.9208238960560754,0.0,0.0,0.0,0.0,0.0,0.0,0.0,0.0,0.0,-0.0004492889420764924,-0.00013666643640451983,-0.01429787479672397,0.0,0.0,0.0,0.0,0.0,0.0,0.0,0.0,0.0,-0.002016875353468352,0.014214537631144025,-0.0008295048991883209,0.0,0.0,0.0,0.0,0.0,0.0,0.0,0.0,0.0
4.181,109,4,182000000,base_footprint,-0.0015163537269204332,0.003566273504177772,0.3897273167041456,0.9209221470782724,0.0,0.0,0.0,0.0,0.0,0.0,0.0,0.0,0.0,-0.00012148008476780047,-0.00010699225766504106,-0.015421205258083775,0.0,0.0,0.0,0.0,0.0,0.0,0.0,0.0,0.0,0.004599826462411792,-0.0007294196116907248,0.0005276724780520122,0.0,0.0,0.0,0.0,0.0,0.0,0.0,0.0,0.0
4.216,110,4,216000000,base_footprint,-0.0015168088293450828,0.003567611176907597,0.38947820419467905,0.921027523963727,0.0,0.0,0.0,0.0,0.0,0.0,0.0,0.0,0.0,3.09065324512472e-05,-0.00014688418111663814,-0.016600197455324806,0.0,0.0,0.0,0.0,0.0,0.0,0.0,0.0,0.0,0.004766302378658615,-0.00791710802923859,0.00030670882362424703,0.0,0.0,0.0,0.0,0.0,0.0,0.0,0.0,0.0
4.25,111,4,250000000,base_footprint,-0.0015035805343306342,0.0035585423479093524,0.3893757339542347,0.92107090597279,0.0,0.0,0.0,0.0,0.0,0.0,0.0,0.0,0.0,-0.003450778272620224,0.0024542181955009095,0.012358966397125852,0.0,0.0,0.0,0.0,0.0,0.0,0.0,0.0,0.0,0.0005983074389128082,-0.14584339038651736,-0.004513340605702739,0.0,0.0,0.0,0.0,0.0,0.0,0.0,0.0,0.0
4.284,112,4,284000000,base_footprint,-0.0015188204631186514,0.0035622495521787927,0.38957466953782166,0.9209867428019938,0.0,0.0,0.0,0.0,0.0,0.0,0.0,0.0,0.0,-0.001242752302793161,-0.0013715396381750523,-0.005261947823596904,0.0,0.0,0.0,0.0,0.0,0.0,0.0,0.0,0.0,0.0017623382229351794,-0.1629851188056386,0.0032209168410728714,0.0,0.0,0.0,0.0,0.0,0.0,0.0,0.0,0.0
4.317,113,4,318000000,base_footprint,-0.001513121537245688,0.0035592626579530424,0.3889362835630149,0.921256538343547,0.0,0.0,0.0,0.0,0.0,0.0,0.0,0.0,0.0,0.000638255341736846,-0.00044407999055850875,-0.06636097054563833,0.0,0.0,0.0,0.0,0.0,0.0,0.0,0.0,0.0,0.014859170392552773,-0.25442417494948266,0.005237516636671149,0.0,0.0,0.0,0.0,0.0,0.0,0.0,0.0,0.0
4.352,114,4,352000000,base_footprint,-0.001501740228031539,0.0035483119602262208,0.38840787296393053,0.9214795051861738,0.0,0.0,0.0,0.0,0.0,0.0,0.0,0.0,0.0,3.2575456404464e-05,-3.688440124877602e-05,-0.014441940979203928,0.0,0.0,0.0,0.0,0.0,0.0,0.0,0.0,0.0,0.0062343533828819325,0.1372694996195734,-0.0013639963739756314,0.0,0.0,0.0,0.0,0.0,0.0,0.0,0.0,0.0
4.386,115,4,386000000,base_footprint,-0.0015107048798252399,0.0035524343833712806,0.3884455978203141,0.9214635725381318,0.0,0.0,0.0,0.0,0.0,0.0,0.0,0.0,0.0,-0.001684609811330355,-0.0006109367252891789,0.02145684564475224,0.0,0.0,0.0,0.0,0.0,0.0,0.0,0.0,0.0,-0.00639958464908974,0.3661829673839141,-0.0072015457091482655,0.0,0.0,0.0,0.0,0.0,0.0,0.0,0.0,0.0
4.42,116,4,420000000,base_footprint,-0.0015128179088734796,0.003558866575390415,0.38889922517413306,0.9212721848127361,0.0,0.0,0.0,0.0,0.0,0.0,0.0,0.0,0.0,0.0004557655137507098,8.448911007389773e-05,0.02974220924998696,0.0,0.0,0.0,0.0,0.0,0.0,0.0,0.0,0.0,-0.008994043909394553,0.025011640069646835,0.005303035012193612,0.0,0.0,0.0,0.0,0.0,0.0,0.0,0.0,0.0
4.454,117,4,454000000,base_footprint,-0.0015125543351868144,0.0035564173646316036,0.38927988846821115,0.9211114115616464,0.0,0.0,0.0,0.0,0.0,0.0,0.0,0.0,0.0,0.0009382379999307011,0.00021613855725829511,0.020843182986909098,0.0,0.0,0.0,0.0,0.0,0.0,0.0,0.0,0.0,0.0028313427081506637,-0.31210296917214414,0.0024711398881771996,0.0,0.0,0.0,0.0,0.0,0.0,0.0,0.0,0.0
4.488,118,4,488000000,base_footprint,-0.0015116932935915818,0.003553634663806137,0.38958658836071536,0.9209817460913767,0.0,0.0,0.0,0.0,0.0,0.0,0.0,0.0,0.0,0.00030329540683468473,0.00019490039315951408,0.01919519854186933,0.0,0.0,0.0,0.0,0.0,0.0,0.0,0.0,0.0,-0.002792502283909739,-0.0154261788624549,-0.0006248904749111537,0.0,0.0,0.0,0.0,0.0,0.0,0.0,0.0,0.0
4.522,119,4,522000000,base_footprint,-0.0015121528965643372,0.0035531344251790577,0.3898831812774317,0.9208562285103813,0.0,0.0,0.0,0.0,0.0,0.0,0.0,0.0,0.0,0.00027778805791604333,0.0001823014642143091,0.018751277666546086,0.0,0.0,0.0,0.0,0.0,0.0,0.0,0.0,0.0,-0.00407225142188305,0.0054498485211480156,-9.70792885331532e-05,0.0,0.0,0.0,0.0,0.0,0.0,0.0,0.0,0.0
4.556,120,4,556000000,base_footprint,-0.001515226661512578,0.0035522754557281004,0.3907010210968361,0.9205095314776163,0.0,0.0,0.0,0.0,0.0,0.0,0.0,0.0,0.0,0.0003023488521129433,0.0008269251714693107,0.09543553449582534,0.0,0.0,0.0,0.0,0.0,0.0,0.0,0.0,0.0,-0.020585062888643202,0.32811900251076287,-0.0022754598985440075,0.0,0.0,0.0,0.0,0.0,0.0,0.0,0.0,0.0
4.59,121,4,590000000,base_footprint,-0.0015215987661612324,0.0035530550843719507,0.3921859511387858,0.9198778398603416,0.0,0.0,0.0,0.0,0.0,0.0,0.0,0.0,0.0,0.0004905775491824849,0.0006017689023880131,0.09468598166189783,0.0,0.0,0.0,0.0,0.0,0.0,0.0,0.0,0.0,-0.021565955591858282,0.0020309212275427795,0.00025161716790061815,0.0,0.0,0.0,0.0,0.0,0.0,0.0,0.0,0.0
4.624,122,4,624000000,base_footprint,-0.0015290022258694783,0.0035549695459955993,0.3936611990607194,0.9192474556384679,0.0,0.0,0.0,0.0,0.0,0.0,0.0,0.0,0.0,0.00039833700928536557,0.0006014049975174409,0.09402305001239432,0.0,0.0,0.0,0.0,0.0,0.0,0.0,0.0,0.0,-0.02067226127539097,0.003754498017776365,-0.00019293559704563733,0.0,0.0,0.0,0.0,0.0,0.0,0.0,0.0,0.0
4.658,123,4,658000000,base_footprint,-0.0015337690336971578,0.0035578289508779023,0.39435579692155087,0.9189496693726356,0.0,0.0,0.0,0.0,0.0,0.0,0.0,0.0,0.0,0.00017259602600630796,0.00019625357405084464,0.035921546357235365,0.0,0.0,0.0,0.0,0.0,0.0,0.0,0.0,0.0,-0.009529711091507603,0.016870947085570655,-9.75144771477821e-05,0.0,0.0,0.0,0.0,0.0,0.0,0.0,0.0,0.0
4.692,124,4,692000000,base_footprint,-0.001537581023255866,0.003558122433903132,0.39490648773056053,0.9187131443261576,0.0,0.0,0.0,0.0,0.0,0.0,0.0,0.0,0.0,0.00025798134761505166,0.0001792444533178168,0.034891511611655095,0.0,0.0,0.0,0.0,0.0,0.0,0.0,0.0,0.0,-0.006164017078597616,-1.8660485454369616e-05,0.00022308859706297112,0.0,0.0,0.0,0.0,0.0,0.0,0.0,0.0,0.0
4.726,125,4,726000000,base_footprint,-0.0015412187902801753,0.0035541148620853186,0.3954198790287472,0.9184923038224536,0.0,0.0,0.0,0.0,0.0,0.0,0.0,0.0,0.0,0.0005901510659235812,-0.00020099129066254414,0.028301453470666683,0.0,0.0,0.0,0.0,0.0,0.0,0.0,0.0,0.0,-0.009146688040159525,-0.02116148928599798,0.0007808320122888698,0.0,0.0,0.0,0.0,0.0,0.0,0.0,0.0,0.0
4.76,126,4,760000000,base_footprint,-0.0015453999581987285,0.003549871326614189,0.3960210677960612,0.9182332623109453,0.0,0.0,0.0,0.0,0.0,0.0,0.0,0.0,0.0,0.00025005459856944996,-0.00022910354658877292,0.02986290595696253,0.0,0.0,0.0,0.0,0.0,0.0,0.0,0.0,0.0,0.0008080017247814875,-0.19121631027283106,-1.2581896569087208e-05,0.0,0.0,0.0,0.0,0.0,0.0,0.0,0.0,0.0
4.7940000000000005,127,4,794000000,base_footprint,-0.0015435784261840714,0.003558773362760434,0.3960101335392329,0.9182379466304111,0.0,0.0,0.0,0.0,0.0,0.0,0.0,0.0,0.0,3.270181343866191e-05,0.0011835213097821057,0.0006518059599839294,0.0,0.0,0.0,0.0,0.0,0.0,0.0,0.0,0.0,0.014740138010270257,-0.12341067395741213,0.0020039989206020853,0.0,0.0,0.0,0.0,0.0,0.0,0.0,0.0,0.0
4.828,128,4,828000000,base_footprint,-0.0015440114855485912,0.00355493129626068,0.3962093935931989,0.9181519999000824,0.0,0.0,0.0,0.0,0.0,0.0,0.0,0.0,0.0,-0.0016289835518880945,0.0019807290828670835,0.002154625677373025,0.0,0.0,0.0,0.0,0.0,0.0,0.0,0.0,0.0,-0.007123300673939096,-0.039954580540653345,-0.0037705940581496656,0.0,0.0,0.0,0.0,0.0,0.0,0.0,0.0,0.0
4.862,129,4,862000000,base_footprint,-0.0015415010951611656,0.0035517274040656127,0.3958207838086261,0.9183196154454862,0.0,0.0,0.0,0.0,0.0,0.0,0.0,0.0,0.0,6.61580999035606e-05,-0.00024968693980282806,-0.024828003102982454,0.0,0.0,0.0,0.0,0.0,0.0,0.0,0.0,0.0,0.005452250653462589,0.010468724713785276,0.0034917909501754035,0.0,0.0,0.0,0.0,0.0,0.0,0.0,0.0,0.0
4.896,130,4,896000000,base_footprint,-0.0015398143197959825,0.003548861794923336,0.39542969936801153,0.91848809867605,0.0,0.0,0.0,0.0,0.0,0.0,0.0,0.0,0.0,0.00013883168668593908,-0.0002753764165083945,-0.025093934371123706,0.0,0.0,0.0,0.0,0.0,0.0,0.0,0.0,0.0,0.004065842331359983,0.005430844148429554,2.0188474979354348e-05,0.0,0.0,0.0,0.0,0.0,0.0,0.0,0.0,0.0
4.93,131,4,930000000,base_footprint,-0.0015318937456648557,0.00354000763534295,0.39503471876262125,0.9186580934273809,0.0,0.0,0.0,0.0,0.0,0.0,0.0,0.0,0.0,0.0059210591238413384,0.0014904701163819503,-0.024012679459835193,0.0,0.0,0.0,0.0,0.0,0.0,0.0,0.0,0.0,0.0011872196630553188,0.06907162672477389,0.008391002036244051,0.0,0.0,0.0,0.0,0.0,0.0,0.0,0.0,0.0
4.964,132,4,964000000,base_footprint,-0.0015345571926514954,0.0035439078916706846,0.39525740215599436,0.9185622852545017,0.0,0.0,0.0,0.0,0.0,0.0,0.0,0.0,0.0,0.00045023656980308906,0.00031846855185601946,0.035653265288997094,0.0,0.0,0.0,0.0,0.0,0.0,0.0,0.0,0.0,-0.016530746463510784,0.26574000926754815,-0.00993646644470584,0.0,0.0,0.0,0.0,0.0,0.0,0.0,0.0,0.0
4.998,133,4,998000000,base_footprint,-0.0015356860735433265,0.0035430253664899642,0.3958098764119875,0.9183243601115365,0.0,0.0,0.0,0.0,0.0,0.0,0.0,0.0,0.0,0.00037565658118088124,0.00029924301208555693,0.03521123842495397,0.0,0.0,0.0,0.0,0.0,0.0,0.0,0.0,0.0,-0.008404863135561973,0.005458646573853954,-0.0001740906814249438,0.0,0.0,0.0,0.0,0.0,0.0,0.0,0.0,0.0
5.032,134,5,32000000,base_footprint,-0.001535900267749533,0.0035430630158888973,0.39628761202801394,0.9181183018914105,0.0,0.0,0.0,0.0,0.0,0.0,0.0,0.0,0.0,-0.00034002302479355605,0.0008341141521615181,-0.004001615601845532,0.0,0.0,0.0,0.0,0.0,0.0,0.0,0.0,0.0,-0.007077041311064754,0.01216621433965466,-0.0006406732720569725,0.0,0.0,0.0,0.0,0.0,0.0,0.0,0.0,0.0
5.066,135,5,66000000,base_footprint,-0.0015373918835877663,0.0035461327079208244,0.39620847145884586,0.9181524429599145,0.0,0.0,0.0,0.0,0.0,0.0,0.0,0.0,0.0,-1.5543801648426494e-05,5.554942162319038e-05,-0.0049466995274784886,0.0,0.0,0.0,0.0,0.0,0.0,0.0,0.0,0.0,5.897761470979954e-06,0.00903433348776834,0.0001690899809872938,0.0,0.0,0.0,0.0,0.0,0.0,0.0,0.0,0.0
5.1,136,5,100000000,base_footprint,-0.0015384956373136458,0.003550416696414831,0.39612572186587097,0.9181881288977214,0.0,0.0,0.0,0.0,0.0,0.0,0.0,0.0,0.0,-0.00011914638196547708,6.136413324191765e-05,-0.005634993141987002,0.0,0.0,0.0,0.0,0.0,0.0,0.0,0.0,0.0,0.0010239336203559399,0.004953472345584257,-0.00034091358871629553,0.0,0.0,0.0,0.0,0.0,0.0,0.0,0.0,0.0
5.134,137,5,134000000,base_footprint,-0.0015364133452743583,0.0035534859664481003,0.3959434661575116,0.9182667280146298,0.0,0.0,0.0,0.0,0.0,0.0,0.0,0.0,0.0,-0.000415259163949168,0.0015412612577684634,-0.045192004812732584,0.0,0.0,0.0,0.0,0.0,0.0,0.0,0.0,0.0,0.004402267014239947,0.01023813160012997,-7.518248374515492e-05,0.0,0.0,0.0,0.0,0.0,0.0,0.0,0.0,0.0
5.168,138,5,168000000,base_footprint,-0.0015387290164321655,0.0035575700444653805,0.39528342846310727,0.9185510259048456,0.0,0.0,0.0,0.0,0.0,0.0,0.0,0.0,0.0,-0.00015674042696541132,-0.0002723784744371751,-0.04241768280217581,0.0,0.0,0.0,0.0,0.0,0.0,0.0,0.0,0.0,0.008340684992948811,-0.0022214853001326427,6.545325764794451e-05,0.0,0.0,0.0,0.0,0.0,0.0,0.0,0.0,0.0
5.202,139,5,202000000,base_footprint,-0.0015378251813009402,0.003556515932334008,0.39459877224728424,0.9188453598016757,0.0,0.0,0.0,0.0,0.0,0.0,0.0,0.0,0.0,0.0002847340792956585,-0.0006496946245664269,-0.04676414035034867,0.0,0.0,0.0,0.0,0.0,0.0,0.0,0.0,0.0,0.00883343621961039,-0.015237324717584455,0.0008029728184651448,0.0,0.0,0.0,0.0,0.0,0.0,0.0,0.0,0.0
5.235,140,5,236000000,base_footprint,-0.0015349496421133114,0.0035498377638453565,0.393728835531709,0.9192184977753065,0.0,0.0,0.0,0.0,0.0,0.0,0.0,0.0,0.0,0.00036000475263808676,-0.001524757503018814,-0.05182406020311113,0.0,0.0,0.0,0.0,0.0,0.0,0.0,0.0,0.0,0.014795738960889674,-0.061627438709408774,0.001044117298204296,0.0,0.0,0.0,0.0,0.0,0.0,0.0,0.0,0.0
5.27,141,5,270000000,base_footprint,-0.0015377331242502352,0.003555196405825838,0.39339724410069715,0.919360432196933,0.0,0.0,0.0,0.0,0.0,0.0,0.0,0.0,0.0,0.00014447820823871132,0.0005643656357333856,0.01054347403676567,0.0,0.0,0.0,0.0,0.0,0.0,0.0,0.0,0.0,0.01062326847669425,0.013566647529151803,-0.0009812579842598513,0.0,0.0,0.0,0.0,0.0,0.0,0.0,0.0,0.0
5.304,142,5,304000000,base_footprint,-0.0015353734210422636,0.0035579671058869767,0.39389052470502683,0.9191491924851645,0.0,0.0,0.0,0.0,0.0,0.0,0.0,0.0,0.0,1.0751906895617059e-05,5.5677426302218456e-05,0.03140455476764502,0.0,0.0,0.0,0.0,0.0,0.0,0.0,0.0,0.0,-0.014315769851409442,0.01502097333130154,-0.0009491399971452496,0.0,0.0,0.0,0.0,0.0,0.0,0.0,0.0,0.0
5.338,143,5,338000000,base_footprint,-0.0015345502287757583,0.0035535312904744136,0.39434294878100334,0.9189551982102642,0.0,0.0,0.0,0.0,0.0,0.0,0.0,0.0,0.0,0.0038262307268932825,0.0006333679534689755,0.011299436403028551,0.0,0.0,0.0,0.0,0.0,0.0,0.0,0.0,0.0,0.003761344789850074,-0.21560309245419523,0.007388472951720203,0.0,0.0,0.0,0.0,0.0,0.0,0.0,0.0,0.0
5.372,144,5,372000000,base_footprint,-0.0015247139162691686,0.0035398371632146936,0.3944404921990902,0.9189134033814453,0.0,0.0,0.0,0.0,0.0,0.0,0.0,0.0,0.0,0.000786139882773118,0.001184036106056282,0.027325815757141218,0.0,0.0,0.0,0.0,0.0,0.0,0.0,0.0,0.0,0.011812607841844222,-0.23300424703304207,-0.002229855413861926,0.0,0.0,0.0,0.0,0.0,0.0,0.0,0.0,0.0
5.406,145,5,406000000,base_footprint,-0.001535343039454419,0.003547098674948253,0.39495776389216286,0.9186911480764599,0.0,0.0,0.0,0.0,0.0,0.0,0.0,0.0,0.0,0.0007535911112455933,0.00035973524387307226,0.03365599896498178,0.0,0.0,0.0,0.0,0.0,0.0,0.0,0.0,0.0,-0.012078655619757184,0.11220149226508123,-0.0018310229790302317,0.0,0.0,0.0,0.0,0.0,0.0,0.0,0.0,0.0
5.44,146,5,440000000,base_footprint,-0.0015343735572562903,0.0035411822961734004,0.3955081381360093,0.9184543638058015,0.0,0.0,0.0,0.0,0.0,0.0,0.0,0.0,0.0,-0.0017527795650719347,-0.0008514651037528958,0.050814380901241275,0.0,0.0,0.0,0.0,0.0,0.0,0.0,0.0,0.0,-0.021213668367453628,0.23773401780664466,-0.005453790968631311,0.0,0.0,0.0,0.0,0.0,0.0,0.0,0.0,0.0
5.474,147,5,474000000,base_footprint,-0.001538991448345397,0.0035413447925598538,0.3968557775608863,0.9178728573168108,0.0,0.0,0.0,0.0,0.0,0.0,0.0,0.0,0.0,0.0006982258101863955,0.0006143388813819249,0.09012477008906344,0.0,0.0,0.0,0.0,0.0,0.0,0.0,0.0,0.0,-0.023683705357591567,0.09679757644968225,0.0032250063602877388,0.0,0.0,0.0,0.0,0.0,0.0,0.0,0.0,0.0
5.508,148,5,508000000,base_footprint,-0.0015439733081985619,0.003540015282392978,0.3982576385749793,0.9172654674383558,0.0,0.0,0.0,0.0,0.0,0.0,0.0,0.0,0.0,0.000581561934081358,0.0006040221900523246,0.08969135970326196,0.0,0.0,0.0,0.0,0.0,0.0,0.0,0.0,0.0,-0.019858227818879987,0.004444905735316546,-0.000120122031865314,0.0,0.0,0.0,0.0,0.0,0.0,0.0,0.0,0.0
5.542,149,5,542000000,base_footprint,-0.0015481787230502359,0.0035407346663905203,0.399307221132294,0.916809036545926,0.0,0.0,0.0,0.0,0.0,0.0,0.0,0.0,0.0,0.000517030177416993,0.00027977736229881485,0.032398567408271246,0.0,0.0,0.0,0.0,0.0,0.0,0.0,0.0,0.0,-0.018890837244230463,0.02063718361842301,-6.138896189202258e-05,0.0,0.0,0.0,0.0,0.0,0.0,0.0,0.0,0.0
5.5760000000000005,150,5,576000000,base_footprint,-0.001551622942331813,0.003544216783435286,0.39981465291852175,0.9165878432017736,0.0,0.0,0.0,0.0,0.0,0.0,0.0,0.0,0.0,0.00010926426097635713,0.00025261108388910283,0.03228183700643633,0.0,0.0,0.0,0.0,0.0,0.0,0.0,0.0,0.0,-0.005167310544217313,0.002932717815187528,-0.0003977428809665235,0.0,0.0,0.0,0.0,0.0,0.0,0.0,0.0,0.0
5.61,151,5,610000000,base_footprint,-0.001555752249231481,0.0035471476653326454,0.400307481665326,0.9163726957418276,0.0,0.0,0.0,0.0,0.0,0.0,0.0,0.0,0.0,0.0001028997646685482,0.0001801979069563058,0.031036419262656594,0.0,0.0,0.0,0.0,0.0,0.0,0.0,0.0,0.0,-0.006079716848451515,0.0020464777019190443,-0.00018438500093394014,0.0,0.0,0.0,0.0,0.0,0.0,0.0,0.0,0.0
5.644,152,5,644000000,base_footprint,-0.0015583361377387783,0.0035485561749531145,0.40071593332557215,0.9161941497939019,0.0,0.0,0.0,0.0,0.0,0.0,0.0,0.0,0.0,0.0002813229385084873,-2.499940339304707e-05,0.02010480557634593,0.0,0.0,0.0,0.0,0.0,0.0,0.0,0.0,0.0,-0.004068081410928104,0.00010223629965086262,0.0003318108689267011,0.0,0.0,0.0,0.0,0.0,0.0,0.0,0.0,0.0
5.678,153,5,678000000,base_footprint,-0.001562605055242335,0.003544243653762929,0.40101280418654683,0.9160642594713574,0.0,0.0,0.0,0.0,0.0,0.0,0.0,0.0,0.0,0.00043858177603831294,-0.00038844306955802734,0.015586029132276634,0.0,0.0,0.0,0.0,0.0,0.0,0.0,0.0,0.0,-0.00826171600693666,-0.017198690764480395,0.00043986677727423577,0.0,0.0,0.0,0.0,0.0,0.0,0.0,0.0,0.0
5.712,154,5,712000000,base_footprint,-0.0015642567815783853,0.0035432043304723716,0.4010873822057728,0.9160316100654573,0.0,0.0,0.0,0.0,0.0,0.0,0.0,0.0,0.0,0.00043504937653514287,-0.0003750653536256273,0.002694515324664441,0.0,0.0,0.0,0.0,0.0,0.0,0.0,0.0,0.0,0.006347490347992719,-0.04477591386621034,0.0011098778832508616,0.0,0.0,0.0,0.0,0.0,0.0,0.0,0.0,0.0
5.746,155,5,746000000,base_footprint,-0.0015613969370626127,0.0035396645121657786,0.40145343385984733,0.9158712645655411,0.0,0.0,0.0,0.0,0.0,0.0,0.0,0.0,0.0,-0.0006405146047536488,0.001201223611109081,0.055948769639060175,0.0,0.0,0.0,0.0,0.0,0.0,0.0,0.0,0.0,-0.011081512404660782,0.025278661230431387,-0.0030144872287664786,0.0,0.0,0.0,0.0,0.0,0.0,0.0,0.0,0.0
5.78,156,5,780000000,base_footprint,-0.0015674186755367284,0.0035422586914012474,0.4026316280201462,0.9153539029904803,0.0,0.0,0.0,0.0,0.0,0.0,0.0,0.0,0.0,0.00016115929143816033,-0.000189545803095425,0.07446467763855545,0.0,0.0,0.0,0.0,0.0,0.0,0.0,0.0,0.0,-0.010593083984741639,-0.02277883751821269,0.0009225728728093237,0.0,0.0,0.0,0.0,0.0,0.0,0.0,0.0,0.0
5.814,157,5,814000000,base_footprint,-0.0015716036986893988,0.0035381234843625867,0.4037458393998504,0.9148630000777896,0.0,0.0,0.0,0.0,0.0,0.0,0.0,0.0,0.0,0.0006813805926647303,0.0002894464184437059,0.0732657328916537,0.0,0.0,0.0,0.0,0.0,0.0,0.0,0.0,0.0,-0.01680103345913723,0.007371286516331335,0.0015636016756431028,0.0,0.0,0.0,0.0,0.0,0.0,0.0,0.0,0.0
5.848,158,5,848000000,base_footprint,-0.0015734777766922743,0.003532928258960339,0.40456235274611146,0.9145022391039479,0.0,0.0,0.0,0.0,0.0,0.0,0.0,0.0,0.0,0.000994800860038772,0.0003214612682918188,0.038348872968622855,0.0,0.0,0.0,0.0,0.0,0.0,0.0,0.0,0.0,-0.015623006943770678,0.011669938951353133,0.0006883808310317447,0.0,0.0,0.0,0.0,0.0,0.0,0.0,0.0,0.0
5.882,159,5,882000000,base_footprint,-0.001574685016315032,0.0035301046223282593,0.405158949087688,0.9142380897242334,0.0,0.0,0.0,0.0,0.0,0.0,0.0,0.0,0.0,0.0004499513245248684,0.0002270637317560924,0.03840796626537865,0.0,0.0,0.0,0.0,0.0,0.0,0.0,0.0,0.0,-0.00736895101981464,0.0037959583558497038,-0.0006296658770477857,0.0,0.0,0.0,0.0,0.0,0.0,0.0,0.0,0.0
5.916,160,5,916000000,base_footprint,-0.001574396804521955,0.0035272924708172984,0.40575209316854766,0.9139750097086187,0.0,0.0,0.0,0.0,0.0,0.0,0.0,0.0,0.0,0.000469340637996015,0.00036333217955505047,0.03797170738219149,0.0,0.0,0.0,0.0,0.0,0.0,0.0,0.0,0.0,-0.008694311913638625,0.004700286080218674,0.00017217790673019996,0.0,0.0,0.0,0.0,0.0,0.0,0.0,0.0,0.0
5.95,161,5,950000000,base_footprint,-0.0015747129060271418,0.003526579844298382,0.40622150919483263,0.9137664739862904,0.0,0.0,0.0,0.0,0.0,0.0,0.0,0.0,0.0,0.0005537672088314601,0.00010869852742777255,0.015947337707316437,0.0,0.0,0.0,0.0,0.0,0.0,0.0,0.0,0.0,0.02675192700028002,-0.33016329482736384,0.0018095448193733523,0.0,0.0,0.0,0.0,0.0,0.0,0.0,0.0,0.0
5.984,162,5,984000000,base_footprint,-0.0015752152480329948,0.0035269261006798816,0.40646079470903546,0.9136600581472861,0.0,0.0,0.0,0.0,0.0,0.0,0.0,0.0,0.0,0.00018423087740429163,0.00019502954446856875,0.015178807374175693,0.0,0.0,0.0,0.0,0.0,0.0,0.0,0.0,0.0,-0.003563059585310258,0.007040099037427594,-0.0004190610856658507,0.0,0.0,0.0,0.0,0.0,0.0,0.0,0.0,0.0
6.018,163,6,18000000,base_footprint,-0.0015762765335761261,0.003528933276867068,0.4066912626983386,0.9135574852339879,0.0,0.0,0.0,0.0,0.0,0.0,0.0,0.0,0.0,9.193148897397352e-05,0.00018818277194149454,0.014588872224668275,0.0,0.0,0.0,0.0,0.0,0.0,0.0,0.0,0.0,-0.003506591730338906,0.004893690285239718,-0.00020640298277255448,0.0,0.0,0.0,0.0,0.0,0.0,0.0,0.0,0.0
6.052,164,6,52000000,base_footprint,-0.0015795863435297682,0.0035262747194758403,0.407392067957562,0.9132451879198967,0.0,0.0,0.0,0.0,0.0,0.0,0.0,0.0,0.0,0.0005626570491508973,0.0005564544227748681,0.10044294309671481,0.0,0.0,0.0,0.0,0.0,0.0,0.0,0.0,0.0,-0.03245813109085893,0.226019607638341,-0.001050566488912335,0.0,0.0,0.0,0.0,0.0,0.0,0.0,0.0,0.0
6.086,165,6,86000000,base_footprint,-0.0015895510579312547,0.003531229203070635,0.4094506399553551,0.912324052729018,0.0,0.0,0.0,0.0,0.0,0.0,0.0,0.0,0.0,0.0006086080616987714,0.0007911409834223304,0.13673164062093113,0.0,0.0,0.0,0.0,0.0,0.0,0.0,0.0,0.0,-0.0380284649838836,0.08176726198762159,-0.0008504128403636985,0.0,0.0,0.0,0.0,0.0,0.0,0.0,0.0,0.0
6.12,166,6,120000000,base_footprint,-0.0015992651627715004,0.0035288907258625136,0.4115463219527853,0.911380608839314,0.0,0.0,0.0,0.0,0.0,0.0,0.0,0.0,0.0,0.0007651481439044746,0.0007072101050415655,0.1332656167907812,0.0,0.0,0.0,0.0,0.0,0.0,0.0,0.0,0.0,-0.027764466439551556,-0.005794654973001978,0.0004649678941124699,0.0,0.0,0.0,0.0,0.0,0.0,0.0,0.0,0.0
6.154,167,6,154000000,base_footprint,-0.001603445793444832,0.0035323733566303118,0.41275368146407265,0.9108344249850858,0.0,0.0,0.0,0.0,0.0,0.0,0.0,0.0,0.0,-0.0012421353343888895,-0.0006413885284038994,0.0323670568842169,0.0,0.0,0.0,0.0,0.0,0.0,0.0,0.0,0.0,-0.02991899220978705,0.0706044508341428,-0.00337802417879501,0.0,0.0,0.0,0.0,0.0,0.0,0.0,0.0,0.0
6.188,168,6,188000000,base_footprint,-0.0016113753618025028,0.0035241595372550194,0.4130405440384801,0.9107043937246574,0.0,0.0,0.0,0.0,0.0,0.0,0.0,0.0,0.0,-0.0005373908024530112,0.0006096677599533377,0.007980266866274573,0.0,0.0,0.0,0.0,0.0,0.0,0.0,0.0,0.0,0.0092786489197819,-0.07853318943883833,0.0024079587335260784,0.0,0.0,0.0,0.0,0.0,0.0,0.0,0.0,0.0
6.222,169,6,222000000,base_footprint,-0.001606552183186816,0.0035216694409929113,0.41330691030677164,0.9105835572461769,0.0,0.0,0.0,0.0,0.0,0.0,0.0,0.0,0.0,0.00017431979158227253,0.000636783640463811,0.020732495970660545,0.0,0.0,0.0,0.0,0.0,0.0,0.0,0.0,0.0,-0.014812894619985657,0.0029458491837814123,0.0015997969903133796,0.0,0.0,0.0,0.0,0.0,0.0,0.0,0.0,0.0
6.256,170,6,256000000,base_footprint,-0.0016047619709423566,0.0035207232733324664,0.41338922022767965,0.9105461997318973,0.0,0.0,0.0,0.0,0.0,0.0,0.0,0.0,0.0,0.0006602507043210052,0.00024286159982582606,-0.0017091824457027972,0.0,0.0,0.0,0.0,0.0,0.0,0.0,0.0,0.0,0.011046680587275102,-0.053325978874508406,0.0010178984455398428,0.0,0.0,0.0,0.0,0.0,0.0,0.0,0.0,0.0
6.29,171,6,290000000,base_footprint,-0.0016104739697882199,0.003522939310960883,0.41315008061409353,0.9106547129185529,0.0,0.0,0.0,0.0,0.0,0.0,0.0,0.0,0.0,6.286057026523197e-05,-0.00028358461401393754,-0.02662836096740936,0.0,0.0,0.0,0.0,0.0,0.0,0.0,0.0,0.0,-0.006238486563376465,0.07267124601550692,-0.001027358383546542,0.0,0.0,0.0,0.0,0.0,0.0,0.0,0.0,0.0
6.323,172,6,324000000,base_footprint,-0.0016062785252661826,0.003518979940481774,0.4127863676871986,0.910819659044032,0.0,0.0,0.0,0.0,0.0,0.0,0.0,0.0,0.0,0.00018702357620167787,-0.00017443425239389756,-0.023097665789901134,0.0,0.0,0.0,0.0,0.0,0.0,0.0,0.0,0.0,0.007832837366254914,-0.004806401263853831,2.9190912907931518e-05,0.0,0.0,0.0,0.0,0.0,0.0,0.0,0.0,0.0
6.357,173,6,358000000,base_footprint,-0.0016022071366090368,0.0035188362616013036,0.41189032432453976,0.9112252254253506,0.0,0.0,0.0,0.0,0.0,0.0,0.0,0.0,0.0,4.820146684458499e-05,-0.00017993756648421335,-0.06309956362883491,0.0,0.0,0.0,0.0,0.0,0.0,0.0,0.0,0.0,0.010275157955736695,0.01742982608084062,0.00020695590606225597,0.0,0.0,0.0,0.0,0.0,0.0,0.0,0.0,0.0
6.392,174,6,392000000,base_footprint,-0.0015953469338621437,0.00351866590320788,0.4109083922023923,0.9116684523861004,0.0,0.0,0.0,0.0,0.0,0.0,0.0,0.0,0.0,-4.786548781296619e-05,-0.00020264115581741945,-0.06356961208680977,0.0,0.0,0.0,0.0,0.0,0.0,0.0,0.0,0.0,0.013005873157306311,0.007134408203814776,-0.0002960374034429621,0.0,0.0,0.0,0.0,0.0,0.0,0.0,0.0,0.0
6.426,175,6,426000000,base_footprint,-0.0015898252041315589,0.003520141422699266,0.4099177381453013,0.9121143179525386,0.0,0.0,0.0,0.0,0.0,0.0,0.0,0.0,0.0,-0.00014111029247628826,-0.00023575883594672138,-0.06412382720273638,0.0,0.0,0.0,0.0,0.0,0.0,0.0,0.0,0.0,0.013328551857042747,0.007382423261945543,-0.00029775322118288564,0.0,0.0,0.0,0.0,0.0,0.0,0.0,0.0,0.0
6.46,176,6,460000000,base_footprint,-0.0015900565449208678,0.003520461003395472,0.41021694029071054,0.9119797914279874,0.0,0.0,0.0,0.0,0.0,0.0,0.0,0.0,0.0,0.00024556387624206645,0.000288721502653279,0.028800823119464882,0.0,0.0,0.0,0.0,0.0,0.0,0.0,0.0,0.0,-0.001185470154185471,-0.019109135402442974,-9.863098219786435e-05,0.0,0.0,0.0,0.0,0.0,0.0,0.0,0.0,0.0
6.494,177,6,494000000,base_footprint,-0.0015918037065131949,0.0035224642148123236,0.4106578895532304,0.9117813093908551,0.0,0.0,0.0,0.0,0.0,0.0,0.0,0.0,0.0,0.00013052310905505428,0.0002843252667833004,0.02817847304848151,0.0,0.0,0.0,0.0,0.0,0.0,0.0,0.0,0.0,-0.006409852902096591,0.004575189702332769,-0.00020202084815971455,0.0,0.0,0.0,0.0,0.0,0.0,0.0,0.0,0.0
6.5280000000000005,178,6,528000000,base_footprint,-0.001595746605426721,0.00352774175633608,0.41108794498631596,0.9115874670692877,0.0,0.0,0.0,0.0,0.0,0.0,0.0,0.0,0.0,-0.004789968837593104,-0.0008338750392414306,0.029862979330849807,0.0,0.0,0.0,0.0,0.0,0.0,0.0,0.0,0.0,-0.003682320840129148,-0.02240578776555724,0.001720632904913577,0.0,0.0,0.0,0.0,0.0,0.0,0.0,0.0,0.0
6.562,179,6,562000000,base_footprint,-0.0015974192816663685,0.003512289470173033,0.412279905058489,0.9110490612251788,0.0,0.0,0.0,0.0,0.0,0.0,0.0,0.0,0.0,0.0007049009685300888,0.00044084027451298305,0.10948497142195969,0.0,0.0,0.0,0.0,0.0,0.0,0.0,0.0,0.0,0.06356841181670916,-0.5899218957241401,-0.006485003766289665,0.0,0.0,0.0,0.0,0.0,0.0,0.0,0.0,0.0
6.6,180,6,596000000,base_footprint,-0.0016057391623436348,0.0035233919691588936,0.4129198140742295,0.9107591528256404,0.0,0.0,0.0,0.0,0.0,0.0,0.0,0.0,0.0,-0.0009978693964766542,-0.0004942441747152606,0.00938125768152067,0.0,0.0,0.0,0.0,0.0,0.0,0.0,0.0,0.0,-0.04788127424852015,0.277583009128296,0.003923167823869431,0.0,0.0,0.0,0.0,0.0,0.0,0.0,0.0,0.0
6.63,181,6,630000000,base_footprint,-0.001606950523719972,0.003522991938244892,0.4129873704329208,0.9107285205266819,0.0,0.0,0.0,0.0,0.0,0.0,0.0,0.0,0.0,0.0018421962331535884,0.002590739660497482,0.009772210746919667,0.0,0.0,0.0,0.0,0.0,0.0,0.0,0.0,0.0,-0.006476444447508103,-0.038572428925980146,0.00853956394126583,0.0,0.0,0.0,0.0,0.0,0.0,0.0,0.0,0.0
6.664,182,6,664000000,base_footprint,-0.001619260960314349,0.003521092395884519,0.41363519574407953,0.9104344593346845,0.0,0.0,0.0,0.0,0.0,0.0,0.0,0.0,0.0,0.0008297058808429182,-0.00011754976464833079,0.042529486617884645,0.0,0.0,0.0,0.0,0.0,0.0,0.0,0.0,0.0,0.03638786811670548,-0.2517643875569801,-0.003640892862097603,0.0,0.0,0.0,0.0,0.0,0.0,0.0,0.0,0.0
6.698,183,6,698000000,base_footprint,-0.00161063143322274,0.003525114301450263,0.41362918693398826,0.9104371890206792,0.0,0.0,0.0,0.0,0.0,0.0,0.0,0.0,0.0,-0.0004860629600407363,0.0007347228849078,-0.0019093249855769102,0.0,0.0,0.0,0.0,0.0,0.0,0.0,0.0,0.0,0.006744094167340415,-0.06249618293760693,-0.000799647422290938,0.0,0.0,0.0,0.0,0.0,0.0,0.0,0.0,0.0
6.732,184,6,732000000,base_footprint,-0.0016015029269403288,0.003509966047576673,0.4137103452023429,0.9104003875214896,0.0,0.0,0.0,0.0,0.0,0.0,0.0,0.0,0.0,0.005649697885292643,0.0009964134512587771,0.02561446829884108,0.0,0.0,0.0,0.0,0.0,0.0,0.0,0.0,0.0,-0.0046736554562489515,-0.011278156604578485,0.01129078996979421,0.0,0.0,0.0,0.0,0.0,0.0,0.0,0.0,0.0
6.766,185,6,766000000,base_footprint,-0.0016007330065885888,0.0035033789054726874,0.4148562391388479,0.9098788187652559,0.0,0.0,0.0,0.0,0.0,0.0,0.0,0.0,0.0,0.0006586646995141777,0.0007328536577199875,0.11849401015900193,0.0,0.0,0.0,0.0,0.0,0.0,0.0,0.0,0.0,-0.04437174280602104,0.24579853147818942,-0.011771428641192046,0.0,0.0,0.0,0.0,0.0,0.0,0.0,0.0,0.0
6.8,186,6,800000000,base_footprint,-0.0016075343274896048,0.003506258041578078,0.41666692311468334,0.9090510421148388,0.0,0.0,0.0,0.0,0.0,0.0,0.0,0.0,0.0,0.0009196153928264986,0.0005054002264573813,0.08277625713992187,0.0,0.0,0.0,0.0,0.0,0.0,0.0,0.0,0.0,-0.05909931072694892,0.23718191164402533,-0.0005046019460686782,0.0,0.0,0.0,0.0,0.0,0.0,0.0,0.0,0.0
6.834,187,6,834000000,base_footprint,-0.0016260139976339099,0.003522756813501212,0.41721217452078946,0.9088008294970614,0.0,0.0,0.0,0.0,0.0,0.0,0.0,0.0,0.0,0.0008025456399802461,0.0006362975247945176,-0.0004359581933722697,0.0,0.0,0.0,0.0,0.0,0.0,0.0,0.0,0.0,-0.014870726686419842,0.01261406422404,0.004191570510509797,0.0,0.0,0.0,0.0,0.0,0.0,0.0,0.0,0.0
6.867,188,6,868000000,base_footprint,-0.0016199970521113738,0.00350835020727441,0.41748520574253006,0.9086755031772848,0.0,0.0,0.0,0.0,0.0,0.0,0.0,0.0,0.0,0.0002979686868263099,6.945952854019573e-06,0.0153733299785092,0.0,0.0,0.0,0.0,0.0,0.0,0.0,0.0,0.0,0.02574416771794856,-0.1637146873022795,-0.003877622398158696,0.0,0.0,0.0,0.0,0.0,0.0,0.0,0.0,0.0
6.902,189,6,902000000,base_footprint,-0.0016188118694645715,0.0035070007409725365,0.41772325068526656,0.9085661044915049,0.0,0.0,0.0,0.0,0.0,0.0,0.0,0.0,0.0,0.0003071058656738422,0.00023482498677916062,0.015219689126331919,0.0,0.0,0.0,0.0,0.0,0.0,0.0,0.0,0.0,-0.0034424801319898764,0.004915055195252511,0.0003037806432312725,0.0,0.0,0.0,0.0,0.0,0.0,0.0,0.0,0.0
6.936,190,6,936000000,base_footprint,-0.0016156585831245626,0.003502339607125456,0.41794244004988346,0.9084653213358056,0.0,0.0,0.0,0.0,0.0,0.0,0.0,0.0,0.0,-0.001665069368004359,-0.00038478068625418286,0.012720880250765846,0.0,0.0,0.0,0.0,0.0,0.0,0.0,0.0,0.0,-0.030598249870928004,0.18326108755902037,-0.003412384403317965,0.0,0.0,0.0,0.0,0.0,0.0,0.0,0.0,0.0
6.97,191,6,970000000,base_footprint,-0.0016215026234463535,0.0035068120582424788,0.4188171413635234,0.9080623740132155,0.0,0.0,0.0,0.0,0.0,0.0,0.0,0.0,0.0,0.00036377380090605845,0.0004974129951699853,0.0655786580551932,0.0,0.0,0.0,0.0,0.0,0.0,0.0,0.0,0.0,-0.03613873744026047,0.1486180962560806,0.0014018298984972023,0.0,0.0,0.0,0.0,0.0,0.0,0.0,0.0,0.0
7.004,192,7,4000000,base_footprint,-0.0016258896350629852,0.003508423032352717,0.4198222790684506,0.907598094669933,0.0,0.0,0.0,0.0,0.0,0.0,0.0,0.0,0.0,0.00026041562560466226,0.0004914015535831386,0.06473734675341486,0.0,0.0,0.0,0.0,0.0,0.0,0.0,0.0,0.0,-0.014731449879857117,0.0027866656430006725,-0.00016589063159502124,0.0,0.0,0.0,0.0,0.0,0.0,0.0,0.0,0.0
7.038,193,7,38000000,base_footprint,-0.0016280794001739542,0.0035116813361384547,0.420576219931883,0.9072489518756518,0.0,0.0,0.0,0.0,0.0,0.0,0.0,0.0,0.0,-0.002209310700453248,-0.0007122307348188682,0.001982990983542605,0.0,0.0,0.0,0.0,0.0,0.0,0.0,0.0,0.0,-0.011688559861153972,0.011071323362662512,-0.00330029603209811,0.0,0.0,0.0,0.0,0.0,0.0,0.0,0.0,0.0
7.072,194,7,72000000,base_footprint,-0.0016328758938952668,0.003512866589624303,0.4206518607483183,0.9072138697868414,0.0,0.0,0.0,0.0,0.0,0.0,0.0,0.0,0.0,8.155222277336443e-05,1.9061733200346695e-05,0.0039720886562753036,0.0,0.0,0.0,0.0,0.0,0.0,0.0,0.0,0.0,-0.00202103347503968,0.003961304459800717,0.003189553798121168,0.0,0.0,0.0,0.0,0.0,0.0,0.0,0.0,0.0
7.106,195,7,106000000,base_footprint,-0.0016373470398640946,0.003508910486045421,0.4206876181237709,0.9071972964020671,0.0,0.0,0.0,0.0,0.0,0.0,0.0,0.0,0.0,0.0003527376205174728,-0.0005324658270358966,-0.0007924498136293298,0.0,0.0,0.0,0.0,0.0,0.0,0.0,0.0,0.0,-0.003417867610480287,-0.010982639843359326,0.00034541645137501454,0.0,0.0,0.0,0.0,0.0,0.0,0.0,0.0,0.0
7.14,196,7,140000000,base_footprint,-0.0016353060748523901,0.0035078237979888223,0.42037943365415376,0.9073401527028642,0.0,0.0,0.0,0.0,0.0,0.0,0.0,0.0,0.0,-0.0009453315024724949,-0.0002820715801480501,-0.04935693399101553,0.0,0.0,0.0,0.0,0.0,0.0,0.0,0.0,0.0,0.008245427960875846,-0.011173595583779485,-0.0012690069959928757,0.0,0.0,0.0,0.0,0.0,0.0,0.0,0.0,0.0
7.174,197,7,174000000,base_footprint,-0.001636490568175518,0.0035130987501079632,0.4198169542474555,0.9076005205828068,0.0,0.0,0.0,0.0,0.0,0.0,0.0,0.0,0.0,0.0008674559114932401,-8.414767599258902e-05,-0.02960473837650671,0.0,0.0,0.0,0.0,0.0,0.0,0.0,0.0,0.0,0.00569146211604545,0.0049195182303695545,0.0027609058467406517,0.0,0.0,0.0,0.0,0.0,0.0,0.0,0.0,0.0
7.208,198,7,208000000,base_footprint,-0.0016287022578470314,0.0035115191709875655,0.41945572041864826,0.907767544677678,0.0,0.0,0.0,0.0,0.0,0.0,0.0,0.0,0.0,-9.268448285166461e-05,-0.00013399218278932153,-0.012894284537178455,0.0,0.0,0.0,0.0,0.0,0.0,0.0,0.0,0.0,0.01322736963034181,-0.038635845114495936,-0.0018372923238814552,0.0,0.0,0.0,0.0,0.0,0.0,0.0,0.0,0.0
7.242,199,7,242000000,base_footprint,-0.0016290281749244946,0.0035093330015514446,0.4190241388526637,0.9079668506657461,0.0,0.0,0.0,0.0,0.0,0.0,0.0,0.0,0.0,-0.0008030816607759665,-0.002031220184307128,-0.06804720511345652,0.0,0.0,0.0,0.0,0.0,0.0,0.0,0.0,0.0,0.03788494223471405,-0.2146546221889688,0.0018395011377121768,0.0,0.0,0.0,0.0,0.0,0.0,0.0,0.0,0.0
7.276,200,7,276000000,base_footprint,-0.0016286870057067335,0.003511177975511345,0.4184073703438425,0.9082512270565961,0.0,0.0,0.0,0.0,0.0,0.0,0.0,0.0,0.0,0.00033336814296606304,-0.00019659873911450325,-0.03708591356142238,0.0,0.0,0.0,0.0,0.0,0.0,0.0,0.0,0.0,0.022987197524871012,-0.07951097773840586,0.0008091014670357448,0.0,0.0,0.0,0.0,0.0,0.0,0.0,0.0,0.0
7.31,201,7,310000000,base_footprint,-0.001625419801072028,0.003509185466307354,0.41784994918559254,0.9085078225273744,0.0,0.0,0.0,0.0,0.0,0.0,0.0,0.0,0.0,3.8955968820374615e-05,-0.000313155597438784,-0.03636192274381126,0.0,0.0,0.0,0.0,0.0,0.0,0.0,0.0,0.0,0.008786148266385813,0.0026801593251882276,-0.0006248990790077666,0.0,0.0,0.0,0.0,0.0,0.0,0.0,0.0,0.0
7.344,202,7,344000000,base_footprint,-0.001619961198667648,0.0035046152377120813,0.4173772454825897,0.9087251115442538,0.0,0.0,0.0,0.0,0.0,0.0,0.0,0.0,0.0,-0.001729898796764954,-0.001116299767880637,-0.004111162056308248,0.0,0.0,0.0,0.0,0.0,0.0,0.0,0.0,0.0,-0.03837048375562606,0.28874468311949586,-0.004669443851434827,0.0,0.0,0.0,0.0,0.0,0.0,0.0,0.0,0.0
7.378,203,7,378000000,base_footprint,-0.0016199807040343014,0.0035064639045316788,0.4175748045045132,0.9086343395538288,0.0,0.0,0.0,0.0,0.0,0.0,0.0,0.0,0.0,0.0002757696679369513,0.00023357568066700786,0.013524640171406544,0.0,0.0,0.0,0.0,0.0,0.0,0.0,0.0,0.0,-0.009112227367957363,0.046239314635814856,0.003187506338937815,0.0,0.0,0.0,0.0,0.0,0.0,0.0,0.0,0.0
7.412,204,7,412000000,base_footprint,-0.0016194368469501302,0.0035064807848088748,0.41777879713042526,0.9085405652391418,0.0,0.0,0.0,0.0,0.0,0.0,0.0,0.0,0.0,0.0002111325673424057,0.00021544146297481425,0.013007289273044889,0.0,0.0,0.0,0.0,0.0,0.0,0.0,0.0,0.0,-0.003648194814515238,0.005277331516382024,-0.00016051107317185666,0.0,0.0,0.0,0.0,0.0,0.0,0.0,0.0,0.0
7.446,205,7,446000000,base_footprint,-0.001618632587847969,0.0035087361773414355,0.417660366985008,0.9085950069469522,0.0,0.0,0.0,0.0,0.0,0.0,0.0,0.0,0.0,-0.00034862179130579993,-0.00011607381873126967,-0.025908331058591062,0.0,0.0,0.0,0.0,0.0,0.0,0.0,0.0,0.0,-0.0014790636925654365,0.015567109654700668,-0.0006090645172849511,0.0,0.0,0.0,0.0,0.0,0.0,0.0,0.0,0.0
7.479,206,7,480000000,base_footprint,-0.0016174214302652043,0.003512822436627582,0.41725683693679705,0.9087803783400832,0.0,0.0,0.0,0.0,0.0,0.0,0.0,0.0,0.0,-0.00019559320180325025,-4.030714945200989e-05,-0.02647096789261456,0.0,0.0,0.0,0.0,0.0,0.0,0.0,0.0,0.0,0.005508298108430993,0.006070056738400198,1.4553767955332504e-05,0.0,0.0,0.0,0.0,0.0,0.0,0.0,0.0,0.0
7.514,207,7,514000000,base_footprint,-0.0016174634297227344,0.003516846038378666,0.4168363337236633,0.9089733145113836,0.0,0.0,0.0,0.0,0.0,0.0,0.0,0.0,0.0,-0.00019029873638700545,-0.000104423777966384,-0.028127900625294525,0.0,0.0,0.0,0.0,0.0,0.0,0.0,0.0,0.0,0.005796530165122708,0.0038847493609111714,-0.00018320988302875332,0.0,0.0,0.0,0.0,0.0,0.0,0.0,0.0,0.0
7.548,208,7,548000000,base_footprint,-0.0016149435035045766,0.003504985655253206,0.41671302410821265,0.9090299019128167,0.0,0.0,0.0,0.0,0.0,0.0,0.0,0.0,0.0,0.0010681446792476681,0.0003541477810753477,0.03571960227104281,0.0,0.0,0.0,0.0,0.0,0.0,0.0,0.0,0.0,0.0533743605149672,-0.34063377948954576,0.003300514133664379,0.0,0.0,0.0,0.0,0.0,0.0,0.0,0.0,0.0
7.582,209,7,582000000,base_footprint,-0.0016155581763979986,0.003515573189638276,0.41703535723683743,0.9088820283905225,0.0,0.0,0.0,0.0,0.0,0.0,0.0,0.0,0.0,0.0009589225369829111,-0.0003564396268213755,-0.0538503109448367,0.0,0.0,0.0,0.0,0.0,0.0,0.0,0.0,0.0,-0.006574843741862908,-0.03383273746828556,0.0012060815010310564,0.0,0.0,0.0,0.0,0.0,0.0,0.0,0.0,0.0
7.616,210,7,616000000,base_footprint,-0.0016240289447831864,0.0035160705607647953,0.4160381588604712,0.9093389083008533,0.0,0.0,0.0,0.0,0.0,0.0,0.0,0.0,0.0,-0.0009693603173659339,0.00011853079226144334,-0.07381038161138312,0.0,0.0,0.0,0.0,0.0,0.0,0.0,0.0,0.0,0.025773778223624207,-0.041557917007668296,-0.0034989954730627743,0.0,0.0,0.0,0.0,0.0,0.0,0.0,0.0,0.0
7.65,211,7,650000000,base_footprint,-0.0016157201728258747,0.003503556110571859,0.4148314353937367,0.9098901003704104,0.0,0.0,0.0,0.0,0.0,0.0,0.0,0.0,0.0,-0.0004092174127333898,-0.0005323994709253003,-0.08082643010654492,0.0,0.0,0.0,0.0,0.0,0.0,0.0,0.0,0.0,-0.0029310701123184783,0.08453386720528695,0.0006673005553037183,0.0,0.0,0.0,0.0,0.0,0.0,0.0,0.0,0.0
7.684,212,7,684000000,base_footprint,-0.001606631328882818,0.0035097272580503717,0.4141114472082032,0.9102180012730329,0.0,0.0,0.0,0.0,0.0,0.0,0.0,0.0,0.0,-6.977986969203982e-05,-1.8264378580536735e-05,0.0044904540667739315,0.0,0.0,0.0,0.0,0.0,0.0,0.0,0.0,0.0,0.0028320994347630774,0.09344821603132096,-0.0008491167780537303,0.0,0.0,0.0,0.0,0.0,0.0,0.0,0.0,0.0
7.718,213,7,718000000,base_footprint,-0.0016055385480298306,0.0035154320322904275,0.41488874449959473,0.9098639423953161,0.0,0.0,0.0,0.0,0.0,0.0,0.0,0.0,0.0,0.000513823110554437,0.0004501576963985084,0.056677598341594665,0.0,0.0,0.0,0.0,0.0,0.0,0.0,0.0,0.0,-0.028889175971979066,0.12509775709395182,0.0004277005350961053,0.0,0.0,0.0,0.0,0.0,0.0,0.0,0.0,0.0
7.752,214,7,752000000,base_footprint,-0.0016113436075565328,0.0035145874606190633,0.41536839614886284,0.9096450663459246,0.0,0.0,0.0,0.0,0.0,0.0,0.0,0.0,0.0,0.0009859332882014642,0.00016650196227823742,0.032261629038395336,0.0,0.0,0.0,0.0,0.0,0.0,0.0,0.0,0.0,0.038806701358635426,-0.28687699575444864,0.0013676392531289635,0.0,0.0,0.0,0.0,0.0,0.0,0.0,0.0,0.0
7.786,215,7,786000000,base_footprint,-0.0016148045162675548,0.003513441289812429,0.4157710988725091,0.9094610719976,0.0,0.0,0.0,0.0,0.0,0.0,0.0,0.0,0.0,0.0004145671313953198,0.0001293725409910427,0.025722649703670875,0.0,0.0,0.0,0.0,0.0,0.0,0.0,0.0,0.0,-0.010797474871098752,0.021984987252017855,-0.00011021558795364507,0.0,0.0,0.0,0.0,0.0,0.0,0.0,0.0,0.0
7.82,216,7,820000000,base_footprint,-0.0016153502494332876,0.0035111510533928072,0.4161683102898901,0.909279384992484,0.0,0.0,0.0,0.0,0.0,0.0,0.0,0.0,0.0,0.0003388165994321434,0.00010727669749722744,0.02570397541710705,0.0,0.0,0.0,0.0,0.0,0.0,0.0,0.0,0.0,-0.006053031219587738,0.003273434515549272,-0.0001421746199000403,0.0,0.0,0.0,0.0,0.0,0.0,0.0,0.0,0.0
7.854,217,7,854000000,base_footprint,-0.0016147838683348485,0.003509801898567541,0.41642841527512736,0.9091602986905761,0.0,0.0,0.0,0.0,0.0,0.0,0.0,0.0,0.0,0.000563872095324499,0.0002033289936998958,0.010073855348901775,0.0,0.0,0.0,0.0,0.0,0.0,0.0,0.0,0.0,0.04460643095745408,-0.3290236400404833,0.0021900995860567535,0.0,0.0,0.0,0.0,0.0,0.0,0.0,0.0,0.0
7.888,218,7,888000000,base_footprint,-0.0016138144139048257,0.003509019890186419,0.4165774825974726,0.9090920104011476,0.0,0.0,0.0,0.0,0.0,0.0,0.0,0.0,0.0,0.0002326120465412457,0.00018377531634272134,0.00942185716497955,0.0,0.0,0.0,0.0,0.0,0.0,0.0,0.0,0.0,-0.0019913404387113423,0.005264114405422429,-0.0003563903626323499,0.0,0.0,0.0,0.0,0.0,0.0,0.0,0.0,0.0
7.922,219,7,922000000,base_footprint,-0.0016137282176245588,0.0035096703839219124,0.41671765289586893,0.9090277640754402,0.0,0.0,0.0,0.0,0.0,0.0,0.0,0.0,0.0,0.0001606632496610654,0.0001681255904349711,0.008843695932784822,0.0,0.0,0.0,0.0,0.0,0.0,0.0,0.0,0.0,-0.0024701858781325976,0.004850771361858853,-0.00016510405828452945,0.0,0.0,0.0,0.0,0.0,0.0,0.0,0.0,0.0
7.956,220,7,956000000,base_footprint,-0.0016133998466677335,0.0035086259125764584,0.4167929840732465,0.9089932314998055,0.0,0.0,0.0,0.0,0.0,0.0,0.0,0.0,0.0,0.00030238290612751934,0.00026633758531170395,0.039665596039172475,0.0,0.0,0.0,0.0,0.0,0.0,0.0,0.0,0.0,-0.06945202141128819,0.45692411699597063,-0.00242480923140364,0.0,0.0,0.0,0.0,0.0,0.0,0.0,0.0,0.0
7.99,221,7,990000000,base_footprint,-0.0016205362787355764,0.003512921658254232,0.4182459614779449,0.9083255743129672,0.0,0.0,0.0,0.0,0.0,0.0,0.0,0.0,0.0,0.0002982247235098762,0.0010387861317199033,0.11686702226755924,0.0,0.0,0.0,0.0,0.0,0.0,0.0,0.0,0.0,-0.04908426561408592,0.1969765153441125,-0.0017648535681335279,0.0,0.0,0.0,0.0,0.0,0.0,0.0,0.0,0.0
8.024,222,8,24000000,base_footprint,-0.0016292997077763855,0.0035127532273389554,0.4200301109054172,0.9075019073699013,0.0,0.0,0.0,0.0,0.0,0.0,0.0,0.0,0.0,0.0005106372464369241,0.0006514432776294279,0.11436951909825378,0.0,0.0,0.0,0.0,0.0,0.0,0.0,0.0,0.0,-0.025142089080567982,-0.005435035350684166,0.00043915920684304475,0.0,0.0,0.0,0.0,0.0,0.0,0.0,0.0,0.0
8.058,223,8,58000000,base_footprint,-0.0016414875339040963,0.0035053963640508715,0.4223713441277687,0.906414621117019,0.0,0.0,0.0,0.0,0.0,0.0,0.0,0.0,0.0,-0.00037323476620733007,0.001986930148057277,0.15658865077052955,0.0,0.0,0.0,0.0,0.0,0.0,0.0,0.0,0.0,0.025861762754702103,-0.33020441129569883,0.0007352179208763526,0.0,0.0,0.0,0.0,0.0,0.0,0.0,0.0,0.0
8.092,224,8,92000000,base_footprint,-0.0016509338434519275,0.0035092951059610407,0.42431936690531563,0.9055042982418008,0.0,0.0,0.0,0.0,0.0,0.0,0.0,0.0,0.0,0.0008343526112385282,0.0004944321603977398,0.11317453922937945,0.0,0.0,0.0,0.0,0.0,0.0,0.0,0.0,0.0,-0.017661844253647627,-0.04709325351140423,0.0019154587816139067,0.0,0.0,0.0,0.0,0.0,0.0,0.0,0.0,0.0
8.126,225,8,126000000,base_footprint,-0.0016603435370109475,0.0035030114499587043,0.42607037652303137,0.9046817155329508,0.0,0.0,0.0,0.0,0.0,0.0,0.0,0.0,0.0,0.00033293788133003716,0.0008805151614423799,0.12080761391743258,0.0,0.0,0.0,0.0,0.0,0.0,0.0,0.0,0.0,-0.026364140855725256,0.003203960925980527,-0.0008696747712239253,0.0,0.0,0.0,0.0,0.0,0.0,0.0,0.0,0.0
8.16,226,8,160000000,base_footprint,-0.0016636958783421744,0.0034911429195962863,0.4279574864645155,0.903790591794423,0.0,0.0,0.0,0.0,0.0,0.0,0.0,0.0,0.0,-0.0004079443216577085,0.0022767507891037126,0.13479097503680648,0.0,0.0,0.0,0.0,0.0,0.0,0.0,0.0,0.0,-0.05225052863434358,0.1495808163494275,-0.0003346430354382174,0.0,0.0,0.0,0.0,0.0,0.0,0.0,0.0,0.0
8.194,227,8,194000000,base_footprint,-0.0016660996774812305,0.0034891269192985326,0.430080892595475,0.9027820755472968,0.0,0.0,0.0,0.0,0.0,0.0,0.0,0.0,0.0,0.0011377987191182116,0.0010794650236060862,0.14270914761372572,0.0,0.0,0.0,0.0,0.0,0.0,0.0,0.0,0.0,-0.03213641163041963,-0.02390878105367537,0.0006504717274431241,0.0,0.0,0.0,0.0,0.0,0.0,0.0,0.0,0.0
8.228,228,8,228000000,base_footprint,-0.0016652013570148177,0.0034799472355080147,0.4321220017404431,0.9018069043223784,0.0,0.0,0.0,0.0,0.0,0.0,0.0,0.0,0.0,-0.002157465867514362,0.0003291840958493669,0.10963265432105247,0.0,0.0,0.0,0.0,0.0,0.0,0.0,0.0,0.0,-0.0377653819891813,0.04803647728087188,-0.007614802555193296,0.0,0.0,0.0,0.0,0.0,0.0,0.0,0.0,0.0
8.262,229,8,262000000,base_footprint,-0.0016769913264385564,0.0034795416230730116,0.4330614307584362,0.9013561325467535,0.0,0.0,0.0,0.0,0.0,0.0,0.0,0.0,0.0,-0.0007478226833315927,-0.0016517797590355052,0.028310338544169648,0.0,0.0,0.0,0.0,0.0,0.0,0.0,0.0,0.0,-0.043344010964007376,0.14266797082599075,0.003671279642081394,0.0,0.0,0.0,0.0,0.0,0.0,0.0,0.0,0.0
8.296,230,8,296000000,base_footprint,-0.0016828537036281436,0.0034804092180312405,0.43341658980614034,0.9011853940427038,0.0,0.0,0.0,0.0,0.0,0.0,0.0,0.0,0.0,0.00039362450302649803,0.00017832794167253518,0.02362431892678763,0.0,0.0,0.0,0.0,0.0,0.0,0.0,0.0,0.0,-0.011676876590235172,0.01695030250034556,0.0038344121087803794,0.0,0.0,0.0,0.0,0.0,0.0,0.0,0.0,0.0
8.33,231,8,330000000,base_footprint,-0.00168777879273538,0.0034853947367957305,0.43377386071582197,0.9010134522780259,0.0,0.0,0.0,0.0,0.0,0.0,0.0,0.0,0.0,-0.0047169154991575975,-0.001502862704407752,0.020668856567254666,0.0,0.0,0.0,0.0,0.0,0.0,0.0,0.0,0.0,0.013118211723980689,-0.08084076211761232,-0.0055978025836269565,0.0,0.0,0.0,0.0,0.0,0.0,0.0,0.0,0.0
8.364,232,8,364000000,base_footprint,-0.0016812217601525881,0.0034783273145004216,0.43384174338989234,0.9009808080225158,0.0,0.0,0.0,0.0,0.0,0.0,0.0,0.0,0.0,0.0001667063584245852,0.00016623125292295518,-0.0006975221879393246,0.0,0.0,0.0,0.0,0.0,0.0,0.0,0.0,0.0,0.05298567420860296,-0.23683141033705687,0.007231676791523167,0.0,0.0,0.0,0.0,0.0,0.0,0.0,0.0,0.0
8.398,233,8,398000000,base_footprint,-0.0016797837633149826,0.0034790416233724344,0.43382511585468203,0.9009888142754955,0.0,0.0,0.0,0.0,0.0,0.0,0.0,0.0,0.0,0.00010803813915106336,0.00015004676161738885,-0.0013278688842653509,0.0,0.0,0.0,0.0,0.0,0.0,0.0,0.0,0.0,-0.0009510730103358179,0.005292123522222463,-0.00017383446562872166,0.0,0.0,0.0,0.0,0.0,0.0,0.0,0.0,0.0
8.432,234,8,432000000,base_footprint,-0.0016765296516989068,0.003476425662730516,0.43378260322304274,0.9010092989830786,0.0,0.0,0.0,0.0,0.0,0.0,0.0,0.0,0.0,0.0015931397050124552,-0.0007580166888596689,-0.013249693142681845,0.0,0.0,0.0,0.0,0.0,0.0,0.0,0.0,0.0,-0.020753598226763106,0.10333458325140395,0.001657193906579436,0.0,0.0,0.0,0.0,0.0,0.0,0.0,0.0,0.0
8.466,235,8,466000000,base_footprint,-0.0016810129975057624,0.003484116410128731,0.43406214280030053,0.9008746257475312,0.0,0.0,0.0,0.0,0.0,0.0,0.0,0.0,0.0,-0.0004692363138909827,0.0006137103654248691,0.04118588643042553,0.0,0.0,0.0,0.0,0.0,0.0,0.0,0.0,0.0,-0.05695498624274926,0.22815912214166792,-0.004670788679939451,0.0,0.0,0.0,0.0,0.0,0.0,0.0,0.0,0.0
8.5,236,8,500000000,base_footprint,-0.0016846253779825083,0.003485608550800502,0.43467026844804507,0.9005813512935248,0.0,0.0,0.0,0.0,0.0,0.0,0.0,0.0,0.0,0.0001485787209949441,0.00028982921146883985,0.03834869945276826,0.0,0.0,0.0,0.0,0.0,0.0,0.0,0.0,0.0,-0.008747027977866258,-0.0032160325756483707,0.0009308660314445229,0.0,0.0,0.0,0.0,0.0,0.0,0.0,0.0,0.0
8.534,237,8,534000000,base_footprint,-0.0016864524040657942,0.003481071095191072,0.43516469429537213,0.9003425608406694,0.0,0.0,0.0,0.0,0.0,0.0,0.0,0.0,0.0,0.0007516307845252696,0.0014881157328643,0.0035896721148201325,0.0,0.0,0.0,0.0,0.0,0.0,0.0,0.0,0.0,-0.017921837521987904,0.030407271914751482,0.0017231047973478963,0.0,0.0,0.0,0.0,0.0,0.0,0.0,0.0,0.0
8.568,238,8,568000000,base_footprint,-0.001692711429838963,0.0034869093754088267,0.43502035390051147,0.9004122766173821,0.0,0.0,0.0,0.0,0.0,0.0,0.0,0.0,0.0,9.11190907562942e-05,-6.52678500723516e-05,-0.020127716528965747,0.0,0.0,0.0,0.0,0.0,0.0,0.0,0.0,0.0,0.02084077336892752,-0.0523093559123905,-0.0013901757947004884,0.0,0.0,0.0,0.0,0.0,0.0,0.0,0.0,0.0
8.602,239,8,602000000,base_footprint,-0.001693354199278275,0.0034870181543952207,0.4347728754312111,0.9005317984642316,0.0,0.0,0.0,0.0,0.0,0.0,0.0,0.0,0.0,-0.0006324630247432126,0.00016123138079380568,-0.0068612504914743674,0.0,0.0,0.0,0.0,0.0,0.0,0.0,0.0,0.0,-0.00415010183917236,0.017359085730370934,-0.0011833929285089025,0.0,0.0,0.0,0.0,0.0,0.0,0.0,0.0,0.0
8.636,240,8,636000000,base_footprint,-0.0016926054817173633,0.003482050303845896,0.43460229187482285,0.9006141561787246,0.0,0.0,0.0,0.0,0.0,0.0,0.0,0.0,0.0,0.00531733172171095,0.0013573587531109867,-0.03950318430995234,0.0,0.0,0.0,0.0,0.0,0.0,0.0,0.0,0.0,0.005872449442419332,-0.027030277618958962,0.008860039299721413,0.0,0.0,0.0,0.0,0.0,0.0,0.0,0.0,0.0
8.67,241,8,670000000,base_footprint,-0.0016835881508590622,0.003482738348078017,0.434106219271085,0.9008533878799047,0.0,0.0,0.0,0.0,0.0,0.0,0.0,0.0,0.0,-0.00021425673234204407,-0.0003890956720605294,-0.021550902694870876,0.0,0.0,0.0,0.0,0.0,0.0,0.0,0.0,0.0,0.011996191722651437,-0.019491301573250984,-0.008213320394323619,0.0,0.0,0.0,0.0,0.0,0.0,0.0,0.0,0.0
8.704,242,8,704000000,base_footprint,-0.0016880310841637862,0.003483761200033253,0.43374221310925587,0.9010286935087278,0.0,0.0,0.0,0.0,0.0,0.0,0.0,0.0,0.0,-0.0005474279798279151,-0.0010577415606119144,-0.035920117042173794,0.0,0.0,0.0,0.0,0.0,0.0,0.0,0.0,0.0,-0.0008995136711986759,0.03813209612693035,-0.0010012862099958004,0.0,0.0,0.0,0.0,0.0,0.0,0.0,0.0,0.0
8.738,243,8,738000000,base_footprint,-0.0016828768320880248,0.003482405527050758,0.43344892524834455,0.9011698341480191,0.0,0.0,0.0,0.0,0.0,0.0,0.0,0.0,0.0,0.0019198175736320623,0.0009224127456977067,0.046804929981454295,0.0,0.0,0.0,0.0,0.0,0.0,0.0,0.0,0.0,0.012206226395558751,-0.023527832395329636,0.003963255085154885,0.0,0.0,0.0,0.0,0.0,0.0,0.0,0.0,0.0
8.772,244,8,772000000,base_footprint,-0.0016867466629068779,0.0034788584597244716,0.4340685686539397,0.9008715391975887,0.0,0.0,0.0,0.0,0.0,0.0,0.0,0.0,0.0,0.00043218683804628345,0.0002487151549436591,0.039771745333562473,0.0,0.0,0.0,0.0,0.0,0.0,0.0,0.0,0.0,-0.014637426160710789,0.014415714782204627,-0.0021341484344659886,0.0,0.0,0.0,0.0,0.0,0.0,0.0,0.0,0.0
8.806000000000001,245,8,806000000,base_footprint,-0.0016876577582306575,0.003476766311926563,0.43467668576603724,0.9005782824156694,0.0,0.0,0.0,0.0,0.0,0.0,0.0,0.0,0.0,0.000534560915761245,0.0005056818415197651,0.039755313141641935,0.0,0.0,0.0,0.0,0.0,0.0,0.0,0.0,0.0,-0.009417297990325773,0.0023884865502554536,0.0004487429452178544,0.0,0.0,0.0,0.0,0.0,0.0,0.0,0.0,0.0
8.84,246,8,840000000,base_footprint,-0.0016871361332485887,0.003476074187290356,0.4350775564239766,0.9003846902163839,0.0,0.0,0.0,0.0,0.0,0.0,0.0,0.0,0.0,0.0009635897175874959,0.0005949456892066462,0.0012831551332837246,0.0,0.0,0.0,0.0,0.0,0.0,0.0,0.0,0.0,-0.011548934719049081,0.014983730505742492,0.0007832962514040961,0.0,0.0,0.0,0.0,0.0,0.0,0.0,0.0,0.0
8.874,247,8,874000000,base_footprint,-0.0016853241972702901,0.003476571723487606,0.4351020941366833,0.9003728343354627,0.0,0.0,0.0,0.0,0.0,0.0,0.0,0.0,0.0,9.670267282629194e-05,0.00017719474553452668,0.0014471261831111382,0.0,0.0,0.0,0.0,0.0,0.0,0.0,0.0,0.0,0.0004545711049159821,0.004173586712053357,-0.0013386085472916547,0.0,0.0,0.0,0.0,0.0,0.0,0.0,0.0,0.0
8.908,248,8,908000000,base_footprint,-0.0016848306737189502,0.003479186626839534,0.4351172103157093,0.9003655201600578,0.0,0.0,0.0,0.0,0.0,0.0,0.0,0.0,0.0,-1.0058035631502182e-05,0.00016430847353713238,0.0006581208022515171,0.0,0.0,0.0,0.0,0.0,0.0,0.0,0.0,0.0,-0.0013119870014418505,0.005176552604459477,-0.00024612882697806944,0.0,0.0,0.0,0.0,0.0,0.0,0.0,0.0,0.0
8.942,249,8,942000000,base_footprint,-0.001687526794514466,0.0034777439230783643,0.4355431989510798,0.9001595299712066,0.0,0.0,0.0,0.0,0.0,0.0,0.0,0.0,0.0,-0.0017721334456307263,0.0012230066461228883,0.07811161996464737,0.0,0.0,0.0,0.0,0.0,0.0,0.0,0.0,0.0,0.0011886191590963543,-0.016861574355357994,-0.002266666651422645,0.0,0.0,0.0,0.0,0.0,0.0,0.0,0.0,0.0
8.976,250,8,976000000,base_footprint,-0.0016930858452673108,0.003481561633494841,0.43668868299413205,0.8996043610019703,0.0,0.0,0.0,0.0,0.0,0.0,0.0,0.0,0.0,0.00033823888173528394,0.0004793355859183562,0.0731554289553894,0.0,0.0,0.0,0.0,0.0,0.0,0.0,0.0,0.0,-0.018203359347772098,-0.0038547435060628443,0.0022578069542874292,0.0,0.0,0.0,0.0,0.0,0.0,0.0,0.0,0.0
9.01,251,9,10000000,base_footprint,-0.0017006254205981606,0.0034775743080520277,0.43777236521214946,0.8990775109002959,0.0,0.0,0.0,0.0,0.0,0.0,0.0,0.0,0.0,0.0007722294225634462,-5.79681324391443e-05,0.06793521286793346,0.0,0.0,0.0,0.0,0.0,0.0,0.0,0.0,0.0,-0.016375716517842025,-0.011736534397045377,0.0005461089310120713,0.0,0.0,0.0,0.0,0.0,0.0,0.0,0.0,0.0
9.044,252,9,44000000,base_footprint,-0.0017077964122100837,0.0034724106540466545,0.4383659147061708,0.898788267958303,0.0,0.0,0.0,0.0,0.0,0.0,0.0,0.0,0.0,-0.0010807969495280688,-0.0007718167932396132,-0.003372923635586553,0.0,0.0,0.0,0.0,0.0,0.0,0.0,0.0,0.0,-0.007381256991087914,-0.005629332287197076,-0.0029183392134860646,0.0,0.0,0.0,0.0,0.0,0.0,0.0,0.0,0.0
9.078,253,9,78000000,base_footprint,-0.0017086514853394757,0.0034803557237908164,0.4383934259473809,0.8987748170260756,0.0,0.0,0.0,0.0,0.0,0.0,0.0,0.0,0.0,-0.00043837386432251296,0.0001558155135557414,0.012453140524809211,0.0,0.0,0.0,0.0,0.0,0.0,0.0,0.0,0.0,-0.002320980371571477,0.017036058100276398,0.001800031729401197,0.0,0.0,0.0,0.0,0.0,0.0,0.0,0.0,0.0
9.112,254,9,112000000,base_footprint,-0.001710457282323635,0.003475143541418596,0.4385712402645478,0.8986880798842657,0.0,0.0,0.0,0.0,0.0,0.0,0.0,0.0,0.0,0.0006694037196844402,0.0005258344799514614,0.012768949092961147,0.0,0.0,0.0,0.0,0.0,0.0,0.0,0.0,0.0,-0.0033679541389139006,-0.012333906687114253,0.0020688526533212946,0.0,0.0,0.0,0.0,0.0,0.0,0.0,0.0,0.0
9.146,255,9,146000000,base_footprint,-0.0017031725806974573,0.003474846706449522,0.43865374669066576,0.898647825990676,0.0,0.0,0.0,0.0,0.0,0.0,0.0,0.0,0.0,-0.00044748698658244864,-0.00011195453255709596,0.003574270202451436,0.0,0.0,0.0,0.0,0.0,0.0,0.0,0.0,0.0,0.01747924443624623,-0.06373554114505009,-0.0019276594204089793,0.0,0.0,0.0,0.0,0.0,0.0,0.0,0.0,0.0
9.18,256,9,180000000,base_footprint,-0.0017048508227172753,0.003472415410252524,0.43861610085811864,0.8986662071553106,0.0,0.0,0.0,0.0,0.0,0.0,0.0,0.0,0.0,-0.00026219174419053553,-0.0008075342588827369,-0.014536380441997688,0.0,0.0,0.0,0.0,0.0,0.0,0.0,0.0,0.0,-0.010465394879388659,0.045298049682252095,-0.00014205700348958241,0.0,0.0,0.0,0.0,0.0,0.0,0.0,0.0,0.0
9.214,257,9,214000000,base_footprint,-0.0017055744028336348,0.0034727030571692023,0.4382932002541472,0.8988237324194389,0.0,0.0,0.0,0.0,0.0,0.0,0.0,0.0,0.0,0.00015285915095919857,-0.00016507053782582,-0.020335001145829826,0.0,0.0,0.0,0.0,0.0,0.0,0.0,0.0,0.0,6.0215458472526184e-05,0.022315145097916142,0.0012521099848444562,0.0,0.0,0.0,0.0,0.0,0.0,0.0,0.0,0.0
9.248,258,9,248000000,base_footprint,-0.0017034794698805049,0.0034746937287537046,0.43790306154432995,0.8990138671629543,0.0,0.0,0.0,0.0,0.0,0.0,0.0,0.0,0.0,1.9190192836745355e-05,0.0001336171942082622,0.004073794568450372,0.0,0.0,0.0,0.0,0.0,0.0,0.0,0.0,0.0,0.09920779283136269,-0.38274095385593293,0.0017588822494988836,0.0,0.0,0.0,0.0,0.0,0.0,0.0,0.0,0.0
9.282,259,9,282000000,base_footprint,-0.0016957318490705812,0.0034640690599210926,0.43828746454882955,0.8988265812371165,0.0,0.0,0.0,0.0,0.0,0.0,0.0,0.0,0.0,-0.0019510887912904727,-0.0024141827963747213,-0.023946996709636573,0.0,0.0,0.0,0.0,0.0,0.0,0.0,0.0,0.0,-0.016133276401738963,0.04601286154032071,-0.005114615142319529,0.0,0.0,0.0,0.0,0.0,0.0,0.0,0.0,0.0
9.316,260,9,316000000,base_footprint,-0.0016982671367154502,0.0034703831185342966,0.43784965645055957,0.8990399049407484,0.0,0.0,0.0,0.0,0.0,0.0,0.0,0.0,0.0,2.500126495520462e-05,1.1472583325007351e-05,-0.0287891417221101,0.0,0.0,0.0,0.0,0.0,0.0,0.0,0.0,0.0,-0.00010784612963418011,0.0231343674805532,0.004974056764769377,0.0,0.0,0.0,0.0,0.0,0.0,0.0,0.0,0.0
9.35,261,9,350000000,base_footprint,-0.001697876523329391,0.003469916474313927,0.4382677520345388,0.8988361666185696,0.0,0.0,0.0,0.0,0.0,0.0,0.0,0.0,0.0,0.0008536871793842788,0.0007773930096395536,0.06511389505445273,0.0,0.0,0.0,0.0,0.0,0.0,0.0,0.0,0.0,0.00024542633972499985,-0.019666369887565805,0.0004565856899142456,0.0,0.0,0.0,0.0,0.0,0.0,0.0,0.0,0.0
9.384,262,9,384000000,base_footprint,-0.0017010178769130263,0.0034709246984099542,0.43925216244182924,0.8983554958979755,0.0,0.0,0.0,0.0,0.0,0.0,0.0,0.0,0.0,0.0003003716922624438,0.0005701883525180707,0.06416510342121892,0.0,0.0,0.0,0.0,0.0,0.0,0.0,0.0,0.0,-0.01416810752176143,0.001280271788637816,-0.0006389996553166682,0.0,0.0,0.0,0.0,0.0,0.0,0.0,0.0,0.0
9.418,263,9,418000000,base_footprint,-0.0017047485240298404,0.0034720090659305855,0.44022228527956564,0.8978804923422452,0.0,0.0,0.0,0.0,0.0,0.0,0.0,0.0,0.0,0.00028047878785857777,0.0005616549764097442,0.06287236518427117,0.0,0.0,0.0,0.0,0.0,0.0,0.0,0.0,0.0,-0.013431676033391926,0.0003979803800984779,-6.119677311416814e-05,0.0,0.0,0.0,0.0,0.0,0.0,0.0,0.0,0.0
9.452,264,9,452000000,base_footprint,-0.0017060762343445832,0.0034648210768331417,0.44055511962162813,0.8977172555398282,0.0,0.0,0.0,0.0,0.0,0.0,0.0,0.0,0.0,0.0007382060582831706,-0.0010338418369508291,-0.030383923759633377,0.0,0.0,0.0,0.0,0.0,0.0,0.0,0.0,0.0,-0.09718846189755824,0.3467393943635383,-0.00044915289025982167,0.0,0.0,0.0,0.0,0.0,0.0,0.0,0.0,0.0
9.486,265,9,486000000,base_footprint,-0.0017088811299516434,0.0034741917226181925,0.44011928079787555,0.8979309708363549,0.0,0.0,0.0,0.0,0.0,0.0,0.0,0.0,0.0,0.00038129814880108936,-0.0005803921702836556,-0.03300949954734308,0.0,0.0,0.0,0.0,0.0,0.0,0.0,0.0,0.0,0.0053943498307378185,-0.0019493258001269595,-0.0008350014748061839,0.0,0.0,0.0,0.0,0.0,0.0,0.0,0.0,0.0
9.52,266,9,520000000,base_footprint,-0.001713088064183953,0.0034716170709012516,0.43946629328015213,0.898250739089482,0.0,0.0,0.0,0.0,0.0,0.0,0.0,0.0,0.0,-0.000587219605419258,-0.0001709030966105783,-0.05704797100019758,0.0,0.0,0.0,0.0,0.0,0.0,0.0,0.0,0.0,0.023708973844466283,-0.043315320208768986,-0.0010616396774549971,0.0,0.0,0.0,0.0,0.0,0.0,0.0,0.0,0.0
9.554,267,9,554000000,base_footprint,-0.0017005319505076686,0.003469613397772157,0.4388964131328871,0.898529358737399,0.0,0.0,0.0,0.0,0.0,0.0,0.0,0.0,0.0,-0.00031791619834235644,-2.7767576894114775e-05,-0.01898147734608703,0.0,0.0,0.0,0.0,0.0,0.0,0.0,0.0,0.0,0.08575750945359406,-0.31120740530477936,0.002345348534180944,0.0,0.0,0.0,0.0,0.0,0.0,0.0,0.0,0.0
9.588000000000001,268,9,588000000,base_footprint,-0.0017105902399208502,0.0034787291652405034,0.43853865309963225,0.8987039679794379,0.0,0.0,0.0,0.0,0.0,0.0,0.0,0.0,0.0,0.0007771506258857472,-0.0005967461748643839,-0.019622456457696145,0.0,0.0,0.0,0.0,0.0,0.0,0.0,0.0,0.0,0.013649690765993133,-0.026627015381518123,0.0007536137480848586,0.0,0.0,0.0,0.0,0.0,0.0,0.0,0.0,0.0
9.622,269,9,622000000,base_footprint,-0.0016989954402673404,0.003471454188770841,0.4381851882443774,0.8988764115402901,0.0,0.0,0.0,0.0,0.0,0.0,0.0,0.0,0.0,0.00013177387206040925,0.0007188794040573951,-0.024587076934991303,0.0,0.0,0.0,0.0,0.0,0.0,0.0,0.0,0.0,-0.006586906627753594,0.016522528915799944,0.0002484230899815698,0.0,0.0,0.0,0.0,0.0,0.0,0.0,0.0,0.0
9.656,270,9,656000000,base_footprint,-0.001692823592300827,0.003468892477068154,0.4387695202687236,0.8985913471742437,0.0,0.0,0.0,0.0,0.0,0.0,0.0,0.0,0.0,-0.0014720122160923506,0.0025747615667633572,0.09742434220262826,0.0,0.0,0.0,0.0,0.0,0.0,0.0,0.0,0.0,-0.0406560328867547,0.15397669618347623,-0.0003621614408557788,0.0,0.0,0.0,0.0,0.0,0.0,0.0,0.0,0.0
9.69,271,9,690000000,base_footprint,-0.001698549155562781,0.0034641391322873844,0.4399554309267229,0.8980113214592118,0.0,0.0,0.0,0.0,0.0,0.0,0.0,0.0,0.0,0.00035610687182885956,-0.0011055292317947323,0.05322524766725541,0.0,0.0,0.0,0.0,0.0,0.0,0.0,0.0,0.0,-0.044173013120131596,0.10864581602705738,-0.005057741994782286,0.0,0.0,0.0,0.0,0.0,0.0,0.0,0.0,0.0
9.724,272,9,724000000,base_footprint,-0.0017108148766736917,0.0034678599706802794,0.44043788589319627,0.8977747577926288,0.0,0.0,0.0,0.0,0.0,0.0,0.0,0.0,0.0,0.0003780373624558607,0.00026249968640062343,0.02729703064211708,0.0,0.0,0.0,0.0,0.0,0.0,0.0,0.0,0.0,-0.02581648233173249,0.06962397006063961,0.0033545857105032628,0.0,0.0,0.0,0.0,0.0,0.0,0.0,0.0,0.0
9.758,273,9,758000000,base_footprint,-0.0017090668555294394,0.003467624111925673,0.44018700592485244,0.8978977973513554,0.0,0.0,0.0,0.0,0.0,0.0,0.0,0.0,0.0,0.00011214747736828301,-0.00019923402027570097,-0.02308626571353159,0.0,0.0,0.0,0.0,0.0,0.0,0.0,0.0,0.0,-0.0006695258671644546,0.018354048451172705,-0.00028978198838708336,0.0,0.0,0.0,0.0,0.0,0.0,0.0,0.0,0.0
9.792,274,9,792000000,base_footprint,-0.0017055908359222282,0.003467449868960348,0.4398262076578721,0.8980745931205276,0.0,0.0,0.0,0.0,0.0,0.0,0.0,0.0,0.0,0.00012386480628259275,8.04722386988479e-05,-0.023816184773871464,0.0,0.0,0.0,0.0,0.0,0.0,0.0,0.0,0.0,0.003038874284677392,0.006886844769978107,0.0003022027602521469,0.0,0.0,0.0,0.0,0.0,0.0,0.0,0.0,0.0
9.826,275,9,826000000,base_footprint,-0.0017021122005980783,0.003468545260685329,0.4394559813892854,0.8982558168077797,0.0,0.0,0.0,0.0,0.0,0.0,0.0,0.0,0.0,1.5772110167956752e-05,3.90168911912513e-05,-0.024499530208495046,0.0,0.0,0.0,0.0,0.0,0.0,0.0,0.0,0.0,0.003780451592567189,0.00684945350550099,-0.0002796621713812994,0.0,0.0,0.0,0.0,0.0,0.0,0.0,0.0,0.0
9.86,276,9,860000000,base_footprint,-0.001700621636230151,0.003469521980415909,0.43939976350474114,0.8982833172976414,0.0,0.0,0.0,0.0,0.0,0.0,0.0,0.0,0.0,-0.00305285215474188,0.0015856915281561637,-0.015267965246855777,0.0,0.0,0.0,0.0,0.0,0.0,0.0,0.0,0.0,0.18298245913111413,-0.7075532799625597,-0.0005489337177391431,0.0,0.0,0.0,0.0,0.0,0.0,0.0,0.0,0.0
9.894,277,9,894000000,base_footprint,-0.001699527821122924,0.003474384839806208,0.43885229967166856,0.8985508885578257,0.0,0.0,0.0,0.0,0.0,0.0,0.0,0.0,0.0,-0.0012643678206621066,0.00011363156419271235,-0.03352179599806177,0.0,0.0,0.0,0.0,0.0,0.0,0.0,0.0,0.0,-0.09040074607618394,0.38224984775994014,0.00019655222185739466,0.0,0.0,0.0,0.0,0.0,0.0,0.0,0.0,0.0
9.928,278,9,928000000,base_footprint,-0.001697340745456273,0.003476934577570442,0.4383746126870794,0.898784027957657,0.0,0.0,0.0,0.0,0.0,0.0,0.0,0.0,0.0,0.0012766068431438247,0.0011993085924696624,-0.03689689787720944,0.0,0.0,0.0,0.0,0.0,0.0,0.0,0.0,0.0,-0.0005589850051645594,0.026813044882618087,-0.0020356249053246228,0.0,0.0,0.0,0.0,0.0,0.0,0.0,0.0,0.0
9.962,279,9,962000000,base_footprint,-0.0016980830093564117,0.0034752116089164908,0.4374580721053701,0.8992304902349672,0.0,0.0,0.0,0.0,0.0,0.0,0.0,0.0,0.0,0.0003065879879542359,-0.0006413749839877889,-0.048304900442257166,0.0,0.0,0.0,0.0,0.0,0.0,0.0,0.0,0.0,-0.035506206217108316,0.196985018947234,0.0032109220804701654,0.0,0.0,0.0,0.0,0.0,0.0,0.0,0.0,0.0
9.996,280,9,996000000,base_footprint,-0.0017020194056843547,0.0034736168503443133,0.43674039750944543,0.899579269602858,0.0,0.0,0.0,0.0,0.0,0.0,0.0,0.0,0.0,-0.0004540694831434176,-0.0006518881141570384,-0.054682788448517865,0.0,0.0,0.0,0.0,0.0,0.0,0.0,0.0,0.0,0.009363853568395641,-0.008155366336112095,-0.001577736300804296,0.0,0.0,0.0,0.0,0.0,0.0,0.0,0.0,0.0
10.03,281,10,30000000,base_footprint,-0.0017027331440567664,0.003467803463767078,0.43583839659118384,0.9000166482325774,0.0,0.0,0.0,0.0,0.0,0.0,0.0,0.0,0.0,-0.0008988011885021636,0.0016696866254022414,-0.06254007742749115,0.0,0.0,0.0,0.0,0.0,0.0,0.0,0.0,0.0,0.010131190008369467,0.01558174357169613,0.0036587534437210445,0.0,0.0,0.0,0.0,0.0,0.0,0.0,0.0,0.0
10.064,282,10,64000000,base_footprint,-0.0016979048292129631,0.003482344987563199,0.435008497298405,0.9004180127422831,0.0,0.0,0.0,0.0,0.0,0.0,0.0,0.0,0.0,-0.0018301059365742017,0.0005417910902937798,-0.029570471331430564,0.0,0.0,0.0,0.0,0.0,0.0,0.0,0.0,0.0,-0.006000200323936444,0.10064402586343886,-0.005932150875948804,0.0,0.0,0.0,0.0,0.0,0.0,0.0,0.0,0.0
10.098,283,10,98000000,base_footprint,-0.001690536588384839,0.003482510819507632,0.43455218004965984,0.9006383386346173,0.0,0.0,0.0,0.0,0.0,0.0,0.0,0.0,0.0,5.785790797965172e-05,0.00041534265496086025,-0.027291062296462144,0.0,0.0,0.0,0.0,0.0,0.0,0.0,0.0,0.0,-0.0008170269309355205,-0.003758401430648965,0.0028156475311544834,0.0,0.0,0.0,0.0,0.0,0.0,0.0,0.0,0.0
10.132,284,10,132000000,base_footprint,-0.001687467734811157,0.003483195792093041,0.4342600840608054,0.9007792177838143,0.0,0.0,0.0,0.0,0.0,0.0,0.0,0.0,0.0,0.0029127331993627683,-0.0010131579339872354,-0.03319947447082315,0.0,0.0,0.0,0.0,0.0,0.0,0.0,0.0,0.0,0.023677583477453384,-0.058496212393219185,0.0032964582806445696,0.0,0.0,0.0,0.0,0.0,0.0,0.0,0.0,0.0
10.166,285,10,166000000,base_footprint,-0.0016894126230980401,0.003483972311448844,0.43354809669597116,0.9011221091912144,0.0,0.0,0.0,0.0,0.0,0.0,0.0,0.0,0.0,-0.0003737607969037754,-0.0006561770725834827,-0.059492901120756524,0.0,0.0,0.0,0.0,0.0,0.0,0.0,0.0,0.0,-0.009207108354703775,0.07312636596700277,-0.004136133913369104,0.0,0.0,0.0,0.0,0.0,0.0,0.0,0.0,0.0
10.2,286,10,200000000,base_footprint,-0.0016840496466144037,0.003482421904817658,0.4326916853352944,0.9015336611331645,0.0,0.0,0.0,0.0,0.0,0.0,0.0,0.0,0.0,5.849712801263927e-06,-0.00039568608884829707,-0.05567353924841899,0.0,0.0,0.0,0.0,0.0,0.0,0.0,0.0,0.0,0.015708562707253865,-0.002875731529299209,0.00042947386017077314,0.0,0.0,0.0,0.0,0.0,0.0,0.0,0.0,0.0
10.234,287,10,234000000,base_footprint,-0.0016802232993573748,0.0034844478384827835,0.4319960335915411,0.9018672088695218,0.0,0.0,0.0,0.0,0.0,0.0,0.0,0.0,0.0,0.0017427161925872151,0.003488404679194781,0.03179453001355763,0.0,0.0,0.0,0.0,0.0,0.0,0.0,0.0,0.0,0.01017865156563835,-0.01303090306648906,0.005396762142122068,0.0,0.0,0.0,0.0,0.0,0.0,0.0,0.0,0.0
10.268,288,10,268000000,base_footprint,-0.0016788192046909161,0.003479792054299241,0.43257157125552476,0.9015913200307906,0.0,0.0,0.0,0.0,0.0,0.0,0.0,0.0,0.0,0.0004507432603235282,0.0004544898505860922,0.036827310305152926,0.0,0.0,0.0,0.0,0.0,0.0,0.0,0.0,0.0,-0.005199615755468604,0.0010765086949353839,-0.005028448868697793,0.0,0.0,0.0,0.0,0.0,0.0,0.0,0.0,0.0
10.302,289,10,302000000,base_footprint,-0.0016789496239344463,0.0034792661895827054,0.43313081552236543,0.9013227903919179,0.0,0.0,0.0,0.0,0.0,0.0,0.0,0.0,0.0,0.00030604586506894943,0.00040759668587640757,0.036318963888081354,0.0,0.0,0.0,0.0,0.0,0.0,0.0,0.0,0.0,-0.009061140348963157,0.0037743131808889133,-0.00023828827029467035,0.0,0.0,0.0,0.0,0.0,0.0,0.0,0.0,0.0
10.336,290,10,336000000,base_footprint,-0.001678811315489269,0.0034822781570529706,0.4335018113085162,0.9011444029253244,0.0,0.0,0.0,0.0,0.0,0.0,0.0,0.0,0.0,-0.0018544607551659814,-0.0005820285101023638,-0.020059759196514107,0.0,0.0,0.0,0.0,0.0,0.0,0.0,0.0,0.0,-0.009914486615237417,0.015814337230381375,-0.002412747507944779,0.0,0.0,0.0,0.0,0.0,0.0,0.0,0.0,0.0
10.37,291,10,370000000,base_footprint,-0.0016780877025546043,0.0034846699566701746,0.43321313854640175,0.9012832061498381,0.0,0.0,0.0,0.0,0.0,0.0,0.0,0.0,0.0,-0.0001315452584006724,6.15565869044322e-05,-0.0191237891891334,0.0,0.0,0.0,0.0,0.0,0.0,0.0,0.0,0.0,0.0030990646948482834,0.00738853873476733,0.0018683018037505546,0.0,0.0,0.0,0.0,0.0,0.0,0.0,0.0,0.0
10.404,292,10,404000000,base_footprint,-0.0016780160625486573,0.0034874234407653157,0.43290177740346475,0.9014327890978672,0.0,0.0,0.0,0.0,0.0,0.0,0.0,0.0,0.0,-0.00012129360926828938,-4.58335405571939e-05,-0.02158821521578865,0.0,0.0,0.0,0.0,0.0,0.0,0.0,0.0,0.0,0.004082632157703815,0.0024218482475418467,-0.00010016245837811348,0.0,0.0,0.0,0.0,0.0,0.0,0.0,0.0,0.0
10.438,293,10,438000000,base_footprint,-0.0016758158855744642,0.0034908242146634723,0.43240293322265966,0.9016721738680086,0.0,0.0,0.0,0.0,0.0,0.0,0.0,0.0,0.0,-0.0025200298706227467,-0.0007834861498819227,-0.06539526202345655,0.0,0.0,0.0,0.0,0.0,0.0,0.0,0.0,0.0,0.005465785030999116,0.01335807407182758,-0.003236260719236854,0.0,0.0,0.0,0.0,0.0,0.0,0.0,0.0,0.0
10.472,294,10,472000000,base_footprint,-0.0016806192926675614,0.0034868562198235625,0.43125274444114703,0.9022228592562229,0.0,0.0,0.0,0.0,0.0,0.0,0.0,0.0,0.0,-0.00034331571651319943,-0.0009247946020819661,-0.08592258136569267,0.0,0.0,0.0,0.0,0.0,0.0,0.0,0.0,0.0,0.022168417730504368,-0.042597488074501214,0.0030086775512624376,0.0,0.0,0.0,0.0,0.0,0.0,0.0,0.0,0.0
10.506,295,10,506000000,base_footprint,-0.0016780391589513418,0.003488682632187028,0.4298343628993743,0.9028994593801472,0.0,0.0,0.0,0.0,0.0,0.0,0.0,0.0,0.0,-3.477207694318633e-05,-0.0010761337575040755,-0.08887118539272501,0.0,0.0,0.0,0.0,0.0,0.0,0.0,0.0,0.0,0.023734863645685333,-0.00908188805078718,0.0008090032253725296,0.0,0.0,0.0,0.0,0.0,0.0,0.0,0.0,0.0
10.54,296,10,540000000,base_footprint,-0.0016597745971627272,0.0034867224827744526,0.42861106671812066,0.9034808472797691,0.0,0.0,0.0,0.0,0.0,0.0,0.0,0.0,0.0,-0.002226473275680374,-0.0005929428460901582,-0.09523924625369731,0.0,0.0,0.0,0.0,0.0,0.0,0.0,0.0,0.0,0.035805773827015275,-0.0995360352607823,-0.001195397695318806,0.0,0.0,0.0,0.0,0.0,0.0,0.0,0.0,0.0
10.574,297,10,574000000,base_footprint,-0.001655896818084944,0.0035005511656129805,0.42640827070821813,0.9045225209019905,0.0,0.0,0.0,0.0,0.0,0.0,0.0,0.0,0.0,-0.002575457245965134,-0.0015937550381008778,-0.15363052439633168,0.0,0.0,0.0,0.0,0.0,0.0,0.0,0.0,0.0,0.0734927475098742,-0.2277762685242826,-0.0019795618022412694,0.0,0.0,0.0,0.0,0.0,0.0,0.0,0.0,0.0
10.608,298,10,608000000,base_footprint,-0.0016476336510557878,0.003500011745840843,0.4242470753298142,0.9055382124986389,0.0,0.0,0.0,0.0,0.0,0.0,0.0,0.0,0.0,-8.44849182397698e-05,-0.0007549156175298408,-0.11802329101641101,0.0,0.0,0.0,0.0,0.0,0.0,0.0,0.0,0.0,0.048536475691387436,-0.0865762882318448,0.005119975980633667,0.0,0.0,0.0,0.0,0.0,0.0,0.0,0.0,0.0
10.642,299,10,642000000,base_footprint,-0.0016455072939070585,0.003495656100588733,0.4232573636214169,0.9060012565302654,0.0,0.0,0.0,0.0,0.0,0.0,0.0,0.0,0.0,0.00016316571317205662,-0.0005826709213816141,0.007100300891983269,0.0,0.0,0.0,0.0,0.0,0.0,0.0,0.0,0.0,0.019445089959262505,0.004150691433435606,-0.0011880743409900738,0.0,0.0,0.0,0.0,0.0,0.0,0.0,0.0,0.0
10.676,300,10,676000000,base_footprint,-0.0016379517110753057,0.003492452406715492,0.42385817633940065,0.9057203576383919,0.0,0.0,0.0,0.0,0.0,0.0,0.0,0.0,0.0,-0.0003104645036284752,0.0007744147838502045,0.056247020458861804,0.0,0.0,0.0,0.0,0.0,0.0,0.0,0.0,0.0,-0.06488548601380287,0.2998867121116102,-0.001127000940884137,0.0,0.0,0.0,0.0,0.0,0.0,0.0,0.0,0.0
10.71,301,10,710000000,base_footprint,-0.001648455061657908,0.0034967863369526407,0.4240986837143705,0.9056077305064052,0.0,0.0,0.0,0.0,0.0,0.0,0.0,0.0,0.0,0.00019367234520543107,4.424513839514697e-05,0.0025030809986522845,0.0,0.0,0.0,0.0,0.0,0.0,0.0,0.0,0.0,-0.03257398423588033,0.14483253728772583,-0.000446972450726919,0.0,0.0,0.0,0.0,0.0,0.0,0.0,0.0,0.0
10.744,302,10,744000000,base_footprint,-0.001645607795248659,0.003496189853091624,0.42389756339851087,0.9057018959769826,0.0,0.0,0.0,0.0,0.0,0.0,0.0,0.0,0.0,0.0004699025045210114,0.00017553574884352825,-0.030328582758957907,0.0,0.0,0.0,0.0,0.0,0.0,0.0,0.0,0.0,0.00021059866739974505,0.01469536558957593,0.0007642716240936003,0.0,0.0,0.0,0.0,0.0,0.0,0.0,0.0,0.0
10.778,303,10,778000000,base_footprint,-0.0016415879478985282,0.003497039186035231,0.4234283793846296,0.9059213450612845,0.0,0.0,0.0,0.0,0.0,0.0,0.0,0.0,0.0,1.7239941434707984e-05,-7.508841502946714e-06,-0.030658470387690574,0.0,0.0,0.0,0.0,0.0,0.0,0.0,0.0,0.0,0.006356700223091521,0.00651755971745598,-0.0007270511283553743,0.0,0.0,0.0,0.0,0.0,0.0,0.0,0.0,0.0
10.812,304,10,812000000,base_footprint,-0.0016385981391289477,0.003499373212744441,0.422949967703456,0.9061447975919202,0.0,0.0,0.0,0.0,0.0,0.0,0.0,0.0,0.0,-8.087298407584534e-05,-2.567720267044533e-05,-0.031313821047497616,0.0,0.0,0.0,0.0,0.0,0.0,0.0,0.0,0.0,0.005829488789267311,0.006749228951162479,-0.00027087705245827805,0.0,0.0,0.0,0.0,0.0,0.0,0.0,0.0,0.0
10.846,305,10,846000000,base_footprint,-0.0016352205379991296,0.003503955283060132,0.4221499290272113,0.9065177801750427,0.0,0.0,0.0,0.0,0.0,0.0,0.0,0.0,0.0,-0.0008761612815417979,-0.00040003816417237434,-0.07023948981623386,0.0,0.0,0.0,0.0,0.0,0.0,0.0,0.0,0.0,0.007763608017646344,0.016111563117436237,-0.0009800901891836374,0.0,0.0,0.0,0.0,0.0,0.0,0.0,0.0,0.0
10.88,306,10,880000000,base_footprint,-0.0016320295622887083,0.0035090058390940954,0.4210588981069466,0.9070250424781517,0.0,0.0,0.0,0.0,0.0,0.0,0.0,0.0,0.0,-0.00036756726159595525,-0.00032306402412650984,-0.07173796854050728,0.0,0.0,0.0,0.0,0.0,0.0,0.0,0.0,0.0,0.015787327694531894,0.0062344118472661,0.00039073799490158554,0.0,0.0,0.0,0.0,0.0,0.0,0.0,0.0,0.0
10.914,307,10,914000000,base_footprint,-0.0016304163927396745,0.003513218061918596,0.41992981881783353,0.907548316239338,0.0,0.0,0.0,0.0,0.0,0.0,0.0,0.0,0.0,-0.00044169427503642616,-0.0005540145035683077,-0.07471526700802486,0.0,0.0,0.0,0.0,0.0,0.0,0.0,0.0,0.0,0.01641839317807632,0.0022941887430624926,-0.00041736738111645293,0.0,0.0,0.0,0.0,0.0,0.0,0.0,0.0,0.0
10.948,308,10,948000000,base_footprint,-0.0016314655763222962,0.0035068009305947055,0.4191764514480726,0.9078965487425912,0.0,0.0,0.0,0.0,0.0,0.0,0.0,0.0,0.0,0.0007171981934368638,-0.00039939769948366474,-0.025305411786193294,0.0,0.0,0.0,0.0,0.0,0.0,0.0,0.0,0.0,0.01976338731280013,-0.06822526116478575,0.0018652108617460983,0.0,0.0,0.0,0.0,0.0,0.0,0.0,0.0,0.0
10.982,309,10,982000000,base_footprint,-0.0016335439755281983,0.0035100355625915496,0.41862198522874794,0.9081523245951482,0.0,0.0,0.0,0.0,0.0,0.0,0.0,0.0,0.0,0.0006554780454610132,-0.0008995033093773043,-0.04092786027768566,0.0,0.0,0.0,0.0,0.0,0.0,0.0,0.0,0.0,0.01569247590793377,-0.03566668147956454,0.00022809694999694155,0.0,0.0,0.0,0.0,0.0,0.0,0.0,0.0,0.0
11.016,310,11,16000000,base_footprint,-0.001634206470464813,0.0035089548714618357,0.41817359651809877,0.9083588827000265,0.0,0.0,0.0,0.0,0.0,0.0,0.0,0.0,0.0,-0.0006926931542337678,0.00019694768239560944,-0.012291835450865556,0.0,0.0,0.0,0.0,0.0,0.0,0.0,0.0,0.0,-0.00011798871342266412,0.04557710315988388,-0.0022071751834970036,0.0,0.0,0.0,0.0,0.0,0.0,0.0,0.0,0.0
11.05,311,11,50000000,base_footprint,-0.001620330653894227,0.0035115511626437825,0.4179509143640246,0.9084613787714259,0.0,0.0,0.0,0.0,0.0,0.0,0.0,0.0,0.0,-0.00023455550475248797,0.0005629889765214222,-0.01761469960239008,0.0,0.0,0.0,0.0,0.0,0.0,0.0,0.0,0.0,-0.0020928755543045854,0.0031850154980881586,0.0008233938210873009,0.0,0.0,0.0,0.0,0.0,0.0,0.0,0.0,0.0
11.084,312,11,84000000,base_footprint,-0.001623253163018769,0.0035135614605258584,0.4178094164345723,0.9085264506186014,0.0,0.0,0.0,0.0,0.0,0.0,0.0,0.0,0.0,0.00039015923040425384,0.00016677442866820278,-0.008241673303537665,0.0,0.0,0.0,0.0,0.0,0.0,0.0,0.0,0.0,0.00944571622795864,-0.028436714011172995,0.0012525002123484042,0.0,0.0,0.0,0.0,0.0,0.0,0.0,0.0,0.0
11.118,313,11,118000000,base_footprint,-0.0016259019830563114,0.003513583377097342,0.4174933844886119,0.9086717146928465,0.0,0.0,0.0,0.0,0.0,0.0,0.0,0.0,0.0,0.0004922073805157531,0.00011675803475043458,-0.024130491346884535,0.0,0.0,0.0,0.0,0.0,0.0,0.0,0.0,0.0,-0.004706552747871705,0.04812536622639842,-0.00040668712781973513,0.0,0.0,0.0,0.0,0.0,0.0,0.0,0.0,0.0
11.152,314,11,152000000,base_footprint,-0.0016198276854800867,0.003510661561195716,0.4167550528516636,0.9090106035334677,0.0,0.0,0.0,0.0,0.0,0.0,0.0,0.0,0.0,0.00011933752783941669,0.00011456315893152238,-0.04971176222398094,0.0,0.0,0.0,0.0,0.0,0.0,0.0,0.0,0.0,0.08425378738185509,-0.48380914710129375,0.0018614976495369604,0.0,0.0,0.0,0.0,0.0,0.0,0.0,0.0,0.0
11.186,315,11,186000000,base_footprint,-0.0016180412751927477,0.00351139997570653,0.4165061404664459,0.9091246817496419,0.0,0.0,0.0,0.0,0.0,0.0,0.0,0.0,0.0,-0.00131700762800853,-0.0011473510802262317,-0.03437416875383286,0.0,0.0,0.0,0.0,0.0,0.0,0.0,0.0,0.0,-0.021191818228800223,0.16253664886848385,-0.003434096012762219,0.0,0.0,0.0,0.0,0.0,0.0,0.0,0.0,0.0
11.22,316,11,220000000,base_footprint,-0.0016144694966164026,0.003510401699314669,0.4159865302619487,0.909362566421545,0.0,0.0,0.0,0.0,0.0,0.0,0.0,0.0,0.0,0.00010866002694723212,-1.6141301656986886e-05,-0.033741334767930384,0.0,0.0,0.0,0.0,0.0,0.0,0.0,0.0,0.0,0.008734022524427667,0.0005772837161422176,0.002618821186857668,0.0,0.0,0.0,0.0,0.0,0.0,0.0,0.0,0.0
11.254,317,11,254000000,base_footprint,-0.0016124477976362179,0.0035103034015326875,0.415818309515206,0.9094395039000921,0.0,0.0,0.0,0.0,0.0,0.0,0.0,0.0,0.0,-0.00020126279445261552,0.0005468146827225021,0.02718200545033528,0.0,0.0,0.0,0.0,0.0,0.0,0.0,0.0,0.0,-0.04410589349074788,0.3297811763505555,-0.002300624777017917,0.0,0.0,0.0,0.0,0.0,0.0,0.0,0.0,0.0
11.288,318,11,288000000,base_footprint,-0.0016123199305546334,0.003510883469190601,0.4162303052177011,0.9092510143739664,0.0,0.0,0.0,0.0,0.0,0.0,0.0,0.0,0.0,0.00022088022893255739,0.0003023412364941663,0.026379658333564183,0.0,0.0,0.0,0.0,0.0,0.0,0.0,0.0,0.0,-0.007022856599313999,0.0020181965728775747,0.00022984185938486917,0.0,0.0,0.0,0.0,0.0,0.0,0.0,0.0,0.0
11.322,319,11,322000000,base_footprint,-0.0016136527101669191,0.003513164715143951,0.4166312431315107,0.9090673578153092,0.0,0.0,0.0,0.0,0.0,0.0,0.0,0.0,0.0,0.00010214212937634046,0.00029706884235173345,0.025608500708657955,0.0,0.0,0.0,0.0,0.0,0.0,0.0,0.0,0.0,-0.006314744358416696,0.004404560835026403,-0.00023363960772730178,0.0,0.0,0.0,0.0,0.0,0.0,0.0,0.0,0.0
11.355,320,11,356000000,base_footprint,-0.001620044637306111,0.0035066615965692,0.41761283529572346,0.9086168601649913,0.0,0.0,0.0,0.0,0.0,0.0,0.0,0.0,0.0,0.0008574802013706775,0.0007827594067260101,0.11382119354583978,0.0,0.0,0.0,0.0,0.0,0.0,0.0,0.0,0.0,0.08510962893943874,-0.6423555357247533,0.0039741122750068004,0.0,0.0,0.0,0.0,0.0,0.0,0.0,0.0,0.0
11.39,321,11,390000000,base_footprint,-0.0016234476215780383,0.0035097310934201218,0.41873248977794325,0.9081013975376518,0.0,0.0,0.0,0.0,0.0,0.0,0.0,0.0,0.0,-0.0017760154708430184,-0.00036297402206649117,0.025294074065198662,0.0,0.0,0.0,0.0,0.0,0.0,0.0,0.0,0.0,-0.06251835529991079,0.2915560146473842,-0.005527365327288505,0.0,0.0,0.0,0.0,0.0,0.0,0.0,0.0,0.0
11.424,322,11,424000000,base_footprint,-0.0016278613785500175,0.0035142753116893855,0.4189894535821156,0.9079828399938659,0.0,0.0,0.0,0.0,0.0,0.0,0.0,0.0,0.0,0.00038315960687653903,-5.6461661021056496e-05,0.013361485476664974,0.0,0.0,0.0,0.0,0.0,0.0,0.0,0.0,0.0,-0.0035828302850741036,0.012507502139429253,0.0035959042212426557,0.0,0.0,0.0,0.0,0.0,0.0,0.0,0.0,0.0
11.458,323,11,458000000,base_footprint,-0.0016248207156465144,0.0035058517194557445,0.4180108446906309,0.9084338185483787,0.0,0.0,0.0,0.0,0.0,0.0,0.0,0.0,0.0,-0.0008743040555230125,-0.0005400938626097164,-0.1437672921990668,0.0,0.0,0.0,0.0,0.0,0.0,0.0,0.0,0.0,-0.02377644255204823,0.20907960401365516,-0.00023865327949396423,0.0,0.0,0.0,0.0,0.0,0.0,0.0,0.0,0.0
11.492,324,11,492000000,base_footprint,-0.0016261229494841677,0.0035032399932626987,0.4158773775689904,0.9094124970881159,0.0,0.0,0.0,0.0,0.0,0.0,0.0,0.0,0.0,-0.0016046968732558633,-0.00029299969428116387,-0.12484462994034821,0.0,0.0,0.0,0.0,0.0,0.0,0.0,0.0,0.0,0.027582530150807732,0.023487335903196068,-0.002233882292437415,0.0,0.0,0.0,0.0,0.0,0.0,0.0,0.0,0.0
11.526,325,11,526000000,base_footprint,-0.0016142816118208962,0.003517351794403554,0.4143955073988877,0.9100886691849596,0.0,0.0,0.0,0.0,0.0,0.0,0.0,0.0,0.0,-0.001822000626037274,0.0012250950058841127,-0.06493875860623917,0.0,0.0,0.0,0.0,0.0,0.0,0.0,0.0,0.0,0.00948261051658695,0.09618579916278569,-0.0016172386959304745,0.0,0.0,0.0,0.0,0.0,0.0,0.0,0.0,0.0
11.56,326,11,560000000,base_footprint,-0.0016068633158250922,0.0035177028519437913,0.41419366923299933,0.9101805579796981,0.0,0.0,0.0,0.0,0.0,0.0,0.0,0.0,0.0,-0.00022382675703177016,0.00028338162865262825,0.019262358454064817,0.0,0.0,0.0,0.0,0.0,0.0,0.0,0.0,0.0,-0.00033168073437363156,0.004382256308778426,0.0018184072135383352,0.0,0.0,0.0,0.0,0.0,0.0,0.0,0.0,0.0
11.594,327,11,594000000,base_footprint,-0.0016164383335996813,0.0035195583088685426,0.4146775151885206,0.9099601959610644,0.0,0.0,0.0,0.0,0.0,0.0,0.0,0.0,0.0,0.000182287998079273,-7.732605532473118e-05,0.024460568698935425,0.0,0.0,0.0,0.0,0.0,0.0,0.0,0.0,0.0,-0.0038717015304866238,-0.011162265424476495,0.0002627761460683657,0.0,0.0,0.0,0.0,0.0,0.0,0.0,0.0,0.0
11.628,328,11,628000000,base_footprint,-0.0016166981582606834,0.0035178614978152133,0.415109708694286,0.9097631233927281,0.0,0.0,0.0,0.0,0.0,0.0,0.0,0.0,0.0,-0.005840013439086076,-0.0016369443032298366,0.025671209952822037,0.0,0.0,0.0,0.0,0.0,0.0,0.0,0.0,0.0,0.0020387759455571842,-0.034487535523174385,-0.009648693395465579,0.0,0.0,0.0,0.0,0.0,0.0,0.0,0.0,0.0
11.662,329,11,662000000,base_footprint,-0.0016055654803651645,0.0035089170435787615,0.4150548424867151,0.9097882101835557,0.0,0.0,0.0,0.0,0.0,0.0,0.0,0.0,0.0,0.009655546997725027,0.004754342001713131,0.02161709934269526,0.0,0.0,0.0,0.0,0.0,0.0,0.0,0.0,0.0,0.08361942740603406,-0.5936204095827302,0.027598726911060325,0.0,0.0,0.0,0.0,0.0,0.0,0.0,0.0,0.0
