Time,Theta_calculated,linear_velocity_x,world_velocity_x,world_velocity_y,angular_velocity_yaw,linear_acceleration_x,angular_acceleration_yaw,kinematic_delta_x,kinematic_delta_y,kinematic_delta_yaw
0.48400000000000004,-0.785416750673286,-8.511531468775773e-06,-6.018449750149409e-06,6.018673487479345e-06,-0.00020051278629426935,-0.0004743648623823764,0.0023596228077030447,-2.0041743283624042e-07,2.0041877104496793e-07,-6.67707578359917e-06
0.517,-0.7854234277490696,-3.3912979787591856e-05,-2.397949212876826e-05,2.398070381202259e-05,-0.00044396485299489816,-0.0007628062558203026,-0.007310872873892756,-7.985260278859402e-07,7.985484972709992e-07,-1.478402960473011e-05
0.549,-0.7854382117786742,-6.863343639135969e-06,-4.852922465481865e-06,4.853311184427553e-06,-0.00013154841864899687,0.0008123013858395161,0.00938187490528232,-1.6160496808066704e-07,1.6161261263220157e-07,-4.3805623410115964e-06
0.5840000000000001,-0.7854425923410153,0.00018339164678992336,0.00012967171549682752,-0.00012968323836344398,0.00046488504508890673,0.005713363075947727,0.01791091482696407,4.318181818986159e-06,-4.318338151532182e-06,1.5480672001460596e-05
0.617,-0.7854271116690138,3.771497275387837e-05,2.666774096800306e-05,-2.6669284982715206e-05,-0.00042530861964262383,-0.0043746748959773265,-0.026732542484430345,8.880459924114772e-07,-8.880769722230603e-07,-1.4162777034099374e-05
0.65,-0.7854412744460479,-7.859671880301809e-06,-5.557387684158147e-06,5.557866874437917e-06,1.9711070493186976e-05,-0.0013686079469723777,0.013363954658733057,-1.8506451070657193e-07,1.8507346637839148e-07,6.563786474231263e-07
0.684,-0.7854406180674005,-7.499471645193691e-06,-5.302702116827347e-06,5.303152384880049e-06,0.00015303595180636274,1.0816823877120644e-05,0.004003750189584858,-1.765837128417325e-07,1.7659124230031614e-07,5.09609719515188e-06
0.7170000000000001,-0.7854355219702054,-5.68165453756306e-06,-4.017386359638788e-06,4.0176865384944e-06,0.00019252559190197058,5.4589102331250185e-05,0.0011858750779461813,-1.337818813838597e-07,1.3378604627811386e-07,6.411102210335621e-06
0.749,-0.785429110867995,-4.19936169865765e-06,-2.9693052370235945e-06,2.969489027684244e-06,0.00021251417218141864,4.451329846562793e-05,0.000600257666049491,-9.88800522399318e-08,9.888179686095286e-08,7.076721933641241e-06
0.784,-0.7854220341460613,-2.9707982686126234e-06,-2.1006214560710383e-06,2.1007217452784537e-06,0.00023067050808975258,3.6893796698048835e-05,0.0005452353125625807,-6.995226339452291e-08,6.995246524969754e-08,7.68132791938876e-06
0.8170000000000001,-0.785414352818142,-1.71665080652703e-06,-1.2138357744493892e-06,1.2138750776817002e-06,0.00023048646502167792,3.7662085948516316e-05,-5.526818861100806e-06,-4.042163773745905e-08,4.042113364742861e-08,7.675199285221875e-06
0.8490000000000001,-0.7854066776188567,-6.555304093423327e-07,-4.635260511061257e-07,4.6353394430018565e-07,0.00023354745905754457,3.186547739293385e-05,9.192174281881846e-05,-1.543576442794431e-08,1.5435333417195086e-08,7.777130386616235e-06
0.884,-0.7853989004884702,4.046633917432403e-07,2.861400174881225e-07,-2.8614043931090916e-07,0.0002406476658301242,3.1837651684251444e-05,0.0002132194225999885,9.528677866830936e-09,-9.528261339899409e-09,8.013567272143136e-06
0.916,-0.785390886921198,1.4713044422702798e-06,1.0403769185145182e-06,-1.0403617780688092e-06,0.00023056856516486497,3.2031262778589774e-05,-0.00030267569565342996,3.464532831294997e-08,-3.464327025348579e-08,7.677933219990005e-06
0.9500000000000001,-0.785383208987978,2.6208178271891907e-06,1.8532257711354364e-06,-1.8531703441702647e-06,0.00022450751892894133,3.451992146903636e-05,-0.0001820134004781874,6.17137958723178e-08,-6.17091946960518e-08,7.4761003803337475e-06
0.9840000000000001,-0.7853757328875977,4.050530385545032e-06,2.864221746813614e-06,-2.864093257787454e-06,0.0002214849516080515,4.293431106173697e-05,-9.076778741410879e-05,9.538070860705137e-08,-9.537218090030716e-08,7.375448888548116e-06
1.017,-0.7853683574387091,5.429962733621644e-06,3.839677910698945e-06,-3.83944902695822e-06,0.00020184238453400927,4.14243948371355e-05,-0.0005898668791003675,1.2786408052295275e-07,-1.278508462768965e-07,6.721351404982509e-06
1.05,-0.7853616360873041,7.111221238297296e-06,5.028576430425098e-06,-5.028209083101428e-06,0.0001853844483531531,5.04882433836532e-05,-0.0004942323177434284,1.6745522416480705e-07,-1.6743573309601312e-07,6.173302130159999e-06
1.084,-0.785355462785174,9.27721117404954e-06,6.560259040806302e-06,-6.559698810572694e-06,0.00017059148144363728,6.504474281538269e-05,-0.00044423324052600063,2.1846130661733607e-07,-2.1843328933346525e-07,5.680696332073122e-06
1.117,-0.7853497820888419,-0.00015254815374194592,-0.00010787305262913399,0.0001078626150552102,0.0021882163780608107,-0.004859620568047912,0.06058933623474994,-3.5923702724037563e-06,3.5916274298866503e-06,7.286760538942501e-05
1.15,-0.7852769144834525,9.740491594463951e-06,6.8884027180045535e-06,-6.886732497811307e-06,0.00016230571472685814,0.004873532892985281,-0.06083815805807665,2.2938869277764624e-07,-2.2932330862455194e-07,5.4047803004043765e-06
1.183,-0.7852715097031521,8.290518965518007e-06,5.863024612747694e-06,-5.861539653361437e-06,0.00019144374319645264,-4.354272158996829e-05,0.0008750158699577927,1.9524296976702183e-07,-1.95185019125359e-07,6.3750766484418735e-06
1.217,-0.7852651346265036,6.539801681689217e-06,4.624953245834266e-06,-4.62372290580569e-06,0.00020665331992832228,-5.257409260747116e-05,0.00045674404600209127,1.5401433471010807e-07,-1.539665801662407e-07,6.881555553613133e-06
1.25,-0.78525825307095,5.284311468531509e-06,3.7370952218019764e-06,-3.7360496516559395e-06,0.00022405288437409867,-3.770240880353478e-05,0.0005225094428161077,1.2444804741750753e-07,-1.2440767602874798e-07,7.460961049657486e-06
1.284,-0.7852507921099003,4.372095842211725e-06,3.091994188478938e-06,-3.0910829804289515e-06,0.0002457980129600789,-2.7393862652245756e-05,0.0006530068644438507,1.0296574095300362e-07,-1.0293072803261478e-07,8.185073831570629e-06
1.317,-0.7852426070360689,3.4113963899954975e-06,2.4125967278970046e-06,-2.4118462550948348e-06,0.0002502865589081647,-2.8849833399886714e-05,0.00013479116961218656,8.034129853774167e-08,-8.031265218497232e-08,8.334542411641886e-06
1.35,-0.7852342724936572,2.7629096083243047e-06,1.953992282701545e-06,-1.9533519045255435e-06,0.0002595326541983104,-1.9474077527663444e-05,0.00027766051922359456,6.506943311653378e-08,-6.504512779540541e-08,8.642437384803737e-06
1.384,-0.7852256300562723,2.3113328285270704e-06,1.63464107374265e-06,-1.6340771108673005e-06,0.0002751420563195387,-1.3560864258175206e-05,0.0004687508144512995,5.443480844383817e-08,-5.44135066389791e-08,9.162230475440639e-06
1.417,-0.7852164678257969,1.8323923322387184e-06,1.2959324449464127e-06,-1.2954616001188391e-06,0.0002730943312420609,-1.4382597486136695e-05,-6.149324556990384e-05,4.3155548392743026e-08,-4.313787292253957e-08,9.094041230360629e-06
1.449,-0.7852073737845665,1.5104874895495309e-06,1.0682797051137482e-06,-1.0678721495234001e-06,0.00027791535819369335,-9.666812092768393e-06,0.00014477558413310672,3.55745396838387e-08,-3.555931674093373e-08,9.25458142784999e-06
1.483,-0.7851981192031388,0.034045671737486134,0.024078740722905834,-0.024069109024966805,-0.0003769893673426475,1.022347184684582,-0.01966680857466489,0.0008018319328185082,-0.0008014914597129147,-1.2553745932510164e-05
1.516,-0.7852106729490712,0.0667239689345748,0.0471898160533872,-0.047172124090712544,4.3743710295827395e-05,0.9813302461588187,0.012634626956110357,0.0015714512159150696,-0.0015708013789848682,1.4566655528510525e-06
1.546,-0.7852092162835184,0.10008737057344412,0.07078582943197814,-0.07075908492859997,4.374985902932986e-05,1.0019039531191987,1.8464665172560953e-07,0.0023572136328178814,-0.0023562319974118717,1.4568703056766844e-06
1.5830000000000002,-0.7852077594132126,0.13715413831369805,0.09700108538880499,-0.09696415363404551,4.4694084075344556e-05,1.1131161483559737,2.835510648692785e-05,0.003230198562426923,-0.0032288438723597195,1.4883129997089738e-06
1.616,-0.785206271100213,0.1668135905956722,0.11797765359239908,-0.11793238427273663,4.197511893756565e-05,0.8906742427019261,-8.165060473810522e-05,0.003928731603392781,-0.0039270726269223215,1.3977714606209364e-06
1.649,-0.7852048733287523,0.20017664716586342,0.14157362148905708,-0.1415189025149636,3.8798075332549054e-05,1.0018935906964332,-9.540671486536328e-05,0.004714492233541732,-0.0047124887795332955,1.2919759085738836e-06
1.6840000000000002,-0.7852035813528437,0.21279860618719207,0.1505006136337363,-0.1504420555931103,-0.07792630773650888,0.37903780844830776,-2.3412944688240667,0.0050052580729094695,-0.0050161242991868535,-0.002594946047625746
1.717,-0.7877985274004695,0.2065400980760126,0.14569492020293032,-0.14639604619084037,-0.07564210002076595,-0.18794318652190622,0.06859482629858658,0.004845586680960586,-0.0048810034696291525,-0.0025188819306915062
1.749,-0.790317409331161,0.20654040090979284,0.1453259171173881,-0.14676278486717265,-0.07565219785269169,9.094107514921004e-06,-0.00030323819596808437,0.00483328291409939,-0.004893201419832475,-0.0025192181884946332
1.783,-0.7928366275196557,0.224619957208224,0.15764445829719428,-0.16000734340775913,-0.17347219975455258,0.5429296185715065,-2.937537594650477,0.005234240992991315,-0.005343279939766133,-0.005776624251826601
1.8170000000000002,-0.7986132517714822,0.2180086910837559,0.15210484502343485,-0.15617908153286525,-0.16840690774479294,-0.1985365202542975,0.15211087116395303,0.005050578948735287,-0.005214844631930536,-0.005607950027901606
1.8490000000000002,-0.8042212017993838,0.21801795016521294,0.151233036124617,-0.15703628682177748,-0.16838397113971373,0.000278050494205616,0.0006887869393156197,0.00502147035873857,-0.005243306641076498,-0.005607186238952468
1.884,-0.8098283880383363,0.22462394741570407,0.15490577740096795,-0.16266566288069145,-0.12416083700725257,0.19837829581054442,1.3280220460198546,0.0051472506247124536,-0.005427319222203411,-0.004134555872341511
1.917,-0.8139629439106778,0.21783864802656694,0.14957296432423703,-0.15837173017083267,-0.11827167577815753,-0.20376274441853254,0.17685168856141256,0.004970479807094968,-0.005283480849306012,-0.003938446803412646
1.949,-0.8179013907140905,0.21765368802158663,0.14882160010301107,-0.15882461790345231,-0.11863714749842064,-0.005554354503913085,-0.010975126734627784,0.004945397762599499,-0.005298543238836114,-0.003950617011697408
1.984,-0.8218520077257879,0.2244273415330693,0.15280493517750512,-0.16437239249034308,-0.03671422898165596,0.20341301836284323,2.460147703206146,0.005085158902626864,-0.005476615288082173,-0.0012225838250891437
2.016,-0.823074591550877,0.2179492284251978,0.14819893935525208,-0.15980907529022675,-0.03538377462581838,-0.19453793116731305,0.03995358425938668,0.004931987315495152,-0.005324456723849811,-0.0011782796950397523
2.049,-0.8242528712459168,0.21813070507708043,0.14813377854141657,-0.16011679534785472,-0.035768605268707614,0.005449749305785133,-0.011556475762439357,0.004929777426303372,-0.005334734142057035,-0.0011910945554479636
2.084,-0.8254439658013648,0.1823952921613987,0.1237061021220222,-0.13403299183565887,0.03697663290864479,-1.0731355229934458,2.1845416870075796,0.004122242950681489,-0.004460684718315687,0.0012313218758578715
2.117,-0.8242126439255069,0.1953171029726959,0.13264670141020898,-0.1433653490863031,-0.0013558558192732378,0.38804236670562164,-1.1511257876251657,0.00441711611889659,-0.004774083738444713,-4.514999878179882e-05
2.149,-0.8242577939242887,0.1956156403514759,0.13284296565007986,-0.14359047749558349,-0.001619175874611422,0.008965086449850532,-0.00790750916931484,0.004423630724207997,-0.004781599934831012,-5.3918556624560356e-05
2.184,-0.8243117124809133,0.22401776453512093,0.1521220374507708,-0.16444708738417707,0.0015569621576972635,0.8529166421515019,0.0953795204897503,0.005065907586019817,-0.005475862527625309,5.184683985131888e-05
2.217,-0.8242598656410619,0.21815161703073285,0.14814685993466253,-0.16013318177262018,0.001817475846158326,-0.1761605857173596,0.007823233887719593,0.0049335509092949354,-0.005332193963250543,6.052194567707226e-05
2.25,-0.8241993436953847,0.21827437526558927,0.14823992186031498,-0.16021432040997768,0.0011344425584430779,0.0036864334791715516,-0.02051151014159904,0.00493658933241112,-0.005334951870731879,3.7776937196154496e-05
2.284,-0.8241615667581889,0.22457751517470517,0.15252689405794587,-0.16483509004784475,0.001996579782343861,0.18928348075423143,0.025890006723747246,0.005079430061498523,-0.005488745236426837,6.648610675205059e-05
2.316,-0.8240950806514367,0.2176034587289427,0.14780092462185607,-0.1597064555104868,0.002711870973868689,-0.20943112449737117,0.021480215961706545,0.004922109761507879,-0.005317911242568994,9.030530342982736e-05
2.349,-0.8240047753480069,0.2173706589399941,0.14765720833299997,-0.15952226238150047,0.0012635383760115357,-0.00699098465311131,-0.04349347140712172,0.004917195525884001,-0.005311896496292641,4.2075827921184144e-05
2.383,-0.8239626995200856,0.2125440520252583,0.14438511663636402,-0.15597407523437753,-0.003067558916056321,-0.1449431505926666,-0.13006298174377948,0.0048078556409321,-0.005194092901390451,-0.0001021497119046755
2.416,-0.8240648492319903,0.20601819477839842,0.13993653652593005,-0.151199412448849,-0.003592827588056352,-0.19597168909489157,-0.015773833993994932,0.004659679052348763,-0.005035132569783932,-0.00011964115868227654
2.45,-0.8241844903906725,0.20616603736748174,0.14001885399907965,-0.1513246691342634,-0.004036354884446209,0.00443971738988946,-0.013319138029725423,0.004662382837459827,-0.00503933816022083,-0.00013441061765205877
2.483,-0.8243189010083246,0.22441480344604378,0.15239046740903953,-0.1647396413999403,-0.0619718560128907,0.5480109933502115,-1.7398048386920266,0.005069040576148756,-0.005490968078581459,-0.0020636628052292604
2.516,-0.8263825638135539,0.21800593159122003,0.1477079041910173,-0.16034014234886088,-0.06028582214168782,-0.19245861425897146,0.05063164778387039,0.00491340984499737,-0.005344168988417395,-0.0020075178773182045
2.549,-0.8283900816908721,0.2181854639614394,0.1475070962380376,-0.1607686326479481,-0.06069532074279718,0.005391362469050005,-0.012297255288569514,0.004906672341448802,-0.00535846456060502,-0.0020211541807351463
2.583,-0.8304112358716073,0.20099353110675486,0.13558465633605196,-0.14837520181282557,0.0056243660379735735,-0.5162742599004365,1.9915821856087312,0.0045155235521868045,-0.004940387453638045,0.00018729138906452001
2.616,-0.8302239444825428,0.20669820162331784,0.13946144438072014,-0.15256032277613027,-0.05232181620459822,0.17131142692381326,-1.7401255928700237,0.00463973254260953,-0.005084215654430324,-0.001742316479613121
2.649,-0.8319662609621559,0.20713115718643815,0.13948698691817915,-0.1531231424634456,-0.05368449487952304,0.01300166856217156,-0.04092128152927377,0.0046404513187540694,-0.005103063518602513,-0.0017876936794881174
2.684,-0.833753954641644,0.21330140350122867,0.14336005469610308,-0.1579410758894731,0.02778280074935493,0.18529268212584135,2.4464653342005396,0.004776419786774689,-0.005257139973969319,0.0009251672649535193
2.717,-0.8328287873766904,0.20690262596370662,0.1392011097752262,-0.15307432073350158,0.029146260508085487,-0.19215548160726872,0.04094473749941616,0.004637964612022465,-0.005095038384348322,0.0009705704749192469
2.75,-0.8318582169017712,0.206692614635616,0.13920817026893592,-0.15278390712140533,0.029848290111028276,-0.006306646489207812,0.021081970058342017,0.0046382542862018865,-0.0050853132692277305,0.0009939480606972416
2.783,-0.830864268841074,0.22458367393653414,0.15142278808367965,-0.16585827036297143,-0.012674540034541416,0.5372690480756197,-1.276961866233324,0.0050413158297366685,-0.005524050634432545,-0.0004220621831502292
2.817,-0.8312863310242242,0.21797166752978905,0.14689676921106454,-0.16103722253276767,-0.01314347888944486,-0.19855875095330586,-0.014082247894998302,0.00489058842024791,-0.005363518923461473,-0.0004376778470185139
2.849,-0.8317240088712428,0.21765500925724166,0.1466129708963021,-0.16086746041300592,-0.009087403811918552,-0.009509257433855818,0.12180405638217139,0.004881500913984478,-0.005357534321522676,-0.00030261054693688785
2.883,-0.8320266194181796,0.21252230986434867,0.1431080326811932,-0.15711722748380194,-0.03034982780312143,-0.15413511690369328,-0.6385112309670534,0.004762950109533232,-0.005234322378239225,-0.0010106492658439436
2.917,-0.8330372686840235,0.20608682285176053,0.13862045886335467,-0.152499662090268,-0.02992627514055992,-0.19325786824589014,0.012719299176021314,0.004613624602265571,-0.005080452209352386,-0.0009965449621806455
2.95,-0.8340338136462042,0.20622704631770133,0.1385626325357199,-0.15274158404866173,-0.03048390020271424,0.004210914893117375,-0.01674549736199156,0.0046116478701076396,-0.005088550094564096,-0.0010151138767503843
2.984,-0.8350489275229546,0.18921638378651146,0.12699095099830585,-0.14027165878319925,-0.0034007838971951533,-0.5108307066423386,0.8133067959615341,0.004228620996051838,-0.004671207077244524,-0.00011324610377659862
3.017,-0.8351621736267312,0.19499309910317994,0.130851572844389,-0.14456892675126323,-0.03894349218661678,0.17347493443448903,-1.0673485972799286,0.004354324152606029,-0.00481688832724392,-0.001296818289814339
3.05,-0.8364589919165455,0.19524189601165073,0.13083070090923374,-0.14492317156970747,-0.03975065222309841,0.0074713786327565805,-0.024239040134583525,0.004353556780858153,-0.004828742733433083,-0.0013236967190291772
3.084,-0.8377826886355747,0.21267123825891374,0.1423009391126653,-0.15804903767575798,-0.06957555996277474,0.523403671088979,-0.8956428750653552,0.004732618090929188,-0.005268429653639836,-0.0023168661467603993
3.116,-0.8400995547823351,0.21818070621047658,0.14561133564654857,-0.16248125890000506,-0.10417556482415605,0.1654494880349203,-1.0390391850264655,0.004839563629173815,-0.005418935562973599,-0.003469046308644397
3.15,-0.8435686010909795,0.21859979234943028,0.14532541459044568,-0.16329847852729404,-0.10518889724990381,0.012585169337948792,-0.03043040317560847,0.004829903845271892,-0.005446214022604286,-0.0035027902784217973
3.184,-0.8470713913694012,0.22515410188553683,0.14909265998878227,-0.16871795498213005,-0.02972633410560323,0.19682611219539206,2.266143037366384,0.004962108496111604,-0.005620672040220848,-0.0009898869257165877
3.217,-0.8480612782951179,0.21836300074209855,0.14443368000551274,-0.16377213491054846,-0.02616066889611597,-0.2039369712744229,0.10707703331793572,0.00480736688404604,-0.005455617007958105,-0.0008711502742406619
3.25,-0.8489324285693586,0.21809529924563678,0.1441140619939083,-0.1636969660337656,-0.02552576763733779,-0.00803908397783092,0.0190661038672126,0.004796782301696178,-0.005453058747818861,-0.0008500080623233485
3.283,-0.8497824366316818,0.22439000267238898,0.14813029315540985,-0.16854758838086967,0.050262864387807686,0.18903013293550153,2.275934895650014,0.004937537786954775,-0.00560841220495461,0.001673753384113996
3.316,-0.8481086832475679,0.217544589878598,0.14388461693585183,-0.16316514822311348,0.049163054622673466,-0.20556795176549464,-0.0330273202743009,0.004795904110842479,-0.005429385830678824,0.0016371297189350265
3.349,-0.8464715535286329,0.21738846725185967,0.14404809499234272,-0.1628124443130496,0.047128725692647,-0.004688367169319412,-0.061090958859653675,0.0048011546320436155,-0.005417798913416516,0.0015693865655651452
3.384,-0.8449021669630677,0.20122119091526422,0.1335715230898515,-0.15049457097455202,-0.07112024333234834,-0.48550379389175535,-3.551020090840701,0.004442086468748476,-0.005016648988266758,-0.0023683041029672
3.417,-0.847270471066035,0.2061537950266533,0.13648027036347943,-0.1545073558294327,0.04485183962785163,0.14812624959126341,3.482645133939939,0.004548729152183556,-0.005141614514518251,0.0014935662596074594
3.45,-0.8457769048064275,0.20626814258379306,0.1367867146054452,-0.1543889288531288,0.04218774947451531,0.0034338605747677364,-0.08000270730739689,0.004558702875690436,-0.0051378653583789005,0.00140485205750136
3.484,-0.8443720527489261,0.2244797697842597,0.1490996512045926,-0.16781078944174915,-0.01232825515650092,0.5468957117257253,-1.6371172561866736,0.004963975087583751,-0.00558902601234872,-0.00041053089671148066
3.517,-0.8447825836456377,0.21810988956340324,0.14480182258275467,-0.16310841824403913,-0.012388481012867988,-0.191287694320014,-0.0018085842752873298,0.004820881181977099,-0.0054324151721590695,-0.00041253641772850405
3.549,-0.8451951200633661,0.21828609060055926,0.14485144652308354,-0.16329995649064283,-0.012639220369269854,0.005291322437117573,-0.007529710402458443,0.004822509754706025,-0.005438813837288379,-0.00042088603829668617
3.583,-0.8456160061016628,0.18911164634689395,0.1254321576606208,-0.14152734226513922,-0.08022629584068183,-0.8761094370470061,-2.0296419060484077,0.004170678300060155,-0.004718356723760759,-0.0026715356514947055
3.617,-0.8482875417531575,0.20660555648911802,0.13662179061944968,-0.15498497443337333,-0.020953142111064388,0.5253426469136356,1.779974586474998,0.004547800699187082,-0.005162501884660721,-0.0006977396322984441
3.649,-0.8489852813854559,0.2071341555099978,0.13686288744890499,-0.15547703501799975,-0.02136564013177933,0.015873844470864523,-0.012387327949397623,0.004555788238248237,-0.00517892143810109,-0.0007114758163882517
3.684,-0.8496967572018442,0.22476704910377632,0.1483936638503029,-0.16881808816564264,-0.06999366425980474,0.5295163241374927,-1.4603010248656279,0.004935057700988773,-0.005627304322468744,-0.0023307890198514983
3.716,-0.8520275462216957,0.21822080490167506,0.1436893514159828,-0.16423668890229468,-0.06713221700609555,-0.19658390997301076,0.08592934695823409,0.0047788400993213805,-0.005474336637169825,-0.002235502826302982
3.749,-0.8542630490479987,0.21797218166303697,0.14315855171621822,-0.16437001262231155,-0.06708948967890067,-0.007466163322465011,0.001283102918765006,0.004761163502645321,-0.005478753499343158,-0.002234080006307393
3.783,-0.8564971290543061,0.2242666496365938,0.14691440997169125,-0.1694452309210635,0.013388350093638327,0.18902306226897345,2.416751945121291,0.004893612357569831,-0.005641344483907384,0.0004458320581181563
3.816,-0.8560512969961879,0.21760826125252264,0.14262586614928588,-0.16435089799119487,0.012467296343404259,-0.19995160312525978,-0.027659271778800818,0.004750678977290318,-0.005471810553334936,0.00041516096823536187
3.849,-0.8556361360279524,0.2174224306293481,0.1425722296644414,-0.16415137120744214,0.009763555095344033,-0.005580499194430561,-0.08119343087267945,0.0047486453610634674,-0.00546538050748011,0.00032512638467495635
3.883,-0.8553110096432776,0.20154996734363367,0.13221351330149367,-0.15212487053961807,-0.030451974404975032,-0.4766505491205533,-1.20767355856814,0.004400234970030842,-0.005067907818766945,-0.0010140507476856687
3.916,-0.8563250603909632,0.20627975717853614,0.1351582268351763,-0.15583193491838204,0.0005965651817025947,0.14203573077785178,0.9323885761765052,0.00450091694822661,-0.005189075068276591,1.9865620550696404e-05
3.95,-0.8563051947704126,0.20634242910876732,0.13520238722903796,-0.15587659393916695,-0.0014309655431268954,0.0018820399468824024,-0.06088680855343814,0.004502212303836517,-0.0051907141616958415,-4.765115258612562e-05
3.983,-0.8563528459229987,0.22449233174276192,0.14708672279043783,-0.16959452523613835,-0.08722832701122216,0.545042121140979,-2.5764973413842416,0.004889883937326657,-0.005654512455851095,-0.0029047032894736983
4.017,-0.8592575492124724,0.21818159787629052,0.14247257230721216,-0.16524156799067702,-0.08507814625320594,-0.18951152752166386,0.06456999273321984,0.004736638082352074,-0.005509169403828951,-0.002833102270231758
4.049,-0.8620906514827041,0.2183500212224593,0.14211347351087253,-0.16577241149999283,-0.08525701491586307,0.005057758143206875,-0.0053714313110251105,0.004724638929729645,-0.005526843815667345,-0.0028390585966982405
4.084,-0.8649297100794024,0.21326850373634046,0.13834591588869655,-0.16230792415299744,-0.046546322563589114,-0.15259812270627168,1.1624832538220407,0.004602828940704078,-0.005408336501334281,-0.0015499925413675177
4.117,-0.8664797026207699,0.2070965850607191,0.1340977748494324,-0.15781882753411455,-0.04587578840997196,-0.18534290317181268,0.020136160769283904,0.0044615376951238905,-0.005258692842739001,-0.0015276637540520665
4.149,-0.868007366374822,0.20704612124094968,0.13382390716113127,-0.15798499356917087,-0.04404968736963314,-0.0015154300231056937,0.05483786907924382,0.0044525738689563015,-0.0052640840368810395,-0.0014668545894087838
4.183,-0.8694742209642308,0.2131698706088946,0.13754323881434732,-0.16285960577095934,0.037800109720634724,0.18389637741576384,2.457951864572608,0.004583702616088089,-0.005420255600365292,0.0012587436536971365
4.216,-0.8682154773105336,0.20660451823829953,0.13350566664297817,-0.1576758191058281,0.039668732048007506,-0.19715772884669905,0.056114784605789246,0.004449302887317951,-0.005247584209116711,0.0013209687771986501
4.249,-0.8668945085333349,0.20627502889338759,0.13350059040307755,-0.15724814754710975,0.04109910496015408,-0.009894574922280734,0.042954141505903085,0.0044492487883675625,-0.005233236876854729,0.001368600195173131
4.284,-0.8655259083381619,0.22455947574662927,0.1455683805872469,-0.17098773266175393,-0.11315425621999535,0.5490824880853358,-4.632233068472956,0.004836794221986895,-0.005702920752891112,-0.0037680367321258454
4.317,-0.8692939450702876,0.21766562901230607,0.1404740060588238,-0.16626899793740382,-0.10809125776419522,-0.20702242445414998,0.15204199566967364,0.004667912769998889,-0.0055450776032732255,-0.003599438883547701
4.35,-0.8728933839538354,0.21743971631776082,0.1397294479795185,-0.16660045498043316,-0.10927088592035224,-0.006784165001358841,-0.03542426895366426,0.004642990197782847,-0.005556162065712778,-0.00363872050114773
4.383,-0.8765321044549831,0.2242583698197694,0.14348502370118615,-0.17234809081533367,-0.0339399246646385,0.20476436942968712,2.2621910287001117,0.004774913782046213,-0.005741801525956433,-0.0011301994913324623
4.417,-0.8776623039463156,0.21774573455000243,0.13912888855109556,-0.1675003202541922,-0.033145262595591606,-0.19557463272573497,0.023863725797204045,0.004630016579370865,-0.0055802302761754205,-0.0011037372444332005
4.449,-0.8787660411907487,0.21792568388569303,0.13905875348123878,-0.16779233229588017,-0.03353580617218501,0.005403883954672642,-0.011728035333135288,0.00462763954174897,-0.005589983114660623,-0.0011167423455337609
4.484,-0.8798827835362826,0.2247077678708439,0.14319311126369688,-0.1731742296882524,-0.0608339400013279,0.2036661857402664,-0.8197637786529395,0.004762593615513253,-0.005771439151171036,-0.002025770202044219
4.517,-0.8819085537383268,0.2182866354267248,0.13876022752102044,-0.16850713475765502,-0.0599510835426598,-0.19282680012369663,0.026512205966008943,0.00461521578628113,-0.005615810406761977,-0.0019963710819705716
4.55,-0.8839049248202974,0.21844217671603544,0.1385221828863219,-0.1689040834818627,-0.06002534147072465,0.004670909588908109,-0.0022299678097552063,0.004607268994763911,-0.005629026719668284,-0.001998843870975131
4.583,-0.8859037686912725,0.2251519623930825,0.1424288354933856,-0.17437727199797035,-0.07832719187816216,0.20149506537678835,-0.5496051173404657,0.0047354100172884665,-0.005812853969104605,-0.0026082954895428
4.616,-0.8885120641808153,0.2185076257223797,0.13778382089355487,-0.16959127689478715,-0.0744026630384374,-0.1995296297508348,0.1178537189106534,0.004581305608879562,-0.005652982470485576,-0.002477608679179966
4.649,-0.8909896728599952,0.2183875377646939,0.13728772519347862,-0.16983873869681648,-0.07202502019486087,-0.0036062449755490306,0.0714006859932891,0.004564999767579133,-0.005661022159708143,-0.002398433172488867
4.683,-0.8933881060324841,0.1894445672107977,0.1187392356042543,-0.1476151685085372,-0.04349484190834962,-0.8691582748917782,0.8567621107060436,0.0039505467703890434,-0.004918373418882753,-0.0014483782355480424
4.7170000000000005,-0.8948364842680321,0.20652047166158835,0.12920878641765396,-0.16110802192256596,-0.08186890820741913,0.5127899234471669,-1.1523743633354206,0.0042954341051970315,-0.005370675661535027,-0.002726234643307057
4.75,-0.8975627189113392,0.206268507301085,0.12861198438877372,-0.16126268810794264,-0.07920066239372844,-0.0075664973124126966,0.08012750191263314,0.004275792604431803,-0.005375609473184648,-0.002637382057711157
4.783,-0.9002001009690503,0.22430805360982864,0.13939696024822623,-0.17573443142362338,-0.023112144585652066,0.5417281173796886,1.6843398741164075,0.004639775188850627,-0.005853656039046581,-0.0007696344147022139
4.816,-0.9009697353837526,0.21772895959039998,0.13517703681800136,-0.17068411924201599,-0.022289177619612372,-0.19757039097383364,0.024713722703894714,0.00449939125374765,-0.0056853675528273,-0.0007422296147330921
4.85,-0.9017119649984857,0.2176754401370797,0.13501711638086503,-0.17074242449686405,-0.024904034148424094,-0.001607190790398561,-0.0785242200844361,0.0044938175789579655,-0.005687502862238837,-0.0008293043371425225
4.883,-0.9025412693356282,0.224306584441939,0.13898424438840415,-0.1760591481173104,-0.038162647812996185,0.19913346260838682,-0.3981565665036664,0.004624557868423014,-0.005865622876988209,-0.0012708161721727731
4.916,-0.903812085507801,0.21785159260306286,0.1347672105541134,-0.1711640013529543,-0.03800489091612905,-0.1938435987650489,0.004737444350364506,0.004484246205889136,-0.005702516137919525,-0.0012655628675070974
4.949,-0.905077648375308,0.21803192892311932,0.13466186401460678,-0.171476250279879,-0.03824120916666489,0.005415505106800502,-0.007096644160235474,0.004480709298344624,-0.005712929495443575,-0.0012734322652499408
4.9830000000000005,-0.906351080640558,0.20109567917697796,0.12400011896272886,-0.15831437926126338,-0.07909852653661127,-0.5085960884727134,-1.2269464675659574,0.0041223542797818365,-0.0052772242301756455,-0.0026339809336691556
5.016,-0.9089850615742272,0.20669354931708034,0.127022845035936,-0.16305649379362022,-0.03151280186578779,0.16810420841148283,1.4290007408655698,0.004227111987107816,-0.005431921034839823,-0.0010493763021307335
5.05,-0.9100344378763578,0.20700272634712072,0.12704141519041956,-0.1634338017105286,-0.03241072484638585,0.009284595496708127,-0.026964654072013917,0.00422764260529565,-0.005444548890444391,-0.001079277137384649
5.083,-0.9111137150137425,0.17672414195833855,0.10830823333731288,-0.1396450820554064,-0.06637961626381454,-0.9092667984619269,-1.0200868293522127,0.0036016082666270807,-0.004654096660280718,-0.0022104412215850243
5.116,-0.9133241562353276,0.18402642600323443,0.11246184845012087,-0.1456641963926138,-0.021664154209473336,0.21928780915603255,1.3428066682985347,0.0037433197554118526,-0.004851898586505025,-0.0007214163351754622
5.15,-0.914045572570503,0.18393051714823663,0.11229817782474434,-0.14566933237871268,-0.018315065558991147,-0.0028801457957297427,0.10057323274721287,0.0037381400454096067,-0.004851859340367273,-0.0006098916831144052
5.184,-0.9146554642536174,0.2105826682665295,0.1284688218325695,-0.16685569211508108,-0.0643043363528435,0.800364898447233,-1.3810591829985688,0.004272162918332526,-0.005560791219429344,-0.0021413344005496884
5.216,-0.9167967986541672,0.21801572971969232,0.13263325200722773,-0.1730297051583836,1.5687862880625275e-06,0.22321505865353847,1.9311082624363827,0.004416794543563116,-0.00576180697916282,5.224058339248217e-08
5.249,-0.9167967464135839,0.21801591391706993,0.13263337310574067,-0.17302984441907307,4.8846842486765325e-06,5.531452780800901e-06,9.95765153337539e-05,0.004416798891620037,-0.005761811362271262,1.6265998548092855e-07
5.283,-0.9167965837535983,0.19845228339463966,0.12073155972744823,-0.15750301352775437,-0.060281343216512635,-0.5874964120849928,-1.8103972342570962,0.004015191628098071,-0.005248807369586914,-0.002007368729109871
5.317,-0.9188039524827082,0.206289806049988,0.12517073388388555,-0.16397491106602613,0.0027512862858269124,0.23536104070115146,1.8928717568270135,0.004168537054913014,-0.005460096109997786,9.16178333180362e-05
5.349,-0.9187123346493901,0.2060727330152675,0.12505402688927658,-0.1637909083287525,-0.0009637884984086792,-0.006518709751366855,-0.11156380733440213,0.004164312950055031,-0.005454226668958937,-3.209415699700902e-05
5.384,-0.9187444288063871,0.18745540483553683,0.11375142882378528,-0.14899711823589848,-0.06787751808071543,-0.5590789243162361,-2.00942130877798,0.003782404248540472,-0.004965810467995093,-0.002260321352087824
5.416,-0.9210047501584749,0.19491608924217155,0.11792822394910574,-0.15519412308999253,-0.004937324167388781,0.22404457677581743,1.8900959133131126,0.00392668106352948,-0.0051682141157355374,-0.00016441289477404643
5.449,-0.921169163053249,0.19501050007186785,0.11795981456503825,-0.1552886901421406,-0.00751516470824202,0.002835160050939966,-0.07741262885445163,0.003927510860936528,-0.005171531835447085,-0.00025025498478445927
5.484,-0.9214194180380335,0.2109974372338553,0.12758809421915077,-0.16805117295865513,-0.04154186974221347,0.4800882030626864,-1.0218229739931366,0.004244915584003498,-0.005598962069779597,-0.0013833442624157088
5.517,-0.9228027623004491,0.21812171487925344,0.13165562735606054,-0.17390767173229724,0.017534613882900698,0.21394227163357762,1.7740685773307556,0.004385930485209642,-0.005789763664905059,0.0005839026423005933
5.55,-0.9222188596581486,0.2184159230880366,0.13193486750655348,-0.17406523545621425,0.0163486560366823,0.008835081344839268,-0.03561434973628825,0.004395116388931108,-0.005795094447708525,0.0005444102460215206
5.584,-0.9216744494121272,0.19883371470940797,0.12019241823294918,-0.15839390362150327,-0.023162207467814194,-0.588054305664523,-1.186512417552447,0.004000471075851233,-0.005275985642079826,-0.0007713015086782128
5.616,-0.9224457509208053,0.20666709676852515,0.12480057706977193,-0.16473040050270885,0.03138591873391666,0.23523669847198747,1.6380818679198454,0.004158826979208417,-0.0054832722875413535,0.001045151093839425
5.649,-0.9214005998269659,0.20685060719739928,0.12508364675286726,-0.1647460318579379,0.033556267994039525,0.005510823689913768,0.06517565345714302,0.004168451613547643,-0.005483637045837586,0.0011174237242015162
5.683,-0.9202831761027643,0.1866601661806114,0.11304043291074688,-0.1485391469139513,-0.038869968948254396,-0.60631955005369,-2.1749620703391566,0.003761136143355111,-0.00494871846604549,-0.0012943699659768715
5.7170000000000005,-0.9215775460687412,0.19503635902392266,0.1179120208661556,-0.1553574480884896,0.02251689466498869,0.2515373226219597,1.8434493577550475,0.003928505599614624,-0.005171857458891739,0.0007498125923441235
5.749,-0.9208277334763971,0.194757408957956,0.11785966686663658,-0.15504691957630753,0.0259854616069575,-0.008376878857857322,0.10416116942849271,0.003927056191674792,-0.00516129072104505,0.0008653158715116848
5.783,-0.9199624176048854,0.21060910271314479,0.12759753684768516,-0.16755614801027027,-0.10032959026238061,0.4760268394951583,-3.7932448008810242,0.004239773235999538,-0.005586628435979156,-0.0033409753557372746
5.816,-0.9233033929606227,0.21780007781712915,0.13137453951659664,-0.1737170235295024,-0.03188740146472754,0.21594519831784878,2.0553209849145064,0.0043718076256966075,-0.005787017214175214,-0.0010618504687754271
5.849,-0.9243652434293981,0.21780191427859708,0.13119111016104001,-0.1738578916188023,-0.031911373729605404,5.514899303076541e-05,-0.0007198878341701724,0.004365694713916495,-0.005791706733359471,-0.0010626487451958601
5.883,-0.925427892174594,0.2245460239619346,0.13506281976295995,-0.17938492577357748,0.049933484863481696,0.20252581631644212,2.4578035613539666,0.0045026671237520695,-0.005969692320910897,0.0016627850459539407
5.916,-0.92376510712864,0.21775072474439028,0.1312645668689446,-0.17373828481775566,0.04473217351154025,-0.2040630395658955,-0.15619553609433778,0.004375524909833458,-0.005782145855335625,0.0014895813779342904
5.95,-0.9222755257507057,0.21795535071245736,0.13164681421669114,-0.17370564530488436,0.04471416264999532,0.006144923965978521,-0.0005408667130607969,0.004388251178615982,-0.005781050559445418,0.0014889816162448443
5.9830000000000005,-0.9207865441344609,0.1991059756038833,0.12049778033151301,-0.15850386259127128,-0.09722886116323357,-0.5660473005577797,-4.26255326766453,0.004004122673725484,-0.005284590773166101,-0.003237721076735678
6.017,-0.9240242652111965,0.20665791114576182,0.12453485702255401,-0.1649198642538297,0.048991710470472474,0.22678485110746316,4.39100815716835,0.004151590665556925,-0.0054883691121268745,0.0016314239586667336
6.049,-0.9223928412525298,0.20691198768334312,0.12495718594333578,-0.16491898716701647,0.048413244296985944,0.007629926053492635,-0.017371356561157066,0.0041656013378252475,-0.005488368307313294,0.0016121610350896321
6.084,-0.9207806802174402,0.2246967330917802,0.13598620708334408,-0.1788753011044414,-0.002491401890771774,0.5340764386918042,-1.5286680536864177,0.004528204320821682,-0.00595665119789866,-8.296368296270008e-05
6.117,-0.920863643900403,0.21840262079476688,0.1321625925737348,-0.17387568517251548,-0.0024619076336270637,-0.18901238129169132,0.0008857134277690742,0.00440088461283245,-0.00579015891123881,-8.198152419978122e-05
6.15,-0.9209456254246027,0.21833058431716354,0.13210475060129118,-0.1738291658981447,-0.00042137959327042876,-0.002163257585685985,0.06127711832902807,0.004399155175304741,-0.0057884603207416984,-1.4031940455905278e-05
6.183,-0.9209596573650586,0.22473425551672585,0.13597689349667108,-0.17892951136593424,0.06630208634829193,0.1923024384252946,2.003707685932804,0.004534715130538472,-0.005953264975156084,0.0022078594753981214
6.216,-0.9187517978896604,0.21778685206058826,0.13215583993475913,-0.17310675001743545,0.06757169979744372,-0.20863073441854624,0.03812653000455819,0.004407378214328292,-0.005759416802222436,0.0022501376032548763
6.249,-0.9165016602864056,0.21767273543167337,0.13247556770402708,-0.17271839424856578,0.06623856538555593,-0.0034269257932399346,-0.04003406642305668,0.004417882832469215,-0.005746570501023784,0.002205744227339013
6.283,-0.9142959160590666,0.1872967634525751,0.11431629016773948,-0.14836395587235823,-0.10917543776798741,-0.9121913507236719,-5.2676877823886885,0.003797835311661536,-0.004947358017121918,-0.0036355420776739812
6.316,-0.9179314581367405,0.20480403185104407,0.12441119818418553,-0.1626854179968776,0.024725906123297232,0.525743795749819,4.021061378116656,0.004145223373647915,-0.005415641187398172,0.0008233726739057979
6.35,-0.9171080854628347,0.20608064751443045,0.12532144024038824,-0.1635963627225304,0.04915541348772246,0.03833680670829977,0.7336188397725293,0.0041777619410586705,-0.005444263287220647,0.0016368752691411582
6.383,-0.9154712101936935,0.22438478484223962,0.1367439123369704,-0.17790344040371206,-0.004258575025642444,0.5496737936279028,-1.6040236790800269,0.004553262329300293,-0.0059244227861581225,-0.00014181054835389338
6.416,-0.9156130207420474,0.21786659051274318,0.13274711656565139,-0.17275431776124348,-0.005782529741676672,-0.19574157145634938,-0.045764405886913766,0.00442003202213467,-0.005753062190365229,-0.0001925582403978332
6.45,-0.9158055789824453,0.21804587423082494,0.13282305985592596,-0.17292205770113264,-0.006185051408423457,0.005383895437890781,-0.012087737740143687,0.004422521904261282,-0.005758677765341146,-0.00020596221190050112
6.483,-0.9160115411943458,0.19954034081892855,0.12151778359801006,-0.15827120990111043,0.021804531004804333,-0.5557217240809729,0.8405280003972309,0.004048553179167025,-0.005268886497308832,0.0007260908824599843
6.517,-0.9152854503118858,0.2062646394412572,0.12573156331031704,-0.1635135329915404,-0.00594987182062529,0.2019308895594189,-0.8334655503132018,0.004186422834573227,-0.005445337572659016,-0.00019813073162682217
6.549,-0.9154835810435126,0.20699021779847981,0.12614133648786802,-0.16411372122195195,-0.011132697515351567,0.021789139856535047,-0.15564041125304134,0.004199595015036792,-0.005465687336839633,-0.0003707188272612072
6.584,-0.9158542998707738,0.22471038809624783,0.13687407859474576,-0.17821404301346647,-0.05562644215639089,0.5321372461792195,-1.3361484877188985,0.004552518154192909,-0.005938661062789021,-0.001852360523807817
6.617,-0.9177066603945816,0.21829112989527433,0.1326431090494338,-0.1733690370644526,-0.052911556739211614,-0.1927705165457507,0.0815280906059843,0.00441203457751124,-0.0057769952303504115,-0.001761954839415747
6.65,-0.9194686152339974,0.21830703121910902,0.1323470749631664,-0.17361512499893278,-0.05160662895570017,0.0004775172322730898,0.03918702052586909,0.004402295301944012,-0.005785085842020055,-0.0017185007442248159
6.684,-0.9211871159782222,0.2245740441495686,0.13583928302882664,-0.17883285629857484,0.024213491911734726,0.18819858650028787,2.2768805065295763,0.004525959129569386,-0.005953225696243955,0.0008063092806607665
6.7170000000000005,-0.9203808066975614,0.21772636792924036,0.13183704811168945,-0.17327366804236302,0.02560632459057698,-0.20563592253237994,0.041826807172440035,0.004392740401242953,-0.005768059068687827,0.0008526906088662135
6.75,-0.9195281160886952,0.21766096801624354,0.13194510386084887,-0.17310917527652311,0.024150917648430276,-0.0019639613512555795,-0.04370591417857969,0.004396196591613067,-0.005762686411232413,0.0008042255576927283
6.783,-0.9187238905310025,0.21265743976363452,0.1290479642430086,-0.1690260619299847,0.056200008446955586,-0.15025610368195266,0.9624351591148741,0.004302666064101263,-0.005624463493502759,0.001871460281283621
6.816,-0.9168524302497189,0.20601323807580726,0.12532225380584058,-0.1635108160443942,0.05240618950710954,-0.19952557621102868,-0.11392849669207343,0.004178081097338398,-0.005441188346046035,0.001745126110586748
6.85,-0.9151073041391321,0.20613721600637436,0.1256829998526706,-0.16339013241592112,0.051575055307835786,0.003723060977990779,-0.024958984963175807,0.004190015127916159,-0.005437216883348292,0.0017174493417509318
6.883,-0.9133898547973811,0.2125614925536647,0.12988908512335526,-0.16825936432323588,0.08482257207688226,0.19292121763634626,0.9984239269983927,0.00433331795419091,-0.005596840229589443,0.0028245916501601796
6.916,-0.910565263147221,0.20644973150368878,0.12661549111250345,-0.16306443219870098,0.08261189697501449,-0.1835363678671443,-0.06638663969572893,0.0042238603153883685,-0.00542416077306867,0.002750976169267983
6.949,-0.907814286977953,0.2066211520867989,0.12716910202022758,-0.16285060632691864,0.08242462194658068,0.005147765258562198,-0.005623874727742086,0.004242268723603942,-0.005417027916304776,0.0027447399108211368
6.9830000000000005,-0.9050695470671318,0.2246790858345692,0.13876874259726849,-0.17670293627846356,0.04150737944815527,0.5422802927258344,-1.228746020973736,0.004625173531114242,-0.0058809263739811575,0.0013821957356235704
7.016,-0.9036873513315083,0.2184214452146017,0.13514113720261334,-0.17159487394796993,0.039027632171600136,-0.18791713573475982,-0.07446688518183574,0.004504017841870603,-0.005711099702692423,0.0012996201513142847
7.05,-0.902387731180194,0.21846645268767573,0.13539192400178546,-0.171454419205313,0.04046106003923048,0.0013515757679891278,0.04304588191082112,0.004512502081222035,-0.005706309252835659,0.0013473532993063752
7.083,-0.9010403778808876,0.2250686635069173,0.1397214280432265,-0.1764477991881776,-0.0013020214288069992,0.1982645891664132,-1.254146590631756,0.004652705389389018,-0.005875726095821573,-4.335731357927308e-05
7.117,-0.9010837351944669,0.2183757540631184,0.13555908256197097,-0.1712066152273104,0.00034330902610425176,-0.20098827158555205,0.04940932297030783,0.0045142560058622746,-0.005701070577121163,1.1432190569271585e-05
7.149,-0.9010723030038976,0.21819982446891162,0.13545182806762626,-0.17106713790615094,0.0014735775142607212,-0.005283170997200787,0.03394199664133542,0.004510791517968732,-0.005696341181120296,4.9070131224882024e-05
7.183,-0.9010232328726727,0.2243740757760046,0.13929324752023245,-0.17590087286765665,0.07947831015385075,0.18541295216495438,2.3424844636513518,0.0046463197924257104,-0.0058512677251532225,0.00264662772812323
7.216,-0.8983766051445495,0.21767714814554365,0.13558691563195932,-0.1702924811440273,0.07826522472973059,-0.20110893785168024,-0.03642899171532007,0.004522534099825416,-0.005664765518702105,0.002606231983500029
7.25,-0.8957703731610496,0.21751337978309132,0.135927934628813,-0.1698106797943182,0.07592246130510477,-0.004917968842412214,-0.07035325599476931,0.004533648546971341,-0.005648883485799239,0.002528217961459989
7.284,-0.8932421551995895,0.20120932665948787,0.12613598113210317,-0.15676385871305354,-0.00796013607233563,-0.48961120491301635,-2.518996918241453,0.004199733291461089,-0.005220715069118719,-0.0002650725312087765
7.316,-0.8935072277307983,0.20605176776103346,0.12912909742523992,-0.16057087903972425,0.06977008112756114,0.14541865169806548,2.3342407567536565,0.004306305836948325,-0.005341930234506809,0.0023233437015477863
7.35,-0.8911838840292505,0.20619347683531783,0.12959087288165874,-0.160380658295215,0.0679079251463916,0.0042555277562875094,-0.055920600035121275,0.004321510089381345,-0.005335711794313088,0.0022613339073748405
7.383,-0.8889225501218757,0.22443912262661647,0.14145251395208774,-0.17425299441340975,0.02450605551163154,0.5479172910299892,-1.303359448491293,0.004712843630837254,-0.005800614520040251,0.0008160516485373304
7.417,-0.8881064984733383,0.2180264659552868,0.13754903479349323,-0.1691620610075741,0.02275615322850661,-0.19257227241230254,-0.05254961811185978,0.004582621414724969,-0.005631275454005476,0.0007577799025092702
7.45,-0.8873487185708291,0.21820444505583664,0.13778957137005649,-0.16919578559698742,0.022506727835290247,0.005344717734229459,-0.007490252048539437,0.004590608339674337,-0.005632414366452348,0.0007494740369151653
7.483,-0.8865992445339139,0.189179832473533,0.11957130472720845,-0.14660051875947464,-0.016988875269937673,-0.8716099874565653,-1.1860541473041417,0.003980434106137071,-0.004882849319256912,-0.0005657295464889246
7.516,-0.8871649740804028,0.20658549069387763,0.13048198087705173,-0.16016247260713384,0.014152127772249746,0.522692439049388,0.9351652565221447,0.004346405643224961,-0.005332305516657064,0.0004712658548159166
7.55,-0.8866937082255869,0.2070746054048072,0.130866555132026,-0.1604800204119909,0.01314288362571266,0.01468812945734468,-0.03030763202814071,0.004359124877284594,-0.005342949860411982,0.0004376580247362316
7.584,-0.8862560502008507,0.2247776052733856,0.14213068442497603,-0.1741374180850452,-0.04464628502526118,0.531621617675027,-1.7354104699992143,0.004728747314674081,-0.005802204281944092,-0.0014867212913411976
7.617,-0.8877427714921919,0.21828010941621626,0.1377706452347748,-0.16930875783121546,-0.0419542359665178,-0.19511999571079144,0.08084231407637778,0.004583927503425552,-0.005641099326015704,-0.001397076057685043
7.65,-0.889139847549877,0.2180935946659711,0.1374164543979815,-0.16935623429626787,-0.04148201825352941,-0.00560104355090518,0.014180712101753586,0.00457217625053611,-0.005642636334147864,-0.0013813512078425295
7.683,-0.8905211987577196,0.2242449197854102,0.1410516090720843,-0.1743279312896845,0.020933394916404138,0.1847244780612337,1.8743367318298358,0.004699149394254987,-0.005803395194817193,0.0006970820507162578
7.716,-0.8898241167070032,0.2176166070006371,0.13700025002824293,-0.16907962365308438,0.019335714685779732,-0.1990484319751683,-0.0479783853040362,0.004564025268829023,-0.005628797523279109,0.0006438792990364652
7.749,-0.8891802374079667,0.21747466717184488,0.13701965946849004,-0.16888115282838323,0.017128714770993533,-0.004262457321087361,-0.06627627371730328,0.004564462770450595,-0.005622355978173915,0.0005703862018740847
7.783,-0.8886098512060927,0.2016742303468728,0.12715392095728156,-0.15653873505044333,0.01438623431046479,-0.4744875923415042,-0.0823567705864487,0.0042355708887012395,-0.005211646723544548,0.0004790616025384776
7.817,-0.8881307896035542,0.2063571045123434,0.13018315215067439,-0.1601112159682531,0.011389446235293747,0.14062685181593432,-0.08999363589102231,0.0043362090222392865,-0.005330800683168614,0.00037926855963528184
7.85,-0.8877515210439189,0.2062617593656204,0.13018369011637165,-0.1599878751789823,0.011759325252790241,-0.0028632176193090554,0.011107478002897714,0.00433625888384539,-0.005326666724473931,0.00039158553091791506
7.883,-0.887359935513001,0.22447584770227305,0.141747821885026,-0.17406022288996711,-0.035886167417171703,0.5469696197192985,-1.4307955756745327,0.004716845873080104,-0.005798936713145674,-0.001195009374991818
7.917,-0.8885549448879928,0.21809291914873027,0.13751506186195442,-0.16927530577115332,-0.03591926321473766,-0.19167953614242572,-0.0009938677947734112,0.004575984131567646,-0.0056395199312991315,-0.001196111465050764
7.949,-0.8897510563530436,0.21826724713937187,0.1374222492597743,-0.16957510602144438,-0.03612382858566256,0.005235074794041995,-0.00614310423197894,0.0045728684421655905,-0.005649517057859778,-0.0012029234919025632
7.9830000000000005,-0.8909539798449462,0.22503051815384303,0.1414700324970489,-0.17499989715960124,0.033923220113262716,0.20310123166580063,2.103514975943702,0.004714350842883397,-0.005824746862796251,0.0011296432297716486
8.016,-0.8898243366151745,0.21846830565261027,0.1375363984720124,-0.16974139056243817,0.03492250399076583,-0.1970634384754583,0.030008524849943402,0.004583352684584828,-0.005649638777602491,0.0011629193828925023
8.05,-0.888661417232282,0.21845190088637262,0.13772335856812212,-0.16956859822970183,0.036161557016524515,-0.0004926356227523813,0.03720879957233284,0.004589691416578922,-0.005643786350358058,0.0012041798486502665
8.083,-0.8874572373836317,0.20079166716966268,0.1267770272191679,-0.15570767153304602,0.017157910500659228,-0.5303373488501483,-0.57068007555151,0.004223252395157679,-0.005183780637330409,0.0005713584196719524
8.117,-0.8868858789639598,0.20658286684513608,0.13052501853515092,-0.1601240157201715,0.042032130473522535,0.17390990016436625,0.7469735727586578,0.004350312360730207,-0.005329005302543113,0.0013996699447683006
8.15,-0.8854862090191915,0.20651263963397173,0.13070456365513394,-0.15988679547827492,0.045402346728059366,-0.002108925260190452,0.10120769533143636,0.0043565840587225626,-0.005320857045965419,0.0015118981460443771
8.184,-0.883974310873147,0.22461790450870422,0.14242638675140723,-0.1736891688701974,-0.021171010814408933,0.5437016478898645,-1.999199926200249,0.00474086703083669,-0.005785432549263949,-0.0007049946601198176
8.216,-0.8846793055332669,0.21767995103412419,0.13790844662704033,-0.1684215586887126,-0.01725920507135649,-0.20834695118858973,0.1174716439355088,0.004590843616170929,-0.005609671949765588,-0.0005747315288761711
8.249,-0.8852540370621431,0.217637731589676,0.1377848978461512,-0.16846811014855462,-0.01772949837883306,-0.0012678511846301113,-0.014122922146443501,0.004586685083680138,-0.005611256918907722,-0.0005903922960151409
8.283,-0.8858444293581582,0.18956555867928657,0.11992595114143936,-0.1468089482293608,0.021095210969961725,-0.8430081955071902,1.1659071876514948,0.003995341783212634,-0.004887260642326494,0.0007024705252997256
8.317,-0.8851419588328584,0.20631395697778498,0.13063379515746354,-0.15968800958929,-0.018914693354772,0.5029549038588113,-1.201498628370382,0.004348529282519119,-0.005318899518421461,-0.0006298592887139077
8.35,-0.8857718181215724,0.2063298417011822,0.1305432384125589,-0.15978256000326416,-0.02003232123864945,0.00047701872063738126,-0.03356239891523873,0.0043454137652243685,-0.005322128005252822,-0.0006670762972470268
8.383,-0.8864388944188194,0.20118257648633464,0.12718264846892907,-0.1558813748018303,-0.02944344503635148,-0.15457252897440144,-0.2826163302613222,0.004232733309535283,-0.0051928465025732505,-0.0009804667197105045
8.417,-0.8874193611385299,0.19518606195941177,0.12324346002252344,-0.15135603174270923,-0.031165840542392107,-0.18007551131900523,-0.05172358876998881,0.004101484810338785,-0.0050422083330064925,-0.0010378224900616574
8.449,-0.8884571836285916,0.19533857447774888,0.12318248892870534,-0.15160221997163642,-0.03137114387032382,0.004579955505619121,-0.006165265103054354,0.00409943310531121,-0.0050504193939374465,-0.0010446590908817833
8.483,-0.8895018427194734,0.22438781168662406,0.14131923117226464,-0.17429505137665813,0.004971921296428296,0.8723494657319871,1.0913833383409042,0.004706518721153117,-0.005803548135337667,0.00016556497917106225
8.517,-0.8893362777403023,0.21848718837441006,0.13763112062866092,-0.16968890982693577,-0.0015413154552868158,-0.1771958952616816,-0.19559269524670003,0.004583076334486125,-0.005650673124903377,-5.132580466105097e-05
8.55,-0.8893876035449634,0.2185112586189969,0.13763757258057763,-0.16971466865708568,0.00010683397398368286,0.0007228301677729107,0.04949397685496992,0.004583446264645222,-0.005651405120768922,3.5575713336566396e-06
8.583,-0.8893840459736297,0.2249779577617331,0.14171148901603173,-0.1747367601837097,-0.014086853206097105,0.19419516945153764,-0.4262368522546782,0.004717735823933929,-0.005819753033181046,-0.00046909221176303365
8.616,-0.8898531381853927,0.21819014040216206,0.13735639729944862,-0.16952922311398474,-0.013047640229451799,-0.2038383591462775,0.031207596896255425,0.004572846426916992,-0.0056462316197731285,-0.00043448641964074494
8.649000000000001,-0.8902876246050335,0.21777622625128132,0.13702229616973227,-0.16926717068771321,-0.011356708242056496,-0.012429854380802996,0.05077873836021928,0.004561881318395485,-0.0056373746417591976,-0.00037817838446048136
8.683,-0.8906658029894939,0.20107395526354896,0.12645430665211507,-0.15633311809869505,0.03077493331172688,-0.501569699331302,1.2652144610745757,0.0042136919099560535,-0.005203655910659921,0.0010248052792805053
8.716,-0.8896409977102134,0.19480974568661102,0.12266993510554464,-0.15133712048167008,0.015495927211493274,-0.18811440170984786,-0.4588290120190272,0.004086302542427028,-0.005038396000211396,0.0005160143761427261
8.749,-0.8891249833340708,0.19471765851731973,0.12268998753579279,-0.15120229329257726,0.014374935387822434,-0.0027653804591980147,-0.03366341812825344,0.004086875096683459,-0.005033982358541926,0.0004786853484144871
8.784,-0.8886462979856562,0.22536410398295714,0.14208381318194424,-0.17493189930861522,-0.05460463200568666,0.9203136776467691,-2.0714584802855582,0.004726200617790079,-0.00582944281469548,-0.0018183342457893659
8.816,-0.8904646322314456,0.21771433424666448,0.13695339922162258,-0.16924330940427515,-0.07174774212860568,-0.22972281490368365,-0.51480811179937,0.004553916184276098,-0.0056411602253108786,-0.0023891998128825697
8.85,-0.8928538320443282,0.2178469426840396,0.13663182356853532,-0.169673319131559,-0.0736443349743504,0.0039822353566100486,-0.056954740112453835,0.004543012235268802,-0.005655610333869271,-0.0024523563546458684
8.884,-0.895306188398974,0.2246791413072727,0.14048735013329983,-0.17533973021279872,0.015971653234572548,0.20517112982682026,2.691170817084773,0.004679889746557498,-0.005837481683309398,0.0005318560527112658
8.917,-0.8947743323462627,0.21821045421088026,0.13653316143421543,-0.1702189711979753,0.015745458047603293,-0.19425486775953302,-0.00679264825733497,0.004548145412562788,-0.005667015011347222,0.0005243237529851898
8.95,-0.8942500085932776,0.21837642503562968,0.1367263074748913,-0.1702767742694918,0.015632320760476895,0.004984108851334022,-0.0033975161299218707,0.004554567037742958,-0.005668946628359896,0.0005205562813238807
8.984,-0.8937294523119537,0.22511504148988132,0.14103673551715631,-0.17545774744836629,0.0718398766266026,0.2023608544820312,1.6879145905743453,0.0047036160083013,-0.005837032322423572,0.002392267891665867
9.016,-0.8913371844202879,0.21851730869033764,0.13731024044473109,-0.16998738796239693,0.07201197573216768,-0.19813011410041068,0.005168141308260644,0.004579318765333967,-0.005655007138578997,0.002397998791881184
9.049,-0.8889391856284067,0.21845347276766952,0.13767724311430501,-0.16960806729840266,0.07425948930650417,-0.0019169946747183378,0.06749290013022485,0.004591735632850059,-0.005642188982951644,0.002472840993906589
9.084,-0.8864663446345001,0.22506578610779607,0.14227623581850235,-0.17439059836366788,-0.19015902805545742,0.19856796817196834,-7.940496016875723,0.0047194887934831915,-0.005822080915358769,-0.006332295634246733
9.116,-0.8927986402687468,0.21786298537972623,0.13665125046952797,-0.1696782724560842,-0.055892907496912274,-0.21630032216425932,4.032015632388743,0.004545330864024062,-0.005654433484760997,-0.0018612338196471788
9.149000000000001,-0.894659874088394,0.21768583674933759,0.13622434621473326,-0.1697941430663253,-0.053633688317537974,-0.00531977869034973,0.06784441980103002,0.004531324331665843,-0.005658108626991161,-0.0017860018209740146
9.183,-0.8964458759093679,0.22428966533270817,0.14004424150341557,-0.17519550335779527,0.009300799580576799,0.19831317067178916,1.889924561504948,0.0046644850366136335,-0.005833201291888712,0.00030971662603320745
9.216,-0.8961361592833348,0.2174708980030744,0.13583927566858345,-0.16982721414454804,0.007926713681950815,-0.2047677876766897,-0.04126384079957907,0.00452429930914393,-0.005654565068254908,0.0002639595656089622
9.249,-0.8958721997177258,0.2175142830725405,0.13591120709698365,-0.16982522523465737,0.0058112528034115485,0.001302854938922115,-0.0635273537098879,0.004526495453828427,-0.005654657922138629,0.0001935147183536046
9.284,-0.8956786849993722,0.21352544827884018,0.13345108974079173,-0.1666851034426136,-0.18337332050959101,-0.11978482863964937,-5.681218417807885,0.004427050201107128,-0.00556406515058291,-0.006106331572969382
9.316,-0.9017850165723416,0.20677868743554706,0.12824636010080595,-0.16220449037699936,0.013481406403682351,-0.2026054307295231,5.911553360758959,0.00427191645645756,-0.005400371342922713,0.0004489308332426223
9.349,-0.901336085739099,0.20650961134328427,0.12815218715296095,-0.1619359024585555,0.010351446636295052,-0.008080363131014645,-0.0939927858074264,0.004268497364503196,-0.005391650601429654,0.00034470317298862524
9.383,-0.9009913825661103,0.224616334390243,0.13944925210946116,-0.17608635313681012,-0.03041892272139781,0.5437454368456076,-1.2243354161469326,0.004640798528580661,-0.005865940195751069,-0.0010129501266225472
9.417,-0.902004332692733,0.2183254138769167,0.1353701998971785,-0.17129184255044053,-0.030857282457567595,-0.1889165319317208,-0.013163956041134657,0.0045050023530616625,-0.005706249621754898,-0.001027547505837001
9.449,-0.90303188019857,0.2184626576952745,0.13527910374330177,-0.1715386163453923,-0.030598435298889323,0.00412143598672094,0.00777318794829644,0.004501989413916466,-0.005714446287164128,-0.0010189278954530145
9.483,-0.9040508080940229,0.22508334706568625,0.13919869271355226,-0.176879159521777,0.04177805373475921,0.19881950061296522,2.1734681391486044,0.004639521555089591,-0.005886763530108842,0.0013912091893674818
9.516,-0.9026595989046554,0.2184010112296292,0.13530476349356937,-0.17143985149921787,0.042942148352516724,-0.20067074582753874,0.03495779632905454,0.0045098349627923145,-0.005705639806123163,0.0014299735401388071
9.55,-0.9012296253645167,0.21826315510540348,0.13546421963075103,-0.17113810235127963,0.04428942153576741,-0.004139823550322299,0.040458654151672324,0.004515265217476836,-0.005695486351491759,0.001474837737141055
9.583,-0.8997547876273756,0.22467691477891363,0.1397045619351644,-0.1759612213218442,0.06515882218113207,0.19260539560090556,0.6267087280890288,0.004658624025246708,-0.0058543703797784815,0.0021697887786316984
9.617,-0.8975849988487439,0.21772014101424966,0.13574848378482815,-0.17021870917553394,0.06456803404108134,-0.20891212506498408,-0.017741385587109,0.004526620023131318,-0.0056633347959739195,0.002150115533568009
9.65,-0.8954348833151758,0.21762109084694706,0.13605223548140905,-0.1698491342395551,0.06308161098182055,-0.0029744794985767454,-0.04463732910693067,0.004536581668996552,-0.005651129225073423,0.0021006176456946244
9.684,-0.8933342656694813,0.22410494746745308,0.14047291838079537,-0.17461496694433815,-0.018805126852686628,0.19471040902420472,-2.4590611962314464,0.00467603537487216,-0.005816055733454465,-0.0006262107241944648
9.717,-0.8939604763936757,0.217511164844559,0.13623366434875314,-0.16956265959859262,-0.01968593165240989,-0.19801149017699884,-0.026450594586284147,0.004534834939865562,-0.005647838829535366,-0.0006555415240252495
9.749,-0.894616017917701,0.21762614571923733,0.13619443686228763,-0.16974161148161362,-0.02057657758949963,0.0034528791194689645,-0.02674612423692907,0.004533442972581565,-0.005653864741803451,-0.0006852000337303377
9.784,-0.8953012179514314,0.20169986897441636,0.12611965549662307,-0.15740606608930244,0.01034491626068341,-0.47826656891354263,0.9285733888943853,0.004200784690206328,-0.005240820433989976,0.00034448571148075756
9.817,-0.8949567322399505,0.20641822073779997,0.12912544924211308,-0.1610437835204501,-0.026996981737492452,0.14169224514665513,-1.1213783182635393,0.00429756603660828,-0.005364610183444536,-0.0008989994918584987
9.849,-0.8958557317318091,0.20662900772670412,0.1291123292501549,-0.16132437283225973,-0.028112568686873424,0.006329939606731038,-0.03350110959102016,0.004297025283076527,-0.005374033418936934,-0.0009361485372728851
9.883,-0.896791880269082,0.22466935597037527,0.14022058714776475,-0.1755406119736379,-0.08214565104957504,0.5417521995096442,-1.6226150859670152,0.004661453463261705,-0.005851794823085883,-0.002735450179950849
9.917,-0.8995273304490328,0.21843177813226247,0.13586023091307214,-0.17103929184333247,-0.08118644305794905,-0.18731464979317702,0.02880504479357337,0.004516547098531988,-0.005701633060463003,-0.0027035085538297033
9.949,-0.9022308390028625,0.21851392844721046,0.1354482505617228,-0.1714704299440617,-0.08033561148301281,0.0024669764248644865,0.025550497745832845,0.004502890031640095,-0.005715907899822814,-0.002675175862384327
9.984,-0.9049060148652468,0.22509403754889612,0.13905397772105904,-0.1770065451332664,0.006960957596137819,0.1976008739244943,2.621518590965484,0.004631290116300497,-0.005893695143711257,0.0002317998879513894
10.017,-0.9046742149772954,0.21834865332627898,0.13492674953318434,-0.17167092552266647,0.010148215945156264,-0.20256409076928347,0.09571346393448783,0.004494132844203254,-0.005715798995832312,0.00033793559097370366
10.049,-0.9043362793863217,0.2181673742988241,0.13487268750527315,-0.17148283113346405,0.011504741355883606,-0.005443814638284627,0.04073649882064089,0.004492460353131975,-0.005709434316795294,0.0003831078871509241
10.083,-0.9039531714991708,0.1899416007754295,0.1174804933682867,-0.1492519526943503,-0.0019030734031727254,-0.8476208265283668,-0.40263707985154146,0.00391203532548192,-0.004970141267660281,-6.337234432565176e-05
10.117,-0.9040165438434964,0.2062410385851662,0.1275515637356923,-0.16206777775137057,0.005688310482451249,0.48947260689900063,0.227969486054774,0.004248078489975654,-0.005396375728398783,0.0001894207390656266
10.149000000000001,-0.9038271231044308,0.20611143259458967,0.1275020852031396,-0.1619417824869339,0.0026822977168832756,-0.0038920717890853543,-0.09027065362065986,0.0042461604998818726,-0.005392392806630416,8.932051397221309e-05
10.183,-0.9037378025904585,0.22436305964147107,0.13880842426903905,-0.17626969076851745,0.05985000511911677,0.548096908314757,1.7167479700370418,0.004628275734584228,-0.005865084637873799,0.0019930051704665887
10.216,-0.901744797419992,0.217699707664962,0.13502656216757059,-0.17076589304254264,0.056730696211979285,-0.2001006599552276,-0.0936729401542788,0.004501858740043039,-0.005682170048565411,0.0018891321838589105
10.249,-0.8998556652361331,0.21766334531392637,0.1353263130666229,-0.17048202510834953,0.052906080893888895,-0.0010919624935624395,-0.11485331285556728,0.004511470175486743,-0.0056729950493647555,0.0017617724937665003
10.283,-0.8980938927423666,0.22443674862086885,0.13984697420098238,-0.17554110042476334,0.014439192143958626,0.20340550471298743,-1.1551618243222301,0.004658418028112697,-0.005844312254415615,0.0004808250983938223
10.317,-0.8976130676439728,0.21801773566983979,0.1359292496012884,-0.1704551910897253,0.013088995701679703,-0.19276315168255442,-0.04054643970807577,0.004527786368752625,-0.0056750870693543,0.00043586355686593415
10.349,-0.8971772040871069,0.2181934321003645,0.1361131346050873,-0.170533247197471,0.01285424410590774,0.005276169084825891,-0.007049597470629521,0.0045338881632959035,-0.005677702612213897,0.00042804632872672777
10.383,-0.8967491577583802,0.22497520672091828,0.1404189842652842,-0.1757735830465596,-0.013901166283326294,0.2036568955121259,-0.8034657774544754,0.0046747060615650185,-0.005854255487139899,-0.00046290883723476567
10.416,-0.8972120665956149,0.21849625241403214,0.13629608601692336,-0.17077467392867093,-0.013790666469518723,-0.19456319239898306,0.0033183127269541045,0.0045374594539829265,-0.005687754246404399,-0.0004592291934349735
10.45,-0.8976712957890498,0.21852290048782994,0.1362342602051516,-0.17085808258308727,-0.012213989921931371,0.0008002424563901332,0.04734764407169222,0.004535549461332505,-0.005690412267064226,-0.0004067258644003147
10.484,-0.8980780216534502,0.20062091443723862,0.12500977201782337,-0.15691178480179763,0.0067609383955279986,-0.5375971786964359,0.569817667190972,0.004163510679698925,-0.005224616394645564,0.00022513924857108238
10.517,-0.8978528824048791,0.2064398646250849,0.12867199181024702,-0.16143399960976965,-0.009176333950766068,0.17474324888427276,-0.4785967671559779,0.004284055853160897,-0.0053763271291576,-0.0003055719205605101
10.55,-0.8981584543254396,0.2065317868954227,0.1286799284098149,-0.16154521046029563,-0.0009835011795317555,0.002760428538672732,0.24603101415118056,0.004285053515092923,-0.005379446029668057,-3.275058927840746e-05
10.583,-0.898191204914718,0.2246245389947468,0.13994688950630615,-0.1757015982742111,-0.04880879518355542,0.5433258888685913,-1.4361950151358458,0.004655583390745076,-0.005854561325729326,-0.0016253328796123957
10.617,-0.8998165377943305,0.21766517117987866,0.13533411872740206,-0.17047816004709612,-0.04393507186909721,-0.20899002447051468,0.14635805749123762,0.0045025773490943565,-0.0056801336965081745,-0.0014630378932409373
10.65,-0.9012795756875713,0.217627009587,0.13506087461153876,-0.17064605313615194,-0.044222679722174106,-0.0011459937801402882,-0.008636872464771654,0.004493447104925998,-0.005685739558512734,-0.0014726152347483978
10.683,-0.9027521909223197,0.2242899431389124,0.13893679813793908,-0.17607539497736227,0.012481379619586138,0.20008809465202443,1.702824604857665,0.004627922692800664,-0.005862262988702671,0.00041562994133221843
10.716,-0.9023365609809877,0.2176190594796187,0.13487550152886332,-0.17078247608033856,0.010299972780642725,-0.20032683661542616,-0.06550771288118358,0.0044924351038008615,-0.005686202598077729,0.0003429890935954028
10.75,-0.9019935718873922,0.2177703405302306,0.13502787149997886,-0.1708548949630586,0.009848588202571224,0.004542974492849216,-0.013555092434579615,0.004497466730801511,-0.0056886469858536595,0.0003279579871456218
10.783,-0.9016656139002466,0.22458081786746462,0.13930846643081787,-0.17615247637973475,0.09321574599038292,0.20451883895597678,2.5035182518862364,0.004648177460231402,-0.005858581773265307,0.0031040843414797516
10.817,-0.8985615295587667,0.21813203469684841,0.13583869636128584,-0.17067346932623556,0.09077610316932004,-0.19365715227075678,-0.07326254717906534,0.0045321172613776274,-0.005676496829555634,0.0030228442355383577
10.849,-0.8955386853232284,0.21830660895659643,0.1364631203671559,-0.17039833418724323,0.09074254456312383,0.005242470262703049,-0.0010077659518380575,0.004552893365253736,-0.005667305575218529,0.003021726733952024
10.884,-0.8925169585892764,0.20059672002153192,0.12586524997882786,-0.15619533581757183,-0.004182187404929135,-0.5318284965484836,-2.850592551593182,0.0041910473089002125,-0.0052015186221095605,-0.0001392668405841402
10.916,-0.8926562254298606,0.2067554773646173,0.12970716605387644,-0.16100893917588208,0.09712547693391597,0.18494766796052192,3.042272202367721,0.004328011068219507,-0.005354523061856075,0.0032342783818994024
10.95,-0.8894219470479611,0.20706684181497248,0.1304233508315909,-0.1608304278956149,0.09883845524864157,0.009350283794449797,0.0514407902319999,0.004352002732477832,-0.005348415431801018,0.0032913205597797646
10.984,-0.8861306264881813,0.2248387701213971,0.14219120578005323,-0.1741669703144572,0.037518549693845646,0.5336915407334722,-1.8414386052491267,0.004738696682593097,-0.005796712667047352,0.0012493677048050602
11.016,-0.8848812587833763,0.2182321826644267,0.1382242037728557,-0.16887674511856202,0.037435242446982986,-0.1983960197288409,-0.0025017191250048046,0.004606474435292253,-0.005620639583893916,0.0012465935734845336
11.049,-0.8836346652098918,0.21808983309355956,0.1383443181648135,-0.16859426126143653,0.03512036915512698,-0.004274761887902257,-0.06951571447015034,0.004610251966165067,-0.005611408045581324,0.0011695082928657285
11.084,-0.8824651569170261,0.2244164349879642,0.14256036480150117,-0.17331843145023576,0.02069180419800659,0.18998804487701645,-0.43329023895256413,0.004749355407521314,-0.005769779514949186,0.0006890370797936196
11.116,-0.8817761198372324,0.21750652767931006,0.1382865645095961,-0.16788661548570152,0.020165171365704823,-0.2075047239836081,-0.015814799768821868,0.00460692318964751,-0.005588992136445703,0.0006715002064779707
11.149000000000001,-0.8811046196307545,0.21741851543339213,0.13834326708279904,-0.16772582182275186,0.017663144417264527,-0.0026430103879256255,-0.07513594439760649,0.004608576896728383,-0.005583829055656653,0.0005881827090949088
11.184,-0.8805164369216596,0.22417715438584784,0.1427454803472528,-0.17285579073021629,0.06853197494866364,0.20296213070437563,1.5275925084504238,0.004760095293077871,-0.005750580431007512,0.0022821147657904996
11.217,-0.878234322155869,0.21770319246591927,0.13900588897141497,-0.16754713617701658,0.06671630050475992,-0.19441327086872606,-0.054524758075186856,0.00463519355581718,-0.005574086992463097,0.0022216528068085056
11.25,-0.8760126693490605,0.21788033269106652,0.139491185766351,-0.16737397786713196,0.0664674348289171,0.0053195262806983255,-0.007473443719003815,0.004651324347257225,-0.005568321855722411,0.0022133655798029393
11.284,-0.8737993037692576,0.2246595447680598,0.1442130017220686,-0.17226294200930886,0.025555755148901797,0.20357994225205042,-1.2285789693698288,0.004804839800485789,-0.005734222577139449,0.0008510066464584299
11.317,-0.8729482971227992,0.21824697080046007,0.14023901694819849,-0.16722666769681135,0.023920390127814037,-0.1925697888168086,-0.049110060693326116,0.004672280091512436,-0.005566700675858689,0.0007965489912562075
11.35,-0.872151748131543,0.21841306172145922,0.14047900310449085,-0.1672420856641964,0.023836715616262247,0.00498771534531969,-0.002512748094648329,0.004680264088364994,-0.005567217284233756,0.0007937626300215329
11.384,-0.8713579855015214,0.18798868237192595,0.12102485885710482,-0.14384967236163843,-0.010468707095503484,-0.9136450255115094,-1.030192874227199,0.0040293818174771765,-0.004790821565494477,-0.0003486079462802661
11.416,-0.8717065934478017,0.2066182122548704,0.13296320197923303,-0.15815142286691056,0.01567126292484094,0.5594453418301635,0.7849840846950278,0.004429146446010889,-0.005265204519835544,0.0005218530553972034
11.45,-0.8711847403924045,0.20699985274558577,0.13329146183360382,-0.15837400430296358,0.01648907924543095,0.011460675396858067,0.024559048666366615,0.004440151359834842,-0.005272552960033495,0.0005490863388728507
11.483,-0.8706356540535316,0.22462021784766653,0.1447319188000102,-0.17177576647012938,0.0737983576371224,0.5291400931555783,1.7209993511018453,0.004826702823528376,-0.00571411553983627,0.0024574853093161765
11.516,-0.8681781687442154,0.21804037074477992,0.14090160242586405,-0.16639814214210694,0.0745842299338659,-0.19759300609269115,0.023599768670975907,0.004699002455350559,-0.0055351384156182015,0.002483654856797735
11.549,-0.8656945138874178,0.21779978103540779,0.14115851405072594,-0.16586445830877267,0.07465165964176927,-0.007224916197361256,0.002024916153254314,0.004707541395969,-0.00551735069187227,0.002485900266070917
11.584,-0.8632086136213468,0.2240772498040118,0.14565077029842302,-0.17028349007230717,0.040973409626231035,0.1885125756337544,-1.0113588593254725,0.00485414289667584,-0.0056670394145527285,0.0013644145405534937
11.617,-0.8618441990807932,0.2173873147303781,0.14152756497530106,-0.16500664519299335,0.0374970442101255,-0.2008989511601717,-0.10439535784100702,0.004716399261123168,-0.005491689828447682,0.0012486515721971793
11.649000000000001,-0.8605955475085961,0.21747949956410612,0.1417935936216908,-0.16489969538631913,0.0367512966475319,0.002768313325165952,-0.022394821699507555,0.004725187590320987,-0.005488181391129651,0.0012238181783628124
11.683,-0.8593717293302333,0.21264026450481438,0.13883569287894976,-0.16106064842629736,0.019398677222669636,-0.14532237415290494,-0.5210996824282962,0.004625060199952251,-0.005361740006061968,0.0006459759515148989
11.716,-0.8587257533787184,0.2063176513661878,0.13480849324213076,-0.15618464526017337,0.018193830985115737,-0.18986826242121882,-0.036181568695312284,0.004490794704966518,-0.005199505020493497,0.000605854571804354
11.749,-0.8581198988069142,0.20649063128423065,0.13501619852186234,-0.15623382138597633,0.01792592788996428,0.005194592133419031,-0.008045137992536217,0.0044976886186471965,-0.005201160426296764,0.0005969333987358105
11.784,-0.8575229654081782,0.2246428504106771,0.14698666255412765,-0.16988034398314847,0.07856175155281049,0.5451116854788727,1.8208956054908771,0.004902154981149418,-0.005650515418696226,0.0026161063267085894
11.817,-0.8549068590814698,0.21832359572302787,0.1432833280988406,-0.1647272908122759,0.07498284539680182,-0.18976740803751468,-0.10747465933959972,0.0047782800614763945,-0.005479367431379944,0.0024969287517135007
11.85,-0.8524099303297562,0.21848246513082978,0.14379875650834087,-0.16448861722410807,0.07494921786347535,0.004770853087144422,-0.0010098358356298682,0.004795430676659278,-0.005471400548201279,0.002495808954853729
11.883,-0.8499141213749024,0.22513837952682383,0.148602061118572,-0.1691292918665373,0.03501024646196443,0.19987730918901067,-1.1993685105558833,0.0049518351550414666,-0.005629027550840646,0.0011658412071834155
11.917,-0.848748280167719,0.21849167472703407,0.14440617776557768,-0.16396788633192916,0.0342242220513919,-0.19960074473843137,-0.023604336653829536,0.004811937479695513,-0.005457299821278284,0.0011396665943113505
11.949,-0.8476086135734078,0.2183451363410158,0.14449597680814014,-0.16369334516112194,0.03558039078085214,-0.004400552132680916,0.04072578767147868,0.004815045405874477,-0.005448047095635561,0.0011848270130023766
11.983,-0.8464237865604053,0.22464126489571246,0.14886205181426168,-0.1682372949841792,0.119301342970819,0.1890729295704703,2.5141427084074133,0.004968325448494475,-0.005592348218557205,0.003972734720928273
12.016,-0.842451051839477,0.21786005841278594,0.145015424605295,-0.1625839219546893,0.11803085795914536,-0.20363983432211757,-0.03815270305326234,0.004839741402292646,-0.0054044506728766475,0.003930427570039541
12.049,-0.8385206242694374,0.21748630782603393,0.1454034510967685,-0.16173475353476147,0.11775110260864857,-0.011223741343904328,-0.008401061576480207,0.004852581527269035,-0.005376170424527936,0.003921111716867998
12.083,-0.8345995125525695,0.2125763034183419,0.142739568914934,-0.15752491942859634,0.1058894365669539,-0.147447579810571,-0.3562061874382783,0.004762563396986168,-0.005237100211982534,0.0035261182376795652
12.116,-0.8310733943148899,0.20592992764751558,0.1388139210988311,-0.15211124353603353,0.1017521554952153,-0.19959086398877865,-0.1242426748269852,0.004631170226912666,-0.005057377322369774,0.0033883467779906697
12.149000000000001,-0.8276850475368992,0.20606515320204707,0.13942002010808896,-0.15173959719612806,0.10145594536639782,0.004060827463408194,-0.008895199063587857,0.004651307219472797,-0.005044989908409946,0.0033784829807010476
12.183,-0.8243065645561982,0.21247791670487604,0.14428656381182078,-0.15597516658308658,0.05947739946841477,0.19257548056543425,-1.2606169939334249,0.004809979469176548,-0.005189122119132551,0.0019805974022982123
12.216,-0.8223259671538998,0.20640799489784506,0.14046450906518654,-0.1512414693489354,0.05672576073769977,-0.18227993414507432,-0.08263179371516526,0.00468231564065049,-0.005031833111460561,0.0018889678325654025
12.249,-0.8204369993213345,0.20658236859602977,0.14086885427257453,-0.15110341131383523,0.056407594722051944,0.005236447392934232,-0.009554535004439188,0.004695749276463882,-0.005027247698245643,0.00187837290424433
12.283,-0.8185586264170902,0.21299903062422978,0.14553677473929996,-0.15552374174171557,0.016084520810350594,0.19269255339939984,-1.210903120471512,0.00484785756244429,-0.005177552350476301,0.0005356145429846748
12.316,-0.8180230118741055,0.20692050425452124,0.1414643768414665,-0.1510096856688368,0.014708830788648,-0.18253832942067694,-0.04131201266374154,0.0047120885264495226,-0.005027381072090338,0.0004898040652619785
12.349,-0.8175332078088435,0.20705426348239314,0.14162981937737665,-0.15103794983171598,0.014706629384848008,0.0040167936297867595,-6.61082222219818e-05,0.004717597826353549,-0.0050283209899768,0.0004897307585154387
12.383,-0.8170434770503281,0.2133723917925099,0.1460277701637548,-0.155575280556578,0.11463294289261573,0.18973358288638953,3.00079019542846,0.004872697046649635,-0.005171272519134321,0.0038172769983241045
12.417,-0.8132262000520041,0.2071332913171797,0.14233332997176207,-0.1504839644315537,0.11278687315132986,-0.18736037463454103,-0.05543752976834449,0.004749192092415862,-0.00500211528194717,0.0037558028759392846
12.449,-0.8094703971760647,0.20690062395820402,0.14273699986515664,-0.14977989539250058,0.1136554725394608,-0.006987007777047281,0.026084065709637887,0.004762661761989967,-0.004978575422730695,0.003784727235564045
12.483,-0.8056856699405007,0.2008739281255293,0.13912866136454832,-0.1448915131658481,0.022587470633583493,-0.18098185683707907,-2.7347748320083274,0.004634888185157651,-0.004823058405243265,0.0007521627720983304
12.517,-0.8049335071684024,0.19504517129840837,0.13519734779364878,-0.14058554689721356,0.11987166287705917,-0.1750377425561837,2.9214472145187886,0.004511490192439625,-0.00467241691657285,0.00399172637380607
12.55,-0.8009417807945963,0.1946203087586965,0.13546173081406632,-0.13973970110955508,0.12064496454912534,-0.012758634826182712,0.023222272434419537,0.004520297140507242,-0.004644174352099079,0.004017477319485874
12.583,-0.7969243034751105,0.18891072655248645,0.13203155435633365,-0.13511081104352388,0.04388268307875831,-0.17145892511141259,-2.305173617728739,0.0044000200801263675,-0.004495894225214266,0.001461293346522652
12.617,-0.7954630101285878,0.18295038631021965,0.12805688486980102,-0.13066092793372136,0.0408392425160485,-0.1789891964644684,-0.0913946114927871,0.00426733234027907,-0.004348028635522641,0.0013599467757844151
12.649000000000001,-0.7941030633528035,0.18305941561987954,0.12831087964928217,-0.13056442015617892,0.04093558352232425,0.003274153443239986,0.0028931233115841,0.004275795086599086,-0.004344802158834965,0.0013631549312933978
12.683,-0.79273990842151,0.23479925863863282,0.16480474808207385,-0.16724259884029477,0.022837431151549174,1.5537490396022007,-0.5434880591824347,0.005490218700585564,-0.0055669891833002375,0.0007604864573465876
12.716,-0.7919794219641634,0.21785921584321083,0.15303255892447842,-0.15506022648263082,0.028482429161420957,-0.5087099938565163,0.16951945975590937,0.0050985280795041695,-0.0051609933199728,0.0009484648910753179
12.75,-0.791030957073088,0.2180072206001932,0.15328362325950598,-0.1550202537549824,0.027542300974854165,0.004444587296767952,-0.028232077674678425,0.005106807111523646,-0.0051597380588879055,0.0009171586224626438
12.784,-0.7901137984506256,0.2231133484556387,0.1570192483167404,-0.15850716676899207,0.007762996642582023,0.15333717283620144,-0.5939731030712354,0.005229521245612051,-0.005277515557851214,0.0002585077881979814
12.816,-0.7898552906624274,0.2069319255316284,0.14566933643512803,-0.14697369229483517,0.01223877663870655,-0.485928616336646,0.1344078076914272,0.004851877043643828,-0.004893145163043234,0.0004075512620689281
12.849,-0.7894477394003585,0.20703865944141026,0.1458043896722497,-0.146990089650966,0.011907565209444502,0.0032052225159717325,-0.00994628916702845,0.004856347452346809,-0.004893716977997851,0.00039652192147450195
12.883,-0.789051217478884,0.2249374076935211,0.15847267067545517,-0.15963473941742776,0.17928873198935566,0.5374999475108363,5.026461464862196,0.00529307565828434,-0.005299953813051571,0.005970314775245544
12.916,-0.7830809027036385,0.21858100100053696,0.15491784881839968,-0.15420153733305061,0.17606878434935141,-0.19088308387339792,-0.09669512432445179,0.005173883152485161,-0.005119662498361545,0.005863090518833403
12.95,-0.777217812184805,0.2184331969518715,0.15571391380914418,-0.15318693996830635,0.17656449000719815,-0.004438560019983841,0.014886055791193226,0.005200334223642895,-0.005085755434943605,0.005879597517239699
12.983,-0.7713382146675654,0.22466232638586853,0.1610780462485966,-0.1566110593599491,0.055403618065030504,0.18706094396387485,-3.638464622887917,0.00536880355730244,-0.005210097491852535,0.001844940481565516
13.016,-0.7694932741859999,0.21785844230070656,0.15647972960851272,-0.15157966586365415,0.0535384537546876,-0.20432084339825737,-0.05601094025053773,0.005215365478479097,-0.005042858297648421,0.0017828305100310972
13.05,-0.7677104436759687,0.21743084854731384,0.15644206680519257,-0.15100348881308867,0.05265667747512282,-0.012840653255036432,-0.02647976815509834,0.005214020114444992,-0.005023749325952329,0.0017534673599215902
13.083,-0.7659569763160472,0.2125020620257601,0.15315433435508066,-0.14731217272666963,0.0014432767017469716,-0.14801160725386592,-1.5379399631644397,0.0051002483904811526,-0.004905277994254789,4.806111416817416e-05
13.116,-0.765908915201879,0.20596288686487343,0.148448286652283,-0.14277190534455392,0.0013523434142284952,-0.19637162645305323,-0.0027307293549091987,0.00494352336088397,-0.004754101254024818,4.50330356938089e-05
13.149000000000001,-0.7658638821661852,0.20609298849993352,0.14854849110730806,-0.14285540136297173,0.0014021210312837912,0.003906956007810253,0.0014948233349938722,0.004946864225973966,-0.004756877434305184,4.6690630341750254e-05
13.183,-0.7658171915358434,0.22439860459568917,0.16175014524380188,-0.1555365688772304,0.2195369174429956,0.5497182010737433,6.550594486838192,0.005405259766558619,-0.005159532815335369,0.007310579350851754
13.217,-0.7585066121849917,0.21790908000047202,0.1581723627611286,-0.14988619284381755,0.21187828677115805,-0.19488061847498947,-0.2299889090641909,0.005284796191627527,-0.004972489383102957,0.007055546949479564
13.249,-0.7514510652355121,0.218099596794183,0.15936515653522187,-0.14889654463515742,0.211656701668235,0.005721225036365991,-0.006654207294986646,0.005324380820994826,-0.00493941317754573,0.007048168165552226
13.283,-0.7444028970699599,0.21114402440338997,0.15529486542861887,-0.14305699498020535,-0.00020313417521840456,-0.20887604777156243,-6.362157232536138,0.005171391452197001,-0.004763719301957335,-6.7643680347728725e-06
13.317,-0.7444096614379947,0.20645721565084177,0.1518468061054901,-0.13988255563100022,0.20323159082779751,-0.14074500758403016,6.109150900991469,0.005072308316233747,-0.004640849120731601,0.006767611974565658
13.349,-0.737642049463429,0.20708582812114087,0.15325520112377264,-0.13927448990080954,0.20409026711539696,0.018877251360333507,0.025786074702686092,0.005119204590995775,-0.004620367854385583,0.006796205894942719
13.384,-0.7308458435684863,0.20153643337030003,0.15006605744750093,-0.13452550827922832,0.10519101886659994,-0.16664849101624163,-2.969947394858769,0.005005118469421562,-0.004470844995083874,0.0035028609282577784
13.416,-0.7273429826402285,0.19559209653863327,0.14609627529954483,-0.13004670919318811,0.10412633658189067,-0.1785086135635663,-0.03197244098226028,0.004872584445919993,-0.004322021701723995,0.0034674070081769596
13.45,-0.7238755756320515,0.19534502281960536,0.14636120236804498,-0.12937571789857757,0.1040952569542104,-0.007419631202039251,-0.0009333221525607258,0.004881365122661759,-0.004299664805566326,0.003466372056575207
13.483,-0.7204092035754763,0.20055762760641088,0.15072624586142466,-0.13230631428481843,0.20015983963704362,0.15653467828244802,2.884822302787784,0.0050339113883662145,-0.004388946898961135,0.006665322659913553
13.516,-0.7137438809155627,0.18359778855236236,0.13878453876559727,-0.12019567280454979,0.09713012725933803,-0.5093044760975531,-3.0939853566878552,0.004628064268450865,-0.0039949489024727015,0.003234433237735957
13.55,-0.7105094476778269,0.1831825535731929,0.13885781656857452,-0.11947533097423835,0.09569290280483096,-0.012469518893977604,-0.04315989352874089,0.0046303702101358,-0.003971068426224331,0.0031865736634008714
13.583,-0.707322874014426,0.21243615131601834,0.16147361030399066,-0.138041267602689,0.4196812203064178,0.8784864187034663,9.729378903951556,0.005409101251439176,-0.004558951331503228,0.013975384636203713
13.616,-0.6933474893782222,0.20612000918388565,0.1585291450199788,-0.13173446157023466,0.4081880514763587,-0.18967393790188258,-0.3451402051068791,0.005308752236884709,-0.0043506463950450346,0.013592662114162747
13.65,-0.6797548272640594,0.20605350120671995,0.16025334213225093,-0.12952571827630013,0.4062547545967917,-0.001997236551522609,-0.05805696335036046,0.0053655277110846045,-0.004276879266260057,0.013528283328073166
13.684,-0.6662265439359865,0.22440604919851886,0.17641891226105877,-0.13868829191216148,0.31862775225978424,0.5511275673212888,-2.6314415116218464,0.005899225471223973,-0.004586957668868137,0.010610304150250816
13.717,-0.6556162397857355,0.21785192275358103,0.17268520414082186,-0.13281295312685026,0.31268501381215436,-0.196820613962097,-0.17846061404293934,0.005773420164242635,-0.0043925465281784365,0.01041241095994474
13.749,-0.6452038288257907,0.2180228331585274,0.17419527468561485,-0.13111049559693636,0.31254944607088925,0.005132444592984333,-0.004071103341294533,0.005823398635943896,-0.004335606155765032,0.010407896554160613
13.783,-0.6347959322716301,0.2247969939061745,0.1810049047914163,-0.1333075875961416,0.2503047099365315,0.2034282506800926,-1.869211295326059,0.006045975925663651,-0.004413859137807374,0.0083351468408865
13.817,-0.6264607854307436,0.2183434059342665,0.1768816422913319,-0.1280106539913658,0.2416735529869503,-0.1938014405978381,-0.25919390238982476,0.005907326554524931,-0.0042388978906747875,0.008047729314465447
13.849,-0.6184130561162782,0.21840275507733328,0.1779544559933606,-0.12661743567722697,0.23992289563714955,0.0017822565485523941,-0.05257229278680962,0.005942741345522468,-0.00419253319726203,0.00798943242471708
13.883,-0.6104236236915611,0.17639909248536545,0.14454234496121668,-0.10111454070890671,0.1543490647548082,-1.2613712490080429,-2.569784711181422,0.004821954416986457,-0.003354640126643259,0.005139823856335113
13.916,-0.6052837998352261,0.19525510203822302,0.16056620751185025,-0.11109927037212408,0.18863107097662563,0.566246533118846,1.0294896763308536,0.005358507341778912,-0.003682688924735098,0.006281414663521634
13.95,-0.5990023851717043,0.19547221718705396,0.16144021093104904,-0.11021091591381126,0.18556711859242925,0.0065199744393674925,-0.09201058210799933,0.005387331924479665,-0.0036532900007078027,0.006179385049127894
13.983,-0.5928230001225764,0.18904307001232948,0.1567860390309445,-0.10561922308308108,0.18474412430418302,-0.19306748272445887,-0.024714543190577355,0.0052318258318059955,-0.0035009410837822507,0.006151979339329295
14.016,-0.5866710207832472,0.183555539792622,0.15286288495557188,-0.10161483450569823,0.1708984816775801,-0.16479069728851245,-0.41578506386194974,0.005099997583957616,-0.003369176628324325,0.005690919439863417
14.05,-0.5809801013433836,0.1834890051902838,0.1533830703800295,-0.10070674628104573,0.172755515109578,-0.0019980361062526745,0.05576676972966719,0.005117336141284402,-0.0033387295210093224,0.005752758653148948
14.084,-0.5752273426902348,0.17728993863430134,0.14875842838179598,-0.09645025830101446,0.15255822185433654,-0.18615815483430803,-0.6065253229802243,0.004961852062430885,-0.0031991048335935517,0.005080188787749408
14.117,-0.5701471539024854,0.1720101924699089,0.1448018880595612,-0.092843521733729,0.1485916744163153,-0.158550935867641,-0.11911553867931665,0.004829589421831978,-0.0030796572782494265,0.0049481027580633
14.149000000000001,-0.5651990511444221,0.1718306330690864,0.14510787814653575,-0.09202972433259346,0.15201764727094585,-0.005392174198873337,0.10288206770662342,0.00483988518642422,-0.0030522563188247888,0.005062187654122498
14.184,-0.5601368634902997,0.16548343454649755,0.14019465374926013,-0.08792170476867474,0.14263625068918392,-0.19060656223990566,-0.28172362107393184,0.004675471811766396,-0.0029166077293087075,0.004749787147949825
14.216,-0.5553870763423499,0.1603186022163034,0.13622214065042249,-0.08453154803507286,0.14177033643902678,-0.15510006997580053,-0.02600343093564986,0.004542877048143076,-0.0028040980888304735,0.004720952203419592
14.249,-0.5506661241389302,0.16041293992477232,0.13670008289685312,-0.0839368728944681,0.14203326998644997,0.002832964218285955,0.007895902325020512,0.004558757526664415,-0.002784237650121613,0.0047297078905487846
14.283,-0.5459364162483814,0.1768778078244012,0.1511671080635742,-0.09183825096582296,0.18799217810821406,0.4944404774663331,1.3801473910439666,0.005043460760513006,-0.0030423437423905478,0.006260139531003529
14.316,-0.539676276717378,0.1492426372001157,0.1280315384632413,-0.07668956850302998,0.13236106454143554,-0.8298850037322972,-1.6706040110143698,0.004269111721268951,-0.002544279185327311,0.004407623449229804
14.349,-0.5352686532681481,0.14928467039502066,0.12840446654800125,-0.07614595055203648,0.1422386359439789,0.0012622581052537587,0.29662376584214295,0.004281904814830004,-0.0025254446769008175,0.004736546576934498
14.383,-0.5305321066912136,0.1419986047492715,0.12247918554375231,-0.07185021126815792,0.15668702199525064,-0.2188007701426173,0.43388546700515745,0.004084824571436797,-0.0023818849799843262,0.005217677832441847
14.417,-0.5253144288587718,0.13784552600176703,0.11925930411840073,-0.06912747225162104,0.16236837569488843,-0.124717079504639,0.1706112222113451,0.0039775812032901035,-0.002291123464790654,0.0054068669106397856
14.449,-0.5199075619481319,0.13783026032581117,0.11961807357062372,-0.06847406178060218,0.16087385079075095,-0.0004584287073832176,-0.0448806277518764,0.0039894125582126475,-0.0022694318065127886,0.005357099231332007
14.483,-0.5145504627167999,0.13024967251488567,0.11338416955861717,-0.06410153885623741,0.08089760340723728,-0.22764527960737216,-2.401689110616026,0.0037786030223978567,-0.0021294227806624433,0.002693890193461002
14.517,-0.5118565725233389,0.1263869501984977,0.11018877748779944,-0.06190391341604954,0.07798476393622249,-0.11599766715879832,-0.08747265678723114,0.0036719970088906822,-0.0020565653791249075,0.002596892639076209
14.549,-0.5092596798842628,0.1264183699402501,0.11037659633089,-0.06163287467543348,0.07685438322622659,0.000943535788360788,-0.03394536666654341,0.003678200975017648,-0.0020476008059673507,0.0025592509614333456
14.583,-0.5067004289228294,0.13006473033318303,0.11372216582217777,-0.0631197518797145,0.1434684477894921,0.10950031210008779,2.0004223592572226,0.003791993489510491,-0.002092763205563899,0.0047774993113900875
14.616,-0.5019229296114394,0.11510451275680585,0.10090741146820728,-0.05537818313891844,0.06400950618037139,-0.44925578307438974,-2.3861544026762975,0.003362213824115019,-0.0018404484305344691,0.0021315165558063675
14.649000000000001,-0.49979141305563296,0.11476140019485345,0.1007240777571161,-0.05499853756839121,0.06132769943346351,-0.010303680539110927,-0.0805347371443809,0.0033560135408997613,-0.0018279627460044238,0.002042212391134335
14.684,-0.49774920066449857,0.11831787253437756,0.1039611142865783,-0.05649075745070356,0.09626591797019812,0.10680097115688011,1.0491957518538924,0.0034649491820093817,-0.0018755257655553518,0.0032056550684075977
14.716,-0.494543545596091,0.11485680129437417,0.101095285154463,-0.05451447627110769,0.09411580544343338,-0.10393607327337501,-0.06456794374668884,0.003369345802072872,-0.0018099911077220118,0.003134056321266332
14.75,-0.49140948927482464,0.11485986713011256,0.10126834287079571,-0.05419881741652737,0.09492639701067528,9.206713929104197e-05,0.024342089106363114,0.0033751162094164734,-0.0017994249834435,0.003161049020455487
14.783,-0.48824844025436914,0.11824837305477823,0.10443174053241207,-0.055467912341037,0.034000758458744756,0.10175693467464454,-1.8295987553132287,0.0034786561677776886,-0.0018450477278715452,0.0011322252566762004
14.817,-0.4871162149976929,0.11477994746278987,0.10142947532583448,-0.05372613772352092,0.033020076422346153,-0.10415692468433507,-0.029449911002961047,0.003378617674918909,-0.0017871602746764843,0.0010995685448641271
14.849,-0.48601664645282877,0.1147532518766358,0.10146488531707343,-0.053602106897544216,0.03443794162718641,-0.000801669253875765,0.04257853467988748,0.0033798365567833145,-0.0017829495821255659,0.0011467834561853074
14.884,-0.4848698629966436,0.11820632968705024,0.10458134950602442,-0.05509516960299133,0.040327544688315134,0.10369603034277564,0.17686495679065245,0.0034838238442890554,-0.0018322654654096002,0.001342907238120894
14.917,-0.4835269557585226,0.1147112272775306,0.10156081644809299,-0.05332978741673401,0.04063968255358769,-0.1049580303159051,0.009373509467644413,0.003383208772680564,-0.0017735300790053163,0.0013533014290344704
14.949,-0.48217365432948817,0.11453255124594286,0.10147458969028601,-0.05310944305952216,0.04339155670906746,-0.005365646594226277,0.08263886352792099,0.003380413206357155,-0.0017660397073443238,0.0014449388384119466
14.983,-0.48072871549107615,0.11801990102735682,0.10464331084479844,-0.05457540227928685,0.04663406550902698,0.10472521866107994,0.09737263663542102,0.0034860656821130713,-0.0018145897098486585,0.0015529143814505986
15.017,-0.47917580110962554,0.1145136834760481,0.10161660499322336,-0.05279629999255387,0.04653795209244607,-0.10529181835761942,-0.002886288786213528,0.0033852265097569726,-0.0017554311784070938,0.0015497138046784544
15.05,-0.4776260873049471,0.11452478293107253,0.10170815939354175,-0.05264386211313897,0.047267348788193005,0.0003333169677007604,0.021903804677085057,0.00338829248847394,-0.0017503114257368217,0.0015740027146468273
15.083,-0.4760520845903003,0.13022388891814765,0.11574443415413421,-0.059678197084909894,-0.058781256509337035,0.4714446242364901,-3.184642801727629,0.003852379233749807,-0.0019909833116101387,-0.0019574158417609237
15.116,-0.4780095004320612,0.11460559993805686,0.10175972598788426,-0.05272003133565696,-0.15065801927357042,-0.4690176870898136,-2.759061944871873,0.0033842136706768067,-0.0017640069094291206,-0.005016912041809895
15.15,-0.4830264124738711,0.11466840336611847,0.10154957302098602,-0.05325905509667139,-0.14930689315971657,0.0018859888306791018,0.040574357773388914,0.0033772110634556814,-0.0017818629611454134,-0.004971919542218563
15.183,-0.4879983320160896,0.11821379266568333,0.10441506631937202,-0.05542557804774172,-0.05347918133914732,0.10646814713407972,2.877709063680758,0.003475410795455196,-0.0018487022132655613,-0.001780856738593606
15.217,-0.4897791887546833,0.11478997745712662,0.10129489539601946,-0.05400076935856668,-0.05091735379967741,-0.10281727353023153,0.0769317579420393,0.0033716273886824156,-0.001801021731532721,-0.001695547881529258
15.249,-0.49147473663621255,0.11481185661021992,0.10122247843386788,-0.05418276735264499,-0.05208442252515779,0.000657031624423554,-0.035047108873284605,0.003369175745668274,-0.0018071457214530542,-0.0017344112700877546
15.283,-0.4932091479063003,0.11819297135825324,0.10410649779381216,-0.055959052847594316,0.07244314486056859,0.10153497741841802,3.739566588159951,0.00346902520759845,-0.0018591886606132855,0.002412356723856934
15.316,-0.4907967911824434,0.11482219275070445,0.10126830416795174,-0.054119003307776574,0.07127093064151145,-0.10122458280927309,-0.035201628199914056,0.0033744033406323346,-0.0017980967003630762,0.0023733219903623315
15.349,-0.48842346919208113,0.11479341669875899,0.10137104928814818,-0.053865006113382685,0.06964964642954698,-0.0008641457040677498,-0.04868721357250673,0.0033777662800823934,-0.001789725678526301,0.0023193332261039145
15.384,-0.48610413596597724,0.1183233085604344,0.10461669538359392,-0.05527886029671819,0.08347164110474099,0.10600275860887101,0.41507491517099143,0.0034863239228231217,-0.0018358771735976897,0.0027796056487878755
15.417,-0.4833245303171894,0.11477438208585715,0.10162753040274614,-0.05333857747849333,0.07965385853794028,-0.1065743686059233,-0.11464812512915042,0.0033865813509729985,-0.001771621356805918,0.0026524734893134116
15.449,-0.48067205682787595,0.11476482493136912,0.10176017771404869,-0.0530644068386054,0.07877606474317189,-0.00028700163627708267,-0.02636017401706882,0.003390960485302489,-0.0017625351164415916,0.0026232429559476245
15.483,-0.4780488138719283,0.11814264010859232,0.10489817093601013,-0.05435123868053024,-0.018729740903551836,0.10143589120790392,-2.928102271673385,0.003492578109917153,-0.001810920540204272,-0.0006237003720882762
15.516,-0.47867251424401663,0.11473361909037574,0.10183838022982772,-0.052846453634472663,-0.020435549184861578,-0.10237300355004741,-0.05122547391320548,0.003390651759615257,-0.001760877615854486,-0.0006805037878558906
15.55,-0.4793530180318725,0.1147983316501371,0.10185981347443664,-0.05294558856607268,-0.0205896340824715,0.0019433201129536578,-0.004627174102400079,0.0033913598977061135,-0.0017641877384930373,-0.000685634814946301
15.584,-0.48003865284681885,0.1183241450408759,0.10495080383795544,-0.05464368283178976,-0.007964376381516487,0.10588028200416831,0.37913686789654694,0.003494654260847881,-0.0018200331038453665,-0.00026521373350449904
15.617,-0.48030386658032337,0.11486578618649401,0.10186924656293665,-0.05307358515251233,-0.007213564461717015,-0.1038546202517085,0.02254690449848265,0.0033920664660226354,-0.001767694748183036,-0.00024021169657517663
15.649000000000001,-0.4805440782768986,0.11486965257746164,0.1018599232253568,-0.053099841090074436,-0.00644356938500073,0.00011610783686560159,0.023122975276765316,0.003391778585286578,-0.0017685255563629663,-0.00021457086052052433
15.684,-0.48075864913741906,0.11838028373315428,0.10496120844316205,-0.05474519429952915,0.11253478961379824,0.10542435902980898,3.5729236936576267,0.003498649609952602,-0.0018163966944758775,0.0037474084941394818
15.716,-0.47701124064327954,0.11482660289441621,0.10200863620431595,-0.052719890667635806,0.11015711051558479,-0.1067171423044465,-0.07140177472112488,0.0034001324019580395,-0.0017492749446853008,0.003668231780168974
15.75,-0.47334300886311054,0.09313635574070613,0.0828959488090521,-0.04245753680686595,-0.05986827265987011,-0.6513587733846871,-5.105867362626273,0.0027590502760337075,-0.001416535375533994,-0.001993613479573675
15.784,-0.4753366223426842,0.061780833546380094,0.054931731315666886,-0.028273243329142588,-0.05973703131743978,-0.9416072731028837,0.003941181454364303,0.0018283065448928813,-0.0009432837865410074,-0.0019892431428707447
15.816,-0.47732586548555495,0.026269574717413147,0.023333335284057496,-0.012068389302450824,-0.05804274041342015,-1.0664041690380464,0.05087960672731624,0.0007766186859596969,-0.0004026135800567248,-0.0019328232557668911
15.85,-0.4792586887413218,-3.936229862848154e-05,-3.492762402254657e-05,1.815080255683995e-05,0.0006829680467214594,-0.7900581686498986,1.763534788592841,-1.1631079870906514e-06,6.043868802085131e-07,2.2742835955824603e-05
15.883,-0.479235945905366,1.3633589089790843e-05,1.2097731032756676e-05,-6.286466044475226e-06,3.066235398518513e-05,0.0015914680996478193,-0.019588759541629856,4.028584412487925e-07,-2.0933162557304315e-07,1.021056387706665e-06
15.917,-0.4792349248489783,1.5763393530387925e-05,1.3987615074850315e-05,-7.2685074198005815e-06,1.5925942390685725e-05,6.395809130922166e-05,-0.0004425348827176998,4.65792144944549e-07,-2.4203251581581906e-07,5.303338816098347e-07
15.949,-0.4792343945150967,-3.5615467830105334e-05,-3.160332139434416e-05,1.6422290510250292e-05,-0.3266727953262601,-0.0015429087495643621,-9.810472110169693,-1.0494057070361786e-06,5.525559864650628e-07,-0.010878204084364462
15.984,-0.49011259859946116,-9.477675894948596e-06,-8.361962573103795e-06,4.461381209412734e-06,-0.33708524874885654,0.0007849186767314335,-0.31268628896686024,-2.7761649446199406e-07,1.501185088745569e-07,-0.011224938783336923
16.016,-0.5013375373827981,-1.2336107424139832e-05,-1.0818032551836583e-05,5.9287197679871795e-06,-0.3272259293113697,-8.583878466039748e-05,0.2960756587833891,-3.591614312863218e-07,1.9937846858124555e-07,-0.010896623446068612
16.05,-0.5122341608288667,-5.3159959147147906e-05,-4.633696684508575e-05,2.605507167758052e-05,-0.45227153170475537,-0.0012259414931834254,-3.755123194996567,-1.536445568370236e-06,8.791917529574702e-07,-0.015060642005768355
16.083,-0.527294802834635,-3.464362082107109e-05,-2.9938029048392174e-05,1.7432580999145735e-05,-0.466999170022279,0.0005560461959782827,-0.4422714209466548,-9.923934725282587e-07,5.882146625219299e-07,-0.01555107236174189
16.117,-0.542845875196377,-4.663611727282288e-05,-3.993180433972313e-05,2.4091044735721973e-05,-0.4534378335531274,-0.0003601350285811347,0.4072473414159635,-1.3236371274507418e-06,8.122156213609432e-07,-0.015099479857319143
16.149,-0.557945355053696,-9.586531290436937e-05,-8.132683212096275e-05,5.075534056058919e-05,-0.035780268988050826,-0.001478354223169564,12.542269206158455,-2.7072074196744377e-06,1.69171549850749e-06,-0.0011914829573020926
16.183,-0.5591368380109981,-0.00012172549744611679,-0.00010318832253390043,6.456986000561192e-05,-0.0015824718748684813,-0.0007765821183707931,1.02696087426974,-3.4361544526154717e-06,2.150203005588406e-06,-5.269631343312043e-05
16.217,-0.5591895343244313,-8.006480695809824e-05,-6.786976317919433e-05,4.2474328237626234e-05,-0.001062296189800036,0.0012510717864269833,0.015620891443496852,-2.2600643867609858e-06,1.4143930960767328e-06,-3.537446312034121e-05
16.249,-0.5592249087875516,-7.961105079320393e-05,-6.748362669634283e-05,4.223599810951249e-05,-0.0010568024721350682,1.3626311258087326e-05,0.00016497650645549234,-2.2472061633989774e-06,1.406456508841053e-06,-3.5191522322097773e-05
16.283,-0.5592601003098737,0.03380484640178882,0.028654607182821402,-0.01793547120782541,-0.0345471111011837,1.0175512748523128,-1.0057149738453042,0.0009538657755594628,-0.0005977821936570409,-0.0011504187996694173
16.316,-0.5604105191095431,0.06666801795440265,0.05647027642683556,-0.035436316093032785,-0.0352647307984631,0.9868820286070219,-0.021550141059441547,0.0018797888632339297,-0.0011810982414238976,-0.0011743155355888213
16.35,-0.561584834645132,0.10003084154228241,0.08466732516289792,-0.05326925294592862,-0.03526022512662347,1.0018865942306232,0.00013530546064968187,0.002818412875616709,-0.0017754685629783628,-0.0011741654967165616
16.384,-0.5627590001418485,0.11335364529053805,0.09587296538711768,-0.06047663522827353,0.2605045074892456,0.40008419664431366,8.88182380227835,0.003201301793767196,-0.0019999398266842858,0.008674800099391878
16.416,-0.5540842000424566,0.11473055910844689,0.09756487786044483,-0.06036717486692005,0.31174907765178916,0.0413487633005655,1.5388759808571644,0.003259323361722864,-0.0019932665195797955,0.010381244285804581
16.449,-0.5437029557566521,0.0764245194297408,0.06540402596537778,-0.039535054794283736,0.2560787776153819,-1.1503315218830656,-1.6717807818740922,0.0021835651824772106,-0.0013071746710437647,0.008527423294592218
16.484,-0.5351755324620598,0.04495756231750877,0.03867155649813148,-0.022927998768852664,0.2605752947060625,-0.9449536670339946,0.13503054326368188,0.0012910732529502265,-0.0007578817552838688,0.008677157313711882
16.516,-0.526498375148348,0.015074506285118859,0.013032995526546276,-0.007575075401942395,0.18844491989168866,-0.897389070041739,-2.166077321752968,0.0004347920249395808,-0.00025087856035277097,0.006275215832393233
16.549,-0.5202231593159548,-1.0713679780375665e-05,-9.296348597255564e-06,5.325489385468236e-06,0.0005171571524893988,-0.4530096085555325,-5.643476358534512,-3.095732314213149e-07,1.7733037684625744e-07,1.722133317789698e-05
16.583,-0.5202059379827768,-0.0002202308783143696,-0.00019109804065238115,0.00010946770584030503,0.0052189255390973415,-0.006291807763783601,0.14119424584408236,-6.363949222575825e-06,3.6446033356213577e-06,0.00017379022045194148
16.617,-0.5200321477623249,-0.00022773573409135944,-0.00019762980008431727,0.00011316371636157572,0.004692539300564001,-0.00022537104435404887,-0.015807394550550774,-6.581436772982474e-06,3.7677152248638827e-06,0.00015626155870878124
16.649,-0.5198758862036161,-0.00022403029404415007,-0.0001944316003794742,0.0001112920725990166,0.004688771852204713,0.00011127447589217329,-0.00011313658736600814,-6.474930462969978e-06,3.705400194571995e-06,0.00015613610267841695
16.684,-0.5197197501009376,-0.000227276544447133,-0.00019726658501335759,0.00011287392122628409,0.004831428130698496,-9.74849970865743e-05,0.004283972327140639,-6.569349467950523e-06,3.758051024887511e-06,0.00016088655675225994
16.716,-0.5195588635441855,-0.00021754952248142655,-0.00018884131487032377,0.00010801274244247274,0.004690304639195138,0.0002921027617329263,-0.0042379426877885255,-6.288763493423634e-06,3.5962163335029756e-06,0.0001561871444851981
16.75,-0.5194026763997003,-0.00021489841852268237,-0.00018655671747352278,0.00010666734012364866,0.004691689940062149,7.961273149381899e-05,4.16006266369802e-05,-6.212682150969085e-06,3.5514216484325663e-06,0.0001562332750040696
16.784,-0.5192464431246961,-0.00021894120557739745,-0.00019008330106411598,0.0001086443286888591,0.004835533334851088,-0.00012140501665811035,0.0043196214651332965,-6.330132413098489e-06,3.6172288499931624e-06,0.00016102326005054126
16.817,-0.5190854198646457,-0.00021038072869604494,-0.00018266795975156267,0.0001043669846593277,0.004695254672963404,0.0002570713778183936,-0.004212572429059584,-6.083179318102752e-06,3.4748319735864555e-06,0.00015635198060968137
16.849,-0.5189290678840359,-0.0002085191159890938,-0.00018106774260743725,0.00010341515517524502,0.00469720675330262,5.590428549402849e-05,5.8621031207678436e-05,-6.0298891324077e-06,3.443141012208869e-06,0.00015641698488497724
16.883,-0.518772650899151,-0.00021311248683314015,-0.000185072929839888,0.00010566429238245639,0.004841837387562367,-0.00013793906438577667,0.00434326229008249,-6.1632775874737574e-06,3.5180095288576267e-06,0.0001612331850058268
16.916,-0.5186114177141452,-0.00020534504719654938,-0.00017834387821677846,0.00010178432841430936,0.004701712776948923,0.00023325644554326642,-0.0042079462646679765,-5.939179446312183e-06,3.3888428156101823e-06,0.00015656703547239914
16.95,-0.5184548506786728,-0.00020402839804016062,-0.0001772161892122796,0.00010110395386883602,0.00470408902373585,3.95390137053681e-05,7.135876237017855e-05,-5.9016253411029525e-06,3.366189747572816e-06,0.0001566461644904038
16.983,-0.5182982045141824,-0.00020898024850745007,-0.00018153351639738075,0.00010352935183143705,0.004849199174274134,-0.00014870421823692036,0.00435766217832686,-6.045408490275626e-06,3.4469269603278546e-06,0.0001614783325033287
17.016,-0.518136726181679,-0.0002017601897601433,-0.00017527785269692123,9.992421391237165e-05,0.004709079109245819,0.00021681858100020332,-0.004207809760610081,-5.8370752047560995e-06,3.326910177498481e-06,0.0001568123343378858
17.049,-0.5179799138473411,-0.00020081131306336794,-0.00017446911574908958,9.94269133784447e-05,0.004711577025866114,2.849479569895981e-05,7.501251111997097e-05,-5.810142795996631e-06,3.3103524402959698e-06,0.0001568955149613416
17.083,-0.5178230183323798,-0.00020600631114281201,-0.0001789986409466632,0.00010197100945816224,0.004857011239991172,-0.0001560059483316539,0.004367393817569329,-5.960992425524444e-06,3.3950417685244426e-06,0.00016173847429170606
17.116,-0.5176612798580882,-0.00019916679475605111,-0.00017307173602732636,9.855752798181605e-05,0.004716698841542397,0.0002053908824853123,-0.004213585539002276,-5.763607522135451e-06,3.2814059305412606e-06,0.00015706607142336183
17.15,-0.5175042137866648,-0.00019846960919567681,-0.00017248132023592352,9.818543651661118e-05,0.004719122267566818,2.0936503314543557e-05,7.277555628892285e-05,-5.743945604909908e-06,3.269016962515513e-06,0.00015714677150997504
17.183,-0.5173470670151548,-0.0002038275553096859,-0.00017715352245053757,0.0001008082426535149,0.004864676650119638,-0.00016089928270297517,0.004371002479063668,-5.899546557348337e-06,3.3563269920527596e-06,0.00016199373244898396
17.216,-0.5171850732827057,-0.00019683615248580378,-0.00017109282227345714,9.732274704259951e-05,0.004720868449904682,0.00020995203675321645,-0.004318564571019705,-5.6977059260397904e-06,3.2402937299562758e-06,0.00015720491938182591
17.25,-0.5170278683633239,-0.0001953722131896906,-0.0001698355288536531,9.657222595362431e-05,0.00471461180633308,4.3962141024420084e-05,-0.00018788719434239886,-5.655835291471275e-06,3.2153060361531734e-06,0.00015699657315089156
17.283,-0.5168708717901731,-0.00019994189820814377,-0.00017382343410066704,9.88037267339992e-05,0.004851875824350892,-0.00013722777833192728,0.004122042583117473,-5.788647267600815e-06,3.2895888891929715e-06,0.0001615674649508847
17.316,-0.5167093043252222,-0.00019291718216357117,-0.00016773175902975367,9.530527890267752e-05,0.004704795808972794,0.0002109524337709489,-0.004416817278621562,-5.585775142177452e-06,3.1731244139156656e-06,0.00015666970043879403
17.35,-0.5165526346247833,-0.0001919322053105781,-0.00016689022450486904,9.479253346174645e-05,0.004701397346400376,2.9578884474266366e-05,-0.00010205593310564001,-5.557750209196618e-06,3.156053021375502e-06,0.00015655653163513253
17.383,-0.5163960780931482,-0.00019684398973505177,-0.00017117637149626766,9.719159498734924e-05,0.004841099346102588,-0.00014750103376797797,0.004195255246312684,-5.700494168187548e-06,3.235914684472905e-06,0.0001612086082252162
17.416,-0.516234869484923,-0.00019028190755106917,-0.000165485100544179,9.392489467205484e-05,0.004696670952973591,0.0001970595250445224,-0.004337188982852777,-5.510956536816047e-06,3.127165615932049e-06,0.00015639914273402058
17.449,-0.516078470342189,-0.00018961219214001326,-0.00016491729592608346,9.35685252238696e-05,0.004695235368221414,2.0111573905582777e-05,-4.311065321851408e-05,-5.49204742010573e-06,3.1153004746860974e-06,0.0001563513377617731
17.484,-0.5159221190044272,-0.00019473845037497014,-0.00016939093859028614,9.607171268352936e-05,0.00483648651608073,-0.00015394168873744365,0.004241776211991476,-5.641035308060533e-06,3.1986289346639064e-06,0.00016105500098548834
17.516,-0.5157610640034418,-0.0001884774938384078,-0.00016395989281549274,9.295654485585822e-05,0.004693629271216274,0.00018801671280967998,-0.004290007353286983,-5.4601638420151294e-06,3.094924759510244e-06,0.00015629785473150192
17.549,-0.5156047661487103,-0.00018800936428054716,-0.00016356714948948848,9.270010067448046e-05,0.004693389111980433,1.4057944680499644e-05,-7.211989064293348e-06,-5.447084650908386e-06,3.0863864552539823e-06,0.00015628985742894842
17.583,-0.5154484762912814,-0.00019326983224904088,-0.0001681586201199226,9.526755238241382e-05,0.0048357016170880816,-0.00015797201106587753,0.004273648802031494,-5.599996407642183e-06,3.171854537276267e-06,0.00016102886384903312
17.616,-0.5152874474274324,-0.0001872046283593234,-0.00016289631487764064,9.225163130501786e-05,0.004693827922985982,0.0001821382549464708,-0.004260471294357339,-5.424744436297336e-06,3.071454546579796e-06,0.0001563044698354332
17.65,-0.5151311429575969,-0.00018686618489091762,-0.0001626162092060093,9.205943492740997e-05,0.004694401721076106,1.0163467519693046e-05,1.7231173877589852e-05,-5.415416327620624e-06,3.065055257841341e-06,0.00015632357731183434
17.683,-0.514974819380285,-0.00019220812010989452,-0.00016727971187426016,9.466498524504266e-05,0.004837462909333266,-0.00016041847504435138,0.004296131779494286,-5.570726867137038e-06,3.151791788828358e-06,0.00016108751488079777
17.716,-0.5148137318654042,-0.00018627278411895428,-0.00016212893489455187,9.17156397425472e-05,0.0046961538895844875,0.00017823831804625364,-0.004243514106569915,-5.399189074600589e-06,3.0536082906105067e-06,0.00015638192452316344
17.749,-0.5146573499408811,-0.00018601881942951573,-0.00016192220911144281,9.156527386744913e-05,0.004697256360419832,7.62656725040681e-06,3.310723229263939e-05,-5.3923046774335106e-06,3.0486016742337915e-06,0.00015641863680198044
17.783,-0.5145009313040791,-0.00019141146029678135,-0.00016663103072024746,9.419366610369431e-05,0.004840881394695917,-0.00016194116718515371,0.004313064092374901,-5.5491244074769855e-06,3.1360986870033957e-06,0.00016120135044337403
17.816,-0.5143397299536359,-0.00018556250637210588,-0.00016155400966239128,9.12893516961415e-05,0.004699858419648578,0.00017564426200226643,-0.004234924175595741,-5.380042878136394e-06,3.0394144197178375e-06,0.00015650528537429769
17.849,-0.5141832246682615,-0.00018536180834974049,-0.00016139354824098355,9.116535844755529e-05,0.00470128740157836,6.026967638600324e-06,4.291237026371697e-05,-5.374699185200656e-06,3.035285834131521e-06,0.00015655287047255942
17.883,-0.5140266717977889,-0.000190782658869758,-0.00016612814172803044,9.38054553392599e-05,0.004845329370505413,-0.00016278830390442997,0.004325584652464037,-5.532377153178019e-06,3.1231725199234056e-06,0.00016134946803783026
17.917,-0.5138653223297511,-0.00018499269756368044,-0.0001611010812574604,9.093261114454199e-05,0.004704419283239278,0.00017387271189422124,-0.004231534152136174,-5.364959441830172e-06,3.0275360125938053e-06,0.00015665716213186798
17.949,-0.5137086651676193,-0.0001848268237791428,-0.00016097086039799642,9.082586025474821e-05,0.004706048960885363,4.981194730860083e-06,4.893926865118914e-05,-5.360622824768366e-06,3.0239814827895166e-06,0.0001567114303974826
