Theta_calculated,yaw_world,linear_velocity_x,world_velocity_x,world_velocity_y,angular_velocity_yaw,linear_acceleration_x,angular_acceleration_yaw,delta_position_x_world,delta_position_y_world,delta_yaw,kinematic_delta_x,kinematic_delta_y,kinematic_delta_yaw,twist.twist.linear.x,Time,odom_world_velocity_x,odom_world_velocity_y,odom_angular_velocity,odom_yaw_world
1.5707926375242387,1.5699732740678594,5.384272948454954e-05,1.9864040202920228e-10,5.384272948418311e-05,-0.0003682502286474,-0.0026363434024818,-0.0081503745573698,3.7146258441806373e-08,1.1684486587977911e-06,-8.008957985694565e-07,1.6498660036130842e-11,1.7929628917558678e-06,-1.2262732613958746e-05,4.213759234937406e-07,0.44,3.4746264915084334e-10,4.213757802364893e-07,-0.00040388485651,1.5699717360455103
1.570780374791625,1.5699813994309424,-2.9359481386261264e-06,-4.683425431094184e-11,-2.935948138252576e-06,8.250194175208333e-05,-0.0017050653940893,0.0135361012131979,-5.249040581001921e-07,-8.476612618421586e-08,8.125363083033575e-06,-1.3647899231318217e-12,-9.776707300988235e-08,2.747314660344375e-06,-2.5963118572656e-06,0.474,-2.1269855018306584e-09,-2.596310986016625e-06,0.0001608773209344,1.5699770932602974
1.5707831221062851,1.569991702055003,-2.169330083423429e-06,-2.864532824632406e-11,-2.169330083234302e-06,0.000224760780636,2.3021563219300224e-05,0.0042720372037222,-6.696837898618705e-07,-1.0616821999494433e-07,1.0302624060543051e-05,-6.388559411866434e-13,-7.223869177557585e-08,7.48453399517999e-06,-3.1570103197676493e-06,0.508,-2.5558843327563318e-09,-3.1570092851581403e-06,0.0002895896677745,1.5699867365962343
1.5707906066402804,1.5700025476580135,-1.0021935475675723e-06,-5.732702047470171e-12,-1.0021935475511763e-06,0.0002539116072129,3.504914522089658e-05,0.0008754001975049,-7.058701710161205e-07,-1.115195340456801e-07,1.0845603010789516e-05,-2.9161797208765454e-14,-3.33730451341901e-08,8.45525652019126e-06,-3.297269559712535e-06,0.542,-2.6352868037659806e-09,-3.297268506608213e-06,0.0003110229585257,1.5699970936607532
1.5707990618968006,1.570013536518794,-2.895423159774411e-07,7.919277397206637e-13,-2.895423159763581e-07,0.0002632837080159,2.140093788558953e-05,0.000281444468558,-7.154148737166466e-07,-1.1293801711453195e-07,1.0988860780214438e-05,7.460316757861894e-14,-9.641759121696958e-09,8.76734747693062e-06,-3.3360213591445707e-06,0.5760000000000001,-2.630840477045222e-09,-3.336020321782703e-06,0.0003188244893518,1.5700077105162489
1.5708078292442775,1.5700245636129135,3.399687087747372e-07,-3.910472863689271e-12,3.399687087522471e-07,0.0002728345225263,1.8904234977542887e-05,0.000286811246559,-7.179583281874952e-07,-1.133240264449345e-07,1.1027094119597791e-05,-1.8865101230204619e-13,1.1320958000684829e-08,9.085389600127498e-06,-3.347012352973285e-06,0.61,-2.602647631512629e-09,-3.347011341059524e-06,0.0003307196938128,1.5700187234820526
1.5708169146338775,1.5700356011715475,9.50811106270258e-07,-1.9575145955756236e-11,9.508111060687528e-07,0.0002630315770165,1.8343615540406037e-05,-0.0002943827480419,-7.186506139394111e-07,-1.1343702919618809e-07,1.103755863396394e-05,-8.101061096524077e-13,3.1662009828704215e-08,8.758951514651252e-06,-3.3500584560217827e-06,0.644,-2.569140525556956e-09,-3.350057470892105e-06,0.0003215915936619,1.5700294324821216
1.5708256735853925,1.5700466418518495,1.6179531733874255e-06,-4.7481732804355525e-11,1.617953172690707e-06,0.0002591283901993,2.0034296309824846e-05,-0.0001172128173342,-7.188533841290221e-07,-1.1347783514074895e-07,1.1040680301999116e-05,-1.8469323525195625e-12,5.387784064145774e-08,8.6289753936375e-06,-3.351072239430045e-06,0.678,-2.5340124672580254e-09,-3.351071281345641e-06,0.0003217609672795,1.570040147122332
1.5708343025607858,1.5700576837119564,2.467554788689183e-06,-9.370728295151895e-11,2.46755478690988e-06,0.0002607236118871,2.5513562021073795e-05,4.790455518863634e-05,-7.189266845097138e-07,-1.1349954617215913e-07,1.1041860106919543e-05,-3.52799494907628e-12,8.216957438804574e-08,8.682096275840628e-06,-3.3515375340898177e-06,0.7120000000000001,-2.497359063290048e-09,-3.351536603650714e-06,0.0003315699375321,1.5700511884012518
1.5708429846570615,1.570068726238125,3.314567415351354e-06,-1.5465062954633984e-10,3.31456741174352e-06,0.0002445924772438,2.5435814614479604e-05,-0.0004844184577567,-7.189657187442224e-07,-1.1351620453348145e-07,1.1042526168569822e-05,-5.6676570182088015e-12,1.103750947850336e-07,8.144929492218752e-06,-3.351837225156574e-06,0.746,-2.461659452286637e-09,-3.351836321209325e-06,0.0003218434125079,1.5700619057868883
1.570851129586554,1.5700797692942468,4.404133762391896e-06,-2.4135882489047386e-10,4.404133755778327e-06,0.0002334990453502,3.27197101213376e-05,-0.0003331360928986,-7.189956627141334e-07,-1.1353152383052761e-07,1.1043056121762262e-05,-8.698158853809073e-12,1.466576540297219e-07,7.775518210164376e-06,-3.3520963675885487e-06,0.78,-2.425922204375122e-09,-3.3520954897648425e-06,0.0003218601437956,1.5700726237296767
1.570858905104764,1.570090812844091,5.910144013806286e-06,-3.6984682321609866e-10,5.910144002234091e-06,0.0002256747629329,4.5225533075507207e-05,-0.0002349634359562,-7.190231759690998e-07,-1.1354648643026492e-07,1.1043549844158562e-05,-1.3177171402300579e-11,1.9680779521941875e-07,7.514969605666865e-06,-3.352353381667584e-06,0.8140000000000001,-2.389087398194351e-09,-3.352352530364235e-06,0.00033162860157,1.570083666962109
1.5708664200743698,1.5701018568778584,7.315947418950432e-06,-5.127987466278988e-10,7.315947400978559e-06,0.0002011771137,4.2216318472797176e-05,-0.0007356651421286,-7.19050021831862e-07,-1.135613524379919e-07,1.1044033767504402e-05,-1.8042965648817385e-11,2.436210483822466e-07,6.699197886211872e-06,-3.3525977532599227e-06,0.8480000000000001,-2.353325404361874e-09,-3.352596927312173e-06,0.0003218888581439,1.5700943858610852
1.570873119272256,1.5701129013927606,9.100309060085591e-06,-6.988352767734649e-10,9.100309033252944e-06,0.0001804814154055,5.358443366772248e-05,-0.0006214924412757,-7.190766690280609e-07,-1.1357619098244757e-07,1.1044514902192049e-05,-2.436935868097695e-11,3.030402907195492e-07,6.010031133005629e-06,-3.3528411886777e-06,0.882,-2.317556000011989e-09,-3.352840387705308e-06,0.0003219025111732,1.5701051052147073
1.570879129303389,1.570123946387883,-0.0001535765126972,1.2716520482317924e-08,-0.0001535765121707,0.0022243246934023,-0.0048851898425632,0.0613766750149186,-7.191032435150837e-07,-1.135910206138957e-07,1.1044995122722057e-05,6.16025017990444e-10,-5.114097834549258e-06,7.407001229029876e-05,-3.353090922085872e-06,0.916,-2.2806948933726503e-09,-3.353090146447823e-06,0.000331671357459,1.5701161498709106
1.5709531993156791,1.570134991862826,1.0658179528680134e-05,-1.6719754827612215e-09,1.065817939753663e-05,0.0001636795911177,0.004931972739518,-0.0618812343028416,-7.191297806662901e-07,-1.1360584652783314e-07,1.10454749426836e-05,-5.686362037101573e-11,3.549173737443385e-07,5.450530384220615e-06,-3.353333860399468e-06,0.95,-2.244911489881821e-09,-3.353333108963975e-06,0.0003219301044895,1.57012687014339
1.5709586498460637,1.5701460378173404,8.841901194500012e-06,-1.4352443737043476e-09,8.841901078013388e-06,0.0001874662495037,-5.454289291832197e-05,0.0007143140656467,-7.19156291538069e-07,-1.1362067032019529e-07,1.104595451439927e-05,-4.889484634576528e-11,2.944353057171432e-07,6.2426261084756204e-06,-3.3535766970954733e-06,0.984,-2.2091212948491272e-09,-3.3535759694816644e-06,0.0003219436762692,1.57013759086781
1.570964892472172,1.5701570842512338,7.4029704088603774e-06,-1.2478867149092724e-09,7.402970303684942e-06,0.0002154861919046,-4.321113470389292e-05,0.0008414397117387,-7.191827806222156e-07,-1.136354926371819e-07,1.1046433893380224e-05,-4.259162523962018e-11,2.465189109372787e-07,7.175690190425641e-06,-3.353828760602906e-06,1.018,-2.172240727741422e-09,-3.353828057133735e-06,0.0003317137334982,1.5701486369351354
1.5709720681623625,1.570168131164342,5.773967706486448e-06,-1.0147249752182083e-09,5.77396761732187e-06,0.0002276555848515,-4.891900007128916e-05,0.0003654472356427,-7.192092506101806e-07,-1.1365031385608683e-07,1.1046913108270218e-05,-3.4638111829468443e-11,1.9227312150751602e-07,7.580930975557486e-06,-3.354071650492962e-06,1.052,-2.136436899026678e-09,-3.354070970071736e-06,0.0003219712129875,1.570159358576528
1.570979649093338,1.5701791785565198,4.633867818324349e-06,-8.494912943710457e-10,4.633867740459e-06,0.0002426694150251,-3.4237233878741715e-05,0.000450865770977,-7.192357035301438e-07,-1.136651342509998e-07,1.1047392177720994e-05,-2.900700700657384e-11,1.5430779562420624e-07,8.08089152033626e-06,-3.354314286488113e-06,1.086,-2.100626188538469e-09,-3.3543136287335853e-06,0.0003219847688507,1.5701700806693306
1.5709877299848582,1.570190226427639,3.818911884729712e-06,-7.309519124565575e-10,3.818911814776448e-06,0.0002626809219015,-2.4473151158998093e-05,0.0006009461524463,-7.192621411229407e-07,-1.1367995406303893e-07,1.1047871119274078e-05,-2.497557574176089e-11,1.271697633073334e-07,8.747274699322489e-06,-3.3545634945293706e-06,1.12,-2.063722799174715e-09,-3.354562859729612e-06,0.000331756057227,1.5701811281460365
1.5709964772595577,1.5702012747775864,2.97239479359911e-06,-5.94926195122927e-10,2.972394734061732e-06,0.0002647581725987,-2.5420933667585656e-05,6.23799008146726e-05,-7.192885649016704e-07,-1.1369477349431643e-07,1.1048349947362366e-05,-2.0308613095940456e-11,9.898074454215118e-08,8.816447147536872e-06,-3.3548060436859227e-06,1.154,-2.0278984066356812e-09,-3.3548054307783103e-06,0.0003220122798905,1.5701918511549566
1.5710052937067052,1.570212323606261,2.40177929388291e-06,-5.018923982357148e-10,2.4017792414434573e-06,0.0002724481029726,-1.7135600592078072e-05,0.0002309288400579,-7.193149762837342e-07,-1.1370959274777799e-07,1.1048828674642406e-05,-1.7125311068382977e-11,7.99792486519005e-08,9.072521828988768e-06,-3.3550485605328668e-06,1.188,-1.992067279635794e-09,-3.3550479691357043e-06,0.0003220258252648,1.570202574614938
1.571014366228534,1.5702233729135735,2.002560272364847e-06,-4.3663710415159407e-10,2.002560224762793e-06,0.000287132892561,-1.1988559204746634e-05,0.000440984672326,-7.193413765990211e-07,-1.1372441199690443e-07,1.1049307312660517e-05,-1.4900081329056183e-11,6.668525540558876e-08,9.561525322284356e-06,-3.355297668708333e-06,1.222,-1.955142896516577e-09,-3.3552970990742124e-06,0.0003317983480292,1.570213623499927
1.5710239277538565,1.570234422699447,1.5794144063152947e-06,-3.5947623036874517e-10,1.579414365406727e-06,0.0002837080700902,-1.2707083064551125e-05,-0.0001028475216483,-7.193677668030385e-07,-1.1373923136659415e-07,1.1049785872963014e-05,-1.225154284950567e-11,5.2594498303083696e-08,9.447478734003756e-06,-3.355540140021855e-06,1.256,-1.919298118860417e-09,-3.3555395911228075e-06,0.0003220533184277,1.570224347875431
1.5710333752325905,1.5702454729638118,1.292060968247761e-06,-3.062810310598965e-10,1.2920609319460406e-06,0.0002877201998786,-8.629232374400414e-06,0.0001204843780317,-7.193941481563646e-07,-1.1375405104419729e-07,1.1050264365097815e-05,-1.0431895698916728e-11,4.302562897765496e-08,9.58108265595937e-06,-3.3557852775744107e-06,1.29,-1.8834481238671492e-09,-3.355784749027912e-06,0.000322066856514,1.5702350727017529
1.5710453663449482,1.5700867189270085,0.2180174851872776,-5.4294975853177e-05,0.2180174784264794,0.0071274266532651,0.3536043440943706,0.2134238441450525,4.228282560279781e-06,0.0055245586787933,-6.386903474453474e-05,-2.6740687082021266e-06,0.0072599817472272,0.0002373433075537,0.1697415892236566,1.528,0.0001193958671992,0.1697415472322538,-0.0018290545693704,1.5700929288970047
1.5712827096525015,1.5700077606797416,0.2180145239160231,-0.0001060385229607,0.2180144981283626,0.0071434779939112,-8.892706469930521e-05,0.0004820222416262,5.2244416194320205e-06,0.0060696005129963,-7.895824726689149e-05,-4.399057212930424e-06,0.0072598822965016,0.0002378778171972,0.1832226491449031,1.562,0.0001426080033838,0.1832225936467269,-0.0022502678997648,1.5700179949759423
1.5715205874696991,1.569861182004924,0.224621376263176,-0.0001626844153246,0.2246213173502112,0.007353771963723,0.1984039743889772,0.0063151342285812,9.685798456089557e-06,0.0064088329614367,-0.0001465786748175,-6.337858977293932e-06,0.0074798891257767,0.0002448806063919,0.1907632856049693,1.596,0.0001738936420813,0.1907632063470425,-0.0040010801316614,1.5698847590075582
1.571765468076091,1.5695509008553186,0.218011533642761,-0.0002112839439555,0.2180114312607569,0.0061148469619784,-0.1984937723848348,-0.0372049550073459,2.048361747000742e-05,0.0065136146343049,-0.0003102811496054,-7.779381373461905e-06,0.0072597798896784,0.0002036244038338,0.1912815562912982,1.63,0.0002289504278173,0.1912814192725542,-0.0085694121587087,1.5695993975826732
1.571969092479925,1.5695360455046836,0.2180002328269994,-0.000255663133782,0.2180000829105071,0.0062283595363937,-0.0003393638366851,0.0034087860184798,3.780670664858204e-07,0.006534730455944,-1.4855350634945808e-05,-9.27088983376929e-06,0.0072594018202634,0.0002074043725619,0.1931239509062921,1.664,0.0002456297944146,0.1931237947008602,-0.00225067643902,1.5695244500572538
1.5721764968524867,1.5694479531839234,0.2246247075472915,-0.000310020197127,0.2246244936069608,0.006318963964363,0.1989331747835447,0.0027208536927709,5.828136056513596e-06,0.0067389021068989,-8.809232076023576e-05,-1.1115276522490613e-05,0.0074799944888788,0.0002104215000132,0.2009965769945087,1.698,0.0002673438647611,0.2009963991985116,-0.0017482067493734,1.5694662347724997
1.5723869183525,1.5693071477034215,0.218018345776194,-0.0003467779939705,0.218018069985061,0.0138475978005353,-0.1983892423753001,0.2260851001853528,9.307397609096785e-06,0.0071327916575748,-0.0001408054805016,-1.3226082906995658e-05,0.0072599988025632,0.0004611250067578,0.2138039387754856,1.7320000000000002,0.0003115289590847,0.2138037118144099,-0.0038134002794415,1.5693392485431945
1.572848043359258,1.569699882926506,0.2175043145972607,-0.0004462568919896,0.2175038568007715,0.0157962309909544,-0.0154363717397365,0.0585175132257997,8.168233124693778e-06,0.0074517658218696,0.0003927352230843,-1.6769764657762925e-05,0.0072428741787028,0.0005260144919987,0.2193695429820621,1.766,0.000266309981786,0.219369381334662,0.0073002738893563,1.56958234766371
1.5733740578512567,1.5701780009157624,0.2242247161951563,-0.000577990374444,0.2242239712428746,0.0148514335480704,0.2018138617986669,-0.0283722955821011,5.874870066638913e-06,0.0074296610576304,0.0004781179892563,-2.1098026617763783e-05,0.0074666531656179,0.0004945527371507,0.2195918859650256,1.8,0.0001581579164884,0.219591829009529,0.0148271280882157,1.5700760910290474
1.5738686105884074,1.5701722381307543,0.2067753698363756,-0.0006352716182639,0.2067743939682594,-0.0031385429758053,-0.5240043951585804,-0.5402395352515258,3.015347677291597e-06,0.0070948989788578,-5.762785008078808e-06,-2.0798986808051177e-05,0.006885588399214,-0.0001045134810943,0.2085976416858962,1.834,0.0001333514213421,0.2085975990617244,0.0024312293191476,1.570157050965375
1.5737640971073132,1.5702846189966728,0.2065087955181447,-0.0006128697729325,0.2065078860891185,0.0030954549450095,-0.008005234781708,0.1872071447692172,3.25320385599648e-06,0.0070861260969179,0.0001123808659184,-2.0767239342475912e-05,0.0068767115298931,0.0001030786496688,0.2084580712365175,1.868,0.0001129791153926,0.208458040620573,0.0029219385109333,1.5702543515177891
1.573867175756982,1.570449200227953,0.2129307227598539,-0.0006538770612929,0.2129297187802174,0.0030270786139804,0.1928506679191927,-0.0020533432741476,2.6209423856141434e-06,0.0070917770265084,0.0001645812312804,-2.2135863536978344e-05,0.0070905585122524,0.0001008017178455,0.2086385289325469,1.902,9.26397671389318e-05,0.2086385083655717,0.0029415868776241,1.570352306360814
1.5739679774748274,1.5707952743563411,0.2068414138287719,-0.000656027610936,0.2068403734826907,0.0100503364082192,-0.1828621300625209,0.2109086424696337,8.037338321482921e-07,0.0070958666249702,0.0003460741283878,-2.3002569461822703e-05,0.0068877806385398,0.0003346762023937,0.2087440675158464,1.936,2.3173758799052044e-05,0.2087440662295269,0.0100001579791527,1.5706853116215198
1.574302653677221,1.5711263890351777,0.2069956824790629,-0.0007257930388097,0.2069944100439377,0.0098771980582474,0.0046326922009292,-0.0051993498490038,-1.5075661200636805e-06,0.0071014732846995,0.0003311146788365,-2.530674913715605e-05,0.0068929097398194,0.0003289106953396,0.2089032960857046,1.97,-4.48449136334512e-05,0.208903291272314,0.0097802842763111,1.571010995087921
1.5746315643725608,1.571361524294476,0.213395263180362,-0.0008184195258795,0.2133936937617783,0.0099979894156343,0.1921796006396148,0.003627368089696,-2.7824132979413705e-06,0.0071485408410047,0.0002351352592984,-2.8440679169286907e-05,0.0071060053166195,0.0003329330475406,0.2090346120042311,2.004,-0.0001124724600099,0.2090345817459521,0.0097113624114925,1.5713343834562237
1.5749644974201016,1.5711820363030389,0.2178783916434567,-0.0009081516822588,0.2178764989751339,-0.0126527515057404,0.1346284823752146,-0.6802024300713133,-2.2687336277780803e-06,0.0074769927378447,-0.0001794879914371,-2.8717480047369717e-05,0.0072552935543541,-0.0004213366251411,0.2208357845986328,2.038,-9.19017824556156e-05,0.2208357654759665,-0.0036607283412734,1.5712124812024593
1.5745431607949605,1.57118061621174,0.2185344547467769,-0.0008188104093796,0.2185329207716415,-0.0008469288889555,0.0197015946943002,0.3545292077112572,1.0005509811997765e-07,0.0074953128419935,-1.4200912989981165e-06,-2.716827153037933e-05,0.0072771466284144,-2.8202732002219343e-05,0.2204693263189595,2.072,-8.562893677308764e-05,0.2204693096900814,-0.00083364922356,1.5711847206833147
1.574514958062958,1.571137162732384,0.224864079558588,-0.0008361846701499,0.2248625248255663,-0.0002237521328808,0.1900788231775112,0.018714016698938,2.8704927269471048e-06,0.0074778434261449,-4.3453479355859415e-05,-2.7821686478279888e-05,0.0074879221630445,-7.450946024933902e-06,0.2199549251539335,2.106,-8.071475025120209e-05,0.2199549103443739,-0.0006436476528469,1.571163287216475
1.5745075071169332,1.5712225102007802,0.2179373337115999,-0.0008088028877165,0.2179358329031967,-0.0001285074280941,-0.2080103857954376,0.0028602013449465,-5.629011173257804e-06,0.0074232393279171,8.53474683961686e-05,-2.6922098381279957e-05,0.0072572632767013,-4.2792973555361165e-06,0.2177658478579268,2.14,-8.142224005430684e-05,0.2177658326361152,0.0002083394073876,1.571170224918741
1.5745032278195776,1.5712609022560575,0.217459506019919,-0.0008060990195723,0.2174580119535673,0.0006070778299605,-0.0143491799303588,0.0220896473890296,-5.339397416337846e-06,0.0074628017116339,3.839205527733647e-05,-2.692077223577056e-05,0.0072413515095893,2.0215691737685004e-05,0.2195925747874643,2.174,-9.71998786548494e-05,0.2195925532753141,0.0020642419071101,1.5712389641742477
1.5745234435113151,1.5713170725173553,0.2239743663077694,-0.0008347766720092,0.2239728106509242,0.001438149655884,0.1956414500855998,0.0249571118895952,-4.461185132160189e-06,0.0074580302740346,5.617026129778324e-05,-2.7981268120633516e-05,0.0074582939088973,4.789038354093833e-05,0.2193183178539026,2.208,-0.0001082653572161,0.2193182911315831,0.0015317563537551,1.5712899716608275
1.5745713338948564,1.5713760172593527,0.2174075624441615,-0.0008207131425218,0.2174060133433518,0.0016622271859351,-0.1972013172254629,0.0067290549564885,-5.23951265854636e-06,0.0074610581644578,5.8944741997413175e-05,-2.7534591334886413e-05,0.0072396194672336,5.53521652916389e-05,0.2194333035860157,2.242,-0.0001206078647434,0.2194332704409599,0.0016813370984158,1.571345960186205
1.574626686060148,1.5714319651244704,0.2175314610739603,-0.0008332216099485,0.2175298653029524,0.0017283685406625,0.0037206795735369,0.0019862268686933,-5.25988974084003e-06,0.0074664851808414,5.594786511764482e-05,-2.795921717475235e-05,0.0072437436948168,5.755467240406431e-05,0.2195908015166831,2.276,-0.0001334940038001,0.2195907609397313,0.0017503994771946,1.5714042484887956
1.574684240732552,1.5714726400669046,0.2243010455552274,-0.0008720609642468,0.2242993503041033,0.0014793903771944,0.2032908252632772,-0.0074768217257697,-5.6463736959746535e-06,0.0074731205605644,4.067494243420455e-05,-2.9228230914565584e-05,0.007469167628726,4.926369956057552e-05,0.2197910754973019,2.31,-0.0001443358144229,0.2197910281049554,0.0014646808536659,1.5714530223612226
1.5747335044321125,1.571497847964086,0.2178917821888907,-0.0008578764357868,0.2178900933807498,0.0010086188424527,-0.1924703713614652,-0.0141372833255754,-5.853680348464767e-06,0.007479862485593,2.520789718141181e-05,-2.869362393969569e-05,0.0072557396107237,3.358700745367815e-05,0.2199868670049869,2.344,-0.0001516465012357,0.219986814736721,0.000980417935952,1.5714856702784898
1.5747670914395662,1.571507704689885,0.2180783207648228,-0.0008659354103278,0.2180766015497079,0.000580961154013,0.0056017590370014,-0.01284257322642,-5.889739979190803e-06,0.0074865836801383,9.856725799117784e-06,-2.89103872228663e-05,0.0072619505343305,1.9346006428633268e-05,0.2201821867990651,2.378,-0.0001557601743574,0.2201821317055188,0.0005426889542819,1.5715037418206674
1.5747864374459948,1.5715028919154836,0.2248788466923713,-0.0008972891004353,0.2248770565485978,0.000159448236554,0.2042199978242779,-0.0126580455693379,-5.7595517457045904e-06,0.007493177283167,-4.8127744014525575e-06,-2.990424054089533e-05,0.0074884058853007,5.309626277250068e-06,0.2203803015003012,2.412,-0.0001567145317251,0.2203802457796959,0.0001109477506196,1.571507436380763
1.574791747072272,1.571485418688087,0.2184441660975295,-0.0008727739286253,0.2184424225458841,-0.0002437028341241,-0.1932336514967502,-0.0121066387591039,-5.459936618475913e-06,0.0074992904103338,-1.7473227396536117e-05,-2.9038356553530352e-05,0.007274132770612,-8.115304376332677e-06,0.2205616251170822,2.446,-0.0001546455427922,0.2205615709026492,-0.000299253856343,1.5714974712273468
1.5747836317678958,1.5714650303762938,0.218595085286837,-0.0008716029610884,0.2185933476111242,-0.0005198964251384,0.0045321077870124,-0.0082941018322626,-4.284235845514996e-06,0.0075035068768344,-2.03883117932957e-05,-2.896587202676317e-05,0.0072791587083836,-1.7312550957110372e-05,0.2206955602019848,2.48,-0.0001504958170939,0.2206955088892316,-0.0005774310669921,1.571478242772816
1.5747663192169388,1.5715167805477703,0.2252914905212555,-0.0008944031606914,0.2252897151320386,-0.0005457208271036,0.2010932502828378,-0.0007755075665227,-6.839694828878998e-06,0.0073934336397354,5.175017147651673e-05,-2.972010061628853e-05,0.0075021477657526,-1.817250354255173e-05,0.2207019956650723,2.514,-0.0001462818373593,0.2207019471870822,-0.000573976467036,1.5714591293564637
1.574748146713396,1.5715310330213172,0.2059880732101235,-0.0008140256519243,0.2059864647666376,-0.0146409034703577,-0.5796822015354938,-0.4232787580556795,-9.145874184058064e-07,0.0070991515825487,1.4252473546916278e-05,-2.543918652571101e-05,0.0068593555971649,-0.0004875420855629,0.2083530557922842,2.548,-0.0001483635045236,0.2083530029691273,0.0014797270125993,1.5715084042659833
1.5742606046278331,1.571512108218084,0.2067990626128718,-0.000716407975518,0.2067978216934963,-0.0001637557779196,0.0243540361185672,0.4347491799530956,1.2494464058224223e-06,0.0070922104395294,-1.8924803233177915e-05,-2.3841870327098572e-05,0.0068863675126682,-5.453067404725954e-06,0.2088404997434365,2.582,-0.0001539999379182,0.2088404429633001,0.0007605754049389,1.5715337314269675
1.5742551515604284,1.5716387561105485,0.2128164417175605,-0.0007360933114181,0.2128151687074037,-0.0001090501411488,0.1807020752158757,0.0016428119150396,-8.35329575680572e-06,0.007032371118995,0.0001266478924641,-2.450342502552741e-05,0.0070867451473191,-3.631369700257681e-06,0.2070335512009876,2.616,-0.0001503680690888,0.207033496594961,-0.0003335284131294,1.5715226249308103
1.574251520190728,1.5716885332924564,0.2060930736657486,-0.0007120900101898,0.2060918434601744,0.0001910972494149,-0.2019029444988565,0.0090134351520673,-8.063290806122093e-06,0.0070686437326215,4.97771819081283e-05,-2.373867973800924e-05,0.0068628582970789,6.363538405518288e-06,0.2082406359604064,2.65,-0.0001793314345407,0.208240558742602,0.0040503313356641,1.571657500964288
1.5742578837291337,1.5717432645180611,0.2059501663619158,-0.0007129068027557,0.2059489324769405,0.0012675201986839,-0.0042915106256084,0.0323250134915602,-7.24234507131747e-06,0.0070639857875189,5.4731225604731655e-05,-2.3888774596931324e-05,0.0068580989336531,4.2208422616174525e-05,0.2077805289697341,2.684,-0.0001884556416792,0.2077804435056716,0.0013759671928974,1.5717033206718116
1.5743000921517498,1.5718099671052883,0.2121445576711517,-0.0007433032309664,0.2121432554897644,0.0016002143188369,0.1860177570341121,0.0099908144190099,-7.713242731355088e-06,0.0072351017639077,6.67025872274074e-05,-2.4944588555064108e-05,0.0070643697295547,5.3287136817270485e-05,0.2078011646363519,2.718,-0.000199526046333,0.2078010688460987,0.0015971165261445,1.5717565046521322
1.5743533792885671,1.5717476585285666,0.2173679030385982,-0.0007731874110702,0.217366527903044,-0.0140969657421879,0.156857218241636,-0.4713867886193648,-8.403763077259015e-06,0.0074646243521449,-6.23085767219589e-05,-2.405268334822682e-05,0.0072383111416743,-0.0004694289592148,0.2193826492409867,2.752,-0.0002015890172076,0.2193825566216738,-0.0012398040000511,1.5717152191789303
1.5738839503293522,1.5717887257837753,0.2176192071527277,-0.0006719251179291,0.2176181698259999,0.0011785713601719,0.0075466700939787,0.4587248379087046,-8.049269321214477e-06,0.0074720049801029,4.106725520869326e-05,-2.2521793411148586e-05,0.0072466846003384,3.924642629372644e-05,0.2196983287541882,2.786,-0.0002108189297878,0.2196982276049631,0.0012219651244025,1.5717559106175731
1.573923196755646,1.571814596984354,0.2244059956735797,-0.0007016872234462,0.2244048986303354,0.0011798259555635,0.2038074630886474,3.767553728346751e-05,-8.233457197275272e-06,0.0074787305346635,2.587120057873094e-05,-2.3517602248096413e-05,0.0074726826489188,3.92882043202647e-05,0.2198996671984063,2.8200000000000003,-0.0002194779330051,0.2198995576698751,0.0011561109542641,1.57179440911235
1.5739624849599665,1.5718252177142575,0.2179947958902394,-0.0006902048497828,0.2179937032404662,0.0007162178682431,-0.1925285220222316,-0.0139221647843943,-8.285295404842074e-06,0.0074854556376484,1.0620729903543236e-05,-2.307487901885324e-05,0.0072591900288574,2.38500550124976e-05,0.2200952847670449,2.854,-0.0002246686949843,0.2200951700984464,0.0006815942443082,1.5718171062006856
1.5739863350149788,1.5718211748073092,0.2181800505089229,-0.0006959949741548,0.2181789403931372,0.0002951939439044,0.0055632017622694,-0.0126433610912517,-8.173781951353458e-06,0.0074920776361322,-4.042906948331648e-06,-2.321683694799191e-05,0.0072653585866737,9.829958332019384e-06,0.2202892750209674,2.888,-0.0002267125447349,0.2202891583593833,0.0002516251200328,1.5718254853171827
1.5739961649733107,1.5718039845082583,0.2249807499180096,-0.000719900764488,0.2249795981340514,-0.000117036535802,0.2042252074800811,-0.0123792936848821,-7.8970304424461e-06,0.0074983223037274,-1.7190299050673374e-05,-2.3962731557205085e-05,0.007491820649905,-3.8973166422096025e-06,0.2204827175115201,2.922,-0.0002256559889968,0.2204826020361683,-0.0001710196965624,1.5718197903612872
1.5739922676566689,1.5717825422771674,0.218533183148561,-0.0006984179407316,0.2185320670963933,-0.0004701386870249,-0.1936206237071677,-0.0106036682048918,-6.896099766895669e-06,0.0075030262712534,-2.1442231091128864e-05,-2.320485614426577e-05,0.0072771180017362,-1.565561827793216e-05,0.2206442474530693,2.956,-0.0002219043512165,0.2206441358672153,-0.0005331044027044,1.571802037984677
1.573976612038391,1.5717693236117862,0.218648279084831,-0.0006953627233128,0.2186471733579951,-0.0005740027044747,0.0034563344225246,-0.0031190395630547,-6.212595951174681e-06,0.0075030184791384,-1.321866538117611e-05,-2.3090498527947077e-05,0.0072809510793768,-1.9114290059008e-05,0.2207273296269981,2.99,-0.0002174109398584,0.2207272225547829,-0.0006226984002707,1.571781302127948
1.5739436257037205,1.5717869200128078,0.2184270447397973,-0.0006874540646375,0.2184259629271905,6.09429386165026e-05,-0.2051572784524218,0.0143399656116808,-4.129052552500004e-06,0.0074961571018974,1.7596401021613417e-05,-2.290410092002336e-05,0.0072735845281117,2.029399855929537e-06,0.2203583945139428,3.024,-0.0002185366171856,0.2203582861489655,0.000564532509028,1.5717880596194649
1.5739456551035764,1.5718271317692822,0.2181277540200533,-0.0006869547750757,0.2181266722960992,9.952051626237575e-05,-0.0089877093016222,0.0011584858151913,-2.6529733850000044e-06,0.0074807517745162,4.0211756474395344e-05,-2.2892124154875576e-05,0.0072636181356214,3.314033191537113e-06,0.2193834008464779,3.058,-0.000226141460842,0.2193832842925961,0.0011733378323529,1.5718271317692822
1.573948969136768,1.571999299429652,0.2243302122511229,-0.0007072317541549,0.2243290974258127,-4.9519877805933415e-05,0.1862600069390279,-0.0044756875095588,-1.1355732431699996e-05,0.0074250070346026,0.0001721676603698,-2.3549280399977032e-05,0.0074701589494255,-1.649011930937583e-06,0.2188023583975213,3.092,-0.0002632131860876,0.2188022000783722,0.0051702000111072,1.571999299429652
1.573947320124837,1.5720530805384527,0.2174168141323525,-0.0006850777974845,0.2174157347936743,0.0011250607916042,-0.2076095531162273,0.0352726927750791,-1.138360911379999e-05,0.0074616312861969,5.378110880061016e-05,-2.295319076645452e-05,0.0072399435253859,3.746452436041991e-05,0.2192578528177838,3.126,-0.000275050849222,0.2192576802971683,0.001546265095764,1.572050790057341
1.5739847846491974,1.5721064663413056,0.2173700682155185,-0.0006930741269612,0.2173689632957606,0.0015192288140321,-0.0014037812863058,0.0118368775503892,-1.0425452589300018e-05,0.007457859218478,5.3385802852856656e-05,-2.326694316413579e-05,0.0072383858764862,5.059031950727101e-05,0.2193681099546568,3.16,-0.0002867007814253,0.2193679226043322,0.0015758650572582,1.5721032663637478
1.5740353749687046,1.5721619304573504,0.2240400766013972,-0.0007256753320783,0.2240389013516901,0.0016507501620837,0.2003005521284876,0.0039495900315804,-1.112289167019999e-05,0.0074609266352418,5.546411604484548e-05,-2.43746562034669e-05,0.0074604947319922,5.4969980397390206e-05,0.2194941828232237,3.194,-0.0002990031031702,0.2194939791665799,0.0016605969969544,1.5721585642437463
1.5740903449491022,1.5722145333671504,0.2175982014628127,-0.0007167711297118,0.2175970209331884,0.0015501759663444,-0.1934497038613952,-0.0030202461182996,-1.1111922634400016e-05,0.0074662930195972,5.26029098000258e-05,-2.405998378920497e-05,0.007245980162913,5.162085967926888e-05,0.2196733037736379,3.228,-0.0003106542698138,0.2196730841153499,0.0015593962725706,1.572210492139623
1.5741419658087814,1.5722521706272814,0.217778012494858,-0.0007286052557177,0.2177767936686364,0.001164398598966,0.0053997306920497,-0.0115849059272768,-1.1484379073799992e-05,0.0074729051759218,3.763726013095159e-05,-2.440763760680674e-05,0.0072519667418808,3.877447334557083e-05,0.2198676523907167,3.262,-0.0003192922826481,0.219867420552121,0.0011422624334355,1.5722485294786563
1.5741807402821268,1.5722786821558574,0.2245117967867893,-0.00075983930252,0.2245105109803702,0.0015227179777248,0.2022157445024415,0.0107603417044677,-1.2008612773800002e-05,0.0074693056251936,2.6511528576023128e-05,-2.5496820503782716e-05,0.0074761993551475,5.0706508658238114e-05,0.2200690798505177,3.2960000000000003,-0.000324920751365,0.2200688399859436,0.0007281307781472,1.5722727762335686
1.5742314467907852,1.571948749598015,0.2064337037491804,-0.0007091231489575,0.2064324857864284,-0.016008277033402,-0.5428856768050722,-0.5264563066404468,-1.0036928289e-05,0.0071152034171679,-0.0003299325578425,-2.17858183510193e-05,0.0068742077316063,-0.0005330756252122,0.2084143279604741,3.33,-0.0002436242494934,0.2084141855691236,-0.009234451332496,1.5719652690041963
1.5736983711655728,1.5719493595443568,0.2068398145467065,-0.0006002574768885,0.2068389435591793,-0.0003833805239478,0.0121955194452287,0.4692161113950188,-8.493954657600003e-06,0.0070987703958925,6.099463418784979e-07,-1.994886926245381e-05,0.0068877369356326,-1.2766571447464516e-05,0.2088535345098156,3.364,-0.0002412006195803,0.2088533952309702,-0.0004223024769918,1.5719512063317127
1.5736856045941254,1.5719320751964303,0.2132879487267106,-0.0006162472777005,0.2132870584713022,-0.0004025362131759,0.1936376630631875,-0.0005752459227635,-8.41357864779998e-06,0.0071045959933517,-1.728434792647171e-05,-2.0477826509407963e-05,0.0071024591717787,-1.340445589875783e-05,0.2090246580053656,3.398,-0.0002382013316374,0.2090245222800082,-0.0004592927705827,1.5719359118824523
1.5736722001382266,1.571910682173475,0.2071467423798627,-0.0005957269733924,0.2071458857616109,-0.000574020238796,-0.1844206110164557,-0.0051496704390434,-7.505568981900024e-06,0.0071091255596613,-2.1393022955340516e-05,-1.977604940088624e-05,0.0068979581728005,-1.9114873951908696e-05,0.2091334039244245,3.432,-0.0002339703361679,0.2091332730459175,-0.000625335213941,1.571915088219828
1.5736530852642747,1.5718958272819787,0.207188830980597,-0.0005918876425909,0.2071879855400041,-0.0005143934098302,0.0012639219439743,0.0017905954644387,-6.787302320199976e-06,0.0071096794278764,-1.4854891496218771e-05,-1.965503672860973e-05,0.0068993600747796,-1.7129300547347184e-05,0.2090998608402633,3.466,-0.0002302820163171,0.2090997340352455,-0.0005243116615746,1.5718976286414976
1.5736359559637274,1.571924811647233,0.2133333152471484,-0.0006057866905322,0.2133324551417921,-0.0001401003354799,0.1845190470435846,0.0112400322627704,-6.092101867499999e-06,0.007111483020421,2.8984365254336456e-05,-2.0160520888053465e-05,0.0071039707906268,-4.66534117148365e-06,0.208886869820272,3.5,-0.000230691506212,0.2088867424341243,9.259112537079288e-05,1.5719007119259725
1.5736312906225558,1.5719887103365102,0.2172375587569904,-0.000615859796138,0.2172366857862832,-0.0149255522765987,0.1172445498451052,-0.4440075657993634,-4.209253950600024e-06,0.0072148316862291,6.389868927714203e-05,-1.8714886282423063e-05,0.0072339864237563,-0.0004970208908107,0.2128068647385222,3.534,-0.000255039226278,0.212806711912084,0.002824897881254,1.5719947810254182
1.5731342697317452,1.5720996753374898,0.2179345298984482,-0.0005095180307022,0.2179339342861364,4.267158667555812e-05,0.0209300643080431,0.4494962121103408,-7.322988401699986e-06,0.0072091199950238,0.0001109650009796,-1.697659660426319e-05,0.0072571999895649,1.4209638362960854e-06,0.2118745599787799,3.568,-0.0002594785287962,0.2118744010896424,0.0007875688010258,1.5720210070664924
1.5731356906955816,1.5723199076491563,0.224295794024672,-0.0005247090050273,0.2242951802817397,0.0005075861954734,0.1910289527394522,0.0139613996636013,-1.4517680980400025e-05,0.0073183520285488,0.0002202323116666,-1.754055423817638e-05,0.0074690293444675,1.6902620309267038e-05,0.216295696232605,3.6020000000000003,-0.0003192467422473,0.2162954606325913,0.0075463629598857,1.5722723009530566
1.5731525933158907,1.572385232792482,0.2173455862304241,-0.0005121236544358,0.2173449828802342,0.0011282686788653,-0.2087149487762116,0.0186391136153707,-1.1396025978099984e-05,0.007458466386209,6.532514332535655e-05,-1.719415876885819e-05,0.0072375875972063,3.757134700621556e-05,0.2192272069441107,3.636,-0.0003439817925337,0.2192269370790056,0.0027955476538204,1.5723653926899288
1.573190164662897,1.5724384613315412,0.217399650753946,-0.0005204190194244,0.2173990278542706,0.0015544957455454,0.0016235592649214,0.0127996116120147,-1.3312208403999974e-05,0.0074602555090603,5.322853905931347e-05,-1.7521804951689946e-05,0.0072393871649373,5.176470832666258e-05,0.2194276420639967,3.67,-0.0003561040063362,0.2194273531073601,0.0016159613029813,1.572419204201318
1.5732419293712236,1.572491354353008,0.224116568455305,-0.0005480995108501,0.224115898238183,0.0016340851967481,0.2017092402810498,0.0023900736096918,-1.319790126600004e-05,0.0074652701437469,5.28930214667156e-05,-1.8459382645238077e-05,0.007463058899631,5.441503705171381e-05,0.2195875346430779,3.704,-0.0003684311990945,0.2195872255598591,0.0016503399990274,1.5724741605232857
1.5732963444082753,1.5725300239816151,0.2176961193585184,-0.0005442435658316,0.2176954390489138,0.001302299621396,-0.1928062791827799,-0.0099635307913536,-1.3557176854099974e-05,0.0074717879359211,3.866962860721301e-05,-1.828498380865245e-05,0.007249257713766,4.336657739248962e-05,0.2197809696153941,3.738,-0.0003781728579821,0.2197806442577968,0.0012867193387521,1.572517008277266
1.5733397109856675,1.5725535924523306,0.2178808300324508,-0.0005541540611239,0.2178801253187318,0.0008915800222343,0.0055468670850574,-0.01233392189675,-1.3771973114000012e-05,0.0074785096670757,2.3568470715495948e-05,-1.8565524499301886e-05,0.007255407886645,2.968961474040244e-05,0.2199763312236757,3.772,-0.000384824713564,0.2199759946188858,0.0008621880567118,1.5725457191395549
1.5733694006004082,1.5725621463181083,0.224677783996956,-0.000578111882764,0.2246770402342745,0.0004818963975729,0.2041127316668217,-0.0123028115513933,-1.3816121172199978e-05,0.0074852270405236,8.553865777694016e-06,-1.9315785232623756e-05,0.0074817452730882,1.6047150039177894e-05,0.2201772055539848,3.806,-0.0003884129520657,0.2201768629555347,0.0004414729119143,1.5725604201875214
1.5733854477504474,1.5725562672153524,0.2182562783606357,-0.0005650912726308,0.2182555468153992,5.2768725701347695e-05,-0.1928380070967039,-0.0128867168730198,-1.3697949098200005e-05,0.0074918461146904,-5.879102755956822e-06,-1.882842164065577e-05,0.0072679096804011,1.7571985658548785e-06,0.2203692754674835,3.84,-0.0003887851961551,0.2203689325112205,4.553515942685205e-06,1.5725605718196023
1.5733872049490132,1.5725375074167909,0.2184332641839079,-0.0005659333391539,0.2184325310513352,-0.0003273865670793,0.0053148895877526,-0.0114160748582781,-1.3416656208000027e-05,0.0074981031019971,-1.8759798561474025e-05,-1.8810431297738356e-05,0.0072738033749406,-1.0901972683741158e-05,0.2205511386944605,3.874,-0.0003862844162209,0.2205508004151717,-0.0003841911536653,1.5725477782541852
1.5733763029763297,1.5725145939348828,0.2252123105346871,-0.0005810417523486,0.2252115609973306,-0.0006129837110634,0.2035749654888655,-0.0085764908103356,-1.2461119647399969e-05,0.0075028874849744,-2.291348190808229e-05,-1.927678879822452e-05,0.0074995451662488,-2.0412357578414307e-05,0.220692243944417,3.908,-0.0003815637573542,0.2206919140936548,-0.000675979084833,1.5725252681506603
1.573355890618751,1.5725005486498111,0.2186646120635715,-0.0005596854194771,0.2186638957879042,-0.0005801769079795,-0.1966275817151842,0.0009851892818006,-1.17124932419e-05,0.0075030919018057,-1.4045285071651035e-05,-1.857169083476968e-05,0.0072815078978072,-1.9319891035718407e-05,0.2207080940261836,3.942,-0.0003771021206303,0.2207077718673751,-0.0006107896627177,1.5725049288548918
1.5733365707277154,1.572518065958315,0.2185692892816871,-0.000555218713875,0.2185685840858232,-0.0002259790431597,-0.0028625460025345,0.010636572517112,-9.677997768600035e-06,0.0074963714034073,1.7517308503745e-05,-1.846590133952284e-05,0.0072783339081085,-7.525102137218022e-06,0.2205007232280066,3.976,-0.0003763076248624,0.2205004021235458,-5.994851522769036e-05,1.5725029325693347
1.5733290456255782,1.5726584524639358,0.2249248344737111,-0.0005696707547179,0.2249241130654015,0.0002639172926825,0.1908572129736928,0.0147116016769459,-1.0464294115399965e-05,0.0074712898708846,0.0001403865056208,-1.9007582965855937e-05,0.0074899728699206,8.78844584633054e-06,0.2201796289122405,4.01,-0.0003873075183679,0.220179288264855,0.0015750028511159,1.5725553801642769
1.5733378340714246,1.5728624656556554,0.205679752313157,-0.00052273602439,0.2056790880440945,-0.0154038748074116,-0.5779303952118346,-0.4705042672700965,-1.3607496111599996e-05,0.007361073449762,0.0002040131917195,-1.5654723534623087e-05,0.006849117786312,-0.0005129490310868,0.2174035972071632,4.044,-0.0004164713338634,0.2174031982980989,0.0047029313198664,1.5727119877772284
1.5728248850403377,1.5730842934700018,0.2065505866980024,-0.0004189996083794,0.2065501617153015,-7.602050919694833e-05,0.0261511827280915,0.4602959248713112,-1.6337540224700047e-05,0.0070933906730067,0.0002218278143464,-1.3948236707476988e-05,0.0068781203944451,-2.53148295625838e-06,0.2086138633637201,4.078,-0.0004605190325879,0.2086133550608817,0.0087645539175634,1.5730038474226833
1.572822353557381,1.5731199892598933,0.2122107745591889,-0.0004299444144061,0.2122103390195949,0.0014795533083525,0.169975611447041,0.0467139284549388,-1.7855921322399988e-05,0.0070660313937027,3.569578989148781e-05,-1.4495604024792392e-05,0.0070666039248261,4.926912516813875e-05,0.2077329486784059,4.112,-0.0004763375683972,0.2077324025498818,0.0025678638356548,1.5730893572884106
1.5728716226825497,1.5731696027720496,0.2059062994179328,-0.0004273161896923,0.205905856014008,0.0014016995783771,-0.1893235778154983,-0.002337949849109,-1.785382303319999e-05,0.0070661780179639,4.961351215637677e-05,-1.4393894424042123e-05,0.0068566646617702,4.667659595996021e-05,0.2078095678089281,4.146,-0.0004868034047318,0.2078089976285402,0.0014870067885072,1.573138874614468
1.5729182992785096,1.573219464875892,0.2059951091892191,-0.0004371156254198,0.2059946454153804,0.0014793463979497,0.0026669600986887,0.0023317363235016,-1.7660922130899976e-05,0.0070707678041761,4.986210384227974e-05,-1.4729154709679848e-05,0.0068596213219039,4.9262235051728e-05,0.2079320981117429,4.18,-0.00049733383116,0.2079315033471644,0.0014793785183062,1.5731881379191277
1.5729675615135612,1.5732282674305085,0.2123896030509183,-0.0004611473176992,0.2123891024211883,0.0013923011719276,0.1920268426936683,-0.0026139707514141,-1.7920923878299972e-05,0.0072337830118452,8.802554616327285e-06,-1.5524536362211324e-05,0.0070725567424893,4.636362902519232e-05,0.2081145080706664,4.214,-0.0005073693996421,0.2081138896032356,0.001385138747571,1.5732342630394216
1.5730139251425863,1.5730539097225278,0.2172224525785014,-0.0004817117570966,0.2172219184566842,-0.0161669513485396,0.1451306164439382,-0.5273048804945142,-1.8375162867200032e-05,0.0074725672266753,-0.0001743577079804,-1.4098367428156185e-05,0.0072334938443844,-0.0005383594799063,0.2194453978348115,4.248,-0.0004948762243486,0.2194448398308815,-0.0054898489195706,1.5730514510704
1.57247556566268,1.5730636719165385,0.217967481656488,-0.0003660192950908,0.2179671743395024,0.0002308837846575,0.0223732455851831,0.492427481477392,-1.7618316798800036e-05,0.0074840419321544,9.762194010720648e-06,-1.2220835989747224e-05,0.007258306850998,7.688430029095805e-06,0.2200823796813645,4.282,-0.0004978001190856,0.2200818166983672,0.0002029579251941,1.5730582095693089
1.5724832540927092,1.5730598515099476,0.2247804528385352,-0.0003791881020638,0.2247801330070792,0.0002146592147337,0.2045937291906069,-0.0004872243220359,-1.749088953470002e-05,0.0074906679235225,-3.820406590859804e-06,-1.2658347565995912e-05,0.0074851783761347,7.148151850633333e-06,0.2202821838716856,4.316,-0.0004995117078303,0.2202816175247785,0.0001717233234556,1.57306392795598
1.5724904022445598,1.573043633005445,0.2183535870271113,-0.0003699072741961,0.2183532737016204,-0.0001718222764248,-0.1929989733160331,-0.0116060507855442,-1.7241835206299933e-05,0.0074970156204861,-1.6218504502729658e-05,-1.230160955578003e-05,0.0072711640419383,-5.7216818049488085e-06,0.2204699348630857,4.35,-0.0004983404249999,0.2204693716491115,-0.0002175302798151,1.573056684197662
1.5724846805627548,1.573021098788625,0.2185219337209127,-0.0003689421548766,0.2185216222684001,-0.0005007102969922,0.0050554562703128,-0.0098765171341555,-1.647825343740008e-05,0.0075022219065314,-2.2534216819858344e-05,-1.2229610872058264e-05,0.0072767701160982,-1.667365288984257e-05,0.2206380727688236,4.384,-0.0004946609668884,0.2206375182639356,-0.000552522513434,1.5730382851979647
1.572468006909865,1.573005656251421,0.2252687224515783,-0.0003765770684549,0.2252684076933065,-0.0006271018578592,0.2026062681881557,-0.0037955423683785,-1.5516469273199975e-05,0.0075035739110828,-1.5442537204091167e-05,-1.2466333374704851e-05,0.0075014380989033,-2.0882491866713877e-05,0.2207249327645483,4.418,-0.0004899349710448,0.2207243890186096,-0.0006694762612881,1.5730159916384638
1.5724471244179985,1.5730185117164437,0.2186375426918046,-0.0003609261718677,0.2186372447837036,-0.0003900948965393,-0.1991345273205324,0.0071173261657638,-1.4124263952199957e-05,0.0074976786969922,1.2855465022720836e-05,-1.1976058118012612e-05,0.0072806203217348,-1.2990160054759949e-05,0.2206049845726711,4.452,-0.0004873291471723,0.2206044463029038,-0.0003184778858184,1.573005386324866
1.5724341342579435,1.57312607376387,0.2184422192683119,-0.000357766137016,0.2184419262922218,0.0001186309928869,-0.0058655682730535,0.0152770537365258,-1.13446487202e-05,0.0074865833947904,0.0001075620474264,-1.1932481127672012e-05,0.0072741161143941,3.950412063136177e-06,0.2203734832209335,4.486,-0.0004914036202448,0.2203729353378247,0.000624912937793,1.5730261959256946
1.5724380846700066,1.5734189687159532,0.2247512164940277,-0.0003689869138602,0.2247509136003738,0.0002879636966137,0.1894593761476204,0.0050850661779803,-1.93190753573e-05,0.0074318593074026,0.000292894952083,-1.2327778594172935e-05,0.007484205356187,9.589191097236772e-06,0.2194542212638157,4.52,-0.0005183658661742,0.2194536090551635,0.0039700119154802,1.57315839732248
1.572447673861104,1.5735502613400547,0.2177664105731347,-0.0003596077597798,0.2177661136544577,0.0001278978425209,-0.209753931558347,-0.0048067824051876,-2.2724244188800048e-05,0.0074510376665072,0.0001312926241014,-1.1994867754061609e-05,0.007251611551713,4.258998155948213e-06,0.2183867326352644,4.554,-0.0005822005687203,0.2183859565851345,0.0091245675400538,1.573462245421564
1.57245193285926,1.5736049757997048,0.2174154347013037,-0.0003599541477366,0.2174151367301007,0.0012035113482637,-0.0105398159709017,0.0323007058781602,-2.2115901542999936e-05,0.0074571464964566,5.471445965010702e-05,-1.2136029602532602e-05,0.0072399238034802,4.007692789718132e-05,0.2192951827219715,4.588,-0.0006054918113428,0.2192943468143427,0.0028578409825739,1.5735574115262836
1.572492009787157,1.5736560382484226,0.2239584471764149,-0.000379762347859,0.2239581251980606,0.001472254893403,0.1964868611144508,0.008070376730911,-2.238164854990001e-05,0.0074601049041203,5.1062448717775766e-05,-1.2833514072869557e-05,0.0074578052481916,4.902608795032127e-05,0.2193668582357467,4.622,-0.0006174355147426,0.2193659893092074,0.0016079372468204,1.5736109558366027
1.5725410358751073,1.573706107668994,0.2174456256873352,-0.0003793791651164,0.2174452947341142,0.0014883049555552,-0.1955802248972881,0.0004819838484144,-2.2276753664800054e-05,0.007465074534854,5.006942057139696e-05,-1.2817238559093264e-05,0.0072409279906857,4.9560555019989576e-05,0.2194868501560616,4.656,-0.0006286872697021,0.219485949763866,0.0014932546043455,1.5736606812149274
1.5725905964301274,1.5737421486541303,0.2175885946610503,-0.0003904123988902,0.2175882444084001,0.0014327984158723,0.004293362574027,-0.0016668630535398,-2.262429612650001e-05,0.007471565981389,3.604098513632081e-05,-1.317806982453668e-05,0.0072456882177651,4.771218724854976e-05,0.2196636876171856,4.69,-0.0006397273196133,0.2196627560751641,0.0014400350290789,1.5737086343813955
1.5726742801194509,1.5737633082486204,0.2179586575282492,-0.0004093159449307,0.2179582731900165,0.0006323080552283,-0.1925143204527584,-0.0134509679372865,-2.2831923354099952e-05,0.0074782754127948,2.1159594490116614e-05,-1.3711123532877903e-05,0.0072580103447417,2.1055858239105164e-05,0.2200586357272513,4.724,-0.0006529961816459,0.2200576668833099,0.000597528027431,1.5737637047294044
1.57269533597769,1.5737696485123358,0.2181439385932271,-0.0004142570935743,0.2181435452540965,0.0002224155043723,0.0055639959452795,-0.0123090856112931,-2.287009317690004e-05,0.0074849844824083,6.340263715376437e-06,-1.3826156576162955e-05,0.0072641799972566,7.40643629559834e-06,0.2202525957489653,4.758,-0.0006548808613338,0.2202516221625043,0.0001784919799217,1.5737696485123358
1.5727027424139857,1.5737617876731294,0.2249444888552976,-0.000428837427219,0.2249440800839891,-0.000181723551762,0.2042207285907063,-0.0121363079920231,-2.274696842589994e-05,0.0074915996834975,-7.860839206452752e-06,-1.4262256480701105e-05,0.0074906379011358,-6.051394273676181e-06,0.2204473569829009,4.792,-0.0006537270547002,0.2204463876811876,-0.000236061237431,1.5737617876731294
1.572696691019712,1.5734587758657683,0.2059963245242962,-0.0003914678099458,0.2059959525584737,-0.0175708320278323,-0.5690139438739145,-0.5221954497318394,-2.118514957550005e-05,0.007163807468868,-0.000303011807361,-1.103329673843077e-05,0.00685966863567,-0.0005851087065268,0.2081356049679296,4.8260000000000005,-0.0005565207340298,0.2081348609436646,-0.0087573705756541,1.57347016723296
1.5721115823131853,1.5734342721954195,0.2071160795288214,-0.0002724104879862,0.2071159003840968,-0.0009820816498207,0.0336262764121669,0.4981606720123585,-1.847376877189995e-05,0.0071083287841978,-2.4503670348785533e-05,-8.962759861094385e-06,0.0068969596243658,-3.2703318939031335e-05,0.209134960648253,4.86,-0.0005519652709132,0.2091342322521256,-0.0010378233101999,1.5734356077167304
1.572078878994246,1.5734177685730169,0.2134630763036326,-0.0002737774629352,0.213462900736665,-0.000532342632934,0.190600503748086,0.0135056761827834,-1.7639266501400007e-05,0.007109858282518,-1.650362240268599e-05,-9.058183059531037e-06,0.0071083146693265,-1.7727009676704596e-05,0.2090840288795713,4.894,-0.0005481799476349,0.2090833102647325,-0.0005243682276111,1.573418146254751
1.5720611519845695,1.5734276230147712,0.2070451224113476,-0.0002618758164007,0.207044956797761,-5.360883030784928e-05,-0.1927313481166666,0.0143763904692559,-1.6433068796899977e-05,0.0071043363969233,9.854441754386656e-06,-8.718577193844906e-06,0.0068945970637527,-1.7851740492513812e-06,0.2088765027833275,4.928,-0.0005490895915285,0.2088757810652395,0.0002090038014195,1.5734251060813382
1.5720593668105205,1.5735213750563466,0.2067844765764368,-0.0002611769990845,0.2067843116379143,0.0003783627633464,-0.0078272022495755,0.012972119929559,-1.349452936330001e-05,0.0070947715422324,9.375204157535678e-05,-8.74483418659687e-06,0.0068859175172095,1.2599480019437338e-05,0.2084917233479868,4.962,-0.0005633945411306,0.2084909621331449,0.0022061069835664,1.573498569443891
1.5720719662905396,1.5738255732071984,0.2127537354038634,-0.0002713969941213,0.2127535623014775,-3.743256323325924e-05,0.1792570218446419,-0.0124863461435353,-2.0085468989499995e-05,0.0070481124575729,0.0003041981508518,-9.037488815387732e-06,0.0070846936250578,-1.2465043556675328e-06,0.2062323667859624,4.996,-0.0006139822573461,0.2062314528289208,0.0082552537377294,1.5737734693933574
1.572070719786184,1.5742859711296922,0.2172068314352658,-0.0002768067887148,0.2172066550549262,-0.016528425765487,0.133726607549624,-0.495225021088703,-3.0344699041200108e-05,0.0070989479824848,0.0004603979224937,-7.231636739431995e-06,0.0072329837803529,-0.0005503965779907,0.2106935228821758,5.03,-0.0007227126198092,0.2106922833683547,0.0136043460392471,1.5742264941164643
1.5715203232081931,1.57459150941034,0.2176633735170728,-0.0001575874879652,0.2176633164706823,0.0003911468448515,0.013709972426636,0.5080952735837432,-2.5152849297799916e-05,0.0073615974674199,0.0003055382806478,-5.299352515946125e-06,0.0072481884007906,1.3025189933557614e-05,0.2193879193714629,5.064,-0.0008321053935049,0.2193863413404617,0.0108916343446132,1.57458918554014
1.5715333483981269,1.5746373666186364,0.2239935401535308,-0.0001650880631311,0.2239934793167935,0.0015164799456239,0.1900950941879269,0.0337937868099822,-3.068975427370012e-05,0.0074597589181083,4.585720829641815e-05,-5.690382374727347e-06,0.0074589827157429,5.049878218927883e-05,0.2194190410140028,5.098,-0.0008408039617593,0.2194174300464813,0.0011743529697432,1.5746282914940324
1.571583847180316,1.5746880687394964,0.2175176951606003,-0.000171299601422,0.2175176277096327,0.0014858755815599,-0.1944698196075232,-0.0009190499718922,-2.965364304089997e-05,0.0074640564220597,5.070212086000225e-05,-5.887957276674148e-06,0.0072433368550139,4.947965686594725e-05,0.2195751352175076,5.132,-0.0008524061693451,0.2195734806608238,0.0015049734897938,1.5746784071112423
1.571633326837182,1.5747255562655584,0.2176841021506176,-0.0001822015814307,0.2176840258992475,0.0012059662562763,0.0049972069074288,-0.0084056854439539,-2.9961707051000003e-05,0.0074703715309231,3.748752606202999e-05,-6.217350441998978e-06,0.0072488779348434,4.015867633400117e-05,0.2197692267458649,5.166,-0.0008618861164452,0.2197675366763655,0.0011924242429564,1.574718114838533
1.571673485513516,1.574747642406466,0.2244730957843145,-0.0001968985078134,0.2244730094286875,0.0008036071413973,0.2038736826935987,-0.0120828563026703,-3.019667691179996e-05,0.0074770673006573,2.208614090748462e-05,-6.661360553890422e-06,0.0074749511212399,2.6760117808533048e-05,0.2199700943745723,5.2,-0.0008683310218847,0.2199683805013681,0.0007723123256902,1.5747438328389785
1.5717002456313245,1.5747544449683384,0.2180597407479118,-0.0001971082802867,0.218059651662962,0.00035077474449,-0.1925932443364164,-0.0135985704776964,-3.025648336760006e-05,0.0074837810329472,6.802561872465417e-06,-6.6106080055243015e-06,0.0072613863578432,1.1680798991520191e-05,0.2201648197670792,5.234,-0.0008713616085754,0.2201630954361279,0.0003085221634391,1.574754106627021
1.571711926430316,1.5747466065483786,0.218243220461342,-0.0001998233851677,0.2182431289822263,-6.001061347348845e-05,0.0055099013042107,-0.012335896635543,-3.015150686259981e-05,0.0074904222797732,-7.838419959771414e-06,-6.651354123004552e-06,0.0072674961978801,-1.9983534286671658e-06,0.2203568945231215,5.268,-0.0008712973103144,0.2203551719494487,-0.0001123610372512,1.5747503650044803
1.5717099280768874,1.5747256857435246,0.2250421857962828,-0.0002055988008443,0.2250420918786122,-0.000455722549801,0.2041731331814041,-0.0118832413311588,-2.9884251129200104e-05,0.007496784307804,-2.0920804854052125e-05,-6.7942146931171226e-06,0.0074939017070061,-1.5175560908375908e-05,0.2205447088747782,5.302,-0.0008682198154879,0.2205429999048092,-0.0005201627920651,1.5747330435835047
1.571694752515979,1.5746991937355117,0.2185803575689025,-0.0001963781889448,0.2185802693532885,-0.0006967207014161,-0.1940488957171264,-0.0072371817301836,-2.915573005009991e-05,0.0075020151929587,-2.649200801307927e-05,-6.459461143736733e-06,0.0072787230407036,-2.320079935715924e-05,0.2206842374132307,5.336,-0.0008631299643341,0.2206825494898131,-0.0007673618710827,1.5747074904331977
1.571671551716622,1.5746805532495487,0.2186618078076767,-0.0001913782391895,0.2186617240581692,-0.0006469814769253,0.0024459531163441,0.0014936704051319,-2.8111118475300035e-05,0.0075035688845468,-1.8640485962784226e-05,-6.298963176697724e-06,0.0072814354753581,-2.1544483181612507e-05,0.220711710665733,5.37,-0.0008581829267533,0.2207100422433435,-0.0006877189750742,1.5746845893913275
1.5716500072334405,1.574690412345615,0.2251993740905816,-0.0001922482770825,0.2251992920312798,-0.000227176350318,0.1963233117989439,0.012606760558777,-2.6718796271000105e-05,0.0074978851342635,9.85909606598945e-06,-6.378142347814476e-06,0.0074991364448181,-7.56497246559018e-06,0.2205064457924147,5.404,-0.0008568655135859,0.2205047809402207,-7.07210874046644e-05,1.5746822343791171
1.5716424422609747,1.574802468621952,0.2183234711593931,-0.0001847268435144,0.2183233930092688,0.0003120715493408,-0.2064835715071597,0.0161936306203861,-2.343057413200004e-05,0.0074871117038719,0.0001120562763372,-6.193677956750121e-06,0.0072701689513309,1.0391982593049854e-05,0.2202054610019529,5.438,-0.0008664648101987,0.2202037563117743,0.0014685950279893,1.5747311385935492
1.5716528342435678,1.5752254613919137,0.2180237921855024,-0.0001867389791623,0.2180237122138341,4.743832301753789e-05,-0.0089993685853084,-0.0079469437334323,-2.8236640485099912e-05,0.0074331131324878,0.0004229927699617,-6.228634999660767e-06,0.0072601896082599,1.579696156484012e-06,0.2183581642426035,5.472,-0.0009194736247605,0.2183562283509521,0.0082898296432248,1.5750071899206686
1.5716544139397242,1.5756195362662562,0.2241876970692375,-0.0001923725572758,0.2241876145330232,0.0007775369099982,0.1851022487608132,0.0219248824919146,-4.0217919406500095e-05,0.0073879173866241,0.0003940748743425,-6.507272812545235e-06,0.007465447476165,2.589197910294328e-05,0.2189244004077292,5.506,-0.0010218499704051,0.218922015604922,0.0137161168985285,1.5754639366133896
1.5716803059188271,1.5755560924272636,0.2062909501625869,-0.0001823568696499,0.2062908695627486,-0.0217915483332959,-0.5374398470465647,-0.6777503076064327,-3.3521693038400004e-05,0.0070933441851146,-6.3443838992594e-05,-3.5842830450126254e-06,0.006869487554609,-0.0007256585594987,0.207489667727163,5.54,-0.0010047343375072,0.2074872350831239,0.0052475500939625,1.5756386800315183
1.5709546473593283,1.575434333299305,0.2059057811364423,-3.2599119353088174e-05,0.2059057785558868,-0.0039542737016036,-0.0115666374217574,0.5356538928436121,-3.444764003409989e-05,0.0070670516322246,-0.0001217591279585,-6.383596479382789e-07,0.0068566624771763,-0.0001316773142634,0.2078613052064303,5.574,-0.0009755645365329,0.2078590158640125,-0.0044742449748039,1.5754896876738576
1.570822970045065,1.5753532882082373,0.2122519482168785,-5.655081754421388e-06,0.2122519481415436,-0.0035534037222042,0.1905755880010862,0.0120381375194994,-3.31601830593001e-05,0.007071425550242,-8.104509106776625e-05,2.25484385732055e-07,0.0070679898679031,-0.0001183283439494,0.2079904667841266,5.608,-0.0009519884295995,0.2079882881104337,-0.0034915215417506,1.5753734200065173
1.5707046417011157,1.575304521490266,0.2061562402111731,1.8901454190806216e-05,0.2061562393446823,-0.0012770739193293,-0.1830542944656288,0.0683582523385872,-3.284257332149981e-05,0.0070770429989991,-4.8766717971382434e-05,7.71143312739383e-07,0.0068650027551928,-4.252656151366719e-05,0.2081485292747787,5.642,-0.0009438169995116,0.2081463894683855,-0.0012832985959106,1.5753306861632734
1.570662115139602,1.5752416272634335,0.2063277871518485,2.769159376382157e-05,0.2063277852935811,-0.0015976027878714,0.0051515597800418,-0.0096254915478124,-3.247037679850011e-05,0.0070833830771992,-6.289422683236623e-05,1.1006405874862097e-06,0.0068707152231945,-5.320017283612089e-05,0.2083324833223826,5.676,-0.0009334003769611,0.208330392336325,-0.0016217504352313,1.5752766818737802
1.570608914966766,1.5751746037434535,0.2127640442685997,3.9874498263441016e-05,0.2127640405321234,-0.0020521483488018,0.1932809944970353,-0.0136500168447551,-3.166578107219992e-05,0.0072139125112017,-6.702351998000289e-05,1.5655207085350735e-06,0.0070850424998105,-6.833654001510149e-05,0.2085227203073713,5.71,-0.0009197559654143,0.2085206918589862,-0.0020877426542442,1.575207160043394
1.5705405784267508,1.5748275571168613,0.2178806108884547,5.572261007790029e-05,0.2178806037629714,-0.0209515008591372,0.1536506492448945,-0.567548123433495,-3.237107220360009e-05,0.0074910707381726,-0.0003470466265922,4.382073727337029e-06,0.0072554228721075,-0.0006976849786092,0.2203285219167836,5.744,-0.0008933024855941,0.2203267110014213,-0.0107030232519832,1.5748507493691029
1.5698428934481414,1.5748084225658807,0.2183472317656374,0.0002081795003966,0.2183471325229909,-0.0008220464412401,0.0140126389544342,0.6044881206575695,-3.057398046839993e-05,0.0074957809375379,-1.913455098057071e-05,7.027396776183907e-06,0.0072709594215847,-2.7374146493297503e-05,0.2204615091140654,5.7780000000000005,-0.0008873549682079,0.2204597233102035,-0.0008835893949776,1.57482132584225
1.569815519301648,1.5747817544358356,0.2251370725517558,0.0002208160923632,0.2251369642627081,-0.0006538390604013,0.2038991227062602,0.0050512726978623,-2.996335669619996e-05,0.0075013217725411,-2.6668130045148782e-05,7.430153397864481e-06,0.0074970608338665,-2.177284071136487e-05,0.2206330923167121,5.812,-0.0008827484068452,0.2206313263806502,-0.0007209970431031,1.5747973166407148
1.5697937464609368,1.5747615213443276,0.2186396177038374,0.0002192037442116,0.2186395078191466,-0.0006960702041245,-0.1951187642017558,-0.0012682025142095,-2.8768018929199984e-05,0.007503779055354,-2.023309150800401e-05,7.379360044522308e-06,0.0072806955297019,-2.3179137797346707e-05,0.2207237921255112,5.846,-0.0008775831902119,0.2207220475122731,-0.0007521186020133,1.5747722710912675
1.5697705673231397,1.5747682908822729,0.218641602666262,0.0002242736555256,0.2186414876408387,-0.0004163722940545,5.960848122073288e-05,0.0083993366387388,-2.7868634285200004e-05,0.0074990849074799,6.769537945316984e-06,7.5142824992719615e-06,0.0072807614910709,-1.3865197392015638e-05,0.220614625421611,5.88,-0.0008744708533695,0.2206128923037915,-0.0003645722967959,1.5747601308337844
1.5697567021257477,1.5748515191757355,0.2250714450620063,0.0002339897844573,0.2250713234312192,0.000180483330813,0.1930883602325612,0.0179235923383666,-2.450275116960008e-05,0.0074897488318204,8.322829346263383e-05,7.764700049787742e-06,0.0074948750985734,6.010094916075737e-06,0.2203751642863961,5.914,-0.000878331530166,0.2203734139318515,0.0006554328442283,1.5747819567474972
1.5697627122206634,1.575243118256766,0.218154621965587,0.0002254877565496,0.2181545054318609,0.0004188954130635,-0.207712405297877,0.0071595219895032,-2.6947542854999923e-05,0.007444581667398,0.0003915990810305,7.45358016449025e-06,0.0072645450876522,1.3949217255015967e-05,0.219513835028528,5.948,-0.0009096845948607,0.219511950114042,0.0047588486374095,1.574940426407123
1.5697766614379185,1.5755565936130638,0.2178158782037639,0.0002220992667173,0.2178157649702901,0.0003467678033868,-0.0101724853400332,-0.0021659942845852,-3.68393874599002e-05,0.0074285754501787,0.0003134753562976,7.3495397444632625e-06,0.0072532650206137,1.1547367852782207e-05,0.2179504072189236,5.982,-0.0009994051045288,0.2179481158356998,0.0132548555601078,1.5753818130972743
1.5697882088057713,1.5755875430641333,0.2239980787965597,0.0002258164545147,0.223997964971735,0.0013640653731275,0.1856516694533259,0.0305494765687889,-3.854122616319994e-05,0.007459199630642,3.0949451069517415e-05,7.345663261064778e-06,0.0074591324063249,4.542337692514664e-05,0.2194145029817808,6.016,-0.0010429480177243,0.2194120242333455,0.005040680536549,1.5755496677591416
1.5698336321826964,1.5756356523639052,0.2173751868684308,0.0002092658889003,0.2173750861388512,0.0013608641558242,-0.1988856434873518,-9.613265174928928e-05,-3.724564337319997e-05,0.0074593130216428,4.810929977194789e-05,6.8000605862611575e-06,0.0072385905280547,4.5316776388948375e-05,0.2193609248340405,6.05,-0.001053811458359,0.2193583935605286,0.0015220629482307,1.5756003524553177
1.5698789489590854,1.5756835124905118,0.2174389453777739,0.0001994736411528,0.2174388538814188,0.0014025573521151,0.0019146699502405,0.0012520479366616,-3.7080542138599954e-05,0.0074638670935521,4.786012660651373e-05,6.468902847393989e-06,0.0072407139907381,4.670515982543312e-05,0.2194791353443863,6.084,-0.0010646552829692,0.2194765530999789,0.0014060124491637,1.5756471726698749
1.5699256541189108,1.575547383057241,0.2241748502275398,0.0001951828920759,0.224174765257329,0.0013712830642229,0.2022794249178968,-0.0009391678045686,-3.702808436319995e-05,0.0074716390224782,-0.0001361294332706,6.324531166287716e-06,0.0074650198327907,4.5663726038625006e-05,0.2196595619060606,6.118,-0.0010756057384006,0.2196569284339968,0.0013774190989936,1.5756930407258714
1.5699713178449497,1.575336421818638,0.2177596136051781,0.0001796536097814,0.2177595394972559,-0.0056191228603112,-0.1926497484192713,-0.209922099835863,-3.553574600079993e-05,0.0074789626579883,-0.0002109612386032,6.656407184556948e-06,0.0072513920673544,-0.0001871167912483,0.2199141266656541,6.152,-0.001035537404684,0.2199116885693001,-0.0056417511812506,1.5755051704115357
1.569784201053701,1.5751106374477617,0.2179468227546571,0.0002205895518598,0.2179467111224657,-0.0061941288753857,0.0056218963807526,-0.0172674479001345,-3.38656759618001e-05,0.0074856730637633,-0.0002257843708763,8.089636730058442e-06,0.0072576246763513,-0.0002062644915503,0.2201089711292893,6.186,-0.0009907772137931,0.2201067412236775,-0.0062319887762864,1.5752976451852854
1.5695779365621507,1.575055258896948,0.2247463872200762,0.0002738287352852,0.2247462204049273,-0.0068118428738662,0.2041911250876598,-0.0185499699243397,-3.245540888920009e-05,0.0074907580192677,-5.537855081350074e-05,9.962685985395484e-06,0.007484048047272,-0.0002268343676997,0.2203084958586902,6.22,-0.0009413671517968,0.2203064846422003,-0.0068575239980855,1.5750692896361491
1.569351102194451,1.5750335950501428,0.218322986944266,0.0003155256417362,0.2183227589415166,-0.0004406896333958,-0.1928949031774827,0.1913259231372484,-3.221105446020011e-05,0.0074966235416269,-2.166384680513112e-05,1.0555850198359748e-05,0.0072701478018962,-1.467496479208297e-05,0.2204372634453099,6.254,-0.0009382841788572,0.2204352665479293,-0.0004949517457014,1.5750528077430173
1.5693364272296588,1.5750065692750712,0.218491993351915,0.0003189762527963,0.2184917605152272,-0.0006111848955165,0.0050752674969652,-0.0051199778414606,-3.149952029089971e-05,0.0075018974102203,-2.702577507163184e-05,1.0691447423832182e-05,0.0072757755232199,-2.035245702070032e-05,0.2206104445615174,6.288,-0.000934067489523,0.2206084671257097,-0.0006743333543075,1.5750303524423188
1.5693160747726382,1.5749313239766476,0.2252512112161349,0.0003334284391537,0.2252509644370292,-0.0007391918963775,0.2029795154420407,-0.0038440540799096,-2.984452713130021e-05,0.0072699804285234,-7.524529842362072e-05,1.1190843173319825e-05,0.0075008569852414,-2.461509014937136e-05,0.2207202203399016,6.322,-0.0009286326645025,0.2207182668205537,-0.0008026779613685,1.5750036232662052
1.5692914596824887,1.574849349305632,0.2062234110340736,0.0003103387119402,0.2062231775247689,-0.0223944200401264,-0.5714054108727123,-0.6503071514639321,-2.698166325190016e-05,0.0071013305570029,-8.197467101545008e-05,1.2890593845792194e-05,0.0068672273297396,-0.0007457341873362,0.2082886441910992,6.356,-0.0008473897432444,0.2082869204477068,-0.0041724260991194,1.5748646814771046
1.5685457254951527,1.574948064678232,0.2069928035366955,0.0004658578793993,0.2069922793062998,-0.0004348183880261,0.0231048799586154,0.6594474970600701,-2.3871050446199697e-05,0.00709534003884,9.871537259997788e-05,1.5558704857727333e-05,0.0068928427980189,-1.4479452321269905e-05,0.208888230083723,6.39,-0.0008467994026489,0.2088865136821476,-0.0004355515352053,1.5748501776109822
1.5685500876360383,1.5753338542182418,0.2064707358054338,0.0004637822619149,0.2064702149222758,0.0001826322341566,-0.1970661256148781,-0.0115069482183313,-2.6438612608000078e-05,0.0070504598214624,0.0003857895400096,1.5418788388914357e-05,0.0068754582132727,6.081653397416177e-06,0.2060961669761465,6.424,-0.0009384866276648,0.2060940302025008,0.0116792465155047,1.5753499770874273
1.568556169289436,1.5756467052074925,0.2060044807729175,0.0004614820977853,0.2060039638764088,0.0013618572529623,-0.0140016526281161,0.0354121627268976,-3.5085030226900214e-05,0.0070346463907748,0.0003128509892507,1.5207560950318683e-05,0.0068599323525905,4.534984652364571e-05,0.2080544350894511,6.458,-0.0010091387837299,0.208051987732167,0.0089107543563124,1.5756467052074925
1.5686015191359597,1.575674216936624,0.2121617477271788,0.0004656538549883,0.2121612367166499,0.0012813717009534,0.1849029115393776,-0.0024169835438111,-3.7539719790399655e-05,0.0070658527381568,2.751172913151301e-05,1.5351172099555008e-05,0.0070649695208292,4.2669677641749e-05,0.2077606117104879,6.492,-0.0010134294207991,0.2077581400068964,0.0008261780519973,1.575674216936624
1.5686441888136011,1.5765321481606938,0.217681473918534,0.000468480206201,0.2176809698013168,0.076840468074477,0.1657575432839403,2.2690419331388463,-4.064657007400024e-05,0.0072725581839958,0.0008579312240697,6.321854466426542e-06,0.0072487883472324,0.00255878758688,0.2179631719951772,6.526,-0.0012355874436958,0.217959669824186,0.0237516574200361,1.5764651471287112
1.5712029764004816,1.5790548195013312,0.2175028162126042,-8.844743198880183e-05,0.2175027982290472,0.073514439904955,-0.0053650962741677,-0.0998807258114707,-5.163271398490009e-05,0.0074408818020967,0.0025226713406374,-1.1815125236457606e-05,0.0072428323344121,0.002448030848835,0.2189321479958358,6.5600000000000005,-0.0017755309246568,0.218924948135214,0.0733101619968404,1.578906375523206
1.5736510072493164,1.581571477358812,0.2242932283868129,-0.000640284625499,0.2242923144821895,0.0756537252726265,0.2039162815077703,0.0642428038339805,-7.111641382949972e-05,0.0074471780091713,0.0025166578574808,-3.073419895238354e-05,0.0074688992954545,0.0025192690515784,0.2191263298662968,6.594,-0.0023289341315724,0.2191139532446163,0.0756283153055645,1.5814247984228813
1.576170276300895,1.5840408176761152,0.2178767618455344,-0.0011708530810932,0.2178736157852947,0.072073739417497,-0.1926866829212772,-0.1075070827366237,-8.977253218969998e-05,0.0074537150077009,0.002469340317303,-4.770028605351532e-05,0.0072551376224852,0.0024000555226026,0.2193232206124431,6.628,-0.0028570739526622,0.2193046105950429,0.0720321468752618,1.5838234689138275
1.5785703318234976,1.5864965603631265,0.2180561768742427,-0.0016951527409479,0.2180495877780921,0.0716742072071063,0.0053878386999481,-0.0119979642759952,-0.0001081426548054,0.0074599290162762,0.0024557426870113,-6.511818219940053e-05,0.0072609769745317,0.0023867510999966,0.2195103656377103,6.662,-0.003382969863768,0.2194842958785482,0.0716187271755798,1.5862083725287743
1.5809570829234942,1.5889145957867996,0.224849118349297,-0.0022845977461245,0.2248375116291642,0.0734429866568919,0.2039922364881162,0.053116499993561,-0.0001263886918071,0.0074661430717621,0.0024180354236731,-8.523706218431579e-05,0.007486988591878,0.0024456514556745,0.2197006828293392,6.696,-0.0039226107285435,0.2196656622250055,0.0733706658747842,1.5886516157024049
1.5834027343791688,1.591069333702731,0.2184047274978932,-0.0027532260873427,0.2183873731229463,0.0629056173298363,-0.1935252507929061,-0.316437517328996,-0.0001418250780604,0.0074744585688748,0.0021547379159314,-9.93037087682304e-05,0.0072721981188985,0.0020947570570835,0.2199532046729728,6.73,-0.004387750817836,0.2199094356517502,0.0629008853343989,1.59074621518404
1.5854974914362523,1.593242174601091,0.2185720438666588,-0.0032131478601054,0.2185484249334178,0.0634393999835257,0.0050245155785474,0.0160295091198002,-0.0001592182547008,0.0074799255864343,0.0021728408983598,-0.0001146893917074,0.0072775440480866,0.0021125320194514,0.2201037214489602,6.764,-0.0048557988628786,0.2200501520405854,0.0634628674969931,1.59285952867169
1.5876100234557038,1.595421868206986,0.2252135089656499,-0.003786493210592,0.2251816757415821,0.0651150279343565,0.1994433963660992,0.0503191576826054,-0.0001747497566236,0.0074737885739961,0.002179693605895,-0.0001342244282628,0.0074984071406329,0.002168330430214,0.2202254876570075,6.798,-0.0053349079073974,0.2201608597625526,0.064982596727947,1.5950234491427306
1.588781534366797,1.6000853833428954,0.2067325678282926,-0.0037179276984512,0.2066991330763356,0.0555826935690735,0.3869626920370576,2.56808449437802,-0.0001941393253617,0.007094890344494,0.0019471406466993,-0.0001301811386898,0.0068829625434587,0.0018509036958501,0.2089276245345191,6.866,-0.0060230629955356,0.2088407886543929,0.06075415819185,1.599628787778097
1.590632438062647,1.6021820037465884,0.2128797842100671,-0.0042224301726785,0.2128379045394912,0.0560578062114111,0.1846010925457786,0.0142676469170475,-0.0001993368824641,0.0070701796434777,0.0020966204036929,-0.000147226434931,0.0070873667766267,0.0018667249468399,0.2076540668303576,6.9,-0.0064127156265056,0.2075550253534715,0.0616869040065298,1.6016829616815145
1.5916508727481826,1.6061482672413894,0.1948156405230791,-0.0040624972412397,0.1947732782200436,0.0572997778936215,0.3761364225661466,2.485704501945322,-0.0002271141092815,0.0066459894241472,0.0020242949785038,-0.0001414729514699,0.0064858170777706,0.0019080826038575,0.1951733550459017,6.968,-0.0067829097103374,0.1950554553344638,0.0575728905827944,1.6055565830731795
1.5935589553520404,1.6076555246936444,0.2002960246112022,-0.0045588702991378,0.2002441364351201,0.0605206724728175,0.164576098742437,0.0967235609368163,-0.0002430446317133,0.006645130359359,0.0015072574522549,-0.0001585336705314,0.0066679721567424,0.0020153383933448,0.1956583490301343,7.002,-0.0071924947068697,0.1955261045617426,0.0603155382455405,1.607565090496756
1.5943756821528507,1.607653825766615,0.2061493360613979,-0.0048604180351856,0.2060920306442693,0.0495327725969581,0.3669258004695057,2.568381823276589,-0.0002542084248556,0.0070141754174346,0.0011453104152672,-0.0001675160383321,0.0068627279222997,0.0016494413274787,0.2077119550913946,7.07,-0.0075331515229738,0.2075753066143019,0.007899737110861,1.607071580723057
1.596025123480329,1.6084344422719845,0.2124617581801354,-0.0053595859025794,0.2123941466423856,0.0494930676851433,0.1895622257879121,-0.0011923396941389,-0.0002653724082885,0.0070589289504756,0.0007806165053692,-0.000184306851285,0.0070725746938713,0.0016481191539152,0.2077591202311512,7.104,-0.0078769317981164,0.2076097444357315,0.0494776758414278,1.6087191873285764
1.5961201682177553,1.6082007210231417,0.217914126218899,-0.0055178329704698,0.2178442561213315,0.0388840166670424,0.358210076298799,2.5682548958886198,-0.0002749804065456,0.0074580823497563,0.0011830401689809,-0.000188444789142,0.0072540926259585,0.0012948377550125,0.2198291851771104,7.172,-0.0081027269203752,0.2196798044247266,0.0071325309764097,1.607663873587266
1.5974150059727676,1.60955655440639,0.2248400056484837,-0.0059842372256666,0.2247603546999273,0.0390706117763162,0.2079843672547948,0.0056034567349488,-0.0002847508339976,0.0074731603075692,0.0013558333832486,-0.0002041485459016,0.0074843879400934,0.0013010513721513,0.219998413293164,7.206,-0.0083947373061936,0.2198381910339279,0.0390357761103487,1.6089637649317408
1.598716057344919,1.6109977237868358,0.2184090117122474,-0.0060971285545022,0.218323891089616,0.0420798061054773,-0.1931229410281156,0.0903661960709049,-0.0002953215840306,0.0074781477948688,0.0014411693804456,-0.0002081325129604,0.0072700408136071,0.0014012575433123,0.2201405296209421,7.24,-0.0087081073304393,0.2199682287252194,0.0420397447288935,1.610363688431213
1.6001173148882315,1.6124260004823812,0.2185581644991401,-0.0064074231482152,0.2184642217797525,0.0417332604628767,0.0044790626694488,-0.0104067760540719,-0.0003054563276125,0.0074830621180492,0.0014282766955453,-0.0002184266218246,0.0072747078484036,0.0013897175734137,0.220287136335939,7.274,-0.0090200406168937,0.2201023882250217,0.0417667115377091,1.6117545199254186
1.6015070324616452,1.613713472216895,0.2251827882803441,-0.0069144353238235,0.2250766063407367,0.0425656723798859,0.1989376510872076,0.0249973548651403,-0.0003139133107005,0.0074889969720561,0.0012874717345141,-0.000235567136481,0.0074948851527558,0.0014174368902502,0.2204805222019921,7.308,-0.0093422217458426,0.2202825085278326,0.0428405928883398,1.6131811116686003
1.6029244693518954,1.61483884260808,0.2185156088973525,-0.0070192929152628,0.2184028407753674,0.032630213164777,-0.200215597086835,-0.298362138591857,-0.000321134648735,0.0074874347629658,0.0011253703911846,-0.0002376981771349,0.0072726860289808,0.001086586098387,0.2204396004947981,7.342,-0.0095815615066339,0.220231267410876,0.0328712611109183,1.614275724663594
1.6040110554502824,1.6159952748658155,0.2183167324637624,-0.0072499978031978,0.2181963180383841,0.0323351480487768,-0.0059722652729749,-0.0088608142942998,-0.0003272274061736,0.007479613520241,0.0011564322577357,-0.0002453412123163,0.007265805856452,0.0010767604300242,0.2202693296641822,7.376,-0.0098171476247883,0.2200504514951544,0.0331593522515114,1.6153799310935693
1.6050878158803068,1.617195210586844,0.2246389849016536,-0.0077016956798317,0.2245069206534637,0.0332953162002464,0.189857430567304,0.0288338784225083,-0.0003410993445473,0.0074229738145947,0.0011999357210283,-0.0002606155311523,0.0074759365882635,0.0011087340294682,0.2187096144975624,7.41,-0.0099951162440883,0.2184811047320558,0.0340154826491375,1.6165126466657855
1.606196549909775,1.618552940750435,0.2176803733889708,-0.0077043244049263,0.2175439917447169,0.0233273284774143,-0.2089673126931776,-0.2993389706556177,-0.0003511881268351,0.007397895983334,0.0013577301635909,-0.0002593721121003,0.0072441143904967,0.0007768000382978,0.2175902179326372,7.444,-0.0102379482719145,0.217349229019001,0.0406176587907969,1.617865214703519
1.606973349948073,1.619417769953227,0.2173716041944649,-0.0078621423307098,0.2172293742292851,0.0253056920348863,-0.0092723481833611,0.0594103170412009,-0.0003609391941487,0.0074437059287921,0.0008648292027919,-0.0002648616456915,0.0072336268311551,0.0008426795447617,0.2192893200764628,7.478,-0.010541838866515,0.2190357859640971,0.0307023757559007,1.6188876038161906
1.6078160294928343,1.620480241483688,0.2239830824592008,-0.0082898933269117,0.2238296202394884,0.0268412693671233,0.19854289083291,0.0461134334005113,-0.0003665909416768,0.0074422277894705,0.001062471530461,-0.0002793890565518,0.0074534018184218,0.0008938142699252,0.2191705449759937,7.512,-0.0107332893457151,0.2189075701863579,0.0270461205132422,1.6197882396292815
1.6087098437627598,1.62167215188939,0.2174899297005701,-0.0082438328134644,0.2173336346304975,0.0344592501389102,-0.1949895723312535,0.2287681913449523,-0.0003752020143387,0.0074454303851498,0.0011919104057018,-0.0002786763737936,0.0072370507678529,0.0011474930296257,0.2192344865575831,7.546,-0.0109876588209153,0.2189589720696602,0.0344561006591168,1.62093562778123
1.6098573367923856,1.6228548940133618,0.2176388420685888,-0.00849903135055,0.2174728305859344,0.0346904218134499,0.0044718428834444,0.0069420923285175,-0.0003842574116067,0.0074512276821701,0.0011827421239718,-0.0002872050186003,0.0072416800003805,0.0011551910463878,0.2194143522988368,7.58,-0.0112498629452642,0.2191257597326951,0.0346972728652331,1.6220910469676424
1.6110125278387737,1.6221767160459728,0.2244224352632525,-0.0090229851062523,0.2242409757142104,0.0354052900244992,0.2037115073472584,0.0214675138453258,-0.0003910936196755,0.0074708776352068,-0.000678177967389,-0.0003048718684899,0.0074670454489475,0.0011789961578158,0.2196139441371001,7.614,-0.011518487791914,0.2193116706845325,0.0353800645986096,1.623269203118776
1.610149031604604,1.617888970755605,0.2181945157438446,-0.0085843283030377,0.2180255856735088,-0.0623295077436615,0.0057025652457605,-0.0298318281152224,-0.0003627008592256,0.0075019009769821,-0.002151751533685,-0.0002783278321673,0.0072605432774058,-0.0020755726078639,0.2208706295166404,7.682,-0.0107330079060926,0.2206096949917768,-0.0623825900572386,1.6194095650214604
1.60807345899674,1.618256686524315,0.2249939181306942,-0.0083851857284189,0.2248376121917804,-0.0647045468083858,0.204186257863351,-0.0713224944361659,-0.0003452895162443,0.007376941335577,0.00036771576871,-0.0002711650298641,0.0074873873443563,-0.0021546614087192,0.2210615853808256,7.716,-0.0102660800510604,0.2208230788017169,-0.0647633574899651,1.6172529452170443
1.6436302541191383,1.6563150489413645,0.2178185985246775,-0.0158505613374893,0.2172411139000653,-0.0079669505562597,0.0007206962640435,-0.3697026359292997,-0.0006410263530555,0.0074515377242372,-0.0002123645476306,-0.0005268685571134,0.0072341986976932,-0.0002652994535234,0.2199766657325318,8.09,-0.0188329368614118,0.21916900774511,0.0383478283984052,1.656514598174543
1.6431548009221255,1.6575751718422675,0.2181205224544147,-0.0157690992635275,0.2175497594211583,0.0399281595559539,-0.1919263191421543,1.3885610445607603,-0.0006424709426051,0.0074438769498839,0.001260122900903,-0.0005299314418577,0.0072440554305596,0.0013296077132132,0.2198293619370036,8.124,-0.0190616168100349,0.2190013770144322,0.0394601442050008,1.6576163245746487
1.6444844086353387,1.6589678503136671,0.2182704744164159,-0.0160693807530145,0.2176781454445574,0.0406235676073974,0.0045030619219565,0.0208831246679726,-0.0006533732925453,0.0074484290123959,0.0013926784713997,-0.000540017580963,0.0072483177591779,0.0013527648013263,0.2200174111171966,8.158,-0.0193741444162152,0.2191627334262217,0.0405863585290884,1.6589678503136671
1.645837173436665,1.660344014498938,0.2250606742501022,-0.0168728975557143,0.2244272987450167,0.0412807883265415,0.2039099049155056,0.0197363579322572,-0.0006639921002738,0.0074538364607412,0.0013761641852705,-0.000567008610186,0.0074730401580943,0.0013746502512738,0.2201934947792929,8.192,-0.0196914766998691,0.219311242047682,0.0413262518099259,1.660344014498938
1.647211823687939,1.6614738567958325,0.2185302950693241,-0.0166828539063784,0.2178925704300729,0.0320208389482486,-0.1961074829062489,-0.2780765579066936,-0.0006731566497171,0.0074610689570895,0.0011298422968946,-0.0005594118384667,0.0072555246903173,0.0010662939369766,0.2204239905776669,8.226,-0.0199529194161972,0.2195190575529927,0.0329437036112384,1.661441039829192
1.6482781176249155,1.662553961500895,0.2185218413969735,-0.0169145275545656,0.2178662294278989,0.0311317004665726,-0.0002538640345537,-0.0267008553055851,-0.0006801183043226,0.0074643121831821,0.0010801047050625,-0.0005670187038304,0.0072546518311008,0.0010366856255368,0.2204920715805074,8.26,-0.0201898945763503,0.2195657573185296,0.0315667180173284,1.6624922115391692
1.650340466639134,1.666282290338697,0.2063490998919576,-0.016396557977454,0.2056966307762796,-0.0041650036109217,-0.561847368791552,-1.0500212004125475,-0.000687489270185,0.0073226782606219,0.0026783964477721,-0.000545534608918,0.0068497353093594,-0.0001386946202436,0.2145014064318122,8.328,-0.020395538842685,0.2135295655326025,0.0748145707099203,1.666023659406697
1.6502017720188904,1.668281317926097,0.206665212568881,-0.0163931035019386,0.2060140195319617,0.0209620530537008,0.0094928731808824,0.754566266204883,-0.000694393121293,0.007158078623445,0.0019990275874,-0.000548288904588,0.0068600754284074,0.0006980363666882,0.2093037307433882,8.362,-0.0203486095722442,0.2083122314977618,0.0644731589163518,1.6681706155986116
1.6508998083855788,1.6691685501219131,0.2125088198303516,-0.0170044976293556,0.2118273956929605,0.0212125694185505,0.1754837015456635,0.0075230139594508,-0.0006900263101211,0.007001517118786,0.0008872321958164,-0.0005687454331747,0.0070536513447251,0.0007063785616377,0.2064878562956105,8.396,-0.0202588523192265,0.2054916390033046,0.0268886123757719,1.6690660063907248
1.6516061869472165,1.6690887503794116,0.1950214216350556,-0.0157425070387441,0.1943850003696098,-0.0089510175148987,-0.5251470929518315,-0.9058134214249024,-0.0006664770536558,0.0067195218807643,-7.97997425017183e-05,-0.0005232647787323,0.0064730982203525,-0.0002980688832461,0.1954526694514484,8.43,-0.0191673348635634,0.1945105633890488,-0.00136443575121,1.6690205706802097
1.6513081180639704,1.6696818979514474,0.1944490568384259,-0.0156385338743165,0.1938191733642862,0.0161668234222554,-0.0171881320309227,0.7542895176322574,-0.0006565013614904,0.0066341693500677,0.0005931475720357,-0.0005225044664548,0.0064540376601944,0.0005383552199611,0.1961039458843741,8.464,-0.0193399706580661,0.1951479518887315,0.0167370473688429,1.669577914357592
1.6518464732839315,1.670329009810637,0.2004325106181602,-0.0162273041861196,0.1997745376957485,0.0177382928494982,0.1796832966887178,0.0471912740913763,-0.0006623448467958,0.0066503490327129,0.0006471118591895,-0.0005423380780626,0.0066523317888206,0.0005906851518882,0.1962171928219527,8.498,-0.0194670129784023,0.1952491284606056,0.0178212868217041,1.6701713632087547
1.6508502243496623,1.6714278346591802,0.2177850199184331,-0.0174159237307777,0.2170875411014553,-0.0194417707553158,-0.0215906551700239,0.8472644897197528,-0.0007544078914869,0.0074309162480363,-0.0005119106752751,-0.0005776146208886,0.0072292019893698,-0.000647410966152,0.2200424545911547,8.566,-0.0221385800929861,0.2189259351789249,-0.0056576779108354,1.6715773366329247
1.648326925177764,1.669999149910255,0.1953875349692747,-0.0151333407944579,0.1948005924471698,-0.0082295677753539,-0.0106234877747349,0.8670197298287767,-0.0006653884462181,0.0066738617840309,-0.000257914242195,-0.0005030554113439,0.0064869283870982,-0.0002740446069192,0.1973224705543786,8.668,-0.019558470682429,0.1963507667676604,-0.0082520886902327,1.6700786785518342
1.6480528805708443,1.6696690638521667,0.2014387436533466,-0.015546986795926,0.200837891460267,-0.0082862737848556,0.1817179785006571,-0.0017028831682174,-0.0006668816752891,0.006714768659396,-0.0003300860580883,-0.0005167960856574,0.0066879728082596,-0.0002759329170356,0.1974795478710168,8.702,-0.0195195703390253,0.1965124886645148,-0.0083239010543626,1.669801492646724
1.6477769476538089,1.6684471671754475,0.2180064874822242,-0.0167657043301576,0.2173608514490383,-0.0605961818382325,0.497529844711039,-1.5708681097110166,-0.0007145452155793,0.0072287737600649,-0.001221896676719,-0.0005509993297023,0.0072386743817623,-0.0020178528552131,0.2170165107126481,8.736,-0.0212666841742902,0.2159719751868836,-0.025583865966406,1.6689495499100426
1.6457590947985958,1.6673010511335318,0.2184400823368983,-0.016359541317688,0.2178266167832246,-0.0338187844737069,0.0130208665067311,0.8041260469827481,-0.0007270708413825,0.007479026087199,-0.0011461160419159,-0.0005406927074269,0.0072539312232049,-0.0011261655229744,0.2208676896344425,8.77,-0.0213744345874541,0.2198310029784767,-0.0368375655409421,1.6677228589775293
1.6446329292756214,1.6663599002003022,0.2250916174426522,-0.0166049027871406,0.2244783139779406,-0.0358320460290118,0.1997457989715858,-0.0604583049641094,-0.0007188911762433,0.007453937575832,-0.0009411509332295,-0.0005484880694769,0.0074754556302075,-0.001193207132766,0.2207712591367422,8.804,-0.0211043175133323,0.2197602253437118,-0.0356380703045386,1.666536111236388
1.6434397221428552,1.6670613531123235,0.2064873001982391,-0.0149867494599038,0.2059427165106447,-0.0722052291963899,-0.5586882055379303,-1.0922877828041475,-0.0006961889797981,0.0072878159987626,0.0007014529120215,-0.0004908178483094,0.0068584855248637,-0.0024044341322397,0.2148650141232628,8.838000000000001,-0.0205985799229533,0.2138753674440972,0.0082645873469969,1.6668113219950431
1.6410352880106154,1.6663660399895013,0.2066389216271275,-0.0145021718957738,0.2061294033890546,-0.0444127322355886,0.0045531960627168,0.8346095183423813,-0.0006897576938834,0.0071107024184291,-0.0006953131228224,-0.0004778505797983,0.0068644634423819,-0.0014789439834451,0.2096848448568629,8.872,-0.0201291387482806,0.2087164390648209,0.0039090248914407,1.666941492523928
1.6395563440271703,1.6654617147496271,0.2124754594900643,-0.014598306588122,0.2119733717481353,-0.0453601787481567,0.1752714072953987,-0.0284518472242659,-0.0006726406398814,0.0070424699117133,-0.0009043252398739,-0.0004807967213383,0.0070590774408639,-0.0015104939523136,0.2073238475750497,8.906,-0.0196389828417701,0.20639158928179,-0.0383426760454065,1.665664681411616
1.6380458500748567,1.665507226277859,0.2180684334315928,-0.0146539469515088,0.2175755121746273,-0.0762793665090382,0.1679571754212769,-0.9285041369634092,-0.0006912012614865,0.00725113208069,4.551152823162319e-05,-0.0004787785381483,0.0072458762228068,-0.0025401029047509,0.2141055397993563,8.94,-0.0202695522793588,0.2131439124703496,-0.0016672965975018,1.6656091604349192
1.6355057471701058,1.6641024622529774,0.2175382480104181,-0.0140669520275531,0.2170829569728971,-0.0481339283559929,-0.0159214841193602,0.8452083529443036,-0.0007019689903835,0.0074287014840983,-0.0014047640248815,-0.00046264034954,0.0072292344989323,-0.0016028598142545,0.2199559699143675,8.974,-0.0206509812731183,0.2189843959587701,-0.0236476030308469,1.664821695253992
1.6339028873558512,1.662434696825981,0.2241677727544136,-0.0141370694319267,0.2237215537438252,-0.0470521766168651,0.1990848271470095,0.0324850372110444,-0.0006822418284184,0.0073339084125465,-0.0016677654269963,-0.0004649324173628,0.0074502932093543,-0.0015668374813416,0.2200156708206655,9.008,-0.0203196446376791,0.2190753465099756,-0.0461900317375455,1.6632835671971318
1.6323360498745096,1.660401421882086,0.206402078145689,-0.0126939109262638,0.2060113649492552,-0.0602849884021514,-0.5335043426043405,-0.3973817352938828,-0.0006425848780548,0.0070653004402694,-0.0020332749438951,-0.0004158253268769,0.0068605978779111,-0.0020074901137916,0.2087078966605581,9.042,-0.0188888935014645,0.2078513791889881,-0.0558335997106132,1.6614243083267684
1.630328559760718,1.658342329764624,0.2063732356373664,-0.0122786038023817,0.2060076413051227,-0.059703667399357,-0.0008661413910692,0.0174570871710034,-0.0006295702607118,0.0070749717763007,-0.0020590921174619,-0.0004020621369502,0.00686045613856,-0.0019881321243985,0.2089062434900637,9.076,-0.0184928648595202,0.2080861180338979,-0.0597489822242838,1.6594346672186997
1.6283404276363194,1.6562101803685572,0.2128101756593268,-0.0122392129321877,0.2124579312027539,-0.0620331756799894,0.1933015021609732,-0.069955203622595,-0.0006155730902853,0.0070850819276433,-0.0021321493960668,-0.0004002626063498,0.0070752647849875,-0.0020657047501436,0.209096813895261,9.11,-0.0180790858547612,0.2083137639134908,-0.0620869398291021,1.6573671721223906
1.6262747228861758,1.6541768866076698,0.2068434875329342,-0.0114694592663683,0.2065252523032576,-0.0638358739792259,-0.1791798236153955,-0.0541350840611545,-0.0005888670977965,0.0069436189865976,-0.0020332937608873,-0.0003746273164828,0.0068776914343885,-0.0021257346035082,0.2094303556376447,9.144,-0.0176639548000828,0.2086841119091987,-0.0638939053693015,1.6552395050735929
1.6241489882826674,1.6524175867711408,0.1951669436025483,-0.0104077366204238,0.1948892375006895,-0.0521960454760442,-0.3506469648764523,0.3495443994949457,-0.0005539144102381,0.0066966081989918,-0.001759299836529,-0.0003409414093357,0.0064901093282264,-0.0017381283143522,0.1975013500648573,9.178,-0.0163057282974045,0.196827097987377,-0.0537241325906259,1.653450491458325
1.6224108599683151,1.6505613047180467,0.201485276233122,-0.010394951576659,0.2012169513745211,-0.0527768886938678,0.1897397186358464,-0.0174427392739839,-0.0005525388565671,0.0068320242537085,-0.001856282053094,-0.0003402678701216,0.0067008249966873,-0.0017574703935058,0.1979256864544822,9.212,-0.0159936261589332,0.1972784359243713,-0.0528452848156311,1.6516907434739645
1.6206533895748094,1.648304176131201,0.2171833031111062,-0.010823636176967,0.2169134298520018,-0.0604741656660274,0.4714122185580862,-0.231149458623412,-0.0005826896613813,0.0073765347223362,-0.0022571285868457,-0.0003531582927034,0.0072235750255095,-0.0020137897166787,0.216439119640892,9.246,-0.0170616608113461,0.2157655955922605,-0.059568552556334,1.6497071106738386
1.6186395998581309,1.6461947251786315,0.2184130761006155,-0.0104456104126059,0.2181631523306385,-0.0613395552173936,0.036930119805084,-0.0259876742152008,-0.0005721179952892,0.007495959796818,-0.0021094509525692,-0.0003404234825931,0.007265182959127,-0.0020426071887392,0.2211016186885772,9.28,-0.016956589618501,0.2204504476185492,-0.064384998236441,1.647563090232565
1.6165969926693915,1.644278052621734,0.2250358920601327,-0.0103031906513753,0.2247999043098131,-0.0635071015651958,0.1988833621476625,-0.0650914819159818,-0.0005536066904477,0.0074778467232403,-0.0019166725568977,-0.0003351851545766,0.0074861938138042,-0.002114786482121,0.220925608723567,9.314,-0.0164788856682696,0.2203101697993325,-0.0632799392941374,1.6454558682540703
1.6144822061872706,1.6428597749877245,0.2181568599847354,-0.0095273431797419,0.2179487216992448,-0.0469537436404047,-0.2065775398017217,0.4970978355793133,-0.0005408050136051,0.0074281526002031,-0.0014182776340097,-0.0003115909729006,0.0072579373104584,-0.0015635596632254,0.2192667796005876,9.348,-0.0159788174968098,0.2186837854707483,-0.0516823446571578,1.643734846176987
1.612918646524045,1.6419769951370649,0.2177750995325746,-0.0091704799618934,0.2175819300256603,-0.0467375058587261,-0.0114642778426646,0.0064936270774343,-0.000534823747294,0.0073965094585675,-0.0008827798506594,-0.0002997430612598,0.0072457127973839,-0.0015563589450955,0.2178721879019363,9.382,-0.0156397039199187,0.2173101238379701,-0.0328191902026791,1.6426419671432375
1.6113622875789495,1.6402351712883143,0.2240565996366401,-0.0090865786143793,0.2238722714625873,-0.0457110341284171,0.1886336367587237,0.0308249768861572,-0.0005173652159723,0.0072820869175804,-0.0017418238487505,-0.0002969136890556,0.0074551738696292,-0.0015221774364762,0.2195355658475637,9.416,-0.0155280196112288,0.2189857193493751,-0.0316908329431595,1.6415866624062303
1.609840110142473,1.6385248465581086,0.2061765480732459,-0.0080478673929453,0.2060194185163745,-0.0654430431093903,-0.5369384853872131,-0.5925528222514461,-0.0004839513894933,0.0070575488332635,-0.0017103247302057,-0.0002605226943461,0.0068607330584719,-0.0021792533355426,0.2080396425438676,9.45,-0.0143207652605192,0.2075461600515252,-0.057031297133127,1.6396875202116974
1.6076608568069304,1.636949001255529,0.2060173629918435,-0.0075930131789476,0.2058773907085898,-0.0468369581213475,-0.004780332774849,0.5587412909322139,-0.0004749333349884,0.0070688701301389,-0.0015758453025795,-0.0002475051488117,0.0068559113572075,-0.0015596707054408,0.2083335063161006,9.484,-0.014022301694223,0.2078610711729277,-0.0460443818952951,1.638154242294584
1.6061011861014896,1.635261416640758,0.2123463859067704,-0.0074953019868446,0.2122140618710105,-0.0473386107487057,0.1900607481960038,-0.0150646434642091,-0.0004440043142217,0.0067509347602821,-0.001687584614771,-0.0002440279169646,0.0070669219091349,-0.0015763757379319,0.2084902620707885,9.518,-0.0137048542974892,0.2080393384603754,-0.0473483051937122,1.6365775437316334
1.6026058215368415,1.6325895921826774,0.1834709969693529,-0.0058351355561118,0.1833781827862031,-0.0370615073409849,-0.0105855531041866,0.617591133711506,-0.000394757117136,0.0062986163671885,-0.0012671804454604,-0.0001905455845527,0.0061066117223919,-0.0012341481944547,0.1855673538329093,9.586,-0.0116529718975872,0.1852011097550503,-0.0370838669531673,1.6336341266049943
1.6013716733423866,1.6308592306412513,0.1891854047473833,-0.0057835080930793,0.1890969814766184,-0.0380847804647051,0.1716038371780915,-0.030728922634241,-0.0003711619844253,0.0060545033091223,-0.0017303615414261,-0.000188601708578,0.0062970498025484,-0.0012682231894746,0.1857346227469552,9.62,-0.0114281370111769,0.1853827062360659,-0.0381238857934581,1.632364601208072
1.600103450152912,1.629202577660005,0.1724706841321477,-0.0050538960714767,0.1723966212531725,-0.0661820604826371,-0.5019435620190871,-0.8437621627006595,-0.0003518848156562,0.005921612128426,-0.0016566529812462,-0.0001619721821234,0.0057409881894894,-0.0022038626140718,0.1746484764837378,9.654,-0.0104262356220307,0.1743369838813457,-0.0550856386041423,1.6305302494425542
1.5978995875388402,1.627655672139205,0.172454113440843,-0.0046734965724744,0.1723907760654676,-0.0452562090164658,-0.000497618357501,0.6284039479330722,-0.0003426989457799,0.0059252995932543,-0.0015469055207999,-0.0001513052867895,0.0057407278441263,-0.0015070317602483,0.1745209222038893,9.688,-0.0101557207695364,0.1742251807935557,-0.0453163375191312,1.6290212154031671
1.5963925557785918,1.625958621422024,0.1778098977756897,-0.0045507659024883,0.1777516533726254,-0.0464482177312591,0.1608343644098119,-0.0357960575013022,-0.0003188405782917,0.0056678524003261,-0.0016970507171811,-0.0001469664723062,0.0059192448020313,-0.0015467256504509,0.1746632807829928,9.722,-0.0098940167641298,0.1743828262362716,-0.0464960418523642,1.6274728972094834
1.594845830128141,1.624456663430325,0.1607247253420902,-0.0038649772226817,0.1606782477106298,-0.062728497805932,-0.5130682412492333,-0.488897299539724,-0.0003014113582492,0.0055379536552973,-0.0015019579916988,-0.0001231186511619,0.0053507161034591,-0.0020888589769375,0.1628609774916294,9.756,-0.008948897561376,0.1626149292714694,-0.0510752218469274,1.6257720923219807
1.5927569711512035,1.623028759097913,0.161270287298881,-0.003541314763674,0.1612314009590198,-0.0419851970907567,0.0163832419456675,0.6229219433986555,-0.0002931390337456,0.005539193755035,-0.0014279043324116,-0.0001141758434709,0.0053690862685776,-0.0013981070631222,0.1631847832869151,9.79,-0.0087386741833023,0.1629506338432457,-0.0420224386286436,1.6243727451156469
1.5899301901100586,1.6221159634090234,0.1485000278024097,-0.0028412058637153,0.1484728453507794,-0.0559080658449825,-0.529944404429266,-0.3905388402956382,-0.0002759675221379,0.0053424304279721,-0.0009127956888899,-9.001280759919923e-05,0.0049442309098872,-0.0018617385926379,0.1522333469891212,9.824,-0.0078060630033273,0.1520330796764252,-0.0255005434580136,1.6220957824853048
1.5880684515174208,1.6210086846359677,0.1495402527195578,-0.0025827494745278,0.1495179473795071,-0.0333472263179122,0.0312379854999425,0.6775026885006088,-0.0002577660443124,0.0051342172742396,-0.0011072787730559,-8.32441530925476e-05,0.0049789943259278,-0.0011104626363864,0.1507727152158772,9.858,-0.0075674726394465,0.1505826849655007,-0.0326455810611819,1.6210086846359677
1.5869579888810343,1.6199270380548698,0.1537624712836477,-0.0024849489212904,0.1537423903941693,-0.0348997115202122,0.1267933502729703,-0.0466211772462469,-0.0002494576433747,0.0051143731600047,-0.0010816465810976,-7.977703774681051e-05,0.0051196684820088,-0.001162160393623,0.1501367777437139,9.892,-0.0073733595058076,0.1499556121019265,-0.032481879312242,1.6199270380548698
1.5857958284874112,1.6189725990425825,0.1367263103301358,-0.0020507496231882,0.1367109299305495,-0.0475754251843745,-0.5115964250303857,-0.3806520619868564,-0.0002383856679119,0.0050346412302904,-0.0009544390122873,-6.468659644105065e-05,0.0045525261168738,-0.0015842616586396,0.1458545848548101,9.926,-0.0070279751015929,0.1456851656454438,-0.0278449994713499,1.618999799572474
1.5842115668287715,1.6180645423911622,0.1376859468168276,-0.0018470346232832,0.1376735574246074,-0.0282025680241454,0.0288179125132651,0.5817674822891639,-0.0002337861214787,0.0048019613837821,-0.0009080566514203,-5.935631052849689e-05,0.0045845576332525,-0.000939145515204,0.1375035053296331,9.96,-0.0065037826385665,0.1373496078965161,-0.0266302467452469,1.6181130123558571
1.5832724213135676,1.617196779677582,0.1412522562393368,-0.0017622307829218,0.1412412632178394,-0.0280395235512476,0.1070963790543306,0.0048962304173515,-0.000219393002139,0.0046914333397671,-0.00086776271358,-5.6489397359026624e-05,0.0047033607430853,-0.0009337161342565,0.138556744404835,9.994,-0.0064347254425105,0.1384072459394604,-0.0257925300058266,1.6172541211066631
1.582338705179311,1.6161067688765238,0.1371120697045745,-0.0015825642491385,0.137102936325483,-0.0316888971303561,-0.124329925968838,-0.109590798171428,-0.0002160584173549,0.0047020351897846,-0.0010900108010583,-5.029334038698041e-05,0.0045655547064676,-0.0010552402744408,0.1384340183897446,10.028,-0.0062836249651044,0.1382913356101172,-0.031574645874658,1.616202685399037
1.5812834649048702,1.6150370603141762,0.1371197660391836,-0.0014379675657607,0.1371122258878481,-0.0319353115347689,0.0002311211594338,-0.0073998319643461,-0.0002106783721671,0.0047048471464363,-0.0010697085623476,-4.545937584938266e-05,0.0045658616945312,-0.0010634458741078,0.1385500071953182,10.062,-0.0061448844177359,0.1384136730576694,-0.0312439230843964,1.6151622627603266
1.5802200190307625,1.6139606975384722,0.141298084016896,-0.0013315299491192,0.1412918100062435,-0.0330805926876063,0.1254750143457168,-0.0343928274125358,-0.0002060844859556,0.004700567715981,-0.0010763627757039,-4.175136449117479e-05,0.004705040717877,-0.0011015837364972,0.1386894679419197,10.096,-0.0060019222346756,0.1385595375551668,-0.0323255119816334,1.6140858232113382
1.579118435294265,1.6128029368078711,0.1255628270870349,-0.0010449354088077,0.1255584790290168,-0.0380244190368051,-0.4725302381339655,-0.1484632537296928,-0.0001863542969379,0.0043498871975309,-0.001157760730601,-3.2151846915543945e-05,0.0041811182443124,-0.0012662131539256,0.1268465519582257,10.13,-0.0053430925351922,0.1267339698180848,-0.0346708933778165,1.612931282461857
1.5778522221403397,1.6120669138581647,0.1257996220965942,-0.0008876216028292,0.1257964906010343,-0.0219821551906925,0.0071109612480264,0.481749665048424,-0.000180670680922,0.0043203743562092,-0.0007360229497064,-2.8027194130197765e-05,0.0041890335638114,-0.00073200576785,0.1272097986242168,10.164,-0.0052652724908279,0.1271007858811704,-0.0220019572504402,1.6121986172854172
1.5771202163724891,1.6113221578095025,0.1297286153273882,-0.0008203839702837,0.1297260213099236,-0.0225028970106797,0.1179877847085272,-0.0156378924921072,-0.0001775733765474,0.0043031547917642,-0.0007447560486621,-2.5702914460767965e-05,0.0043198863250522,-0.0007493464704556,0.1273253420808108,10.198,-0.0051746805560468,0.1272201454846612,-0.0225132425343074,1.6114489263090248
1.5763708699020338,1.6099834859382671,0.1145197415483298,-0.0006383919294727,0.1145179621720568,-0.0465066191613215,-0.4567229363080595,-0.7208324970162687,-0.0001583693378801,0.0039522710304236,-0.0013386718712353,-1.830791568128058e-05,0.0038134630658172,-0.001548670418072,0.1158687572906023,10.232,-0.004565398717229,0.1157787806578616,-0.0372652553318056,1.6102079933064757
1.5748221994839615,1.6089808958398892,0.114639920336286,-0.0004615244776514,0.1146389913156362,-0.029681649286346,0.0036089726112968,0.5052543505998646,-0.0001533383662119,0.0039404363992743,-0.0010025900983778,-1.348452897380422e-05,0.0038174853761334,-0.0009883989212353,0.1160147026979926,10.266,-0.0044564485091839,0.1159290787886654,-0.0297123956544615,1.609218570531182
1.5738338005627264,1.6080259695788324,0.1182128001263018,-0.0003590677272634,0.1182122547964813,-0.0303379238214021,0.1072936873878632,-0.0197079439956795,-0.0001497152492632,0.0039437577858101,-0.0009549262610568,-9.970974986518566e-06,0.0039364734487277,-0.0010102528632526,0.1161204144677732,10.3,-0.0043429507618598,0.1160391719844962,-0.0304237844883547,1.60820545850772
1.5728235476994736,1.607299834475019,0.1148457260580695,-0.0002328174972007,0.1148454900717401,-0.0214238909200973,-0.1011133353823511,0.267688675714859,-0.0001462953167915,0.0039450870448836,-0.0007261351038136,-6.3910111655988125e-06,0.0038243572565185,-0.0007134155676392,0.1161449078248624,10.334,-0.0042612139745826,0.1160667121491283,-0.0213851167325636,1.6074933341205255
1.5721101321318345,1.6065641187008048,0.1149352253967289,-0.0001510024690878,0.1149351262027898,-0.021357756665008,0.0026876678276099,0.0019860136663452,-0.0001435797648701,0.0039487492874372,-0.0007357157742138,-3.669722497090796e-06,0.0038273411657484,-0.0007112132969447,0.1162462170750491,10.368,-0.0041822115912117,0.1161709606160927,-0.0213830974420697,1.6067812769757046
1.5713989188348898,1.6057473619282938,0.1185181088516519,-7.14180646668633e-05,0.1185180873336726,-0.0222193554651578,0.1075940977454345,-0.0258738378423349,-0.0001406596343053,0.0039528320095778,-0.000816756772511,-9.205903371509916e-07,0.0039466528273662,-0.0007399045369897,0.1163491989979394,10.402,-0.0040997681959703,0.1162769452995795,-0.0222492335547711,1.6060403774983307
1.5706590142979,1.604717030486063,0.1151237755379814,1.580793303312257e-05,0.115123774452668,-0.0296928630932501,-0.1019319313414557,-0.22442965850127,-0.0001372082641259,0.0039583505103439,-0.0010303314422308,2.419321504038159e-06,0.0038336208058542,-0.0009887723410052,0.1165197685149688,10.436,-0.0039905249991995,0.116451415470198,-0.0297216285566053,1.6050506472673958
1.5696702419568946,1.60368186251622,0.1152158610946198,0.0001297428068555,0.1152157880439083,-0.030075141905031,0.0027653320311829,-0.0114798441976259,-0.0001330512016765,0.0039616403653304,-0.001035167969843,6.23928537248663e-06,0.0038366829408902,-0.0010015022254375,0.1166116176714808,10.47,-0.0038767996660058,0.1165471569808087,-0.0301139667854374,1.6040478521734407
1.5686687397314572,1.6027276948210476,0.1187915295101481,0.0002527391307559,0.1187912606477942,-0.0311301089450315,0.1073774298957446,-0.0316806918919057,-0.0001288762202565,0.0039638920110736,-0.0009541676951723,1.0464093059476629e-05,0.0039557439153069,-0.0010366326278695,0.116689462538578,10.504,-0.0037583125752932,0.1166289233171968,-0.0311753678683379,1.603009712423425
1.5676321071035877,1.601949746575869,0.1153607574289911,0.0003650261711359,0.11536017991701,-0.0228590742983994,-0.103026188623334,0.2483794188177791,-0.0001250021324477,0.0039643200785184,-0.0007779482451786,1.3615079806385697e-05,0.0038414890023001,-0.0007612071741367,0.116675519364323,10.538,-0.0036689241806766,0.1166178194543653,-0.0229028687730474,1.6022470468932826
1.566870899929451,1.601178183084686,0.1153909639761086,0.0004529576267505,0.1153900749489485,-0.0225732432535886,0.0009071035170406,0.0085835148591835,-0.0001217270350618,0.003965139493572,-0.0007715634911829,1.6525288570462365e-05,0.0038424834751215,-0.0007516890003445,0.1166933328870298,10.572,-0.0035817243668087,0.1166383521438954,-0.0225951856327001,1.6014946272117137
1.5661192109291064,1.6005204192973947,0.1188716973728231,0.0005559746747414,0.1188703971914668,-0.0229605791463738,0.1045265284298651,-0.0116317084920465,-0.0001186135792371,0.0039630241541732,-0.0006577637872913,2.0024770755061e-05,0.003958376775424,-0.0007645872855742,0.1166385009123811,10.606,-0.0034910477909059,0.1165862448164839,-0.0229230390113398,1.600731290012636
1.5653546236435325,1.6000400592816515,0.1152987251440366,0.0006274183394213,0.1152970180276465,-0.0145642261915586,-0.1072964633269214,0.2521427313758297,-0.00011555572382,0.0039577623723245,-0.000480360015743,2.182168493969556e-05,0.0038393854968681,-0.0004849887321789,0.1164746631636313,10.64,-0.0034300567405811,0.1164241464209111,-0.0144670632959995,1.6002495368048792
1.5648696349113531,1.599585290502502,0.1151786687775355,0.0006826244851102,0.1151766459191166,-0.0139724040792887,-0.0036052962913247,0.0177724358039004,-0.0001123818348651,0.0039536120102701,-0.0004547687791498,2.3621286823765283e-05,0.003835376897094,-0.0004652810558403,0.1163401358151408,10.674,-0.0033732390050009,0.1162912226270777,-0.0136491743423988,1.5997950192992774
1.564404353855513,1.5991586524467911,0.1185131912040775,0.0007575279526851,0.1185107701467471,-0.0140250238104196,0.1001358086048653,-0.0015801721060334,-0.0001098409143058,0.0039450432532124,-0.0004266380557105,2.6144790249034144e-05,0.0039464026279817,-0.0004670332928869,0.1161155027898174,10.708,-0.0033169256015729,0.1160681178992996,-0.0128847810636949,1.5993659560898563
1.563937320562626,1.598857873954267,0.1148640369540548,0.000787846967794,0.1148613350198307,-0.021023383500512,-0.1095842117123941,-0.2101609516544242,-9.997323553950084e-05,0.0039109299161734,-0.0003007784925244,2.757179458224425e-05,0.0038248729773971,-0.000700078670567,0.1151759382115388,10.742,-0.0032400150041921,0.1151303567512965,-0.0130604129779589,1.5989310443376905
1.563237241892059,1.5992251324905733,0.1147156250974924,0.0008671368917393,0.1147123477011931,-0.0217683486554974,-0.0044568125093786,-0.0223713259755384,-8.560906395820023e-05,0.0038435967790531,0.0003672585363063,3.025779612823924e-05,0.0038199103968558,-0.000724886010228,0.1129983865185123,10.776,-0.003187933055025,0.1129534082647521,0.0024392209313445,1.599012270394704
1.5625123558818308,1.5999961190493752,0.1179601381867885,0.000977167177336,0.1179560907514054,-0.0218248709540107,0.0974328255043862,-0.00169736632172,-0.0001165528949136,0.0038061606044701,0.0007709865588019,3.396458391149337e-05,0.0039279256728558,-0.0007267682027685,0.1126086287220346,10.81,-0.0032073898485405,0.1125629420058685,0.0081242771034463,1.5992828088222488
1.5841553647717532,1.6167888289564327,0.1141415951111136,-0.0015247765499568,0.1141314101857245,-0.0330876815026628,-0.0433205011623981,0.8595876176124382,-0.0001834016810893,0.0039226018149036,-0.0011139494266556,-4.868362568505198e-05,0.0038006031325556,-0.0011018197940386,0.1154721591409417,10.98,-0.0053925940842984,0.1153461723062926,-0.0295590406910454,1.6175137017180237
1.5830535449777146,1.6154273133491357,0.1176631283512569,-0.0014421865234355,0.1176542896431574,-0.0337708920902025,0.1057517489532514,-0.0205168344606523,-0.0001792113297904,0.0039279449471756,-0.0013615156072972,-4.582425451531e-05,0.003917913994611,-0.0011245707066037,0.1155677756136158,11.014,-0.0052677093782591,0.1154476591282181,-0.0336471564894553,1.6163932514069248
1.581928974271111,1.6139158278590748,0.1142724053653963,-0.0012721281277674,0.1142653242152667,-0.0437069439086871,-0.1018235130889052,-0.2983799344890274,-0.0001736891771036,0.0039328034697834,-0.0015114854900606,-3.959520386164052e-05,0.0038050647560951,-0.0014554412321592,0.1157640766622534,11.048,-0.0051084818693032,0.1156513072059935,-0.0436697895449293,1.6149390474150789
1.5804735330389517,1.6123973287494968,0.1143639243161791,-0.0011067060087719,0.1143585693632397,-0.0441046995560289,0.0027483168403246,-0.011944614034289,-0.0001679509248475,0.0039365003594677,-0.001518499109578,-3.40591714091952e-05,0.0038081660326461,-0.0014686864952157,0.115862362619264,11.082,-0.004942767587536,0.1157568836842692,-0.0441167123003164,1.613469960895478
1.579004846543736,1.6110913407082228,0.1179291206319478,-0.0009680126448359,0.1179251476341834,-0.045649522491884,0.1070629524254863,-0.0463910791548066,-0.0001622582540469,0.0039383987283319,-0.001305988041274,-2.9252535822337136e-05,0.0039269303862817,-0.0015201290989797,0.1159669459480527,11.116,-0.0047710385076539,0.1158687608636472,-0.0456652763811869,1.6119493071919846
1.5774847174447562,1.6098806735564644,0.1145629216384844,-0.0007662358610057,0.1145603591865477,-0.0353423521503396,-0.1010870568607642,0.3095246348812119,-0.000157561479624,0.0039410673648883,-0.0012106671517584,-2.3273153946476774e-05,0.003814874080545,-0.0011769003266063,0.1159840877124636,11.15,-0.0046352635303584,0.1158914273555062,-0.0353658804752843,1.6107716233721576
1.5763078171181495,1.6086623106978168,0.1146569141936014,-0.0006319272737682,0.1146551727586659,-0.0353250582124143,0.0028225992527621,0.0005193374752359,-0.0001528891038338,0.0039447903287832,-0.0012183628586475,-1.8799922446909423e-05,0.0038180287375102,-0.0011763244384733,0.1160866242258517,11.184,-0.0045028417692988,0.115999261808663,-0.035343174866053,1.609594695649118
1.5751314926796764,1.607496338139251,0.1182336782030344,-0.0005125610026911,0.118232567182808,-0.0366215544779194,0.1074103306136054,-0.0389338217869415,-0.0001367769386184,0.0036053807822988,-0.0011659725585657,-1.467004403791408e-05,0.0039371539096052,-0.0012194977641147,0.1161923006256445,11.218,-0.0043652679487951,0.116110271554309,-0.0366422276129938,1.6083745094696054
1.5676810864637047,1.6039012687915224,0.00012321945732,3.83857602158372e-07,0.0001232188594152,1.608832110576429e-05,-0.0030155362128421,0.0188011172281668,6.746849769839748e-08,3.60630245954674e-06,-9.199948243221456e-07,1.2778818553306218e-08,4.103188029856637e-06,5.357410928219508e-07,0.0001373058474371,11.354,-4.544787551063141e-06,0.0001372306111861,0.0001134547005826,1.603902111566286
1.5676810864637047,1.6039061471031026,0.00012321945732,3.83857602158372e-07,0.0001232188594152,1.608832110576429e-05,-0.0030155362128421,0.0188011172281668,-8.116915184014362e-07,4.339779574369373e-06,4.878311580247541e-06,1.2778818553306218e-08,4.103188029856637e-06,5.357410928219508e-07,0.0001373058474371,11.388,-4.544787551063141e-06,0.0001372306111861,0.0001134547005826,1.603902111566286
1.5676816222047976,1.6039104900131629,0.0001320604816353,4.113287232431408e-07,0.000132059841051,0.000126967598721,0.0002654962256842,0.0033297080364953,-8.341871583980587e-07,4.347128073289852e-06,4.342910060017857e-06,1.3685229141246488e-08,4.397592744504945e-06,4.228021037411267e-06,0.000137805647893,11.422,-4.561957881262547e-06,0.0001377301170096,0.000136722557393,1.6039066644274471
1.567685850225835,1.6039147541980914,0.0001283327746145,3.991754448059211e-07,0.0001283321538011,0.0001193588777884,-0.0001119431537759,-0.0002284901180956,-8.346086645960593e-07,4.3525028075031e-06,4.2641849287150535e-06,1.3281405486310442e-08,4.273460756249942e-06,3.97465063035618e-06,0.0001379824970094,11.456,-4.56839222698441e-06,0.0001379068499872,0.0001262726316635,1.6039108693060815
1.5676898248764657,1.60391894794391,0.000128461061332,3.9906389161969693e-07,0.0001284604414851,0.0001174351845157,3.852453977934211e-06,-5.776856674907791e-05,-8.347777779998955e-07,4.357662988008215e-06,4.193745818614758e-06,1.32778165075159e-08,4.277732735548493e-06,3.910591644373795e-06,0.0001381333511205,11.49,-4.573957436022063e-06,0.0001380576024895,0.0001241282493874,1.603915002776786
1.5676977034474415,1.603923077353197,0.0001287173211494,3.988458582838762e-07,0.0001287167032123,0.0001140225402704,-0.0001131744100173,-0.0001542341810604,-8.349475213026425e-07,4.362750784414615e-06,4.129409286957043e-06,1.3270777421482491e-08,4.286266250438982e-06,3.796950591006265e-06,0.0001384323253076,11.524,-4.5849911016070354e-06,0.0001383563751572,0.0001202797438892,1.6039231978902808
1.5677015003980328,1.6039271479419828,0.0001288430595578,3.9874626524299173e-07,0.0001288424425321,0.0001125496717126,3.775928181200288e-06,-4.4230287022451096e-05,-8.351147232008027e-07,4.367776437863569e-06,4.070588785820561e-06,1.3267556110258493e-08,4.290453369351644e-06,3.7479040680299393e-06,0.0001385770152562,11.558,-4.590330436295477e-06,0.0001385009675915,0.0001186201712297,1.6039271479419828
1.5677052483021008,1.6039311647092325,0.0001328786425977,4.107376602013063e-07,0.000132878007786,0.000114547077989,0.000121188679876,5.998217046286014e-05,-8.352793315971607e-07,4.372746300163044e-06,4.01676724970379e-06,1.3666387137244369e-08,4.42483769380746e-06,3.814417697034501e-06,0.0001387245584203,11.592,-4.595774686699437e-06,0.0001386484113285,0.0001206236411322,1.6039311647092325
1.5677090627197978,1.6039351321850406,0.0001290976146206,3.985577946761622e-07,0.0001290969993935,0.00010991863143,-0.0001135443836972,-0.0001389923891577,-8.354415871048015e-07,4.377666049437679e-06,3.967475808108745e-06,1.3261447061149814e-08,4.298930112186824e-06,3.6602904266214153e-06,0.00013886642063,11.626,-4.60100895131726e-06,0.0001387901779493,0.0001156591424502,1.603935016158676
1.5677127230102246,1.603939054474475,0.000129222698702,3.984709712982562e-07,0.0001292220843383,0.0001087783929118,3.7562787228527352e-06,-3.4241396943521326e-05,-8.356017194982579e-07,4.3825408324593695e-06,3.9222894343549095e-06,1.3258627212275231e-08,4.30309544074577e-06,3.622320483964714e-06,0.000139007098822,11.66,-4.606199145104841e-06,0.0001389307613609,0.0001143776388716,1.6039388249340505
1.5677163453307086,1.60394293529731,0.0001332692017013,4.104660220202417e-07,0.0001332685695869,0.0001109773854674,0.0001215166065845,6.603581248090296e-05,-8.357599379990588e-07,4.387375306391661e-06,3.880822835089504e-06,1.3657572576847966e-08,4.437843400890512e-06,3.6955469360666624e-06,0.0001391509207854,11.694,-4.611504940959633e-06,0.0001390744864366,0.0001166115763977,1.6039427080995443
1.5677200408776446,1.6039467780240924,0.0001294762075514,3.9830520567989195e-07,0.0001294755949006,0.0001067322618954,-0.0001139037282245,-0.0001274811883479,-8.359164319973744e-07,4.392173693190671e-06,3.842726782332663e-06,1.3253233813195433e-08,4.3115373418998784e-06,3.554184321119536e-06,0.0001392895490721,11.728,-4.616618712170526e-06,0.0001392130213463,0.0001120814553213,1.6039464404120067
1.5677235950619657,1.60395058570881,0.0001296008981516,3.982281657090983e-07,0.000129600286327,0.0001058409254973,3.744462468090565e-06,-2.676685880130399e-05,-8.360713731059288e-07,4.396939814910184e-06,3.807684717527238e-06,1.3250722176277365e-08,4.315689566358302e-06,3.5245028190633577e-06,0.0001394273242203,11.762,-4.621700604176841e-06,0.0001393507037038,0.0001110828861393,1.6039501394721152
1.5677271195647848,1.6039543611184957,0.0001336585244804,4.102250656451519e-07,0.000133657894947,0.0001081872365027,0.0001218506405041,7.045978995031555e-05,-8.362249170959513e-07,4.4016771334476346e-06,3.775409685768949e-06,1.3649723659680942e-08,4.450807934671613e-06,3.6026349755413637e-06,0.0001395684775327,11.796,-4.626906666808871e-06,0.0001394917619628,0.0001134856406112,1.6039539185439475
1.5677307221997605,1.603958106760087,0.0001298538176663,3.980798366120755e-07,0.0001298532074881,0.0001042323990722,-0.0001142554598831,-0.0001187638868022,-8.363772052016882e-07,4.406388785627158e-06,3.745641591335058e-06,1.3245878656180316e-08,4.3241118406601855e-06,3.4709388891052134e-06,0.0001397047841451,11.83,-4.631933566695975e-06,0.0001396279767971,0.0001092841737491,1.6039575577069334
1.5677341931386497,1.603961824904744,0.000129978308498,3.9801033103193625e-07,0.0001299776991171,0.0001035272438787,3.738463415536631e-06,-2.117583163651513e-05,-8.365283650016431e-07,4.411077614063785e-06,3.7181446570500047e-06,1.3243605341369926e-08,4.328257411746179e-06,3.4474572211617983e-06,0.0001398404886221,11.864,-4.636937829641098e-06,0.0001397635899139,0.000108497272781,1.603961170666117
1.5677376405958705,1.6039655176099312,0.0001340472177852,4.100077357481755e-07,0.0001340465907422,0.0001059801964025,0.0001221894680834,7.366223795147816e-05,-8.366785127986165e-07,4.415746190922221e-06,3.6927051871860073e-06,1.3642619145737372e-08,4.463751504298515e-06,3.5291405402038125e-06,0.0001399797395779,11.898,-4.642072447306179e-06,0.0001399027471341,0.0001110226368096,1.6039648677199227
1.5677411697364108,1.603969186739383,0.0001302309782256,3.978754733982618e-07,0.0001302303704391,0.0001022459763462,-0.0001146017885776,-0.0001121387404293,-8.36827753397662e-07,4.420396848114905e-06,3.669129451822074e-06,1.3239187350763891e-08,4.336671366249416e-06,3.404791012329156e-06,0.00014011440664,11.932,-4.647037634789168e-06,0.000140037323558,0.000107070652631,1.6039684331726554
1.567744574527423,1.6039728339663015,0.00013035538136,3.978117131594861e-07,0.0001303547743481,0.0001016799283889,3.735829863077775e-06,-1.699843715481731e-05,-8.369763300000721e-07,4.425025136978178e-06,3.6472269184795193e-06,1.3237095204126505e-08,4.34081401634712e-06,3.3859416153525503e-06,0.000140247966811,11.966,-4.651964132018212e-06,0.0001401707937636,0.0001064418948977,1.6039719776877557
1.5677479604690383,1.6039764607587963,0.0001344347206086,4.098056406399298e-07,0.0001344340959893,0.0001042072621026,0.0001225026801387,7.58959073177244e-05,-8.371231402029555e-07,4.429601938360506e-06,3.626792494770825e-06,1.3635990908507709e-08,4.4766554286660656e-06,3.470101828018102e-06,0.0001403833515596,12.0,-4.656964302870204e-06,0.0001403060871045,0.0001090531913554,1.6039756091590276
1.5677514305708664,1.6039800684985632,0.0001306057648846,3.976803858247112e-07,0.0001306051594364,0.0001006393558999,-0.0001149836553758,-0.0001071443304118,-8.372689664012944e-07,4.4341636744604784e-06,3.6077397669309615e-06,1.3232778121427982e-08,4.349151839661521e-06,3.351290551467656e-06,0.0001405144814698,12.034,-4.661806691953542e-06,0.0001404371284991,0.000105289218605,1.6039791152900071
1.567754781861418,1.6039836584396274,0.0001307289338985,3.976173134982229e-07,0.0001307283292126,0.0001001752317133,3.698769185795524e-06,-1.393766325918147e-05,-8.374141913999877e-07,4.438714734211757e-06,3.589941064197077e-06,1.3230702300420152e-08,4.353253393043717e-06,3.335835216056182e-06,0.0001406453265679,12.068,-4.6666381506648565e-06,0.0001405678852859,0.0001047766682491,1.6039826043530598
1.567758117696634,1.603987231717394,0.0001348192766318,4.0960852272009284e-07,0.0001348186543931,0.0001027551524709,0.0001228331151131,7.747509782308795e-05,-8.37558901095603e-07,4.443256556463382e-06,3.573277766566463e-06,1.3629505194927745e-08,4.489461222937614e-06,3.4217465772812264e-06,0.0001407798788105,12.102,-4.67160606166615e-06,0.0001407023467277,0.0001074494720159,1.603986182420478
