Time,header.seq,header.stamp.secs,header.stamp.nsecs,header.frame_id,orientation.x,orientation.y,orientation.z,orientation.w,orientation_covariance_0,orientation_covariance_1,orientation_covariance_2,orientation_covariance_3,orientation_covariance_4,orientation_covariance_5,orientation_covariance_6,orientation_covariance_7,orientation_covariance_8,angular_velocity.x,angular_velocity.y,angular_velocity.z,angular_velocity_covariance_0,angular_velocity_covariance_1,angular_velocity_covariance_2,angular_velocity_covariance_3,angular_velocity_covariance_4,angular_velocity_covariance_5,angular_velocity_covariance_6,angular_velocity_covariance_7,angular_velocity_covariance_8,linear_acceleration.x,linear_acceleration.y,linear_acceleration.z,linear_acceleration_covariance_0,linear_acceleration_covariance_1,linear_acceleration_covariance_2,linear_acceleration_covariance_3,linear_acceleration_covariance_4,linear_acceleration_covariance_5,linear_acceleration_covariance_6,linear_acceleration_covariance_7,linear_acceleration_covariance_8
0.196,0,0,196000000,base_footprint,0.001479248940855536,-1.5884568888728282e-05,0.9999989046802856,4.699447281992782e-05,0.0,0.0,0.0,0.0,0.0,0.0,0.0,0.0,0.0,-0.00017012040742601928,0.03849182123705763,-0.0001970733629109472,0.0,0.0,0.0,0.0,0.0,0.0,0.0,0.0,0.0,-0.0007257969656712842,-0.0005038532824837575,-0.10317180559661752,0.0,0.0,0.0,0.0,0.0,0.0,0.0,0.0,0.0
0.23,1,0,230000000,base_footprint,0.0006688016891989687,-2.3691820389815503e-05,0.9999997748871617,4.866851219635207e-05,0.0,0.0,0.0,0.0,0.0,0.0,0.0,0.0,0.0,-0.00043637156156428635,0.04765831043132235,-2.134956583482269e-05,0.0,0.0,0.0,0.0,0.0,0.0,0.0,0.0,0.0,0.0016576421414664466,0.0006127884445471601,0.005301260840458787,0.0,0.0,0.0,0.0,0.0,0.0,0.0,0.0,0.0
0.264,2,0,264000000,base_footprint,-0.00019387259569652636,-3.273210308150102e-05,0.9999999794848383,4.870676618716415e-05,0.0,0.0,0.0,0.0,0.0,0.0,0.0,0.0,0.0,-0.0006698567502255039,0.06958071401935553,-5.816378545511535e-05,0.0,0.0,0.0,0.0,0.0,0.0,0.0,0.0,0.0,-0.0017748367728266067,-5.8642123905686376e-05,0.004162998414792807,0.0,0.0,0.0,0.0,0.0,0.0,0.0,0.0,0.0
0.29800000000000004,3,0,298000000,base_footprint,-0.0013497379872237432,-4.313081057782851e-05,0.9999990869580084,4.9297553937961086e-05,0.0,0.0,0.0,0.0,0.0,0.0,0.0,0.0,0.0,-0.0005918285474095129,0.06777839555788813,-6.87352579618521e-06,0.0,0.0,0.0,0.0,0.0,0.0,0.0,0.0,0.0,0.0003886953720020104,9.84331840394194e-05,-0.0010813202894933444,0.0,0.0,0.0,0.0,0.0,0.0,0.0,0.0,0.0
0.332,4,0,332000000,base_footprint,-0.002503757665765203,-5.354621001941503e-05,0.9999968629448619,4.930303820514493e-05,0.0,0.0,0.0,0.0,0.0,0.0,0.0,0.0,0.0,-0.0005900719312396113,0.06770224891728341,6.985222267923423e-06,0.0,0.0,0.0,0.0,0.0,0.0,0.0,0.0,0.0,-0.00023383426506900923,2.429014342787647e-05,0.00015029252265085123,0.0,0.0,0.0,0.0,0.0,0.0,0.0,0.0,0.0
0.36600000000000005,5,0,366000000,base_footprint,-0.0036564817355383104,-6.394731840049114e-05,0.9999933117948941,4.916846565237894e-05,0.0,0.0,0.0,0.0,0.0,0.0,0.0,0.0,0.0,-0.0005899657343599442,0.0676262514542153,1.1785074262033905e-05,0.0,0.0,0.0,0.0,0.0,0.0,0.0,0.0,0.0,-0.00023378330293355456,6.619924256085156e-06,0.0001496594311750864,0.0,0.0,0.0,0.0,0.0,0.0,0.0,0.0,0.0
0.4,6,0,400000000,base_footprint,-0.003871347642117747,-7.302126293646739e-06,0.9999925045094961,5.948897765590012e-05,0.0,0.0,0.0,0.0,0.0,0.0,0.0,0.0,0.0,-0.0005177646415340007,-0.0001414388480234012,-0.00011134426161178994,0.0,0.0,0.0,0.0,0.0,0.0,0.0,0.0,0.0,0.008142208716329567,0.0003308413916998246,0.13188472815288685,0.0,0.0,0.0,0.0,0.0,0.0,0.0,0.0,0.0
0.43400000000000005,7,0,434000000,base_footprint,-0.0038607351287094686,-7.067017553997931e-06,0.9999925455365845,5.9544817799171316e-05,0.0,0.0,0.0,0.0,0.0,0.0,0.0,0.0,0.0,3.468077025314339e-05,-0.00025172654678952834,0.00019207682628301812,0.0,0.0,0.0,0.0,0.0,0.0,0.0,0.0,0.0,-0.008444446559447323,3.250498335005999e-05,0.0001669747075939834,0.0,0.0,0.0,0.0,0.0,0.0,0.0,0.0,0.0
0.467,8,0,468000000,base_footprint,-0.0038606715268733258,-7.159220853536517e-06,0.9999925460218334,5.536134485451821e-05,0.0,0.0,0.0,0.0,0.0,0.0,0.0,0.0,0.0,2.8355054360145354e-05,-0.00018314067541215894,0.0003071128370882442,0.0,0.0,0.0,0.0,0.0,0.0,0.0,0.0,0.0,-3.4543594490962146e-05,0.00022511248375235395,-8.89924452451594e-05,0.0,0.0,0.0,0.0,0.0,0.0,0.0,0.0,0.0
0.501,9,0,502000000,base_footprint,-0.0038606115282151204,-7.206830653468367e-06,0.9999925465265956,5.0179123585459434e-05,0.0,0.0,0.0,0.0,0.0,0.0,0.0,0.0,0.0,2.9562292003392917e-05,-0.00018006986059156295,0.00033456105602317794,0.0,0.0,0.0,0.0,0.0,0.0,0.0,0.0,0.0,-7.920563817796342e-06,5.39407486530828e-05,-6.7956520873860805e-06,0.0,0.0,0.0,0.0,0.0,0.0,0.0,0.0,0.0
0.536,10,0,536000000,base_footprint,-0.0038605967973082763,-7.239408415049959e-06,0.9999925468410796,4.474651740314989e-05,0.0,0.0,0.0,0.0,0.0,0.0,0.0,0.0,0.0,2.9923768547187965e-05,-0.0001788206952891441,0.00034173334006950873,0.0,0.0,0.0,0.0,0.0,0.0,0.0,0.0,0.0,-2.083748818937416e-06,1.410012839855263e-05,-2.2211302157727742e-06,0.0,0.0,0.0,0.0,0.0,0.0,0.0,0.0,0.0
0.5700000000000001,11,0,570000000,base_footprint,-0.0038605930806364817,-7.267402542446315e-06,0.9999925470861616,3.924769462713138e-05,0.0,0.0,0.0,0.0,0.0,0.0,0.0,0.0,0.0,3.0047672084699345e-05,-0.00017850212006688393,0.0003436448608448411,0.0,0.0,0.0,0.0,0.0,0.0,0.0,0.0,0.0,-5.617463362179619e-07,3.7533581069909585e-06,-5.694522371457681e-07,0.0,0.0,0.0,0.0,0.0,0.0,0.0,0.0,0.0
0.6040000000000001,12,0,604000000,base_footprint,-0.003860592296931188,-7.293829489721617e-06,0.9999925472902913,3.373116654459099e-05,0.0,0.0,0.0,0.0,0.0,0.0,0.0,0.0,0.0,3.0105391477988688e-05,-0.0001784167846703141,0.0003441637564484363,0.0,0.0,0.0,0.0,0.0,0.0,0.0,0.0,0.0,-1.5904810808841981e-07,1.0143788921545082e-06,-1.4704692921309177e-07,0.0,0.0,0.0,0.0,0.0,0.0,0.0,0.0,0.0
0.638,13,0,638000000,base_footprint,-0.0038605922919622577,-7.319521189290256e-06,0.9999925474611241,2.8209774533256027e-05,0.0,0.0,0.0,0.0,0.0,0.0,0.0,0.0,0.0,3.0143761363098096e-05,-0.0001783935191976994,0.000344313977048326,0.0,0.0,0.0,0.0,0.0,0.0,0.0,0.0,0.0,-5.241440482247662e-08,2.892698345373695e-07,-3.539678015475435e-08,0.0,0.0,0.0,0.0,0.0,0.0,0.0,0.0,0.0
0.672,14,0,672000000,base_footprint,-0.0038605924954519207,-7.344727684899734e-06,0.9999925476007023,2.2686918132811602e-05,0.0,0.0,0.0,0.0,0.0,0.0,0.0,0.0,0.0,3.0175329186127225e-05,-0.000178386690127229,0.0003443665900308657,0.0,0.0,0.0,0.0,0.0,0.0,0.0,0.0,0.0,-2.4175660785922837e-08,9.728626203173728e-08,-6.308729661336171e-09,0.0,0.0,0.0,0.0,0.0,0.0,0.0,0.0,0.0
0.7060000000000001,15,0,706000000,base_footprint,-0.003860592756214333,-7.369542223470778e-06,0.9999925477095691,1.7163497344544262e-05,0.0,0.0,0.0,0.0,0.0,0.0,0.0,0.0,0.0,3.0203572619670232e-05,-0.00017838422338437447,0.00034439335499222785,0.0,0.0,0.0,0.0,0.0,0.0,0.0,0.0,0.0,-1.6693710349665594e-08,4.6437248314113884e-08,9.736681107351467e-10,0.0,0.0,0.0,0.0,0.0,0.0,0.0,0.0,0.0
0.745,16,0,740000000,base_footprint,-0.0038605930340286404,-7.3940140310302006e-06,0.9999925477878675,1.163975047413427e-05,0.0,0.0,0.0,0.0,0.0,0.0,0.0,0.0,0.0,3.0229553826398317e-05,-0.00017838292147442418,0.00034441326929858025,0.0,0.0,0.0,0.0,0.0,0.0,0.0,0.0,0.0,-1.4708024933605742e-08,3.2952320337472967e-08,2.522417866812882e-09,0.0,0.0,0.0,0.0,0.0,0.0,0.0,0.0,0.0
0.774,17,0,774000000,base_footprint,-0.00386059331806668,-7.418178400603986e-06,0.9999925478356332,6.115740655682554e-06,0.0,0.0,0.0,0.0,0.0,0.0,0.0,0.0,0.0,3.025368255991539e-05,-0.0001783819371190064,0.0003444313627255382,0.0,0.0,0.0,0.0,0.0,0.0,0.0,0.0,0.0,-1.4178089919284556e-08,2.9360644572478877e-08,2.58859812143188e-09,0.0,0.0,0.0,0.0,0.0,0.0,0.0,0.0,0.0
0.808,18,0,808000000,base_footprint,-0.0038605936052975255,-7.442064869168962e-06,0.9999925478528732,5.914846462229975e-07,0.0,0.0,0.0,0.0,0.0,0.0,0.0,0.0,0.0,3.027618348251047e-05,-0.00017838104516707952,0.000344448967540122,0.0,0.0,0.0,0.0,0.0,0.0,0.0,0.0,0.0,-1.4034112956779722e-08,2.8390076495987596e-08,2.294304083240608e-09,0.0,0.0,0.0,0.0,0.0,0.0,0.0,0.0,0.0
0.8420000000000001,19,0,842000000,base_footprint,-0.0038605938947694515,-7.465699573837427e-06,0.9999925478395869,-4.93301307892232e-06,0.0,0.0,0.0,0.0,0.0,0.0,0.0,0.0,0.0,3.02972219451578e-05,-0.0001783801851692133,0.0003444664370636365,0.0,0.0,0.0,0.0,0.0,0.0,0.0,0.0,0.0,-1.3992786356788513e-08,2.8115211797189242e-08,1.9333987337370116e-09,0.0,0.0,0.0,0.0,0.0,0.0,0.0,0.0,0.0
0.877,20,0,876000000,base_footprint,-0.003860594186094924,-7.489106050160102e-06,0.999992547795772,-1.0457751300074736e-05,0.0,0.0,0.0,0.0,0.0,0.0,0.0,0.0,0.0,3.031693746359417e-05,-0.00017837934061652906,0.00034448386550514463,0.0,0.0,0.0,0.0,0.0,0.0,0.0,0.0,0.0,-1.3979081339973741e-08,2.8026367262202493e-08,1.5813380470701786e-09,0.0,0.0,0.0,0.0,0.0,0.0,0.0,0.0,0.0
0.91,21,0,910000000,base_footprint,-0.0038605944790483715,-7.5123056013951505e-06,0.9999925477214249,-1.598272966401703e-05,0.0,0.0,0.0,0.0,0.0,0.0,0.0,0.0,0.0,3.0335453994686287e-05,-0.00017837850627608706,0.000344501278292688,0.0,0.0,0.0,0.0,0.0,0.0,0.0,0.0,0.0,-1.3973063513841136e-08,2.7988205098476234e-08,1.255228826453224e-09,0.0,0.0,0.0,0.0,0.0,0.0,0.0,0.0,0.0
0.9440000000000001,22,0,944000000,base_footprint,-0.003860594773458296,-7.535317539725056e-06,0.9999925476165422,-2.1507948049936427e-05,0.0,0.0,0.0,0.0,0.0,0.0,0.0,0.0,0.0,3.035288309693606e-05,-0.00017837768044381128,0.00034451868269828526,0.0,0.0,0.0,0.0,0.0,0.0,0.0,0.0,0.0,-1.396943804320087e-08,2.796495068577982e-08,9.57729201143927e-10,0.0,0.0,0.0,0.0,0.0,0.0,0.0,0.0,0.0
0.9780000000000001,23,0,978000000,base_footprint,-0.003860595069177806,-7.558159380146132e-06,0.9999925474811207,-2.7033406402709805e-05,0.0,0.0,0.0,0.0,0.0,0.0,0.0,0.0,0.0,3.0369326003808763e-05,-0.00017837686190245265,0.0003445360811111036,0.0,0.0,0.0,0.0,0.0,0.0,0.0,0.0,0.0,-1.3966773853874334e-08,2.7946949664886902e-08,6.873788016910276e-10,0.0,0.0,0.0,0.0,0.0,0.0,0.0,0.0,0.0
1.012,24,1,12000000,base_footprint,-0.003860595366076228,-7.580847009680006e-06,0.9999925473151563,-3.255910468702969e-05,0.0,0.0,0.0,0.0,0.0,0.0,0.0,0.0,0.0,3.038487426383971e-05,-0.00017837604994687143,0.0003445534745583995,0.0,0.0,0.0,0.0,0.0,0.0,0.0,0.0,0.0,-1.3964645172351949e-08,2.793146817100725e-08,4.4189928509284576e-10,0.0,0.0,0.0,0.0,0.0,0.0,0.0,0.0,0.0
1.046,25,1,46000000,base_footprint,-0.003860595664035162,-7.603394839575559e-06,0.9999925471186457,-3.8085042875953126e-05,0.0,0.0,0.0,0.0,0.0,0.0,0.0,0.0,0.0,3.039961110064477e-05,-0.00017837524404007218,0.00034457086376982096,0.0,0.0,0.0,0.0,0.0,0.0,0.0,0.0,0.0,-1.3962943098926527e-08,2.7917877270627943e-08,2.1930365958537978e-10,0.0,0.0,0.0,0.0,0.0,0.0,0.0,0.0,0.0
1.08,26,1,80000000,base_footprint,-0.0038605959629475577,-7.62581594196773e-06,0.9999925468915852,-4.361122094759238e-05,0.0,0.0,0.0,0.0,0.0,0.0,0.0,0.0,0.0,3.04136119472123e-05,-0.00017837444349514458,0.00034458824919860603,0.0,0.0,0.0,0.0,0.0,0.0,0.0,0.0,0.0,-1.3961571591280678e-08,2.7905591310014152e-08,1.7191259632764557e-11,0.0,0.0,0.0,0.0,0.0,0.0,0.0,0.0,0.0
1.114,27,1,114000000,base_footprint,-0.003860596262716191,-7.648122174913216e-06,0.9999925466339713,-4.91376388832916e-05,0.0,0.0,0.0,0.0,0.0,0.0,0.0,0.0,0.0,3.0426945039288398e-05,-0.00017837364781253184,0.00034460563129473144,0.0,0.0,0.0,0.0,0.0,0.0,0.0,0.0,0.0,-1.396051054056915e-08,2.789456189508036e-08,-1.6600754443147112e-10,0.0,0.0,0.0,0.0,0.0,0.0,0.0,0.0,0.0
1.1480000000000001,28,1,148000000,base_footprint,-0.0038605965632527387,-7.670324294767288e-06,0.9999925463457998,-5.4664296667510975e-05,0.0,0.0,0.0,0.0,0.0,0.0,0.0,0.0,0.0,3.043967260831932e-05,-0.0001783728566418691,0.0003446230105162607,0.0,0.0,0.0,0.0,0.0,0.0,0.0,0.0,0.0,-1.3959739532264261e-08,2.7884775255587155e-08,-3.3231301620362994e-10,0.0,0.0,0.0,0.0,0.0,0.0,0.0,0.0,0.0
1.182,29,1,182000000,base_footprint,-0.003860596864477289,-7.692432058765518e-06,0.9999925460270676,-6.0191194287433466e-05,0.0,0.0,0.0,0.0,0.0,0.0,0.0,0.0,0.0,3.0451850845142006e-05,-0.00017837206941719114,0.00034464038717846036,0.0,0.0,0.0,0.0,0.0,0.0,0.0,0.0,0.0,-1.3959210652374317e-08,2.78759159607122e-08,-4.832551182685743e-10,0.0,0.0,0.0,0.0,0.0,0.0,0.0,0.0,0.0
1.216,30,1,216000000,base_footprint,-0.0038605971663170677,-7.714454317761259e-06,0.9999925456777703,-6.571833173276262e-05,0.0,0.0,0.0,0.0,0.0,0.0,0.0,0.0,0.0,3.0463530751934694e-05,-0.0001783712858146695,0.0003446577615882868,0.0,0.0,0.0,0.0,0.0,0.0,0.0,0.0,0.0,-1.3958902336617143e-08,2.7867939769442124e-08,-6.201745218017384e-10,0.0,0.0,0.0,0.0,0.0,0.0,0.0,0.0,0.0
1.25,31,1,250000000,base_footprint,-0.0038605974687060717,-7.736399100426835e-06,0.9999925452979047,-7.124570899539592e-05,0.0,0.0,0.0,0.0,0.0,0.0,0.0,0.0,0.0,3.0474758743815918e-05,-0.00017837050552228914,0.0003446751341163285,0.0,0.0,0.0,0.0,0.0,0.0,0.0,0.0,0.0,-1.3958821685333934e-08,2.7860946746288304e-08,-7.44286292842283e-10,0.0,0.0,0.0,0.0,0.0,0.0,0.0,0.0,0.0
1.284,32,1,284000000,base_footprint,-0.0038605977715844377,-7.758273689551875e-06,0.9999925448874665,-7.677332606901702e-05,0.0,0.0,0.0,0.0,0.0,0.0,0.0,0.0,0.0,3.0485576839316192e-05,-0.0001783697282142539,0.0003446925049769136,0.0,0.0,0.0,0.0,0.0,0.0,0.0,0.0,0.0,-1.3958911871846077e-08,2.7854606535150013e-08,-8.569869857750212e-10,0.0,0.0,0.0,0.0,0.0,0.0,0.0,0.0,0.0
1.317,33,1,318000000,base_footprint,-0.003860598074897701,-7.780084691535687e-06,0.9999925444464522,-8.230118294929471e-05,0.0,0.0,0.0,0.0,0.0,0.0,0.0,0.0,0.0,3.049602307621081e-05,-0.00017836895357485264,0.00034470987445250656,0.0,0.0,0.0,0.0,0.0,0.0,0.0,0.0,0.0,-1.3959184641767364e-08,2.784902899313306e-08,-9.591792342637267e-10,0.0,0.0,0.0,0.0,0.0,0.0,0.0,0.0,0.0
1.351,34,1,352000000,base_footprint,-0.0038605983785966955,-7.801838098960214e-06,0.9999925439748579,-8.782927963375272e-05,0.0,0.0,0.0,0.0,0.0,0.0,0.0,0.0,0.0,3.05061320031621e-05,-0.00017836818129756218,0.0003447272427532935,0.0,0.0,0.0,0.0,0.0,0.0,0.0,0.0,0.0,-1.395960858055116e-08,2.7844054377978965e-08,-1.052023386727287e-09,0.0,0.0,0.0,0.0,0.0,0.0,0.0,0.0,0.0
1.3860000000000001,35,1,386000000,base_footprint,-0.003860598682636414,-7.823539347796254e-06,0.9999925434726799,-9.335761612097746e-05,0.0,0.0,0.0,0.0,0.0,0.0,0.0,0.0,0.0,3.0515935084972664e-05,-0.00017836741127690993,0.0003447446100941609,0.0,0.0,0.0,0.0,0.0,0.0,0.0,0.0,0.0,-1.3960172083869633e-08,2.7839676426563277e-08,-1.1362562362367912e-09,0.0,0.0,0.0,0.0,0.0,0.0,0.0,0.0,0.0
1.42,36,1,420000000,base_footprint,-0.003852428236464188,-7.81773685567593e-06,0.9999925744333801,-9.906395378598655e-05,0.0,0.0,0.0,0.0,0.0,0.0,0.0,0.0,0.0,0.00014959684237997174,-0.004208878010242883,0.00044108063962367754,0.0,0.0,0.0,0.0,0.0,0.0,0.0,0.0,0.0,0.0723758005838922,0.00020015288511910766,0.005803423388791689,0.0,0.0,0.0,0.0,0.0,0.0,0.0,0.0,0.0
1.454,37,1,454000000,base_footprint,-0.003853065073185846,-7.6529397064248e-06,0.9999925712446606,-0.0001062377850228068,0.0,0.0,0.0,0.0,0.0,0.0,0.0,0.0,0.0,0.00011871991252916183,0.0010000792876543247,7.575627555567909e-05,0.0,0.0,0.0,0.0,0.0,0.0,0.0,0.0,0.0,0.77644853322776,-0.0005446749219381725,-0.00024529363750164755,0.0,0.0,0.0,0.0,0.0,0.0,0.0,0.0,0.0
1.488,38,1,488000000,base_footprint,-0.0038534607811863773,-7.735670750950108e-06,0.999992568870821,-0.00011394429996685242,0.0,0.0,0.0,0.0,0.0,0.0,0.0,0.0,0.0,0.00011849004175281464,0.0010213061403949084,0.00017206837319531148,0.0,0.0,0.0,0.0,0.0,0.0,0.0,0.0,0.0,0.7864309648149915,0.00036610807219174366,0.006025081913330588,0.0,0.0,0.0,0.0,0.0,0.0,0.0,0.0,0.0
1.522,39,1,522000000,base_footprint,-0.0038552756863362734,-7.817502795584086e-06,0.9999925608422089,-0.00012267236968609483,0.0,0.0,0.0,0.0,0.0,0.0,0.0,0.0,0.0,9.605094774726967e-05,0.0018168547810454704,0.0002486104767415692,0.0,0.0,0.0,0.0,0.0,0.0,0.0,0.0,0.0,0.7829012018636146,0.00034031133296442154,0.0047535078479095765,0.0,0.0,0.0,0.0,0.0,0.0,0.0,0.0,0.0
1.556,40,1,556000000,base_footprint,-0.0038575445708834964,-7.953222272111397e-06,0.9999925508452389,-0.00013244116560642488,0.0,0.0,0.0,0.0,0.0,0.0,0.0,0.0,0.0,4.543291678151501e-05,0.002029490782454129,0.0003468863218765628,0.0,0.0,0.0,0.0,0.0,0.0,0.0,0.0,0.0,0.7692195999328073,0.00039372605268191786,0.005588199715154637,0.0,0.0,0.0,0.0,0.0,0.0,0.0,0.0,0.0
1.59,41,1,590000000,base_footprint,-0.003859168354208503,-8.119311713321463e-06,0.99999254313577,-0.00014292146792027255,0.0,0.0,0.0,0.0,0.0,0.0,0.0,0.0,0.0,4.656764959643467e-05,0.002125236425604262,0.0003461791967545821,0.0,0.0,0.0,0.0,0.0,0.0,0.0,0.0,0.0,0.7307689201927827,0.0002073973122992544,0.005500560256252834,0.0,0.0,0.0,0.0,0.0,0.0,0.0,0.0,0.0
1.624,42,1,624000000,base_footprint,-0.0038620977985770267,-8.299035858673174e-06,0.9999925303188079,-0.00015309574958048463,0.0,0.0,0.0,0.0,0.0,0.0,0.0,0.0,0.0,2.2305448589658886e-05,0.0009591089119379736,0.0004616945783035383,0.0,0.0,0.0,0.0,0.0,0.0,0.0,0.0,0.0,0.6572172893258454,0.0004248891719124712,0.006485496863875111,0.0,0.0,0.0,0.0,0.0,0.0,0.0,0.0,0.0
1.658,43,1,658000000,base_footprint,-0.003864161934629122,-8.293595847310152e-06,0.9999925209639621,-0.00016186382913053053,0.0,0.0,0.0,0.0,0.0,0.0,0.0,0.0,0.0,4.131959427844133e-05,-7.860024229038724e-05,0.0005419100789878481,0.0,0.0,0.0,0.0,0.0,0.0,0.0,0.0,0.0,0.5343664558458999,0.0003289783823613533,0.005372956668160086,0.0,0.0,0.0,0.0,0.0,0.0,0.0,0.0,0.0
1.6920000000000002,44,1,692000000,base_footprint,-0.0038663582003342556,-8.150894897547096e-06,0.9999925111457437,-0.00016988307573571605,0.0,0.0,0.0,0.0,0.0,0.0,0.0,0.0,0.0,5.5276542744444735e-05,-9.727928521576667e-05,0.00020482570654492386,0.0,0.0,0.0,0.0,0.0,0.0,0.0,0.0,0.0,0.36797853567064126,-0.0005287937054761232,0.0029099662015800993,0.0,0.0,0.0,0.0,0.0,0.0,0.0,0.0,0.0
1.726,45,1,726000000,base_footprint,-0.0038648749695198792,-7.207730978779163e-06,0.9999925210353415,-0.00014339770156443526,0.0,0.0,0.0,0.0,0.0,0.0,0.0,0.0,0.0,0.00016776972772924824,-0.0004061871840754108,-0.0033493874878163044,0.0,0.0,0.0,0.0,0.0,0.0,0.0,0.0,0.0,0.17307192757163173,-0.0068427006718651436,0.0019612919467184436,0.0,0.0,0.0,0.0,0.0,0.0,0.0,0.0,0.0
1.76,46,1,760000000,base_footprint,-0.003851193805849578,-1.4500106007272186e-05,0.9999925803996466,-8.509802032168833e-05,0.0,0.0,0.0,0.0,0.0,0.0,0.0,0.0,0.0,-0.0007116286303635175,0.0034496616324299766,0.0023749236353903646,0.0,0.0,0.0,0.0,0.0,0.0,0.0,0.0,0.0,-0.011599339373762839,0.011093913180932852,-0.007350822662397575,0.0,0.0,0.0,0.0,0.0,0.0,0.0,0.0,0.0
1.794,47,1,794000000,base_footprint,-0.0038523814927988453,-7.293092776470772e-06,0.9999925628771049,-0.00018246677585081943,0.0,0.0,0.0,0.0,0.0,0.0,0.0,0.0,0.0,-7.991804831119237e-05,-0.00024021334337173678,0.002279834296525631,0.0,0.0,0.0,0.0,0.0,0.0,0.0,0.0,0.0,0.11216925875223549,-0.00013936491970139515,0.007379844601487325,0.0,0.0,0.0,0.0,0.0,0.0,0.0,0.0,0.0
1.828,48,1,828000000,base_footprint,-0.0038539015553371533,-8.23607631917599e-06,0.9999925490127856,-0.0002220222523193827,0.0,0.0,0.0,0.0,0.0,0.0,0.0,0.0,0.0,1.822424748374193e-05,-0.00025752295518674366,0.001905373451334521,0.0,0.0,0.0,0.0,0.0,0.0,0.0,0.0,0.0,0.2766162199446476,-0.0006023170589384217,0.002325299411593389,0.0,0.0,0.0,0.0,0.0,0.0,0.0,0.0,0.0
1.862,49,1,862000000,base_footprint,-0.003860107174308958,-9.929562581977615e-06,0.9999925178459333,-0.0002524404038885719,0.0,0.0,0.0,0.0,0.0,0.0,0.0,0.0,0.0,2.9896624091680698e-05,0.005263329889137831,0.0012181982739287523,0.0,0.0,0.0,0.0,0.0,0.0,0.0,0.0,0.0,0.4079740044877604,-0.0011260765663413039,-0.006026627888511273,0.0,0.0,0.0,0.0,0.0,0.0,0.0,0.0,0.0
1.896,50,1,896000000,base_footprint,-0.0038655636384162316,-1.1118898637457037e-05,0.9999924893039552,-0.0002804100685900458,0.0,0.0,0.0,0.0,0.0,0.0,0.0,0.0,0.0,5.2379056353825836e-05,-0.0004860083248802035,0.0019848398248735705,0.0,0.0,0.0,0.0,0.0,0.0,0.0,0.0,0.0,0.02124995906041012,0.0015066736586808005,0.009881446031054553,0.0,0.0,0.0,0.0,0.0,0.0,0.0,0.0,0.0
1.9300000000000002,51,1,930000000,base_footprint,-0.003864570895793748,-1.2536277088250951e-05,0.9999924274540511,-0.0004582239490752085,0.0,0.0,0.0,0.0,0.0,0.0,0.0,0.0,0.0,-9.672693578329937e-05,0.0007550328042334547,0.05876805390356487,0.0,0.0,0.0,0.0,0.0,0.0,0.0,0.0,0.0,-0.26523628126375387,0.005043594706487327,-0.00399661044212999,0.0,0.0,0.0,0.0,0.0,0.0,0.0,0.0,0.0
1.964,52,1,964000000,base_footprint,-0.003861013266766121,-1.4156611885080391e-05,0.999991511368658,-0.0014385988917489313,0.0,0.0,0.0,0.0,0.0,0.0,0.0,0.0,0.0,0.00015325663382415586,-0.00022727317342277782,0.00014464905357824541,0.0,0.0,0.0,0.0,0.0,0.0,0.0,0.0,0.0,-0.06315693996121985,0.008370703478754312,0.0011496806846891083,0.0,0.0,0.0,0.0,0.0,0.0,0.0,0.0,0.0
1.9980000000000002,53,1,998000000,base_footprint,-0.003860623642671157,-1.370499902340749e-05,0.9999914930200443,-0.0014523377036289914,0.0,0.0,0.0,0.0,0.0,0.0,0.0,0.0,0.0,6.415660691961849e-05,-0.00016113197617529195,0.0007385714389721105,0.0,0.0,0.0,0.0,0.0,0.0,0.0,0.0,0.0,0.004778676183590071,0.0008397662867019181,-0.0002426411672220392,0.0,0.0,0.0,0.0,0.0,0.0,0.0,0.0,0.0
2.032,54,2,32000000,base_footprint,-0.0038620150069551373,-1.3497656745557601e-05,0.999991473979194,-0.0014617204994870536,0.0,0.0,0.0,0.0,0.0,0.0,0.0,0.0,0.0,5.826976248875902e-05,-8.156905056386931e-05,0.00035580265876498343,0.0,0.0,0.0,0.0,0.0,0.0,0.0,0.0,0.0,0.005545422653210071,4.939597639333087e-05,-0.00012957939509898253,0.0,0.0,0.0,0.0,0.0,0.0,0.0,0.0,0.0
2.066,55,2,66000000,base_footprint,-0.003864996700752261,-1.3437291960758635e-05,0.9999914582097105,-0.0014646253989548076,0.0,0.0,0.0,0.0,0.0,0.0,0.0,0.0,0.0,5.2546288206840176e-05,1.8788179579043934e-05,-2.5726794546117377e-05,0.0,0.0,0.0,0.0,0.0,0.0,0.0,0.0,0.0,0.0053431045949305376,-8.20531586835685e-05,-0.00018118813338832262,0.0,0.0,0.0,0.0,0.0,0.0,0.0,0.0,0.0
2.1,56,2,100000000,base_footprint,-0.003869578815006525,-1.381102795738045e-05,0.9999914457214177,-0.0014610451871344408,0.0,0.0,0.0,0.0,0.0,0.0,0.0,0.0,0.0,5.337832730063177e-05,8.441592919005221e-05,-0.00044204429212335556,0.0,0.0,0.0,0.0,0.0,0.0,0.0,0.0,0.0,0.004674654454922294,-0.0003622353091376704,-0.00022923000257494994,0.0,0.0,0.0,0.0,0.0,0.0,0.0,0.0,0.0
2.134,57,2,134000000,base_footprint,-0.0038688329660943005,-1.4745917858328085e-05,0.9999913320391101,-0.0015387529641828586,0.0,0.0,0.0,0.0,0.0,0.0,0.0,0.0,0.0,-0.0010682221379232093,0.0019535941883283775,0.02855022682717414,0.0,0.0,0.0,0.0,0.0,0.0,0.0,0.0,0.0,0.1889924794511038,0.008368746082654581,-0.00171055368698631,0.0,0.0,0.0,0.0,0.0,0.0,0.0,0.0,0.0
2.168,58,2,168000000,base_footprint,-0.003870070362191496,-1.2956497354797301e-05,0.9999903321823671,-0.0020875654049969075,0.0,0.0,0.0,0.0,0.0,0.0,0.0,0.0,0.0,-0.0008716352839967086,0.00014445738375471742,-0.00525486717471388,0.0,0.0,0.0,0.0,0.0,0.0,0.0,0.0,0.0,0.15830941234152754,0.0009200209863583541,0.004349899001199476,0.0,0.0,0.0,0.0,0.0,0.0,0.0,0.0,0.0
2.202,59,2,202000000,base_footprint,-0.0038749313763931387,-1.3871580756255457e-05,0.9999903159109457,-0.0020863361988388307,0.0,0.0,0.0,0.0,0.0,0.0,0.0,0.0,0.0,8.312901816441722e-05,-0.0004443395990202097,-0.00017547613238560623,0.0,0.0,0.0,0.0,0.0,0.0,0.0,0.0,0.0,-0.01723384605344894,-0.003358677677362836,0.0008271904986103845,0.0,0.0,0.0,0.0,0.0,0.0,0.0,0.0,0.0
2.236,60,2,236000000,base_footprint,-0.0038683881113546217,-1.3143034974824492e-05,0.9999902702147812,-0.002120112367228577,0.0,0.0,0.0,0.0,0.0,0.0,0.0,0.0,0.0,-9.170408259310503e-05,-0.00030533801584649805,0.005041188825730205,0.0,0.0,0.0,0.0,0.0,0.0,0.0,0.0,0.0,-0.031274539259207576,-0.0028105562756949635,-0.0004443493308501571,0.0,0.0,0.0,0.0,0.0,0.0,0.0,0.0,0.0
2.27,61,2,270000000,base_footprint,-0.0038725335927261113,-1.388143011597892e-05,0.9999897431664246,-0.0023487981665738194,0.0,0.0,0.0,0.0,0.0,0.0,0.0,0.0,0.0,-0.00025475527293252566,-1.4746758343905854e-05,0.016412644066121668,0.0,0.0,0.0,0.0,0.0,0.0,0.0,0.0,0.0,-0.03375346535571779,0.011515671508619362,-0.0014315697084153177,0.0,0.0,0.0,0.0,0.0,0.0,0.0,0.0,0.0
2.304,62,2,304000000,base_footprint,-0.0038741007063874057,-1.864064710098374e-05,0.9999895549862403,-0.0024250597238296956,0.0,0.0,0.0,0.0,0.0,0.0,0.0,0.0,0.0,0.00016044180802648892,-0.0006024251356215342,0.001281926644542549,0.0,0.0,0.0,0.0,0.0,0.0,0.0,0.0,0.0,0.0378199649960741,0.003982988337185566,0.0019456030839992728,0.0,0.0,0.0,0.0,0.0,0.0,0.0,0.0,0.0
2.338,63,2,338000000,base_footprint,-0.0038702126897484606,-1.847432951028899e-05,0.9999895907728024,-0.0024164971505528975,0.0,0.0,0.0,0.0,0.0,0.0,0.0,0.0,0.0,4.7378565856354414e-05,-0.00024233062893358996,-0.002006266631223338,0.0,0.0,0.0,0.0,0.0,0.0,0.0,0.0,0.0,0.0012330236131963951,-0.0029657757935171807,-0.0006138991807082677,0.0,0.0,0.0,0.0,0.0,0.0,0.0,0.0,0.0
2.372,64,2,372000000,base_footprint,-0.003866703699790571,-1.908141503996911e-05,0.9999896809885797,-0.0023845659471714293,0.0,0.0,0.0,0.0,0.0,0.0,0.0,0.0,0.0,-6.263910642945902e-05,-0.0003134687243529294,-0.0017726446312051564,0.0,0.0,0.0,0.0,0.0,0.0,0.0,0.0,0.0,0.004067148150604573,-0.0009150741110700918,0.0003060697732875249,0.0,0.0,0.0,0.0,0.0,0.0,0.0,0.0,0.0
2.406,65,2,406000000,base_footprint,-0.003862766128618006,-1.7997023704368072e-05,0.999989773552673,-0.0023519149679764773,0.0,0.0,0.0,0.0,0.0,0.0,0.0,0.0,0.0,0.000115605080852136,-0.00034248389364356614,-0.0021242030001175317,0.0,0.0,0.0,0.0,0.0,0.0,0.0,0.0,0.0,0.005574958577328923,-0.0004814849623814477,0.00022149312388378476,0.0,0.0,0.0,0.0,0.0,0.0,0.0,0.0,0.0
2.44,66,2,440000000,base_footprint,-0.003860824905527282,-1.7248503689979487e-05,0.9999897772252632,-0.0023535459432260358,0.0,0.0,0.0,0.0,0.0,0.0,0.0,0.0,0.0,7.274513015996428e-05,-0.0002481406300201053,0.0011814288596970759,0.0,0.0,0.0,0.0,0.0,0.0,0.0,0.0,0.0,0.004884339575506822,3.734362733453035e-05,-0.00014692354117442136,0.0,0.0,0.0,0.0,0.0,0.0,0.0,0.0,0.0
2.474,67,2,474000000,base_footprint,-0.0038606387303096487,-1.6850996994060294e-05,0.9999897391272563,-0.0023699841433485504,0.0,0.0,0.0,0.0,0.0,0.0,0.0,0.0,0.0,6.482487734647046e-05,-0.00016465525141928132,0.0007518645247511791,0.0,0.0,0.0,0.0,0.0,0.0,0.0,0.0,0.0,0.005911664971210584,0.00019123644589627196,-0.00012322698157999585,0.0,0.0,0.0,0.0,0.0,0.0,0.0,0.0,0.0
2.508,68,2,508000000,base_footprint,-0.0038620313206296055,-1.66538950546472e-05,0.9999897118094206,-0.0023792250919676275,0.0,0.0,0.0,0.0,0.0,0.0,0.0,0.0,0.0,5.763245727020316e-05,-7.610367805519713e-05,0.0003293793583999654,0.0,0.0,0.0,0.0,0.0,0.0,0.0,0.0,0.0,0.005854650660776975,6.650599754193461e-05,-0.0001453071275048484,0.0,0.0,0.0,0.0,0.0,0.0,0.0,0.0,0.0
2.542,69,2,542000000,base_footprint,-0.0038652031793128625,-1.662420656599791e-05,0.9999896945285575,-0.0023813367466124754,0.0,0.0,0.0,0.0,0.0,0.0,0.0,0.0,0.0,5.118199257171841e-05,3.658385497285045e-05,-8.892026631142988e-05,0.0,0.0,0.0,0.0,0.0,0.0,0.0,0.0,0.0,0.00563423084072076,-7.977052059747528e-05,-0.00020482389893959944,0.0,0.0,0.0,0.0,0.0,0.0,0.0,0.0,0.0
2.576,70,2,576000000,base_footprint,-0.0038701358475165585,-1.7046796899179267e-05,0.9999896872033472,-0.0023763932503787647,0.0,0.0,0.0,0.0,0.0,0.0,0.0,0.0,0.0,-3.4252181634871765e-05,0.00015140663774124003,-0.0004855063681835063,0.0,0.0,0.0,0.0,0.0,0.0,0.0,0.0,0.0,0.004714195689728997,-0.0004910937114864363,-0.0004132516501513812,0.0,0.0,0.0,0.0,0.0,0.0,0.0,0.0,0.0
2.61,71,2,610000000,base_footprint,-0.003873297435974823,-1.646704221390386e-05,0.999989699880486,-0.0023658885740323386,0.0,0.0,0.0,0.0,0.0,0.0,0.0,0.0,0.0,5.594831013047798e-05,7.050257934720763e-05,-0.0007823132157990587,0.0,0.0,0.0,0.0,0.0,0.0,0.0,0.0,0.0,0.001665337399923839,-0.000878971595195624,0.00015210061461435126,0.0,0.0,0.0,0.0,0.0,0.0,0.0,0.0,0.0
2.644,72,2,644000000,base_footprint,-0.003865037030311177,-4.1711685115983345e-06,0.9999891086393506,-0.0026161181228236963,0.0,0.0,0.0,0.0,0.0,0.0,0.0,0.0,0.0,0.001065086423874711,-0.0023062030096537675,0.04574001613696658,0.0,0.0,0.0,0.0,0.0,0.0,0.0,0.0,0.0,-0.290560887528401,0.004233672191142674,0.002317981781271697,0.0,0.0,0.0,0.0,0.0,0.0,0.0,0.0,0.0
2.678,73,2,678000000,base_footprint,-0.0038780933243399906,-1.4434927563340576e-05,0.9999880580008914,-0.0029738929715888607,0.0,0.0,0.0,0.0,0.0,0.0,0.0,0.0,0.0,0.0001353167784846784,0.0004902225181356122,0.00027910104666775904,0.0,0.0,0.0,0.0,0.0,0.0,0.0,0.0,0.0,-0.04892331144017294,-0.006133903567481452,-0.005779250935487647,0.0,0.0,0.0,0.0,0.0,0.0,0.0,0.0,0.0
2.712,74,2,712000000,base_footprint,-0.003871275047388796,-1.474998933209803e-05,0.9999877810301429,-0.003074215730286841,0.0,0.0,0.0,0.0,0.0,0.0,0.0,0.0,0.0,-0.00042259160126288924,-0.0007232583283279633,0.01311458335115676,0.0,0.0,0.0,0.0,0.0,0.0,0.0,0.0,0.0,-0.042827395002603776,0.00012359035693432186,0.0019343504382945311,0.0,0.0,0.0,0.0,0.0,0.0,0.0,0.0,0.0
2.746,75,2,746000000,base_footprint,-0.0038715423236166165,-1.8210954593347538e-05,0.9999868188414326,-0.003372383695473712,0.0,0.0,0.0,0.0,0.0,0.0,0.0,0.0,0.0,0.00012467837226897555,-8.279248285066389e-05,0.020607978776199597,0.0,0.0,0.0,0.0,0.0,0.0,0.0,0.0,0.0,-0.0478240227153947,0.011304533154817165,-0.002030029035772746,0.0,0.0,0.0,0.0,0.0,0.0,0.0,0.0,0.0
2.7800000000000002,76,2,780000000,base_footprint,-0.0038750391965310764,-2.37989206512892e-05,0.999986241049938,-0.003535705820920102,0.0,0.0,0.0,0.0,0.0,0.0,0.0,0.0,0.0,-8.446821925032928e-05,3.819760728621164e-05,-0.0018895270957014207,0.0,0.0,0.0,0.0,0.0,0.0,0.0,0.0,0.0,0.05767251692317812,0.004877495975794885,0.0009597242093400843,0.0,0.0,0.0,0.0,0.0,0.0,0.0,0.0,0.0
2.814,77,2,814000000,base_footprint,-0.0038706222707617756,-2.312533239502733e-05,0.9999861808432627,-0.003557509095099448,0.0,0.0,0.0,0.0,0.0,0.0,0.0,0.0,0.0,1.741099822169478e-05,-0.00027274730815976815,0.0016521517483681592,0.0,0.0,0.0,0.0,0.0,0.0,0.0,0.0,0.0,-0.007998603110495321,-0.0015278112030495058,0.00036295089024502203,0.0,0.0,0.0,0.0,0.0,0.0,0.0,0.0,0.0
2.848,78,2,848000000,base_footprint,-0.003865760488760702,-2.8351140333113413e-05,0.9999837329849475,-0.0041939071932666225,0.0,0.0,0.0,0.0,0.0,0.0,0.0,0.0,0.0,0.0012425895442356872,0.002093992377172382,0.08847549012866159,0.0,0.0,0.0,0.0,0.0,0.0,0.0,0.0,0.0,0.3055814290858717,0.010925063513560136,-0.0008509327712108875,0.0,0.0,0.0,0.0,0.0,0.0,0.0,0.0,0.0
2.882,79,2,882000000,base_footprint,-0.003863737625858411,-2.6488716267724387e-05,0.9999826981029417,-0.004435574897070155,0.0,0.0,0.0,0.0,0.0,0.0,0.0,0.0,0.0,8.559885506068586e-05,-0.00023235304630443143,0.0017341291267243192,0.0,0.0,0.0,0.0,0.0,0.0,0.0,0.0,0.0,0.043989085251273395,0.00483852582343918,0.003856314786837417,0.0,0.0,0.0,0.0,0.0,0.0,0.0,0.0,0.0
2.916,80,2,916000000,base_footprint,-0.0038610793540529097,-2.5669287500885242e-05,0.9999825910451527,-0.0044619518074867325,0.0,0.0,0.0,0.0,0.0,0.0,0.0,0.0,0.0,8.177826380321311e-05,-0.00026681953161899607,0.001351289810042545,0.0,0.0,0.0,0.0,0.0,0.0,0.0,0.0,0.0,0.005608194813838829,0.0008668863444814319,-8.450168694982647e-06,0.0,0.0,0.0,0.0,0.0,0.0,0.0,0.0,0.0
2.95,81,2,950000000,base_footprint,-0.0038605793444953522,-2.513477009960463e-05,0.9999825259913464,-0.00447694173901699,0.0,0.0,0.0,0.0,0.0,0.0,0.0,0.0,0.0,7.363775373369327e-05,-0.00017961856470040795,0.0006598945288797481,0.0,0.0,0.0,0.0,0.0,0.0,0.0,0.0,0.0,0.005969695844510366,0.000257721357598866,-0.00012774982083882272,0.0,0.0,0.0,0.0,0.0,0.0,0.0,0.0,0.0
2.984,82,2,984000000,base_footprint,-0.003861669236016789,-2.4808969425724625e-05,0.9999824873661723,-0.004484624420143704,0.0,0.0,0.0,0.0,0.0,0.0,0.0,0.0,0.0,6.674096808284207e-05,-9.314393957071391e-05,0.00024375886693140376,0.0,0.0,0.0,0.0,0.0,0.0,0.0,0.0,0.0,0.005864749939430804,0.0001062625336958445,-0.00013909498666913808,0.0,0.0,0.0,0.0,0.0,0.0,0.0,0.0,0.0
3.018,83,3,18000000,base_footprint,-0.0038644518967399615,-2.4846778122277413e-05,0.999982479927102,-0.004483885928353163,0.0,0.0,0.0,0.0,0.0,0.0,0.0,0.0,0.0,-0.0003423136530737169,-6.0973430679878866e-05,-0.0028645438832138504,0.0,0.0,0.0,0.0,0.0,0.0,0.0,0.0,0.0,0.006041916950029715,-0.0006129624195516719,-0.00011453251903078253,0.0,0.0,0.0,0.0,0.0,0.0,0.0,0.0,0.0
3.052,84,3,52000000,base_footprint,-0.003869245349591399,-2.4308980468874745e-05,0.9999830652467346,-0.004347133451261766,0.0,0.0,0.0,0.0,0.0,0.0,0.0,0.0,0.0,0.00012597596347391928,0.00010623607996716626,-0.008334527017295871,0.0,0.0,0.0,0.0,0.0,0.0,0.0,0.0,0.0,0.006766908871410379,-0.0013100436854063871,-0.0003270616198919459,0.0,0.0,0.0,0.0,0.0,0.0,0.0,0.0,0.0
3.086,85,3,86000000,base_footprint,-0.0038727837245870964,-2.356813873309376e-05,0.9999836700931336,-0.0042024442687856765,0.0,0.0,0.0,0.0,0.0,0.0,0.0,0.0,0.0,0.00012406492560586502,5.8417057632715555e-05,-0.008710570114512982,0.0,0.0,0.0,0.0,0.0,0.0,0.0,0.0,0.0,0.0024318605057241103,-0.0027537982253660062,-9.522142343025716e-06,0.0,0.0,0.0,0.0,0.0,0.0,0.0,0.0,0.0
3.12,86,3,120000000,base_footprint,-0.003875829321267422,-2.1949604384297335e-05,0.9999842672241974,-0.004054968479806353,0.0,0.0,0.0,0.0,0.0,0.0,0.0,0.0,0.0,0.00021482606779405685,7.898072231770445e-05,-0.005713974628455397,0.0,0.0,0.0,0.0,0.0,0.0,0.0,0.0,0.0,-0.005008979827430462,-0.0025610442195106685,7.803105464697437e-06,0.0,0.0,0.0,0.0,0.0,0.0,0.0,0.0,0.0
3.154,87,3,154000000,base_footprint,-0.003875050926909039,-2.1253780194161214e-05,0.999984279189598,-0.004052764766296865,0.0,0.0,0.0,0.0,0.0,0.0,0.0,0.0,0.0,7.258633020474302e-05,-0.0003074676941054338,-0.0004901092001254176,0.0,0.0,0.0,0.0,0.0,0.0,0.0,0.0,0.0,-0.006719810011047025,-0.00363498329470208,0.0005941571985668603,0.0,0.0,0.0,0.0,0.0,0.0,0.0,0.0,0.0
3.188,88,3,188000000,base_footprint,-0.003868342769768725,-2.092483496969237e-05,0.9999842054338314,-0.004077299257580709,0.0,0.0,0.0,0.0,0.0,0.0,0.0,0.0,0.0,-7.767253920187106e-05,-0.00047721934081716624,0.0028880152440254234,0.0,0.0,0.0,0.0,0.0,0.0,0.0,0.0,0.0,-0.02990711303320332,0.0023618152343716364,0.0001201184212855165,0.0,0.0,0.0,0.0,0.0,0.0,0.0,0.0,0.0
3.222,89,3,222000000,base_footprint,-0.003872356664754261,-2.098318877658587e-05,0.9999833108110517,-0.004287483286755767,0.0,0.0,0.0,0.0,0.0,0.0,0.0,0.0,0.0,-6.967459528829656e-05,-0.000720450348892167,0.01664632424828383,0.0,0.0,0.0,0.0,0.0,0.0,0.0,0.0,0.0,-0.04563725921052275,0.006981146757138267,-0.00027173459216506176,0.0,0.0,0.0,0.0,0.0,0.0,0.0,0.0,0.0
3.2560000000000002,90,3,256000000,base_footprint,-0.0038748198536466792,-2.6798252929524747e-05,0.9999831035567426,-0.004333319049028556,0.0,0.0,0.0,0.0,0.0,0.0,0.0,0.0,0.0,0.00010999163706506125,-0.00013666863880545536,-0.007170030432441048,0.0,0.0,0.0,0.0,0.0,0.0,0.0,0.0,0.0,0.054130770132514515,0.0028376070348550483,-0.00011420736032550713,0.0,0.0,0.0,0.0,0.0,0.0,0.0,0.0,0.0
3.29,91,3,290000000,base_footprint,-0.0038703955095539646,-2.5523650693357214e-05,0.9999834270209098,-0.0042620500536344275,0.0,0.0,0.0,0.0,0.0,0.0,0.0,0.0,0.0,7.982010172015005e-06,-0.0002965867420855465,-0.003951809803046652,0.0,0.0,0.0,0.0,0.0,0.0,0.0,0.0,0.0,-0.0071460172961644525,-0.003965450933789773,0.00014084960690773736,0.0,0.0,0.0,0.0,0.0,0.0,0.0,0.0,0.0
3.324,92,3,324000000,base_footprint,-0.0038671022008894694,-2.5844545046543504e-05,0.9999836392402036,-0.004214985711205548,0.0,0.0,0.0,0.0,0.0,0.0,0.0,0.0,0.0,0.00014247232114197297,-0.0002559621599847667,0.002524742125219364,0.0,0.0,0.0,0.0,0.0,0.0,0.0,0.0,0.0,0.0027366782743416807,-0.0007942166054834855,0.00031052655122087384,0.0,0.0,0.0,0.0,0.0,0.0,0.0,0.0,0.0
3.358,93,3,358000000,base_footprint,-0.0038629020424791843,-2.5348160469114944e-05,0.9999835150801576,-0.004248165864606968,0.0,0.0,0.0,0.0,0.0,0.0,0.0,0.0,0.0,9.309412881914e-05,-0.0003513789529044538,0.0016917484565178815,0.0,0.0,0.0,0.0,0.0,0.0,0.0,0.0,0.0,0.005459064973049552,0.00026913404466293256,5.3311294055267615e-05,0.0,0.0,0.0,0.0,0.0,0.0,0.0,0.0,0.0
3.392,94,3,392000000,base_footprint,-0.0038609105744380028,-2.4610555952910234e-05,0.9999834151515532,-0.004273427862179317,0.0,0.0,0.0,0.0,0.0,0.0,0.0,0.0,0.0,7.813166025910081e-05,-0.00025112190491886075,0.0012754576388453928,0.0,0.0,0.0,0.0,0.0,0.0,0.0,0.0,0.0,0.005860011388326272,0.00042544443121986274,-0.00014568055070906952,0.0,0.0,0.0,0.0,0.0,0.0,0.0,0.0,0.0
3.426,95,3,426000000,base_footprint,-0.0038673110775509917,-2.4601476195594923e-05,0.9999831329212209,-0.004333263534191264,0.0,0.0,0.0,0.0,0.0,0.0,0.0,0.0,0.0,-0.00010304039527149852,-0.002534425114647204,0.02793425108296631,0.0,0.0,0.0,0.0,0.0,0.0,0.0,0.0,0.0,-0.2172416089744782,0.00040484777231066915,0.0003619308607976414,0.0,0.0,0.0,0.0,0.0,0.0,0.0,0.0,0.0
3.46,96,3,460000000,base_footprint,-0.0038605269897866302,-2.652418619693802e-05,0.9999785821710878,-0.005284962339478771,0.0,0.0,0.0,0.0,0.0,0.0,0.0,0.0,0.0,1.1213358681935674e-05,0.0002651479857964544,-0.0068298461830355916,0.0,0.0,0.0,0.0,0.0,0.0,0.0,0.0,0.0,-0.11178668758904253,0.0026954353163200478,-0.0031821168179948247,0.0,0.0,0.0,0.0,0.0,0.0,0.0,0.0,0.0
3.494,97,3,494000000,base_footprint,-0.0038645960213238434,-2.7071744505912885e-05,0.9999791711083457,-0.005169285654591717,0.0,0.0,0.0,0.0,0.0,0.0,0.0,0.0,0.0,0.00011121784224690318,2.6980944128795803e-06,-0.006746040667414436,0.0,0.0,0.0,0.0,0.0,0.0,0.0,0.0,0.0,0.006805286795118872,0.0019151321776354395,-0.00021063722964891169,0.0,0.0,0.0,0.0,0.0,0.0,0.0,0.0,0.0
3.527,98,3,528000000,base_footprint,-0.0038693069182010806,-2.718185112501327e-05,0.9999795836910319,-0.005085265600777921,0.0,0.0,0.0,0.0,0.0,0.0,0.0,0.0,0.0,0.00032115829295112407,6.203894587030032e-05,-0.00017423369220014934,0.0,0.0,0.0,0.0,0.0,0.0,0.0,0.0,0.0,0.0029193718778984384,-0.0013668209188756135,-0.00013414505624451058,0.0,0.0,0.0,0.0,0.0,0.0,0.0,0.0,0.0
3.561,99,3,562000000,base_footprint,-0.0038724507845345505,-2.67670703706425e-05,0.999979615108458,-0.005076689471065216,0.0,0.0,0.0,0.0,0.0,0.0,0.0,0.0,0.0,6.171314153175963e-05,4.168622425540366e-05,-0.0007185766189754372,0.0,0.0,0.0,0.0,0.0,0.0,0.0,0.0,0.0,0.0025936435189598326,-0.00083704428321542,-0.00015314107960168871,0.0,0.0,0.0,0.0,0.0,0.0,0.0,0.0,0.0
3.596,100,3,596000000,base_footprint,-0.00387536455422088,-2.628034195901283e-05,0.9999796834146828,-0.00506098970423173,0.0,0.0,0.0,0.0,0.0,0.0,0.0,0.0,0.0,5.271991190351353e-05,7.00974056304415e-06,-0.0009671261915933537,0.0,0.0,0.0,0.0,0.0,0.0,0.0,0.0,0.0,-0.002605258764871711,-0.0008731234103222288,3.0480708179596334e-05,0.0,0.0,0.0,0.0,0.0,0.0,0.0,0.0,0.0
3.63,101,3,630000000,base_footprint,-0.0038636345976881654,-2.7149324743441096e-05,0.9999799013369542,-0.005026779560037857,0.0,0.0,0.0,0.0,0.0,0.0,0.0,0.0,0.0,0.00011927252450412968,2.9363284145804633e-05,-0.006891775867024604,0.0,0.0,0.0,0.0,0.0,0.0,0.0,0.0,0.0,0.06853152150000351,8.823133624676321e-05,0.0016228934059401411,0.0,0.0,0.0,0.0,0.0,0.0,0.0,0.0,0.0
3.664,102,3,664000000,base_footprint,-0.0038625207647550756,-2.5183582515168384e-05,0.9999812665938442,-0.004748342921498354,0.0,0.0,0.0,0.0,0.0,0.0,0.0,0.0,0.0,0.0015937031505544607,0.000812683659985744,-0.02105033336644155,0.0,0.0,0.0,0.0,0.0,0.0,0.0,0.0,0.0,0.050226496187556674,-0.0007086346213188193,-0.001999207000045009,0.0,0.0,0.0,0.0,0.0,0.0,0.0,0.0,0.0
3.698,103,3,698000000,base_footprint,-0.003862370013286782,-2.324018811713418e-05,0.9999806622515158,-0.0048740825592223066,0.0,0.0,0.0,0.0,0.0,0.0,0.0,0.0,0.0,0.0013373756017267238,-0.0005041037931500684,0.0361153120745646,0.0,0.0,0.0,0.0,0.0,0.0,0.0,0.0,0.0,0.02482868478162933,0.011094513719489971,0.0018922751821385873,0.0,0.0,0.0,0.0,0.0,0.0,0.0,0.0,0.0
3.732,104,3,732000000,base_footprint,-0.0038653006550321946,-2.3730453661209677e-05,0.9999781748182512,-0.005358057005194877,0.0,0.0,0.0,0.0,0.0,0.0,0.0,0.0,0.0,0.0001177317427186069,8.607257164202988e-05,0.0098882543044134,0.0,0.0,0.0,0.0,0.0,0.0,0.0,0.0,0.0,0.10540191221268667,0.001512806021159661,0.0008791572273149825,0.0,0.0,0.0,0.0,0.0,0.0,0.0,0.0,0.0
3.766,105,3,766000000,base_footprint,-0.0038708917904433098,-2.9202696742054282e-05,0.9999787184275781,-0.005251479399911449,0.0,0.0,0.0,0.0,0.0,0.0,0.0,0.0,0.0,9.257934968068065e-05,-0.00026644947123334925,-0.00938686772300801,0.0,0.0,0.0,0.0,0.0,0.0,0.0,0.0,0.0,0.0553855924643738,-0.0010832573556189807,0.0005631897222095664,0.0,0.0,0.0,0.0,0.0,0.0,0.0,0.0,0.0
3.8,106,3,800000000,base_footprint,-0.003867291880390318,-2.9371748403276994e-05,0.9999795695639148,-0.005089562415388796,0.0,0.0,0.0,0.0,0.0,0.0,0.0,0.0,0.0,-5.694526811230543e-05,-0.00030310464659139886,-0.009426319471793865,0.0,0.0,0.0,0.0,0.0,0.0,0.0,0.0,0.0,0.005345183581941042,-0.002095841762475411,0.0001659252230149427,0.0,0.0,0.0,0.0,0.0,0.0,0.0,0.0,0.0
3.834,107,3,834000000,base_footprint,-0.0038634646237509043,-2.8454671261696163e-05,0.9999801242404679,-0.0049823644438418205,0.0,0.0,0.0,0.0,0.0,0.0,0.0,0.0,0.0,0.00011404594095388261,-0.00031608325625140436,-0.002805827253980997,0.0,0.0,0.0,0.0,0.0,0.0,0.0,0.0,0.0,0.0036497943014766492,-0.0014671452142299706,0.00027306783058376685,0.0,0.0,0.0,0.0,0.0,0.0,0.0,0.0,0.0
3.8680000000000003,108,3,868000000,base_footprint,-0.0038611622473631725,-2.7350046128412807e-05,0.99998039224131,-0.00493009239166487,0.0,0.0,0.0,0.0,0.0,0.0,0.0,0.0,0.0,0.00011886832406533623,-0.00026679044758511945,-0.003285695244040373,0.0,0.0,0.0,0.0,0.0,0.0,0.0,0.0,0.0,0.005979760017578791,-0.00042393717176226575,-7.603000213009076e-05,0.0,0.0,0.0,0.0,0.0,0.0,0.0,0.0,0.0
3.901,109,3,902000000,base_footprint,-0.0038605979781772643,-2.651267100294252e-05,0.9999806861053452,-0.004870574566971754,0.0,0.0,0.0,0.0,0.0,0.0,0.0,0.0,0.0,0.00010807245892384262,-0.00018232726461731068,-0.0037143370384835213,0.0,0.0,0.0,0.0,0.0,0.0,0.0,0.0,0.0,0.005918544717092954,-0.0007011108670567446,-0.00012528209917420417,0.0,0.0,0.0,0.0,0.0,0.0,0.0,0.0,0.0
3.936,110,3,936000000,base_footprint,-0.0038616803266022727,-2.5670083076452754e-05,0.9999812908293002,-0.0047439179449574875,0.0,0.0,0.0,0.0,0.0,0.0,0.0,0.0,0.0,0.00014803420594429538,-7.918352441896418e-05,-0.0107791782991477,0.0,0.0,0.0,0.0,0.0,0.0,0.0,0.0,0.0,0.007688597823737037,-0.0014088016854754389,-0.00015301135093540532,0.0,0.0,0.0,0.0,0.0,0.0,0.0,0.0,0.0
3.97,111,3,970000000,base_footprint,-0.003864412494459804,-2.4792184478327765e-05,0.9999821468345265,-0.004557599547130088,0.0,0.0,0.0,0.0,0.0,0.0,0.0,0.0,0.0,0.0001453784243029291,1.0379270178081627e-05,-0.011175139215771748,0.0,0.0,0.0,0.0,0.0,0.0,0.0,0.0,0.0,0.0056961884839891895,-0.002567660595053966,-0.00016037983625311595,0.0,0.0,0.0,0.0,0.0,0.0,0.0,0.0,0.0
4.004,112,4,4000000,base_footprint,-0.0038691114653874453,-2.420936003920126e-05,0.9999829927337617,-0.0043639011909962725,0.0,0.0,0.0,0.0,0.0,0.0,0.0,0.0,0.0,0.00016133853127810535,0.0001242156980702212,-0.011633860801525103,0.0,0.0,0.0,0.0,0.0,0.0,0.0,0.0,0.0,0.005159494742687921,-0.002638644007503691,-0.00029637648685622916,0.0,0.0,0.0,0.0,0.0,0.0,0.0,0.0,0.0
4.038,113,4,38000000,base_footprint,-0.003872664469082615,-2.3639258942397647e-05,0.9999834719343352,-0.004249443404494577,0.0,0.0,0.0,0.0,0.0,0.0,0.0,0.0,0.0,9.267600510364128e-05,-2.532315592504365e-06,-0.0034817955631428186,0.0,0.0,0.0,0.0,0.0,0.0,0.0,0.0,0.0,0.0003441743034534899,-0.0027003532144787568,9.649008703274307e-05,0.0,0.0,0.0,0.0,0.0,0.0,0.0,0.0,0.0
4.072,114,4,72000000,base_footprint,-0.003875608985273128,-2.2948856712712745e-05,0.9999837200103191,-0.004187940146083783,0.0,0.0,0.0,0.0,0.0,0.0,0.0,0.0,0.0,7.999255367624324e-05,-3.685660538860103e-06,-0.0036029084492071265,0.0,0.0,0.0,0.0,0.0,0.0,0.0,0.0,0.0,-0.003311639306575964,-0.0014675911707425794,-2.7531242209338823e-05,0.0,0.0,0.0,0.0,0.0,0.0,0.0,0.0,0.0
4.106,115,4,106000000,base_footprint,-0.003875056725476548,-2.1825499280888912e-05,0.9999839478163912,-0.004133711234110077,0.0,0.0,0.0,0.0,0.0,0.0,0.0,0.0,0.0,0.00012115957539057527,-0.00032123310024820734,-0.0025487568119339386,0.0,0.0,0.0,0.0,0.0,0.0,0.0,0.0,0.0,-0.006498481543236752,-0.003819805665855408,0.000580148192390764,0.0,0.0,0.0,0.0,0.0,0.0,0.0,0.0,0.0
4.14,116,4,140000000,base_footprint,-0.003865956864676192,-2.402271479593191e-05,0.9999833071995373,-0.004294079960299132,0.0,0.0,0.0,0.0,0.0,0.0,0.0,0.0,0.0,-0.002595805694995808,-0.0007215596815799921,0.02205982805669318,0.0,0.0,0.0,0.0,0.0,0.0,0.0,0.0,0.0,-0.08212776229151357,-0.0017210852083816796,-0.0018125939144676578,0.0,0.0,0.0,0.0,0.0,0.0,0.0,0.0,0.0
4.174,117,4,174000000,base_footprint,-0.003866531440914389,-2.7922808660012926e-05,0.9999825712930884,-0.004461643755006722,0.0,0.0,0.0,0.0,0.0,0.0,0.0,0.0,0.0,0.0008411899041841418,0.0002393460682873095,0.008321506771994409,0.0,0.0,0.0,0.0,0.0,0.0,0.0,0.0,0.0,-0.17244078236754953,0.009004109730381776,-0.00106777920584241,0.0,0.0,0.0,0.0,0.0,0.0,0.0,0.0,0.0
4.208,118,4,208000000,base_footprint,-0.003870658796234628,-2.872998061264715e-05,0.9999784965225846,-0.005293738518537163,0.0,0.0,0.0,0.0,0.0,0.0,0.0,0.0,0.0,-0.0012535472193092318,0.0002568402127089185,0.07668313427818613,0.0,0.0,0.0,0.0,0.0,0.0,0.0,0.0,0.0,-0.15464787986803602,0.004646005933333895,-0.0017465846775624435,0.0,0.0,0.0,0.0,0.0,0.0,0.0,0.0,0.0
4.241,119,4,242000000,base_footprint,-0.0038723792801301942,-3.713107870792742e-05,0.9999710698048492,-0.006546972837826567,0.0,0.0,0.0,0.0,0.0,0.0,0.0,0.0,0.0,-0.0005938884456197602,-7.863394435928708e-05,0.07442403857408088,0.0,0.0,0.0,0.0,0.0,0.0,0.0,0.0,0.0,0.01872204944036536,0.01529638812166701,0.0012227912858227413,0.0,0.0,0.0,0.0,0.0,0.0,0.0,0.0,0.0
4.276,120,4,276000000,base_footprint,-0.0038694146912478327,-4.232455801693746e-05,0.9999619674467295,-0.007815977139474736,0.0,0.0,0.0,0.0,0.0,0.0,0.0,0.0,0.0,-0.00047096338821547715,-0.0004505288389488008,0.07498218085926263,0.0,0.0,0.0,0.0,0.0,0.0,0.0,0.0,0.0,0.002601580102398996,0.015391091007087875,0.0009214332879751542,0.0,0.0,0.0,0.0,0.0,0.0,0.0,0.0,0.0
4.309,121,4,310000000,base_footprint,-0.003864994600206231,-4.59322564421917e-05,0.9999512264437009,-0.009088698515558614,0.0,0.0,0.0,0.0,0.0,0.0,0.0,0.0,0.0,-0.00046439518735168206,-0.00037094997332253425,0.07482884953824298,0.0,0.0,0.0,0.0,0.0,0.0,0.0,0.0,0.0,0.004299107782490303,0.01561802435569102,-0.00010087277982976327,0.0,0.0,0.0,0.0,0.0,0.0,0.0,0.0,0.0
4.344,122,4,344000000,base_footprint,-0.0038534723953053468,-4.716298794417211e-05,0.9999400083248055,-0.010253208158387156,0.0,0.0,0.0,0.0,0.0,0.0,0.0,0.0,0.0,-0.0004464046145030466,-0.0005393739262152305,0.0694398588929049,0.0,0.0,0.0,0.0,0.0,0.0,0.0,0.0,0.0,0.5637962980181176,0.0350143953292786,0.004536066053512908,0.0,0.0,0.0,0.0,0.0,0.0,0.0,0.0,0.0
4.378,123,4,378000000,base_footprint,-0.0038590816271724675,-5.246297102822975e-05,0.999928236657084,-0.011341352321759538,0.0,0.0,0.0,0.0,0.0,0.0,0.0,0.0,0.0,-0.0003110243858948868,-0.0012798386796614868,0.06043473389375309,0.0,0.0,0.0,0.0,0.0,0.0,0.0,0.0,0.0,-0.19448696268819934,0.009476345336684854,-0.0009679484940745517,0.0,0.0,0.0,0.0,0.0,0.0,0.0,0.0,0.0
4.412,124,4,412000000,base_footprint,-0.0038608253508968463,-5.586620450287288e-05,0.9999154335469437,-0.012418400106490457,0.0,0.0,0.0,0.0,0.0,0.0,0.0,0.0,0.0,-0.00039905888454268377,-7.952245495117927e-05,0.06401559202399658,0.0,0.0,0.0,0.0,0.0,0.0,0.0,0.0,0.0,-0.011282778828909644,0.011998621789929376,-0.0013488910453979717,0.0,0.0,0.0,0.0,0.0,0.0,0.0,0.0,0.0
4.446,125,4,446000000,base_footprint,-0.0038633918184783024,-5.915921037426946e-05,0.9999021493831908,-0.013444789426389403,0.0,0.0,0.0,0.0,0.0,0.0,0.0,0.0,0.0,-0.0003601926124949819,-1.2774959780213788e-05,0.059488597728848555,0.0,0.0,0.0,0.0,0.0,0.0,0.0,0.0,0.0,0.006141021197449857,0.013385631663920605,-0.00012439111459208887,0.0,0.0,0.0,0.0,0.0,0.0,0.0,0.0,0.0
4.48,126,4,480000000,base_footprint,-0.0038673193590973657,-6.279198919845512e-05,0.9998880855779492,-0.014451858614193567,0.0,0.0,0.0,0.0,0.0,0.0,0.0,0.0,0.0,-0.00033731401880230007,7.550131520290411e-05,0.05889971053463332,0.0,0.0,0.0,0.0,0.0,0.0,0.0,0.0,0.0,0.004328375576919923,0.012868705321709722,-0.0002516056831070668,0.0,0.0,0.0,0.0,0.0,0.0,0.0,0.0,0.0
4.514,127,4,514000000,base_footprint,-0.003871842677122887,-6.669952460274416e-05,0.9998731558666468,-0.015449160583319922,0.0,0.0,0.0,0.0,0.0,0.0,0.0,0.0,0.0,-0.00040737589302784587,8.507048172160692e-05,0.058716455914017175,0.0,0.0,0.0,0.0,0.0,0.0,0.0,0.0,0.0,0.0033156821754539724,0.011928960475603585,-0.00015674595192226434,0.0,0.0,0.0,0.0,0.0,0.0,0.0,0.0,0.0
4.548,128,4,548000000,base_footprint,-0.0038744595644993702,-6.956382621441937e-05,0.9998592023982019,-0.01632663785317168,0.0,0.0,0.0,0.0,0.0,0.0,0.0,0.0,0.0,-0.0003567332814590746,-1.2362535705825695e-05,0.04996282522435656,0.0,0.0,0.0,0.0,0.0,0.0,0.0,0.0,0.0,0.006098790461137135,0.009020252865554095,0.00022517703736692093,0.0,0.0,0.0,0.0,0.0,0.0,0.0,0.0,0.0
4.582,129,4,582000000,base_footprint,-0.0038741784559274514,-7.276156355309041e-05,0.9998448905099189,-0.017180813957873697,0.0,0.0,0.0,0.0,0.0,0.0,0.0,0.0,0.0,-0.000324810966904557,-0.0002632034780549102,0.050448521867682165,0.0,0.0,0.0,0.0,0.0,0.0,0.0,0.0,0.0,-0.0038863547989090013,0.00978983662630758,0.0004631323927544663,0.0,0.0,0.0,0.0,0.0,0.0,0.0,0.0,0.0
4.616,130,4,616000000,base_footprint,-0.0038697425384205284,-7.794242284544284e-05,0.9998304421276667,-0.018002944549709354,0.0,0.0,0.0,0.0,0.0,0.0,0.0,0.0,0.0,-0.0004515279963391871,-0.0003234601416752924,0.04285834070458152,0.0,0.0,0.0,0.0,0.0,0.0,0.0,0.0,0.0,-0.02930374203778268,0.013235305092276661,-0.0001787754154996342,0.0,0.0,0.0,0.0,0.0,0.0,0.0,0.0,0.0
4.65,131,4,650000000,base_footprint,-0.0038685444607042424,-7.807931435505869e-05,0.9998156555939719,-0.01880646422304108,0.0,0.0,0.0,0.0,0.0,0.0,0.0,0.0,0.0,-0.0007006050146866176,-7.780748404845176e-05,0.06069249927307931,0.0,0.0,0.0,0.0,0.0,0.0,0.0,0.0,0.0,-0.05637918041716245,0.01173249550096449,-0.000982579914724435,0.0,0.0,0.0,0.0,0.0,0.0,0.0,0.0,0.0
4.684,132,4,684000000,base_footprint,-0.003868681561832992,-8.459405053188942e-05,0.9997959980392928,-0.019823936325425135,0.0,0.0,0.0,0.0,0.0,0.0,0.0,0.0,0.0,-0.0007151896385063257,-0.0001580848208578723,0.05285513585644189,0.0,0.0,0.0,0.0,0.0,0.0,0.0,0.0,0.0,0.015610724446934815,0.010772141684657212,-0.0002843029614552526,0.0,0.0,0.0,0.0,0.0,0.0,0.0,0.0,0.0
4.718,133,4,718000000,base_footprint,-0.003870372321238004,-9.245281774548979e-05,0.9997807493947725,-0.02057826062131658,0.0,0.0,0.0,0.0,0.0,0.0,0.0,0.0,0.0,-0.004684259059381129,-4.176270239280412e-05,0.055517789160790434,0.0,0.0,0.0,0.0,0.0,0.0,0.0,0.0,0.0,0.024779028913046567,0.007885546760263597,-0.002288466802488377,0.0,0.0,0.0,0.0,0.0,0.0,0.0,0.0,0.0
4.752,134,4,752000000,base_footprint,-0.0038671469914559444,-0.0001016987411548794,0.9997210188572766,-0.023300628456792878,0.0,0.0,0.0,0.0,0.0,0.0,0.0,0.0,0.0,-0.0014924913851360683,-0.0005349199846996773,0.17787143789702797,0.0,0.0,0.0,0.0,0.0,0.0,0.0,0.0,0.0,-0.031036160157861536,0.03451971637440025,0.003558139243320697,0.0,0.0,0.0,0.0,0.0,0.0,0.0,0.0,0.0
4.786,135,4,786000000,base_footprint,-0.003863348383642176,-0.00011239491412226445,0.9996459280646544,-0.026326420387243595,0.0,0.0,0.0,0.0,0.0,0.0,0.0,0.0,0.0,-0.001194820004520829,-0.00043183313785778894,0.1778917385398621,0.0,0.0,0.0,0.0,0.0,0.0,0.0,0.0,0.0,0.00010518111836226897,0.03874075495083653,0.00018353943262815133,0.0,0.0,0.0,0.0,0.0,0.0,0.0,0.0,0.0
4.82,136,4,820000000,base_footprint,-0.003857921359860701,-0.00012041229859108972,0.9995623268059243,-0.029330134230621346,0.0,0.0,0.0,0.0,0.0,0.0,0.0,0.0,0.0,-0.000522662715161273,-0.0013600922705783677,0.1482337991410782,0.0,0.0,0.0,0.0,0.0,0.0,0.0,0.0,0.0,0.0031172882113242326,0.037924473587050825,0.0005589911770140073,0.0,0.0,0.0,0.0,0.0,0.0,0.0,0.0,0.0
4.854,137,4,854000000,base_footprint,-0.0038584197644528345,-0.00013013876342134892,0.9994900935900091,-0.031696190248330564,0.0,0.0,0.0,0.0,0.0,0.0,0.0,0.0,0.0,-0.0009322057248263395,-0.00022733838554641163,0.1391689014875349,0.0,0.0,0.0,0.0,0.0,0.0,0.0,0.0,0.0,0.009524981119452339,0.033166082142621796,-0.0007941148981539238,0.0,0.0,0.0,0.0,0.0,0.0,0.0,0.0,0.0
4.888,138,4,888000000,base_footprint,-0.0038591597972701328,-0.00013799320496842517,0.9994124117883134,-0.034057583692933345,0.0,0.0,0.0,0.0,0.0,0.0,0.0,0.0,0.0,-0.0009269739649231485,-0.00014935726862693905,0.1388455936640735,0.0,0.0,0.0,0.0,0.0,0.0,0.0,0.0,0.0,0.0017772068037868157,0.030866805544776374,-0.00015019693028600178,0.0,0.0,0.0,0.0,0.0,0.0,0.0,0.0,0.0
4.922,139,4,922000000,base_footprint,-0.003863951395696601,-0.0001496996581851838,0.9993290405226022,-0.03642137061945161,0.0,0.0,0.0,0.0,0.0,0.0,0.0,0.0,0.0,-0.002924982459872596,-0.001723151844672372,0.1405438479464701,0.0,0.0,0.0,0.0,0.0,0.0,0.0,0.0,0.0,-0.10302909160947331,0.019005511508801406,-0.001118180132271772,0.0,0.0,0.0,0.0,0.0,0.0,0.0,0.0,0.0
4.956,140,4,956000000,base_footprint,-0.0038641315461873894,-0.00015058675016218066,0.9992751283983536,-0.03787167246740675,0.0,0.0,0.0,0.0,0.0,0.0,0.0,0.0,0.0,-0.003863832834125615,-0.0025455002334394228,0.12111771817532327,0.0,0.0,0.0,0.0,0.0,0.0,0.0,0.0,0.0,-0.22899199782214275,-0.019231541305769657,-0.0012892692991364428,0.0,0.0,0.0,0.0,0.0,0.0,0.0,0.0,0.0
4.99,141,4,990000000,base_footprint,-0.0038687614380353646,-0.0001594063696067172,0.9991878572110483,-0.04010777077498761,0.0,0.0,0.0,0.0,0.0,0.0,0.0,0.0,0.0,-0.0009616060584084457,5.1136013861628547e-05,0.13002335339722446,0.0,0.0,0.0,0.0,0.0,0.0,0.0,0.0,0.0,-0.0022863063367786103,0.02614803002553499,-0.0008472819589124601,0.0,0.0,0.0,0.0,0.0,0.0,0.0,0.0,0.0
5.024,142,5,24000000,base_footprint,-0.0038656760431599155,-0.00016928132179842097,0.9990991920796563,-0.0422591088209613,0.0,0.0,0.0,0.0,0.0,0.0,0.0,0.0,0.0,-0.0005950828725574202,-0.005057111091121783,0.10686292508057892,0.0,0.0,0.0,0.0,0.0,0.0,0.0,0.0,0.0,0.07620110450878523,0.040354667337131674,0.008968960138552582,0.0,0.0,0.0,0.0,0.0,0.0,0.0,0.0,0.0
5.058,143,5,58000000,base_footprint,-0.0038639061737489647,-0.0001800214541431059,0.9990569981922697,-0.04324525620698753,0.0,0.0,0.0,0.0,0.0,0.0,0.0,0.0,0.0,-0.0009064664465553022,0.0007054682550040013,0.037837576971867876,0.0,0.0,0.0,0.0,0.0,0.0,0.0,0.0,0.0,0.15270938754886776,0.042368316949279845,-0.008856642116977414,0.0,0.0,0.0,0.0,0.0,0.0,0.0,0.0,0.0
5.092,144,5,92000000,base_footprint,-0.00386372317617662,-0.00018692412170295445,0.9990205068884018,-0.04408019418096263,0.0,0.0,0.0,0.0,0.0,0.0,0.0,0.0,0.0,-0.0009751938809170814,0.00040370658797607016,0.06652523381334528,0.0,0.0,0.0,0.0,0.0,0.0,0.0,0.0,0.0,0.045480152412529354,0.013956259212283063,0.002297039113761776,0.0,0.0,0.0,0.0,0.0,0.0,0.0,0.0,0.0
5.126,145,5,126000000,base_footprint,-0.003863080407441767,-0.0001868824151244255,0.9989573213741021,-0.045489688477803145,0.0,0.0,0.0,0.0,0.0,0.0,0.0,0.0,0.0,0.0007238509041431161,-0.0033683928353822764,0.06835024557317101,0.0,0.0,0.0,0.0,0.0,0.0,0.0,0.0,0.0,-0.008641586249929323,0.031660208914162456,0.00568635862506012,0.0,0.0,0.0,0.0,0.0,0.0,0.0,0.0,0.0
5.16,146,5,160000000,base_footprint,-0.0038635982430437104,-0.00018712539379821854,0.9988902193758201,-0.04694003864537605,0.0,0.0,0.0,0.0,0.0,0.0,0.0,0.0,0.0,-0.0002241551583570828,-0.0006211984968068885,0.09199373065336969,0.0,0.0,0.0,0.0,0.0,0.0,0.0,0.0,0.0,-0.04203737319956796,0.00013384090185768888,-0.0047310606148028385,0.0,0.0,0.0,0.0,0.0,0.0,0.0,0.0,0.0
5.194,147,5,194000000,base_footprint,-0.003862234601386407,-0.0001946983786711296,0.9988235234182737,-0.04833853848360037,0.0,0.0,0.0,0.0,0.0,0.0,0.0,0.0,0.0,-0.001360101904723224,0.0003341561739103455,0.06834815957023933,0.0,0.0,0.0,0.0,0.0,0.0,0.0,0.0,0.0,0.06073477059822215,0.028237457496447623,-0.0020229531559558625,0.0,0.0,0.0,0.0,0.0,0.0,0.0,0.0,0.0
5.228,148,5,228000000,base_footprint,-0.003861700844963227,-0.00020117551417111638,0.9987770493875747,-0.04928947566820772,0.0,0.0,0.0,0.0,0.0,0.0,0.0,0.0,0.0,-0.00023332687051909307,0.0009777953970527692,0.036030162976818145,0.0,0.0,0.0,0.0,0.0,0.0,0.0,0.0,0.0,0.024340180430801165,0.018206756352084196,0.000779325775537236,0.0,0.0,0.0,0.0,0.0,0.0,0.0,0.0,0.0
5.2620000000000005,149,5,262000000,base_footprint,-0.003859362400531714,-0.00020210601779332727,0.9987448088273353,-0.04993867554780235,0.0,0.0,0.0,0.0,0.0,0.0,0.0,0.0,0.0,-0.00029257785014642627,-0.0002607015052231839,0.038580686332525815,0.0,0.0,0.0,0.0,0.0,0.0,0.0,0.0,0.0,-0.0011914537993282367,0.008401511261325333,0.0011990567396740319,0.0,0.0,0.0,0.0,0.0,0.0,0.0,0.0,0.0
5.296,150,5,296000000,base_footprint,-0.00385764407159186,-0.0002035391067806373,0.998711919667823,-0.05059227873362619,0.0,0.0,0.0,0.0,0.0,0.0,0.0,0.0,0.0,-8.922223984563936e-05,-0.00029312740216215326,0.03843213518069608,0.0,0.0,0.0,0.0,0.0,0.0,0.0,0.0,0.0,0.003262723849641916,0.008913193989136361,0.000332778137349433,0.0,0.0,0.0,0.0,0.0,0.0,0.0,0.0,0.0
5.33,151,5,330000000,base_footprint,-0.0038563266478164873,-0.00020433697283766232,0.9986751819034819,-0.051312455030276656,0.0,0.0,0.0,0.0,0.0,0.0,0.0,0.0,0.0,-0.00026741016768288677,-1.3511761422018792e-06,0.05030514802582009,0.0,0.0,0.0,0.0,0.0,0.0,0.0,0.0,0.0,0.0005064171703479033,0.008983090351840304,-0.00045009235803204626,0.0,0.0,0.0,0.0,0.0,0.0,0.0,0.0,0.0
5.364,152,5,364000000,base_footprint,-0.0038570716706230516,-0.00020604311398992787,0.9986314357515276,-0.05215684109688324,0.0,0.0,0.0,0.0,0.0,0.0,0.0,0.0,0.0,-0.0002112423145305521,-0.00011197311469277545,0.04949050100418485,0.0,0.0,0.0,0.0,0.0,0.0,0.0,0.0,0.0,0.003828173929537669,0.01250478695511723,9.786819809556162e-05,0.0,0.0,0.0,0.0,0.0,0.0,0.0,0.0,0.0
5.398,153,5,398000000,base_footprint,-0.003859657722492494,-0.00020771291675223782,0.998587528801196,-0.05299063332637269,0.0,0.0,0.0,0.0,0.0,0.0,0.0,0.0,0.0,-0.0002075069725195242,1.0259515577237497e-05,0.04881000007603037,0.0,0.0,0.0,0.0,0.0,0.0,0.0,0.0,0.0,0.0031643606493722094,0.011590757256569719,-0.00021456306485199142,0.0,0.0,0.0,0.0,0.0,0.0,0.0,0.0,0.0
5.432,154,5,432000000,base_footprint,-0.003862495777981801,-0.00020943337383112822,0.9985518296827629,-0.05365892937092013,0.0,0.0,0.0,0.0,0.0,0.0,0.0,0.0,0.0,-0.00015031893704078392,-0.00027816710875416773,0.026047650779455894,0.0,0.0,0.0,0.0,0.0,0.0,0.0,0.0,0.0,0.00912879851595634,0.011895509538303829,0.00017595550743178866,0.0,0.0,0.0,0.0,0.0,0.0,0.0,0.0,0.0
5.466,155,5,466000000,base_footprint,-0.0038660641736310273,-0.00021130073543036568,0.9985286762607226,-0.05408781364423526,0.0,0.0,0.0,0.0,0.0,0.0,0.0,0.0,0.0,-0.00012956166318271365,-1.0868760589621892e-05,0.024158080835734227,0.0,0.0,0.0,0.0,0.0,0.0,0.0,0.0,0.0,0.00031188110699565405,0.0031300088688191786,-0.0003530078141728656,0.0,0.0,0.0,0.0,0.0,0.0,0.0,0.0,0.0
5.5,156,5,500000000,base_footprint,-0.003865029588615613,-0.00021544518040962692,0.998507088974846,-0.05448493733714501,0.0,0.0,0.0,0.0,0.0,0.0,0.0,0.0,0.0,-0.0005312983989025977,-0.00027871556626207387,0.023714827713558925,0.0,0.0,0.0,0.0,0.0,0.0,0.0,0.0,0.0,0.0014246043605260048,0.009293687381535357,0.00022696255597469788,0.0,0.0,0.0,0.0,0.0,0.0,0.0,0.0,0.0
5.534,157,5,534000000,base_footprint,-0.0038660085725692305,-0.00022209008160447948,0.9984863993549343,-0.05486269184911706,0.0,0.0,0.0,0.0,0.0,0.0,0.0,0.0,0.0,-0.0001548264606591882,-0.0001106423645839542,0.018397732537210908,0.0,0.0,0.0,0.0,0.0,0.0,0.0,0.0,0.0,-0.027438936582025442,-0.0030672724267701203,-0.00033096151285457793,0.0,0.0,0.0,0.0,0.0,0.0,0.0,0.0,0.0
5.568,158,5,568000000,base_footprint,-0.003868150706236558,-0.00022433959854079394,0.9984650417415148,-0.05524986427108804,0.0,0.0,0.0,0.0,0.0,0.0,0.0,0.0,0.0,-0.0006052627181469641,-0.0005351544941016523,0.023801938189533724,0.0,0.0,0.0,0.0,0.0,0.0,0.0,0.0,0.0,0.003989226559672634,0.006638732526140141,0.0005309113898849322,0.0,0.0,0.0,0.0,0.0,0.0,0.0,0.0,0.0
5.602,159,5,602000000,base_footprint,-0.0038638389509120224,-0.00022686116629580262,0.998439610991815,-0.055707831452014286,0.0,0.0,0.0,0.0,0.0,0.0,0.0,0.0,0.0,0.00035978469550954615,-0.0005625549539127043,0.03086246233011736,0.0,0.0,0.0,0.0,0.0,0.0,0.0,0.0,0.0,-0.018595793119785355,0.0060918610385187035,0.0007063150988304028,0.0,0.0,0.0,0.0,0.0,0.0,0.0,0.0,0.0
5.636,160,5,636000000,base_footprint,-0.0038629708890065262,-0.00022473559319727065,0.9984285511631846,-0.05590577047146378,0.0,0.0,0.0,0.0,0.0,0.0,0.0,0.0,0.0,0.0003306306229785894,-0.00011270462769011885,-0.05000008017711854,0.0,0.0,0.0,0.0,0.0,0.0,0.0,0.0,0.0,-0.24842797149288917,-0.05590360205072008,-0.0028314169301587337,0.0,0.0,0.0,0.0,0.0,0.0,0.0,0.0,0.0
5.67,161,5,670000000,base_footprint,-0.0038623143710934567,-0.00022488579251950412,0.9984537807607295,-0.055453400605229526,0.0,0.0,0.0,0.0,0.0,0.0,0.0,0.0,0.0,-0.0014969396400659057,-0.0007016710627260126,0.024084531580738807,0.0,0.0,0.0,0.0,0.0,0.0,0.0,0.0,0.0,-0.09454988617830287,-0.03447151284001439,-0.0013310876165440093,0.0,0.0,0.0,0.0,0.0,0.0,0.0,0.0,0.0
5.704,162,5,704000000,base_footprint,-0.003861390414267355,-0.00022833439711952865,0.9984363744087209,-0.055765973362261134,0.0,0.0,0.0,0.0,0.0,0.0,0.0,0.0,0.0,-0.00014737293338689658,-0.0003018389864872102,0.019097516998555695,0.0,0.0,0.0,0.0,0.0,0.0,0.0,0.0,0.0,0.01669761608846279,0.012096704411782505,0.0008788277324654461,0.0,0.0,0.0,0.0,0.0,0.0,0.0,0.0,0.0
5.738,163,5,738000000,base_footprint,-0.0038587797795740135,-0.0002293781970031825,0.9984063870538532,-0.05630047508082982,0.0,0.0,0.0,0.0,0.0,0.0,0.0,0.0,0.0,-0.00029974929059928496,-0.00023268506819358514,0.04004386627309481,0.0,0.0,0.0,0.0,0.0,0.0,0.0,0.0,0.0,0.02069462385709488,0.0119058091164642,3.82184298296211e-05,0.0,0.0,0.0,0.0,0.0,0.0,0.0,0.0,0.0
5.772,164,5,772000000,base_footprint,-0.0038492548058759487,-0.00022742060659365897,0.998362523616914,-0.05707366252987686,0.0,0.0,0.0,0.0,0.0,0.0,0.0,0.0,0.0,-0.002338042310286593,0.0017335093471895343,0.024874208373190314,0.0,0.0,0.0,0.0,0.0,0.0,0.0,0.0,0.0,0.3020467755826534,0.07933890988711143,-0.002236953162989695,0.0,0.0,0.0,0.0,0.0,0.0,0.0,0.0,0.0
5.806,165,5,806000000,base_footprint,-0.0038554812633144427,-0.00022979148202360118,0.9983426119728893,-0.057420480486078534,0.0,0.0,0.0,0.0,0.0,0.0,0.0,0.0,0.0,4.073553044333968e-05,-0.0001631397407712696,0.020323058787862162,0.0,0.0,0.0,0.0,0.0,0.0,0.0,0.0,0.0,0.01790390859644383,0.00955697337728368,0.004881371741963667,0.0,0.0,0.0,0.0,0.0,0.0,0.0,0.0,0.0
5.84,166,5,840000000,base_footprint,-0.00385634073904936,-0.00022841674767276894,0.9983336198871376,-0.05757655655679738,0.0,0.0,0.0,0.0,0.0,0.0,0.0,0.0,0.0,0.00017238886036427593,-8.797857274420347e-05,0.0031810148532778145,0.0,0.0,0.0,0.0,0.0,0.0,0.0,0.0,0.0,0.00952749957974641,0.004409640845719158,-7.271736769257184e-05,0.0,0.0,0.0,0.0,0.0,0.0,0.0,0.0,0.0
5.874,167,5,874000000,base_footprint,-0.0038586395199030924,-0.00022681411216107238,0.9983308160481208,-0.0576250048599332,0.0,0.0,0.0,0.0,0.0,0.0,0.0,0.0,0.0,0.00020269361423402754,1.9475655577656084e-05,0.002587377611916786,0.0,0.0,0.0,0.0,0.0,0.0,0.0,0.0,0.0,0.005158210409214554,0.0017043599981199078,-0.00023957065810011725,0.0,0.0,0.0,0.0,0.0,0.0,0.0,0.0,0.0
5.908,168,5,908000000,base_footprint,-0.0038610141062695386,-0.00022607013713037835,0.9983289052817367,-0.05765794256937912,0.0,0.0,0.0,0.0,0.0,0.0,0.0,0.0,0.0,0.00016334852146244314,4.543029267691397e-05,0.0011990871187224131,0.0,0.0,0.0,0.0,0.0,0.0,0.0,0.0,0.0,0.0038016004151998333,0.0008984153887566247,-7.298396268306766e-05,0.0,0.0,0.0,0.0,0.0,0.0,0.0,0.0,0.0
5.942,169,5,942000000,base_footprint,-0.003863020891148163,-0.000230470774228912,0.9982785124800286,-0.05852380262319093,0.0,0.0,0.0,0.0,0.0,0.0,0.0,0.0,0.0,-0.00020213927165181714,0.00025110622529844295,0.07851288735319024,0.0,0.0,0.0,0.0,0.0,0.0,0.0,0.0,0.0,-0.013494984676030476,0.004751265821285053,-0.0006359263619327929,0.0,0.0,0.0,0.0,0.0,0.0,0.0,0.0,0.0
5.976,170,5,976000000,base_footprint,-0.0038640358293027914,-0.0002355052588476237,0.9982007629792674,-0.05983519492733016,0.0,0.0,0.0,0.0,0.0,0.0,0.0,0.0,0.0,-0.0008038202336215612,-0.0002923431155220326,0.0768506280411811,0.0,0.0,0.0,0.0,0.0,0.0,0.0,0.0,0.0,-0.005292295181845172,0.02114265789867374,0.000571906186562692,0.0,0.0,0.0,0.0,0.0,0.0,0.0,0.0,0.0
6.01,171,6,10000000,base_footprint,-0.0038635009279847656,-0.00024684525710610294,0.9981267056096073,-0.06105810328622188,0.0,0.0,0.0,0.0,0.0,0.0,0.0,0.0,0.0,-0.0006414102256159882,-5.6239210569619475e-05,0.062401043519358074,0.0,0.0,0.0,0.0,0.0,0.0,0.0,0.0,0.0,-0.02854632438772792,0.007161618280063159,-0.0006163260054395817,0.0,0.0,0.0,0.0,0.0,0.0,0.0,0.0,0.0
6.044,172,6,44000000,base_footprint,-0.003864260610412125,-0.00025849612731437935,0.9980092553400091,-0.06294860542829851,0.0,0.0,0.0,0.0,0.0,0.0,0.0,0.0,0.0,-7.68355511418156e-05,0.0009208855012898947,0.16028777841592368,0.0,0.0,0.0,0.0,0.0,0.0,0.0,0.0,0.0,-0.04066141047866927,0.012024073746096715,-0.000973419175038413,0.0,0.0,0.0,0.0,0.0,0.0,0.0,0.0,0.0
6.078,173,6,78000000,base_footprint,-0.003863827782385828,-0.0002693615763180699,0.9978314499530477,-0.06570689281808682,0.0,0.0,0.0,0.0,0.0,0.0,0.0,0.0,0.0,-0.001281203373017817,-0.0006295484727942588,0.16447024718985115,0.0,0.0,0.0,0.0,0.0,0.0,0.0,0.0,0.0,-0.0029446702394076646,0.03702008367671303,0.001680064658863303,0.0,0.0,0.0,0.0,0.0,0.0,0.0,0.0,0.0
6.112,174,6,112000000,base_footprint,-0.003857121352027587,-0.00027388684511698425,0.9976338588994589,-0.06864205109294555,0.0,0.0,0.0,0.0,0.0,0.0,0.0,0.0,0.0,-0.0012261839519722988,-0.000280388976180028,0.18549326513293732,0.0,0.0,0.0,0.0,0.0,0.0,0.0,0.0,0.0,-0.05795629897082976,0.02516350686806285,-0.0008969376786933834,0.0,0.0,0.0,0.0,0.0,0.0,0.0,0.0,0.0
6.146,175,6,146000000,base_footprint,-0.0038503900696730056,-0.0002811670187059447,0.997434621996026,-0.07147915979545179,0.0,0.0,0.0,0.0,0.0,0.0,0.0,0.0,0.0,-0.0009558875782974643,-0.0002553120701825442,0.15713016416992476,0.0,0.0,0.0,0.0,0.0,0.0,0.0,0.0,0.0,-0.034991657432712625,0.028291348201128108,0.0005590817283205993,0.0,0.0,0.0,0.0,0.0,0.0,0.0,0.0,0.0
6.18,176,6,180000000,base_footprint,-0.003856984519598356,-0.0002981857388766864,0.9972617507640525,-0.07385144019379573,0.0,0.0,0.0,0.0,0.0,0.0,0.0,0.0,0.0,-0.0011227982128200094,-0.00019064306305119973,0.1262505160973498,0.0,0.0,0.0,0.0,0.0,0.0,0.0,0.0,0.0,0.07453841263658961,0.05469938353903314,-0.00020451813454174856,0.0,0.0,0.0,0.0,0.0,0.0,0.0,0.0,0.0
6.214,177,6,214000000,base_footprint,-0.0038531557921710393,-0.00030441693869725334,0.9970978518171751,-0.07603245637452011,0.0,0.0,0.0,0.0,0.0,0.0,0.0,0.0,0.0,-0.0009138863972315337,-0.00037969327134819073,0.12906964637634394,0.0,0.0,0.0,0.0,0.0,0.0,0.0,0.0,0.0,-0.010657927751207483,0.024425687002047808,0.0002965783001976077,0.0,0.0,0.0,0.0,0.0,0.0,0.0,0.0,0.0
6.248,178,6,248000000,base_footprint,-0.003852033611611889,-0.00031010804304877095,0.9969607944986196,-0.07780899628409176,0.0,0.0,0.0,0.0,0.0,0.0,0.0,0.0,0.0,-0.0007412012672815186,-0.00030574209405152597,0.10187418908833643,0.0,0.0,0.0,0.0,0.0,0.0,0.0,0.0,0.0,0.004213909430983983,0.02539949447634062,-6.003866798643554e-05,0.0,0.0,0.0,0.0,0.0,0.0,0.0,0.0,0.0
6.282,179,6,282000000,base_footprint,-0.003850473981614015,-0.0003140596864987929,0.9968248328265694,-0.07953192992070643,0.0,0.0,0.0,0.0,0.0,0.0,0.0,0.0,0.0,-0.0005202614822812668,-0.0002589987324866357,0.10154043787960165,0.0,0.0,0.0,0.0,0.0,0.0,0.0,0.0,0.0,-0.0016394527052569867,0.02290741154826369,0.0002240866933887923,0.0,0.0,0.0,0.0,0.0,0.0,0.0,0.0,0.0
6.315,180,6,316000000,base_footprint,-0.0038509316487347245,-0.00031802010256443873,0.9966865237080349,-0.0812468008443659,0.0,0.0,0.0,0.0,0.0,0.0,0.0,0.0,0.0,-0.00053139949328413,-0.00013957743571312535,0.10100304804235208,0.0,0.0,0.0,0.0,0.0,0.0,0.0,0.0,0.0,-0.0016693795098557877,0.022759819180140754,-0.00022123259694125513,0.0,0.0,0.0,0.0,0.0,0.0,0.0,0.0,0.0
6.35,181,6,350000000,base_footprint,-0.0038519264823298257,-0.00032215763829569576,0.9965507903173486,-0.0828950010235763,0.0,0.0,0.0,0.0,0.0,0.0,0.0,0.0,0.0,-0.000503263264058432,-0.00019002293620760924,0.08075565044149417,0.0,0.0,0.0,0.0,0.0,0.0,0.0,0.0,0.0,-0.32076466753045657,-0.08724107636937513,-0.002618793192361189,0.0,0.0,0.0,0.0,0.0,0.0,0.0,0.0,0.0
6.384,182,6,384000000,base_footprint,-0.003854240624282711,-0.000326294118157925,0.9964375418258505,-0.08424525862869099,0.0,0.0,0.0,0.0,0.0,0.0,0.0,0.0,0.0,-0.00040112897238141616,-5.4134693998029475e-05,0.0786850181693263,0.0,0.0,0.0,0.0,0.0,0.0,0.0,0.0,0.0,-0.0018632518909052205,0.015934047234019522,-0.00020081822604529488,0.0,0.0,0.0,0.0,0.0,0.0,0.0,0.0,0.0
6.417,183,6,418000000,base_footprint,-0.0038546375865466157,-0.00033086567127411123,0.9963255811890096,-0.08555915243482982,0.0,0.0,0.0,0.0,0.0,0.0,0.0,0.0,0.0,0.0012164776481054789,-0.0009740332320401972,0.0719659123182468,0.0,0.0,0.0,0.0,0.0,0.0,0.0,0.0,0.0,0.01094649909144586,0.019596631514073135,-0.003920717228596813,0.0,0.0,0.0,0.0,0.0,0.0,0.0,0.0,0.0
6.452,184,6,452000000,base_footprint,-0.0038499846277290847,-0.0003421058136030712,0.996331017155319,-0.0854959931004136,0.0,0.0,0.0,0.0,0.0,0.0,0.0,0.0,0.0,-0.0004121193420307816,0.00024783944038686773,-0.03459615270158263,0.0,0.0,0.0,0.0,0.0,0.0,0.0,0.0,0.0,0.2142185512686068,0.08538704919452873,0.004438811551710263,0.0,0.0,0.0,0.0,0.0,0.0,0.0,0.0,0.0
6.486,185,6,486000000,base_footprint,-0.003850562161209509,-0.0003436661662590433,0.9963733682852167,-0.08500097668015827,0.0,0.0,0.0,0.0,0.0,0.0,0.0,0.0,0.0,0.0005390815161580399,0.00016900589299893745,-0.01538443776222122,0.0,0.0,0.0,0.0,0.0,0.0,0.0,0.0,0.0,0.040892877957767214,0.0023790387903265386,0.0004371492810075822,0.0,0.0,0.0,0.0,0.0,0.0,0.0,0.0,0.0
6.52,186,6,520000000,base_footprint,-0.0038606145827371438,-0.00034201245283899904,0.9963664728044874,-0.08508131730098266,0.0,0.0,0.0,0.0,0.0,0.0,0.0,0.0,0.0,-0.0005880838916506717,0.0005101950702587379,0.001994377729957329,0.0,0.0,0.0,0.0,0.0,0.0,0.0,0.0,0.0,0.055157076769722334,0.020565705378531383,0.0021474356607196618,0.0,0.0,0.0,0.0,0.0,0.0,0.0,0.0,0.0
6.554,187,6,554000000,base_footprint,-0.0038579614834135987,-0.00034485876882981456,0.9963759739381209,-0.08497008746896295,0.0,0.0,0.0,0.0,0.0,0.0,0.0,0.0,0.0,4.194898798774415e-06,-0.00022669018729421251,-0.004028507569670618,0.0,0.0,0.0,0.0,0.0,0.0,0.0,0.0,0.0,-0.0007685350963529986,-0.004361806835026322,-0.0003024896287605622,0.0,0.0,0.0,0.0,0.0,0.0,0.0,0.0,0.0
6.588,188,6,588000000,base_footprint,-0.003852451895258171,-0.0003386961949619968,0.9963771636996979,-0.0849564097465741,0.0,0.0,0.0,0.0,0.0,0.0,0.0,0.0,0.0,0.0005789706420524678,-0.00015961434446886284,0.00496148939209449,0.0,0.0,0.0,0.0,0.0,0.0,0.0,0.0,0.0,-0.01883855518279726,0.0007723429267696062,0.00047781849145684297,0.0,0.0,0.0,0.0,0.0,0.0,0.0,0.0,0.0
6.622,189,6,622000000,base_footprint,-0.003851026150919909,-0.0003383892274252076,0.9963520036520409,-0.08525104051493711,0.0,0.0,0.0,0.0,0.0,0.0,0.0,0.0,0.0,0.00019486169303601405,-0.0014796740170854175,0.014760590295542761,0.0,0.0,0.0,0.0,0.0,0.0,0.0,0.0,0.0,-0.04944415329861315,-0.019066740133750794,0.0008508986292739447,0.0,0.0,0.0,0.0,0.0,0.0,0.0,0.0,0.0
6.656,190,6,656000000,base_footprint,-0.003854253278209137,-0.00034287319566501684,0.9963477667968467,-0.0853003796508298,0.0,0.0,0.0,0.0,0.0,0.0,0.0,0.0,0.0,-0.0004776513462309171,0.0003250620640256083,-0.011474184297436447,0.0,0.0,0.0,0.0,0.0,0.0,0.0,0.0,0.0,0.06919071648363634,0.025593374237612154,-0.002233132450446835,0.0,0.0,0.0,0.0,0.0,0.0,0.0,0.0,0.0
6.69,191,6,690000000,base_footprint,-0.003851416076941619,-0.000339761617531652,0.9963598514526931,-0.08515924829055804,0.0,0.0,0.0,0.0,0.0,0.0,0.0,0.0,0.0,0.00016596993402599733,-0.00023354526520139843,-0.007578628622128745,0.0,0.0,0.0,0.0,0.0,0.0,0.0,0.0,0.0,-0.004191099995794528,-0.004332811125370163,0.0011628584003849321,0.0,0.0,0.0,0.0,0.0,0.0,0.0,0.0,0.0
6.724,192,6,724000000,base_footprint,-0.003850341042592259,-0.00033745771946569047,0.9963753908879674,-0.08497729949223692,0.0,0.0,0.0,0.0,0.0,0.0,0.0,0.0,0.0,-0.00021373602830902409,0.00021631378329802203,-0.027048652956722954,0.0,0.0,0.0,0.0,0.0,0.0,0.0,0.0,0.0,0.009622384935972204,-0.00010096938448390686,-0.0006008632070830049,0.0,0.0,0.0,0.0,0.0,0.0,0.0,0.0,0.0
6.758,193,6,758000000,base_footprint,-0.003849855047862428,-0.00033345090848014306,0.9964138155928267,-0.08452559093166062,0.0,0.0,0.0,0.0,0.0,0.0,0.0,0.0,0.0,0.00047247383386113726,-0.00010320417938247804,-0.026646397395539895,0.0,0.0,0.0,0.0,0.0,0.0,0.0,0.0,0.0,0.00716569841855947,-0.0027729501088291715,0.0007866184059662448,0.0,0.0,0.0,0.0,0.0,0.0,0.0,0.0,0.0
6.792,194,6,792000000,base_footprint,-0.0038507727394666916,-0.00032892188967164254,0.996452594893598,-0.08406717248435769,0.0,0.0,0.0,0.0,0.0,0.0,0.0,0.0,0.0,0.0004513080575067012,1.3173943840388282e-05,-0.027319518308345597,0.0,0.0,0.0,0.0,0.0,0.0,0.0,0.0,0.0,0.0073041759572962765,-0.0038267344963350963,-0.00019006026450175614,0.0,0.0,0.0,0.0,0.0,0.0,0.0,0.0,0.0
6.8260000000000005,195,6,826000000,base_footprint,-0.003850194132694696,-0.00033144487337518307,0.996484895293936,-0.08368344878451055,0.0,0.0,0.0,0.0,0.0,0.0,0.0,0.0,0.0,0.0004931015913964958,-0.002053652013687436,0.007674789626899782,0.0,0.0,0.0,0.0,0.0,0.0,0.0,0.0,0.0,-0.19292327744112836,-0.06915339118529264,0.0007571725490696459,0.0,0.0,0.0,0.0,0.0,0.0,0.0,0.0,0.0
6.86,196,6,860000000,base_footprint,-0.0038438669520395887,-0.00033184850496903304,0.9964183824152588,-0.08447201754654547,0.0,0.0,0.0,0.0,0.0,0.0,0.0,0.0,0.0,0.0006738052286991631,-0.001462061272976965,0.017532503183735705,0.0,0.0,0.0,0.0,0.0,0.0,0.0,0.0,0.0,-0.241464896250096,-0.07822285843133825,-0.0025265464692326026,0.0,0.0,0.0,0.0,0.0,0.0,0.0,0.0,0.0
6.894,197,6,894000000,base_footprint,-0.003856092296458894,-0.000326216607368706,0.9964585067259887,-0.08399683629958322,0.0,0.0,0.0,0.0,0.0,0.0,0.0,0.0,0.0,0.00047554808716610106,2.806579188473242e-05,-0.0365692318437503,0.0,0.0,0.0,0.0,0.0,0.0,0.0,0.0,0.0,0.12125486431766228,0.034843971975799165,-0.000978300304100425,0.0,0.0,0.0,0.0,0.0,0.0,0.0,0.0,0.0
6.928,198,6,928000000,base_footprint,-0.0038560037710997285,-0.0003299680978875466,0.9965108800080845,-0.08337318742548361,0.0,0.0,0.0,0.0,0.0,0.0,0.0,0.0,0.0,5.193881887575566e-05,-0.00013797815908876885,-0.03547772082965601,0.0,0.0,0.0,0.0,0.0,0.0,0.0,0.0,0.0,-0.012570913669663753,-0.007456137366906377,-0.0002477160344933417,0.0,0.0,0.0,0.0,0.0,0.0,0.0,0.0,0.0
6.962,199,6,962000000,base_footprint,-0.0038605027006124158,-0.00032603975135942116,0.9965667830135031,-0.08270209919401483,0.0,0.0,0.0,0.0,0.0,0.0,0.0,0.0,0.0,0.0004946685934333818,0.000594643092349254,-0.03393677500896252,0.0,0.0,0.0,0.0,0.0,0.0,0.0,0.0,0.0,0.009422919500770557,-0.009681619594720515,-0.0007838883175631347,0.0,0.0,0.0,0.0,0.0,0.0,0.0,0.0,0.0
6.996,200,6,996000000,base_footprint,-0.003860933302986576,-0.0003287500846596876,0.9966137783967054,-0.08213380441240015,0.0,0.0,0.0,0.0,0.0,0.0,0.0,0.0,0.0,0.0002639708201133352,0.00014428642352244688,-0.03426911020663732,0.0,0.0,0.0,0.0,0.0,0.0,0.0,0.0,0.0,-0.0013785336193442867,-0.007328674092211749,0.0005718425521748761,0.0,0.0,0.0,0.0,0.0,0.0,0.0,0.0,0.0
7.03,201,7,30000000,base_footprint,-0.0038615154512707697,-0.0003291142092597286,0.9966565505270778,-0.08161311581923181,0.0,0.0,0.0,0.0,0.0,0.0,0.0,0.0,0.0,2.7842776157754436e-05,-0.0003315826528347718,-0.022703526028507056,0.0,0.0,0.0,0.0,0.0,0.0,0.0,0.0,0.0,-0.00507375502029377,-0.010182891831830024,0.00045473257406083653,0.0,0.0,0.0,0.0,0.0,0.0,0.0,0.0,0.0
7.064,202,7,64000000,base_footprint,-0.0038557055627642754,-0.00032652313624350764,0.9966841653917148,-0.08127546600712839,0.0,0.0,0.0,0.0,0.0,0.0,0.0,0.0,0.0,0.0007679429034445058,-0.00042255952101964835,-0.015864349954850667,0.0,0.0,0.0,0.0,0.0,0.0,0.0,0.0,0.0,-0.013676173944327755,-0.00458231015807162,0.0008756832726341098,0.0,0.0,0.0,0.0,0.0,0.0,0.0,0.0,0.0
7.098,203,7,98000000,base_footprint,-0.003854326716720813,-0.0003237678731895142,0.9966879967888866,-0.08122854422480626,0.0,0.0,0.0,0.0,0.0,0.0,0.0,0.0,0.0,-0.0003665459552857317,0.00018498903743864662,0.0070304823945119815,0.0,0.0,0.0,0.0,0.0,0.0,0.0,0.0,0.0,-0.052264896409512485,-0.021074934453161526,-0.0010624925037451402,0.0,0.0,0.0,0.0,0.0,0.0,0.0,0.0,0.0
7.132,204,7,132000000,base_footprint,-0.0038437524605775468,-0.0003166431539463284,0.9966683306296258,-0.08147001917325138,0.0,0.0,0.0,0.0,0.0,0.0,0.0,0.0,0.0,0.00034615524220744703,-0.0010854620031329751,0.026106401108197362,0.0,0.0,0.0,0.0,0.0,0.0,0.0,0.0,0.0,0.11967489534350126,0.04589035578602141,0.002284605702026806,0.0,0.0,0.0,0.0,0.0,0.0,0.0,0.0,0.0
7.166,205,7,166000000,base_footprint,-0.003842303629230763,-0.00031616176272018434,0.9966784446665355,-0.08134626409157594,0.0,0.0,0.0,0.0,0.0,0.0,0.0,0.0,0.0,0.0005664258432905591,-0.000217245052971194,-0.04542893511960254,0.0,0.0,0.0,0.0,0.0,0.0,0.0,0.0,0.0,0.1785092216174287,0.057754675012324876,0.00031534565667657317,0.0,0.0,0.0,0.0,0.0,0.0,0.0,0.0,0.0
7.2,206,7,200000000,base_footprint,-0.003852838441089367,-0.00031866870523861163,0.996784203816598,-0.08003939722358133,0.0,0.0,0.0,0.0,0.0,0.0,0.0,0.0,0.0,0.0007450909381441938,-0.00012018126264903094,-0.0850695144132869,0.0,0.0,0.0,0.0,0.0,0.0,0.0,0.0,0.0,0.11019372155163759,0.018802026847803067,0.0005648388590610179,0.0,0.0,0.0,0.0,0.0,0.0,0.0,0.0,0.0
7.234,207,7,234000000,base_footprint,-0.0038517965790524056,-0.00031024728571565034,0.9969117414931794,-0.07843498634392589,0.0,0.0,0.0,0.0,0.0,0.0,0.0,0.0,0.0,0.0012120052460088482,-0.0002940448437448571,-0.10524823027204197,0.0,0.0,0.0,0.0,0.0,0.0,0.0,0.0,0.0,0.016391004032449086,-0.01568643836608551,0.000628707555718638,0.0,0.0,0.0,0.0,0.0,0.0,0.0,0.0,0.0
7.268,208,7,268000000,base_footprint,-0.003852227723233802,-0.00030087243872767733,0.9970508821355836,-0.07664599304594207,0.0,0.0,0.0,0.0,0.0,0.0,0.0,0.0,0.0,0.0010297977755051317,3.4784124034958e-05,-0.10581123881250908,0.0,0.0,0.0,0.0,0.0,0.0,0.0,0.0,0.0,0.012677018411664916,-0.020957874435401376,-0.0004920366831531892,0.0,0.0,0.0,0.0,0.0,0.0,0.0,0.0,0.0
7.302,209,7,302000000,base_footprint,-0.0038546470151679148,-0.0002918330153732665,0.9971877631781242,-0.07484398103848375,0.0,0.0,0.0,0.0,0.0,0.0,0.0,0.0,0.0,0.0010166184224826005,0.00014593306773090818,-0.10667140972934522,0.0,0.0,0.0,0.0,0.0,0.0,0.0,0.0,0.0,0.012291220670048949,-0.020901870427565524,-0.0001724044629391151,0.0,0.0,0.0,0.0,0.0,0.0,0.0,0.0,0.0
7.336,210,7,336000000,base_footprint,-0.0038574684931417264,-0.00028660078274859703,0.9972751943856358,-0.0736696983834469,0.0,0.0,0.0,0.0,0.0,0.0,0.0,0.0,0.0,0.0008401501626334001,0.0004759215510798268,-0.030508931303152523,0.0,0.0,0.0,0.0,0.0,0.0,0.0,0.0,0.0,-0.00908438912761813,-0.022201622261036055,-0.0007134910723925928,0.0,0.0,0.0,0.0,0.0,0.0,0.0,0.0,0.0
7.37,211,7,370000000,base_footprint,-0.0038595092463127967,-0.00028430302590911065,0.997315065222641,-0.07312786090216626,0.0,0.0,0.0,0.0,0.0,0.0,0.0,0.0,0.0,0.0003665600533724094,4.920823132947043e-05,-0.03329997553687139,0.0,0.0,0.0,0.0,0.0,0.0,0.0,0.0,0.0,0.001937241428780275,-0.0051882255341353075,0.00043766601814334747,0.0,0.0,0.0,0.0,0.0,0.0,0.0,0.0,0.0
7.404,212,7,404000000,base_footprint,-0.0038597021246182354,-0.00028498072902684925,0.997357786985751,-0.07254285784540658,0.0,0.0,0.0,0.0,0.0,0.0,0.0,0.0,0.0,-4.439798086012419e-05,-0.00028115023425486933,-0.035178191028637715,0.0,0.0,0.0,0.0,0.0,0.0,0.0,0.0,0.0,0.0014500653947646127,-0.0035354906378506704,0.00012666483451387813,0.0,0.0,0.0,0.0,0.0,0.0,0.0,0.0,0.0
7.438,213,7,438000000,base_footprint,-0.003861459031959963,-0.0002865306583172836,0.9974015797692192,-0.07193813806453658,0.0,0.0,0.0,0.0,0.0,0.0,0.0,0.0,0.0,0.00037149843845295054,0.00010114172422514211,-0.03813935302998223,0.0,0.0,0.0,0.0,0.0,0.0,0.0,0.0,0.0,-0.020181413338198076,-0.0177943662300281,-0.0005590739581481887,0.0,0.0,0.0,0.0,0.0,0.0,0.0,0.0,0.0
7.472,214,7,472000000,base_footprint,-0.003864061441634834,-0.00028649068221256577,0.9974403963963496,-0.07139777719899446,0.0,0.0,0.0,0.0,0.0,0.0,0.0,0.0,0.0,-0.0002085714988298693,-0.0003559205809422469,-0.03193165903414763,0.0,0.0,0.0,0.0,0.0,0.0,0.0,0.0,0.0,0.00858852087803142,-0.002051380727081245,0.00038391737743731085,0.0,0.0,0.0,0.0,0.0,0.0,0.0,0.0,0.0
7.506,215,7,506000000,base_footprint,-0.003863578959646278,-0.00028684397388199377,0.9974767124375905,-0.07088863535753613,0.0,0.0,0.0,0.0,0.0,0.0,0.0,0.0,0.0,0.00019266379553583825,-0.00023102105103430673,-0.028477716440160637,0.0,0.0,0.0,0.0,0.0,0.0,0.0,0.0,0.0,-0.0036196407169192912,-0.012003214004798077,0.00019263025792117794,0.0,0.0,0.0,0.0,0.0,0.0,0.0,0.0,0.0
7.54,216,7,540000000,base_footprint,-0.0038579023313783396,-0.00028100964446590727,0.9975051501796575,-0.07048767969113798,0.0,0.0,0.0,0.0,0.0,0.0,0.0,0.0,0.0,0.00060609561429747,-0.00010209399019334903,-0.014697957669294777,0.0,0.0,0.0,0.0,0.0,0.0,0.0,0.0,0.0,-0.03009415962118197,-0.008602608884658202,-1.703741347201801e-05,0.0,0.0,0.0,0.0,0.0,0.0,0.0,0.0,0.0
7.574,217,7,574000000,base_footprint,-0.0038566976477319172,-0.000280769388317705,0.997510135009231,-0.07041716840139509,0.0,0.0,0.0,0.0,0.0,0.0,0.0,0.0,0.0,0.00023981759609088862,-0.0004221972621405687,-0.004580663079198241,0.0,0.0,0.0,0.0,0.0,0.0,0.0,0.0,0.0,-0.02243179837860481,-0.00993093435385331,-0.00024028962597721606,0.0,0.0,0.0,0.0,0.0,0.0,0.0,0.0,0.0
7.608,218,7,608000000,base_footprint,-0.003859305045897695,-0.0002836304183495378,0.9975294842749113,-0.07014237892015007,0.0,0.0,0.0,0.0,0.0,0.0,0.0,0.0,0.0,0.0005065798277807477,-0.0004769201087846947,-0.021064669836771792,0.0,0.0,0.0,0.0,0.0,0.0,0.0,0.0,0.0,0.04818229173119397,0.012066218718623744,0.0009918349492608531,0.0,0.0,0.0,0.0,0.0,0.0,0.0,0.0,0.0
7.642,219,7,642000000,base_footprint,-0.0038612268206951145,-0.0002778526102801184,0.9975878130599951,-0.06930778426369218,0.0,0.0,0.0,0.0,0.0,0.0,0.0,0.0,0.0,0.0009797259139861045,-0.0004002347195745554,-0.09248605992198763,0.0,0.0,0.0,0.0,0.0,0.0,0.0,0.0,0.0,-0.5548788146945068,-0.17083097120767865,-0.004526324653632395,0.0,0.0,0.0,0.0,0.0,0.0,0.0,0.0,0.0
7.676,220,7,676000000,base_footprint,-0.0038526534394522785,-0.00027259476677486493,0.9976473464810999,-0.06844599924603913,0.0,0.0,0.0,0.0,0.0,0.0,0.0,0.0,0.0,-0.001814530822569033,0.0023023090394407772,-0.026045193548903053,0.0,0.0,0.0,0.0,0.0,0.0,0.0,0.0,0.0,0.23881962348799857,0.05513190164394531,-0.0033142507062817496,0.0,0.0,0.0,0.0,0.0,0.0,0.0,0.0,0.0
7.71,221,7,710000000,base_footprint,-0.0038538438253790824,-0.00027084412393392536,0.9976769076545583,-0.06801369321003133,0.0,0.0,0.0,0.0,0.0,0.0,0.0,0.0,0.0,0.0004204322260353375,-0.00016918641229151103,-0.025230829886997447,0.0,0.0,0.0,0.0,0.0,0.0,0.0,0.0,0.0,0.007846855953903838,-0.003189475544500164,0.004907728462820201,0.0,0.0,0.0,0.0,0.0,0.0,0.0,0.0,0.0
7.744,222,7,744000000,base_footprint,-0.0038546794330120513,-0.0002636682679492816,0.9977670235071419,-0.06667862271532084,0.0,0.0,0.0,0.0,0.0,0.0,0.0,0.0,0.0,0.0009966638298385356,-0.00011294248696656342,-0.09903673537742802,0.0,0.0,0.0,0.0,0.0,0.0,0.0,0.0,0.0,0.02846903822726276,-0.008734417969542623,0.00018784091952853024,0.0,0.0,0.0,0.0,0.0,0.0,0.0,0.0,0.0
7.7780000000000005,223,7,778000000,base_footprint,-0.003856303158192112,-0.00025525694299297243,0.9978782529336369,-0.06499273876332506,0.0,0.0,0.0,0.0,0.0,0.0,0.0,0.0,0.0,0.0009510204422994372,8.304310142374882e-05,-0.0996694468270684,0.0,0.0,0.0,0.0,0.0,0.0,0.0,0.0,0.0,0.010228668448101313,-0.018654140103468643,-0.00030181594928327876,0.0,0.0,0.0,0.0,0.0,0.0,0.0,0.0,0.0
7.812,224,7,812000000,base_footprint,-0.003859239900252695,-0.00024743506104771723,0.99798747859921,-0.06329326664404548,0.0,0.0,0.0,0.0,0.0,0.0,0.0,0.0,0.0,0.0009657090053318129,9.505810330000541e-05,-0.10068340909681926,0.0,0.0,0.0,0.0,0.0,0.0,0.0,0.0,0.0,0.009903345369130033,-0.019510770134014793,-8.367426567972857e-05,0.0,0.0,0.0,0.0,0.0,0.0,0.0,0.0,0.0
7.846,225,7,846000000,base_footprint,-0.0038568512947239823,-0.00024426746135363156,0.9980803830471918,-0.061811115568873205,0.0,0.0,0.0,0.0,0.0,0.0,0.0,0.0,0.0,0.0003462402063771728,-1.7816580784233938e-05,-0.04647744182050396,0.0,0.0,0.0,0.0,0.0,0.0,0.0,0.0,0.0,0.2711699924268515,0.048807825474012106,0.0022829996328070134,0.0,0.0,0.0,0.0,0.0,0.0,0.0,0.0,0.0
7.88,226,7,880000000,base_footprint,-0.003865419383343077,-0.00023971990730741453,0.9981090303659877,-0.06134626776931647,0.0,0.0,0.0,0.0,0.0,0.0,0.0,0.0,0.0,0.0003106304228695228,-0.0001181548300398367,-0.02913704951462573,0.0,0.0,0.0,0.0,0.0,0.0,0.0,0.0,0.0,0.045994938229910416,0.0037948775272088125,0.00014302423103905866,0.0,0.0,0.0,0.0,0.0,0.0,0.0,0.0,0.0
7.914,227,7,914000000,base_footprint,-0.003863986880260435,-0.00024322535311407025,0.9981401618090119,-0.06083771717196932,0.0,0.0,0.0,0.0,0.0,0.0,0.0,0.0,0.0,-9.200861107784385e-05,5.9473481792912665e-05,-0.0320489479470996,0.0,0.0,0.0,0.0,0.0,0.0,0.0,0.0,0.0,-0.0036525983375187837,-0.004366539250322344,-0.0005362075022706203,0.0,0.0,0.0,0.0,0.0,0.0,0.0,0.0,0.0
7.948,228,7,948000000,base_footprint,-0.0038684293957627746,-0.0002406619185185704,0.9981737476263144,-0.06028388578625261,0.0,0.0,0.0,0.0,0.0,0.0,0.0,0.0,0.0,0.00033427591491724817,0.0003460231514735831,-0.026722810746752947,0.0,0.0,0.0,0.0,0.0,0.0,0.0,0.0,0.0,-0.0018105642555846294,-0.009899969725203994,-0.00015475374463629993,0.0,0.0,0.0,0.0,0.0,0.0,0.0,0.0,0.0
7.982,229,7,982000000,base_footprint,-0.0038674674830132716,-0.00024309625457969616,0.9982012622000271,-0.0598266139920322,0.0,0.0,0.0,0.0,0.0,0.0,0.0,0.0,0.0,0.00019208677236900957,-0.0002680283408905296,-0.026088607334459363,0.0,0.0,0.0,0.0,0.0,0.0,0.0,0.0,0.0,-0.010185916738405713,-0.009327173573758693,0.0008491124094016897,0.0,0.0,0.0,0.0,0.0,0.0,0.0,0.0,0.0
8.016,230,8,16000000,base_footprint,-0.0038612301797639665,-0.00023860379760265205,0.9982238132289131,-0.059449580927496894,0.0,0.0,0.0,0.0,0.0,0.0,0.0,0.0,0.0,0.0006457687260662063,-0.0002197357071950827,-0.01452137892266954,0.0,0.0,0.0,0.0,0.0,0.0,0.0,0.0,0.0,-0.025182694786752752,-0.004873174702927386,0.00019177151756051317,0.0,0.0,0.0,0.0,0.0,0.0,0.0,0.0,0.0
8.05,231,8,50000000,base_footprint,-0.0038600988086802245,-0.0002365286539918583,0.9982345825243809,-0.05926855780055857,0.0,0.0,0.0,0.0,0.0,0.0,0.0,0.0,0.0,0.00035567151151118085,-0.0004380324108359126,-0.010399847224378015,0.0,0.0,0.0,0.0,0.0,0.0,0.0,0.0,0.0,-0.03559809506633377,-0.014674852271463517,1.1098196491308434e-05,0.0,0.0,0.0,0.0,0.0,0.0,0.0,0.0,0.0
8.084,232,8,84000000,base_footprint,-0.003863372441242747,-0.00024016636018912092,0.9982583023095959,-0.058867465916778904,0.0,0.0,0.0,0.0,0.0,0.0,0.0,0.0,0.0,0.0004758188042920823,-0.00046602233080428855,-0.0317264694690322,0.0,0.0,0.0,0.0,0.0,0.0,0.0,0.0,0.0,0.06135128706111034,0.01205714168540859,0.00047438945581970227,0.0,0.0,0.0,0.0,0.0,0.0,0.0,0.0,0.0
8.118,233,8,118000000,base_footprint,-0.0038593425220656797,-0.00023721233987349853,0.998287593591458,-0.05836891027746812,0.0,0.0,0.0,0.0,0.0,0.0,0.0,0.0,0.0,-0.0004852894893643394,-0.0004003907540976693,-0.025821059958422966,0.0,0.0,0.0,0.0,0.0,0.0,0.0,0.0,0.0,0.0008562516386458961,-0.01073078710199206,-0.0011536547816042538,0.0,0.0,0.0,0.0,0.0,0.0,0.0,0.0,0.0
8.152,234,8,152000000,base_footprint,-0.0038577944066459065,-0.0002351441242965278,0.998306607842132,-0.05804290540878092,0.0,0.0,0.0,0.0,0.0,0.0,0.0,0.0,0.0,0.00038498923431378986,-0.0002898282173555404,-0.01937190980645781,0.0,0.0,0.0,0.0,0.0,0.0,0.0,0.0,0.0,0.003027327610178926,-0.0031287287845343037,0.0009546292186287234,0.0,0.0,0.0,0.0,0.0,0.0,0.0,0.0,0.0
8.186,235,8,186000000,base_footprint,-0.003855805871431957,-0.0002313635069399603,0.9983258995073327,-0.05771029028591581,0.0,0.0,0.0,0.0,0.0,0.0,0.0,0.0,0.0,0.00036815208925715896,-0.00019365378228074787,-0.01975300471162164,0.0,0.0,0.0,0.0,0.0,0.0,0.0,0.0,0.0,0.006424399865067175,-0.0029441128989146827,-0.00012833897131140135,0.0,0.0,0.0,0.0,0.0,0.0,0.0,0.0,0.0
8.22,236,8,220000000,base_footprint,-0.0038630465283318607,-0.00023098014871718404,0.9983452383191718,-0.05737428557400273,0.0,0.0,0.0,0.0,0.0,0.0,0.0,0.0,0.0,-0.0021240847590578366,0.0034516087514098997,-0.015943650440614614,0.0,0.0,0.0,0.0,0.0,0.0,0.0,0.0,0.0,-0.07669774258456642,-0.019019065819575923,-0.005683182213532164,0.0,0.0,0.0,0.0,0.0,0.0,0.0,0.0,0.0
8.254,237,8,254000000,base_footprint,-0.0038532535143779457,-0.00022439909994106258,0.9983549873051343,-0.05720508198895607,0.0,0.0,0.0,0.0,0.0,0.0,0.0,0.0,0.0,-0.00020849727866465567,-0.0022382990443108337,-0.03530733530969044,0.0,0.0,0.0,0.0,0.0,0.0,0.0,0.0,0.0,-0.48825451059760755,-0.12399081044850935,0.0046643033526718326,0.0,0.0,0.0,0.0,0.0,0.0,0.0,0.0,0.0
8.288,238,8,288000000,base_footprint,-0.00385997997532071,-0.00022269162137754074,0.998385397698362,-0.05667140924413055,0.0,0.0,0.0,0.0,0.0,0.0,0.0,0.0,0.0,0.00023287253384281052,-6.905851722965998e-05,-0.025868005790841794,0.0,0.0,0.0,0.0,0.0,0.0,0.0,0.0,0.0,0.25083789275515883,0.05531670932305663,-0.001662102619982542,0.0,0.0,0.0,0.0,0.0,0.0,0.0,0.0,0.0
8.322,239,8,322000000,base_footprint,-0.003864461930775473,-0.00021956557458884603,0.9984060600334428,-0.05630592343121413,0.0,0.0,0.0,0.0,0.0,0.0,0.0,0.0,0.0,-0.002977300508637626,-0.0016280141364769067,0.023911810868427082,0.0,0.0,0.0,0.0,0.0,0.0,0.0,0.0,0.0,-0.02211274604896409,-0.008518187432899116,-0.0004888595510677821,0.0,0.0,0.0,0.0,0.0,0.0,0.0,0.0,0.0
8.356,240,8,356000000,base_footprint,-0.0038653438140811933,-0.0002243716291095016,0.9983667959953921,-0.05699780196171071,0.0,0.0,0.0,0.0,0.0,0.0,0.0,0.0,0.0,-0.00028334712010470893,-5.686963350223481e-05,0.03930451565106705,0.0,0.0,0.0,0.0,0.0,0.0,0.0,0.0,0.0,0.011928210876350738,0.008324814119055692,-0.00018055407870761576,0.0,0.0,0.0,0.0,0.0,0.0,0.0,0.0,0.0
8.39,241,8,390000000,base_footprint,-0.0038645219463157845,-0.00022923701620494543,0.998329454028764,-0.05764819285239454,0.0,0.0,0.0,0.0,0.0,0.0,0.0,0.0,0.0,-0.0006346975092596146,-0.00016157471175593094,0.03733052394222101,0.0,0.0,0.0,0.0,0.0,0.0,0.0,0.0,0.0,-0.001042651286506208,0.011073624896090551,-3.786932267021215e-05,0.0,0.0,0.0,0.0,0.0,0.0,0.0,0.0,0.0
8.424,242,8,424000000,base_footprint,-0.003865678636281878,-0.00023555649560270684,0.9982976974421478,-0.0581954321534286,0.0,0.0,0.0,0.0,0.0,0.0,0.0,0.0,0.0,-0.0003500413973638629,0.0005840479433136636,0.031774014904967354,0.0,0.0,0.0,0.0,0.0,0.0,0.0,0.0,0.0,-0.03431673477676247,-0.003954342615963245,-0.0015143672492569423,0.0,0.0,0.0,0.0,0.0,0.0,0.0,0.0,0.0
8.458,243,8,458000000,base_footprint,-0.003866908287227657,-0.00024036372962482565,0.9982578770934172,-0.05887444323745045,0.0,0.0,0.0,0.0,0.0,0.0,0.0,0.0,0.0,-0.0005476108542020528,-0.0001530390585156449,0.039642488677228686,0.0,0.0,0.0,0.0,0.0,0.0,0.0,0.0,0.0,0.007450527425449895,0.011022363770721652,0.001310520698860055,0.0,0.0,0.0,0.0,0.0,0.0,0.0,0.0,0.0
8.492,244,8,492000000,base_footprint,-0.003862671772257371,-0.00024235077766815696,0.998214429698524,-0.05960682322126477,0.0,0.0,0.0,0.0,0.0,0.0,0.0,0.0,0.0,0.0002160837869382736,-0.0004478891887205966,0.04668805498721027,0.0,0.0,0.0,0.0,0.0,0.0,0.0,0.0,0.0,-0.014555305605680902,0.0120972557314328,0.0011000334901903712,0.0,0.0,0.0,0.0,0.0,0.0,0.0,0.0,0.0
8.526,245,8,526000000,base_footprint,-0.003864405463027848,-0.0002434694600108425,0.9981620965888488,-0.060476739548303314,0.0,0.0,0.0,0.0,0.0,0.0,0.0,0.0,0.0,-0.0005747115397122149,-0.0024998799304170177,0.01901670207940364,0.0,0.0,0.0,0.0,0.0,0.0,0.0,0.0,0.0,-0.15552593479247018,-0.02961579118914007,0.00026351684115753565,0.0,0.0,0.0,0.0,0.0,0.0,0.0,0.0,0.0
8.56,246,8,560000000,base_footprint,-0.0038630747898450155,-0.00024433180993060466,0.9981639924204647,-0.06044552250062206,0.0,0.0,0.0,0.0,0.0,0.0,0.0,0.0,0.0,0.0011892496648970015,0.0019803572899299406,0.0535311988289965,0.0,0.0,0.0,0.0,0.0,0.0,0.0,0.0,0.0,-0.18201758973733717,-0.04485490011349158,-0.004701080732545279,0.0,0.0,0.0,0.0,0.0,0.0,0.0,0.0,0.0
8.594,247,8,594000000,base_footprint,-0.0038599308223613324,-0.00024848996289086693,0.9981091012736008,-0.06134542478123529,0.0,0.0,0.0,0.0,0.0,0.0,0.0,0.0,0.0,-0.0002720114703816686,-0.0004103113713499897,0.05216675361385811,0.0,0.0,0.0,0.0,0.0,0.0,0.0,0.0,0.0,0.000627997095431657,0.007595034007177383,0.0014577380410577434,0.0,0.0,0.0,0.0,0.0,0.0,0.0,0.0,0.0
8.628,248,8,628000000,base_footprint,-0.0038459242983572427,-0.000245789955439453,0.9980471959714076,-0.062345353212569815,0.0,0.0,0.0,0.0,0.0,0.0,0.0,0.0,0.0,-0.00036788567922740347,0.00011409740268762243,0.09102226948544896,0.0,0.0,0.0,0.0,0.0,0.0,0.0,0.0,0.0,0.18269969972548458,0.056299541344076845,0.0015081870513818413,0.0,0.0,0.0,0.0,0.0,0.0,0.0,0.0,0.0
8.661,249,8,662000000,base_footprint,-0.0038472222117029867,-0.0002497411884246613,0.9979654664379478,-0.06364011555522144,0.0,0.0,0.0,0.0,0.0,0.0,0.0,0.0,0.0,-6.608298193067766e-05,0.000143751277493455,0.04845532445817734,0.0,0.0,0.0,0.0,0.0,0.0,0.0,0.0,0.0,0.43496344084711175,0.13121163832316193,0.003312748025689452,0.0,0.0,0.0,0.0,0.0,0.0,0.0,0.0,0.0
8.696,250,8,696000000,base_footprint,-0.0038539614058735938,-0.00025474276319193046,0.9979321746789618,-0.0641596199187989,0.0,0.0,0.0,0.0,0.0,0.0,0.0,0.0,0.0,-1.106193394183482e-05,-0.0002186577049337462,0.029352423657467947,0.0,0.0,0.0,0.0,0.0,0.0,0.0,0.0,0.0,0.05325872713391884,0.02053438535416807,0.0004349745755885164,0.0,0.0,0.0,0.0,0.0,0.0,0.0,0.0,0.0
8.73,251,8,730000000,base_footprint,-0.003852620514892206,-0.00025654332371525965,0.9979093176648385,-0.0645142249305359,0.0,0.0,0.0,0.0,0.0,0.0,0.0,0.0,0.0,-1.7761478738524302e-05,0.0006184325878616429,-0.023612383475825248,0.0,0.0,0.0,0.0,0.0,0.0,0.0,0.0,0.0,-0.196754094594398,-0.04827650640401369,-0.0024834989391595216,0.0,0.0,0.0,0.0,0.0,0.0,0.0,0.0,0.0
8.764,252,8,764000000,base_footprint,-0.003855620276195717,-0.00025105515719593056,0.9979495723424737,-0.06388835750798275,0.0,0.0,0.0,0.0,0.0,0.0,0.0,0.0,0.0,0.00031047499688583596,0.002212523782782058,0.014383845249523405,0.0,0.0,0.0,0.0,0.0,0.0,0.0,0.0,0.0,-0.11881826848441843,-0.042181150569548,-0.002798409394725643,0.0,0.0,0.0,0.0,0.0,0.0,0.0,0.0,0.0
8.798,253,8,798000000,base_footprint,-0.003859341407347607,-0.0002501644019192833,0.9979355414879438,-0.06410692581022719,0.0,0.0,0.0,0.0,0.0,0.0,0.0,0.0,0.0,0.00011085841488973916,1.5843104720316654e-05,0.012253966260262237,0.0,0.0,0.0,0.0,0.0,0.0,0.0,0.0,0.0,0.005794068880381392,0.007667920775354222,0.002274984196030348,0.0,0.0,0.0,0.0,0.0,0.0,0.0,0.0,0.0
8.832,254,8,832000000,base_footprint,-0.0038516873795155717,-0.00025361271458767474,0.9979347603281199,-0.06411953145321161,0.0,0.0,0.0,0.0,0.0,0.0,0.0,0.0,0.0,-2.9589211840188163e-05,-0.00037993386527020883,-0.036364517201432335,0.0,0.0,0.0,0.0,0.0,0.0,0.0,0.0,0.0,0.2305705333226561,0.06262613480462739,0.0025108593214797567,0.0,0.0,0.0,0.0,0.0,0.0,0.0,0.0,0.0
8.866,255,8,866000000,base_footprint,-0.003861202930661849,-0.00025286656447680555,0.9979905793040281,-0.06324421547334834,0.0,0.0,0.0,0.0,0.0,0.0,0.0,0.0,0.0,4.6555719213224706e-05,-0.001025980933764916,-0.010783635474111848,0.0,0.0,0.0,0.0,0.0,0.0,0.0,0.0,0.0,0.07723071803938969,0.004666112218176236,0.001392394131172646,0.0,0.0,0.0,0.0,0.0,0.0,0.0,0.0,0.0
8.9,256,8,900000000,base_footprint,-0.0038605147293037413,-0.00025662061476277117,0.9979988673237633,-0.0631133218296317,0.0,0.0,0.0,0.0,0.0,0.0,0.0,0.0,0.0,2.513169591422411e-05,0.0004445141078228934,-0.012622653069776283,0.0,0.0,0.0,0.0,0.0,0.0,0.0,0.0,0.0,0.0023446098163409125,0.0029856055770404004,-0.0025057538635533992,0.0,0.0,0.0,0.0,0.0,0.0,0.0,0.0,0.0
8.934,257,8,934000000,base_footprint,-0.0038681479722098852,-0.0002581607854612127,0.9980082823408224,-0.0629637924794519,0.0,0.0,0.0,0.0,0.0,0.0,0.0,0.0,0.0,-0.0017752114239978764,0.0013214327572714812,-0.0016319429419191507,0.0,0.0,0.0,0.0,0.0,0.0,0.0,0.0,0.0,-0.1586589446175829,-0.04558859061320939,-0.003364504313536831,0.0,0.0,0.0,0.0,0.0,0.0,0.0,0.0,0.0
8.968,258,8,968000000,base_footprint,-0.0038695724689608224,-0.0002534684970926043,0.9980315527457955,-0.06259378472696087,0.0,0.0,0.0,0.0,0.0,0.0,0.0,0.0,0.0,-0.001129642727598491,6.392923687072601e-05,-0.00349841831003118,0.0,0.0,0.0,0.0,0.0,0.0,0.0,0.0,0.0,-0.1419592462650318,-0.04323067665499986,0.0007821598243700613,0.0,0.0,0.0,0.0,0.0,0.0,0.0,0.0,0.0
9.002,259,9,2000000,base_footprint,-0.00386691590973879,-0.0002548718345416408,0.9980183758625406,-0.06280368971956761,0.0,0.0,0.0,0.0,0.0,0.0,0.0,0.0,0.0,9.527383210997201e-06,-0.000295303531874903,0.024393185786549903,0.0,0.0,0.0,0.0,0.0,0.0,0.0,0.0,0.0,-0.07600064780260843,-0.014661054254295966,0.0010566072379128927,0.0,0.0,0.0,0.0,0.0,0.0,0.0,0.0,0.0
9.036,260,9,36000000,base_footprint,-0.0038621165569216525,-0.0002530202454952909,0.9980236538119089,-0.06272006432062494,0.0,0.0,0.0,0.0,0.0,0.0,0.0,0.0,0.0,0.0014377450541867938,-0.0036240602534710347,-0.0672451427719382,0.0,0.0,0.0,0.0,0.0,0.0,0.0,0.0,0.0,-0.250559344107995,-0.058303062797930995,0.004574413694010288,0.0,0.0,0.0,0.0,0.0,0.0,0.0,0.0,0.0
9.07,261,9,70000000,base_footprint,-0.003858714689849705,-0.00025202458797482833,0.998045092411553,-0.062378203867729264,0.0,0.0,0.0,0.0,0.0,0.0,0.0,0.0,0.0,-0.000773078611390056,0.00040880852442178815,0.017811330314470717,0.0,0.0,0.0,0.0,0.0,0.0,0.0,0.0,0.0,-0.047809362742196236,-0.027093047758294648,-0.008532446633845975,0.0,0.0,0.0,0.0,0.0,0.0,0.0,0.0,0.0
9.104,262,9,104000000,base_footprint,-0.00385840569053234,-0.00025404124492804956,0.998029800925374,-0.06262239721882136,0.0,0.0,0.0,0.0,0.0,0.0,0.0,0.0,0.0,-7.542309814196205e-05,-0.00030053306970196725,0.01490698744729364,0.0,0.0,0.0,0.0,0.0,0.0,0.0,0.0,0.0,0.01195972392226284,0.011133490564536335,0.0017497315499576253,0.0,0.0,0.0,0.0,0.0,0.0,0.0,0.0,0.0
9.138,263,9,138000000,base_footprint,-0.003846370642957637,-0.00024920732488090206,0.9979923824537997,-0.06321667416730226,0.0,0.0,0.0,0.0,0.0,0.0,0.0,0.0,0.0,-0.0004984126075276686,0.0011603998643863488,0.06118402463830093,0.0,0.0,0.0,0.0,0.0,0.0,0.0,0.0,0.0,0.3476197153670867,0.09626367158778386,0.0013104503051410462,0.0,0.0,0.0,0.0,0.0,0.0,0.0,0.0,0.0
9.172,264,9,172000000,base_footprint,-0.0038551932929071684,-0.0002546803651095003,0.9979703188341076,-0.06356347495799437,0.0,0.0,0.0,0.0,0.0,0.0,0.0,0.0,0.0,0.0005371110582344905,-0.0004947547960432087,0.003507615466607875,0.0,0.0,0.0,0.0,0.0,0.0,0.0,0.0,0.0,0.3228543251887131,0.09259175643586684,0.004541589925243693,0.0,0.0,0.0,0.0,0.0,0.0,0.0,0.0,0.0
9.206,265,9,206000000,base_footprint,-0.003854017665430263,-0.0002525140253726587,0.9979665747250863,-0.06362231146367087,0.0,0.0,0.0,0.0,0.0,0.0,0.0,0.0,0.0,0.0001669044329735381,-0.00012052695951272331,0.0032981496149425012,0.0,0.0,0.0,0.0,0.0,0.0,0.0,0.0,0.0,0.003583489137125567,-0.0016780074754231716,-0.0005920218496154382,0.0,0.0,0.0,0.0,0.0,0.0,0.0,0.0,0.0
9.24,266,9,240000000,base_footprint,-0.003855267536062295,-0.0002495112846393696,0.9979941108892804,-0.0631888383075614,0.0,0.0,0.0,0.0,0.0,0.0,0.0,0.0,0.0,0.0019466212618587638,0.0019877852323684935,-0.08563554490663906,0.0,0.0,0.0,0.0,0.0,0.0,0.0,0.0,0.0,-0.2851013505841654,-0.07911404339561404,-0.00499229712658464,0.0,0.0,0.0,0.0,0.0,0.0,0.0,0.0,0.0
9.274000000000001,267,9,274000000,base_footprint,-0.003857861984656706,-0.00024592400456175366,0.9980292206948576,-0.06263170971246658,0.0,0.0,0.0,0.0,0.0,0.0,0.0,0.0,0.0,0.00020688144397785954,-0.00011950159422562811,-0.0023437476876925984,0.0,0.0,0.0,0.0,0.0,0.0,0.0,0.0,0.0,-0.030002106869198897,-0.01579581974766115,0.002283405277409451,0.0,0.0,0.0,0.0,0.0,0.0,0.0,0.0,0.0
9.308,268,9,308000000,base_footprint,-0.003860981210204375,-0.000245385013685006,0.9980327595345774,-0.0625751029250938,0.0,0.0,0.0,0.0,0.0,0.0,0.0,0.0,0.0,0.00016561753384727426,5.705515475735469e-05,-0.004186499245899989,0.0,0.0,0.0,0.0,0.0,0.0,0.0,0.0,0.0,0.003181890914418062,0.00012449847611024976,-0.0002828182538003744,0.0,0.0,0.0,0.0,0.0,0.0,0.0,0.0,0.0
9.342,269,9,342000000,base_footprint,-0.0038562876621351097,-0.0002451590917364769,0.9980696063405277,-0.06198491624379967,0.0,0.0,0.0,0.0,0.0,0.0,0.0,0.0,0.0,0.0012449052861475483,0.0015750027595309378,-0.09186212690748834,0.0,0.0,0.0,0.0,0.0,0.0,0.0,0.0,0.0,0.34178576074125155,0.08024200863534653,0.0014118344399657277,0.0,0.0,0.0,0.0,0.0,0.0,0.0,0.0,0.0
9.376,270,9,376000000,base_footprint,-0.0038585949398659194,-0.00024650087597345016,0.9981250496179456,-0.06108547951503609,0.0,0.0,0.0,0.0,0.0,0.0,0.0,0.0,0.0,-0.00010482167068582122,-0.0003037496698494663,-0.024783101013727764,0.0,0.0,0.0,0.0,0.0,0.0,0.0,0.0,0.0,-0.023131259207078647,-0.01778026273629056,0.0016394411002822549,0.0,0.0,0.0,0.0,0.0,0.0,0.0,0.0,0.0
9.41,271,9,410000000,base_footprint,-0.0038652522768252437,-0.0002453548686408992,0.9981547938804654,-0.06059708804283202,0.0,0.0,0.0,0.0,0.0,0.0,0.0,0.0,0.0,0.0007497295216335488,0.0007188903201329592,-0.03132107862208186,0.0,0.0,0.0,0.0,0.0,0.0,0.0,0.0,0.0,-0.01809879266990032,-0.012879027374493932,-0.001875207872899546,0.0,0.0,0.0,0.0,0.0,0.0,0.0,0.0,0.0
9.444,272,9,444000000,base_footprint,-0.0038687030010861687,-0.0002504785311670291,0.9981809322341015,-0.06016474816580486,0.0,0.0,0.0,0.0,0.0,0.0,0.0,0.0,0.0,0.0004705727061556198,-0.0002780517589034109,-0.0426165254917833,0.0,0.0,0.0,0.0,0.0,0.0,0.0,0.0,0.0,-0.20984587498719376,-0.05617526467207845,0.0003232917702875799,0.0,0.0,0.0,0.0,0.0,0.0,0.0,0.0,0.0
9.478,273,9,478000000,base_footprint,-0.0038712508898497656,-0.000245098567201022,0.9982176720556797,-0.059551931446259934,0.0,0.0,0.0,0.0,0.0,0.0,0.0,0.0,0.0,4.072130663885203e-05,0.00043792878689187173,-0.016573894748324724,0.0,0.0,0.0,0.0,0.0,0.0,0.0,0.0,0.0,-0.0961723287149142,-0.025676583422565593,-0.0024532590865985423,0.0,0.0,0.0,0.0,0.0,0.0,0.0,0.0,0.0
9.512,274,9,512000000,base_footprint,-0.003866177697123642,-0.00024365360028579243,0.9982275411855127,-0.05938660894227696,0.0,0.0,0.0,0.0,0.0,0.0,0.0,0.0,0.0,0.00011949891220237595,-0.00024645468974678883,-0.007451561708645214,0.0,0.0,0.0,0.0,0.0,0.0,0.0,0.0,0.0,-0.018616294384421694,-0.011291787580589902,0.0011209719000678186,0.0,0.0,0.0,0.0,0.0,0.0,0.0,0.0,0.0
9.545,275,9,546000000,base_footprint,-0.0038600809068841876,-0.0002362331720155739,0.9982788613456092,-0.058518022521227946,0.0,0.0,0.0,0.0,0.0,0.0,0.0,0.0,0.0,0.00015581716699161727,0.001820734611693983,-0.07330390945997603,0.0,0.0,0.0,0.0,0.0,0.0,0.0,0.0,0.0,-0.3130743604656797,-0.08871559139657959,-0.005644561965139561,0.0,0.0,0.0,0.0,0.0,0.0,0.0,0.0,0.0
9.58,276,9,580000000,base_footprint,-0.0038607807971874565,-0.00023800779109721927,0.9982950778869084,-0.05824066612513122,0.0,0.0,0.0,0.0,0.0,0.0,0.0,0.0,0.0,6.13268770584605e-05,-0.00040827127097879315,-0.002137134948995184,0.0,0.0,0.0,0.0,0.0,0.0,0.0,0.0,0.0,-0.009874118916228808,-0.0020850122630021676,0.003438111481860238,0.0,0.0,0.0,0.0,0.0,0.0,0.0,0.0,0.0
9.614,277,9,614000000,base_footprint,-0.0038584305503549547,-0.00023704660153342936,0.9982964111881955,-0.05821796742730316,0.0,0.0,0.0,0.0,0.0,0.0,0.0,0.0,0.0,2.3172142489006353e-07,-0.00022077132063583123,-0.0011414242505112353,0.0,0.0,0.0,0.0,0.0,0.0,0.0,0.0,0.0,0.001802474803655854,-0.0008184817170709227,-0.00029715812639938245,0.0,0.0,0.0,0.0,0.0,0.0,0.0,0.0,0.0
9.648,278,9,648000000,base_footprint,-0.003848954606282107,-0.00022995689217732759,0.9983210495074679,-0.057794591257093735,0.0,0.0,0.0,0.0,0.0,0.0,0.0,0.0,0.0,-0.00122299457531588,0.0008525242863882538,-0.08280289112237253,0.0,0.0,0.0,0.0,0.0,0.0,0.0,0.0,0.0,0.3675588607050919,0.08176967263485457,-0.0009452407308215953,0.0,0.0,0.0,0.0,0.0,0.0,0.0,0.0,0.0
9.682,279,9,682000000,base_footprint,-0.0038551089895843705,-0.00023055373874080202,0.9983366479941187,-0.05752410148380539,0.0,0.0,0.0,0.0,0.0,0.0,0.0,0.0,0.0,0.00019131354965951872,-5.3612982438746235e-05,-0.006560832023166932,0.0,0.0,0.0,0.0,0.0,0.0,0.0,0.0,0.0,-0.022667059796499644,-0.008747703958569372,0.0036525037187766056,0.0,0.0,0.0,0.0,0.0,0.0,0.0,0.0,0.0
9.716,280,9,716000000,base_footprint,-0.0038555489709120204,-0.00022852257056925283,0.9983432932818983,-0.05740863418181293,0.0,0.0,0.0,0.0,0.0,0.0,0.0,0.0,0.0,0.0002213564451019049,-8.836115952757215e-05,-0.0069684000895291354,0.0,0.0,0.0,0.0,0.0,0.0,0.0,0.0,0.0,0.005718418729667327,-0.0005241985741314609,3.0056472059173318e-05,0.0,0.0,0.0,0.0,0.0,0.0,0.0,0.0,0.0
9.75,281,9,750000000,base_footprint,-0.0038576756471270686,-0.00022322402631242723,0.9984040012747588,-0.05634286776680041,0.0,0.0,0.0,0.0,0.0,0.0,0.0,0.0,0.0,0.0009080998027696849,-9.635907354834473e-05,-0.09543331647308442,0.0,0.0,0.0,0.0,0.0,0.0,0.0,0.0,0.0,-0.28104708690027236,-0.07688209440629792,-0.0022079880182733483,0.0,0.0,0.0,0.0,0.0,0.0,0.0,0.0,0.0
9.784,282,9,784000000,base_footprint,-0.003860299705275691,-0.00022141441660762114,0.9984197204992225,-0.05606345315886485,0.0,0.0,0.0,0.0,0.0,0.0,0.0,0.0,0.0,0.0002509712989840199,1.022054414957591e-05,-0.01107647972706239,0.0,0.0,0.0,0.0,0.0,0.0,0.0,0.0,0.0,-0.0370198739823673,-0.013002064945735414,-0.0006608798201594429,0.0,0.0,0.0,0.0,0.0,0.0,0.0,0.0,0.0
9.818,283,9,818000000,base_footprint,-0.003864568323334016,-0.00022042939674365156,0.9984307632657984,-0.05586615690228628,0.0,0.0,0.0,0.0,0.0,0.0,0.0,0.0,0.0,7.316438826265952e-05,0.0024075976773255104,-0.008820102604835286,0.0,0.0,0.0,0.0,0.0,0.0,0.0,0.0,0.0,-0.01890284562706272,-0.004545250130703387,0.002703273086896759,0.0,0.0,0.0,0.0,0.0,0.0,0.0,0.0,0.0
9.852,284,9,852000000,base_footprint,-0.0038620033415771365,-0.00022250499987106867,0.9984559912058076,-0.055413617883539074,0.0,0.0,0.0,0.0,0.0,0.0,0.0,0.0,0.0,0.005923470911198999,0.004981117056015715,-0.04839601777404599,0.0,0.0,0.0,0.0,0.0,0.0,0.0,0.0,0.0,-0.2497290054494857,-0.06192457718612658,-0.007292296521898006,0.0,0.0,0.0,0.0,0.0,0.0,0.0,0.0,0.0
9.886,285,9,886000000,base_footprint,-0.003868017360039563,-0.00021844292546836634,0.9984628253921006,-0.05528993610427212,0.0,0.0,0.0,0.0,0.0,0.0,0.0,0.0,0.0,0.00010790816742905005,-0.00012107310089952118,-0.006862220053883069,0.0,0.0,0.0,0.0,0.0,0.0,0.0,0.0,0.0,-0.06311769420379293,-0.019816412896856542,0.0019810182682642435,0.0,0.0,0.0,0.0,0.0,0.0,0.0,0.0,0.0
9.92,286,9,920000000,base_footprint,-0.0038691135405454985,-0.00021613058063519594,0.9984704158485285,-0.055152623901762586,0.0,0.0,0.0,0.0,0.0,0.0,0.0,0.0,0.0,0.0019330236600634374,-0.0006954701511436201,-0.0022481329317625832,0.0,0.0,0.0,0.0,0.0,0.0,0.0,0.0,0.0,-0.03463011129578543,-0.004477626466328365,0.0034333730821756643,0.0,0.0,0.0,0.0,0.0,0.0,0.0,0.0,0.0
9.954,287,9,954000000,base_footprint,-0.003862747559545282,-0.00022274546226313047,0.998464300375391,-0.055263644845697464,0.0,0.0,0.0,0.0,0.0,0.0,0.0,0.0,0.0,0.0014848871059312092,-0.0013515679045914728,-0.010882217311180104,0.0,0.0,0.0,0.0,0.0,0.0,0.0,0.0,0.0,-0.16334452698251864,-0.0359665432646887,-0.0025295724512533375,0.0,0.0,0.0,0.0,0.0,0.0,0.0,0.0,0.0
9.988,288,9,988000000,base_footprint,-0.0038727592310493744,-0.00022566530263603857,0.9984755759794448,-0.0550588320219869,0.0,0.0,0.0,0.0,0.0,0.0,0.0,0.0,0.0,0.0003354851146373132,1.9852242915159483e-06,0.004882679861261636,0.0,0.0,0.0,0.0,0.0,0.0,0.0,0.0,0.0,-0.171307841172432,-0.04570036721887547,-0.0036845735976139436,0.0,0.0,0.0,0.0,0.0,0.0,0.0,0.0,0.0
10.022,289,10,22000000,base_footprint,-0.0038725302607525926,-0.00022163953072021163,0.9984636154671072,-0.055275337842938636,0.0,0.0,0.0,0.0,0.0,0.0,0.0,0.0,0.0,-0.0013947293535549665,-0.00018680699701489553,1.4667001584664968e-05,0.0,0.0,0.0,0.0,0.0,0.0,0.0,0.0,0.0,-0.0963085733209317,-0.01833493849135045,-0.00014676932173291843,0.0,0.0,0.0,0.0,0.0,0.0,0.0,0.0,0.0
10.056,290,10,56000000,base_footprint,-0.0038615297276323886,-0.0002255825332127546,0.9985169926139206,-0.05430334392958736,0.0,0.0,0.0,0.0,0.0,0.0,0.0,0.0,0.0,0.001837641090626056,-0.0032423980132084227,-0.03291117999813056,0.0,0.0,0.0,0.0,0.0,0.0,0.0,0.0,0.0,-0.20966552778196737,-0.04962399693608105,0.0030623485950690317,0.0,0.0,0.0,0.0,0.0,0.0,0.0,0.0,0.0
10.09,291,10,90000000,base_footprint,-0.0038664487867420094,-0.00022220868011180804,0.9985217460211645,-0.054215532091153866,0.0,0.0,0.0,0.0,0.0,0.0,0.0,0.0,0.0,0.00022981053930279697,-0.0003975398970027615,-0.00823810269453926,0.0,0.0,0.0,0.0,0.0,0.0,0.0,0.0,0.0,-0.013315951242806273,-0.004893625181344327,-0.004738029249464712,0.0,0.0,0.0,0.0,0.0,0.0,0.0,0.0,0.0
10.124,292,10,124000000,base_footprint,-0.003855627774789493,-0.00021263456997107515,0.9985353664019835,-0.05396490494255177,0.0,0.0,0.0,0.0,0.0,0.0,0.0,0.0,0.0,8.288831931471262e-06,-0.005999008215573519,-0.07762627426806776,0.0,0.0,0.0,0.0,0.0,0.0,0.0,0.0,0.0,-0.02474220040166302,-0.01253286067248955,0.004005397481698415,0.0,0.0,0.0,0.0,0.0,0.0,0.0,0.0,0.0
10.158,293,10,158000000,base_footprint,-0.0038612042898690645,-0.0002141818051087792,0.9986238347103349,-0.052301835302522096,0.0,0.0,0.0,0.0,0.0,0.0,0.0,0.0,0.0,0.000794266270741535,-0.0002021093363778075,-0.09997501302106045,0.0,0.0,0.0,0.0,0.0,0.0,0.0,0.0,0.0,0.05203262596871044,-0.002963842902401506,-0.00416072405954207,0.0,0.0,0.0,0.0,0.0,0.0,0.0,0.0,0.0
10.192,294,10,192000000,base_footprint,-0.0038592819613054528,-0.0002065495679571029,0.9987113965686388,-0.050602466777207776,0.0,0.0,0.0,0.0,0.0,0.0,0.0,0.0,0.0,0.0009501009679882403,-0.00020180651981901147,-0.10013738259230817,0.0,0.0,0.0,0.0,0.0,0.0,0.0,0.0,0.0,0.006951097484432333,-0.015007551701056908,0.00025357188989626726,0.0,0.0,0.0,0.0,0.0,0.0,0.0,0.0,0.0
10.226,295,10,226000000,base_footprint,-0.0038682725280084792,-0.00019931843313182793,0.9987964986238308,-0.048893262077585195,0.0,0.0,0.0,0.0,0.0,0.0,0.0,0.0,0.0,0.0014485306515702608,-0.003784770094491289,-0.09977555721341806,0.0,0.0,0.0,0.0,0.0,0.0,0.0,0.0,0.0,-0.2295424375650633,-0.05923029098021452,-0.0011853739070017302,0.0,0.0,0.0,0.0,0.0,0.0,0.0,0.0,0.0
10.26,296,10,260000000,base_footprint,-0.003857056009496471,-0.0001919304459919882,0.9988624520934013,-0.04752776114652768,0.0,0.0,0.0,0.0,0.0,0.0,0.0,0.0,0.0,0.000927951225509164,-0.0004551879098323257,-0.08960888024367562,0.0,0.0,0.0,0.0,0.0,0.0,0.0,0.0,0.0,-0.09443705218061535,-0.033246829961990514,-0.0011709021095373368,0.0,0.0,0.0,0.0,0.0,0.0,0.0,0.0,0.0
10.294,297,10,294000000,base_footprint,-0.0038572391267665904,-0.00018519116662096176,0.9989335362084356,-0.046009538670378665,0.0,0.0,0.0,0.0,0.0,0.0,0.0,0.0,0.0,0.0008134384679970858,-9.197582874444742e-05,-0.08950677790252558,0.0,0.0,0.0,0.0,0.0,0.0,0.0,0.0,0.0,0.0068931866461849605,-0.013038711874754012,-0.0004442106904412713,0.0,0.0,0.0,0.0,0.0,0.0,0.0,0.0,0.0
10.328,298,10,328000000,base_footprint,-0.0038620647375862452,-0.0001804122062551322,0.9990006831098972,-0.04452737420236361,0.0,0.0,0.0,0.0,0.0,0.0,0.0,0.0,0.0,0.0021267175552408127,-0.0005122757081631445,-0.07439454741966486,0.0,0.0,0.0,0.0,0.0,0.0,0.0,0.0,0.0,-0.27999204987021076,-0.0618323411542229,-0.003646710208311032,0.0,0.0,0.0,0.0,0.0,0.0,0.0,0.0,0.0
10.362,299,10,362000000,base_footprint,-0.0038599280722562317,-0.00017334533019278326,0.9990544658776922,-0.04330410045841687,0.0,0.0,0.0,0.0,0.0,0.0,0.0,0.0,0.0,0.0006962476679947304,-0.00040787509764322926,-0.08006383139654358,0.0,0.0,0.0,0.0,0.0,0.0,0.0,0.0,0.0,-0.046358799746171776,-0.0201961050417844,0.0013197776202157519,0.0,0.0,0.0,0.0,0.0,0.0,0.0,0.0,0.0
10.396,300,10,396000000,base_footprint,-0.003862251815355968,-0.00016771242813177833,0.9991124563762234,-0.0419446587460838,0.0,0.0,0.0,0.0,0.0,0.0,0.0,0.0,0.0,0.0007207587573956535,1.5227296183128613e-05,-0.08019869425440801,0.0,0.0,0.0,0.0,0.0,0.0,0.0,0.0,0.0,0.005411409047625373,-0.011056097176533037,-0.0004888964237027569,0.0,0.0,0.0,0.0,0.0,0.0,0.0,0.0,0.0
10.43,301,10,430000000,base_footprint,-0.0038649473444782568,-0.00016260140747350593,0.9991676363374348,-0.04060874583966762,0.0,0.0,0.0,0.0,0.0,0.0,0.0,0.0,0.0,0.0007662876991884956,6.06973665231384e-05,-0.07553869125611574,0.0,0.0,0.0,0.0,0.0,0.0,0.0,0.0,0.0,0.0035080568043395727,-0.011235831447533387,-0.0001295961839370656,0.0,0.0,0.0,0.0,0.0,0.0,0.0,0.0,0.0
10.464,302,10,464000000,base_footprint,-0.0038676143458777654,-0.00015802480827796584,0.9992192562957217,-0.03931786407291734,0.0,0.0,0.0,0.0,0.0,0.0,0.0,0.0,0.0,0.0006818737257102618,6.62766463486639e-05,-0.07639601292208237,0.0,0.0,0.0,0.0,0.0,0.0,0.0,0.0,0.0,0.0041507496559395896,-0.009940833097532764,-6.91517964857229e-05,0.0,0.0,0.0,0.0,0.0,0.0,0.0,0.0,0.0
10.498,303,10,498000000,base_footprint,-0.0038702237152475217,-0.00015294012923655728,0.9992697276829964,-0.03801327812832439,0.0,0.0,0.0,0.0,0.0,0.0,0.0,0.0,0.0,0.0006396417979159169,2.987325774126575e-05,-0.07723177305952043,0.0,0.0,0.0,0.0,0.0,0.0,0.0,0.0,0.0,0.0021958754780202487,-0.01092743740414565,-6.895143741465124e-05,0.0,0.0,0.0,0.0,0.0,0.0,0.0,0.0,0.0
10.532,304,10,532000000,base_footprint,-0.0038528767340717932,-0.00015154020386563203,0.9993131719054066,-0.036855350124427214,0.0,0.0,0.0,0.0,0.0,0.0,0.0,0.0,0.0,-0.002123357784674194,-0.0012804248542900598,-0.03746786895522109,0.0,0.0,0.0,0.0,0.0,0.0,0.0,0.0,0.0,-0.2027175129946208,-0.040387339777187364,-0.0013958710463902386,0.0,0.0,0.0,0.0,0.0,0.0,0.0,0.0,0.0
10.566,305,10,566000000,base_footprint,-0.003874844701254501,-0.0001429745576719883,0.9993424554495798,-0.03605026869278196,0.0,0.0,0.0,0.0,0.0,0.0,0.0,0.0,0.0,0.0010660201879392644,0.0011058055680933185,-0.07212769901970614,0.0,0.0,0.0,0.0,0.0,0.0,0.0,0.0,0.0,-0.13435919279880015,-0.02768116812792107,-0.0028572844241211677,0.0,0.0,0.0,0.0,0.0,0.0,0.0,0.0,0.0
10.6,306,10,600000000,base_footprint,-0.003871006479197231,-0.00014217690936676355,0.9993873980068395,-0.034782521468167606,0.0,0.0,0.0,0.0,0.0,0.0,0.0,0.0,0.0,0.0003524458620087885,-0.00036362439448547705,-0.07296472585447278,0.0,0.0,0.0,0.0,0.0,0.0,0.0,0.0,0.0,-0.010295106328667614,-0.008485545995734934,0.002114459784885552,0.0,0.0,0.0,0.0,0.0,0.0,0.0,0.0,0.0
10.634,307,10,634000000,base_footprint,-0.0038610652172638648,-0.0001359141984025626,0.9994232002420589,-0.03373930231407211,0.0,0.0,0.0,0.0,0.0,0.0,0.0,0.0,0.0,-0.0012976736870245365,0.0009539863650514524,-0.03357090373266117,0.0,0.0,0.0,0.0,0.0,0.0,0.0,0.0,0.0,-0.09607636142372218,-0.024693873397128106,-0.004292311339570396,0.0,0.0,0.0,0.0,0.0,0.0,0.0,0.0,0.0
10.668,308,10,668000000,base_footprint,-0.0038704849223841794,-0.00014514411666616817,0.9994334152394326,-0.03343421574517602,0.0,0.0,0.0,0.0,0.0,0.0,0.0,0.0,0.0,0.0002936919135595525,-0.00041954933388101606,-0.015839115932694988,0.0,0.0,0.0,0.0,0.0,0.0,0.0,0.0,0.0,-0.16443925469476714,-0.021634260054572495,0.0026902393699371465,0.0,0.0,0.0,0.0,0.0,0.0,0.0,0.0,0.0
10.702,309,10,702000000,base_footprint,-0.0038634672536304536,-0.00013560007481987405,0.9994564352952999,-0.032739718694758835,0.0,0.0,0.0,0.0,0.0,0.0,0.0,0.0,0.0,0.0009940870902136565,-0.0001257513642933558,-0.06547872113106366,0.0,0.0,0.0,0.0,0.0,0.0,0.0,0.0,0.0,-0.1410228619890641,-0.015413184387034179,-0.0017235603803960374,0.0,0.0,0.0,0.0,0.0,0.0,0.0,0.0,0.0
10.736,310,10,736000000,base_footprint,-0.003864397152280451,-0.0001318406006064207,0.999472085504468,-0.03225832218289008,0.0,0.0,0.0,0.0,0.0,0.0,0.0,0.0,0.0,0.0011011874357354735,0.001649051111735658,0.027651704722760358,0.0,0.0,0.0,0.0,0.0,0.0,0.0,0.0,0.0,-0.010852730260955007,-0.011886958920678318,-0.0032676394693933013,0.0,0.0,0.0,0.0,0.0,0.0,0.0,0.0,0.0
10.77,311,10,770000000,base_footprint,-0.003870607394942337,-0.00013394000126997822,0.9994506227891409,-0.03291584823255716,0.0,0.0,0.0,0.0,0.0,0.0,0.0,0.0,0.0,-0.0005890340824916897,-1.6781875191425595e-05,0.033784125612074827,0.0,0.0,0.0,0.0,0.0,0.0,0.0,0.0,0.0,0.004655213446066328,0.004042890524795053,0.0025004960562214303,0.0,0.0,0.0,0.0,0.0,0.0,0.0,0.0,0.0
10.804,312,10,804000000,base_footprint,-0.003871041808229495,-0.00013762235472921945,0.9994358336616389,-0.03336181182836533,0.0,0.0,0.0,0.0,0.0,0.0,0.0,0.0,0.0,-3.029041146709096e-05,-0.0002820256681996463,0.02695161624581499,0.0,0.0,0.0,0.0,0.0,0.0,0.0,0.0,0.0,0.018856846555648295,0.008086952870724976,0.0010013819073632856,0.0,0.0,0.0,0.0,0.0,0.0,0.0,0.0,0.0
10.838000000000001,313,10,838000000,base_footprint,-0.00386970992056733,-0.00013984010450567393,0.9994181683725313,-0.03388702578820864,0.0,0.0,0.0,0.0,0.0,0.0,0.0,0.0,0.0,-0.00032741768023780785,-0.00014421872631800275,0.033864264042297115,0.0,0.0,0.0,0.0,0.0,0.0,0.0,0.0,0.0,-0.0012146836190742893,0.0012484381120306182,-0.00023684365927396922,0.0,0.0,0.0,0.0,0.0,0.0,0.0,0.0,0.0
10.872,314,10,872000000,base_footprint,-0.00386719254728895,-0.00014237723047543015,0.9993984529608122,-0.03446384729048558,0.0,0.0,0.0,0.0,0.0,0.0,0.0,0.0,0.0,-0.0003065291835924579,-0.0002912581517225483,0.034120812391022395,0.0,0.0,0.0,0.0,0.0,0.0,0.0,0.0,0.0,0.0015313051430608975,0.004401552664082101,0.00031611192250999726,0.0,0.0,0.0,0.0,0.0,0.0,0.0,0.0,0.0
10.906,315,10,906000000,base_footprint,-0.0038648932220463764,-0.00014492651035198049,0.9993782244673984,-0.03504577088721171,0.0,0.0,0.0,0.0,0.0,0.0,0.0,0.0,0.0,-0.0003144428696115381,-0.00025726702744681217,0.03434806591576485,0.0,0.0,0.0,0.0,0.0,0.0,0.0,0.0,0.0,0.0013137371095323519,0.004247335217833988,-4.539698489157375e-05,0.0,0.0,0.0,0.0,0.0,0.0,0.0,0.0,0.0
10.94,316,10,940000000,base_footprint,-0.0038632242315723465,-0.00014719806634089612,0.9993600111940184,-0.035561522149051394,0.0,0.0,0.0,0.0,0.0,0.0,0.0,0.0,0.0,-0.00026488807094929534,-0.00021252968654853025,0.028300278169990086,0.0,0.0,0.0,0.0,0.0,0.0,0.0,0.0,0.0,0.003263259053729654,0.0042057364844428945,-3.975578140279197e-05,0.0,0.0,0.0,0.0,0.0,0.0,0.0,0.0,0.0
10.974,317,10,974000000,base_footprint,-0.003861907624016998,-0.00014916024125268026,0.9993427965571237,-0.03604217515790931,0.0,0.0,0.0,0.0,0.0,0.0,0.0,0.0,0.0,-8.937113184962236e-05,-0.00032023004521324744,0.028336174916096482,0.0,0.0,0.0,0.0,0.0,0.0,0.0,0.0,0.0,0.002054185717593468,0.0034458784287791696,0.00039385129400204306,0.0,0.0,0.0,0.0,0.0,0.0,0.0,0.0,0.0
11.008,318,11,8000000,base_footprint,-0.0038600677040243002,-0.00015019643698841974,0.999325403874925,-0.03652142506213092,0.0,0.0,0.0,0.0,0.0,0.0,0.0,0.0,0.0,-0.00010467217903685735,-0.0002623862580311238,0.028122352084451158,0.0,0.0,0.0,0.0,0.0,0.0,0.0,0.0,0.0,0.002508793540848905,0.0036933223836347856,-7.01543083729569e-05,0.0,0.0,0.0,0.0,0.0,0.0,0.0,0.0,0.0
11.042,319,11,42000000,base_footprint,-0.00385877058749752,-0.00015183429766789394,0.9993030348682219,-0.037128578468081624,0.0,0.0,0.0,0.0,0.0,0.0,0.0,0.0,0.0,-0.00019363687860371492,-0.0002434304907238949,0.03881258272621893,0.0,0.0,0.0,0.0,0.0,0.0,0.0,0.0,0.0,-0.00044916339131528,0.004063885402188169,-5.163891157756861e-05,0.0,0.0,0.0,0.0,0.0,0.0,0.0,0.0,0.0
11.076,320,11,76000000,base_footprint,-0.0038580726001761676,-0.0001537865672519603,0.9992784044951459,-0.03778573719194914,0.0,0.0,0.0,0.0,0.0,0.0,0.0,0.0,0.0,-0.0001933794121364711,-0.00022296033990989328,0.038597981860529915,0.0,0.0,0.0,0.0,0.0,0.0,0.0,0.0,0.0,0.002416171549623901,0.004846276552279675,-1.3948235825118508e-05,0.0,0.0,0.0,0.0,0.0,0.0,0.0,0.0,0.0
11.11,321,11,110000000,base_footprint,-0.003857804384955573,-0.00015579657616429855,0.9992534757007093,-0.03843935968257485,0.0,0.0,0.0,0.0,0.0,0.0,0.0,0.0,0.0,-0.00019366143212254847,-0.0002023978365108667,0.03839058735250212,0.0,0.0,0.0,0.0,0.0,0.0,0.0,0.0,0.0,0.002382431370203047,0.0048530970230303986,-2.086616378197816e-05,0.0,0.0,0.0,0.0,0.0,0.0,0.0,0.0,0.0
11.144,322,11,144000000,base_footprint,-0.003858112507606237,-0.00015672961925731856,0.999239657577137,-0.038796870090655015,0.0,0.0,0.0,0.0,0.0,0.0,0.0,0.0,0.0,-1.3205801160390687e-05,-0.0001994477460235983,0.015784790161801093,0.0,0.0,0.0,0.0,0.0,0.0,0.0,0.0,0.0,0.008525940179793832,0.003890218377632775,6.461141226123258e-05,0.0,0.0,0.0,0.0,0.0,0.0,0.0,0.0,0.0
11.178,323,11,178000000,base_footprint,-0.0038587683590144044,-0.00015734774233638177,0.9992292918361916,-0.039062865806064724,0.0,0.0,0.0,0.0,0.0,0.0,0.0,0.0,0.0,-2.090441386788361e-05,-0.0001440454127421288,0.015559419900517686,0.0,0.0,0.0,0.0,0.0,0.0,0.0,0.0,0.0,0.0027263830416158316,0.002320735976141414,-7.229237848741721e-05,0.0,0.0,0.0,0.0,0.0,0.0,0.0,0.0,0.0
11.212,324,11,212000000,base_footprint,-0.0038599381143463287,-0.0001579866686229802,0.9992190143785659,-0.039324766017021826,0.0,0.0,0.0,0.0,0.0,0.0,0.0,0.0,0.0,-1.974441859885626e-05,-0.00011653052909649405,0.015311645857612282,0.0,0.0,0.0,0.0,0.0,0.0,0.0,0.0,0.0,0.0027205231193328364,0.0021905234245916095,-4.04717534105101e-05,0.0,0.0,0.0,0.0,0.0,0.0,0.0,0.0,0.0
