Time,header.seq,header.stamp.secs,header.stamp.nsecs,header.frame_id,orientation.x,orientation.y,orientation.z,orientation.w,orientation_covariance_0,orientation_covariance_1,orientation_covariance_2,orientation_covariance_3,orientation_covariance_4,orientation_covariance_5,orientation_covariance_6,orientation_covariance_7,orientation_covariance_8,angular_velocity.x,angular_velocity.y,angular_velocity.z,angular_velocity_covariance_0,angular_velocity_covariance_1,angular_velocity_covariance_2,angular_velocity_covariance_3,angular_velocity_covariance_4,angular_velocity_covariance_5,angular_velocity_covariance_6,angular_velocity_covariance_7,angular_velocity_covariance_8,linear_acceleration.x,linear_acceleration.y,linear_acceleration.z,linear_acceleration_covariance_0,linear_acceleration_covariance_1,linear_acceleration_covariance_2,linear_acceleration_covariance_3,linear_acceleration_covariance_4,linear_acceleration_covariance_5,linear_acceleration_covariance_6,linear_acceleration_covariance_7,linear_acceleration_covariance_8
0.12000000000000001,0,0,120000000,base_footprint,0.0013143384656014807,-6.267174880511466e-06,0.9999991351692779,4.6214898487392426e-05,0.0,0.0,0.0,0.0,0.0,0.0,0.0,0.0,0.0,-1.6980355118362776e-05,-0.1569133548914,5.901202903403473e-06,0.0,0.0,0.0,0.0,0.0,0.0,0.0,0.0,0.0,0.00021882259904275998,-2.0359837566418727e-06,-0.13918362111694219,0.0,0.0,0.0,0.0,0.0,0.0,0.0,0.0,0.0
0.154,1,0,154000000,base_footprint,0.0009554417895071302,-1.7732122100784638e-05,0.9999995423200252,4.665081889743661e-05,0.0,0.0,0.0,0.0,0.0,0.0,0.0,0.0,0.0,-0.00028337632992349624,0.04758799142272875,2.6468244875220054e-06,0.0,0.0,0.0,0.0,0.0,0.0,0.0,0.0,0.0,-0.0003408917599287305,2.3265465853180575e-06,0.005131748679945541,0.0,0.0,0.0,0.0,0.0,0.0,0.0,0.0,0.0
0.188,2,0,188000000,base_footprint,0.0001442680945152505,-2.2781257577155877e-05,0.9999999882474448,4.661374986343369e-05,0.0,0.0,0.0,0.0,0.0,0.0,0.0,0.0,0.0,-0.0002837837375476409,0.04756041008294899,3.2315359380251014e-06,0.0,0.0,0.0,0.0,0.0,0.0,0.0,0.0,0.0,-0.00021497684774632783,2.99874722134231e-07,7.846402313990012e-05,0.0,0.0,0.0,0.0,0.0,0.0,0.0,0.0,0.0
0.222,3,0,222000000,base_footprint,-0.0009389499799981795,-3.0715217152883674e-05,0.9999995576302639,4.657023893846026e-05,0.0,0.0,0.0,0.0,0.0,0.0,0.0,0.0,0.0,-0.0004203212577189502,0.06777050692349584,6.819772988770117e-06,0.0,0.0,0.0,0.0,0.0,0.0,0.0,0.0,0.0,-0.00036733097277300675,3.4448620411662384e-08,0.0028139967223474852,0.0,0.0,0.0,0.0,0.0,0.0,0.0,0.0,0.0
0.256,4,0,256000000,base_footprint,-0.002092468497588257,-3.817498468482086e-05,0.9999978089770054,4.646983662155763e-05,0.0,0.0,0.0,0.0,0.0,0.0,0.0,0.0,0.0,-0.0004207755261393115,0.06769334313062904,8.03064481510863e-06,0.0,0.0,0.0,0.0,0.0,0.0,0.0,0.0,0.0,-0.0002958506533429004,3.9706970421795823e-07,0.0001509395746004906,0.0,0.0,0.0,0.0,0.0,0.0,0.0,0.0,0.0
0.29000000000000004,5,0,290000000,base_footprint,-0.0032446826301795045,-4.5641898063222704e-05,0.999994733887676,4.635043474905583e-05,0.0,0.0,0.0,0.0,0.0,0.0,0.0,0.0,0.0,-0.0004212576839605158,0.06761697244587432,9.061244986367185e-06,0.0,0.0,0.0,0.0,0.0,0.0,0.0,0.0,0.0,-0.000294711323579689,4.589119685188194e-08,0.0001497907256323983,0.0,0.0,0.0,0.0,0.0,0.0,0.0,0.0,0.0
0.324,6,0,324000000,base_footprint,-0.003936843275214827,-6.8278122561128905e-06,0.9999922494422285,4.7685211079760545e-05,0.0,0.0,0.0,0.0,0.0,0.0,0.0,0.0,0.0,-4.566823077494664e-05,-0.024601802989128712,-0.0001274772500912432,0.0,0.0,0.0,0.0,0.0,0.0,0.0,0.0,0.0,0.000936220786891887,0.00015259720156454758,0.13220735442215284,0.0,0.0,0.0,0.0,0.0,0.0,0.0,0.0,0.0
0.35900000000000004,7,0,358000000,base_footprint,-0.003852785283229284,-6.878840237996296e-06,0.9999925768028257,4.8347573084518076e-05,0.0,0.0,0.0,0.0,0.0,0.0,0.0,0.0,0.0,8.267225892068879e-05,-0.000947393252781674,9.497934361464165e-06,0.0,0.0,0.0,0.0,0.0,0.0,0.0,0.0,0.0,-0.0010244578957106499,-0.00013511091398164408,0.0005630172074973087,0.0,0.0,0.0,0.0,0.0,0.0,0.0,0.0,0.0
0.392,8,0,392000000,base_footprint,-0.0038531032113110213,-6.875268870228815e-06,0.9999925755838447,4.822408793604715e-05,0.0,0.0,0.0,0.0,0.0,0.0,0.0,0.0,0.0,3.850280044278241e-05,-0.0001628401448581696,9.087462230120563e-06,0.0,0.0,0.0,0.0,0.0,0.0,0.0,0.0,0.0,-1.631523876731155e-05,-1.4120513855794736e-06,-0.0008733597945344655,0.0,0.0,0.0,0.0,0.0,0.0,0.0,0.0,0.0
0.42600000000000005,9,0,426000000,base_footprint,-0.0038531018079711933,-6.875956101648118e-06,0.9999925755963621,4.8076322566680484e-05,0.0,0.0,0.0,0.0,0.0,0.0,0.0,0.0,0.0,3.871533685997682e-05,-0.0001807850359416175,9.762092612639765e-06,0.0,0.0,0.0,0.0,0.0,0.0,0.0,0.0,0.0,1.809658338789782e-07,1.315632557691578e-06,1.9514691703173132e-05,0.0,0.0,0.0,0.0,0.0,0.0,0.0,0.0,0.0
0.46,10,0,460000000,base_footprint,-0.0038531016370920127,-6.876598599275118e-06,0.9999925756043501,4.792353382888699e-05,0.0,0.0,0.0,0.0,0.0,0.0,0.0,0.0,0.0,3.871122221711987e-05,-0.00018040491969233485,9.859188774456866e-06,0.0,0.0,0.0,0.0,0.0,0.0,0.0,0.0,0.0,-3.633651353095868e-08,1.888075577859935e-07,-4.2472268148805646e-07,0.0,0.0,0.0,0.0,0.0,0.0,0.0,0.0,0.0
0.49400000000000005,11,0,494000000,base_footprint,-0.003853101627857904,-6.87723253474501e-06,0.9999925756117262,4.7770025482364684e-05,0.0,0.0,0.0,0.0,0.0,0.0,0.0,0.0,0.0,3.871155771984309e-05,-0.00018041050900687852,9.87315584602501e-06,0.0,0.0,0.0,0.0,0.0,0.0,0.0,0.0,0.0,-3.96638695618146e-09,2.7169805790397646e-08,4.964167748010605e-09,0.0,0.0,0.0,0.0,0.0,0.0,0.0,0.0,0.0
0.528,12,0,528000000,base_footprint,-0.0038531016253237206,-6.87786278403665e-06,0.999992575619058,4.7616411692306825e-05,0.0,0.0,0.0,0.0,0.0,0.0,0.0,0.0,0.0,3.8711811665699207e-05,-0.00018041015314971897,9.875075665826072e-06,0.0,0.0,0.0,0.0,0.0,0.0,0.0,0.0,0.0,-5.740592540649275e-10,3.7340369970227635e-09,-5.20604007701272e-10,0.0,0.0,0.0,0.0,0.0,0.0,0.0,0.0,0.0
0.562,13,0,562000000,base_footprint,-0.0038531016244440974,-6.878490439300146e-06,0.9999925756263607,4.7462782124459694e-05,0.0,0.0,0.0,0.0,0.0,0.0,0.0,0.0,0.0,3.871205515063708e-05,-0.00018041010119536238,9.875251814902946e-06,0.0,0.0,0.0,0.0,0.0,0.0,0.0,0.0,0.0,-5.865270505152856e-11,3.420534913466363e-10,-3.4992687448993016e-11,0.0,0.0,0.0,0.0,0.0,0.0,0.0,0.0,0.0
0.5960000000000001,14,0,596000000,base_footprint,-0.0038531016237758915,-6.879115800192219e-06,0.9999925756336389,4.730914987530147e-05,0.0,0.0,0.0,0.0,0.0,0.0,0.0,0.0,0.0,3.871229081129911e-05,-0.00018041007300015008,9.875189761031286e-06,0.0,0.0,0.0,0.0,0.0,0.0,0.0,0.0,0.0,1.1367439517237267e-11,-1.2144743034658755e-10,1.1396991622869409e-11,0.0,0.0,0.0,0.0,0.0,0.0,0.0,0.0,0.0
0.63,15,0,630000000,base_footprint,-0.0038531016231300196,-6.8797390316605385e-06,0.9999925756408937,4.7155516866463744e-05,0.0,0.0,0.0,0.0,0.0,0.0,0.0,0.0,0.0,3.8712519661295614e-05,-0.0001804100481212602,9.875107445689469e-06,0.0,0.0,0.0,0.0,0.0,0.0,0.0,0.0,0.0,1.733053283559492e-11,-1.609914516412662e-10,1.649490810213192e-11,0.0,0.0,0.0,0.0,0.0,0.0,0.0,0.0,0.0
0.665,16,0,664000000,base_footprint,-0.0038531016224789545,-6.880360272161518e-06,0.9999925756481247,4.700188338203065e-05,0.0,0.0,0.0,0.0,0.0,0.0,0.0,0.0,0.0,3.8712742090639486e-05,-0.00018041002332995417,9.875036658672528e-06,0.0,0.0,0.0,0.0,0.0,0.0,0.0,0.0,0.0,1.3947458655781085e-11,-1.3868975739594023e-10,1.53444117432752e-11,0.0,0.0,0.0,0.0,0.0,0.0,0.0,0.0,0.0
0.6980000000000001,17,0,698000000,base_footprint,-0.003853101621818812,-6.880979648386592e-06,0.9999925756553323,4.684824946414197e-05,0.0,0.0,0.0,0.0,0.0,0.0,0.0,0.0,0.0,3.871295856504348e-05,-0.00018040999810470487,9.874981251310202e-06,0.0,0.0,0.0,0.0,0.0,0.0,0.0,0.0,0.0,9.428073276988778e-12,-1.0888838700315747e-10,1.3483908205694624e-11,0.0,0.0,0.0,0.0,0.0,0.0,0.0,0.0,0.0
0.7320000000000001,18,0,732000000,base_footprint,-0.00385310162114975,-6.88159727870321e-06,0.9999925756625164,4.66946151203081e-05,0.0,0.0,0.0,0.0,0.0,0.0,0.0,0.0,0.0,3.8713169473633464e-05,-0.0001804099725300439,9.874940675923078e-06,0.0,0.0,0.0,0.0,0.0,0.0,0.0,0.0,0.0,5.073103203490705e-12,-8.014558153548717e-11,1.149503246905339e-11,0.0,0.0,0.0,0.0,0.0,0.0,0.0,0.0,0.0
0.766,19,0,766000000,base_footprint,-0.0038531016204726163,-6.882213273703895e-06,0.9999925756696769,4.6540980360277216e-05,0.0,0.0,0.0,0.0,0.0,0.0,0.0,0.0,0.0,3.8713375189271294e-05,-0.00018040994645528353,9.87491368852855e-06,0.0,0.0,0.0,0.0,0.0,0.0,0.0,0.0,0.0,1.0787805604383635e-12,-5.381380096846455e-11,9.60741290388522e-12,0.0,0.0,0.0,0.0,0.0,0.0,0.0,0.0,0.0
0.8,20,0,800000000,base_footprint,-0.0038531016197875453,-6.882827738562633e-06,0.9999925756768141,4.6387345186186805e-05,0.0,0.0,0.0,0.0,0.0,0.0,0.0,0.0,0.0,3.8713575827302995e-05,-0.0001804099200696897,9.874899745196849e-06,0.0,0.0,0.0,0.0,0.0,0.0,0.0,0.0,0.0,-2.751804486453801e-12,-2.8538812703901183e-11,7.90587238557397e-12,0.0,0.0,0.0,0.0,0.0,0.0,0.0,0.0,0.0
0.8340000000000001,21,0,834000000,base_footprint,-0.0038531016190949787,-6.883440778154074e-06,0.9999925756839274,4.62337096086907e-05,0.0,0.0,0.0,0.0,0.0,0.0,0.0,0.0,0.0,3.871377345758381e-05,-0.00018040989335300675,9.874899103749481e-06,0.0,0.0,0.0,0.0,0.0,0.0,0.0,0.0,0.0,-6.656685009566083e-12,-2.7300211631271576e-12,6.6505263664785245e-12,0.0,0.0,0.0,0.0,0.0,0.0,0.0,0.0,0.0
0.8690000000000001,22,0,868000000,base_footprint,-0.0038531016183954384,-6.884052474840068e-06,0.9999925756910174,4.608007362307235e-05,0.0,0.0,0.0,0.0,0.0,0.0,0.0,0.0,0.0,3.871396697598993e-05,-0.00018040986625281693,9.874909852293192e-06,0.0,0.0,0.0,0.0,0.0,0.0,0.0,0.0,0.0,-1.0004478386098818e-11,1.934483204439056e-11,5.1862690128236826e-12,0.0,0.0,0.0,0.0,0.0,0.0,0.0,0.0,0.0
0.891,23,0,902000000,base_footprint,-0.003853101617689624,-6.884662913204665e-06,0.9999925756980836,4.5926437235686534e-05,0.0,0.0,0.0,0.0,0.0,0.0,0.0,0.0,0.0,3.8714156424945834e-05,-0.00018040983885828416,9.874931373275227e-06,0.0,0.0,0.0,0.0,0.0,0.0,0.0,0.0,0.0,-1.3168175716967192e-11,4.0220497727809693e-11,3.659920310746678e-12,0.0,0.0,0.0,0.0,0.0,0.0,0.0,0.0,0.0
0.937,24,0,936000000,base_footprint,-0.003853101616977305,-6.885272173195812e-06,0.9999925757051266,4.57728004460592e-05,0.0,0.0,0.0,0.0,0.0,0.0,0.0,0.0,0.0,3.871434202571209e-05,-0.0001804098112312068,9.874963506019317e-06,0.0,0.0,0.0,0.0,0.0,0.0,0.0,0.0,0.0,-1.62837931534086e-11,6.078759031108043e-11,2.3995707266196266e-12,0.0,0.0,0.0,0.0,0.0,0.0,0.0,0.0,0.0
0.9720000000000001,25,0,970000000,base_footprint,-0.0038531016162593906,-6.885880329715583e-06,0.9999925757121458,4.561916325260613e-05,0.0,0.0,0.0,0.0,0.0,0.0,0.0,0.0,0.0,3.871452409470527e-05,-0.0001804097831019944,9.875004159297225e-06,0.0,0.0,0.0,0.0,0.0,0.0,0.0,0.0,0.0,-1.8792676409216764e-11,7.72959770737168e-11,9.305939221806674e-13,0.0,0.0,0.0,0.0,0.0,0.0,0.0,0.0,0.0
0.9980000000000001,26,1,4000000,base_footprint,-0.003853101615536528,-6.886487452704722e-06,0.9999925757191414,4.546552566384955e-05,0.0,0.0,0.0,0.0,0.0,0.0,0.0,0.0,0.0,3.871470298750416e-05,-0.00018040975484942816,9.875053512114547e-06,0.0,0.0,0.0,0.0,0.0,0.0,0.0,0.0,0.0,-2.1345240361784047e-11,9.415624283213103e-11,-1.0474590843735675e-13,0.0,0.0,0.0,0.0,0.0,0.0,0.0,0.0,0.0
1.038,27,1,38000000,base_footprint,-0.0038531016148084527,-6.887093607574266e-06,0.9999925757261136,4.531188767848249e-05,0.0,0.0,0.0,0.0,0.0,0.0,0.0,0.0,0.0,3.871487866179129e-05,-0.0001804097264435538,9.8751121047321e-06,0.0,0.0,0.0,0.0,0.0,0.0,0.0,0.0,0.0,-2.4059419509673816e-11,1.1206597393900204e-10,-8.819506368108399e-13,0.0,0.0,0.0,0.0,0.0,0.0,0.0,0.0,0.0
1.076,28,1,72000000,base_footprint,-0.0038531016140753815,-6.887698855925778e-06,0.9999925757330621,4.5158249297406236e-05,0.0,0.0,0.0,0.0,0.0,0.0,0.0,0.0,0.0,3.871505144841111e-05,-0.00018040969781326174,9.875178613389639e-06,0.0,0.0,0.0,0.0,0.0,0.0,0.0,0.0,0.0,-2.6383533273729582e-11,1.2740724113053865e-10,-2.083805413355882e-12,0.0,0.0,0.0,0.0,0.0,0.0,0.0,0.0,0.0
1.106,29,1,106000000,base_footprint,-0.0038531016133384983,-6.8883032555049776e-06,0.999992575739987,4.500461053086259e-05,0.0,0.0,0.0,0.0,0.0,0.0,0.0,0.0,0.0,3.87152215994427e-05,-0.00018040966880520162,9.875250543789565e-06,0.0,0.0,0.0,0.0,0.0,0.0,0.0,0.0,0.0,-2.7979975641073636e-11,1.3790642858564147e-10,-3.34466007542913e-12,0.0,0.0,0.0,0.0,0.0,0.0,0.0,0.0,0.0
1.139,30,1,140000000,base_footprint,-0.003853101612597116,-6.888906859956377e-06,0.9999925757468885,4.485097136690258e-05,0.0,0.0,0.0,0.0,0.0,0.0,0.0,0.0,0.0,3.871538919610171e-05,-0.0001804096396916823,9.87533129137701e-06,0.0,0.0,0.0,0.0,0.0,0.0,0.0,0.0,0.0,-3.056942224670987e-11,1.5500381243951602e-10,-3.899367496828377e-12,0.0,0.0,0.0,0.0,0.0,0.0,0.0,0.0,0.0
1.174,31,1,174000000,base_footprint,-0.0038531016118519934,-6.8895097199289445e-06,0.9999925757537662,4.4697331815018864e-05,0.0,0.0,0.0,0.0,0.0,0.0,0.0,0.0,0.0,3.8715554318051886e-05,-0.00018040961040395812,9.875416812019542e-06,0.0,0.0,0.0,0.0,0.0,0.0,0.0,0.0,0.0,-3.1971833489503675e-11,1.6424408061077075e-10,-4.861471530014404e-12,0.0,0.0,0.0,0.0,0.0,0.0,0.0,0.0,0.0
1.208,32,1,208000000,base_footprint,-0.0038531016111036697,-6.890111882331984e-06,0.9999925757606206,4.454369189244035e-05,0.0,0.0,0.0,0.0,0.0,0.0,0.0,0.0,0.0,3.871571726409185e-05,-0.00018040958080168415,9.875507201662463e-06,0.0,0.0,0.0,0.0,0.0,0.0,0.0,0.0,0.0,-3.340594901749229e-11,1.7367485022048952e-10,-5.8168656282395236e-12,0.0,0.0,0.0,0.0,0.0,0.0,0.0,0.0,0.0
1.24,33,1,242000000,base_footprint,-0.0038531016103514927,-6.890713391655923e-06,0.9999925757674513,4.439005160134508e-05,0.0,0.0,0.0,0.0,0.0,0.0,0.0,0.0,0.0,3.8715878035449006e-05,-0.00018040955137428708,9.875605149744679e-06,0.0,0.0,0.0,0.0,0.0,0.0,0.0,0.0,0.0,-3.561803048986467e-11,1.883321919636046e-10,-6.167446479286754e-12,0.0,0.0,0.0,0.0,0.0,0.0,0.0,0.0,0.0
1.276,34,1,276000000,base_footprint,-0.0038531016095963554,-6.891314288975741e-06,0.9999925757742585,4.423641092659535e-05,0.0,0.0,0.0,0.0,0.0,0.0,0.0,0.0,0.0,3.871603690098138e-05,-0.00018040952155816734,9.87570781555868e-06,0.0,0.0,0.0,0.0,0.0,0.0,0.0,0.0,0.0,-3.7010745027693865e-11,1.9747303888139992e-10,-7.0000835710774036e-12,0.0,0.0,0.0,0.0,0.0,0.0,0.0,0.0,0.0
1.31,35,1,310000000,base_footprint,-0.0038531016088378415,-6.891914614442075e-06,0.999992575781042,4.408276987007039e-05,0.0,0.0,0.0,0.0,0.0,0.0,0.0,0.0,0.0,3.8716194005942726e-05,-0.00018040949138283527,9.875815227726042e-06,0.0,0.0,0.0,0.0,0.0,0.0,0.0,0.0,0.0,-3.840827382488234e-11,2.0667181488096384e-10,-8.040599287896502e-12,0.0,0.0,0.0,0.0,0.0,0.0,0.0,0.0,0.0
1.344,36,1,344000000,base_footprint,-0.0038531016080767273,-6.892514403223684e-06,0.999992575787802,4.392912843249295e-05,0.0,0.0,0.0,0.0,0.0,0.0,0.0,0.0,0.0,3.871634929147144e-05,-0.00018040946148787434,9.87592767632572e-06,0.0,0.0,0.0,0.0,0.0,0.0,0.0,0.0,0.0,-3.988099498246684e-11,2.1643309699661072e-10,-7.964351852381316e-12,0.0,0.0,0.0,0.0,0.0,0.0,0.0,0.0,0.0
1.377,37,1,378000000,base_footprint,-0.0038531016073129767,-6.893113689728158e-06,0.9999925757945384,4.377548661940793e-05,0.0,0.0,0.0,0.0,0.0,0.0,0.0,0.0,0.0,3.8716503036852685e-05,-0.00018040943129405275,9.87604449446366e-06,0.0,0.0,0.0,0.0,0.0,0.0,0.0,0.0,0.0,-4.1166306195526994e-11,2.2490127407589387e-10,-9.044385297763908e-12,0.0,0.0,0.0,0.0,0.0,0.0,0.0,0.0,0.0
1.412,38,1,412000000,base_footprint,-0.003853101606546811,-6.893712505956846e-06,0.9999925758012513,4.362184443122215e-05,0.0,0.0,0.0,0.0,0.0,0.0,0.0,0.0,0.0,3.871665524659471e-05,-0.00018040940103669815,9.876164881390584e-06,0.0,0.0,0.0,0.0,0.0,0.0,0.0,0.0,0.0,-4.221617649492863e-11,2.3181588112359526e-10,-9.242152358145815e-12,0.0,0.0,0.0,0.0,0.0,0.0,0.0,0.0,0.0
1.446,39,1,446000000,base_footprint,-0.003853101605778012,-6.8943108819400645e-06,0.9999925758079404,4.346820186381389e-05,0.0,0.0,0.0,0.0,0.0,0.0,0.0,0.0,0.0,3.871680602205782e-05,-0.00018040937056236907,9.876288469226086e-06,0.0,0.0,0.0,0.0,0.0,0.0,0.0,0.0,0.0,-4.3157928299822026e-11,2.380159060901221e-10,-1.0031004252190694e-11,0.0,0.0,0.0,0.0,0.0,0.0,0.0,0.0,0.0
1.48,40,1,480000000,base_footprint,-0.0038531016050072915,-6.8949088452647355e-06,0.9999925758146062,4.3314558922932526e-05,0.0,0.0,0.0,0.0,0.0,0.0,0.0,0.0,0.0,3.871695545597918e-05,-0.00018040934001861063,9.876416799711847e-06,0.0,0.0,0.0,0.0,0.0,0.0,0.0,0.0,0.0,-4.4550745299660666e-11,2.472122572697834e-10,-1.0413010814343742e-11,0.0,0.0,0.0,0.0,0.0,0.0,0.0,0.0,0.0
1.517,41,1,514000000,base_footprint,-0.0038531016042344136,-6.895506422400773e-06,0.9999925758212482,4.316091560802328e-05,0.0,0.0,0.0,0.0,0.0,0.0,0.0,0.0,0.0,3.871710373457632e-05,-0.0001804093094098236,9.87654742869003e-06,0.0,0.0,0.0,0.0,0.0,0.0,0.0,0.0,0.0,-4.5225988439113177e-11,2.5166271378566353e-10,-1.0834002928890508e-11,0.0,0.0,0.0,0.0,0.0,0.0,0.0,0.0,0.0
1.5470000000000002,42,1,548000000,base_footprint,-0.0038531016034596176,-6.8961036378426964e-06,0.9999925758278667,4.3007271916572846e-05,0.0,0.0,0.0,0.0,0.0,0.0,0.0,0.0,0.0,3.8717250783048816e-05,-0.00018040927876435866,9.87668217875374e-06,0.0,0.0,0.0,0.0,0.0,0.0,0.0,0.0,0.0,-4.643504355580052e-11,2.59653156417761e-10,-1.1214242384997959e-11,0.0,0.0,0.0,0.0,0.0,0.0,0.0,0.0,0.0
1.582,43,1,582000000,base_footprint,-0.003853101602683099,-6.896700514523617e-06,0.9999925758344618,4.285362785245546e-05,0.0,0.0,0.0,0.0,0.0,0.0,0.0,0.0,0.0,3.871739680061802e-05,-0.0001804092478536124,9.876818523538995e-06,0.0,0.0,0.0,0.0,0.0,0.0,0.0,0.0,0.0,-4.6909707196936726e-11,2.62738015908109e-10,-1.1670440914350969e-11,0.0,0.0,0.0,0.0,0.0,0.0,0.0,0.0,0.0
1.616,44,1,616000000,base_footprint,-0.0038531016019047208,-6.8972970743523185e-06,0.9999925758410331,4.269998341568569e-05,0.0,0.0,0.0,0.0,0.0,0.0,0.0,0.0,0.0,3.871754178708785e-05,-0.00018040921699968374,9.876958755384822e-06,0.0,0.0,0.0,0.0,0.0,0.0,0.0,0.0,0.0,-4.804725265155727e-11,2.702764205025242e-10,-1.1996979926168418e-11,0.0,0.0,0.0,0.0,0.0,0.0,0.0,0.0,0.0
1.65,45,1,650000000,base_footprint,-0.0038531016011248147,-6.897893337222981e-06,0.9999925758475808,4.254633860514708e-05,0.0,0.0,0.0,0.0,0.0,0.0,0.0,0.0,0.0,3.871768570119375e-05,-0.0001804091860478929,9.87710121202773e-06,0.0,0.0,0.0,0.0,0.0,0.0,0.0,0.0,0.0,-4.8702477266900176e-11,2.7458548880102104e-10,-1.223897392358032e-11,0.0,0.0,0.0,0.0,0.0,0.0,0.0,0.0,0.0
1.6880000000000002,46,1,684000000,base_footprint,-0.0038531016003432576,-6.898489321809726e-06,0.9999925758541051,4.239269341980563e-05,0.0,0.0,0.0,0.0,0.0,0.0,0.0,0.0,0.0,3.8717828886697935e-05,-0.00018040915510369657,9.877246132332815e-06,0.0,0.0,0.0,0.0,0.0,0.0,0.0,0.0,0.0,-4.9424542162460205e-11,2.7936250207128334e-10,-1.2522509582918779e-11,0.0,0.0,0.0,0.0,0.0,0.0,0.0,0.0,0.0
1.719,47,1,718000000,base_footprint,-0.0038531015995605287,-6.899085046623432e-06,0.9999925758606056,4.2239047865780194e-05,0.0,0.0,0.0,0.0,0.0,0.0,0.0,0.0,0.0,3.871797109560673e-05,-0.0001804091239923223,9.877392775562866e-06,0.0,0.0,0.0,0.0,0.0,0.0,0.0,0.0,0.0,-4.993262947899791e-11,2.8269586890801393e-10,-1.3040470839716282e-11,0.0,0.0,0.0,0.0,0.0,0.0,0.0,0.0,0.0
1.752,48,1,752000000,base_footprint,-0.00384781598960928,-6.961641498766591e-06,0.9999925962544577,4.123002289112643e-05,0.0,0.0,0.0,0.0,0.0,0.0,0.0,0.0,0.0,3.6105172211572016e-05,-0.00014282541279622284,-2.7005649295321288e-05,0.0,0.0,0.0,0.0,0.0,0.0,0.0,0.0,0.0,0.7379432925443926,-0.00013274583498913939,0.005620372067314427,0.0,0.0,0.0,0.0,0.0,0.0,0.0,0.0,0.0
1.786,49,1,786000000,base_footprint,-0.0038483404841486383,-7.005887790323345e-06,0.9999925941926988,4.226336529549815e-05,0.0,0.0,0.0,0.0,0.0,0.0,0.0,0.0,0.0,3.6240146405268095e-05,-0.00011634394251864596,-7.446074858193964e-05,0.0,0.0,0.0,0.0,0.0,0.0,0.0,0.0,0.0,0.7862932101768854,-0.00015863090574254606,0.006014294350577,0.0,0.0,0.0,0.0,0.0,0.0,0.0,0.0,0.0
1.82,50,1,820000000,base_footprint,-0.0038490843095482963,-7.0688614661487474e-06,0.9999925912242549,4.468343911451306e-05,0.0,0.0,0.0,0.0,0.0,0.0,0.0,0.0,0.0,3.589539923865941e-05,-0.00011415222942952386,-0.00015249150914786093,0.0,0.0,0.0,0.0,0.0,0.0,0.0,0.0,0.0,0.7849703212180045,-0.00022167482859977245,0.006032650969447714,0.0,0.0,0.0,0.0,0.0,0.0,0.0,0.0,0.0
1.854,51,1,854000000,base_footprint,-0.003848125081200289,-7.184667867343244e-06,0.9999925947005684,4.925205154589321e-05,0.0,0.0,0.0,0.0,0.0,0.0,0.0,0.0,0.0,-3.924958894040663e-05,-0.004146820255165837,-0.0003640749055875234,0.0,0.0,0.0,0.0,0.0,0.0,0.0,0.0,0.0,0.7752570649703618,-0.00048818850992421746,0.008876421479834931,0.0,0.0,0.0,0.0,0.0,0.0,0.0,0.0,0.0
1.891,52,1,888000000,base_footprint,-0.0038491030075109177,-7.28587178800511e-06,0.9999925905113147,5.723131964651367e-05,0.0,0.0,0.0,0.0,0.0,0.0,0.0,0.0,0.0,-1.7731911362801297e-06,-0.0017803134257869517,-0.0006500087609131856,0.0,0.0,0.0,0.0,0.0,0.0,0.0,0.0,0.0,0.7348072066443763,-0.0006387239607362891,0.005178301624931379,0.0,0.0,0.0,0.0,0.0,0.0,0.0,0.0,0.0
1.921,53,1,922000000,base_footprint,-0.0038536105912132714,-7.75263570615002e-06,0.9999925723696846,6.950373452979672e-05,0.0,0.0,0.0,0.0,0.0,0.0,0.0,0.0,0.0,2.181422155439341e-05,-6.746316743266546e-05,-0.0007603920916505535,0.0,0.0,0.0,0.0,0.0,0.0,0.0,0.0,0.0,0.6673357890385087,-0.000306837750815976,0.0026271594964612666,0.0,0.0,0.0,0.0,0.0,0.0,0.0,0.0,0.0
1.956,54,1,956000000,base_footprint,-0.003856077410893216,-8.350368663864124e-06,0.9999925618316438,8.293768155275096e-05,0.0,0.0,0.0,0.0,0.0,0.0,0.0,0.0,0.0,8.525625805684813e-05,-2.6023332425869558e-05,-0.0007036364883482802,0.0,0.0,0.0,0.0,0.0,0.0,0.0,0.0,0.0,0.559572473452789,1.8105429936968192e-05,0.004056254808984168,0.0,0.0,0.0,0.0,0.0,0.0,0.0,0.0,0.0
1.992,55,1,990000000,base_footprint,-0.003855150114717364,-8.072941677456105e-06,0.9999925643535756,9.481550752461335e-05,0.0,0.0,0.0,0.0,0.0,0.0,0.0,0.0,0.0,0.00022920535054627082,0.0006405344152183309,-0.0006096765802400695,0.0,0.0,0.0,0.0,0.0,0.0,0.0,0.0,0.0,0.41663688950024014,0.00010633286382900236,0.0031744458338510374,0.0,0.0,0.0,0.0,0.0,0.0,0.0,0.0,0.0
2.024,56,2,24000000,base_footprint,-0.0038594461393916197,-7.496353632699035e-06,0.999992547522146,9.756777478079221e-05,0.0,0.0,0.0,0.0,0.0,0.0,0.0,0.0,0.0,2.249709181245509e-05,-7.147347660173208e-05,0.0009570144476415301,0.0,0.0,0.0,0.0,0.0,0.0,0.0,0.0,0.0,0.24100981869710275,0.000400367313448949,0.0022077026157055176,0.0,0.0,0.0,0.0,0.0,0.0,0.0,0.0,0.0
2.058,57,2,58000000,base_footprint,-0.0038523027466563294,-1.7629582070739466e-06,0.9999925746658731,0.00010185066736567487,0.0,0.0,0.0,0.0,0.0,0.0,0.0,0.0,0.0,0.0003924756373200927,-0.0006249734484537108,-0.0007282776395959748,0.0,0.0,0.0,0.0,0.0,0.0,0.0,0.0,0.0,0.011203224369292488,-0.0006775086535061121,0.0003960736274247686,0.0,0.0,0.0,0.0,0.0,0.0,0.0,0.0,0.0
2.092,58,2,92000000,base_footprint,-0.0038498544547416126,-2.488273177069561e-06,0.9999925427857252,0.00030493839583440647,0.0,0.0,0.0,0.0,0.0,0.0,0.0,0.0,0.0,4.5498458984201005e-05,-0.0006519909905252174,-0.03423089845996333,0.0,0.0,0.0,0.0,0.0,0.0,0.0,0.0,0.0,0.05482542288932291,0.0008676944121284182,0.0007325678166748512,0.0,0.0,0.0,0.0,0.0,0.0,0.0,0.0,0.0
2.126,59,2,126000000,base_footprint,-0.0038558211239764673,5.062214357759414e-06,0.9999916106419872,0.0013824845310100938,0.0,0.0,0.0,0.0,0.0,0.0,0.0,0.0,0.0,0.00032381782127545206,-0.0003556051202411528,-0.11640071954993365,0.0,0.0,0.0,0.0,0.0,0.0,0.0,0.0,0.0,0.1714260990409245,-0.014706571673429846,0.0007979999385235315,0.0,0.0,0.0,0.0,0.0,0.0,0.0,0.0,0.0
2.16,60,2,160000000,base_footprint,-0.0038495447779420414,1.608517218164397e-05,0.9999787307084876,0.005264871974872787,0.0,0.0,0.0,0.0,0.0,0.0,0.0,0.0,0.0,0.002872849236462168,0.0012797462974272597,-0.3058355636202567,0.0,0.0,0.0,0.0,0.0,0.0,0.0,0.0,0.0,0.18217188023086792,-0.048279837967340374,-0.0008516636805457545,0.0,0.0,0.0,0.0,0.0,0.0,0.0,0.0,0.0
2.194,61,2,194000000,base_footprint,-0.0038542914911323316,3.612688857956092e-05,0.9999317188903513,0.011031803521499106,0.0,0.0,0.0,0.0,0.0,0.0,0.0,0.0,0.0,0.002687710395449628,-2.293369182338387e-05,-0.3438089722390306,0.0,0.0,0.0,0.0,0.0,0.0,0.0,0.0,0.0,0.0910703099330553,-0.07446196312942567,0.0024708215732354775,0.0,0.0,0.0,0.0,0.0,0.0,0.0,0.0,0.0
2.229,62,2,228000000,base_footprint,-0.003854548907134625,5.419722455317414e-05,0.9998544586184787,0.016619298906160065,0.0,0.0,0.0,0.0,0.0,0.0,0.0,0.0,0.0,0.002058190037179302,-0.00043593351367565453,-0.22893522481922435,0.0,0.0,0.0,0.0,0.0,0.0,0.0,0.0,0.0,-0.07087538735891442,-0.06626933418219423,0.0005093201877326817,0.0,0.0,0.0,0.0,0.0,0.0,0.0,0.0,0.0
2.262,63,2,262000000,base_footprint,-0.003853458293782904,6.2738775203276e-05,0.9998361760465939,0.017685247850928898,0.0,0.0,0.0,0.0,0.0,0.0,0.0,0.0,0.0,-0.0010409126638322942,-0.002012975822711227,-0.11784089154996354,0.0,0.0,0.0,0.0,0.0,0.0,0.0,0.0,0.0,-0.14511150204341183,-0.004119254900142817,0.0009403406613608039,0.0,0.0,0.0,0.0,0.0,0.0,0.0,0.0,0.0
2.2960000000000003,64,2,296000000,base_footprint,-0.003850113809196612,7.456973804924772e-05,0.999765669115383,0.021302063779853886,0.0,0.0,0.0,0.0,0.0,0.0,0.0,0.0,0.0,0.0022752782443221002,-0.0001516265414490317,-0.3038899502513525,0.0,0.0,0.0,0.0,0.0,0.0,0.0,0.0,0.0,0.48494776870440204,-0.08276580110524742,0.0009252874679350913,0.0,0.0,0.0,0.0,0.0,0.0,0.0,0.0,0.0
2.33,65,2,330000000,base_footprint,-0.003856584140045597,9.833338014445776e-05,0.9996317145195295,0.026861727719251008,0.0,0.0,0.0,0.0,0.0,0.0,0.0,0.0,0.0,0.0025200624540098436,-0.001706451672943785,-0.337104463132885,0.0,0.0,0.0,0.0,0.0,0.0,0.0,0.0,0.0,-0.21048587831543622,-0.0496257902382431,0.00027799175764942714,0.0,0.0,0.0,0.0,0.0,0.0,0.0,0.0,0.0
2.364,66,2,364000000,base_footprint,-0.003851832271718285,0.00011318100853258307,0.999490238770225,0.03169247830713889,0.0,0.0,0.0,0.0,0.0,0.0,0.0,0.0,0.0,0.002340549186871937,-0.00025438274427949865,-0.30758912144687095,0.0,0.0,0.0,0.0,0.0,0.0,0.0,0.0,0.0,-0.12278737905412214,-0.046131983626241754,-0.002626545188921223,0.0,0.0,0.0,0.0,0.0,0.0,0.0,0.0,0.0
2.395,67,2,398000000,base_footprint,-0.0038531877939985562,0.00013494144030430378,0.999301348681853,0.03717457810468686,0.0,0.0,0.0,0.0,0.0,0.0,0.0,0.0,0.0,0.0023566968636077046,-0.00028843937690717456,-0.32310642193707084,0.0,0.0,0.0,0.0,0.0,0.0,0.0,0.0,0.0,0.03219896540385168,-0.07313161188150327,4.803433645728495e-05,0.0,0.0,0.0,0.0,0.0,0.0,0.0,0.0,0.0
2.433,68,2,432000000,base_footprint,-0.0038538950721072503,0.000153912175692652,0.9990856122597023,0.042580079608559154,0.0,0.0,0.0,0.0,0.0,0.0,0.0,0.0,0.0,0.002464007636729048,-0.000875931449991584,-0.3160820926941581,0.0,0.0,0.0,0.0,0.0,0.0,0.0,0.0,0.0,0.09551469832298777,-0.085319946753832,0.0017776880324005093,0.0,0.0,0.0,0.0,0.0,0.0,0.0,0.0,0.0
2.466,69,2,466000000,base_footprint,-0.003853861711240989,0.00017588714229750993,0.998825032342726,0.048308090204189316,0.0,0.0,0.0,0.0,0.0,0.0,0.0,0.0,0.0,0.0027921994085155504,-0.00043039793005871766,-0.3477824655970051,0.0,0.0,0.0,0.0,0.0,0.0,0.0,0.0,0.0,0.06904289952383388,-0.08561430033674877,-0.00018674273159731528,0.0,0.0,0.0,0.0,0.0,0.0,0.0,0.0,0.0
2.5,70,2,500000000,base_footprint,-0.003845413378210076,0.00020532916157489357,0.9985258930783543,0.05414066390395848,0.0,0.0,0.0,0.0,0.0,0.0,0.0,0.0,0.0,0.002680589581212414,-0.0008115919688317277,-0.3453867774982054,0.0,0.0,0.0,0.0,0.0,0.0,0.0,0.0,0.0,-0.02204970400637856,-0.07198056708071973,0.00033536936385353223,0.0,0.0,0.0,0.0,0.0,0.0,0.0,0.0,0.0
2.534,71,2,534000000,base_footprint,-0.0038460521510325575,0.00022649706836929008,0.9981748665008777,0.06026684385202627,0.0,0.0,0.0,0.0,0.0,0.0,0.0,0.0,0.0,0.0016227612922501298,0.0012920367434017075,-0.3669035302469778,0.0,0.0,0.0,0.0,0.0,0.0,0.0,0.0,0.0,0.14609214361120834,-0.11760349741914904,-0.00244027288744829,0.0,0.0,0.0,0.0,0.0,0.0,0.0,0.0,0.0
2.568,72,2,568000000,base_footprint,-0.003848603207389619,0.0002499822880020294,0.9977799053065122,0.06648598595745943,0.0,0.0,0.0,0.0,0.0,0.0,0.0,0.0,0.0,0.0028822686993234667,-0.0004921568974365074,-0.36619030185960205,0.0,0.0,0.0,0.0,0.0,0.0,0.0,0.0,0.0,-0.02888468211174923,-0.07641444473837992,0.002742986261139393,0.0,0.0,0.0,0.0,0.0,0.0,0.0,0.0,0.0
2.6020000000000003,73,2,602000000,base_footprint,-0.0038475128065123708,0.000275132658656913,0.9973454987939759,0.07271228907563881,0.0,0.0,0.0,0.0,0.0,0.0,0.0,0.0,0.0,0.002977189514705208,-0.0004275750715690045,-0.3682214030507272,0.0,0.0,0.0,0.0,0.0,0.0,0.0,0.0,0.0,-0.025562887900616088,-0.0775923110528402,-0.0003173705742712584,0.0,0.0,0.0,0.0,0.0,0.0,0.0,0.0,0.0
2.636,74,2,636000000,base_footprint,-0.003841332033358914,0.0002945585262319862,0.996874901164624,0.07890240067010333,0.0,0.0,0.0,0.0,0.0,0.0,0.0,0.0,0.0,0.0010817393968116555,-0.001204151193894678,-0.3629174206604221,0.0,0.0,0.0,0.0,0.0,0.0,0.0,0.0,0.0,-0.10736490780834204,-0.051309801175686,0.0014742867490429791,0.0,0.0,0.0,0.0,0.0,0.0,0.0,0.0,0.0
2.669,75,2,670000000,base_footprint,-0.0038373728682327217,0.00031752454899777944,0.9963650716343015,0.08509887058477435,0.0,0.0,0.0,0.0,0.0,0.0,0.0,0.0,0.0,0.0027211045780447226,-0.0006633695600712691,-0.36160245510075917,0.0,0.0,0.0,0.0,0.0,0.0,0.0,0.0,0.0,-0.023031414599916353,-0.07711894455905337,-0.0016511106816591073,0.0,0.0,0.0,0.0,0.0,0.0,0.0,0.0,0.0
2.706,76,2,704000000,base_footprint,-0.003836262529779422,0.00034136511528134306,0.995849585510292,0.09093277516187602,0.0,0.0,0.0,0.0,0.0,0.0,0.0,0.0,0.0,0.0037167867922632027,3.79087324123961e-05,-0.3253290280729417,0.0,0.0,0.0,0.0,0.0,0.0,0.0,0.0,0.0,0.04506745018070699,-0.09912824897505365,-0.001271673151139117,0.0,0.0,0.0,0.0,0.0,0.0,0.0,0.0,0.0
2.738,77,2,738000000,base_footprint,-0.00383960528287999,0.00036378742650758285,0.9953798318585025,0.09593808117384564,0.0,0.0,0.0,0.0,0.0,0.0,0.0,0.0,0.0,0.0020485285004923897,-8.137554776110409e-05,-0.2152041550811354,0.0,0.0,0.0,0.0,0.0,0.0,0.0,0.0,0.0,-0.31371642832326696,0.0544949830423097,-0.0014100532545890275,0.0,0.0,0.0,0.0,0.0,0.0,0.0,0.0,0.0
2.7720000000000002,78,2,772000000,base_footprint,-0.003831215566005216,0.0003690889258297659,0.9951085659347993,0.09871234757536032,0.0,0.0,0.0,0.0,0.0,0.0,0.0,0.0,0.0,0.0014017214646014783,-0.00035487516680495835,-0.1894883200730031,0.0,0.0,0.0,0.0,0.0,0.0,0.0,0.0,0.0,0.08931513690492301,-0.0752484839352892,0.001303208251578816,0.0,0.0,0.0,0.0,0.0,0.0,0.0,0.0,0.0
2.806,79,2,806000000,base_footprint,-0.003835443334881117,0.0003847109721452597,0.9947716729990117,0.10205126148480505,0.0,0.0,0.0,0.0,0.0,0.0,0.0,0.0,0.0,0.0014077307211942088,-0.0003672124781996845,-0.19636343510717533,0.0,0.0,0.0,0.0,0.0,0.0,0.0,0.0,0.0,0.13784231801002883,-0.10620965845112516,0.0009465045432938909,0.0,0.0,0.0,0.0,0.0,0.0,0.0,0.0,0.0
2.84,80,2,840000000,base_footprint,-0.0038312256473199617,0.00040150411046630875,0.9944022592078261,0.10559028074051217,0.0,0.0,0.0,0.0,0.0,0.0,0.0,0.0,0.0,0.0019938568481097335,0.00035667884380601457,-0.20374339354720952,0.0,0.0,0.0,0.0,0.0,0.0,0.0,0.0,0.0,-0.2897375318339048,0.07989533697351334,-0.003039716129307501,0.0,0.0,0.0,0.0,0.0,0.0,0.0,0.0,0.0
2.874,81,2,874000000,base_footprint,-0.003833756886954618,0.00041014129820265884,0.9940604961938133,0.10876058109056294,0.0,0.0,0.0,0.0,0.0,0.0,0.0,0.0,0.0,0.0011943953892518634,-0.00025894624855411113,-0.18671473881353665,0.0,0.0,0.0,0.0,0.0,0.0,0.0,0.0,0.0,-0.05955369198481685,-0.016243752510047418,0.00016371636383008122,0.0,0.0,0.0,0.0,0.0,0.0,0.0,0.0,0.0
2.908,82,2,908000000,base_footprint,-0.0038332263523944755,0.0004223822309801919,0.993711093174364,0.11190795892693547,0.0,0.0,0.0,0.0,0.0,0.0,0.0,0.0,0.0,0.0012304933971201987,-0.0003142564498870388,-0.1852725934471476,0.0,0.0,0.0,0.0,0.0,0.0,0.0,0.0,0.0,-0.019573545800516175,-0.03361393876975382,3.216087685645526e-05,0.0,0.0,0.0,0.0,0.0,0.0,0.0,0.0,0.0
2.942,83,2,942000000,base_footprint,-0.00382500033360516,0.00043628313298609505,0.9934392372683757,0.1142963730181497,0.0,0.0,0.0,0.0,0.0,0.0,0.0,0.0,0.0,0.0008389702832783048,0.0002766316350268208,-0.08411473730965177,0.0,0.0,0.0,0.0,0.0,0.0,0.0,0.0,0.0,0.14808647681670725,-0.1082538913758052,0.0008418753736671803,0.0,0.0,0.0,0.0,0.0,0.0,0.0,0.0,0.0
2.976,84,2,976000000,base_footprint,-0.0038239953696751557,0.00044328119463950234,0.9932257666245102,0.11613680327247392,0.0,0.0,0.0,0.0,0.0,0.0,0.0,0.0,0.0,0.0006499905086465343,0.0003690732430113342,-0.13847606291733103,0.0,0.0,0.0,0.0,0.0,0.0,0.0,0.0,0.0,0.11701206667896169,-0.08394117119531137,9.549527742405743e-05,0.0,0.0,0.0,0.0,0.0,0.0,0.0,0.0,0.0
3.01,85,3,10000000,base_footprint,-0.003828929673312964,0.00045008951016573494,0.9929441399692717,0.1185203426322803,0.0,0.0,0.0,0.0,0.0,0.0,0.0,0.0,0.0,0.000933557240854814,-0.00043815007766820325,-0.14053106611835428,0.0,0.0,0.0,0.0,0.0,0.0,0.0,0.0,0.0,-0.008263794644618714,-0.03132901934892211,0.0017274989171687447,0.0,0.0,0.0,0.0,0.0,0.0,0.0,0.0,0.0
3.044,86,3,44000000,base_footprint,-0.0038286550444250685,0.00045640239343954316,0.9927697129158015,0.1199726227707111,0.0,0.0,0.0,0.0,0.0,0.0,0.0,0.0,0.0,0.0001414968918493859,-0.0006122662705201351,-0.049732082102023546,0.0,0.0,0.0,0.0,0.0,0.0,0.0,0.0,0.0,-0.029322111473622327,-0.007234992487567244,-0.00014790423401680954,0.0,0.0,0.0,0.0,0.0,0.0,0.0,0.0,0.0
3.078,87,3,78000000,base_footprint,-0.003827607749524871,0.00046044127406849204,0.9926665992559349,0.12082284607807499,0.0,0.0,0.0,0.0,0.0,0.0,0.0,0.0,0.0,0.0004100492258932494,-0.00020903958939531218,-0.050428986461258325,0.0,0.0,0.0,0.0,0.0,0.0,0.0,0.0,0.0,-0.004985042225696342,-0.009241869009373002,-0.0003826209443460176,0.0,0.0,0.0,0.0,0.0,0.0,0.0,0.0,0.0
3.111,88,3,112000000,base_footprint,-0.0038280524602625687,0.0004645499760588243,0.9925610729196447,0.1216866744236406,0.0,0.0,0.0,0.0,0.0,0.0,0.0,0.0,0.0,0.0005898317562365385,-0.00022319042623882474,-0.05197684733947374,0.0,0.0,0.0,0.0,0.0,0.0,0.0,0.0,0.0,-0.006862560771310937,-0.008901692680409957,-6.60351543365225e-05,0.0,0.0,0.0,0.0,0.0,0.0,0.0,0.0,0.0
3.146,89,3,146000000,base_footprint,-0.0038258799454955416,0.0004654720875280225,0.9924473525659583,0.12261075957353382,0.0,0.0,0.0,0.0,0.0,0.0,0.0,0.0,0.0,-0.0007485663604385181,-0.0009098478105526664,-0.06578194612392507,0.0,0.0,0.0,0.0,0.0,0.0,0.0,0.0,0.0,-0.049435379005447824,0.012167106681401077,0.0016939826449392345,0.0,0.0,0.0,0.0,0.0,0.0,0.0,0.0,0.0
3.18,90,3,180000000,base_footprint,-0.0038218910971091168,0.0004665581625123174,0.9923075008761707,0.12373762231759351,0.0,0.0,0.0,0.0,0.0,0.0,0.0,0.0,0.0,0.00039752880403708883,-0.0003085334102486,-0.06025281666969737,0.0,0.0,0.0,0.0,0.0,0.0,0.0,0.0,0.0,0.004193338082643847,-0.018767415566092318,-0.0015992441795395457,0.0,0.0,0.0,0.0,0.0,0.0,0.0,0.0,0.0
3.215,91,3,214000000,base_footprint,-0.0038249199390068124,0.00047256320985717977,0.9922079529568473,0.1245332275364923,0.0,0.0,0.0,0.0,0.0,0.0,0.0,0.0,0.0,0.0002494865128125106,-0.0003267274775681599,-0.04357411393135774,0.0,0.0,0.0,0.0,0.0,0.0,0.0,0.0,0.0,0.02681333491523804,-0.026723574057147356,0.00020163447699171204,0.0,0.0,0.0,0.0,0.0,0.0,0.0,0.0,0.0
3.248,92,3,248000000,base_footprint,-0.003822712213540774,0.000474803966162467,0.9920641353954358,0.12567383456643896,0.0,0.0,0.0,0.0,0.0,0.0,0.0,0.0,0.0,-0.001062248484192709,-0.002243834932394061,-0.115234016465985,0.0,0.0,0.0,0.0,0.0,0.0,0.0,0.0,0.0,-0.29065612047443556,0.14430549269396867,-0.0003881686241844043,0.0,0.0,0.0,0.0,0.0,0.0,0.0,0.0,0.0
3.282,93,3,282000000,base_footprint,-0.00382442559684558,0.0004832584469576573,0.9918198479213748,0.12758734067041622,0.0,0.0,0.0,0.0,0.0,0.0,0.0,0.0,0.0,0.0007828172685438674,-0.00027033756245150784,-0.11369317140614159,0.0,0.0,0.0,0.0,0.0,0.0,0.0,0.0,0.0,-0.007635054691067039,-0.02314849995466423,-0.0024475964892370647,0.0,0.0,0.0,0.0,0.0,0.0,0.0,0.0,0.0
3.316,94,3,316000000,base_footprint,-0.0038240147734817085,0.0004902401907505396,0.9915722757602897,0.12949733016216153,0.0,0.0,0.0,0.0,0.0,0.0,0.0,0.0,0.0,0.0007072234944234214,-0.0002632452703320306,-0.11329350320907382,0.0,0.0,0.0,0.0,0.0,0.0,0.0,0.0,0.0,-0.012096471771962053,-0.020518554139484016,5.143012743129199e-06,0.0,0.0,0.0,0.0,0.0,0.0,0.0,0.0,0.0
3.35,95,3,350000000,base_footprint,-0.003824260370672188,0.0004971288746576435,0.9912852084724705,0.13167673810962208,0.0,0.0,0.0,0.0,0.0,0.0,0.0,0.0,0.0,0.0011099575419543624,-0.0005446522262586423,-0.15243053395562725,0.0,0.0,0.0,0.0,0.0,0.0,0.0,0.0,0.0,0.11784860119502459,-0.09867579137729993,0.001580193790745236,0.0,0.0,0.0,0.0,0.0,0.0,0.0,0.0,0.0
3.384,96,3,384000000,base_footprint,-0.003815518426000647,0.00051220083800041,0.990924909377332,0.13436146562526355,0.0,0.0,0.0,0.0,0.0,0.0,0.0,0.0,0.0,0.0008823922091259848,-0.0012359232554590633,-0.16012656555348403,0.0,0.0,0.0,0.0,0.0,0.0,0.0,0.0,0.0,0.0001001873519268651,-0.04039688292283844,0.001357399633624497,0.0,0.0,0.0,0.0,0.0,0.0,0.0,0.0,0.0
3.419,97,3,418000000,base_footprint,-0.0038132445825420904,0.0005246116581589189,0.9905264745700764,0.13726793917057895,0.0,0.0,0.0,0.0,0.0,0.0,0.0,0.0,0.0,0.0013173699265414144,-0.000574527939143485,-0.1923917080503655,0.0,0.0,0.0,0.0,0.0,0.0,0.0,0.0,0.0,0.053298602817849164,-0.07594728650986027,-0.0008701403043813764,0.0,0.0,0.0,0.0,0.0,0.0,0.0,0.0,0.0
3.452,98,3,452000000,base_footprint,-0.003817990830194159,0.0005311061072484073,0.9901871511446567,0.13969447584050018,0.0,0.0,0.0,0.0,0.0,0.0,0.0,0.0,0.0,0.0008556541189770368,-0.0004823985106354277,-0.1343045251247872,0.0,0.0,0.0,0.0,0.0,0.0,0.0,0.0,0.0,0.0547071647607638,-0.07259587873677104,0.0005532334288362705,0.0,0.0,0.0,0.0,0.0,0.0,0.0,0.0,0.0
3.486,99,3,486000000,base_footprint,-0.00381648169049833,0.0005404263584696512,0.9898646760023497,0.1419614934044455,0.0,0.0,0.0,0.0,0.0,0.0,0.0,0.0,0.0,0.0008873188088585833,-0.0004006133205302863,-0.13450258615013125,0.0,0.0,0.0,0.0,0.0,0.0,0.0,0.0,0.0,-0.01477675733036117,-0.025966325317675273,-0.00018711972525440088,0.0,0.0,0.0,0.0,0.0,0.0,0.0,0.0,0.0
3.52,100,3,520000000,base_footprint,-0.0038151610890207444,0.0005498392917579586,0.9895367993526359,0.1442292097654266,0.0,0.0,0.0,0.0,0.0,0.0,0.0,0.0,0.0,0.0009576506434271278,-0.000405065702319905,-0.13464581726360342,0.0,0.0,0.0,0.0,0.0,0.0,0.0,0.0,0.0,-0.015237696615447934,-0.0256029603911588,-0.00017990575311695314,0.0,0.0,0.0,0.0,0.0,0.0,0.0,0.0,0.0
3.5540000000000003,101,3,554000000,base_footprint,-0.003811936972283308,0.0005557156424398003,0.9892720506949988,0.1460341399480139,0.0,0.0,0.0,0.0,0.0,0.0,0.0,0.0,0.0,0.0024731652503446585,-0.00497858415621883,-0.13526249730747,0.0,0.0,0.0,0.0,0.0,0.0,0.0,0.0,0.0,-0.47814500457467946,0.28972678881368186,-0.004938030309125967,0.0,0.0,0.0,0.0,0.0,0.0,0.0,0.0,0.0
3.587,102,3,588000000,base_footprint,-0.0038123470469802203,0.0005659302092628902,0.9889142529746854,0.1484376838828732,0.0,0.0,0.0,0.0,0.0,0.0,0.0,0.0,0.0,0.0004997987083383371,-0.0007183265614123389,-0.12407614732885541,0.0,0.0,0.0,0.0,0.0,0.0,0.0,0.0,0.0,0.1661289098294546,-0.1485457450972017,0.002988276897469089,0.0,0.0,0.0,0.0,0.0,0.0,0.0,0.0,0.0
3.622,103,3,622000000,base_footprint,-0.0038107358567116105,0.0005763030808248429,0.9885903226431345,0.15057994601982277,0.0,0.0,0.0,0.0,0.0,0.0,0.0,0.0,0.0,0.0005470801773455357,-0.002486222775338033,-0.14304274829515667,0.0,0.0,0.0,0.0,0.0,0.0,0.0,0.0,0.0,0.004608588098036558,-0.03424295862821337,0.0008152244739630085,0.0,0.0,0.0,0.0,0.0,0.0,0.0,0.0,0.0
3.656,104,3,656000000,base_footprint,-0.003806925101951301,0.0005825499419330913,0.988102840663059,0.15374636330797214,0.0,0.0,0.0,0.0,0.0,0.0,0.0,0.0,0.0,0.0017267138741812811,0.00017455389496080044,-0.20161799237211406,0.0,0.0,0.0,0.0,0.0,0.0,0.0,0.0,0.0,0.0032827848303600728,-0.05066944050164451,-0.0019907941416304597,0.0,0.0,0.0,0.0,0.0,0.0,0.0,0.0,0.0
3.69,105,3,690000000,base_footprint,-0.0038048708117093934,0.000594655385841241,0.987572040546205,0.15711980802713327,0.0,0.0,0.0,0.0,0.0,0.0,0.0,0.0,0.0,0.0012933464969122847,-0.000592860403998926,-0.1935204806816152,0.0,0.0,0.0,0.0,0.0,0.0,0.0,0.0,0.0,-0.010181286087788385,-0.04555470427945345,0.0009729249564792917,0.0,0.0,0.0,0.0,0.0,0.0,0.0,0.0,0.0
3.723,106,3,724000000,base_footprint,-0.0038117814505929867,0.0006149428969389744,0.9871092827561189,0.16000111269646503,0.0,0.0,0.0,0.0,0.0,0.0,0.0,0.0,0.0,0.004208374597840784,8.425283639459566e-05,-0.14942333911220054,0.0,0.0,0.0,0.0,0.0,0.0,0.0,0.0,0.0,-0.009798328388640538,-0.04048043771452052,-0.002963252304384442,0.0,0.0,0.0,0.0,0.0,0.0,0.0,0.0,0.0
3.758,107,3,758000000,base_footprint,-0.0037980120317524374,0.0006125193255995599,0.9866756292789,0.16265424221879182,0.0,0.0,0.0,0.0,0.0,0.0,0.0,0.0,0.0,0.001470920425346539,-0.00017291912840722558,-0.17711144135022402,0.0,0.0,0.0,0.0,0.0,0.0,0.0,0.0,0.0,-0.3724735640336888,0.24564738397680283,-0.0018177912082664803,0.0,0.0,0.0,0.0,0.0,0.0,0.0,0.0,0.0
3.792,108,3,792000000,base_footprint,-0.0038015526546456334,0.0006245906734378042,0.9862771288585244,0.165053273746662,0.0,0.0,0.0,0.0,0.0,0.0,0.0,0.0,0.0,0.0004628198149419471,-0.00024816797675668084,-0.0859402740799303,0.0,0.0,0.0,0.0,0.0,0.0,0.0,0.0,0.0,0.20390875766517255,-0.19759088473348915,0.003241239478457191,0.0,0.0,0.0,0.0,0.0,0.0,0.0,0.0,0.0
3.826,109,3,826000000,base_footprint,-0.0038033282543912437,0.000627274838214328,0.9861067019805075,0.1660684001536513,0.0,0.0,0.0,0.0,0.0,0.0,0.0,0.0,0.0,0.0011321045520103006,-5.3095489773240104e-05,-0.032903513398553345,0.0,0.0,0.0,0.0,0.0,0.0,0.0,0.0,0.0,0.07280793069356283,-0.07254551906961963,0.0005823777373821202,0.0,0.0,0.0,0.0,0.0,0.0,0.0,0.0,0.0
3.8600000000000003,110,3,860000000,base_footprint,-0.0037973710024510918,0.0006325486874970883,0.9862229404024314,0.16537681723751346,0.0,0.0,0.0,0.0,0.0,0.0,0.0,0.0,0.0,-0.0003887773110951701,5.1139054515370645e-05,0.06369926740058739,0.0,0.0,0.0,0.0,0.0,0.0,0.0,0.0,0.0,0.11884027052526579,-0.08445620126112739,0.0015354851125955354,0.0,0.0,0.0,0.0,0.0,0.0,0.0,0.0,0.0
3.894,111,3,894000000,base_footprint,-0.003796991060592855,0.0006296986367211622,0.9863554563952719,0.1645846286194052,0.0,0.0,0.0,0.0,0.0,0.0,0.0,0.0,0.0,-0.0002456359992505877,-4.3912900036953355e-05,0.024977172690437043,0.0,0.0,0.0,0.0,0.0,0.0,0.0,0.0,0.0,0.08681055993970488,-0.053804542910771865,0.000681633110284326,0.0,0.0,0.0,0.0,0.0,0.0,0.0,0.0,0.0
3.928,112,3,928000000,base_footprint,-0.003798132087605785,0.0006272866399471974,0.9863842048615331,0.16441222917957662,0.0,0.0,0.0,0.0,0.0,0.0,0.0,0.0,0.0,-0.0002823287397546923,0.0009075067377327504,-0.02330614877992945,0.0,0.0,0.0,0.0,0.0,0.0,0.0,0.0,0.0,0.024376694484727093,-0.015820164338858314,-0.0012518109281723579,0.0,0.0,0.0,0.0,0.0,0.0,0.0,0.0,0.0
3.962,113,3,962000000,base_footprint,-0.003802705030433388,0.0006282309509876041,0.9863182050565801,0.16480759428585104,0.0,0.0,0.0,0.0,0.0,0.0,0.0,0.0,0.0,5.3983834252598455e-05,-0.00013804238206506993,-0.023401972888450622,0.0,0.0,0.0,0.0,0.0,0.0,0.0,0.0,0.0,-0.0018166483487755108,-0.0054246168059386875,0.0014010237642313253,0.0,0.0,0.0,0.0,0.0,0.0,0.0,0.0,0.0
3.996,114,3,996000000,base_footprint,-0.003802223325269047,0.0006303786631547499,0.9862519159492037,0.1652038256429029,0.0,0.0,0.0,0.0,0.0,0.0,0.0,0.0,0.0,6.315920940261098e-05,-0.00016500717129942826,-0.02350383317010936,0.0,0.0,0.0,0.0,0.0,0.0,0.0,0.0,0.0,-0.002220069617059993,-0.004977023837126832,-2.6685687557809517e-06,0.0,0.0,0.0,0.0,0.0,0.0,0.0,0.0,0.0
4.03,115,4,30000000,base_footprint,-0.003800313780996459,0.0006313593553371077,0.9862319277544004,0.16532314925130615,0.0,0.0,0.0,0.0,0.0,0.0,0.0,0.0,0.0,-0.003513517524953574,-0.0023470655995571246,0.05413941528501351,0.0,0.0,0.0,0.0,0.0,0.0,0.0,0.0,0.0,-0.01351164302413701,0.006996118564289447,0.004821144576141424,0.0,0.0,0.0,0.0,0.0,0.0,0.0,0.0,0.0
4.064,116,4,64000000,base_footprint,-0.0038031378666527416,0.000628741871829308,0.9863747571887773,0.16446877882080385,0.0,0.0,0.0,0.0,0.0,0.0,0.0,0.0,0.0,-0.0003271570420557023,-1.0187405856723177e-05,0.05084444035897777,0.0,0.0,0.0,0.0,0.0,0.0,0.0,0.0,0.0,0.004579100732961977,0.011348677564707137,-0.0050872663154035574,0.0,0.0,0.0,0.0,0.0,0.0,0.0,0.0,0.0
4.098,117,4,98000000,base_footprint,-0.0038045238597182135,0.0006261275186941106,0.9865150345661089,0.16362524297173792,0.0,0.0,0.0,0.0,0.0,0.0,0.0,0.0,0.0,-0.00025012030034316456,-1.3086298454407811e-05,0.04984485808116991,0.0,0.0,0.0,0.0,0.0,0.0,0.0,0.0,0.0,0.006533045080724364,0.009630875229246258,-0.00010034432230922223,0.0,0.0,0.0,0.0,0.0,0.0,0.0,0.0,0.0
4.132,118,4,132000000,base_footprint,-0.003805393331592862,0.0006236975549591067,0.9865963925514171,0.16313395779996945,0.0,0.0,0.0,0.0,0.0,0.0,0.0,0.0,0.0,0.001767243042677683,0.000795437534484508,-0.03156938130724511,0.0,0.0,0.0,0.0,0.0,0.0,0.0,0.0,0.0,0.06934610214939761,-0.044362645795287085,-0.0012908182779608258,0.0,0.0,0.0,0.0,0.0,0.0,0.0,0.0,0.0
4.166,119,4,166000000,base_footprint,-0.0038008568968087063,0.0006223003321905753,0.9864477780392789,0.16403032472843646,0.0,0.0,0.0,0.0,0.0,0.0,0.0,0.0,0.0,0.0003179884101446646,-0.00037601630443532955,-0.06373951106950092,0.0,0.0,0.0,0.0,0.0,0.0,0.0,0.0,0.0,-0.06046028839925242,0.03212607093097877,0.0012530007529433628,0.0,0.0,0.0,0.0,0.0,0.0,0.0,0.0,0.0
4.2,120,4,200000000,base_footprint,-0.0038032143951068566,0.0006283234180643486,0.9862853885457175,0.16500385786753724,0.0,0.0,0.0,0.0,0.0,0.0,0.0,0.0,0.0,0.00047567933814312495,-0.00016196361334336638,-0.05746636948786805,0.0,0.0,0.0,0.0,0.0,0.0,0.0,0.0,0.0,0.0035629489152803778,-0.0193610100295615,6.671589221512585e-05,0.0,0.0,0.0,0.0,0.0,0.0,0.0,0.0,0.0
4.234,121,4,234000000,base_footprint,-0.003803320540962341,0.000638177947518755,0.9861109178966829,0.16604332292125354,0.0,0.0,0.0,0.0,0.0,0.0,0.0,0.0,0.0,0.0009454767024620434,5.3225839903270203e-05,-0.08139024608374971,0.0,0.0,0.0,0.0,0.0,0.0,0.0,0.0,0.0,-0.19399825096304377,0.13590645122537065,-0.0017031933680669471,0.0,0.0,0.0,0.0,0.0,0.0,0.0,0.0,0.0
4.268,122,4,268000000,base_footprint,-0.00379836774221326,0.0006364227673928796,0.9857928227315423,0.1679216424989175,0.0,0.0,0.0,0.0,0.0,0.0,0.0,0.0,0.0,9.384122258217648e-05,-0.001134294814108727,-0.097185231335676,0.0,0.0,0.0,0.0,0.0,0.0,0.0,0.0,0.0,-0.13506528912435517,0.07787364574936032,0.00031506103083047375,0.0,0.0,0.0,0.0,0.0,0.0,0.0,0.0,0.0
4.302,123,4,302000000,base_footprint,-0.0038022219480543435,0.0006428851488611047,0.9855966748944327,0.16906899255623759,0.0,0.0,0.0,0.0,0.0,0.0,0.0,0.0,0.0,0.00029441618522925563,-0.00010136717178125813,-0.06490086631678232,0.0,0.0,0.0,0.0,0.0,0.0,0.0,0.0,0.0,0.02875470920490717,-0.042455381723404254,-0.0011294882796357597,0.0,0.0,0.0,0.0,0.0,0.0,0.0,0.0,0.0
4.337,124,4,336000000,base_footprint,-0.0037987773390231088,0.0006483016936384307,0.9854218466765838,0.17008507603006806,0.0,0.0,0.0,0.0,0.0,0.0,0.0,0.0,0.0,0.0001887715149200582,-0.0007598113250602681,-0.057401017965719496,0.0,0.0,0.0,0.0,0.0,0.0,0.0,0.0,0.0,-0.02263970101282265,0.0023907613371236284,0.0009174653949925758,0.0,0.0,0.0,0.0,0.0,0.0,0.0,0.0,0.0
4.371,125,4,370000000,base_footprint,-0.003804391168979297,0.0006474736735770328,0.9853529431218206,0.17048367918027102,0.0,0.0,0.0,0.0,0.0,0.0,0.0,0.0,0.0,0.0007048117588614282,0.0013362653434899306,0.06741695079741786,0.0,0.0,0.0,0.0,0.0,0.0,0.0,0.0,0.0,0.03272983413031936,-0.03553896107940896,-0.0023527104774478916,0.0,0.0,0.0,0.0,0.0,0.0,0.0,0.0,0.0
4.395,126,4,404000000,base_footprint,-0.0038005004404172336,0.0006432704929256152,0.985615675247325,0.1689582288799069,0.0,0.0,0.0,0.0,0.0,0.0,0.0,0.0,0.0,-0.0009858464954413052,-0.00028142594457653816,0.09416055441680454,0.0,0.0,0.0,0.0,0.0,0.0,0.0,0.0,0.0,-0.044204765299013966,0.06039328689940674,0.0020702402134049687,0.0,0.0,0.0,0.0,0.0,0.0,0.0,0.0,0.0
4.438,127,4,438000000,base_footprint,-0.0037949519254149664,0.0006395811475953444,0.9858938965808747,0.1673272660399945,0.0,0.0,0.0,0.0,0.0,0.0,0.0,0.0,0.0,-0.0009025396398840466,-0.0003541876118365744,0.08275639089256491,0.0,0.0,0.0,0.0,0.0,0.0,0.0,0.0,0.0,0.20595778693279168,-0.13790701787292145,0.0018968477727411728,0.0,0.0,0.0,0.0,0.0,0.0,0.0,0.0,0.0
4.472,128,4,472000000,base_footprint,-0.0038014347416931125,0.0006351575257584903,0.9860261799368448,0.1665458439828954,0.0,0.0,0.0,0.0,0.0,0.0,0.0,0.0,0.0,-0.00038042101920055665,3.510675053891725e-05,0.04083244543776924,0.0,0.0,0.0,0.0,0.0,0.0,0.0,0.0,0.0,0.09346878015705751,-0.060723227942776195,2.5571281491365322e-05,0.0,0.0,0.0,0.0,0.0,0.0,0.0,0.0,0.0
4.506,129,4,506000000,base_footprint,-0.003801873725478327,0.0006331424594096861,0.9861409308798734,0.16586503347655462,0.0,0.0,0.0,0.0,0.0,0.0,0.0,0.0,0.0,-0.00029148332353111405,-5.231565868945136e-05,0.04074638861607424,0.0,0.0,0.0,0.0,0.0,0.0,0.0,0.0,0.0,0.006384898679219923,0.006356915134849985,9.441179813874459e-05,0.0,0.0,0.0,0.0,0.0,0.0,0.0,0.0,0.0
4.54,130,4,540000000,base_footprint,-0.003802789684043944,0.0006307907546921188,0.9862698320246028,0.16509681805475435,0.0,0.0,0.0,0.0,0.0,0.0,0.0,0.0,0.0,-0.00034978227683785855,-0.00013974250854764612,0.04968956580247027,0.0,0.0,0.0,0.0,0.0,0.0,0.0,0.0,0.0,0.004722338990025525,0.0089958627648854,0.00012500730048856646,0.0,0.0,0.0,0.0,0.0,0.0,0.0,0.0,0.0
4.574,131,4,574000000,base_footprint,-0.0038039198584967847,0.0006283266773649095,0.9864074739460823,0.16427242843096296,0.0,0.0,0.0,0.0,0.0,0.0,0.0,0.0,0.0,-0.00023465940236075508,-7.179868440896596e-05,0.048822185130602144,0.0,0.0,0.0,0.0,0.0,0.0,0.0,0.0,0.0,0.00631063848007824,0.008792811050947173,-0.00016919709018433304,0.0,0.0,0.0,0.0,0.0,0.0,0.0,0.0,0.0
4.608,132,4,608000000,base_footprint,-0.003805878851948716,0.0006261297997460853,0.9865373161305142,0.16349081665231227,0.0,0.0,0.0,0.0,0.0,0.0,0.0,0.0,0.0,-0.0005057237145558125,-7.7933486538141e-05,0.04117671215337401,0.0,0.0,0.0,0.0,0.0,0.0,0.0,0.0,0.0,-0.00483128576511366,0.017544478664865602,0.0003305819898899028,0.0,0.0,0.0,0.0,0.0,0.0,0.0,0.0,0.0
4.642,133,4,642000000,base_footprint,-0.0038009358034798595,0.0006174497297626333,0.9866292943905383,0.16293497811482316,0.0,0.0,0.0,0.0,0.0,0.0,0.0,0.0,0.0,-0.00038996011855900773,-1.5524862223327576e-05,0.032829112507109494,0.0,0.0,0.0,0.0,0.0,0.0,0.0,0.0,0.0,-0.024829584712996434,0.027882135750642127,-0.0005124947660931004,0.0,0.0,0.0,0.0,0.0,0.0,0.0,0.0,0.0
4.676,134,4,676000000,base_footprint,-0.003805169751189251,0.0006175906323746208,0.9867559323815734,0.16216617765350178,0.0,0.0,0.0,0.0,0.0,0.0,0.0,0.0,0.0,0.00038470779904485245,0.0004221692939817581,0.056785347049694325,0.0,0.0,0.0,0.0,0.0,0.0,0.0,0.0,0.0,0.04677108109118385,-0.023731523305671628,-0.0009585840419275144,0.0,0.0,0.0,0.0,0.0,0.0,0.0,0.0,0.0
4.71,135,4,710000000,base_footprint,-0.0038059868013759607,0.0006131725889747845,0.9869096783747031,0.16122786736226474,0.0,0.0,0.0,0.0,0.0,0.0,0.0,0.0,0.0,-0.0004611351870485172,9.406792603963836e-05,0.05578817867194694,0.0,0.0,0.0,0.0,0.0,0.0,0.0,0.0,0.0,0.005986951179928705,0.010856293128297785,0.001067844315637355,0.0,0.0,0.0,0.0,0.0,0.0,0.0,0.0,0.0
4.744,136,4,744000000,base_footprint,-0.0038069929007446763,0.0006108417468850047,0.9869719271499757,0.16084635120287075,0.0,0.0,0.0,0.0,0.0,0.0,0.0,0.0,0.0,-0.0032944066825827713,-0.0019311666524500083,-0.036986822324513946,0.0,0.0,0.0,0.0,0.0,0.0,0.0,0.0,0.0,-0.2532324633241779,0.19846495323606494,0.0010756935069028046,0.0,0.0,0.0,0.0,0.0,0.0,0.0,0.0,0.0
4.7780000000000005,137,4,778000000,base_footprint,-0.0038068651672065355,0.0006131686301777144,0.9868755618259902,0.1614365425560958,0.0,0.0,0.0,0.0,0.0,0.0,0.0,0.0,0.0,0.00014061604773887742,-4.306445070263874e-05,-0.03476109399741682,0.0,0.0,0.0,0.0,0.0,0.0,0.0,0.0,0.0,-0.001729378026761107,-0.00722911139345222,-0.0034940293534845707,0.0,0.0,0.0,0.0,0.0,0.0,0.0,0.0,0.0
4.812,138,4,812000000,base_footprint,-0.0038066330466640028,0.0006157149663699978,0.9867862974565353,0.1619812754362383,0.0,0.0,0.0,0.0,0.0,0.0,0.0,0.0,0.0,4.818049994509153e-05,-0.0003680630544848336,-0.028302091175581683,0.0,0.0,0.0,0.0,0.0,0.0,0.0,0.0,0.0,-0.017345316729811124,0.003866432809414319,0.0005546164939845061,0.0,0.0,0.0,0.0,0.0,0.0,0.0,0.0,0.0
4.846,139,4,846000000,base_footprint,-0.003799145255622714,0.0006180087336505584,0.986859814604736,0.1615329405379537,0.0,0.0,0.0,0.0,0.0,0.0,0.0,0.0,0.0,0.00021658906403620225,0.0009652597493434997,0.08622052779179364,0.0,0.0,0.0,0.0,0.0,0.0,0.0,0.0,0.0,0.20327204390285294,-0.14859208850767033,0.0001926063958104851,0.0,0.0,0.0,0.0,0.0,0.0,0.0,0.0,0.0
4.88,140,4,880000000,base_footprint,-0.003806113247075765,0.0006108588122613565,0.9870335427466544,0.16046783430473038,0.0,0.0,0.0,0.0,0.0,0.0,0.0,0.0,0.0,-0.0007401742974186508,-0.0005130207840541805,0.05686846121574543,0.0,0.0,0.0,0.0,0.0,0.0,0.0,0.0,0.0,0.07048613308650034,-0.035534731568203345,0.0027606668512361694,0.0,0.0,0.0,0.0,0.0,0.0,0.0,0.0,0.0
4.914,141,4,914000000,base_footprint,-0.0038060424984189185,0.0006078490691551932,0.9871861847271273,0.1595261146142149,0.0,0.0,0.0,0.0,0.0,0.0,0.0,0.0,0.0,-0.0005466022453136011,3.5527250511626634e-05,0.056264374724422424,0.0,0.0,0.0,0.0,0.0,0.0,0.0,0.0,0.0,0.009365573403505866,0.008343478079389701,-0.0007325787239158162,0.0,0.0,0.0,0.0,0.0,0.0,0.0,0.0,0.0
4.948,142,4,948000000,base_footprint,-0.0038060079356270747,0.0006063823514228454,0.9872668838829948,0.15902593056479652,0.0,0.0,0.0,0.0,0.0,0.0,0.0,0.0,0.0,-0.00026311412581238975,-0.00027447509618636214,0.00018975519004807754,0.0,0.0,0.0,0.0,0.0,0.0,0.0,0.0,0.0,-0.25636732248112176,0.19928531532615446,-0.0021857897134642786,0.0,0.0,0.0,0.0,0.0,0.0,0.0,0.0,0.0
4.982,143,4,982000000,base_footprint,-0.0038062833243837986,0.0006070311272646789,0.9872663565748389,0.15902919510551675,0.0,0.0,0.0,0.0,0.0,0.0,0.0,0.0,0.0,-2.1594750702156888e-05,-0.00011004418020907545,-6.204421637487276e-05,0.0,0.0,0.0,0.0,0.0,0.0,0.0,0.0,0.0,0.000942675905828356,-0.0007579087676369555,-0.0003489624550148884,0.0,0.0,0.0,0.0,0.0,0.0,0.0,0.0,0.0
5.016,144,5,16000000,base_footprint,-0.003806527957772723,0.0006076198652026341,0.9872651847903597,0.15903646136613725,0.0,0.0,0.0,0.0,0.0,0.0,0.0,0.0,0.0,3.0485739921216864e-05,-0.00016040824539768453,-0.00043839554790825046,0.0,0.0,0.0,0.0,0.0,0.0,0.0,0.0,0.0,0.00035174377203895583,-0.0003141477157820782,6.186652100707152e-05,0.0,0.0,0.0,0.0,0.0,0.0,0.0,0.0,0.0
5.05,145,5,50000000,base_footprint,-0.0038073084566321415,0.0006110364925288515,0.9871804165707173,0.15956176288818644,0.0,0.0,0.0,0.0,0.0,0.0,0.0,0.0,0.0,0.00015369852894389914,-5.725194974917025e-05,-0.02680492167825679,0.0,0.0,0.0,0.0,0.0,0.0,0.0,0.0,0.0,0.17759909594480944,-0.13993379490305616,0.001684406284074228,0.0,0.0,0.0,0.0,0.0,0.0,0.0,0.0,0.0
5.084,146,5,84000000,base_footprint,-0.003808063696525937,0.0006121798457600465,0.9871274957487087,0.1598888083125351,0.0,0.0,0.0,0.0,0.0,0.0,0.0,0.0,0.0,8.244630665829244e-05,-0.00017247082897508016,-0.021388904615912772,0.0,0.0,0.0,0.0,0.0,0.0,0.0,0.0,0.0,0.007988612089510828,-0.010962094663487956,0.00029301196986905896,0.0,0.0,0.0,0.0,0.0,0.0,0.0,0.0,0.0
5.118,147,5,118000000,base_footprint,-0.0038025554816660807,0.0006077933630907016,0.9870410604241655,0.16042168243655688,0.0,0.0,0.0,0.0,0.0,0.0,0.0,0.0,0.0,0.00015155097527702366,-0.00016457547511375875,-0.034830798156641855,0.0,0.0,0.0,0.0,0.0,0.0,0.0,0.0,0.0,-0.025702145968269377,0.01067220815779327,-0.00033970410097768663,0.0,0.0,0.0,0.0,0.0,0.0,0.0,0.0,0.0
5.152,148,5,152000000,base_footprint,-0.003802433016013549,0.0006089818850713648,0.9869700058019478,0.16085825527937744,0.0,0.0,0.0,0.0,0.0,0.0,0.0,0.0,0.0,-7.831873012311609e-05,-0.00010814532873687667,-0.007578607843474466,0.0,0.0,0.0,0.0,0.0,0.0,0.0,0.0,0.0,0.054607487878321787,-0.04897666964551885,0.00039901030956328564,0.0,0.0,0.0,0.0,0.0,0.0,0.0,0.0,0.0
5.186,149,5,186000000,base_footprint,-0.0038059633222374527,0.000610885469370929,0.9870026793594198,0.16065756253429092,0.0,0.0,0.0,0.0,0.0,0.0,0.0,0.0,0.0,-2.6560184490172498e-05,7.923826821183466e-05,0.016294713492997773,0.0,0.0,0.0,0.0,0.0,0.0,0.0,0.0,0.0,0.042572374617023935,-0.029352147200658468,2.7064173955005332e-05,0.0,0.0,0.0,0.0,0.0,0.0,0.0,0.0,0.0
5.22,150,5,220000000,base_footprint,-0.003806499493854769,0.0006093500941250514,0.9870474932494256,0.16038199812975057,0.0,0.0,0.0,0.0,0.0,0.0,0.0,0.0,0.0,-0.00021493383997307427,1.3766892654742631e-05,0.016258595203168184,0.0,0.0,0.0,0.0,0.0,0.0,0.0,0.0,0.0,0.0024784329136974172,0.0025418707413700265,0.0001488535017726024,0.0,0.0,0.0,0.0,0.0,0.0,0.0,0.0,0.0
5.254,151,5,254000000,base_footprint,-0.0038000649847689284,0.0006146068911641385,0.9869629426849476,0.16090162066042046,0.0,0.0,0.0,0.0,0.0,0.0,0.0,0.0,0.0,-0.0029784412724654583,-0.0021820430560447433,-0.017735788807001503,0.0,0.0,0.0,0.0,0.0,0.0,0.0,0.0,0.0,-0.2784485431268842,0.20337513646510152,0.0019791213554272496,0.0,0.0,0.0,0.0,0.0,0.0,0.0,0.0,0.0
5.289,152,5,288000000,base_footprint,-0.0038075519705301746,0.0006095040789720074,0.9870479552188806,0.16037912941214158,0.0,0.0,0.0,0.0,0.0,0.0,0.0,0.0,0.0,-0.0004389253873761669,0.00016907263695199867,0.041942319141995685,0.0,0.0,0.0,0.0,0.0,0.0,0.0,0.0,0.0,-0.014157284211888683,0.017291873464928238,-0.00466134390746327,0.0,0.0,0.0,0.0,0.0,0.0,0.0,0.0,0.0
5.324,153,5,322000000,base_footprint,-0.0038064401958964934,0.0006051093731769868,0.987166373190735,0.1596486658169506,0.0,0.0,0.0,0.0,0.0,0.0,0.0,0.0,0.0,-0.0024647240639780995,0.00474872001992331,0.055870061822008724,0.0,0.0,0.0,0.0,0.0,0.0,0.0,0.0,0.0,0.01964665191905845,-0.005237799365956626,-0.007062768239972595,0.0,0.0,0.0,0.0,0.0,0.0,0.0,0.0,0.0
5.356,154,5,356000000,base_footprint,-0.0038028602448522963,0.0006010040695433279,0.9874811359312125,0.15769014943257842,0.0,0.0,0.0,0.0,0.0,0.0,0.0,0.0,0.0,-0.0018479529020281067,-0.0023588941482632357,0.1337539648877466,0.0,0.0,0.0,0.0,0.0,0.0,0.0,0.0,0.0,0.03805574792847676,0.002524366308557047,0.011975513784980041,0.0,0.0,0.0,0.0,0.0,0.0,0.0,0.0,0.0
5.389,155,5,390000000,base_footprint,-0.003802193341069252,0.0005958817864297713,0.9877784501267228,0.1558169493859481,0.0,0.0,0.0,0.0,0.0,0.0,0.0,0.0,0.0,-0.000588201638784924,6.636463159843638e-05,0.06554955524486068,0.0,0.0,0.0,0.0,0.0,0.0,0.0,0.0,0.0,0.22746585776551562,-0.1346728046609163,-0.0021668726473450077,0.0,0.0,0.0,0.0,0.0,0.0,0.0,0.0,0.0
5.424,156,5,424000000,base_footprint,-0.0038169372030522905,0.0005880103581509566,0.9879109249152157,0.154974480697209,0.0,0.0,0.0,0.0,0.0,0.0,0.0,0.0,0.0,-0.00010931726979894081,0.0022730286332134815,0.049846437398942886,0.0,0.0,0.0,0.0,0.0,0.0,0.0,0.0,0.0,-0.03351345240974735,0.03744981226965969,-0.0037196241674916156,0.0,0.0,0.0,0.0,0.0,0.0,0.0,0.0,0.0
5.458,157,5,458000000,base_footprint,-0.003800266212839702,0.000589506207829721,0.9881110615629067,0.15369365789182116,0.0,0.0,0.0,0.0,0.0,0.0,0.0,0.0,0.0,-0.0034865634597682294,-0.0013425235087533372,0.1130060647399605,0.0,0.0,0.0,0.0,0.0,0.0,0.0,0.0,0.0,-0.4065372267894558,0.3078492158615508,0.0025810951150803275,0.0,0.0,0.0,0.0,0.0,0.0,0.0,0.0,0.0
5.492,158,5,492000000,base_footprint,-0.0038102410601274,0.0005825850733913263,0.9882865685064687,0.15256081137502267,0.0,0.0,0.0,0.0,0.0,0.0,0.0,0.0,0.0,-0.00028313350808143324,0.0002030184060989012,0.04894728571879935,0.0,0.0,0.0,0.0,0.0,0.0,0.0,0.0,0.0,0.2237785480950438,-0.13985947616500483,-0.0013415316922474915,0.0,0.0,0.0,0.0,0.0,0.0,0.0,0.0,0.0
5.526,159,5,526000000,base_footprint,-0.0038169933892102732,0.000581330767534908,0.9884274157183346,0.15164543010714174,0.0,0.0,0.0,0.0,0.0,0.0,0.0,0.0,0.0,-0.001142562610150743,-0.0008579905428973857,0.10020970699782254,0.0,0.0,0.0,0.0,0.0,0.0,0.0,0.0,0.0,-0.04197143361331566,0.042494522935426896,0.0007055054707588612,0.0,0.0,0.0,0.0,0.0,0.0,0.0,0.0,0.0
5.5600000000000005,160,5,560000000,base_footprint,-0.0038095777976842595,0.0005732969901871007,0.9886919523512667,0.14991124642069145,0.0,0.0,0.0,0.0,0.0,0.0,0.0,0.0,0.0,1.3890926710109886e-05,0.0008423648977247568,0.05435368597003974,0.0,0.0,0.0,0.0,0.0,0.0,0.0,0.0,0.0,0.10522396215659988,-0.04502479279289652,-0.0009169659043153184,0.0,0.0,0.0,0.0,0.0,0.0,0.0,0.0,0.0
5.594,161,5,594000000,base_footprint,-0.0038083341834966463,0.0005690765244121041,0.9886289971214423,0.15032590858966222,0.0,0.0,0.0,0.0,0.0,0.0,0.0,0.0,0.0,0.00018966518468537395,-0.00024071284129808734,-0.039400762391311656,0.0,0.0,0.0,0.0,0.0,0.0,0.0,0.0,0.0,0.08480640976268483,-0.063993633616596,0.0020351271523512387,0.0,0.0,0.0,0.0,0.0,0.0,0.0,0.0,0.0
5.628,162,5,628000000,base_footprint,-0.003808075192528724,0.0005703541059265884,0.9885571281576946,0.15079780379081548,0.0,0.0,0.0,0.0,0.0,0.0,0.0,0.0,0.0,-2.808406198309987e-05,-0.00019759346510084757,-0.009495801694604379,0.0,0.0,0.0,0.0,0.0,0.0,0.0,0.0,0.0,0.043726554620690014,-0.038178352892522596,0.0003220051173640704,0.0,0.0,0.0,0.0,0.0,0.0,0.0,0.0,0.0
5.662,163,5,662000000,base_footprint,-0.0038112378348153396,0.0005711663508210024,0.9886148225214954,0.15041901783337883,0.0,0.0,0.0,0.0,0.0,0.0,0.0,0.0,0.0,0.0009992428483390724,0.0007970288936775561,0.04958522078219099,0.0,0.0,0.0,0.0,0.0,0.0,0.0,0.0,0.0,0.10515598469587581,-0.06777652321642767,-0.0011000735002818453,0.0,0.0,0.0,0.0,0.0,0.0,0.0,0.0,0.0
5.696,164,5,696000000,base_footprint,-0.003812829236367403,0.0005678695319796674,0.9887400666419436,0.1495935174875369,0.0,0.0,0.0,0.0,0.0,0.0,0.0,0.0,0.0,-0.0004289768576795382,6.311867558129769e-05,0.04899890198348918,0.0,0.0,0.0,0.0,0.0,0.0,0.0,0.0,0.0,0.005337405286341011,0.009471547231297162,0.0016832802457398869,0.0,0.0,0.0,0.0,0.0,0.0,0.0,0.0,0.0
5.73,165,5,730000000,base_footprint,-0.0038145502608245333,0.0005640131339931454,0.9888745011899127,0.14870222591438853,0.0,0.0,0.0,0.0,0.0,0.0,0.0,0.0,0.0,-0.0005077688368745807,0.0006394120723357835,0.06345116504561163,0.0,0.0,0.0,0.0,0.0,0.0,0.0,0.0,0.0,0.00035576525022238824,0.01346729470224161,-0.0009631006855957089,0.0,0.0,0.0,0.0,0.0,0.0,0.0,0.0,0.0
5.764,166,5,764000000,base_footprint,-0.00381514592595812,0.0005598576165861642,0.9890313894201815,0.14765514539831734,0.0,0.0,0.0,0.0,0.0,0.0,0.0,0.0,0.0,-0.0006316631214372937,0.00018013722273700633,0.061922589407752,0.0,0.0,0.0,0.0,0.0,0.0,0.0,0.0,0.0,0.011921009248202852,0.009422385449688046,0.000935844507374824,0.0,0.0,0.0,0.0,0.0,0.0,0.0,0.0,0.0
5.798,167,5,798000000,base_footprint,-0.003816324597584141,0.0005559988639530963,0.9891902547206519,0.14658706115316336,0.0,0.0,0.0,0.0,0.0,0.0,0.0,0.0,0.0,-0.0006428857032580491,-0.00024514188681514247,0.06898517608024611,0.0,0.0,0.0,0.0,0.0,0.0,0.0,0.0,0.0,-0.007191709956815173,0.020871057380782588,0.000699486399480102,0.0,0.0,0.0,0.0,0.0,0.0,0.0,0.0,0.0
5.832,168,5,832000000,base_footprint,-0.0038176535642510203,0.0005517094906919075,0.9893609998101343,0.1454301660337122,0.0,0.0,0.0,0.0,0.0,0.0,0.0,0.0,0.0,-0.0008720337064603022,-0.0003116213955132142,0.07247638961516274,0.0,0.0,0.0,0.0,0.0,0.0,0.0,0.0,0.0,0.017953930650921296,0.005892454031627513,0.00021668242903081575,0.0,0.0,0.0,0.0,0.0,0.0,0.0,0.0,0.0
5.866,169,5,866000000,base_footprint,-0.0038154913817054215,0.0005483719477625067,0.989540835858296,0.1442015099871978,0.0,0.0,0.0,0.0,0.0,0.0,0.0,0.0,0.0,-0.000664566450414017,9.349507886668431e-05,0.07306993628755884,0.0,0.0,0.0,0.0,0.0,0.0,0.0,0.0,0.0,0.007777396254752231,0.01407408745144908,-0.0005928315700397332,0.0,0.0,0.0,0.0,0.0,0.0,0.0,0.0,0.0
5.9,170,5,900000000,base_footprint,-0.0038159508585353993,0.0005442536476315379,0.9897186506248274,0.14297599418218104,0.0,0.0,0.0,0.0,0.0,0.0,0.0,0.0,0.0,-0.0006089443069262079,5.216473206245624e-05,0.0730742124934246,0.0,0.0,0.0,0.0,0.0,0.0,0.0,0.0,0.0,0.009561744475699973,0.012846863740402769,2.0666116899905827e-05,0.0,0.0,0.0,0.0,0.0,0.0,0.0,0.0,0.0
5.934,171,5,934000000,base_footprint,-0.0038161733502613095,0.0005397973985748083,0.9899190752124097,0.14158167243798478,0.0,0.0,0.0,0.0,0.0,0.0,0.0,0.0,0.0,-0.0003686203703195844,0.0007954139883936916,0.09814560370669413,0.0,0.0,0.0,0.0,0.0,0.0,0.0,0.0,0.0,0.004798752731242669,0.018183538668510565,-0.0009024618713946716,0.0,0.0,0.0,0.0,0.0,0.0,0.0,0.0,0.0
5.968,172,5,968000000,base_footprint,-0.0038177579230905586,0.0005339872582304992,0.9901535026854106,0.13993277207952987,0.0,0.0,0.0,0.0,0.0,0.0,0.0,0.0,0.0,-0.0006899914860098772,8.284091756413582e-05,0.09796181128223035,0.0,0.0,0.0,0.0,0.0,0.0,0.0,0.0,0.0,0.011818472930298496,0.017981549478659306,0.0008224765816114083,0.0,0.0,0.0,0.0,0.0,0.0,0.0,0.0,0.0
6.001,173,6,2000000,base_footprint,-0.0038193333334201607,0.0005286152781138348,0.9903836158366107,0.1382947097367673,0.0,0.0,0.0,0.0,0.0,0.0,0.0,0.0,0.0,-0.000561489046541027,7.670059492315429e-05,0.09675440322270622,0.0,0.0,0.0,0.0,0.0,0.0,0.0,0.0,0.0,0.01049241241214631,0.019239080540746443,-3.313067026539701e-05,0.0,0.0,0.0,0.0,0.0,0.0,0.0,0.0,0.0
6.036,174,6,36000000,base_footprint,-0.0038203444674928273,0.0005220317706806256,0.9905912651613635,0.13679940729765383,0.0,0.0,0.0,0.0,0.0,0.0,0.0,0.0,0.0,-0.0012766122141934177,-0.00036448864310527736,0.07441422392742393,0.0,0.0,0.0,0.0,0.0,0.0,0.0,0.0,0.0,-0.014062039717864194,0.0313704711134611,0.0012116125540815132,0.0,0.0,0.0,0.0,0.0,0.0,0.0,0.0,0.0
6.07,175,6,70000000,base_footprint,-0.00381586573987666,0.0005123460738577954,0.9907568898349328,0.13559484472046446,0.0,0.0,0.0,0.0,0.0,0.0,0.0,0.0,0.0,-0.000630203828933732,-4.8468475672209653e-05,0.07787300218867335,0.0,0.0,0.0,0.0,0.0,0.0,0.0,0.0,0.0,0.0148993089144571,0.008984062390675932,-0.0008626437849797338,0.0,0.0,0.0,0.0,0.0,0.0,0.0,0.0,0.0
6.104,176,6,104000000,base_footprint,-0.003819937266540464,0.0005095656656759228,0.9909569798844812,0.13412461534088493,0.0,0.0,0.0,0.0,0.0,0.0,0.0,0.0,0.0,-0.00047817462710538373,0.00017920882772956882,0.0886268114917502,0.0,0.0,0.0,0.0,0.0,0.0,0.0,0.0,0.0,0.030220401330324685,0.003983281193157798,-0.00029618100926401606,0.0,0.0,0.0,0.0,0.0,0.0,0.0,0.0,0.0
6.138,177,6,138000000,base_footprint,-0.003821137718647434,0.0005005847702790223,0.9912479672635438,0.1319568706711229,0.0,0.0,0.0,0.0,0.0,0.0,0.0,0.0,0.0,-3.083330785038567e-05,0.0013470974156588433,0.19146646770275266,0.0,0.0,0.0,0.0,0.0,0.0,0.0,0.0,0.0,-0.007377623684467496,0.03554767722357127,-0.0017935385088787617,0.0,0.0,0.0,0.0,0.0,0.0,0.0,0.0,0.0
6.172,178,6,172000000,base_footprint,-0.003823434921344287,0.00048780397711985555,0.9916712205862668,0.1287374601801124,0.0,0.0,0.0,0.0,0.0,0.0,0.0,0.0,0.0,-0.0014945150485708495,0.0003202667402762579,0.19084583294578003,0.0,0.0,0.0,0.0,0.0,0.0,0.0,0.0,0.0,0.020152544604153073,0.03659135235260762,0.001856285521230149,0.0,0.0,0.0,0.0,0.0,0.0,0.0,0.0,0.0
6.21,179,6,206000000,base_footprint,-0.0038255101187742255,0.000475008857587248,0.9920844883369777,0.1255129787714148,0.0,0.0,0.0,0.0,0.0,0.0,0.0,0.0,0.0,-0.0015531185899620432,0.000314942632680684,0.19122241855892338,0.0,0.0,0.0,0.0,0.0,0.0,0.0,0.0,0.0,0.020249919813908716,0.03644992492377808,0.000115136389353094,0.0,0.0,0.0,0.0,0.0,0.0,0.0,0.0,0.0
6.24,180,6,240000000,base_footprint,-0.003820935332406284,0.00046832036404080416,0.9924135615400205,0.12288410800699276,0.0,0.0,0.0,0.0,0.0,0.0,0.0,0.0,0.0,-0.0015188624549074652,-0.0014178442486736513,0.10339446981731973,0.0,0.0,0.0,0.0,0.0,0.0,0.0,0.0,0.0,-0.23615012930652987,0.16759424035486134,-8.111771845357573e-05,0.0,0.0,0.0,0.0,0.0,0.0,0.0,0.0,0.0
6.274,181,6,274000000,base_footprint,-0.003830057551231253,0.0004563626771546318,0.9926548866880835,0.12091897422046355,0.0,0.0,0.0,0.0,0.0,0.0,0.0,0.0,0.0,-0.0010891410230211796,0.0003046865542785804,0.11968134098934567,0.0,0.0,0.0,0.0,0.0,0.0,0.0,0.0,0.0,-0.026058465522234748,0.0403399254215419,-0.002430879147453838,0.0,0.0,0.0,0.0,0.0,0.0,0.0,0.0,0.0
6.308,182,6,308000000,base_footprint,-0.003825489394957209,0.0004519985467163998,0.9929075991295505,0.11882617943447767,0.0,0.0,0.0,0.0,0.0,0.0,0.0,0.0,0.0,-0.0009804200569464168,1.5347819568016887e-05,0.12287290360163351,0.0,0.0,0.0,0.0,0.0,0.0,0.0,0.0,0.0,0.0048486933663476894,0.02633105389582718,0.0004111044558399362,0.0,0.0,0.0,0.0,0.0,0.0,0.0,0.0,0.0
6.342,183,6,342000000,base_footprint,-0.0038231945176586206,0.0004454787850823309,0.9931713955639347,0.1166008737785386,0.0,0.0,0.0,0.0,0.0,0.0,0.0,0.0,0.0,-0.0010405963023027418,-1.7434811049807646e-06,0.12959152693602863,0.0,0.0,0.0,0.0,0.0,0.0,0.0,0.0,0.0,0.1807006104510338,-0.06071199918964745,0.0015828503578712639,0.0,0.0,0.0,0.0,0.0,0.0,0.0,0.0,0.0
6.376,184,6,376000000,base_footprint,-0.0038309150367964156,0.0004371628281957905,0.9933466043823566,0.11509846454529589,0.0,0.0,0.0,0.0,0.0,0.0,0.0,0.0,0.0,-0.00044139394172624293,0.0015226111087624412,0.06021821276803114,0.0,0.0,0.0,0.0,0.0,0.0,0.0,0.0,0.0,0.17225913657566003,-0.06394505693111224,-0.0011115526975555563,0.0,0.0,0.0,0.0,0.0,0.0,0.0,0.0,0.0
6.41,185,6,410000000,base_footprint,-0.003830682881018565,0.0004339084323319387,0.9934653505794366,0.1140689913614327,0.0,0.0,0.0,0.0,0.0,0.0,0.0,0.0,0.0,-0.0004489135179759795,-3.50840483734642e-06,0.06101828463737076,0.0,0.0,0.0,0.0,0.0,0.0,0.0,0.0,0.0,0.0035884670494658925,0.013060636159545228,0.002161117963759124,0.0,0.0,0.0,0.0,0.0,0.0,0.0,0.0,0.0
6.444,186,6,444000000,base_footprint,-0.003831792204166349,0.0004290373954735495,0.9936362002764877,0.11257102111787522,0.0,0.0,0.0,0.0,0.0,0.0,0.0,0.0,0.0,-0.0005929463000277102,-0.00010369585145751675,0.1027937519022146,0.0,0.0,0.0,0.0,0.0,0.0,0.0,0.0,0.0,-0.003083158429684742,0.023031876095391344,-0.00010741673624990667,0.0,0.0,0.0,0.0,0.0,0.0,0.0,0.0,0.0
6.478,187,6,478000000,base_footprint,-0.0038337637481449206,0.00042341365240647225,0.9938294940255268,0.11085152133086806,0.0,0.0,0.0,0.0,0.0,0.0,0.0,0.0,0.0,-0.000835138096032244,9.396870230090156e-05,0.09812804401484625,0.0,0.0,0.0,0.0,0.0,0.0,0.0,0.0,0.0,0.002694174599998619,0.023893435526488472,0.0002947452620310322,0.0,0.0,0.0,0.0,0.0,0.0,0.0,0.0,0.0
6.5120000000000005,188,6,512000000,base_footprint,-0.003828407575675576,0.0004117006304366351,0.993989696468816,0.10940592813854541,0.0,0.0,0.0,0.0,0.0,0.0,0.0,0.0,0.0,-0.0006817126539588592,-7.860824342489518e-05,0.0801122481590145,0.0,0.0,0.0,0.0,0.0,0.0,0.0,0.0,0.0,-0.02518242235421104,0.0322816996334811,-0.00012424417470926162,0.0,0.0,0.0,0.0,0.0,0.0,0.0,0.0,0.0
6.546,189,6,546000000,base_footprint,-0.0038325417164385566,0.0004101225603324929,0.9941326690883251,0.10809893466080077,0.0,0.0,0.0,0.0,0.0,0.0,0.0,0.0,0.0,-0.0006589061845935795,-0.00021976066482707287,0.0775498845386028,0.0,0.0,0.0,0.0,0.0,0.0,0.0,0.0,0.0,0.0543166332795255,-0.006815191617546079,0.00046857956006939256,0.0,0.0,0.0,0.0,0.0,0.0,0.0,0.0,0.0
6.58,190,6,580000000,base_footprint,-0.003832370916096638,0.00040426895732821605,0.9942744844453064,0.10678669898817858,0.0,0.0,0.0,0.0,0.0,0.0,0.0,0.0,0.0,-0.0005339505423852826,-3.59083358537062e-05,0.07745298606609424,0.0,0.0,0.0,0.0,0.0,0.0,0.0,0.0,0.0,0.008081673078476482,0.014987382152867584,-0.00020588772240011691,0.0,0.0,0.0,0.0,0.0,0.0,0.0,0.0,0.0
6.6129999999999995,191,6,614000000,base_footprint,-0.0038330807899468727,0.00039869629842890353,0.994414451899892,0.10547533543704318,0.0,0.0,0.0,0.0,0.0,0.0,0.0,0.0,0.0,-0.0006218271870570723,4.0461828062537014e-05,0.07735801955215128,0.0,0.0,0.0,0.0,0.0,0.0,0.0,0.0,0.0,0.008056143864672082,0.015002089410573658,-0.00014049275116534041,0.0,0.0,0.0,0.0,0.0,0.0,0.0,0.0,0.0
6.649,192,6,648000000,base_footprint,-0.0038340837466216103,0.00039286950075349754,0.994562569485803,0.10406940392438396,0.0,0.0,0.0,0.0,0.0,0.0,0.0,0.0,0.0,-0.0007265142245981226,4.7499079247533476e-05,0.08418241055890492,0.0,0.0,0.0,0.0,0.0,0.0,0.0,0.0,0.0,0.0069261189492142465,0.01671667796086225,4.533423028913451e-05,0.0,0.0,0.0,0.0,0.0,0.0,0.0,0.0,0.0
6.682,193,6,682000000,base_footprint,-0.003835278889982322,0.0003869572420319855,0.9947108873184706,0.10264205546475597,0.0,0.0,0.0,0.0,0.0,0.0,0.0,0.0,0.0,-0.000769084195224361,6.014768271395951e-05,0.08437551937255547,0.0,0.0,0.0,0.0,0.0,0.0,0.0,0.0,0.0,0.00786057126581941,0.016707222204423028,5.487233495247541e-05,0.0,0.0,0.0,0.0,0.0,0.0,0.0,0.0,0.0
6.719,194,6,716000000,base_footprint,-0.003836439114370418,0.00038119117477591484,0.9948577284234973,0.10120887621275543,0.0,0.0,0.0,0.0,0.0,0.0,0.0,0.0,0.0,-0.0008021597161891648,8.044556106791471e-05,0.08485594516700318,0.0,0.0,0.0,0.0,0.0,0.0,0.0,0.0,0.0,0.006973350533521409,0.01720045334323182,-2.8883151161481777e-05,0.0,0.0,0.0,0.0,0.0,0.0,0.0,0.0,0.0
6.75,195,6,750000000,base_footprint,-0.0038380506591188007,0.0003753176060585332,0.9950033438953498,0.09976709949129044,0.0,0.0,0.0,0.0,0.0,0.0,0.0,0.0,0.0,-0.0008370326645458898,0.00015542955815333698,0.08528929020552664,0.0,0.0,0.0,0.0,0.0,0.0,0.0,0.0,0.0,0.0072007739342107475,0.017988334454175994,-0.00014779464220305937,0.0,0.0,0.0,0.0,0.0,0.0,0.0,0.0,0.0
6.785,196,6,784000000,base_footprint,-0.0038390130381456117,0.0003699150891239431,0.9951565031302634,0.09822758990866984,0.0,0.0,0.0,0.0,0.0,0.0,0.0,0.0,0.0,-0.0007830802746520907,-0.00024493350409809017,0.09707001268416125,0.0,0.0,0.0,0.0,0.0,0.0,0.0,0.0,0.0,-0.005430542749799082,0.02323840291171489,0.0006732130635372516,0.0,0.0,0.0,0.0,0.0,0.0,0.0,0.0,0.0
6.816,197,6,818000000,base_footprint,-0.0038397375582853856,0.0003644065211583521,0.9953133858427378,0.0966249842723734,0.0,0.0,0.0,0.0,0.0,0.0,0.0,0.0,0.0,-0.0007324294405841037,-0.00016801448561638117,0.09389268077979017,0.0,0.0,0.0,0.0,0.0,0.0,0.0,0.0,0.0,0.016276985854731994,0.015596204756212843,-0.00017639652262494424,0.0,0.0,0.0,0.0,0.0,0.0,0.0,0.0,0.0
6.851,198,6,852000000,base_footprint,-0.003839849845745739,0.00035584286973590204,0.9955532023637241,0.0941219963257691,0.0,0.0,0.0,0.0,0.0,0.0,0.0,0.0,0.0,-0.0011858476365348702,-0.0003126878852060984,0.15752407329768392,0.0,0.0,0.0,0.0,0.0,0.0,0.0,0.0,0.0,-0.004895739390949841,0.03613800363017488,0.00010818887130696736,0.0,0.0,0.0,0.0,0.0,0.0,0.0,0.0,0.0
6.886,199,6,886000000,base_footprint,-0.0038400397697022637,0.00034677644811723123,0.9958005787943196,0.09146770530389531,0.0,0.0,0.0,0.0,0.0,0.0,0.0,0.0,0.0,-0.001136299886732453,0.0001148560191342313,0.1568019408541788,0.0,0.0,0.0,0.0,0.0,0.0,0.0,0.0,0.0,0.012987356039064073,0.031739558406963755,-0.0005036990093457588,0.0,0.0,0.0,0.0,0.0,0.0,0.0,0.0,0.0
6.924,200,6,920000000,base_footprint,-0.0038416118543818166,0.00033783989597721667,0.9960396127885833,0.08882689704438607,0.0,0.0,0.0,0.0,0.0,0.0,0.0,0.0,0.0,-0.0010128183401972453,0.0001941384364033559,0.15509779993902925,0.0,0.0,0.0,0.0,0.0,0.0,0.0,0.0,0.0,0.010063248869911981,0.03338267911144084,-0.00018135937671589713,0.0,0.0,0.0,0.0,0.0,0.0,0.0,0.0,0.0
6.954,201,6,954000000,base_footprint,-0.0038438554607745264,0.0003264077175440977,0.996311786509156,0.08572013938470203,0.0,0.0,0.0,0.0,0.0,0.0,0.0,0.0,0.0,-0.001953309503653593,-0.0009052307268202162,0.16951029147714336,0.0,0.0,0.0,0.0,0.0,0.0,0.0,0.0,0.0,-0.15571018779088763,0.09724754743411525,0.0006917038609335008,0.0,0.0,0.0,0.0,0.0,0.0,0.0,0.0,0.0
6.988,202,6,988000000,base_footprint,-0.0038427644354474128,0.0003157719399763115,0.9965024864399736,0.08347411556000864,0.0,0.0,0.0,0.0,0.0,0.0,0.0,0.0,0.0,-0.0026816465189737028,-0.0013547603186106576,0.09395984729884571,0.0,0.0,0.0,0.0,0.0,0.0,0.0,0.0,0.0,-0.13812178928115862,0.07858270418630647,6.414755498944922e-05,0.0,0.0,0.0,0.0,0.0,0.0,0.0,0.0,0.0
7.022,203,7,22000000,base_footprint,-0.0038410189277863953,0.0003088908528223656,0.9966409639730305,0.08180427917258552,0.0,0.0,0.0,0.0,0.0,0.0,0.0,0.0,0.0,-0.0003014448560411366,0.0001832341444099938,0.09683965416439767,0.0,0.0,0.0,0.0,0.0,0.0,0.0,0.0,0.0,0.01973786792143207,0.014986203144079028,-0.0029606557572678487,0.0,0.0,0.0,0.0,0.0,0.0,0.0,0.0,0.0
7.056,204,7,56000000,base_footprint,-0.003841493574174792,0.00030203992981224596,0.9967736218279324,0.08017168157789051,0.0,0.0,0.0,0.0,0.0,0.0,0.0,0.0,0.0,-0.0006794824403707597,-2.6680931232804717e-05,0.09617450693549506,0.0,0.0,0.0,0.0,0.0,0.0,0.0,0.0,0.0,0.006648618700240064,0.018883931952165013,0.0003569338112834655,0.0,0.0,0.0,0.0,0.0,0.0,0.0,0.0,0.0
7.09,205,7,90000000,base_footprint,-0.003842104140377626,0.0002954266445440044,0.9969034768613713,0.07854049134415755,0.0,0.0,0.0,0.0,0.0,0.0,0.0,0.0,0.0,-0.0007785489546010565,-1.7415518881960682e-06,0.09606036225198875,0.0,0.0,0.0,0.0,0.0,0.0,0.0,0.0,0.0,0.007347186896448006,0.018575939807646068,-2.4070418765208997e-05,0.0,0.0,0.0,0.0,0.0,0.0,0.0,0.0,0.0
7.124,206,7,124000000,base_footprint,-0.003837639220586538,0.0002854785580909311,0.9970301364077945,0.07691617594407855,0.0,0.0,0.0,0.0,0.0,0.0,0.0,0.0,0.0,-0.0017462166294907801,-0.0012946409443319957,0.09125634097179815,0.0,0.0,0.0,0.0,0.0,0.0,0.0,0.0,0.0,0.08377291167343488,-0.005616397161800483,0.002269645652463055,0.0,0.0,0.0,0.0,0.0,0.0,0.0,0.0,0.0
7.157,207,7,158000000,base_footprint,-0.003845004696548886,0.0002809859960259923,0.9971713661882432,0.0750626634221455,0.0,0.0,0.0,0.0,0.0,0.0,0.0,0.0,0.0,-0.0004924324966268511,-0.0006671369007977359,0.10206941956985961,0.0,0.0,0.0,0.0,0.0,0.0,0.0,0.0,0.0,0.2574375243009635,-0.05558943747491849,0.0021843783117841587,0.0,0.0,0.0,0.0,0.0,0.0,0.0,0.0,0.0
7.192,208,7,192000000,base_footprint,-0.0038452595100258785,0.00027427338742282923,0.9973016022784764,0.07331202388553536,0.0,0.0,0.0,0.0,0.0,0.0,0.0,0.0,0.0,-0.0009311313261111303,3.153116759406492e-05,0.10339850056619748,0.0,0.0,0.0,0.0,0.0,0.0,0.0,0.0,0.0,0.0041570759373117955,0.021936600395243536,-0.0018292163679507947,0.0,0.0,0.0,0.0,0.0,0.0,0.0,0.0,0.0
7.226,209,7,226000000,base_footprint,-0.0038442047940872495,0.0002707954285293409,0.9974249437427624,0.07161445635543363,0.0,0.0,0.0,0.0,0.0,0.0,0.0,0.0,0.0,-0.0010377522640812483,-0.002244519358828191,0.06884554708296867,0.0,0.0,0.0,0.0,0.0,0.0,0.0,0.0,0.0,-0.08725133140733138,0.04929132587687384,0.0023533736090531414,0.0,0.0,0.0,0.0,0.0,0.0,0.0,0.0,0.0
7.26,210,7,260000000,base_footprint,-0.0038415195124301494,0.00026773991397251217,0.9975033822526184,0.07051364008304269,0.0,0.0,0.0,0.0,0.0,0.0,0.0,0.0,0.0,-0.0007456486006787731,0.0005307039620869791,0.06855284190796675,0.0,0.0,0.0,0.0,0.0,0.0,0.0,0.0,0.0,-0.1617317011654085,0.06150616931324929,-0.005633379725556818,0.0,0.0,0.0,0.0,0.0,0.0,0.0,0.0,0.0
7.295,211,7,294000000,base_footprint,-0.003851288251785713,0.00025681848933797424,0.9975918463576882,0.06925034082027277,0.0,0.0,0.0,0.0,0.0,0.0,0.0,0.0,0.0,-0.0003423088910098091,-0.0009074793282138099,0.08323283117287457,0.0,0.0,0.0,0.0,0.0,0.0,0.0,0.0,0.0,-0.03130964058578058,0.024464237708393715,0.002410461883698275,0.0,0.0,0.0,0.0,0.0,0.0,0.0,0.0,0.0
7.328,212,7,328000000,base_footprint,-0.003843253875831819,0.00025787818979436627,0.9977063269772589,0.06758141762372494,0.0,0.0,0.0,0.0,0.0,0.0,0.0,0.0,0.0,-0.0008622098401670094,-0.0011253579481927734,0.10772775369972477,0.0,0.0,0.0,0.0,0.0,0.0,0.0,0.0,0.0,0.038245948927749476,0.011091031341597167,0.0008302402867730586,0.0,0.0,0.0,0.0,0.0,0.0,0.0,0.0,0.0
7.363,213,7,362000000,base_footprint,-0.0038425005592756215,0.0002521971496103486,0.9978095642590857,0.06603972334241917,0.0,0.0,0.0,0.0,0.0,0.0,0.0,0.0,0.0,-0.0002779377221433836,-4.795965329869211e-05,0.05007855960628347,0.0,0.0,0.0,0.0,0.0,0.0,0.0,0.0,0.0,0.2499817611781926,-0.04729163707767757,-0.00011349549658899543,0.0,0.0,0.0,0.0,0.0,0.0,0.0,0.0,0.0
7.396,214,7,396000000,base_footprint,-0.0038496327115127545,0.0002474840593144158,0.9978522668540617,0.06539092149402108,0.0,0.0,0.0,0.0,0.0,0.0,0.0,0.0,0.0,-8.134879483117529e-05,2.0106586755153362e-05,0.03553973864565488,0.0,0.0,0.0,0.0,0.0,0.0,0.0,0.0,0.0,0.026900148122578415,0.002139285103864322,-4.736621697110232e-05,0.0,0.0,0.0,0.0,0.0,0.0,0.0,0.0,0.0
7.43,215,7,430000000,base_footprint,-0.003844648058073866,0.0002414258511308091,0.9978754556414396,0.06503641613171361,0.0,0.0,0.0,0.0,0.0,0.0,0.0,0.0,0.0,-0.0007192662487080501,-8.813859792018937e-05,0.0011319868115652013,0.0,0.0,0.0,0.0,0.0,0.0,0.0,0.0,0.0,-0.02389997406121444,0.01083050437657767,0.0007798046346841797,0.0,0.0,0.0,0.0,0.0,0.0,0.0,0.0,0.0
7.464,216,7,464000000,base_footprint,-0.003843384943719099,0.000241108254178274,0.9978828192251368,0.06492341144977885,0.0,0.0,0.0,0.0,0.0,0.0,0.0,0.0,0.0,0.0005959557929267539,0.00031518277526858317,0.017272363842563546,0.0,0.0,0.0,0.0,0.0,0.0,0.0,0.0,0.0,0.032919522793685756,-0.007631521344818733,-0.0012140446373515483,0.0,0.0,0.0,0.0,0.0,0.0,0.0,0.0,0.0
7.498,217,7,498000000,base_footprint,-0.0038460249710556343,0.00024199218998111096,0.9979030744944416,0.06461117121863019,0.0,0.0,0.0,0.0,0.0,0.0,0.0,0.0,0.0,-7.405393055366582e-05,-0.00020761004986775828,0.01801529833499362,0.0,0.0,0.0,0.0,0.0,0.0,0.0,0.0,0.0,0.004106172508880877,0.0031945333588655777,0.001123144393754293,0.0,0.0,0.0,0.0,0.0,0.0,0.0,0.0,0.0
7.532,218,7,532000000,base_footprint,-0.003852265426580317,0.00024286046917013229,0.9979276024065878,0.06423084480928784,0.0,0.0,0.0,0.0,0.0,0.0,0.0,0.0,0.0,-0.000502896321827941,-0.0010543191424004154,0.039857459434343115,0.0,0.0,0.0,0.0,0.0,0.0,0.0,0.0,0.0,-0.2944116987948199,0.08214020543993145,-0.0011024059745321283,0.0,0.0,0.0,0.0,0.0,0.0,0.0,0.0,0.0
7.567,219,7,566000000,base_footprint,-0.0038440153707181295,0.00023294906517303636,0.9980270176558868,0.06266770547466283,0.0,0.0,0.0,0.0,0.0,0.0,0.0,0.0,0.0,-0.00010922178575074654,0.0008248067230536056,0.07967076281962097,0.0,0.0,0.0,0.0,0.0,0.0,0.0,0.0,0.0,-0.15070097614278488,0.058161501324914135,-0.004060662754936442,0.0,0.0,0.0,0.0,0.0,0.0,0.0,0.0,0.0
7.6,220,7,600000000,base_footprint,-0.0038466326503821726,0.00023127211720502564,0.9980663536646671,0.06203792076606492,0.0,0.0,0.0,0.0,0.0,0.0,0.0,0.0,0.0,-0.000332437007931897,-0.00020068376805473318,0.032314995497557994,0.0,0.0,0.0,0.0,0.0,0.0,0.0,0.0,0.0,0.12350087554863443,-0.02301674065499788,0.0026146160869678888,0.0,0.0,0.0,0.0,0.0,0.0,0.0,0.0,0.0
7.633,221,7,634000000,base_footprint,-0.003847219685070645,0.00022902683808615675,0.9980980691322054,0.061525530001502876,0.0,0.0,0.0,0.0,0.0,0.0,0.0,0.0,0.0,-0.00029254951987569807,-2.0680075469495736e-05,0.026833131809631205,0.0,0.0,0.0,0.0,0.0,0.0,0.0,0.0,0.0,0.004168763094927372,0.005481871069841748,-0.00024363424846953957,0.0,0.0,0.0,0.0,0.0,0.0,0.0,0.0,0.0
7.668,222,7,668000000,base_footprint,-0.003848086998250543,0.00022689046762394786,0.9981261365620684,0.06106845551386495,0.0,0.0,0.0,0.0,0.0,0.0,0.0,0.0,0.0,-0.0003310409177923544,-8.588788151150817e-05,0.02683201366907765,0.0,0.0,0.0,0.0,0.0,0.0,0.0,0.0,0.0,0.002293377042338388,0.005063022433746931,5.495629753475248e-05,0.0,0.0,0.0,0.0,0.0,0.0,0.0,0.0,0.0
7.703,223,7,702000000,base_footprint,-0.003848556239380238,0.00022507718571159358,0.9981539141073673,0.06061271902229213,0.0,0.0,0.0,0.0,0.0,0.0,0.0,0.0,0.0,-0.0003095403762773196,-8.01828340530287e-05,0.026630315137588068,0.0,0.0,0.0,0.0,0.0,0.0,0.0,0.0,0.0,0.002617533250537255,0.0049692457350383945,-8.404387215403231e-05,0.0,0.0,0.0,0.0,0.0,0.0,0.0,0.0,0.0
7.734,224,7,736000000,base_footprint,-0.003844822508349597,0.00022539545965589454,0.9982111086662603,0.05966363274258086,0.0,0.0,0.0,0.0,0.0,0.0,0.0,0.0,0.0,-0.0007277451842848848,-0.00039174024347152084,0.11958755506429398,0.0,0.0,0.0,0.0,0.0,0.0,0.0,0.0,0.0,0.03146848950285264,0.003943670932768269,0.0006957896993599063,0.0,0.0,0.0,0.0,0.0,0.0,0.0,0.0,0.0
7.77,225,7,770000000,base_footprint,-0.0038521088158212013,0.0002113159695323041,0.9983514261920757,0.05726732422141328,0.0,0.0,0.0,0.0,0.0,0.0,0.0,0.0,0.0,-0.000925606344423423,0.0005254549719311602,0.15423009527637974,0.0,0.0,0.0,0.0,0.0,0.0,0.0,0.0,0.0,0.0018473763844229114,0.029748453626665033,-0.0005567469610696517,0.0,0.0,0.0,0.0,0.0,0.0,0.0,0.0,0.0
7.804,226,7,804000000,base_footprint,-0.003844837542684497,0.00020822344256778984,0.9984927864251314,0.054747870499642054,0.0,0.0,0.0,0.0,0.0,0.0,0.0,0.0,0.0,-0.0009373667598952908,-8.003127975275168e-05,0.13565669158522184,0.0,0.0,0.0,0.0,0.0,0.0,0.0,0.0,0.0,0.053749075570507496,0.01992487394748654,0.0006496301240703872,0.0,0.0,0.0,0.0,0.0,0.0,0.0,0.0,0.0
7.839,227,7,838000000,base_footprint,-0.003845494434479125,0.00020184593070903827,0.9985902874653356,0.052939675203699334,0.0,0.0,0.0,0.0,0.0,0.0,0.0,0.0,0.0,-0.0004399756970389868,-3.1628717295308886e-05,0.0722238115170815,0.0,0.0,0.0,0.0,0.0,0.0,0.0,0.0,0.0,0.16481052703924112,-0.011292299591975221,0.0010265379694936643,0.0,0.0,0.0,0.0,0.0,0.0,0.0,0.0,0.0
7.872,228,7,872000000,base_footprint,-0.0038522095292977325,0.00019624977150937829,0.998625205915921,0.05227638163792603,0.0,0.0,0.0,0.0,0.0,0.0,0.0,0.0,0.0,6.836764328577066e-05,0.000155528743568353,0.02737123996421744,0.0,0.0,0.0,0.0,0.0,0.0,0.0,0.0,0.0,0.09216601325539939,-0.010619451863050187,0.00029934442320737767,0.0,0.0,0.0,0.0,0.0,0.0,0.0,0.0,0.0
7.907,229,7,906000000,base_footprint,-0.0038468285038913224,0.000191046277253252,0.9986397544771863,0.05199813640436052,0.0,0.0,0.0,0.0,0.0,0.0,0.0,0.0,0.0,-0.0002172757932652378,-0.0003473725028293269,0.005227660036581313,0.0,0.0,0.0,0.0,0.0,0.0,0.0,0.0,0.0,-0.043871999959389216,0.012979826456800314,0.0008051630710872922,0.0,0.0,0.0,0.0,0.0,0.0,0.0,0.0,0.0
7.94,230,7,940000000,base_footprint,-0.003845551788783267,0.0001896805708017856,0.9986481018230183,0.05183767431129176,0.0,0.0,0.0,0.0,0.0,0.0,0.0,0.0,0.0,-7.460935551293893e-05,-0.00013818565077717245,0.021107017449850447,0.0,0.0,0.0,0.0,0.0,0.0,0.0,0.0,0.0,0.033994565086805796,-0.005726376503211556,-0.00017855975264280649,0.0,0.0,0.0,0.0,0.0,0.0,0.0,0.0,0.0
7.974,231,7,974000000,base_footprint,-0.003849306919418479,0.00019155095825265685,0.9986636406566354,0.05153716110638117,0.0,0.0,0.0,0.0,0.0,0.0,0.0,0.0,0.0,0.00016767883028256936,0.00010560852415256733,0.012032056089464165,0.0,0.0,0.0,0.0,0.0,0.0,0.0,0.0,0.0,0.02077502864062256,-0.0002217912601138926,-0.0002023882576340233,0.0,0.0,0.0,0.0,0.0,0.0,0.0,0.0,0.0
8.01,232,8,8000000,base_footprint,-0.003848593937112857,0.0001905070323732993,0.9986739531026942,0.05133699860739578,0.0,0.0,0.0,0.0,0.0,0.0,0.0,0.0,0.0,-1.0005732841100477e-06,-0.00014677412800232544,0.011648385193904444,0.0,0.0,0.0,0.0,0.0,0.0,0.0,0.0,0.0,0.0010369323843441936,0.0023943485262911935,0.000392585772746227,0.0,0.0,0.0,0.0,0.0,0.0,0.0,0.0,0.0
8.042,233,8,42000000,base_footprint,-0.0038485755539658995,0.00018916560675925328,0.9986888576637133,0.051046236501099455,0.0,0.0,0.0,0.0,0.0,0.0,0.0,0.0,0.0,-7.680817008100335e-05,-0.00011105369685368182,0.019980020294351895,0.0,0.0,0.0,0.0,0.0,0.0,0.0,0.0,0.0,-0.00016554802355234216,0.0037629133917703164,-3.334251418012228e-05,0.0,0.0,0.0,0.0,0.0,0.0,0.0,0.0,0.0
8.077,234,8,76000000,base_footprint,-0.0038488849363221456,0.0001876067985027159,0.9987061901379516,0.05070598257182299,0.0,0.0,0.0,0.0,0.0,0.0,0.0,0.0,0.0,-0.00015551190968594283,-0.0001395534354747151,0.01986303515150554,0.0,0.0,0.0,0.0,0.0,0.0,0.0,0.0,0.0,0.002210780999064322,0.004014524052402193,6.309347492102768e-05,0.0,0.0,0.0,0.0,0.0,0.0,0.0,0.0,0.0
8.111,235,8,110000000,base_footprint,-0.003849475427463342,0.00018600988849792627,0.9987233059304177,0.050367699279123775,0.0,0.0,0.0,0.0,0.0,0.0,0.0,0.0,0.0,-0.0002425851495028454,-0.00010009350853510016,0.019772286808505596,0.0,0.0,0.0,0.0,0.0,0.0,0.0,0.0,0.0,0.002150708656703583,0.004021143302286857,-0.00010308582108340233,0.0,0.0,0.0,0.0,0.0,0.0,0.0,0.0,0.0
8.145,236,8,144000000,base_footprint,-0.0038503410317994504,0.00018402620573114255,0.9987446390734966,0.049942836625940186,0.0,0.0,0.0,0.0,0.0,0.0,0.0,0.0,0.0,-0.000314800632642709,-7.490975518299202e-05,0.027110322912653723,0.0,0.0,0.0,0.0,0.0,0.0,0.0,0.0,0.0,0.0003036848530016455,0.005366236571963067,-8.956954417223746e-05,0.0,0.0,0.0,0.0,0.0,0.0,0.0,0.0,0.0
8.179,237,8,178000000,base_footprint,-0.0038508888560791145,0.0001821812368761414,0.9987676059160137,0.04948137869754361,0.0,0.0,0.0,0.0,0.0,0.0,0.0,0.0,0.0,-0.00028669384214576336,-8.025590624221947e-05,0.026989247626793292,0.0,0.0,0.0,0.0,0.0,0.0,0.0,0.0,0.0,0.002303561821954433,0.0054907289668705,-8.097362599587409e-05,0.0,0.0,0.0,0.0,0.0,0.0,0.0,0.0,0.0
8.212,238,8,212000000,base_footprint,-0.0038515658793500493,0.0001806079698337821,0.9987901212241954,0.0490247546245306,0.0,0.0,0.0,0.0,0.0,0.0,0.0,0.0,0.0,-0.00028272175840631024,-1.607798957854514e-05,0.02690954407828807,0.0,0.0,0.0,0.0,0.0,0.0,0.0,0.0,0.0,0.002293995363096274,0.006271859747075136,-0.00016692642040819905,0.0,0.0,0.0,0.0,0.0,0.0,0.0,0.0,0.0
8.246,239,8,246000000,base_footprint,-0.003846694137217535,0.00018690831432323024,0.9987720321908896,0.04939226379482195,0.0,0.0,0.0,0.0,0.0,0.0,0.0,0.0,0.0,0.0003870504097695489,2.9702061314420597e-05,-0.06160669570933524,0.0,0.0,0.0,0.0,0.0,0.0,0.0,0.0,0.0,-0.19896030757639815,0.03571852983466928,-0.0016381990456407934,0.0,0.0,0.0,0.0,0.0,0.0,0.0,0.0,0.0
8.28,240,8,280000000,base_footprint,-0.0038551473224067265,0.0001835906970260585,0.9987388063029459,0.05005897440165134,0.0,0.0,0.0,0.0,0.0,0.0,0.0,0.0,0.0,0.0002479645963391754,-0.00012543465265701714,-0.018005341530791072,0.0,0.0,0.0,0.0,0.0,0.0,0.0,0.0,0.0,-0.0429308054331141,-0.0007607209219111974,0.00014968516166388154,0.0,0.0,0.0,0.0,0.0,0.0,0.0,0.0,0.0
8.314,241,8,314000000,base_footprint,-0.0038511234255700975,0.00018721642300064604,0.9987474101289895,0.04988731861914491,0.0,0.0,0.0,0.0,0.0,0.0,0.0,0.0,0.0,-0.0004992251264639458,0.0011921184801161864,0.018497246527424134,0.0,0.0,0.0,0.0,0.0,0.0,0.0,0.0,0.0,-0.09716586959984289,0.021706990085827518,-0.0030212176682077154,0.0,0.0,0.0,0.0,0.0,0.0,0.0,0.0,0.0
8.348,242,8,348000000,base_footprint,-0.0038535286247221774,0.00018515835143703607,0.9987719785016834,0.049392823298091075,0.0,0.0,0.0,0.0,0.0,0.0,0.0,0.0,0.0,-4.591985534670986e-06,-0.00010774717296552955,0.029865356539358456,0.0,0.0,0.0,0.0,0.0,0.0,0.0,0.0,0.0,-0.009774019014217115,0.008255723112879254,0.001881290558629273,0.0,0.0,0.0,0.0,0.0,0.0,0.0,0.0,0.0
8.382,243,8,382000000,base_footprint,-0.003847798661552466,0.0001797705764895912,0.9987874379668084,0.04907968915650454,0.0,0.0,0.0,0.0,0.0,0.0,0.0,0.0,0.0,-0.0005723330296809912,-0.000435217731099926,0.007322797982401966,0.0,0.0,0.0,0.0,0.0,0.0,0.0,0.0,0.0,-0.04406309119317635,0.01304769328221807,0.0007842750033870602,0.0,0.0,0.0,0.0,0.0,0.0,0.0,0.0,0.0
8.416,244,8,416000000,base_footprint,-0.0038461964260894125,0.00017820400438562148,0.9987966293725804,0.04889241424144522,0.0,0.0,0.0,0.0,0.0,0.0,0.0,0.0,0.0,-0.00016613801788096995,-0.00015529867187071488,0.021858067519573306,0.0,0.0,0.0,0.0,0.0,0.0,0.0,0.0,0.0,0.03116935089130958,-0.00433527649271138,-0.000516306112203253,0.0,0.0,0.0,0.0,0.0,0.0,0.0,0.0,0.0
8.45,245,8,450000000,base_footprint,-0.0038471342197739767,0.00017358156563350186,0.9988778310937703,0.04720432159390376,0.0,0.0,0.0,0.0,0.0,0.0,0.0,0.0,0.0,0.00011585748692128294,0.0012730305431505815,0.13966585278271315,0.0,0.0,0.0,0.0,0.0,0.0,0.0,0.0,0.0,-0.003368077028371268,0.020345928952458132,-0.002135275794666495,0.0,0.0,0.0,0.0,0.0,0.0,0.0,0.0,0.0
8.484,246,8,484000000,base_footprint,-0.0038508152010773376,0.00016970175078776008,0.9989394843168199,0.04588081403428867,0.0,0.0,0.0,0.0,0.0,0.0,0.0,0.0,0.0,-0.00029080004818428774,-0.0009410866342595381,0.035500549521045824,0.0,0.0,0.0,0.0,0.0,0.0,0.0,0.0,0.0,0.3631713312022619,-0.04991874513265314,0.005845849949033331,0.0,0.0,0.0,0.0,0.0,0.0,0.0,0.0,0.0
8.518,247,8,518000000,base_footprint,-0.0038495354607934757,0.00016695117120301743,0.9989670889052868,0.04527591509996663,0.0,0.0,0.0,0.0,0.0,0.0,0.0,0.0,0.0,-0.0001977255948021978,-0.00014604006635280281,0.035501086390435366,0.0,0.0,0.0,0.0,0.0,0.0,0.0,0.0,0.0,0.0029004682627492596,0.007462344925979982,-0.0008923441120605734,0.0,0.0,0.0,0.0,0.0,0.0,0.0,0.0,0.0
8.552,248,8,552000000,base_footprint,-0.003849941608496821,0.0001603018303177482,0.9990422829860337,0.04358519311633685,0.0,0.0,0.0,0.0,0.0,0.0,0.0,0.0,0.0,-0.0008045736339698116,-0.00014312694956791132,0.10841910223281745,0.0,0.0,0.0,0.0,0.0,0.0,0.0,0.0,0.0,-0.013943209244833483,0.023840233759799403,-5.491596938459744e-05,0.0,0.0,0.0,0.0,0.0,0.0,0.0,0.0,0.0
8.586,249,8,586000000,base_footprint,-0.0038505462884146397,0.00015297125918124996,0.9991209729394488,0.04174244034078427,0.0,0.0,0.0,0.0,0.0,0.0,0.0,0.0,0.0,-0.0008947200134928036,-5.055562228586493e-05,0.10836590098020324,0.0,0.0,0.0,0.0,0.0,0.0,0.0,0.0,0.0,0.005253086297910886,0.02322000341645267,-0.00016969852665123494,0.0,0.0,0.0,0.0,0.0,0.0,0.0,0.0,0.0
8.619,250,8,620000000,base_footprint,-0.00385143722432922,0.00014569082382016331,0.9991962045906816,0.03990100170506592,0.0,0.0,0.0,0.0,0.0,0.0,0.0,0.0,0.0,-0.0009084737102777213,-4.155628549079747e-05,0.10828925464503866,0.0,0.0,0.0,0.0,0.0,0.0,0.0,0.0,0.0,0.005177938325075845,0.02320285627156127,-4.4389238870210034e-05,0.0,0.0,0.0,0.0,0.0,0.0,0.0,0.0,0.0
8.654,251,8,654000000,base_footprint,-0.0038526064348896605,0.00013897504255469276,0.9992622249268008,0.038211829895141276,0.0,0.0,0.0,0.0,0.0,0.0,0.0,0.0,0.0,-0.0008188201873337356,-2.5718821947399425e-05,0.09943858329400997,0.0,0.0,0.0,0.0,0.0,0.0,0.0,0.0,0.0,0.0063597150640175215,0.021131053152849775,-0.00010238437722350535,0.0,0.0,0.0,0.0,0.0,0.0,0.0,0.0,0.0
8.69,252,8,688000000,base_footprint,-0.0038536399291358692,0.00013241305409219845,0.9993255611723061,0.0365178684171921,0.0,0.0,0.0,0.0,0.0,0.0,0.0,0.0,0.0,-0.0008327123062347337,-1.7224687201610676e-05,0.09990456206069871,0.0,0.0,0.0,0.0,0.0,0.0,0.0,0.0,0.0,0.002980153778905408,0.021661063047412128,-6.495540445211746e-05,0.0,0.0,0.0,0.0,0.0,0.0,0.0,0.0,0.0
8.722,253,8,722000000,base_footprint,-0.003853526608630926,0.00012925073579885977,0.999386590302911,0.03480771106587569,0.0,0.0,0.0,0.0,0.0,0.0,0.0,0.0,0.0,0.0027806100896212147,-0.002374384253341875,0.11136970562810682,0.0,0.0,0.0,0.0,0.0,0.0,0.0,0.0,0.0,0.01309375141606801,0.02244837527948845,0.005187047033613607,0.0,0.0,0.0,0.0,0.0,0.0,0.0,0.0,0.0
8.756,254,8,756000000,base_footprint,-0.003856593755648733,0.00011633603802903357,0.9994724173544229,0.03224903251628861,0.0,0.0,0.0,0.0,0.0,0.0,0.0,0.0,0.0,-0.0018012429817686258,0.000884188635990557,0.15708259296964072,0.0,0.0,0.0,0.0,0.0,0.0,0.0,0.0,0.0,0.017505254868029042,0.027663933036597522,-0.006704984778273493,0.0,0.0,0.0,0.0,0.0,0.0,0.0,0.0,0.0
8.79,255,8,790000000,base_footprint,-0.0038533105792628816,0.00010907772181615573,0.9995620387554046,0.02934059949573869,0.0,0.0,0.0,0.0,0.0,0.0,0.0,0.0,0.0,-0.001204208063034732,0.00025490558600041935,0.17492078409181255,0.0,0.0,0.0,0.0,0.0,0.0,0.0,0.0,0.0,-0.051024828044884694,0.0448309982164787,0.0006891941995487691,0.0,0.0,0.0,0.0,0.0,0.0,0.0,0.0,0.0
8.824,256,8,824000000,base_footprint,-0.0038520760816401494,9.968003117057088e-05,0.9996430921571029,0.026435579742815844,0.0,0.0,0.0,0.0,0.0,0.0,0.0,0.0,0.0,-0.00028756908033016363,-0.0033861214224385145,0.15055040814759235,0.0,0.0,0.0,0.0,0.0,0.0,0.0,0.0,0.0,0.020616027866913144,0.03542006785200263,0.005425787297885084,0.0,0.0,0.0,0.0,0.0,0.0,0.0,0.0,0.0
8.858,257,8,858000000,base_footprint,-0.0038503059700515673,8.570816862218266e-05,0.9996849256884865,0.02480357130036253,0.0,0.0,0.0,0.0,0.0,0.0,0.0,0.0,0.0,-0.0006086973853739333,-0.00012828594696384914,0.08136805995117465,0.0,0.0,0.0,0.0,0.0,0.0,0.0,0.0,0.0,-0.0032402899314063005,0.02247906972908163,-0.005084905037168373,0.0,0.0,0.0,0.0,0.0,0.0,0.0,0.0,0.0
8.892,258,8,892000000,base_footprint,-0.0038530752721068753,8.259665416658033e-05,0.9997208379133198,0.023310796439208296,0.0,0.0,0.0,0.0,0.0,0.0,0.0,0.0,0.0,-0.0006194281634217627,-6.971991347555929e-05,0.08891556116208614,0.0,0.0,0.0,0.0,0.0,0.0,0.0,0.0,0.0,0.017954882453327096,0.017220052295819164,0.0006861971883629026,0.0,0.0,0.0,0.0,0.0,0.0,0.0,0.0,0.0
8.926,259,8,926000000,base_footprint,-0.003864915177711366,7.894126783713594e-05,0.9997550859886499,0.02179046210553101,0.0,0.0,0.0,0.0,0.0,0.0,0.0,0.0,0.0,-4.056026497422922e-05,-0.001021430449657459,0.0892697329505439,0.0,0.0,0.0,0.0,0.0,0.0,0.0,0.0,0.0,-0.12177884005320629,0.03006209966770702,0.0003100949433266242,0.0,0.0,0.0,0.0,0.0,0.0,0.0,0.0,0.0
8.959,260,8,960000000,base_footprint,-0.0038529978065920986,7.56340666081386e-05,0.9997617509932464,0.021484644244406197,0.0,0.0,0.0,0.0,0.0,0.0,0.0,0.0,0.0,3.227741925081442e-05,-0.0008358355763780036,-0.0019486620678917385,0.0,0.0,0.0,0.0,0.0,0.0,0.0,0.0,0.0,-0.18961979350347666,0.021382622303234823,-0.0016058121079911259,0.0,0.0,0.0,0.0,0.0,0.0,0.0,0.0,0.0
8.994,261,8,994000000,base_footprint,-0.0038523358492018257,7.563550029324142e-05,0.999761065082346,0.021516657110001038,0.0,0.0,0.0,0.0,0.0,0.0,0.0,0.0,0.0,5.8832151412328884e-05,-0.0001862006048398848,-0.001983979791126283,0.0,0.0,0.0,0.0,0.0,0.0,0.0,0.0,0.0,0.001542778951235612,-0.000553332397100578,-0.0007420323256469773,0.0,0.0,0.0,0.0,0.0,0.0,0.0,0.0,0.0
9.028,262,9,28000000,base_footprint,-0.0038523622219756967,7.579124737176345e-05,0.9997596493591304,0.021582332457504926,0.0,0.0,0.0,0.0,0.0,0.0,0.0,0.0,0.0,0.00012957248045718207,-0.00020191316383887757,-0.010364225849756421,0.0,0.0,0.0,0.0,0.0,0.0,0.0,0.0,0.0,0.003463980364336506,-0.0009670219288370816,3.370578225311602e-05,0.0,0.0,0.0,0.0,0.0,0.0,0.0,0.0,0.0
9.062,263,9,62000000,base_footprint,-0.003852787759967702,7.633985825007305e-05,0.9997558534820221,0.02175738098062998,0.0,0.0,0.0,0.0,0.0,0.0,0.0,0.0,0.0,3.75789611583886e-05,-0.00015365980143816795,-0.010427828752863837,0.0,0.0,0.0,0.0,0.0,0.0,0.0,0.0,0.0,0.0010151698832944567,-0.0022861040274908067,-0.00011882741572505531,0.0,0.0,0.0,0.0,0.0,0.0,0.0,0.0,0.0
9.096,264,9,96000000,base_footprint,-0.0038533369607742325,7.688028517460078e-05,0.9997519858736806,0.021934279685466736,0.0,0.0,0.0,0.0,0.0,0.0,0.0,0.0,0.0,-4.765996567651114e-06,-0.00013560780986916825,-0.010521889349212938,0.0,0.0,0.0,0.0,0.0,0.0,0.0,0.0,0.0,0.0010836397991121397,-0.002300739055425525,-8.521986753444023e-05,0.0,0.0,0.0,0.0,0.0,0.0,0.0,0.0,0.0
9.129,265,9,130000000,base_footprint,-0.0038528933789211896,7.748109995070675e-05,0.9997482469403951,0.02210411610756542,0.0,0.0,0.0,0.0,0.0,0.0,0.0,0.0,0.0,0.001393286900827263,-0.00043427638947975806,-0.0018506390235674718,0.0,0.0,0.0,0.0,0.0,0.0,0.0,0.0,0.0,0.17519868728429872,-0.01741324366132102,0.0035489818686443445,0.0,0.0,0.0,0.0,0.0,0.0,0.0,0.0,0.0
9.164,266,9,164000000,base_footprint,-0.0038551306198073496,7.351130556269684e-05,0.9997693234999774,0.021128945841900348,0.0,0.0,0.0,0.0,0.0,0.0,0.0,0.0,0.0,-0.0005898804713839185,-5.7691263271394974e-05,0.07129439339421009,0.0,0.0,0.0,0.0,0.0,0.0,0.0,0.0,0.0,0.1447458895434225,-0.0010323175127552107,-0.0013627196575120577,0.0,0.0,0.0,0.0,0.0,0.0,0.0,0.0,0.0
9.199,267,9,198000000,base_footprint,-0.003856374107498437,6.868706839798178e-05,0.9997942713396258,0.019913278416587025,0.0,0.0,0.0,0.0,0.0,0.0,0.0,0.0,0.0,-0.0006250467933130866,-2.9649445940809182e-05,0.07173186702355866,0.0,0.0,0.0,0.0,0.0,0.0,0.0,0.0,0.0,0.0006620384420583737,0.01559690260797043,-0.00014711682846851095,0.0,0.0,0.0,0.0,0.0,0.0,0.0,0.0,0.0
9.232,268,9,232000000,base_footprint,-0.0038583343057930325,6.410019974945214e-05,0.999816632031624,0.01875663777145576,0.0,0.0,0.0,0.0,0.0,0.0,0.0,0.0,0.0,-0.0006393422584351199,-7.997736663091502e-05,0.06240927746992679,0.0,0.0,0.0,0.0,0.0,0.0,0.0,0.0,0.0,0.0037263353523492144,0.015504067832330137,2.0798585845471354e-05,0.0,0.0,0.0,0.0,0.0,0.0,0.0,0.0,0.0
9.266,269,9,266000000,base_footprint,-0.0038557869018827897,6.296158416411444e-05,0.9998369191628877,0.017642676159561936,0.0,0.0,0.0,0.0,0.0,0.0,0.0,0.0,0.0,-0.0001312042477223299,-0.00035913212189668043,0.06689305927996933,0.0,0.0,0.0,0.0,0.0,0.0,0.0,0.0,0.0,-0.01707905767706095,0.015341578447823325,0.00039545002599373835,0.0,0.0,0.0,0.0,0.0,0.0,0.0,0.0,0.0
9.3,270,9,300000000,base_footprint,-0.0038579032498652225,5.8397587692107344e-05,0.9998542887667103,0.016628722351776908,0.0,0.0,0.0,0.0,0.0,0.0,0.0,0.0,0.0,-0.0005929747592553304,3.8423320830011884e-05,0.05172903203410169,0.0,0.0,0.0,0.0,0.0,0.0,0.0,0.0,0.0,-0.012259644656502512,0.01413982638729464,-0.0004986658942192085,0.0,0.0,0.0,0.0,0.0,0.0,0.0,0.0,0.0
9.336,271,9,334000000,base_footprint,-0.0038510282295883824,5.0510956947073486e-05,0.9998663372081292,0.01588945399369564,0.0,0.0,0.0,0.0,0.0,0.0,0.0,0.0,0.0,-0.00042794865782653184,-0.00018860276692408653,0.04568382727741591,0.0,0.0,0.0,0.0,0.0,0.0,0.0,0.0,0.0,-0.013589958793773126,0.01024272710008639,0.000262409034976173,0.0,0.0,0.0,0.0,0.0,0.0,0.0,0.0,0.0
9.368,272,9,368000000,base_footprint,-0.003846170029745968,4.667055085613312e-05,0.9998872062067474,0.014518252719504871,0.0,0.0,0.0,0.0,0.0,0.0,0.0,0.0,0.0,-0.001404603275632315,0.0009354034796858581,0.13502760041895465,0.0,0.0,0.0,0.0,0.0,0.0,0.0,0.0,0.0,0.003994311070000311,0.016345595923079926,-0.0012774156818086775,0.0,0.0,0.0,0.0,0.0,0.0,0.0,0.0,0.0
9.402,273,9,402000000,base_footprint,-0.0038535274201944073,3.924637111786858e-05,0.9999190709031159,0.01212437340211377,0.0,0.0,0.0,0.0,0.0,0.0,0.0,0.0,0.0,-0.0010157520174826752,-0.00018626500028286894,0.14107428402528854,0.0,0.0,0.0,0.0,0.0,0.0,0.0,0.0,0.0,0.015817539994412027,0.02986695528225464,0.001456799313642459,0.0,0.0,0.0,0.0,0.0,0.0,0.0,0.0,0.0
9.436,274,9,436000000,base_footprint,-0.003853054196600024,3.018011041985836e-05,0.9999448762876504,0.009767161747135267,0.0,0.0,0.0,0.0,0.0,0.0,0.0,0.0,0.0,-0.0009670120599219627,-0.00012631483967794687,0.13584310236838631,0.0,0.0,0.0,0.0,0.0,0.0,0.0,0.0,0.0,0.003892572837080978,0.03022843406387708,1.3557277138887511e-05,0.0,0.0,0.0,0.0,0.0,0.0,0.0,0.0,0.0
9.47,275,9,470000000,base_footprint,-0.0038529292156312765,2.1318435370173295e-05,0.9999647670905402,0.007457818685480341,0.0,0.0,0.0,0.0,0.0,0.0,0.0,0.0,0.0,-0.000949042240675838,-0.0001328094563043736,0.1357781154196534,0.0,0.0,0.0,0.0,0.0,0.0,0.0,0.0,0.0,0.0022658094474466706,0.02965039376729761,3.390388830342853e-05,0.0,0.0,0.0,0.0,0.0,0.0,0.0,0.0,0.0
9.504,276,9,504000000,base_footprint,-0.003852976510196832,1.2404579713684473e-05,0.9999793174912415,0.005149660948953052,0.0,0.0,0.0,0.0,0.0,0.0,0.0,0.0,0.0,-0.0009882967391626157,-0.00015943937130091063,0.1356916582166274,0.0,0.0,0.0,0.0,0.0,0.0,0.0,0.0,0.0,0.002032291018876645,0.029653274790397536,8.837734476960545e-05,0.0,0.0,0.0,0.0,0.0,0.0,0.0,0.0,0.0
9.538,277,9,538000000,base_footprint,-0.0038533413940240093,4.2861481874241305e-06,0.999987887000501,0.0030622857481545406,0.0,0.0,0.0,0.0,0.0,0.0,0.0,0.0,0.0,-0.0008175371766160716,-0.000218223811583865,0.1107283289172361,0.0,0.0,0.0,0.0,0.0,0.0,0.0,0.0,0.0,0.0083639307957405,0.027036720254839115,0.0001076925750003383,0.0,0.0,0.0,0.0,0.0,0.0,0.0,0.0,0.0
9.572,278,9,572000000,base_footprint,-0.0038539305062828383,-3.0449117777428137e-06,0.999991877921533,0.0011795343773133955,0.0,0.0,0.0,0.0,0.0,0.0,0.0,0.0,0.0,-0.0008746223610817658,-0.00011946866053387093,0.11068327551371145,0.0,0.0,0.0,0.0,0.0,0.0,0.0,0.0,0.0,0.0014485016379516065,0.024232512749833415,-0.0002998681813176461,0.0,0.0,0.0,0.0,0.0,0.0,0.0,0.0,0.0
9.606,279,9,606000000,base_footprint,-0.003854736293652679,-1.0342006947927106e-05,0.9999923241024008,-0.0007018813492055185,0.0,0.0,0.0,0.0,0.0,0.0,0.0,0.0,0.0,-0.0008648829665197097,-9.409808608774653e-05,0.11061376967317803,0.0,0.0,0.0,0.0,0.0,0.0,0.0,0.0,0.0,0.0013584179832756321,0.024276240312297383,-0.00011250016798267745,0.0,0.0,0.0,0.0,0.0,0.0,0.0,0.0,0.0
9.64,280,9,640000000,base_footprint,-0.003851906225629165,-1.5670915690457417e-05,0.9999896739775838,-0.00241132972801303,0.0,0.0,0.0,0.0,0.0,0.0,0.0,0.0,0.0,-0.0005439187911536331,-0.000692520807544904,0.07720379195928977,0.0,0.0,0.0,0.0,0.0,0.0,0.0,0.0,0.0,-0.3579434287622573,0.01933397906345967,-0.0017383275546591793,0.0,0.0,0.0,0.0,0.0,0.0,0.0,0.0,0.0
9.674,281,9,674000000,base_footprint,-0.0038559234281974396,-2.0023827541089848e-05,0.9999858035343177,-0.0036775240838364414,0.0,0.0,0.0,0.0,0.0,0.0,0.0,0.0,0.0,-0.001259047345352032,0.0006010470188081926,0.10156182871063588,0.0,0.0,0.0,0.0,0.0,0.0,0.0,0.0,0.0,0.015728662626594243,0.01500868324970728,-0.002196581494106522,0.0,0.0,0.0,0.0,0.0,0.0,0.0,0.0,0.0
9.708,282,9,708000000,base_footprint,-0.0038578821286951678,-2.829926585023508e-05,0.999977874290754,-0.00541912110750377,0.0,0.0,0.0,0.0,0.0,0.0,0.0,0.0,0.0,-0.0008359738178118478,-2.78817896900331e-05,0.10217026506443805,0.0,0.0,0.0,0.0,0.0,0.0,0.0,0.0,0.0,0.0013059804892494266,0.021095898441662972,0.0009352037318817531,0.0,0.0,0.0,0.0,0.0,0.0,0.0,0.0,0.0
9.742,283,9,742000000,base_footprint,-0.0038615131331745703,-3.376487353300548e-05,0.9999683711963315,-0.006952998145513958,0.0,0.0,0.0,0.0,0.0,0.0,0.0,0.0,0.0,-0.0007735633981553901,-0.00033237181992889386,0.08027841965672759,0.0,0.0,0.0,0.0,0.0,0.0,0.0,0.0,0.0,-0.02083183541034657,0.01840860100198154,0.0008071526044796973,0.0,0.0,0.0,0.0,0.0,0.0,0.0,0.0,0.0
9.776,284,9,776000000,base_footprint,-0.003853556648498834,-4.1687744525674e-05,0.9999595060793158,-0.008132316084583348,0.0,0.0,0.0,0.0,0.0,0.0,0.0,0.0,0.0,-0.0011404446622741546,0.00033333128103648187,0.05088365737269356,0.0,0.0,0.0,0.0,0.0,0.0,0.0,0.0,0.0,-0.028826945890234157,0.014479441546397536,-0.0013683182551622846,0.0,0.0,0.0,0.0,0.0,0.0,0.0,0.0,0.0
9.81,285,9,810000000,base_footprint,-0.0038514332498151334,-4.6167498858719016e-05,0.9999508450486341,-0.009136291206333387,0.0,0.0,0.0,0.0,0.0,0.0,0.0,0.0,0.0,-0.0005952846984795509,-0.0002484062474827344,0.07068879956150713,0.0,0.0,0.0,0.0,0.0,0.0,0.0,0.0,0.0,0.024999678791111753,0.01229813029796529,0.0010301762443310387,0.0,0.0,0.0,0.0,0.0,0.0,0.0,0.0,0.0
9.845,286,9,844000000,base_footprint,-0.003855607548241597,-4.9707550136468244e-05,0.9999336162956695,-0.010857938177133037,0.0,0.0,0.0,0.0,0.0,0.0,0.0,0.0,0.0,-0.0008113078844467364,-0.0003176700732323345,0.11462762462572966,0.0,0.0,0.0,0.0,0.0,0.0,0.0,0.0,0.0,0.01348731190554452,0.02118492598714798,8.637380168204415e-05,0.0,0.0,0.0,0.0,0.0,0.0,0.0,0.0,0.0
9.878,287,9,878000000,base_footprint,-0.003847117762232665,-5.3748864210363795e-05,0.9999144321095341,-0.012503009839682982,0.0,0.0,0.0,0.0,0.0,0.0,0.0,0.0,0.0,0.00032817988375791164,0.0016009809999181304,0.06983807026314069,0.0,0.0,0.0,0.0,0.0,0.0,0.0,0.0,0.0,0.33871428887309873,0.03730127029303073,0.0005159881587686001,0.0,0.0,0.0,0.0,0.0,0.0,0.0,0.0,0.0
9.912,288,9,912000000,base_footprint,-0.003852981916377751,-5.972287226103373e-05,0.9999001542138635,-0.013595314142117681,0.0,0.0,0.0,0.0,0.0,0.0,0.0,0.0,0.0,-0.00043213903731199215,-0.00015412019374187573,0.0641459281286977,0.0,0.0,0.0,0.0,0.0,0.0,0.0,0.0,0.0,0.01332516274562718,0.015012991837009,0.0021950519566091425,0.0,0.0,0.0,0.0,0.0,0.0,0.0,0.0,0.0
9.946,289,9,946000000,base_footprint,-0.0038526543663072246,-6.278037845130532e-05,0.9998890705946456,-0.014387481306112372,0.0,0.0,0.0,0.0,0.0,0.0,0.0,0.0,0.0,-0.00023703585863111946,-7.936486306356065e-05,0.04079754391731034,0.0,0.0,0.0,0.0,0.0,0.0,0.0,0.0,0.0,0.006839468684474178,0.010880655883531433,7.02871179023991e-05,0.0,0.0,0.0,0.0,0.0,0.0,0.0,0.0,0.0
9.979,290,9,980000000,base_footprint,-0.0038524806930701114,-6.546310005002387e-05,0.9998788619184444,-0.015080304896404158,0.0,0.0,0.0,0.0,0.0,0.0,0.0,0.0,0.0,-0.0002538953909008799,-0.00018164406656895075,0.040696819731309446,0.0,0.0,0.0,0.0,0.0,0.0,0.0,0.0,0.0,0.0007302702360518591,0.009018309400569977,0.0001740213608116781,0.0,0.0,0.0,0.0,0.0,0.0,0.0,0.0,0.0
10.014,291,10,14000000,base_footprint,-0.0038526154984825944,-6.820553112000749e-05,0.9998681966651332,-0.015771556658779794,0.0,0.0,0.0,0.0,0.0,0.0,0.0,0.0,0.0,-0.00025397275268409267,-0.000180268903242733,0.04059296218614197,0.0,0.0,0.0,0.0,0.0,0.0,0.0,0.0,0.0,0.0008019315414370836,0.009001483373633618,-1.2982780128863033e-05,0.0,0.0,0.0,0.0,0.0,0.0,0.0,0.0,0.0
10.048,292,10,48000000,base_footprint,-0.003853089407219385,-7.056691805089404e-05,0.9998589660378844,-0.016346154164903787,0.0,0.0,0.0,0.0,0.0,0.0,0.0,0.0,0.0,-0.00020052709518073597,-0.0001504528421086866,0.03223969452199145,0.0,0.0,0.0,0.0,0.0,0.0,0.0,0.0,0.0,0.0030500153534454818,0.007719227550860291,-0.00012557395940452693,0.0,0.0,0.0,0.0,0.0,0.0,0.0,0.0,0.0
10.082,293,10,82000000,base_footprint,-0.0038538153999350382,-7.285266265244049e-05,0.9998498566774161,-0.016893990100130638,0.0,0.0,0.0,0.0,0.0,0.0,0.0,0.0,0.0,-0.0002412671093437008,-0.0001074943316851258,0.03217843086176269,0.0,0.0,0.0,0.0,0.0,0.0,0.0,0.0,0.0,0.0008592160364933855,0.007174348415649158,-0.00020990919881978685,0.0,0.0,0.0,0.0,0.0,0.0,0.0,0.0,0.0
10.116,294,10,116000000,base_footprint,-0.00385497231047484,-7.523806640135447e-05,0.9998404675358535,-0.017440556338737857,0.0,0.0,0.0,0.0,0.0,0.0,0.0,0.0,0.0,-0.0002530525941789098,-6.863050199169439e-05,0.03216749520148598,0.0,0.0,0.0,0.0,0.0,0.0,0.0,0.0,0.0,0.0008023668408102757,0.007106424100370008,-0.00012321460591525633,0.0,0.0,0.0,0.0,0.0,0.0,0.0,0.0,0.0
10.15,295,10,150000000,base_footprint,-0.0038556452423053863,-7.689210902169164e-05,0.9998330409978581,-0.017861081051957148,0.0,0.0,0.0,0.0,0.0,0.0,0.0,0.0,0.0,-0.00019347967462761344,-0.00011137910554292477,0.023747557984633103,0.0,0.0,0.0,0.0,0.0,0.0,0.0,0.0,0.0,0.002795031773956191,0.005414220083192489,1.5280299035989133e-05,0.0,0.0,0.0,0.0,0.0,0.0,0.0,0.0,0.0
10.184,296,10,184000000,base_footprint,-0.0038563605398484386,-7.891736793168608e-05,0.9998256547960593,-0.01826970900334157,0.0,0.0,0.0,0.0,0.0,0.0,0.0,0.0,0.0,-0.00019893821028068483,-4.752290288762412e-06,0.02438887657335031,0.0,0.0,0.0,0.0,0.0,0.0,0.0,0.0,0.0,-2.5284731095895328e-05,0.005109283190225938,-0.0002598534538290176,0.0,0.0,0.0,0.0,0.0,0.0,0.0,0.0,0.0
10.218,297,10,218000000,base_footprint,-0.003858694334388667,-8.135848143746192e-05,0.9998175467109741,-0.01870767616996716,0.0,0.0,0.0,0.0,0.0,0.0,0.0,0.0,0.0,-0.00026664925868582194,9.352096258160305e-05,0.02943981272123706,0.0,0.0,0.0,0.0,0.0,0.0,0.0,0.0,0.0,-0.01423944368860683,0.0025810747902829333,-0.0002675416369993866,0.0,0.0,0.0,0.0,0.0,0.0,0.0,0.0,0.0
10.252,298,10,252000000,base_footprint,-0.0038515807398272293,-7.772780128220543e-05,0.9998059039097605,-0.019321329958891752,0.0,0.0,0.0,0.0,0.0,0.0,0.0,0.0,0.0,-0.0005407885736216849,-0.0006365477768697309,0.028532001805509688,0.0,0.0,0.0,0.0,0.0,0.0,0.0,0.0,0.0,-0.04502368929120923,0.007838928861293705,0.0014172866449705726,0.0,0.0,0.0,0.0,0.0,0.0,0.0,0.0,0.0
10.286,299,10,286000000,base_footprint,-0.003855573439971522,-8.327777773805569e-05,0.9997988005919285,-0.019684662892770214,0.0,0.0,0.0,0.0,0.0,0.0,0.0,0.0,0.0,-4.718219909053997e-05,-4.004141524553497e-05,0.01661139894428948,0.0,0.0,0.0,0.0,0.0,0.0,0.0,0.0,0.0,0.04968290110221045,0.007894228205181292,-0.0009928169484853416,0.0,0.0,0.0,0.0,0.0,0.0,0.0,0.0,0.0
10.32,300,10,320000000,base_footprint,-0.0038540062512024006,-8.39680380996375e-05,0.9997931693825173,-0.01996892689268648,0.0,0.0,0.0,0.0,0.0,0.0,0.0,0.0,0.0,-0.00010953400587924881,-9.05827587891014e-05,0.01661559958508429,0.0,0.0,0.0,0.0,0.0,0.0,0.0,0.0,0.0,-0.0012106643793700091,0.003577674689692095,0.0001672453545117362,0.0,0.0,0.0,0.0,0.0,0.0,0.0,0.0,0.0
10.354,301,10,354000000,base_footprint,-0.003853163011678277,-8.41903161987812e-05,0.9997920335330284,-0.020025876527336287,0.0,0.0,0.0,0.0,0.0,0.0,0.0,0.0,0.0,-9.981279346573915e-06,-0.00011305296257040679,0.0032471755656830604,0.0,0.0,0.0,0.0,0.0,0.0,0.0,0.0,0.0,0.004370506260806681,0.0012554926969696183,0.00011147278105167331,0.0,0.0,0.0,0.0,0.0,0.0,0.0,0.0,0.0
10.388,302,10,388000000,base_footprint,-0.0038525758537744006,-8.441721525406831e-05,0.9997909415292582,-0.02008043249196381,0.0,0.0,0.0,0.0,0.0,0.0,0.0,0.0,0.0,-4.306807823069151e-05,-0.00013296384764401053,0.0031526663273670065,0.0,0.0,0.0,0.0,0.0,0.0,0.0,0.0,0.0,0.0011157351703975796,0.000771188663639209,0.00011299207025167314,0.0,0.0,0.0,0.0,0.0,0.0,0.0,0.0,0.0
10.422,303,10,422000000,base_footprint,-0.003857424856748182,-8.464095453157581e-05,0.9997898425930736,-0.020134144061783665,0.0,0.0,0.0,0.0,0.0,0.0,0.0,0.0,0.0,-0.0003930005715014914,0.005527044371162881,0.004099860759326441,0.0,0.0,0.0,0.0,0.0,0.0,0.0,0.0,0.0,-0.06056765972995747,-0.0041367572482913,-0.006466898621096051,0.0,0.0,0.0,0.0,0.0,0.0,0.0,0.0,0.0
10.456,304,10,456000000,base_footprint,-0.003851814298967592,-8.830709686929155e-05,0.9997700297489907,-0.021096050439961392,0.0,0.0,0.0,0.0,0.0,0.0,0.0,0.0,0.0,-0.00045571558052014984,-0.0005741952335068756,0.0740869500386008,0.0,0.0,0.0,0.0,0.0,0.0,0.0,0.0,0.0,-0.29620322686648465,-0.013486900464539929,0.004371830671726217,0.0,0.0,0.0,0.0,0.0,0.0,0.0,0.0,0.0
10.49,305,10,490000000,base_footprint,-0.0038520611693270124,-9.322613605675782e-05,0.9997426864323801,-0.02235428054318576,0.0,0.0,0.0,0.0,0.0,0.0,0.0,0.0,0.0,-0.0005189410248632747,-0.0001973665882230344,0.07396524583153613,0.0,0.0,0.0,0.0,0.0,0.0,0.0,0.0,0.0,4.889797312058477e-05,0.015470119138733224,-0.0004381182936281007,0.0,0.0,0.0,0.0,0.0,0.0,0.0,0.0,0.0
10.524000000000001,306,10,524000000,base_footprint,-0.003852251699154175,-9.819428371188324e-05,0.999714169764358,-0.023595111508305514,0.0,0.0,0.0,0.0,0.0,0.0,0.0,0.0,0.0,-0.00018946717438894376,-0.00013581890361443255,0.06547382434649403,0.0,0.0,0.0,0.0,0.0,0.0,0.0,0.0,0.0,0.0020867809032225943,0.015623131922354445,-4.163856841663306e-06,0.0,0.0,0.0,0.0,0.0,0.0,0.0,0.0,0.0
10.558,307,10,558000000,base_footprint,-0.0038530045303193025,-0.00010255031710144124,0.9996872169164812,-0.02471056804895364,0.0,0.0,0.0,0.0,0.0,0.0,0.0,0.0,0.0,-0.0004899506370843236,-0.00013048320837260967,0.0656104894798198,0.0,0.0,0.0,0.0,0.0,0.0,0.0,0.0,0.0,-0.00012202289092950604,0.013595757215317805,-0.0003486928809131673,0.0,0.0,0.0,0.0,0.0,0.0,0.0,0.0,0.0
10.59,308,10,592000000,base_footprint,-0.0038538725832582164,-0.00010699823781214063,0.9996590432669639,-0.02582505434781702,0.0,0.0,0.0,0.0,0.0,0.0,0.0,0.0,0.0,-0.0004919393971295665,-0.0001020242710891437,0.06555013698327004,0.0,0.0,0.0,0.0,0.0,0.0,0.0,0.0,0.0,-0.00012623962015569906,0.013676712357361374,-0.0001047188042378533,0.0,0.0,0.0,0.0,0.0,0.0,0.0,0.0,0.0
10.625,309,10,626000000,base_footprint,-0.003856765249487458,-0.0001116642910597394,0.9996294713532015,-0.026944997587965532,0.0,0.0,0.0,0.0,0.0,0.0,0.0,0.0,0.0,-0.0005924653565117996,0.0005883730221357069,0.068688089986097,0.0,0.0,0.0,0.0,0.0,0.0,0.0,0.0,0.0,0.07242294566664927,0.021180162646977984,0.00040174796255639894,0.0,0.0,0.0,0.0,0.0,0.0,0.0,0.0,0.0
10.66,310,10,660000000,base_footprint,-0.0038536506916477717,-0.00011735739066468552,0.9995926282207581,-0.028279201019597324,0.0,0.0,0.0,0.0,0.0,0.0,0.0,0.0,0.0,-0.0012915661376105777,-0.0004913953303220175,0.09383751462932562,0.0,0.0,0.0,0.0,0.0,0.0,0.0,0.0,0.0,0.263204442210081,0.04654541540144228,0.002365124676105949,0.0,0.0,0.0,0.0,0.0,0.0,0.0,0.0,0.0
10.694,311,10,694000000,base_footprint,-0.0038577179952941658,-0.00012296930102339957,0.9995478959189112,-0.02981789151662375,0.0,0.0,0.0,0.0,0.0,0.0,0.0,0.0,0.0,-0.0007296731794886782,7.424857378943392e-05,0.09260385949701873,0.0,0.0,0.0,0.0,0.0,0.0,0.0,0.0,0.0,-0.015195914014550414,0.017380616361809393,-0.0007657938588214646,0.0,0.0,0.0,0.0,0.0,0.0,0.0,0.0,0.0
10.727,312,10,728000000,base_footprint,-0.0038520603006817226,-0.0001292170522950948,0.9994976266096238,-0.03145853359777603,0.0,0.0,0.0,0.0,0.0,0.0,0.0,0.0,0.0,0.00011930110715576033,-0.0011299103977080289,0.10960462381283397,0.0,0.0,0.0,0.0,0.0,0.0,0.0,0.0,0.0,-0.05252764863977378,0.008341969872774791,0.00218137222575123,0.0,0.0,0.0,0.0,0.0,0.0,0.0,0.0,0.0
10.762,313,10,762000000,base_footprint,-0.003849588404970737,-0.00013260784372976346,0.9994380737851726,-0.03329714331374449,0.0,0.0,0.0,0.0,0.0,0.0,0.0,0.0,0.0,-0.0012151073567766661,0.000543057230682904,0.09762821047376398,0.0,0.0,0.0,0.0,0.0,0.0,0.0,0.0,0.0,0.036073283979541446,0.03598563061932403,-0.0032531713445165026,0.0,0.0,0.0,0.0,0.0,0.0,0.0,0.0,0.0
10.796,314,10,796000000,base_footprint,-0.0038525104987429093,-0.00014169492308092237,0.9993831013186695,-0.034907805489375304,0.0,0.0,0.0,0.0,0.0,0.0,0.0,0.0,0.0,-0.0007819856844805643,-2.4424095223070716e-05,0.09494431471812552,0.0,0.0,0.0,0.0,0.0,0.0,0.0,0.0,0.0,0.003239098170579399,0.021303538093613086,0.0013841628309398538,0.0,0.0,0.0,0.0,0.0,0.0,0.0,0.0,0.0
10.83,315,10,830000000,base_footprint,-0.003851284292610226,-0.0001478602089114855,0.9993253966796986,-0.0365225587496194,0.0,0.0,0.0,0.0,0.0,0.0,0.0,0.0,0.0,-0.0007149462564838458,-0.00015882258072388625,0.0950427300662302,0.0,0.0,0.0,0.0,0.0,0.0,0.0,0.0,0.0,-0.002591574220312469,0.020656983397373613,0.00027299625512370494,0.0,0.0,0.0,0.0,0.0,0.0,0.0,0.0,0.0
10.864,316,10,864000000,base_footprint,-0.0038469887429666036,-0.00015269507225466826,0.9992770249176665,-0.0378233371547775,0.0,0.0,0.0,0.0,0.0,0.0,0.0,0.0,0.0,-0.00063061436108169,0.0013916348977413469,0.02154944577029528,0.0,0.0,0.0,0.0,0.0,0.0,0.0,0.0,0.0,0.01785037175940208,0.020744215810343372,-0.0019122994650530084,0.0,0.0,0.0,0.0,0.0,0.0,0.0,0.0,0.0
10.898,317,10,898000000,base_footprint,-0.003850118872812192,-0.0001541892044924109,0.9992630291315027,-0.03819098612615741,0.0,0.0,0.0,0.0,0.0,0.0,0.0,0.0,0.0,-0.00017964551246477966,-0.00013827383803180425,0.021610664546980216,0.0,0.0,0.0,0.0,0.0,0.0,0.0,0.0,0.0,0.00030772296581334344,0.004578975135357264,0.002250979549133501,0.0,0.0,0.0,0.0,0.0,0.0,0.0,0.0,0.0
10.932,318,10,932000000,base_footprint,-0.003849917902769967,-0.0001555610233763895,0.9992489737358462,-0.038557002227458476,0.0,0.0,0.0,0.0,0.0,0.0,0.0,0.0,0.0,-0.00010751368594179124,-0.0001824573252904796,0.021517243308820995,0.0,0.0,0.0,0.0,0.0,0.0,0.0,0.0,0.0,0.0004959974803807527,0.004881982701002461,0.0001656466664230608,0.0,0.0,0.0,0.0,0.0,0.0,0.0,0.0,0.0
10.966,319,10,966000000,base_footprint,-0.0038499921432166534,-0.00015695150451226246,0.9992348957465869,-0.038920123959594294,0.0,0.0,0.0,0.0,0.0,0.0,0.0,0.0,0.0,-9.574021213806555e-05,-0.0001874887415439866,0.021243286415647718,0.0,0.0,0.0,0.0,0.0,0.0,0.0,0.0,0.0,0.0006732754892824408,0.0048626471261126285,9.96107610577455e-06,0.0,0.0,0.0,0.0,0.0,0.0,0.0,0.0,0.0
11.0,320,11,0,base_footprint,-0.003850384390964393,-0.0001584009056341704,0.9992208250631213,-0.03927966661480397,0.0,0.0,0.0,0.0,0.0,0.0,0.0,0.0,0.0,-0.0001171469851381286,-0.000154764309872381,0.021132264662059367,0.0,0.0,0.0,0.0,0.0,0.0,0.0,0.0,0.0,0.0006493579178323235,0.004789990961416302,-0.00015763281553278,0.0,0.0,0.0,0.0,0.0,0.0,0.0,0.0,0.0
11.034,321,11,34000000,base_footprint,-0.0038514958378236086,-0.00016005643587847066,0.9992044548446128,-0.03969380027698003,0.0,0.0,0.0,0.0,0.0,0.0,0.0,0.0,0.0,-0.00033911219938396694,0.0003497528939016505,0.03678350998492627,0.0,0.0,0.0,0.0,0.0,0.0,0.0,0.0,0.0,-0.3231822587730246,-0.04630939442884632,-0.002966550102070913,0.0,0.0,0.0,0.0,0.0,0.0,0.0,0.0,0.0
11.068,322,11,68000000,base_footprint,-0.003850118961296197,-0.0001657834404833423,0.9991548917904403,-0.0409225037243411,0.0,0.0,0.0,0.0,0.0,0.0,0.0,0.0,0.0,-0.00012561309485921473,3.0304498842138725e-05,0.06320981529489095,0.0,0.0,0.0,0.0,0.0,0.0,0.0,0.0,0.0,-0.14342712483510403,-0.008933812947247204,-0.0008280323655762401,0.0,0.0,0.0,0.0,0.0,0.0,0.0,0.0,0.0
11.102,323,11,102000000,base_footprint,-0.0038524001837188905,-0.00016649256335970436,0.9991403866465864,-0.041274920530037465,0.0,0.0,0.0,0.0,0.0,0.0,0.0,0.0,0.0,-7.17798699879209e-05,-7.798652402637323e-05,0.012676370869641445,0.0,0.0,0.0,0.0,0.0,0.0,0.0,0.0,0.0,0.1324363788202645,0.02674117829115809,0.000809441541770879,0.0,0.0,0.0,0.0,0.0,0.0,0.0,0.0,0.0
11.136,324,11,136000000,base_footprint,-0.0038544148234696315,-0.0001671009190641099,0.9991336001503377,-0.04143868499695217,0.0,0.0,0.0,0.0,0.0,0.0,0.0,0.0,0.0,1.4087255274749844e-05,0.00026427114148248974,-7.140982735161795e-05,0.0,0.0,0.0,0.0,0.0,0.0,0.0,0.0,0.0,0.13393834646417124,0.024100272344542192,0.0011778271517396586,0.0,0.0,0.0,0.0,0.0,0.0,0.0,0.0,0.0
11.17,325,11,170000000,base_footprint,-0.003855558969388964,-0.000167813021948682,0.9991234541980304,-0.04168248763233379,0.0,0.0,0.0,0.0,0.0,0.0,0.0,0.0,0.0,-0.0005631846916643862,-0.0003809934123376815,0.019409258128224482,0.0,0.0,0.0,0.0,0.0,0.0,0.0,0.0,0.0,0.043815132542286944,0.010623427227530322,0.0010123722440415215,0.0,0.0,0.0,0.0,0.0,0.0,0.0,0.0,0.0
11.204,326,11,204000000,base_footprint,-0.0038503924515409264,-0.00017567370575043509,0.9991008333952954,-0.04222165706772332,0.0,0.0,0.0,0.0,0.0,0.0,0.0,0.0,0.0,-0.0002420036089629777,-0.0004152166898874156,0.05761670914899744,0.0,0.0,0.0,0.0,0.0,0.0,0.0,0.0,0.0,0.00962800351062707,0.010216902270126945,0.0001693359033090782,0.0,0.0,0.0,0.0,0.0,0.0,0.0,0.0,0.0
11.238,327,11,238000000,base_footprint,-0.0038471299042107145,-0.00017198598051045624,0.9990294262847037,-0.04387910014549799,0.0,0.0,0.0,0.0,0.0,0.0,0.0,0.0,0.0,-0.0007848600488094151,-0.0009352328574786204,0.10803226941709614,0.0,0.0,0.0,0.0,0.0,0.0,0.0,0.0,0.0,0.055370742583274186,0.029259210788444668,0.0007283208710736132,0.0,0.0,0.0,0.0,0.0,0.0,0.0,0.0,0.0
