Time,yaw_world,delta_position_x_world,delta_position_y_world,delta_yaw,Theta_calculated,linear_velocity_x,world_velocity_x,world_velocity_y,angular_velocity_yaw,linear_acceleration_x,angular_acceleration_yaw,kinematic_delta_x,kinematic_delta_y,kinematic_delta_yaw,header.seq_x,header.stamp.secs_x,header.stamp.nsecs_x,header.frame_id_x,child_frame_id,pose.pose.position.x,pose.pose.position.y,pose.pose.position.z,pose.pose.orientation.x,pose.pose.orientation.y,pose.pose.orientation.z,pose.pose.orientation.w,pose.covariance,twist.twist.linear.x,twist.twist.linear.y,twist.twist.linear.z,twist.twist.angular.x,twist.twist.angular.y,twist.twist.angular.z,twist.covariance,linear.x,linear.y,linear.z,angular.x,angular.y,angular.z,header.seq_y,header.stamp.secs_y,header.stamp.nsecs_y,header.frame_id_y,orientation.x,orientation.y,orientation.z,orientation.w,orientation_covariance_0,orientation_covariance_1,orientation_covariance_2,orientation_covariance_3,orientation_covariance_4,orientation_covariance_5,orientation_covariance_6,orientation_covariance_7,orientation_covariance_8,angular_velocity.x,angular_velocity.y,angular_velocity.z,angular_velocity_covariance_0,angular_velocity_covariance_1,angular_velocity_covariance_2,angular_velocity_covariance_3,angular_velocity_covariance_4,angular_velocity_covariance_5,angular_velocity_covariance_6,angular_velocity_covariance_7,angular_velocity_covariance_8,linear_acceleration.x,linear_acceleration.y,linear_acceleration.z,linear_acceleration_covariance_0,linear_acceleration_covariance_1,linear_acceleration_covariance_2,linear_acceleration_covariance_3,linear_acceleration_covariance_4,linear_acceleration_covariance_5,linear_acceleration_covariance_6,linear_acceleration_covariance_7,linear_acceleration_covariance_8
0.329,-1.5731957434808646,-3.1262209450038395e-08,5.465124618998785e-07,-3.795751624124933e-07,-1.5708050749607008,-2.221658910315318e-06,1.9435440507447347e-11,2.2216589102303054e-06,-9.919484247972971e-06,-0.0001671844746738632,0.0003305086319664257,1.387499129891407e-13,7.398124170124244e-08,-3.303188254575e-07,4,0,325000000,odom,base_footprint,-1.277903744763973e-06,1.3356925856705495e-05,-0.0007569403631789,0.0013775636232637,0.0014435695115518,-0.7079531111941758,0.7062566182174977,"(1e-05, 0.0, 0.0, 0.0, 0.0, 0.0, 0.0, 1e-05, 0.0, 0.0, 0.0, 0.0, 0.0, 0.0, 1000000000000.0, 0.0, 0.0, 0.0, 0.0, 0.0, 0.0, 1000000000000.0, 0.0, 0.0, 0.0, 0.0, 0.0, 0.0, 1000000000000.0, 0.0, 0.0, 0.0, 0.0, 0.0, 0.0, 0.001)",-1.4726091916000694e-05,-5.28834017649382e-07,0.0,0.0,0.0,-2.5393592593478933e-06,"(0.0, 0.0, 0.0, 0.0, 0.0, 0.0, 0.0, 0.0, 0.0, 0.0, 0.0, 0.0, 0.0, 0.0, 0.0, 0.0, 0.0, 0.0, 0.0, 0.0, 0.0, 0.0, 0.0, 0.0, 0.0, 0.0, 0.0, 0.0, 0.0, 0.0, 0.0, 0.0, 0.0, 0.0, 0.0, 0.0)",,,,,,,4,0,329000000,base_footprint,0.0014489901392836,0.0015161302644714,-0.7079529631223257,0.7062564716750682,0.0,0.0,0.0,0.0,0.0,0.0,0.0,0.0,0.0,0.0002790990090606,-0.0677304589868561,-0.0002855884832811,0.0,0.0,0.0,0.0,0.0,0.0,0.0,0.0,0.0,0.0002307851004483,-4.059775952529152e-05,0.0001493758567412,0.0,0.0,0.0,0.0,0.0,0.0,0.0,0.0,0.0
0.36300000000000004,-1.5731957615332897,-6.434011206927267e-09,8.164916474907857e-07,-1.8052425110326453e-08,-1.5708054052795262,-1.3351203012161978e-07,1.2120869133023165e-12,1.335120301161178e-07,3.9157964894706176e-06,6.270711351933027e-05,0.00041547389601932696,8.778317110582403e-15,4.445950602731431e-09,1.3039602309937158e-07,5,0,358000000,odom,base_footprint,-1.285429119119262e-06,1.4122424718246776e-05,-0.0009048962336086,0.0021628666794551,0.002241341457067,-0.7079510378473425,0.706254646998567,"(1e-05, 0.0, 0.0, 0.0, 0.0, 0.0, 0.0, 1e-05, 0.0, 0.0, 0.0, 0.0, 0.0, 0.0, 1000000000000.0, 0.0, 0.0, 0.0, 0.0, 0.0, 0.0, 1000000000000.0, 0.0, 0.0, 0.0, 0.0, 0.0, 0.0, 1000000000000.0, 0.0, 0.0, 0.0, 0.0, 0.0, 0.0, 0.001)",-2.2418001711435912e-05,-1.406316837140718e-07,0.0,0.0,0.0,4.578591970344128e-06,"(0.0, 0.0, 0.0, 0.0, 0.0, 0.0, 0.0, 0.0, 0.0, 0.0, 0.0, 0.0, 0.0, 0.0, 0.0, 0.0, 0.0, 0.0, 0.0, 0.0, 0.0, 0.0, 0.0, 0.0, 0.0, 0.0, 0.0, 0.0, 0.0, 0.0, 0.0, 0.0, 0.0, 0.0, 0.0, 0.0)",,,,,,,5,0,363000000,base_footprint,0.002257996549846,0.0023379822038387,-0.707950721955059,0.7062543526054237,0.0,0.0,0.0,0.0,0.0,0.0,0.0,0.0,0.0,0.0002788983803441,-0.0676535697819636,-0.0004347110506033,0.0,0.0,0.0,0.0,0.0,0.0,0.0,0.0,0.0,0.0002329133565747,-1.2434178895960406e-05,0.0001513352715888,0.0,0.0,0.0,0.0,0.0,0.0,0.0,0.0,0.0
0.397,-1.5732070485235587,1.072340173441791e-05,-3.7745777813208425e-06,-1.1286990269088193e-05,-1.570805274883503,0.00014161691514235584,-1.26720070485019e-09,-0.0001416169151366863,-9.718896177325436e-05,0.004256769584759083,-0.0030361789268085575,-1.663860591128898e-11,-4.715843274052364e-06,-3.2363924270493704e-06,6,0,392000000,odom,base_footprint,8.24564167925194e-06,1.1318248600305884e-05,-0.0010028743231446,0.0027802716947625,0.0027846976302862,-0.7079522028481463,0.7062493851543294,"(1e-05, 0.0, 0.0, 0.0, 0.0, 0.0, 0.0, 1e-05, 0.0, 0.0, 0.0, 0.0, 0.0, 0.0, 1000000000000.0, 0.0, 0.0, 0.0, 0.0, 0.0, 0.0, 1000000000000.0, 0.0, 0.0, 0.0, 0.0, 0.0, 0.0, 1000000000000.0, 0.0, 0.0, 0.0, 0.0, 0.0, 0.0, 0.001)",0.0002237270486176,0.0005238719851044,0.0,0.0,0.0,-0.000680714168592,"(0.0, 0.0, 0.0, 0.0, 0.0, 0.0, 0.0, 0.0, 0.0, 0.0, 0.0, 0.0, 0.0, 0.0, 0.0, 0.0, 0.0, 0.0, 0.0, 0.0, 0.0, 0.0, 0.0, 0.0, 0.0, 0.0, 0.0, 0.0, 0.0, 0.0, 0.0, 0.0, 0.0, 0.0, 0.0, 0.0)",,,,,,,6,0,397000000,base_footprint,0.0027481202277652,0.0027527553784414,-0.7079532085957626,0.7062486280425648,0.0,0.0,0.0,0.0,0.0,0.0,0.0,0.0,0.0,0.0001661589220079,0.0299478530008372,-0.0003687731810824,0.0,0.0,0.0,0.0,0.0,0.0,0.0,0.0,0.0,-0.0069102982785169,-0.0064411637531509,0.1309422628362218,0.0,0.0,0.0,0.0,0.0,0.0,0.0,0.0,0.0
0.43100000000000005,-1.5732177663066316,-4.240640930162994e-07,-9.351129527795932e-07,-1.0717783072822229e-05,-1.5708085112759302,5.384600267026576e-05,-6.560855982559946e-10,-5.384600266626873e-05,-0.00036833826615456086,-0.0026357631373000023,-0.008142621753192386,-2.022458008580944e-11,-1.7930718887926298e-06,-1.2265664262946877e-05,7,0,425000000,odom,base_footprint,8.999782662987032e-06,9.52155436643662e-06,-0.0010024856138581,0.0027286138492906,0.0027323108109422,-0.7079571575903455,0.7062448245195801,"(1e-05, 0.0, 0.0, 0.0, 0.0, 0.0, 0.0, 1e-05, 0.0, 0.0, 0.0, 0.0, 0.0, 0.0, 1000000000000.0, 0.0, 0.0, 0.0, 0.0, 0.0, 0.0, 1000000000000.0, 0.0, 0.0, 0.0, 0.0, 0.0, 0.0, 1000000000000.0, 0.0, 0.0, 0.0, 0.0, 0.0, 0.0, 0.001)",4.244843270976029e-07,4.937878266561908e-06,0.0,0.0,0.0,8.003746895713482e-05,"(0.0, 0.0, 0.0, 0.0, 0.0, 0.0, 0.0, 0.0, 0.0, 0.0, 0.0, 0.0, 0.0, 0.0, 0.0, 0.0, 0.0, 0.0, 0.0, 0.0, 0.0, 0.0, 0.0, 0.0, 0.0, 0.0, 0.0, 0.0, 0.0, 0.0, 0.0, 0.0, 0.0, 0.0, 0.0, 0.0)",,,,,,,7,0,431000000,base_footprint,0.0027279808916199,0.0027316037393426,-0.7079570755532245,0.706244911935932,0.0,0.0,0.0,0.0,0.0,0.0,0.0,0.0,0.0,-4.520791896577528e-05,-0.0001039189962336,7.015638698318248e-05,0.0,0.0,0.0,0.0,0.0,0.0,0.0,0.0,0.0,0.0062510456846476,0.0052883761123795,0.0007836028108006,0.0,0.0,0.0,0.0,0.0,0.0,0.0,0.0,0.0
0.465,-1.57321110532314,4.277893566315396e-07,7.05290859517177e-08,6.6609834916686594e-06,-1.5708207769401932,-2.933690499617101e-06,7.172915896361745e-11,2.9336904987402064e-06,8.246109913237586e-05,-0.001705095890987473,0.013537518477085186,1.5668946402297482e-12,9.769189362207122e-08,2.7459546011081166e-06,8,0,458000000,odom,base_footprint,9.34138477940002e-06,9.577396305126064e-06,-0.0010024074648169,0.0027280580316055,0.0027318426325774,-0.7079552683975916,0.7062467222460584,"(1e-05, 0.0, 0.0, 0.0, 0.0, 0.0, 0.0, 1e-05, 0.0, 0.0, 0.0, 0.0, 0.0, 0.0, 1000000000000.0, 0.0, 0.0, 0.0, 0.0, 0.0, 0.0, 1000000000000.0, 0.0, 0.0, 0.0, 0.0, 0.0, 0.0, 1000000000000.0, 0.0, 0.0, 0.0, 0.0, 0.0, 0.0, 0.001)",-2.595039593241701e-06,1.7252840057557137e-05,0.0,0.0,0.0,0.0002656604131915,"(0.0, 0.0, 0.0, 0.0, 0.0, 0.0, 0.0, 0.0, 0.0, 0.0, 0.0, 0.0, 0.0, 0.0, 0.0, 0.0, 0.0, 0.0, 0.0, 0.0, 0.0, 0.0, 0.0, 0.0, 0.0, 0.0, 0.0, 0.0, 0.0, 0.0, 0.0, 0.0, 0.0, 0.0, 0.0, 0.0)",,,,,,,8,0,465000000,base_footprint,0.0027280452347686,0.0027318543244279,-0.7079547224716608,0.706247269496471,0.0,0.0,0.0,0.0,0.0,0.0,0.0,0.0,0.0,-2.844704475183236e-05,0.0001906820319584,0.0002856521394489,0.0,0.0,0.0,0.0,0.0,0.0,0.0,0.0,0.0,5.067018397279715e-05,-0.0004185643166705,0.000293689303854,0.0,0.0,0.0,0.0,0.0,0.0,0.0,0.0,0.0
0.49900000000000005,-1.5732011631270595,6.458445904331964e-07,1.0151577736500741e-07,9.942196080414691e-06,-1.570818030985592,-2.1685145622027155e-06,4.706585357988411e-11,2.168514561691952e-06,0.00022481320564566478,2.2978256378810376e-05,0.004274838033432099,7.887683038164653e-13,7.221153491583096e-08,7.486279748000638e-06,8,0,458000000,odom,base_footprint,9.34138477940002e-06,9.577396305126064e-06,-0.0010024074648169,0.0027280580316055,0.0027318426325774,-0.7079552683975916,0.7062467222460584,"(1e-05, 0.0, 0.0, 0.0, 0.0, 0.0, 0.0, 1e-05, 0.0, 0.0, 0.0, 0.0, 0.0, 0.0, 1000000000000.0, 0.0, 0.0, 0.0, 0.0, 0.0, 0.0, 1000000000000.0, 0.0, 0.0, 0.0, 0.0, 0.0, 0.0, 1000000000000.0, 0.0, 0.0, 0.0, 0.0, 0.0, 0.0, 0.001)",-2.595039593241701e-06,1.7252840057557137e-05,0.0,0.0,0.0,0.0002656604131915,"(0.0, 0.0, 0.0, 0.0, 0.0, 0.0, 0.0, 0.0, 0.0, 0.0, 0.0, 0.0, 0.0, 0.0, 0.0, 0.0, 0.0, 0.0, 0.0, 0.0, 0.0, 0.0, 0.0, 0.0, 0.0, 0.0, 0.0, 0.0, 0.0, 0.0, 0.0, 0.0, 0.0, 0.0, 0.0, 0.0)",,,,,,,9,0,499000000,base_footprint,0.002727929574411,0.0027318207304756,-0.7079512118218436,0.7062507891929868,0.0,0.0,0.0,0.0,0.0,0.0,0.0,0.0,0.0,-3.100689409841139e-05,0.0001785647348111,0.0003297271598948,0.0,0.0,0.0,0.0,0.0,0.0,0.0,0.0,0.0,1.2546586781853568e-05,-8.659982478330225e-05,-1.905300940126912e-05,0.0,0.0,0.0,0.0,0.0,0.0,0.0,0.0,0.0
0.533,-1.5731904104951528,6.998425835621085e-07,1.0945061869761272e-07,1.0752631906640888e-05,-1.570810544705844,-1.002309136756748e-06,1.4250742047698623e-11,1.00230913665544e-06,0.00025397989642319814,3.502118394732635e-05,0.0008758765999259266,9.849949375249585e-14,3.3376894253339495e-08,8.457530550892499e-06,9,0,492000000,odom,base_footprint,9.967325340220087e-06,9.676054417308462e-06,-0.0010023942225565,0.0027279418413834,0.0027318216861831,-0.7079518633057205,0.7062501360888673,"(1e-05, 0.0, 0.0, 0.0, 0.0, 0.0, 0.0, 1e-05, 0.0, 0.0, 0.0, 0.0, 0.0, 0.0, 1000000000000.0, 0.0, 0.0, 0.0, 0.0, 0.0, 0.0, 1000000000000.0, 0.0, 0.0, 0.0, 0.0, 0.0, 0.0, 1000000000000.0, 0.0, 0.0, 0.0, 0.0, 0.0, 0.0, 0.001)",-3.1562375004092305e-06,2.115967537662776e-05,0.0,0.0,0.0,0.0003242531448058,"(0.0, 0.0, 0.0, 0.0, 0.0, 0.0, 0.0, 0.0, 0.0, 0.0, 0.0, 0.0, 0.0, 0.0, 0.0, 0.0, 0.0, 0.0, 0.0, 0.0, 0.0, 0.0, 0.0, 0.0, 0.0, 0.0, 0.0, 0.0, 0.0, 0.0, 0.0, 0.0, 0.0, 0.0, 0.0, 0.0)",,,,,,,10,0,533000000,base_footprint,0.0027278874336862,0.0027318296346914,-0.7079474148067683,0.7062545954579056,0.0,0.0,0.0,0.0,0.0,0.0,0.0,0.0,0.0,-3.1648500651036544e-05,0.0001765766061684,0.0003411810544119,0.0,0.0,0.0,0.0,0.0,0.0,0.0,0.0,0.0,3.212219165563255e-06,-2.254223802720052e-05,-3.6053011169105946e-06,0.0,0.0,0.0,0.0,0.0,0.0,0.0,0.0,0.0
0.5670000000000001,-1.5731794462933975,7.139443381967714e-07,1.1151832911716203e-07,1.0964201755392367e-05,-1.570802087175293,-2.9085457990540964e-07,1.6754330202800371e-12,2.9085457990058404e-07,0.0002633570851721283,2.1365001707247394e-05,0.0002815972597276319,-5.4844273701076114e-14,9.685457510778834e-09,8.769790936231872e-06,11,0,558000000,odom,base_footprint,1.1332597382106658e-05,9.88950700553902e-06,-0.0010023896762824,0.0027278677753712,0.0027318417951826,-0.7079444568211223,0.7062575605500111,"(1e-05, 0.0, 0.0, 0.0, 0.0, 0.0, 0.0, 1e-05, 0.0, 0.0, 0.0, 0.0, 0.0, 0.0, 1000000000000.0, 0.0, 0.0, 0.0, 0.0, 0.0, 0.0, 1000000000000.0, 0.0, 0.0, 0.0, 0.0, 0.0, 0.0, 1000000000000.0, 0.0, 0.0, 0.0, 0.0, 0.0, 0.0, 0.001)",-3.335307028135672e-06,2.2376141424774077e-05,0.0,0.0,0.0,0.0003424469396343,"(0.0, 0.0, 0.0, 0.0, 0.0, 0.0, 0.0, 0.0, 0.0, 0.0, 0.0, 0.0, 0.0, 0.0, 0.0, 0.0, 0.0, 0.0, 0.0, 0.0, 0.0, 0.0, 0.0, 0.0, 0.0, 0.0, 0.0, 0.0, 0.0, 0.0, 0.0, 0.0, 0.0, 0.0, 0.0, 0.0)",,,,,,,11,0,567000000,base_footprint,0.0027278626018491,0.0027318458784658,-0.7079435430322962,0.7062584765244245,0.0,0.0,0.0,0.0,0.0,0.0,0.0,0.0,0.0,-3.185100236577567e-05,0.0001760438938977,0.0003442201693593,0.0,0.0,0.0,0.0,0.0,0.0,0.0,0.0,0.0,8.598835326850387e-07,-5.977312552456329e-06,-9.549853832168072e-07,0.0,0.0,0.0,0.0,0.0,0.0,0.0,0.0,0.0
0.6010000000000001,-1.5731684257934275,7.176929133352437e-07,1.1207615008713454e-07,1.1020499969927045e-05,-1.570793317384357,3.3726297525225174e-07,1.014962752379016e-12,-3.372629752507245e-07,0.000272918978203716,1.8862389043773613e-05,0.0002871439348825134,1.638752995253357e-13,-1.1230857074555515e-08,9.088201974183743e-06,11,0,558000000,odom,base_footprint,1.1332597382106658e-05,9.88950700553902e-06,-0.0010023896762824,0.0027278677753712,0.0027318417951826,-0.7079444568211223,0.7062575605500111,"(1e-05, 0.0, 0.0, 0.0, 0.0, 0.0, 0.0, 1e-05, 0.0, 0.0, 0.0, 0.0, 0.0, 0.0, 1000000000000.0, 0.0, 0.0, 0.0, 0.0, 0.0, 0.0, 1000000000000.0, 0.0, 0.0, 0.0, 0.0, 0.0, 0.0, 1000000000000.0, 0.0, 0.0, 0.0, 0.0, 0.0, 0.0, 0.001)",-3.335307028135672e-06,2.2376141424774077e-05,0.0,0.0,0.0,0.0003424469396343,"(0.0, 0.0, 0.0, 0.0, 0.0, 0.0, 0.0, 0.0, 0.0, 0.0, 0.0, 0.0, 0.0, 0.0, 0.0, 0.0, 0.0, 0.0, 0.0, 0.0, 0.0, 0.0, 0.0, 0.0, 0.0, 0.0, 0.0, 0.0, 0.0, 0.0, 0.0, 0.0, 0.0, 0.0, 0.0, 0.0)",,,,,,,12,0,601000000,base_footprint,0.0027278426622611,0.0027318638626139,-0.7079396513494115,0.7062623774784551,0.0,0.0,0.0,0.0,0.0,0.0,0.0,0.0,0.0,-3.1930175026486415e-05,0.0001759021381787,0.0003450364664732,0.0,0.0,0.0,0.0,0.0,0.0,0.0,0.0,0.0,2.381286127628526e-07,-1.601477666770483e-06,-2.486510328233775e-07,0.0,0.0,0.0,0.0,0.0,0.0,0.0,0.0,0.0
0.635,-1.5731573900517852,7.187039133880568e-07,1.1223453668957575e-07,1.1035741642295704e-05,-1.5707842291823826,9.466668716306408e-07,1.1452408992580824e-11,-9.466668715613672e-07,0.00026312636869774803,1.8300417308660332e-05,-0.0002940723575365749,7.41339711810669e-13,-3.1524006816149405e-08,8.76210807763501e-06,13,0,625000000,odom,base_footprint,1.2747217854309908e-05,1.0110418389384576e-05,-0.0010023895809972,0.0027278290455816,0.0027318772602191,-0.7079367860741991,0.7062652495474111,"(1e-05, 0.0, 0.0, 0.0, 0.0, 0.0, 0.0, 1e-05, 0.0, 0.0, 0.0, 0.0, 0.0, 0.0, 1000000000000.0, 0.0, 0.0, 0.0, 0.0, 0.0, 0.0, 1000000000000.0, 0.0, 0.0, 0.0, 0.0, 0.0, 0.0, 1000000000000.0, 0.0, 0.0, 0.0, 0.0, 0.0, 0.0, 0.001)",-3.34934670495724e-06,2.2470360284337164e-05,0.0,0.0,0.0,0.0003438602481934,"(0.0, 0.0, 0.0, 0.0, 0.0, 0.0, 0.0, 0.0, 0.0, 0.0, 0.0, 0.0, 0.0, 0.0, 0.0, 0.0, 0.0, 0.0, 0.0, 0.0, 0.0, 0.0, 0.0, 0.0, 0.0, 0.0, 0.0, 0.0, 0.0, 0.0, 0.0, 0.0, 0.0, 0.0, 0.0, 0.0)",,,,,,,13,0,635000000,base_footprint,0.0027278242512638,0.0027318820729143,-0.7079357542618829,0.706266283800135,0.0,0.0,0.0,0.0,0.0,0.0,0.0,0.0,0.0,-3.197491731524352e-05,0.0001758639545671,0.0003452649540613,0.0,0.0,0.0,0.0,0.0,0.0,0.0,0.0,0.0,7.36739822460427e-08,-4.442755975542306e-07,-6.220041045168367e-08,0.0,0.0,0.0,0.0,0.0,0.0,0.0,0.0,0.0
0.669,-1.5731463499252063,7.189909909561629e-07,1.1228729412081362e-07,1.104012657893172e-05,-1.570775467074305,1.6120059859279246e-06,3.362599445596641e-11,-1.6120059855772097e-06,0.0002592409031567563,1.9980153582501014e-05,-0.00011668064687662872,1.729246817677845e-12,-5.3679799303789604e-08,8.632722075119986e-06,13,0,625000000,odom,base_footprint,1.2747217854309908e-05,1.0110418389384576e-05,-0.0010023895809972,0.0027278290455816,0.0027318772602191,-0.7079367860741991,0.7062652495474111,"(1e-05, 0.0, 0.0, 0.0, 0.0, 0.0, 0.0, 1e-05, 0.0, 0.0, 0.0, 0.0, 0.0, 0.0, 1000000000000.0, 0.0, 0.0, 0.0, 0.0, 0.0, 0.0, 1000000000000.0, 0.0, 0.0, 0.0, 0.0, 0.0, 0.0, 1000000000000.0, 0.0, 0.0, 0.0, 0.0, 0.0, 0.0, 0.001)",-3.34934670495724e-06,2.2470360284337164e-05,0.0,0.0,0.0,0.0003438602481934,"(0.0, 0.0, 0.0, 0.0, 0.0, 0.0, 0.0, 0.0, 0.0, 0.0, 0.0, 0.0, 0.0, 0.0, 0.0, 0.0, 0.0, 0.0, 0.0, 0.0, 0.0, 0.0, 0.0, 0.0, 0.0, 0.0, 0.0, 0.0, 0.0, 0.0, 0.0, 0.0, 0.0, 0.0, 0.0, 0.0)",,,,,,,14,0,669000000,base_footprint,0.0027278064585802,0.002731900131807,-0.7079318556049273,0.7062701916500219,0.0,0.0,0.0,0.0,0.0,0.0,0.0,0.0,0.0,-3.200881570344237e-05,0.0001758531520095,0.0003453380167175,0.0,0.0,0.0,0.0,0.0,0.0,0.0,0.0,0.0,3.0178317664773406e-08,-1.3825616268370697e-07,-1.3387153183487834e-08,0.0,0.0,0.0,0.0,0.0,0.0,0.0,0.0,0.0
0.7030000000000001,-1.5731353082847566,7.190866122778147e-07,1.1231211519309447e-07,1.104164044973821e-05,-1.5707668343522299,2.459107722549558e-06,7.252509350817113e-11,-2.459107721480087e-06,0.0002608644954034915,2.5438490589238243e-05,4.875652392598145e-05,3.347089251321431e-12,-8.188828709230395e-08,8.686787696936267e-06,14,0,658000000,odom,base_footprint,1.3445014447128e-05,1.021939322242045e-05,-0.0010023896809809,0.0027278116482009,0.0027318948431931,-0.7079330023489996,0.7062690422065157,"(1e-05, 0.0, 0.0, 0.0, 0.0, 0.0, 0.0, 1e-05, 0.0, 0.0, 0.0, 0.0, 0.0, 0.0, 1000000000000.0, 0.0, 0.0, 0.0, 0.0, 0.0, 0.0, 1000000000000.0, 0.0, 0.0, 0.0, 0.0, 0.0, 0.0, 1000000000000.0, 0.0, 0.0, 0.0, 0.0, 0.0, 0.0, 0.001)",-3.350359897991173e-06,2.247657132354609e-05,0.0,0.0,0.0,0.0003439553548065,"(0.0, 0.0, 0.0, 0.0, 0.0, 0.0, 0.0, 0.0, 0.0, 0.0, 0.0, 0.0, 0.0, 0.0, 0.0, 0.0, 0.0, 0.0, 0.0, 0.0, 0.0, 0.0, 0.0, 0.0, 0.0, 0.0, 0.0, 0.0, 0.0, 0.0, 0.0, 0.0, 0.0, 0.0, 0.0, 0.0)",,,,,,,15,0,703000000,base_footprint,0.0027277890235616,0.0027319179591017,-0.7079279563926963,0.706274100012855,0.0,0.0,0.0,0.0,0.0,0.0,0.0,0.0,0.0,-3.203826998254658e-05,0.0001758495940896,0.0003453699851697,0.0,0.0,0.0,0.0,0.0,0.0,0.0,0.0,0.0,1.867167142801191e-08,-5.730855967083545e-08,-9.121439548957711e-10,0.0,0.0,0.0,0.0,0.0,0.0,0.0,0.0,0.0
0.7370000000000001,-1.5731242658899005,7.191315753137117e-07,1.1232954543957504e-07,1.1042394856053407e-05,-1.570758147564533,3.3036043422522526e-06,1.2612907118274397e-10,-3.303604339844497e-06,0.0002447606111599097,2.5360258849930766e-05,-0.00048360012743488853,5.4226711739806096e-12,-1.1001002446229479e-07,8.150528351624994e-06,16,0,725000000,odom,base_footprint,1.4862050776893406e-05,1.04407201050212e-05,-0.0010023898977494,0.0027277773856058,0.0027319298847086,-0.7079253185214803,0.7062767440500222,"(1e-05, 0.0, 0.0, 0.0, 0.0, 0.0, 0.0, 1e-05, 0.0, 0.0, 0.0, 0.0, 0.0, 0.0, 1000000000000.0, 0.0, 0.0, 0.0, 0.0, 0.0, 0.0, 1000000000000.0, 0.0, 0.0, 0.0, 0.0, 0.0, 0.0, 1000000000000.0, 0.0, 0.0, 0.0, 0.0, 0.0, 0.0, 0.001)",-3.3511254896225663e-06,2.2480371346776596e-05,0.0,0.0,0.0,0.0003440168258136,"(0.0, 0.0, 0.0, 0.0, 0.0, 0.0, 0.0, 0.0, 0.0, 0.0, 0.0, 0.0, 0.0, 0.0, 0.0, 0.0, 0.0, 0.0, 0.0, 0.0, 0.0, 0.0, 0.0, 0.0, 0.0, 0.0, 0.0, 0.0, 0.0, 0.0, 0.0, 0.0, 0.0, 0.0, 0.0, 0.0)",,,,,,,16,0,737000000,base_footprint,0.002727771859204,0.0027319355514315,-0.7079240568933878,0.7062780086201428,0.0,0.0,0.0,0.0,0.0,0.0,0.0,0.0,0.0,-3.2065118721225395e-05,0.0001758479557138,0.0003453910902295,0.0,0.0,0.0,0.0,0.0,0.0,0.0,0.0,0.0,1.5625266432079608e-08,-3.587659317878011e-08,1.9945879044485753e-09,0.0,0.0,0.0,0.0,0.0,0.0,0.0,0.0,0.0
0.771,-1.573113222941732,7.19163112572739e-07,1.1234501828654045e-07,1.1042948168560331e-05,-1.5707499970361813,4.3899121426936915e-06,2.0338357027949428e-10,-4.389912137982335e-06,0.0002337053770915541,3.2621855869112274e-05,-0.00033198901106172953,8.370346805751675e-12,-1.4618407411241237e-07,7.782389057148752e-06,17,0,758000000,odom,base_footprint,1.5560052320997517e-05,1.054975587186889e-05,-0.0010023899985574,0.0027277608778203,0.0027319468164789,-0.7079215335711319,0.7062805378130437,"(1e-05, 0.0, 0.0, 0.0, 0.0, 0.0, 0.0, 1e-05, 0.0, 0.0, 0.0, 0.0, 0.0, 0.0, 1000000000000.0, 0.0, 0.0, 0.0, 0.0, 0.0, 0.0, 1000000000000.0, 0.0, 0.0, 0.0, 0.0, 0.0, 0.0, 1000000000000.0, 0.0, 0.0, 0.0, 0.0, 0.0, 0.0, 0.001)",-3.3513835630342388e-06,2.248143929614028e-05,0.0,0.0,0.0,0.0003440350924386,"(0.0, 0.0, 0.0, 0.0, 0.0, 0.0, 0.0, 0.0, 0.0, 0.0, 0.0, 0.0, 0.0, 0.0, 0.0, 0.0, 0.0, 0.0, 0.0, 0.0, 0.0, 0.0, 0.0, 0.0, 0.0, 0.0, 0.0, 0.0, 0.0, 0.0, 0.0, 0.0, 0.0, 0.0, 0.0, 0.0)",,,,,,,17,0,771000000,base_footprint,0.0027277549260969,0.0027319529240852,-0.7079201571779519,0.7062819174008547,0.0,0.0,0.0,0.0,0.0,0.0,0.0,0.0,0.0,-3.208998100728354e-05,0.0001758468286401,0.000345409325344,0.0,0.0,0.0,0.0,0.0,0.0,0.0,0.0,0.0,1.4816708275501365e-08,-3.0184371785113624e-08,2.407743379826038e-09,0.0,0.0,0.0,0.0,0.0,0.0,0.0,0.0,0.0
0.805,-1.5731021794936744,7.191910718546183e-07,1.123599709064102e-07,1.1043448057579397e-05,-1.5707422146471242,5.891642509797295e-06,3.1880942995708277e-10,-5.891642501171563e-06,0.00022593328508902036,4.5097008021129224e-05,-0.00023339615623224416,1.2735187845248457e-11,-1.9619169516072367e-07,7.523578393464379e-06,18,0,792000000,odom,base_footprint,1.6279233704119507e-05,1.066211059131631e-05,-0.0010023900971878,0.0027277440804581,0.002731964056959,-0.7079176337270757,0.7062844466947299,"(1e-05, 0.0, 0.0, 0.0, 0.0, 0.0, 0.0, 1e-05, 0.0, 0.0, 0.0, 0.0, 0.0, 0.0, 1000000000000.0, 0.0, 0.0, 0.0, 0.0, 0.0, 0.0, 1000000000000.0, 0.0, 0.0, 0.0, 0.0, 0.0, 0.0, 1000000000000.0, 0.0, 0.0, 0.0, 0.0, 0.0, 0.0, 0.001)",-3.3516367938796863e-06,2.248245856803827e-05,0.0,0.0,0.0,0.0003440527378317,"(0.0, 0.0, 0.0, 0.0, 0.0, 0.0, 0.0, 0.0, 0.0, 0.0, 0.0, 0.0, 0.0, 0.0, 0.0, 0.0, 0.0, 0.0, 0.0, 0.0, 0.0, 0.0, 0.0, 0.0, 0.0, 0.0, 0.0, 0.0, 0.0, 0.0, 0.0, 0.0, 0.0, 0.0, 0.0, 0.0)",,,,,,,18,0,805000000,base_footprint,0.0027277381989375,0.0027319700957809,-0.707916257265179,0.7062858263361758,0.0,0.0,0.0,0.0,0.0,0.0,0.0,0.0,0.0,-3.21131410577678e-05,0.0001758458399692,0.000345426803835,0.0,0.0,0.0,0.0,0.0,0.0,0.0,0.0,0.0,1.4600351561245673e-08,-2.8656194971735243e-08,2.194500041273348e-09,0.0,0.0,0.0,0.0,0.0,0.0,0.0,0.0,0.0
0.8390000000000001,-1.5730911355600774,7.192180597033484e-07,1.1237478369195866e-07,1.1043933596965871e-05,-1.5707346910687308,7.294189724522533e-06,4.4958268017784064e-10,-7.294189710667355e-06,0.00020147379368738724,4.211853497673388e-05,-0.0007345192613103039,1.7495415600743875e-11,-2.4289651719250857e-07,6.7090773297899955e-06,19,0,825000000,odom,base_footprint,1.6977288711971326e-05,1.0771174955780465e-05,-0.0010023901881091,0.0027277279614198,0.0027319806094501,-0.7079138483993169,0.7062882407534383,"(1e-05, 0.0, 0.0, 0.0, 0.0, 0.0, 0.0, 1e-05, 0.0, 0.0, 0.0, 0.0, 0.0, 0.0, 1000000000000.0, 0.0, 0.0, 0.0, 0.0, 0.0, 0.0, 1000000000000.0, 0.0, 0.0, 0.0, 0.0, 0.0, 0.0, 1000000000000.0, 0.0, 0.0, 0.0, 0.0, 0.0, 0.0, 0.001)",-3.3518802939340665e-06,2.2483427470274277e-05,0.0,0.0,0.0,0.0003440695567016,"(0.0, 0.0, 0.0, 0.0, 0.0, 0.0, 0.0, 0.0, 0.0, 0.0, 0.0, 0.0, 0.0, 0.0, 0.0, 0.0, 0.0, 0.0, 0.0, 0.0, 0.0, 0.0, 0.0, 0.0, 0.0, 0.0, 0.0, 0.0, 0.0, 0.0, 0.0, 0.0, 0.0, 0.0, 0.0, 0.0)",,,,,,,19,0,839000000,base_footprint,0.0027277216575358,0.0027319870847805,-0.7079123571600638,0.7062897354211018,0.0,0.0,0.0,0.0,0.0,0.0,0.0,0.0,0.0,-3.213478337837148e-05,0.0001758448910947,0.0003454440844262,0.0,0.0,0.0,0.0,0.0,0.0,0.0,0.0,0.0,1.4540992215435149e-08,-2.82314059107333e-08,1.8456312483494115e-09,0.0,0.0,0.0,0.0,0.0,0.0,0.0,0.0,0.0
0.8730000000000001,-1.5730800911449405,7.192447677199654e-07,1.1238955755464405e-07,1.1044415136884922e-05,-1.570727981991401,9.075383897522518e-06,6.202553286399992e-10,-9.075383876326902e-06,0.00018081626018400898,5.348931450450404e-05,-0.0006203463514528007,2.36913017942709e-11,-3.0221028285647527e-07,6.021181464127499e-06,19,0,825000000,odom,base_footprint,1.6977288711971326e-05,1.0771174955780465e-05,-0.0010023901881091,0.0027277279614198,0.0027319806094501,-0.7079138483993169,0.7062882407534383,"(1e-05, 0.0, 0.0, 0.0, 0.0, 0.0, 0.0, 1e-05, 0.0, 0.0, 0.0, 0.0, 0.0, 0.0, 1000000000000.0, 0.0, 0.0, 0.0, 0.0, 0.0, 0.0, 1000000000000.0, 0.0, 0.0, 0.0, 0.0, 0.0, 0.0, 1000000000000.0, 0.0, 0.0, 0.0, 0.0, 0.0, 0.0, 0.001)",-3.3518802939340665e-06,2.2483427470274277e-05,0.0,0.0,0.0,0.0003440695567016,"(0.0, 0.0, 0.0, 0.0, 0.0, 0.0, 0.0, 0.0, 0.0, 0.0, 0.0, 0.0, 0.0, 0.0, 0.0, 0.0, 0.0, 0.0, 0.0, 0.0, 0.0, 0.0, 0.0, 0.0, 0.0, 0.0, 0.0, 0.0, 0.0, 0.0, 0.0, 0.0, 0.0, 0.0, 0.0, 0.0)",,,,,,,20,0,873000000,base_footprint,0.0027277052843077,0.0027320039079884,-0.7079084568639503,0.7062936446542822,0.0,0.0,0.0,0.0,0.0,0.0,0.0,0.0,0.0,-3.215505585171226e-05,0.0001758439553829,0.0003454613146364,0.0,0.0,0.0,0.0,0.0,0.0,0.0,0.0,0.0,1.4523477466360122e-08,-2.8100210551105928e-08,1.488096623779568e-09,0.0,0.0,0.0,0.0,0.0,0.0,0.0,0.0,0.0
0.907,-1.5730690462495014,7.192713810873319e-07,1.1240431948156965e-07,1.1044895439127346e-05,-1.5707219608099368,-0.00015359611063757656,-1.1422326043039217e-08,0.00015359611021286028,0.0022245924015457208,-0.00488502986591889,0.061374658899751106,-6.058087654145421e-10,5.114750447188891e-06,7.407892697147251e-05,20,0,858000000,odom,base_footprint,1.7675368945615195e-05,1.0880253246742593e-05,-0.0010023902746745,0.0027277120069051,0.0027319969998418,-0.7079100628913298,0.7062920349521109,"(1e-05, 0.0, 0.0, 0.0, 0.0, 0.0, 0.0, 1e-05, 0.0, 0.0, 0.0, 0.0, 0.0, 0.0, 1000000000000.0, 0.0, 0.0, 0.0, 0.0, 0.0, 0.0, 1000000000000.0, 0.0, 0.0, 0.0, 0.0, 0.0, 0.0, 1000000000000.0, 0.0, 0.0, 0.0, 0.0, 0.0, 0.0, 0.001)",-3.352122661829399e-06,2.2484388728214792e-05,0.0,0.0,0.0,0.0003440862955132,"(0.0, 0.0, 0.0, 0.0, 0.0, 0.0, 0.0, 0.0, 0.0, 0.0, 0.0, 0.0, 0.0, 0.0, 0.0, 0.0, 0.0, 0.0, 0.0, 0.0, 0.0, 0.0, 0.0, 0.0, 0.0, 0.0, 0.0, 0.0, 0.0, 0.0, 0.0, 0.0, 0.0, 0.0, 0.0, 0.0)",,,,,,,21,0,907000000,base_footprint,0.0027276890634952,0.0027320205808282,-0.7079045563772136,0.7062975540353368,0.0,0.0,0.0,0.0,0.0,0.0,0.0,0.0,0.0,-3.217408770121881e-05,0.0001758430256941,0.000345478533417,0.0,0.0,0.0,0.0,0.0,0.0,0.0,0.0,0.0,1.4517350468382306e-08,-2.804859256104518e-08,1.1527260284040182e-09,0.0,0.0,0.0,0.0,0.0,0.0,0.0,0.0,0.0
0.9410000000000001,-1.573058000874253,7.192979506979827e-07,1.1241907687826319e-07,1.1045375248430746e-05,-1.5706478818829654,1.0686582672432426e-05,1.5863688178282531e-09,-1.0686582554688234e-05,0.00016334559262454938,0.004933414213513783,-0.06189930357120634,5.6298499280937615e-11,-3.558631985448348e-07,5.439408234397495e-06,22,0,925000000,odom,base_footprint,1.909276050984005e-05,1.1101758013869896e-05,-0.0010023904385714,0.002727680059961,0.0027320298377707,-0.7079023766104696,0.7062997387538134,"(1e-05, 0.0, 0.0, 0.0, 0.0, 0.0, 0.0, 1e-05, 0.0, 0.0, 0.0, 0.0, 0.0, 0.0, 1000000000000.0, 0.0, 0.0, 0.0, 0.0, 0.0, 0.0, 1000000000000.0, 0.0, 0.0, 0.0, 0.0, 0.0, 0.0, 1000000000000.0, 0.0, 0.0, 0.0, 0.0, 0.0, 0.0, 0.001)",-3.3526160523367952e-06,2.2486335839689416e-05,0.0,0.0,0.0,0.0003441202353857,"(0.0, 0.0, 0.0, 0.0, 0.0, 0.0, 0.0, 0.0, 0.0, 0.0, 0.0, 0.0, 0.0, 0.0, 0.0, 0.0, 0.0, 0.0, 0.0, 0.0, 0.0, 0.0, 0.0, 0.0, 0.0, 0.0, 0.0, 0.0, 0.0, 0.0, 0.0, 0.0, 0.0, 0.0, 0.0, 0.0)",,,,,,,22,0,941000000,base_footprint,0.0027276729808555,0.0027320371173141,-0.7079006556999708,0.7063014635641431,0.0,0.0,0.0,0.0,0.0,0.0,0.0,0.0,0.0,-3.219199472944411e-05,0.0001758420998494,0.0003454957509344,0.0,0.0,0.0,0.0,0.0,0.0,0.0,0.0,0.0,1.4514509575545142e-08,-2.801962156233128e-08,8.456441860611627e-10,0.0,0.0,0.0,0.0,0.0,0.0,0.0,0.0,0.0
0.9750000000000001,-1.573046955019472,7.193244918188361e-07,1.124338319296106e-07,1.1045854781066566e-05,-1.570642442474731,8.868369354067548e-06,1.3647029836426357e-09,-8.868369249064351e-06,0.00018715558233947042,-5.4601000551497834e-05,0.0007150147061537848,4.8443297231537825e-11,-2.953166955119666e-07,6.232280891904366e-06,22,0,925000000,odom,base_footprint,1.909276050984005e-05,1.1101758013869896e-05,-0.0010023904385714,0.002727680059961,0.0027320298377707,-0.7079023766104696,0.7062997387538134,"(1e-05, 0.0, 0.0, 0.0, 0.0, 0.0, 0.0, 1e-05, 0.0, 0.0, 0.0, 0.0, 0.0, 0.0, 1000000000000.0, 0.0, 0.0, 0.0, 0.0, 0.0, 0.0, 1000000000000.0, 0.0, 0.0, 0.0, 0.0, 0.0, 0.0, 1000000000000.0, 0.0, 0.0, 0.0, 0.0, 0.0, 0.0, 0.001)",-3.3526160523367952e-06,2.2486335839689416e-05,0.0,0.0,0.0,0.0003441202353857,"(0.0, 0.0, 0.0, 0.0, 0.0, 0.0, 0.0, 0.0, 0.0, 0.0, 0.0, 0.0, 0.0, 0.0, 0.0, 0.0, 0.0, 0.0, 0.0, 0.0, 0.0, 0.0, 0.0, 0.0, 0.0, 0.0, 0.0, 0.0, 0.0, 0.0, 0.0, 0.0, 0.0, 0.0, 0.0, 0.0)",,,,,,,23,0,975000000,base_footprint,0.0027276570234822,0.0027320535301652,-0.7078967548322681,0.7063053732406503,0.0,0.0,0.0,0.0,0.0,0.0,0.0,0.0,0.0,-3.2208881430651206e-05,0.0001758411770863,0.0003455129697883,0.0,0.0,0.0,0.0,0.0,0.0,0.0,0.0,0.0,1.4512794200020651e-08,-2.7998148551307856e-08,5.662969625518563e-10,0.0,0.0,0.0,0.0,0.0,0.0,0.0,0.0,0.0
1.009,-1.5730359086853622,7.193510101424856e-07,1.1244858544572772e-07,1.1046334109643396e-05,-1.5706362101938391,7.426950657103634e-06,1.1891780903557915e-09,-7.426950561900056e-06,0.0002152064714937502,-4.328584675567308e-05,0.0008423690436720652,4.2226440468873603e-11,-2.473174532782028e-07,7.1663755007418825e-06,24,0,992000000,odom,base_footprint,2.051025519177413e-05,1.1323320082659743e-05,-0.0010023905888946,0.0027276486221344,0.0027320621732517,-0.707894689589916,0.7063074431291748,"(1e-05, 0.0, 0.0, 0.0, 0.0, 0.0, 0.0, 1e-05, 0.0, 0.0, 0.0, 0.0, 0.0, 0.0, 1000000000000.0, 0.0, 0.0, 0.0, 0.0, 0.0, 0.0, 1000000000000.0, 0.0, 0.0, 0.0, 0.0, 0.0, 0.0, 1000000000000.0, 0.0, 0.0, 0.0, 0.0, 0.0, 0.0, 0.001)",-3.3531063210134154e-06,2.2488280315666172e-05,0.0,0.0,0.0,0.0003441541741778,"(0.0, 0.0, 0.0, 0.0, 0.0, 0.0, 0.0, 0.0, 0.0, 0.0, 0.0, 0.0, 0.0, 0.0, 0.0, 0.0, 0.0, 0.0, 0.0, 0.0, 0.0, 0.0, 0.0, 0.0, 0.0, 0.0, 0.0, 0.0, 0.0, 0.0, 0.0, 0.0, 0.0, 0.0, 0.0, 0.0)",,,,,,,24,1,9000000,base_footprint,0.0027276411796712,0.0027320698309203,-0.7078928537741302,0.7063092830648284,0.0,0.0,0.0,0.0,0.0,0.0,0.0,0.0,0.0,-3.2224842786513614e-05,0.0001758402570479,0.0003455301905744,0.0,0.0,0.0,0.0,0.0,0.0,0.0,0.0,0.0,1.4511603360388346e-08,-2.798002059615269e-08,3.12845498838737e-10,0.0,0.0,0.0,0.0,0.0,0.0,0.0,0.0,0.0
1.043,-1.5730248618720957,7.193775087316124e-07,1.1246333784641765e-07,1.1046813266579749e-05,-1.5706290438183383,5.793592348747748e-06,9.691693685436319e-10,-5.7935922676849785e-06,0.00022742908448581097,-4.904979904972631e-05,0.0003670454351970203,3.436171407445185e-11,-1.9292662215404668e-07,7.573388513377506e-06,25,1,25000000,odom,base_footprint,2.1208462059383316e-05,1.143246872670721e-05,-0.0010023906586864,0.0027276332969944,0.0027320779425721,-0.7078909031736539,0.7063112380322868,"(1e-05, 0.0, 0.0, 0.0, 0.0, 0.0, 0.0, 1e-05, 0.0, 0.0, 0.0, 0.0, 0.0, 0.0, 1000000000000.0, 0.0, 0.0, 0.0, 0.0, 0.0, 0.0, 1000000000000.0, 0.0, 0.0, 0.0, 0.0, 0.0, 0.0, 1000000000000.0, 0.0, 0.0, 0.0, 0.0, 0.0, 0.0, 0.001)",-3.3533479542637307e-06,2.2489236585346187e-05,0.0,0.0,0.0,0.0003441708930338,"(0.0, 0.0, 0.0, 0.0, 0.0, 0.0, 0.0, 0.0, 0.0, 0.0, 0.0, 0.0, 0.0, 0.0, 0.0, 0.0, 0.0, 0.0, 0.0, 0.0, 0.0, 0.0, 0.0, 0.0, 0.0, 0.0, 0.0, 0.0, 0.0, 0.0, 0.0, 0.0, 0.0, 0.0, 0.0, 0.0)",,,,,,,25,1,43000000,base_footprint,0.0027276254388065,0.0027320860300469,-0.7078889525255748,0.7063131930366547,0.0,0.0,0.0,0.0,0.0,0.0,0.0,0.0,0.0,-3.223996471970724e-05,0.0001758393394379,0.0003455474134055,0.0,0.0,0.0,0.0,0.0,0.0,0.0,0.0,0.0,1.4510771726901288e-08,-2.7964073930583098e-08,8.271355782627831e-11,0.0,0.0,0.0,0.0,0.0,0.0,0.0,0.0,0.0
1.077,-1.5730138145798225,7.194039896729535e-07,1.1247808940316462e-07,1.10472922731919e-05,-1.570621470429825,4.650037855536024e-06,8.1308871272151e-10,-4.650037784449155e-06,0.00024248555727730814,-3.4340975772123834e-05,0.00045214633007499,2.8790840217104488e-11,-1.5484625791358167e-07,8.074769057334362e-06,25,1,25000000,odom,base_footprint,2.1208462059383316e-05,1.143246872670721e-05,-0.0010023906586864,0.0027276332969944,0.0027320779425721,-0.7078909031736539,0.7063112380322868,"(1e-05, 0.0, 0.0, 0.0, 0.0, 0.0, 0.0, 1e-05, 0.0, 0.0, 0.0, 0.0, 0.0, 0.0, 1000000000000.0, 0.0, 0.0, 0.0, 0.0, 0.0, 0.0, 1000000000000.0, 0.0, 0.0, 0.0, 0.0, 0.0, 0.0, 1000000000000.0, 0.0, 0.0, 0.0, 0.0, 0.0, 0.0, 0.001)",-3.3533479542637307e-06,2.2489236585346187e-05,0.0,0.0,0.0,0.0003441708930338,"(0.0, 0.0, 0.0, 0.0, 0.0, 0.0, 0.0, 0.0, 0.0, 0.0, 0.0, 0.0, 0.0, 0.0, 0.0, 0.0, 0.0, 0.0, 0.0, 0.0, 0.0, 0.0, 0.0, 0.0, 0.0, 0.0, 0.0, 0.0, 0.0, 0.0, 0.0, 0.0, 0.0, 0.0, 0.0, 0.0)",,,,,,,26,1,77000000,base_footprint,0.0027276097912588,0.0027321021370399,-0.7078850510866155,0.7063171031561104,0.0,0.0,0.0,0.0,0.0,0.0,0.0,0.0,0.0,-3.2254325200832646e-05,0.000175838423961,0.0003455646381429,0.0,0.0,0.0,0.0,0.0,0.0,0.0,0.0,0.0,1.4510198704540862e-08,-2.7949638534397797e-08,-1.2607166029006328e-10,0.0,0.0,0.0,0.0,0.0,0.0,0.0,0.0,0.0
1.111,-1.5730027668086748,7.194304547759779e-07,1.1249284036923823e-07,1.1047771147687513e-05,-1.5706133956607675,3.832433674914402e-06,7.010714347165592e-10,-3.832433610790505e-06,0.0002625302317154843,-2.455267809674541e-05,0.0006019421753206047,2.480171311723024e-11,-1.2762003896386627e-07,8.742256716125627e-06,27,1,92000000,odom,base_footprint,2.2626110326942135e-05,1.1654116298795944e-05,-0.0010023907930339,0.0027276024574758,0.0027321096874066,-0.7078832150494598,0.7063189432634027,"(1e-05, 0.0, 0.0, 0.0, 0.0, 0.0, 0.0, 1e-05, 0.0, 0.0, 0.0, 0.0, 0.0, 0.0, 1000000000000.0, 0.0, 0.0, 0.0, 0.0, 0.0, 0.0, 1000000000000.0, 0.0, 0.0, 0.0, 0.0, 0.0, 0.0, 1000000000000.0, 0.0, 0.0, 0.0, 0.0, 0.0, 0.0, 0.001)",-3.353840533299548e-06,2.249117792429896e-05,0.0,0.0,0.0,0.0003442048430076,"(0.0, 0.0, 0.0, 0.0, 0.0, 0.0, 0.0, 0.0, 0.0, 0.0, 0.0, 0.0, 0.0, 0.0, 0.0, 0.0, 0.0, 0.0, 0.0, 0.0, 0.0, 0.0, 0.0, 0.0, 0.0, 0.0, 0.0, 0.0, 0.0, 0.0, 0.0, 0.0, 0.0, 0.0, 0.0, 0.0)",,,,,,,27,1,111000000,base_footprint,0.0027275942282928,0.0027321181605124,-0.707881149457263,0.7063210134231793,0.0,0.0,0.0,0.0,0.0,0.0,0.0,0.0,0.0,-3.2267995084047125e-05,0.0001758375103965,0.0003455818647834,0.0,0.0,0.0,0.0,0.0,0.0,0.0,0.0,0.0,1.4509893207929638e-08,-2.7936814360239153e-08,-3.1566469293573465e-10,0.0,0.0,0.0,0.0,0.0,0.0,0.0,0.0,0.0
1.145,-1.5729917185587703,7.194569057097233e-07,1.1250759095887516e-07,1.1048249904499485e-05,-1.5706046534040514,2.983023375725216e-06,5.717662018947528e-10,-2.983023320929032e-06,0.00026464269535805146,-2.5507816792468037e-05,6.3437346623639e-05,2.0176632373986904e-11,-9.93346763624927e-08,8.812601755423114e-06,27,1,92000000,odom,base_footprint,2.2626110326942135e-05,1.1654116298795944e-05,-0.0010023907930339,0.0027276024574758,0.0027321096874066,-0.7078832150494598,0.7063189432634027,"(1e-05, 0.0, 0.0, 0.0, 0.0, 0.0, 0.0, 1e-05, 0.0, 0.0, 0.0, 0.0, 0.0, 0.0, 1000000000000.0, 0.0, 0.0, 0.0, 0.0, 0.0, 0.0, 1000000000000.0, 0.0, 0.0, 0.0, 0.0, 0.0, 0.0, 1000000000000.0, 0.0, 0.0, 0.0, 0.0, 0.0, 0.0, 0.001)",-3.353840533299548e-06,2.249117792429896e-05,0.0,0.0,0.0,0.0003442048430076,"(0.0, 0.0, 0.0, 0.0, 0.0, 0.0, 0.0, 0.0, 0.0, 0.0, 0.0, 0.0, 0.0, 0.0, 0.0, 0.0, 0.0, 0.0, 0.0, 0.0, 0.0, 0.0, 0.0, 0.0, 0.0, 0.0, 0.0, 0.0, 0.0, 0.0, 0.0, 0.0, 0.0, 0.0, 0.0, 0.0)",,,,,,,28,1,145000000,base_footprint,0.0027275787419852,0.0027321341082774,-0.7078772476375261,0.7063249238378477,0.0,0.0,0.0,0.0,0.0,0.0,0.0,0.0,0.0,-3.2281038487711104e-05,0.0001758365986207,0.0003455990932042,0.0,0.0,0.0,0.0,0.0,0.0,0.0,0.0,0.0,1.450979498974157e-08,-2.792521438054197e-08,-4.873278702362896e-10,0.0,0.0,0.0,0.0,0.0,0.0,0.0,0.0,0.0
1.179,-1.5729806698302131,7.194833438049361e-07,1.1252234135422815e-07,1.104872855717254e-05,-1.570595840802296,2.410458433563078e-06,4.832631484380625e-10,-2.410458385119332e-06,0.00027235663840433576,-1.71941424072714e-05,0.00023164994132985898,1.70215872760269e-11,-8.02682640322978e-08,9.069476058864381e-06,29,1,158000000,odom,base_footprint,2.4022700121372384e-05,1.1872511702768276e-05,-0.0010023909171492,0.0027275723858484,0.0027321406546786,-0.7078756409505347,0.7063265340514914,"(1e-05, 0.0, 0.0, 0.0, 0.0, 0.0, 0.0, 1e-05, 0.0, 0.0, 0.0, 0.0, 0.0, 0.0, 1000000000000.0, 0.0, 0.0, 0.0, 0.0, 0.0, 0.0, 1000000000000.0, 0.0, 0.0, 0.0, 0.0, 0.0, 0.0, 1000000000000.0, 0.0, 0.0, 0.0, 0.0, 0.0, 0.0, 0.001)",-3.354323689266801e-06,2.249308925032602e-05,0.0,0.0,0.0,0.0003442382932518,"(0.0, 0.0, 0.0, 0.0, 0.0, 0.0, 0.0, 0.0, 0.0, 0.0, 0.0, 0.0, 0.0, 0.0, 0.0, 0.0, 0.0, 0.0, 0.0, 0.0, 0.0, 0.0, 0.0, 0.0, 0.0, 0.0, 0.0, 0.0, 0.0, 0.0, 0.0, 0.0, 0.0, 0.0, 0.0, 0.0)",,,,,,,29,1,179000000,base_footprint,0.0027275633251481,0.002732149987422,-0.7078733456274117,0.7063288344001034,0.0,0.0,0.0,0.0,0.0,0.0,0.0,0.0,0.0,-3.229351367282663e-05,0.0001758356884988,0.0003456163233671,0.0,0.0,0.0,0.0,0.0,0.0,0.0,0.0,0.0,1.4509905055588498e-08,-2.7914869653057562e-08,-6.432288264612896e-10,0.0,0.0,0.0,0.0,0.0,0.0,0.0,0.0,0.0
1.213,-1.5729696206230959,7.195097704201624e-07,1.1253709172268783e-07,1.1049207117252992e-05,-1.5705867713262371,2.0099108119279402e-06,4.211877990746739e-10,-2.0099107677968363e-06,0.00028705822537927956,-1.2028457106160299e-05,0.0004414890983466605,1.4816502695099718e-11,-6.69300283967045e-08,9.55903890513001e-06,30,1,192000000,odom,base_footprint,2.474219434805613e-05,1.1985040117799654e-05,-0.0010023909783748,0.0027275569956859,0.0027321565074716,-0.7078717388620311,0.7063304446745153,"(1e-05, 0.0, 0.0, 0.0, 0.0, 0.0, 0.0, 1e-05, 0.0, 0.0, 0.0, 0.0, 0.0, 0.0, 1000000000000.0, 0.0, 0.0, 0.0, 0.0, 0.0, 0.0, 1000000000000.0, 0.0, 0.0, 0.0, 0.0, 0.0, 0.0, 1000000000000.0, 0.0, 0.0, 0.0, 0.0, 0.0, 0.0, 0.001)",-3.354571712454967e-06,2.2494072857280307e-05,0.0,0.0,0.0,0.0003442555276789,"(0.0, 0.0, 0.0, 0.0, 0.0, 0.0, 0.0, 0.0, 0.0, 0.0, 0.0, 0.0, 0.0, 0.0, 0.0, 0.0, 0.0, 0.0, 0.0, 0.0, 0.0, 0.0, 0.0, 0.0, 0.0, 0.0, 0.0, 0.0, 0.0, 0.0, 0.0, 0.0, 0.0, 0.0, 0.0, 0.0)",0.0,0.0,0.0,0.0,0.0,0.0,30,1,213000000,base_footprint,0.0027275479712617,0.0027321658043749,-0.7078694434269247,0.706332745109936,0.0,0.0,0.0,0.0,0.0,0.0,0.0,0.0,0.0,-3.2305473486015e-05,0.0001758347798088,0.0003456335551738,0.0,0.0,0.0,0.0,0.0,0.0,0.0,0.0,0.0,1.4510189632607516e-08,-2.7905538940782445e-08,-7.848386037660793e-10,0.0,0.0,0.0,0.0,0.0,0.0,0.0,0.0,0.0
1.247,-1.572958570937499,7.195361867625256e-07,1.1255184224900905e-07,1.1049685596953298e-05,-1.570577212287332,1.5853497841351088e-06,3.4737313448873307e-10,-1.5853497460778617e-06,0.00028365030765574293,-1.2749580414199141e-05,-0.00010233987157767644,1.2188402746963718e-11,-5.279214640400299e-08,9.445555244936241e-06,30,1,192000000,odom,base_footprint,2.474219434805613e-05,1.1985040117799654e-05,-0.0010023909783748,0.0027275569956859,0.0027321565074716,-0.7078717388620311,0.7063304446745153,"(1e-05, 0.0, 0.0, 0.0, 0.0, 0.0, 0.0, 1e-05, 0.0, 0.0, 0.0, 0.0, 0.0, 0.0, 1000000000000.0, 0.0, 0.0, 0.0, 0.0, 0.0, 0.0, 1000000000000.0, 0.0, 0.0, 0.0, 0.0, 0.0, 0.0, 1000000000000.0, 0.0, 0.0, 0.0, 0.0, 0.0, 0.0, 0.001)",-3.354571712454967e-06,2.2494072857280307e-05,0.0,0.0,0.0,0.0003442555276789,"(0.0, 0.0, 0.0, 0.0, 0.0, 0.0, 0.0, 0.0, 0.0, 0.0, 0.0, 0.0, 0.0, 0.0, 0.0, 0.0, 0.0, 0.0, 0.0, 0.0, 0.0, 0.0, 0.0, 0.0, 0.0, 0.0, 0.0, 0.0, 0.0, 0.0, 0.0, 0.0, 0.0, 0.0, 0.0, 0.0)",0.0,0.0,0.0,0.0,0.0,0.0,31,1,247000000,base_footprint,0.0027275326744117,0.0027321815649676,-0.7078655410360686,0.706336655967337,0.0,0.0,0.0,0.0,0.0,0.0,0.0,0.0,0.0,-3.231696571075711e-05,0.0001758338723099,0.000345650788594,0.0,0.0,0.0,0.0,0.0,0.0,0.0,0.0,0.0,1.4510650632814714e-08,-2.7897240441568124e-08,-9.132848075007207e-10,0.0,0.0,0.0,0.0,0.0,0.0,0.0,0.0,0.0
1.2810000000000001,-1.5729475207734933,7.195625938399035e-07,1.1256659304594713e-07,1.1050164005599328e-05,-1.5705677667320872,1.2970791211756626e-06,2.964604828235273e-10,-1.297079087296149e-06,0.00028767366040974085,-8.656776665448835e-06,0.00012082140402396133,1.0383007982773812e-11,-4.319273348681682e-08,9.579532891644371e-06,31,1,225000000,odom,base_footprint,2.5440552247900045e-05,1.209427297960055e-05,-0.0010023910362482,0.0027275421160347,0.0027321718368396,-0.7078679513587818,0.7063342404203414,"(1e-05, 0.0, 0.0, 0.0, 0.0, 0.0, 0.0, 1e-05, 0.0, 0.0, 0.0, 0.0, 0.0, 0.0, 1000000000000.0, 0.0, 0.0, 0.0, 0.0, 0.0, 0.0, 1000000000000.0, 0.0, 0.0, 0.0, 0.0, 0.0, 0.0, 1000000000000.0, 0.0, 0.0, 0.0, 0.0, 0.0, 0.0, 0.001)",-3.354813328488977e-06,2.2495028533557065e-05,0.0,0.0,0.0,0.000344272256786,"(0.0, 0.0, 0.0, 0.0, 0.0, 0.0, 0.0, 0.0, 0.0, 0.0, 0.0, 0.0, 0.0, 0.0, 0.0, 0.0, 0.0, 0.0, 0.0, 0.0, 0.0, 0.0, 0.0, 0.0, 0.0, 0.0, 0.0, 0.0, 0.0, 0.0, 0.0, 0.0, 0.0, 0.0, 0.0, 0.0)",0.0,0.0,0.0,0.0,0.0,0.0,32,1,281000000,base_footprint,0.002727517429233,0.0027321972744898,-0.7078616384548452,0.7063405669722989,0.0,0.0,0.0,0.0,0.0,0.0,0.0,0.0,0.0,-3.2328033930384604e-05,0.0001758329660195,0.0003456680234994,0.0,0.0,0.0,0.0,0.0,0.0,0.0,0.0,0.0,1.4511234852474323e-08,-2.7889688392493693e-08,-1.0295501116812972e-09,0.0,0.0,0.0,0.0,0.0,0.0,0.0,0.0,0.0
1.315,-1.5729364701311412,7.195889926088301e-07,1.125813442418716e-07,1.1050642352072872e-05,-1.5705581871991954,1.092873190229773e-06,2.602563772141683e-10,-1.0928731592410985e-06,0.00029983725012516923,-6.132310238615301e-06,0.0003652729644272788,9.104352430702737e-12,-3.639267609547849e-08,9.984580429168136e-06,33,1,292000000,odom,base_footprint,2.6858506941556305e-05,1.231609153639398e-05,-0.001002391149609,0.002727512059993,0.0027322028077463,-0.7078602610277861,0.706341947362221,"(1e-05, 0.0, 0.0, 0.0, 0.0, 0.0, 0.0, 1e-05, 0.0, 0.0, 0.0, 0.0, 0.0, 0.0, 1000000000000.0, 0.0, 0.0, 0.0, 0.0, 0.0, 0.0, 1000000000000.0, 0.0, 0.0, 0.0, 0.0, 0.0, 0.0, 1000000000000.0, 0.0, 0.0, 0.0, 0.0, 0.0, 0.0, 0.001)",-3.35530271671149e-06,2.2496965606841223e-05,0.0,0.0,0.0,0.0003443062263898,"(0.0, 0.0, 0.0, 0.0, 0.0, 0.0, 0.0, 0.0, 0.0, 0.0, 0.0, 0.0, 0.0, 0.0, 0.0, 0.0, 0.0, 0.0, 0.0, 0.0, 0.0, 0.0, 0.0, 0.0, 0.0, 0.0, 0.0, 0.0, 0.0, 0.0, 0.0, 0.0, 0.0, 0.0, 0.0, 0.0)",0.2199999988079071,2.249598219350446e-05,0.0,0.0,0.0,-0.0735018625855445,33,1,315000000,base_footprint,0.0027275022308591,0.00273221293774,-0.7078577356832554,0.7063444781248157,0.0,0.0,0.0,0.0,0.0,0.0,0.0,0.0,0.0,-3.233871743242987e-05,0.000175832060829,0.0003456852599129,0.0,0.0,0.0,0.0,0.0,0.0,0.0,0.0,0.0,1.4511974598976623e-08,-2.788307436137192e-08,-1.1352877912252888e-09,0.0,0.0,0.0,0.0,0.0,0.0,0.0,0.0,0.0
1.349,-1.5729283048955303,5.275932321225748e-07,-0.00021475477534646699,8.165235610979593e-06,-1.5705482026187663,8.682194157702491e-07,2.1542622502789642e-10,-8.682193890440216e-07,0.0002937835445980289,-6.746359593379096e-06,-0.00018179295877298346,7.518595889691682e-12,-2.891170556747405e-08,9.782992035114363e-06,33,1,292000000,odom,base_footprint,2.6858506941556305e-05,1.231609153639398e-05,-0.001002391149609,0.002727512059993,0.0027322028077463,-0.7078602610277861,0.706341947362221,"(1e-05, 0.0, 0.0, 0.0, 0.0, 0.0, 0.0, 1e-05, 0.0, 0.0, 0.0, 0.0, 0.0, 0.0, 1000000000000.0, 0.0, 0.0, 0.0, 0.0, 0.0, 0.0, 1000000000000.0, 0.0, 0.0, 0.0, 0.0, 0.0, 0.0, 1000000000000.0, 0.0, 0.0, 0.0, 0.0, 0.0, 0.0, 0.001)",-3.35530271671149e-06,2.2496965606841223e-05,0.0,0.0,0.0,0.0003443062263898,"(0.0, 0.0, 0.0, 0.0, 0.0, 0.0, 0.0, 0.0, 0.0, 0.0, 0.0, 0.0, 0.0, 0.0, 0.0, 0.0, 0.0, 0.0, 0.0, 0.0, 0.0, 0.0, 0.0, 0.0, 0.0, 0.0, 0.0, 0.0, 0.0, 0.0, 0.0, 0.0, 0.0, 0.0, 0.0, 0.0)",0.2199999988079071,2.249598219350446e-05,0.0,0.0,0.0,-0.0735018625855445,34,1,349000000,base_footprint,0.0027242396036504,0.0027286786678026,-0.7078548656745658,0.7063473805233177,0.0,0.0,0.0,0.0,0.0,0.0,0.0,0.0,0.0,-3.648887362544143e-05,1.76514054283461e-05,-0.0001716667081515,0.0,0.0,0.0,0.0,0.0,0.0,0.0,0.0,0.0,-0.5291071014220765,0.0021347864537729,-0.0001834014731483,0.0,0.0,0.0,0.0,0.0,0.0,0.0,0.0,0.0
1.383,-1.572952862246854,-1.6336796976286006e-06,-0.0010781205009744,-2.4557351323784005e-05,-1.5705384196267311,0.033372925819287254,8.607116696030656e-06,-0.033372924709368694,-0.0003141529709857279,1.0021638918880325,-0.018256351819332033,2.88625551332982e-07,-0.0011113183922926786,-1.046129393382474e-05,35,1,358000000,odom,base_footprint,2.75661157272368e-05,-0.0004255959307921,-0.001002084444324,0.0027240612554693,0.0027284887520753,-0.7078563745392888,0.7063458698566165,"(1e-05, 0.0, 0.0, 0.0, 0.0, 0.0, 0.0, 1e-05, 0.0, 0.0, 0.0, 0.0, 0.0, 0.0, 1000000000000.0, 0.0, 0.0, 0.0, 0.0, 0.0, 0.0, 1000000000000.0, 0.0, 0.0, 0.0, 0.0, 0.0, 0.0, 1000000000000.0, 0.0, 0.0, 0.0, 0.0, 0.0, 0.0, 0.001)",0.0258774069393263,1.6894603181989725e-05,0.0,0.0,0.0,-0.0005764819697224,"(0.0, 0.0, 0.0, 0.0, 0.0, 0.0, 0.0, 0.0, 0.0, 0.0, 0.0, 0.0, 0.0, 0.0, 0.0, 0.0, 0.0, 0.0, 0.0, 0.0, 0.0, 0.0, 0.0, 0.0, 0.0, 0.0, 0.0, 0.0, 0.0, 0.0, 0.0, 0.0, 0.0, 0.0, 0.0, 0.0)",0.2199999988079071,2.249598219350446e-05,0.0,0.0,0.0,-0.0735018625855445,35,1,383000000,base_footprint,0.0027243724318375,0.0027287972555556,-0.7078635380434213,0.7063386885687635,0.0,0.0,0.0,0.0,0.0,0.0,0.0,0.0,0.0,-3.6397451781155615e-05,0.0003123911134693,-0.0010376603040383,0.0,0.0,0.0,0.0,0.0,0.0,0.0,0.0,0.0,-0.7864397314491889,0.0033792638547173,0.0003285476085552,0.0,0.0,0.0,0.0,0.0,0.0,0.0,0.0,0.0
1.417,-1.5730084769066464,-3.683995275362314e-06,-0.0019871712119255,-5.56146597923135e-05,-1.5705488809206651,0.06840539653530144,1.6926632975094187e-05,-0.06840539444108867,2.204504081993102e-05,1.0520261476280535,0.010096036390560328,5.805248007390336e-07,-0.002277899630780741,7.34099859303703e-07,35,1,358000000,odom,base_footprint,2.75661157272368e-05,-0.0004255959307921,-0.001002084444324,0.0027240612554693,0.0027284887520753,-0.7078563745392888,0.7063458698566165,"(1e-05, 0.0, 0.0, 0.0, 0.0, 0.0, 0.0, 1e-05, 0.0, 0.0, 0.0, 0.0, 0.0, 0.0, 1000000000000.0, 0.0, 0.0, 0.0, 0.0, 0.0, 0.0, 1000000000000.0, 0.0, 0.0, 0.0, 0.0, 0.0, 0.0, 1000000000000.0, 0.0, 0.0, 0.0, 0.0, 0.0, 0.0, 0.001)",0.0258774069393263,1.6894603181989725e-05,0.0,0.0,0.0,-0.0005764819697224,"(0.0, 0.0, 0.0, 0.0, 0.0, 0.0, 0.0, 0.0, 0.0, 0.0, 0.0, 0.0, 0.0, 0.0, 0.0, 0.0, 0.0, 0.0, 0.0, 0.0, 0.0, 0.0, 0.0, 0.0, 0.0, 0.0, 0.0, 0.0, 0.0, 0.0, 0.0, 0.0, 0.0, 0.0, 0.0, 0.0)",0.2199999988079071,1.689460259512998e-05,0.0,0.0,0.0,-0.0744226351380348,36,1,417000000,base_footprint,0.0027248910596701,0.0027292581057224,-0.7078831770856261,0.7063190028011886,0.0,0.0,0.0,0.0,0.0,0.0,0.0,0.0,0.0,-3.494974736862469e-05,0.0003065659872158,-0.0020064303690491,0.0,0.0,0.0,0.0,0.0,0.0,0.0,0.0,0.0,-0.7860611290930104,0.0036198480787662,3.5179031154066506e-06,0.0,0.0,0.0,0.0,0.0,0.0,0.0,0.0,0.0
1.451,-1.5730987148844853,-5.969790158974265e-06,-0.0028920570010449002,-9.023797783891396e-05,-1.5705481468208058,0.1000871969717508,2.4839637696280246e-05,-0.10008719388940045,2.1451177762946353e-05,0.9514054185119927,-1.7833725434974973e-05,8.518078720726458e-07,-0.0033329035505271724,7.143242195061136e-07,37,1,425000000,odom,base_footprint,2.1202727953203804e-05,-0.0039459539337566,-0.0010022489818443,0.0027249986024376,0.0027293343408928,-0.707890280772108,0.7063118826021961,"(1e-05, 0.0, 0.0, 0.0, 0.0, 0.0, 0.0, 1e-05, 0.0, 0.0, 0.0, 0.0, 0.0, 0.0, 1000000000000.0, 0.0, 0.0, 0.0, 0.0, 0.0, 0.0, 1000000000000.0, 0.0, 0.0, 0.0, 0.0, 0.0, 0.0, 1000000000000.0, 0.0, 0.0, 0.0, 0.0, 0.0, 0.0, 0.001)",0.0785197574799563,1.950207724912972e-05,0.0,0.0,0.0,-0.0023545548635249,"(0.0, 0.0, 0.0, 0.0, 0.0, 0.0, 0.0, 0.0, 0.0, 0.0, 0.0, 0.0, 0.0, 0.0, 0.0, 0.0, 0.0, 0.0, 0.0, 0.0, 0.0, 0.0, 0.0, 0.0, 0.0, 0.0, 0.0, 0.0, 0.0, 0.0, 0.0, 0.0, 0.0, 0.0, 0.0, 0.0)",0.2199999988079071,1.689460259512998e-05,0.0,0.0,0.0,-0.0744226351380348,37,1,451000000,base_footprint,0.0027256346050091,0.0027298851754054,-0.7079150418603521,0.7062870607272831,0.0,0.0,0.0,0.0,0.0,0.0,0.0,0.0,0.0,-3.425526550997546e-05,0.0003145659479751,-0.003090228156447,0.0,0.0,0.0,0.0,0.0,0.0,0.0,0.0,0.0,-0.777709515284849,0.0038950426027608,1.9814895946126693e-05,0.0,0.0,0.0,0.0,0.0,0.0,0.0,0.0,0.0
1.485,-1.573228207053895,-8.56142751738876e-06,-0.0037772373098798996,-0.00012949216940971733,-1.5705474324965862,0.1334503519234258,3.321503135831837e-05,-0.1334503477899098,2.145298323586123e-05,1.0018965450953454,5.421840585216149e-08,1.1389240974341837e-06,-0.004443896572655868,7.14384341754179e-07,38,1,458000000,odom,base_footprint,1.4815234360404394e-05,-0.0069703990337305,-0.0010023887341997,0.0027258482068779,0.0027300560853519,-0.7079243810359795,0.7062776984162455,"(1e-05, 0.0, 0.0, 0.0, 0.0, 0.0, 0.0, 1e-05, 0.0, 0.0, 0.0, 0.0, 0.0, 0.0, 1000000000000.0, 0.0, 0.0, 0.0, 0.0, 0.0, 0.0, 1000000000000.0, 0.0, 0.0, 0.0, 0.0, 0.0, 0.0, 1000000000000.0, 0.0, 0.0, 0.0, 0.0, 0.0, 0.0, 0.001)",0.1040316073854324,1.66902100534216e-05,0.0,0.0,0.0,-0.0034118711970078,"(0.0, 0.0, 0.0, 0.0, 0.0, 0.0, 0.0, 0.0, 0.0, 0.0, 0.0, 0.0, 0.0, 0.0, 0.0, 0.0, 0.0, 0.0, 0.0, 0.0, 0.0, 0.0, 0.0, 0.0, 0.0, 0.0, 0.0, 0.0, 0.0, 0.0, 0.0, 0.0, 0.0, 0.0, 0.0, 0.0)",0.2199999988079071,1.689460259512998e-05,0.0,0.0,0.0,-0.0744226351380348,38,1,485000000,base_footprint,0.0027267344696618,0.002730793273397,-0.7079607654968817,0.7062412209750286,0.0,0.0,0.0,0.0,0.0,0.0,0.0,0.0,0.0,-3.363130865810308e-05,0.0002855032734248,-0.0043229886055145,0.0,0.0,0.0,0.0,0.0,0.0,0.0,0.0,0.0,-0.7504688078501471,0.0042186215370362,-1.8108424406678824e-05,0.0,0.0,0.0,0.0,0.0,0.0,0.0,0.0,0.0
1.5190000000000001,-1.573403056343194,-1.1556175816351548e-05,-0.0046133537005421995,-0.00017484928929900612,-1.5705467181122446,0.17152804245003977,4.2814888269248405e-05,-0.17152803710655581,2.1671223566417013e-05,1.1434741899884076,6.5537636803538575e-06,1.467995711843267e-06,-0.005711883625294676,7.216517447616866e-07,39,1,492000000,odom,base_footprint,5.600189015989127e-06,-0.0109501990160603,-0.0010025803065551,0.002727089194841,0.0027310858372023,-0.7079735992759004,0.7062283532137464,"(1e-05, 0.0, 0.0, 0.0, 0.0, 0.0, 0.0, 1e-05, 0.0, 0.0, 0.0, 0.0, 0.0, 0.0, 1000000000000.0, 0.0, 0.0, 0.0, 0.0, 0.0, 0.0, 1000000000000.0, 0.0, 0.0, 0.0, 0.0, 0.0, 0.0, 1000000000000.0, 0.0, 0.0, 0.0, 0.0, 0.0, 0.0, 0.001)",0.1291930225402789,1.1468648007224424e-05,0.0,0.0,0.0,-0.0046513508863192,"(0.0, 0.0, 0.0, 0.0, 0.0, 0.0, 0.0, 0.0, 0.0, 0.0, 0.0, 0.0, 0.0, 0.0, 0.0, 0.0, 0.0, 0.0, 0.0, 0.0, 0.0, 0.0, 0.0, 0.0, 0.0, 0.0, 0.0, 0.0, 0.0, 0.0, 0.0, 0.0, 0.0, 0.0, 0.0, 0.0)",0.2199999988079071,1.6690210031811148e-05,0.0,0.0,0.0,-0.0608477741479873,39,1,519000000,base_footprint,0.0027282944026773,0.0027320590930188,-0.708022499847958,0.7061793199831139,0.0,0.0,0.0,0.0,0.0,0.0,0.0,0.0,0.0,-3.3260893516580606e-05,0.0002832015764539,-0.0057471092507035,0.0,0.0,0.0,0.0,0.0,0.0,0.0,0.0,0.0,-0.691089595893539,0.004566968832463,1.7652605234601097e-05,0.0,0.0,0.0,0.0,0.0,0.0,0.0,0.0,0.0
1.553,-1.573627310808501,-1.4818607851392782e-05,-0.005355906856474701,-0.00022425446530704995,-1.5705459964604997,0.20017650137400908,5.0110250003989115e-05,-0.2001764951019512,1.9788660411502825e-05,0.86031408180088,-5.653342807550113e-05,1.717783138425503e-06,-0.006665877275037415,6.589623917030441e-07,40,1,525000000,odom,base_footprint,-6.311501726997091e-06,-0.0155964958344498,-0.0010028104155367,0.0027286757700877,0.0027323601172477,-0.70803723528269,0.7061645431413108,"(1e-05, 0.0, 0.0, 0.0, 0.0, 0.0, 0.0, 1e-05, 0.0, 0.0, 0.0, 0.0, 0.0, 0.0, 1000000000000.0, 0.0, 0.0, 0.0, 0.0, 0.0, 0.0, 1000000000000.0, 0.0, 0.0, 0.0, 0.0, 0.0, 0.0, 1000000000000.0, 0.0, 0.0, 0.0, 0.0, 0.0, 0.0, 0.001)",0.1513709089007454,8.664784270808044e-08,0.0,0.0,0.0,-0.0060659719320201,"(0.0, 0.0, 0.0, 0.0, 0.0, 0.0, 0.0, 0.0, 0.0, 0.0, 0.0, 0.0, 0.0, 0.0, 0.0, 0.0, 0.0, 0.0, 0.0, 0.0, 0.0, 0.0, 0.0, 0.0, 0.0, 0.0, 0.0, 0.0, 0.0, 0.0, 0.0, 0.0, 0.0, 0.0, 0.0, 0.0)",0.2199999988079071,1.6690210031811148e-05,0.0,0.0,0.0,-0.0608477741479873,40,1,553000000,base_footprint,0.0027301483411279,0.0027336001580478,-0.7081016701649675,0.70609992099546,0.0,0.0,0.0,0.0,0.0,0.0,0.0,0.0,0.0,-2.621725276790067e-05,0.0001782500949231,-0.0072489588472419,0.0,0.0,0.0,0.0,0.0,0.0,0.0,0.0,0.0,-0.587632686051212,0.0045799418874717,-9.682839985091733e-05,0.0,0.0,0.0,0.0,0.0,0.0,0.0,0.0,0.0
1.5870000000000002,-1.5739003742897293,-1.804213624922935e-05,-0.005951004723163199,-0.0002730634812282417,-1.570545337498108,0.21801748284229824,5.4720054131695875e-05,-0.21801747597522425,-0.060301389676900886,0.5357652092579328,-1.8114467969162877,-5.415878681816544e-06,-0.00725997893881056,-0.0020080362762407997,40,1,525000000,odom,base_footprint,-6.311501726997091e-06,-0.0155964958344498,-0.0010028104155367,0.0027286757700877,0.0027323601172477,-0.70803723528269,0.7061645431413108,"(1e-05, 0.0, 0.0, 0.0, 0.0, 0.0, 0.0, 1e-05, 0.0, 0.0, 0.0, 0.0, 0.0, 0.0, 1000000000000.0, 0.0, 0.0, 0.0, 0.0, 0.0, 0.0, 1000000000000.0, 0.0, 0.0, 0.0, 0.0, 0.0, 0.0, 1000000000000.0, 0.0, 0.0, 0.0, 0.0, 0.0, 0.0, 0.001)",0.1513709089007454,8.664784270808044e-08,0.0,0.0,0.0,-0.0060659719320201,"(0.0, 0.0, 0.0, 0.0, 0.0, 0.0, 0.0, 0.0, 0.0, 0.0, 0.0, 0.0, 0.0, 0.0, 0.0, 0.0, 0.0, 0.0, 0.0, 0.0, 0.0, 0.0, 0.0, 0.0, 0.0, 0.0, 0.0, 0.0, 0.0, 0.0, 0.0, 0.0, 0.0, 0.0, 0.0, 0.0)",0.2199999988079071,1.6690210031811148e-05,0.0,0.0,0.0,-0.0608477741479873,41,1,587000000,base_footprint,0.0027321990285494,0.0027352511751876,-0.7081980607582236,0.7060032296156785,0.0,0.0,0.0,0.0,0.0,0.0,0.0,0.0,0.0,-2.4578557378279755e-05,0.0001199463054191,-0.0087174270054955,0.0,0.0,0.0,0.0,0.0,0.0,0.0,0.0,0.0,-0.438513978636548,0.0042132039003989,-3.305813817418258e-05,0.0,0.0,0.0,0.0,0.0,0.0,0.0,0.0,0.0
1.621,-1.574248502916659,-2.2999007600439214e-05,-0.006350751306334303,-0.00034812862692978896,-1.572553373774349,0.22462101520912572,-0.0003946694732230986,-0.2246206684826336,-0.062112340431509296,0.1983042752801045,-0.054382905543796066,-2.0825296888194657e-05,-0.007479849482464574,-0.0020683409363692596,42,1,592000000,odom,base_footprint,-3.994341573146263e-05,-0.0269550565699567,-0.001003336304515,0.0027325589156626,0.0027355302703373,-0.7082169155272464,0.7059843132513538,"(1e-05, 0.0, 0.0, 0.0, 0.0, 0.0, 0.0, 1e-05, 0.0, 0.0, 0.0, 0.0, 0.0, 0.0, 1000000000000.0, 0.0, 0.0, 0.0, 0.0, 0.0, 0.0, 1000000000000.0, 0.0, 0.0, 0.0, 0.0, 0.0, 0.0, 1000000000000.0, 0.0, 0.0, 0.0, 0.0, 0.0, 0.0, 0.001)",0.183804398149048,-1.3628501598499294e-05,0.0,0.0,0.0,-0.0089904852597048,"(0.0, 0.0, 0.0, 0.0, 0.0, 0.0, 0.0, 0.0, 0.0, 0.0, 0.0, 0.0, 0.0, 0.0, 0.0, 0.0, 0.0, 0.0, 0.0, 0.0, 0.0, 0.0, 0.0, 0.0, 0.0, 0.0, 0.0, 0.0, 0.0, 0.0, 0.0, 0.0, 0.0, 0.0, 0.0, 0.0)",0.2199999988079071,0.0,0.0,0.0,0.0,-0.0649543553590774,42,1,621000000,base_footprint,0.00273324452697,0.0027357599371187,-0.7083209361744357,0.7058799447277796,0.0,0.0,0.0,0.0,0.0,0.0,0.0,0.0,0.0,-1.6817605926791596e-05,0.0004013057938367,-0.0122641103674625,0.0,0.0,0.0,0.0,0.0,0.0,0.0,0.0,0.0,-0.2534343205669889,0.0077615415105165,0.0005548253678288,0.0,0.0,0.0,0.0,0.0,0.0,0.0,0.0,0.0
1.655,-1.5747503134598524,-3.3139710983799906e-05,-0.006520944298509697,-0.0005018105431933151,-1.574621714710718,0.2180148307727126,-0.000833989265061099,-0.2180132356045391,-0.060290347926575685,-0.19838391700940283,0.05471448963764595,-3.500840387442882e-05,-0.0072598082368027835,-0.0020076685859549705,43,1,625000000,odom,base_footprint,-6.359495166862909e-05,-0.0331620977970573,-0.0010032972035559,0.0027330790592298,0.0027355115681046,-0.7083432809109088,0.7058575236148482,"(1e-05, 0.0, 0.0, 0.0, 0.0, 0.0, 0.0, 1e-05, 0.0, 0.0, 0.0, 0.0, 0.0, 0.0, 1000000000000.0, 0.0, 0.0, 0.0, 0.0, 0.0, 0.0, 1000000000000.0, 0.0, 0.0, 0.0, 0.0, 0.0, 0.0, 1000000000000.0, 0.0, 0.0, 0.0, 0.0, 0.0, 0.0, 0.001)",0.1910965261384723,-0.0001792775310742,0.0,0.0,0.0,-0.0128851807871513,"(0.0, 0.0, 0.0, 0.0, 0.0, 0.0, 0.0, 0.0, 0.0, 0.0, 0.0, 0.0, 0.0, 0.0, 0.0, 0.0, 0.0, 0.0, 0.0, 0.0, 0.0, 0.0, 0.0, 0.0, 0.0, 0.0, 0.0, 0.0, 0.0, 0.0, 0.0, 0.0, 0.0, 0.0, 0.0, 0.0)",0.2199999988079071,0.0,0.0,0.0,0.0,-0.0649543553590774,43,1,655000000,base_footprint,0.0027308452313054,0.002729758827162,-0.7084980435031561,0.7057022128725886,0.0,0.0,0.0,0.0,0.0,0.0,0.0,0.0,0.0,-7.1062246315923e-05,0.0009771317789396,-0.0162810829981935,0.0,0.0,0.0,0.0,0.0,0.0,0.0,0.0,0.0,-0.0442788008572075,0.0079646308032319,0.0010754716319222,0.0,0.0,0.0,0.0,0.0,0.0,0.0,0.0,0.0
1.689,-1.5751938532320928,-2.75325830598867e-05,-0.006528991909280503,-0.00044353977224043117,-1.5766293832966731,0.2180111431042238,-0.0012716641044157695,-0.2180074342494216,-0.06431165184188084,-0.00011074079546012225,-0.12075987733649113,-5.006883694970065e-05,-0.007259597019792116,-0.0021415780063346324,44,1,658000000,odom,base_footprint,-9.682090961881853e-05,-0.0394960438850178,-0.0010022946632042,0.0027301925882785,0.002728500817327,-0.7085208563317508,0.7056793163148851,"(1e-05, 0.0, 0.0, 0.0, 0.0, 0.0, 0.0, 1e-05, 0.0, 0.0, 0.0, 0.0, 0.0, 0.0, 1000000000000.0, 0.0, 0.0, 0.0, 0.0, 0.0, 0.0, 1000000000000.0, 0.0, 0.0, 0.0, 0.0, 0.0, 0.0, 1000000000000.0, 0.0, 0.0, 0.0, 0.0, 0.0, 0.0, 0.001)",0.1917092377375653,-0.0003119179568481,0.0,0.0,0.0,-0.0163779107859684,"(0.0, 0.0, 0.0, 0.0, 0.0, 0.0, 0.0, 0.0, 0.0, 0.0, 0.0, 0.0, 0.0, 0.0, 0.0, 0.0, 0.0, 0.0, 0.0, 0.0, 0.0, 0.0, 0.0, 0.0, 0.0, 0.0, 0.0, 0.0, 0.0, 0.0, 0.0, 0.0, 0.0, 0.0, 0.0, 0.0)",0.2199999988079071,0.0,0.0,0.0,0.0,-0.0649543553590774,44,1,689000000,base_footprint,0.0027225778568546,0.0027186926355356,-0.7086545701135788,0.7055451059551797,0.0,0.0,0.0,0.0,0.0,0.0,0.0,0.0,0.0,3.054743722924415e-05,-0.0015671618641787,-0.0068374262630739,0.0,0.0,0.0,0.0,0.0,0.0,0.0,0.0,0.0,-0.0344284282837409,-0.018181677463304,-0.0043215501695228,0.0,0.0,0.0,0.0,0.0,0.0,0.0,0.0,0.0
1.723,-1.5755568563005933,-2.3983602867799997e-05,-0.006678527645708095,-0.00036300306850045594,-1.5787709613030076,0.22460450079893576,-0.001791119818290953,-0.22459735899813174,-0.06639585052967671,0.1979987295709302,-0.06258854918305919,-6.785966881030507e-05,-0.007479020502711774,-0.0022109818226382348,45,1,692000000,odom,base_footprint,-0.0001219022052447,-0.0460317682086531,-0.001000898089802,0.0027238130123405,0.0027198447078921,-0.7086642656857651,0.705535358311328,"(1e-05, 0.0, 0.0, 0.0, 0.0, 0.0, 0.0, 1e-05, 0.0, 0.0, 0.0, 0.0, 0.0, 0.0, 1000000000000.0, 0.0, 0.0, 0.0, 0.0, 0.0, 0.0, 1000000000000.0, 0.0, 0.0, 0.0, 0.0, 0.0, 0.0, 1000000000000.0, 0.0, 0.0, 0.0, 0.0, 0.0, 0.0, 0.001)",0.1937120462293676,0.0003943174683523,0.0,0.0,0.0,-0.0070057935718055,"(0.0, 0.0, 0.0, 0.0, 0.0, 0.0, 0.0, 0.0, 0.0, 0.0, 0.0, 0.0, 0.0, 0.0, 0.0, 0.0, 0.0, 0.0, 0.0, 0.0, 0.0, 0.0, 0.0, 0.0, 0.0, 0.0, 0.0, 0.0, 0.0, 0.0, 0.0, 0.0, 0.0, 0.0, 0.0, 0.0)",0.2199999988079071,0.0,0.0,0.0,0.0,-0.1394548416137695,45,1,723000000,base_footprint,0.0027265579423697,0.0027217019300407,-0.7087826023871086,0.7054164591032371,0.0,0.0,0.0,0.0,0.0,0.0,0.0,0.0,0.0,-2.0818333282462175e-05,0.0002462135315684,-0.0131744993507563,0.0,0.0,0.0,0.0,0.0,0.0,0.0,0.0,0.0,-0.2170212669576903,0.0133514441661786,0.0027690490953329,0.0,0.0,0.0,0.0,0.0,0.0,0.0,0.0,0.0
1.7570000000000001,-1.5761783123508948,-3.51731520669e-05,-0.007017115996927906,-0.0006214560503015054,-1.580981943125646,0.2180179679054545,-0.002220608976991324,-0.21800665867214952,-0.06435800709722668,-0.19779378058502303,0.06119649947297392,-8.167425281292425e-05,-0.007259537513679085,-0.002143121636337649,45,1,692000000,odom,base_footprint,-0.0001219022052447,-0.0460317682086531,-0.001000898089802,0.0027238130123405,0.0027198447078921,-0.7086642656857651,0.705535358311328,"(1e-05, 0.0, 0.0, 0.0, 0.0, 0.0, 0.0, 1e-05, 0.0, 0.0, 0.0, 0.0, 0.0, 0.0, 1000000000000.0, 0.0, 0.0, 0.0, 0.0, 0.0, 0.0, 1000000000000.0, 0.0, 0.0, 0.0, 0.0, 0.0, 0.0, 1000000000000.0, 0.0, 0.0, 0.0, 0.0, 0.0, 0.0, 0.001)",0.1937120462293676,0.0003943174683523,0.0,0.0,0.0,-0.0070057935718055,"(0.0, 0.0, 0.0, 0.0, 0.0, 0.0, 0.0, 0.0, 0.0, 0.0, 0.0, 0.0, 0.0, 0.0, 0.0, 0.0, 0.0, 0.0, 0.0, 0.0, 0.0, 0.0, 0.0, 0.0, 0.0, 0.0, 0.0, 0.0, 0.0, 0.0, 0.0, 0.0, 0.0, 0.0, 0.0, 0.0)",0.2199999988079071,0.0,0.0,0.0,0.0,-0.1394548416137695,46,1,757000000,base_footprint,0.0027372352357325,0.0027220409114077,-0.7090017560474854,0.7051961485701145,0.0,0.0,0.0,0.0,0.0,0.0,0.0,0.0,0.0,-7.331419866140584e-05,0.000493484647464,-0.0400447471887065,0.0,0.0,0.0,0.0,0.0,0.0,0.0,0.0,0.0,-0.3353297619069748,0.0087816607136387,1.041345109638206e-05,0.0,0.0,0.0,0.0,0.0,0.0,0.0,0.0,0.0
1.791,-1.579525724609573,-4.74054629602e-05,-0.007380603608507202,-0.003347412258678295,-1.5831250647619834,0.21786449238045824,-0.002685926195214676,-0.21784793513060577,-0.14008281029083375,-0.00460887462451216,-2.274018113922134,-0.0001063097927506714,-0.007254102068540957,-0.004664757582684764,47,1,758000000,odom,base_footprint,-0.0001814331918873,-0.0593781163459868,-0.0010022594695673,0.0027369807336074,0.0027217979959433,-0.7090336997930499,0.7051640329100121,"(1e-05, 0.0, 0.0, 0.0, 0.0, 0.0, 0.0, 1e-05, 0.0, 0.0, 0.0, 0.0, 0.0, 0.0, 1000000000000.0, 0.0, 0.0, 0.0, 0.0, 0.0, 0.0, 1000000000000.0, 0.0, 0.0, 0.0, 0.0, 0.0, 0.0, 1000000000000.0, 0.0, 0.0, 0.0, 0.0, 0.0, 0.0, 0.001)",0.212429534293071,7.94043086549082e-05,0.0,0.0,0.0,-0.0472010494546481,"(0.0, 0.0, 0.0, 0.0, 0.0, 0.0, 0.0, 0.0, 0.0, 0.0, 0.0, 0.0, 0.0, 0.0, 0.0, 0.0, 0.0, 0.0, 0.0, 0.0, 0.0, 0.0, 0.0, 0.0, 0.0, 0.0, 0.0, 0.0, 0.0, 0.0, 0.0, 0.0, 0.0, 0.0, 0.0, 0.0)",0.2199999988079071,0.0,0.0,0.0,0.0,-0.1394548416137695,47,1,791000000,base_footprint,0.0027434364265526,0.0027280203429803,-0.7101810126402927,0.7040084947973215,0.0,0.0,0.0,0.0,0.0,0.0,0.0,0.0,0.0,0.0006277814507542,0.0002926017040015,-0.1389639123464098,0.0,0.0,0.0,0.0,0.0,0.0,0.0,0.0,0.0,-0.2657173548657787,0.0211145457113506,-0.0013918771382064,0.0,0.0,0.0,0.0,0.0,0.0,0.0,0.0,0.0
1.8250000000000002,-1.5842419207577263,-8.064008325129999e-05,-0.0075096308077058915,-0.004716196148153217,-1.5877898223446683,0.22418919487010314,-0.0038095747250270562,-0.22415682509555565,-0.14370041210629186,0.1899310056950419,-0.10863669115489837,-0.00014466525300439102,-0.007464091283494887,-0.0047852237231395195,48,1,792000000,odom,base_footprint,-0.0002302126054623,-0.0667759973554317,-0.0010034049333525,0.0027434350508957,0.0027280474766851,-0.7102789501706667,0.7039096847362893,"(1e-05, 0.0, 0.0, 0.0, 0.0, 0.0, 0.0, 1e-05, 0.0, 0.0, 0.0, 0.0, 0.0, 0.0, 1000000000000.0, 0.0, 0.0, 0.0, 0.0, 0.0, 0.0, 1000000000000.0, 0.0, 0.0, 0.0, 0.0, 0.0, 0.0, 1000000000000.0, 0.0, 0.0, 0.0, 0.0, 0.0, 0.0, 0.001)",0.2209252223811771,0.0001979281534654,0.0,0.0,0.0,-0.1392039712633876,"(0.0, 0.0, 0.0, 0.0, 0.0, 0.0, 0.0, 0.0, 0.0, 0.0, 0.0, 0.0, 0.0, 0.0, 0.0, 0.0, 0.0, 0.0, 0.0, 0.0, 0.0, 0.0, 0.0, 0.0, 0.0, 0.0, 0.0, 0.0, 0.0, 0.0, 0.0, 0.0, 0.0, 0.0, 0.0, 0.0)",0.2199999988079071,8.044189598876983e-05,0.0,0.0,0.0,-0.1364928781986236,48,1,825000000,base_footprint,0.0027458468399248,0.0027183514629617,-0.711839170221824,0.7023318778386473,0.0,0.0,0.0,0.0,0.0,0.0,0.0,0.0,0.0,-4.2417243213652665e-05,0.0014327593915943,-0.1389408986271845,0.0,0.0,0.0,0.0,0.0,0.0,0.0,0.0,0.0,-0.0003131554262779,0.0335780906001,0.0023397853952576,0.0,0.0,0.0,0.0,0.0,0.0,0.0,0.0,0.0
1.859,-1.5888809822311987,-0.00011648435471490001,-0.007514236796929807,-0.004639061473472372,-1.5971501778288506,0.2178046993643773,-0.005739328196112212,-0.21772906828685992,-0.1351035762761977,0.005268689863391184,0.0687017387165739,-0.00020737747230171745,-0.0072499250570698505,-0.004498949089997384,49,1,825000000,odom,base_footprint,-0.0003102121134766,-0.0740647267272,-0.0010027862607612,0.0027459730944735,0.0027180905992052,-0.7118879573005725,0.7022824274219577,"(1e-05, 0.0, 0.0, 0.0, 0.0, 0.0, 0.0, 1e-05, 0.0, 0.0, 0.0, 0.0, 0.0, 0.0, 1000000000000.0, 0.0, 0.0, 0.0, 0.0, 0.0, 0.0, 1000000000000.0, 0.0, 0.0, 0.0, 0.0, 0.0, 0.0, 1000000000000.0, 0.0, 0.0, 0.0, 0.0, 0.0, 0.0, 0.001)",0.2209638362611237,8.247162483164929e-05,0.0,0.0,0.0,-0.1389676726851085,"(0.0, 0.0, 0.0, 0.0, 0.0, 0.0, 0.0, 0.0, 0.0, 0.0, 0.0, 0.0, 0.0, 0.0, 0.0, 0.0, 0.0, 0.0, 0.0, 0.0, 0.0, 0.0, 0.0, 0.0, 0.0, 0.0, 0.0, 0.0, 0.0, 0.0, 0.0, 0.0, 0.0, 0.0, 0.0, 0.0)",0.2199999988079071,8.044189598876983e-05,0.0,0.0,0.0,-0.1364928781986236,49,1,859000000,base_footprint,0.0027506653590119,0.0027104824989252,-0.7134663400908962,0.7006788627338544,0.0,0.0,0.0,0.0,0.0,0.0,0.0,0.0,0.0,-1.6748580473243768e-05,0.0013084630006014,-0.1366267983562301,0.0,0.0,0.0,0.0,0.0,0.0,0.0,0.0,0.0,-0.0040423733213892,0.0304104599825964,3.8245374060017983e-05,0.0,0.0,0.0,0.0,0.0,0.0,0.0,0.0,0.0
1.893,-1.5935360496113278,-0.00015155671564140005,-0.007520212776191998,-0.004655067380129108,-1.601649126918848,0.22459677346525303,-0.006928340062431829,-0.22448988564071545,-0.1397385662633539,0.20396618921548748,-0.13918888850318906,-0.00024805313255977623,-0.007474951171332485,-0.004653294256569685,50,1,858000000,odom,base_footprint,-0.0004237720504769,-0.0813580195092817,-0.0010025216386707,0.0027506653590119,0.0027104824989252,-0.7134663400908962,0.7006788627338544,"(1e-05, 0.0, 0.0, 0.0, 0.0, 0.0, 0.0, 1e-05, 0.0, 0.0, 0.0, 0.0, 0.0, 0.0, 1000000000000.0, 0.0, 0.0, 0.0, 0.0, 0.0, 0.0, 1000000000000.0, 0.0, 0.0, 0.0, 0.0, 0.0, 0.0, 1000000000000.0, 0.0, 0.0, 0.0, 0.0, 0.0, 0.0, 0.001)",0.2211301452836913,7.928692846977201e-05,0.0,0.0,0.0,-0.136632825637122,"(0.0, 0.0, 0.0, 0.0, 0.0, 0.0, 0.0, 0.0, 0.0, 0.0, 0.0, 0.0, 0.0, 0.0, 0.0, 0.0, 0.0, 0.0, 0.0, 0.0, 0.0, 0.0, 0.0, 0.0, 0.0, 0.0, 0.0, 0.0, 0.0, 0.0, 0.0, 0.0, 0.0, 0.0, 0.0, 0.0)",0.2199999988079071,8.044189598876983e-05,0.0,0.0,0.0,-0.1364928781986236,50,1,893000000,base_footprint,0.0027564706606173,0.0027040980874049,-0.715095259653385,0.6990163512710477,0.0,0.0,0.0,0.0,0.0,0.0,0.0,0.0,0.0,1.1120976273041022e-05,0.001232178503821,-0.1372436456465579,0.0,0.0,0.0,0.0,0.0,0.0,0.0,0.0,0.0,-0.0045786479046166,0.0305878940623006,6.737699950578384e-05,0.0,0.0,0.0,0.0,0.0,0.0,0.0,0.0,0.0
1.927,-1.5981947895243094,-0.00018683586634859995,-0.007525916027637594,-0.004658739912981601,-1.6063024211754178,0.21817727314531069,-0.00774499528229323,-0.21803976143171863,-0.13617896554818376,-0.19277778738565599,0.1068949163714757,-0.0002743191528244802,-0.007260116326410506,-0.004534759552754519,51,1,892000000,odom,base_footprint,-0.0005753287661183,-0.0888782322854737,-0.0010024844132034,0.0027564706606173,0.0027040980874049,-0.715095259653385,0.6990163512710477,"(1e-05, 0.0, 0.0, 0.0, 0.0, 0.0, 0.0, 1e-05, 0.0, 0.0, 0.0, 0.0, 0.0, 0.0, 1000000000000.0, 0.0, 0.0, 0.0, 0.0, 0.0, 0.0, 1000000000000.0, 0.0, 0.0, 0.0, 0.0, 0.0, 0.0, 1000000000000.0, 0.0, 0.0, 0.0, 0.0, 0.0, 0.0, 0.001)",0.2213301621395043,7.682182600206571e-05,0.0,0.0,0.0,-0.1372490684295591,"(0.0, 0.0, 0.0, 0.0, 0.0, 0.0, 0.0, 0.0, 0.0, 0.0, 0.0, 0.0, 0.0, 0.0, 0.0, 0.0, 0.0, 0.0, 0.0, 0.0, 0.0, 0.0, 0.0, 0.0, 0.0, 0.0, 0.0, 0.0, 0.0, 0.0, 0.0, 0.0, 0.0, 0.0, 0.0, 0.0)",0.2199999988079071,7.928692502900958e-05,0.0,0.0,0.0,-0.0463764108717441,51,1,927000000,base_footprint,0.0027634118784376,0.0026988938298574,-0.7167215810263333,0.6973487325707264,0.0,0.0,0.0,0.0,0.0,0.0,0.0,0.0,0.0,-0.0006938731295209,0.000904512223887,-0.1216416282932767,0.0,0.0,0.0,0.0,0.0,0.0,0.0,0.0,0.0,0.0002662005413737,0.0283625844927443,0.0013219345555507,0.0,0.0,0.0,0.0,0.0,0.0,0.0,0.0,0.0
1.961,-1.5999916381286112,-0.00021097696679120003,-0.007506390157089302,-0.0017968486043018486,-1.6108371807281723,0.21835856145506954,-0.00874092714965641,-0.2181835409770677,-0.04871370269682443,0.005444093386151925,2.6265844700107905,-0.00029691454630888307,-0.007265274733714165,-0.0016221662998042537,51,1,892000000,odom,base_footprint,-0.0005753287661183,-0.0888782322854737,-0.0010024844132034,0.0027564706606173,0.0027040980874049,-0.715095259653385,0.6990163512710477,"(1e-05, 0.0, 0.0, 0.0, 0.0, 0.0, 0.0, 1e-05, 0.0, 0.0, 0.0, 0.0, 0.0, 0.0, 1000000000000.0, 0.0, 0.0, 0.0, 0.0, 0.0, 0.0, 1000000000000.0, 0.0, 0.0, 0.0, 0.0, 0.0, 0.0, 1000000000000.0, 0.0, 0.0, 0.0, 0.0, 0.0, 0.0, 0.001)",0.2213301621395043,7.682182600206571e-05,0.0,0.0,0.0,-0.1372490684295591,"(0.0, 0.0, 0.0, 0.0, 0.0, 0.0, 0.0, 0.0, 0.0, 0.0, 0.0, 0.0, 0.0, 0.0, 0.0, 0.0, 0.0, 0.0, 0.0, 0.0, 0.0, 0.0, 0.0, 0.0, 0.0, 0.0, 0.0, 0.0, 0.0, 0.0, 0.0, 0.0, 0.0, 0.0, 0.0, 0.0)",0.2199999988079071,7.928692502900958e-05,0.0,0.0,0.0,-0.0463764108717441,52,1,961000000,base_footprint,0.0027673931033547,0.0027005307423058,-0.717347790605497,0.69670452559355,0.0,0.0,0.0,0.0,0.0,0.0,0.0,0.0,0.0,7.697608599495405e-05,0.0002913277496181,-0.048787297152835,0.0,0.0,0.0,0.0,0.0,0.0,0.0,0.0,0.0,0.0144253430663461,0.0139341123702895,-0.0015095451473977,0.0,0.0,0.0,0.0,0.0,0.0,0.0,0.0,0.0
1.995,-1.6016534532787987,-0.00022480510883299992,-0.007509841019548907,-0.0016618151501874845,-1.6124593470279764,0.22513597240711805,-0.009377131208719643,-0.22494060434255325,-0.04974068269503121,0.20352585441587107,-0.03084024018638974,-0.0003184091268101549,-0.007490262333766764,-0.0016563647337445393,53,1,958000000,odom,base_footprint,-0.0009603350446452,-0.1034689387285719,-0.0010031946107865,0.0027671287957063,0.002700396003836,-0.717313804889493,0.6967395181663009,"(1e-05, 0.0, 0.0, 0.0, 0.0, 0.0, 0.0, 1e-05, 0.0, 0.0, 0.0, 0.0, 0.0, 0.0, 1000000000000.0, 0.0, 0.0, 0.0, 0.0, 0.0, 0.0, 1000000000000.0, 0.0, 0.0, 0.0, 0.0, 0.0, 0.0, 1000000000000.0, 0.0, 0.0, 0.0, 0.0, 0.0, 0.0, 0.001)",0.2208988318871959,4.1340053223390925e-05,0.0,0.0,0.0,-0.0487688098443882,"(0.0, 0.0, 0.0, 0.0, 0.0, 0.0, 0.0, 0.0, 0.0, 0.0, 0.0, 0.0, 0.0, 0.0, 0.0, 0.0, 0.0, 0.0, 0.0, 0.0, 0.0, 0.0, 0.0, 0.0, 0.0, 0.0, 0.0, 0.0, 0.0, 0.0, 0.0, 0.0, 0.0, 0.0, 0.0, 0.0)",0.2199999988079071,4.1340052121086046e-05,0.0,0.0,0.0,-0.0405636765062809,53,1,995000000,base_footprint,0.0027719919266707,0.0027020495597756,-0.7179264248883778,0.6961082268124171,0.0,0.0,0.0,0.0,0.0,0.0,0.0,0.0,0.0,7.532714770798468e-05,0.0003327391424603,-0.0488153970680895,0.0,0.0,0.0,0.0,0.0,0.0,0.0,0.0,0.0,-0.003593610275404,0.0117876306625057,5.646658540790064e-06,0.0,0.0,0.0,0.0,0.0,0.0,0.0,0.0,0.0
2.029,-1.6032965360220375,-0.00023798225772109997,-0.007513152713713195,-0.0016430827432387662,-1.614115711761721,0.21862069154196814,-0.009467552164216035,-0.21841559519939557,-0.047955551813603246,-0.19565408003453177,0.05360753397681565,-0.00032102555465960943,-0.007272986758389319,-0.0015969198753929882,53,1,958000000,odom,base_footprint,-0.0009603350446452,-0.1034689387285719,-0.0010031946107865,0.0027671287957063,0.002700396003836,-0.717313804889493,0.6967395181663009,"(1e-05, 0.0, 0.0, 0.0, 0.0, 0.0, 0.0, 1e-05, 0.0, 0.0, 0.0, 0.0, 0.0, 0.0, 1000000000000.0, 0.0, 0.0, 0.0, 0.0, 0.0, 0.0, 1000000000000.0, 0.0, 0.0, 0.0, 0.0, 0.0, 0.0, 1000000000000.0, 0.0, 0.0, 0.0, 0.0, 0.0, 0.0, 0.001)",0.2208988318871959,4.1340053223390925e-05,0.0,0.0,0.0,-0.0487688098443882,"(0.0, 0.0, 0.0, 0.0, 0.0, 0.0, 0.0, 0.0, 0.0, 0.0, 0.0, 0.0, 0.0, 0.0, 0.0, 0.0, 0.0, 0.0, 0.0, 0.0, 0.0, 0.0, 0.0, 0.0, 0.0, 0.0, 0.0, 0.0, 0.0, 0.0, 0.0, 0.0, 0.0, 0.0, 0.0, 0.0)",0.2199999988079071,4.1340052121086046e-05,0.0,0.0,0.0,-0.0405636765062809,54,2,29000000,base_footprint,0.0027776900282881,0.0027023893823273,-0.7184980536574311,0.6955181726024249,0.0,0.0,0.0,0.0,0.0,0.0,0.0,0.0,0.0,0.0001828054474356,0.0002985975816074,-0.0442097213555946,0.0,0.0,0.0,0.0,0.0,0.0,0.0,0.0,0.0,-0.0016980102063349,0.0111579964350221,0.000297414794566,0.0,0.0,0.0,0.0,0.0,0.0,0.0,0.0,0.0
2.063,-1.6047063159440103,-0.00024999675303590007,-0.007509384547257497,-0.0014097799219727758,-1.615712631637114,0.21860653821844747,-0.009815696647930134,-0.21838605873811945,-0.04126899717736141,-0.0004250247303504938,0.2007974365237788,-0.00033180839043068773,-0.007272031205648647,-0.001374257606006135,55,2,25000000,odom,base_footprint,-0.0014144462766222,-0.1182705214534392,-0.0010043352968754,0.0027769956937427,0.0027025567922073,-0.7184505322217773,0.6955672629098834,"(1e-05, 0.0, 0.0, 0.0, 0.0, 0.0, 0.0, 1e-05, 0.0, 0.0, 0.0, 0.0, 0.0, 0.0, 1000000000000.0, 0.0, 0.0, 0.0, 0.0, 0.0, 0.0, 1000000000000.0, 0.0, 0.0, 0.0, 0.0, 0.0, 0.0, 1000000000000.0, 0.0, 0.0, 0.0, 0.0, 0.0, 0.0, 0.001)",0.2211175139807168,5.374731331113554e-06,0.0,0.0,0.0,-0.0481912804817984,"(0.0, 0.0, 0.0, 0.0, 0.0, 0.0, 0.0, 0.0, 0.0, 0.0, 0.0, 0.0, 0.0, 0.0, 0.0, 0.0, 0.0, 0.0, 0.0, 0.0, 0.0, 0.0, 0.0, 0.0, 0.0, 0.0, 0.0, 0.0, 0.0, 0.0, 0.0, 0.0, 0.0, 0.0, 0.0, 0.0)",0.2199999988079071,4.1340052121086046e-05,0.0,0.0,0.0,-0.0405636765062809,55,2,63000000,base_footprint,0.0027813855925667,0.0027028453311855,-0.7189881292791921,0.6950115311826912,0.0,0.0,0.0,0.0,0.0,0.0,0.0,0.0,0.0,2.1488795415982237e-05,0.0003084170561523,-0.0410781576551916,0.0,0.0,0.0,0.0,0.0,0.0,0.0,0.0,0.0,0.0070797903151234,0.0095162720701733,-0.0001961315642855,0.0,0.0,0.0,0.0,0.0,0.0,0.0,0.0,0.0
2.097,-1.606097778737164,-0.0002608170128282001,-0.007502152836856901,-0.0013914627931537193,-1.61708688924312,0.22502719655753103,-0.010412915737522923,-0.2247861436485465,-0.04110389952003483,0.1928125627352421,0.004957887607404954,-0.00035182014729597086,-0.007485141413716831,-0.00136875985401716,57,2,92000000,odom,base_footprint,-0.0019158564740623,-0.1330628654849703,-0.0010047020845538,0.0027833100785105,0.0027003097515877,-0.7194142357421606,0.6945704564144487,"(1e-05, 0.0, 0.0, 0.0, 0.0, 0.0, 0.0, 1e-05, 0.0, 0.0, 0.0, 0.0, 0.0, 0.0, 1000000000000.0, 0.0, 0.0, 0.0, 0.0, 0.0, 0.0, 1000000000000.0, 0.0, 0.0, 0.0, 0.0, 0.0, 0.0, 1000000000000.0, 0.0, 0.0, 0.0, 0.0, 0.0, 0.0, 0.001)",0.220712556029797,1.642660812320451e-05,0.0,0.0,0.0,-0.0409840855573388,"(0.0, 0.0, 0.0, 0.0, 0.0, 0.0, 0.0, 0.0, 0.0, 0.0, 0.0, 0.0, 0.0, 0.0, 0.0, 0.0, 0.0, 0.0, 0.0, 0.0, 0.0, 0.0, 0.0, 0.0, 0.0, 0.0, 0.0, 0.0, 0.0, 0.0, 0.0, 0.0, 0.0, 0.0, 0.0, 0.0)",0.2199999988079071,0.0,0.0,0.0,0.0,-0.033002633601427,56,2,97000000,base_footprint,0.0027835945491249,0.0026990628249012,-0.7194715037024444,0.6945111388749621,0.0,0.0,0.0,0.0,0.0,0.0,0.0,0.0,0.0,-0.0003505165886353,0.0007381339387097,-0.0412969616365348,0.0,0.0,0.0,0.0,0.0,0.0,0.0,0.0,0.0,0.0074098021946433,0.005570150936294,0.0008942666985525,0.0,0.0,0.0,0.0,0.0,0.0,0.0,0.0,0.0
2.1310000000000002,-1.607529315500196,-0.0002680974123835001,-0.0074866262214629,-0.001431536763031982,-1.6184556490971373,0.2180953757996065,-0.010390343308569286,-0.2178477305622018,-0.03904863719686282,-0.20816278552325926,0.06171958928444459,-0.0003506637529431905,-0.007254104897328272,-0.001300319618655532,57,2,92000000,odom,base_footprint,-0.0019158564740623,-0.1330628654849703,-0.0010047020845538,0.0027833100785105,0.0027003097515877,-0.7194142357421606,0.6945704564144487,"(1e-05, 0.0, 0.0, 0.0, 0.0, 0.0, 0.0, 1e-05, 0.0, 0.0, 0.0, 0.0, 0.0, 0.0, 1000000000000.0, 0.0, 0.0, 0.0, 0.0, 0.0, 0.0, 1000000000000.0, 0.0, 0.0, 0.0, 0.0, 0.0, 0.0, 1000000000000.0, 0.0, 0.0, 0.0, 0.0, 0.0, 0.0, 0.001)",0.220712556029797,1.642660812320451e-05,0.0,0.0,0.0,-0.0409840855573388,"(0.0, 0.0, 0.0, 0.0, 0.0, 0.0, 0.0, 0.0, 0.0, 0.0, 0.0, 0.0, 0.0, 0.0, 0.0, 0.0, 0.0, 0.0, 0.0, 0.0, 0.0, 0.0, 0.0, 0.0, 0.0, 0.0, 0.0, 0.0, 0.0, 0.0, 0.0, 0.0, 0.0, 0.0, 0.0, 0.0)",0.2199999988079071,0.0,0.0,0.0,0.0,-0.033002633601427,57,2,131000000,base_footprint,0.002783890375915,0.0026939481457932,-0.7199684408204255,0.6939959919339362,0.0,0.0,0.0,0.0,0.0,0.0,0.0,0.0,0.0,0.0006338820072198,0.0013909829534235,-0.0401319353431684,0.0,0.0,0.0,0.0,0.0,0.0,0.0,0.0,0.0,0.0276390501609107,0.006063301888558,0.0015285806442865,0.0,0.0,0.0,0.0,0.0,0.0,0.0,0.0,0.0
2.165,-1.6091942249457751,-0.0002705652291218998,-0.007423175901304813,-0.0016649094455791769,-1.6197559687157927,0.21784222300056988,-0.010661216803136453,-0.21758118617680747,-0.030768989073112533,-0.007602186157255889,0.24863808179430294,-0.0003586793371659531,-0.007245272879247017,-0.0010246073361346475,58,2,125000000,odom,base_footprint,-0.002174823743244,-0.1403330946292588,-0.0010043354845845,0.0027853197855871,0.0026950179929318,-0.7198972324933821,0.6940698477243333,"(1e-05, 0.0, 0.0, 0.0, 0.0, 0.0, 0.0, 1e-05, 0.0, 0.0, 0.0, 0.0, 0.0, 0.0, 1000000000000.0, 0.0, 0.0, 0.0, 0.0, 0.0, 0.0, 1000000000000.0, 0.0, 0.0, 0.0, 0.0, 0.0, 0.0, 1000000000000.0, 0.0, 0.0, 0.0, 0.0, 0.0, 0.0, 0.001)",0.2200310790975506,-3.549484733806306e-05,0.0,0.0,0.0,-0.0419762286373995,"(0.0, 0.0, 0.0, 0.0, 0.0, 0.0, 0.0, 0.0, 0.0, 0.0, 0.0, 0.0, 0.0, 0.0, 0.0, 0.0, 0.0, 0.0, 0.0, 0.0, 0.0, 0.0, 0.0, 0.0, 0.0, 0.0, 0.0, 0.0, 0.0, 0.0, 0.0, 0.0, 0.0, 0.0, 0.0, 0.0)",0.2199999988079071,0.0,0.0,0.0,0.0,-0.033002633601427,58,2,165000000,base_footprint,0.0027823254738373,0.0026964311939023,-0.7205458934595622,0.6933964258217197,0.0,0.0,0.0,0.0,0.0,0.0,0.0,0.0,0.0,-0.0002686996371656,0.0009485216161175,-0.0606884770560415,0.0,0.0,0.0,0.0,0.0,0.0,0.0,0.0,0.0,0.0658262333251731,0.0089436543837138,-0.0012167360870241,0.0,0.0,0.0,0.0,0.0,0.0,0.0,0.0,0.0
2.199,-1.6110920490355352,-0.0002906192029456002,-0.007399181786353792,-0.0018978240897600254,-1.6207805760519274,0.22422291787011456,-0.011202947901336038,-0.2239428740918275,-0.03246056281204914,0.19161245854488523,-0.050798010178276516,-0.0003770360424523718,-0.007457097282695522,-0.0010809367416412365,59,2,158000000,odom,base_footprint,-0.0024355844399237,-0.1475499912576563,-0.0010042630289861,0.0027804756344682,0.002697567768504,-0.7204173646873676,0.6935299652792869,"(1e-05, 0.0, 0.0, 0.0, 0.0, 0.0, 0.0, 1e-05, 0.0, 0.0, 0.0, 0.0, 0.0, 0.0, 1000000000000.0, 0.0, 0.0, 0.0, 0.0, 0.0, 0.0, 1000000000000.0, 0.0, 0.0, 0.0, 0.0, 0.0, 0.0, 1000000000000.0, 0.0, 0.0, 0.0, 0.0, 0.0, 0.0, 0.001)",0.2177923187713197,3.7438901089443394e-05,0.0,0.0,0.0,-0.0620692183110496,"(0.0, 0.0, 0.0, 0.0, 0.0, 0.0, 0.0, 0.0, 0.0, 0.0, 0.0, 0.0, 0.0, 0.0, 0.0, 0.0, 0.0, 0.0, 0.0, 0.0, 0.0, 0.0, 0.0, 0.0, 0.0, 0.0, 0.0, 0.0, 0.0, 0.0, 0.0, 0.0, 0.0, 0.0, 0.0, 0.0)",0.2199999988079071,0.0,0.0,0.0,0.0,-0.0337711013853549,59,2,199000000,base_footprint,0.0027776501708436,0.0026894196054768,-0.7212035592713497,0.6927124062524439,0.0,0.0,0.0,0.0,0.0,0.0,0.0,0.0,0.0,-0.0001924256149616,0.0001607347375371,-0.0479616429760798,0.0,0.0,0.0,0.0,0.0,0.0,0.0,0.0,0.0,-0.028782682451014,0.0135520997049652,-0.0010222865884124,0.0,0.0,0.0,0.0,0.0,0.0,0.0,0.0,0.0
2.233,-1.6123340879420995,-0.00030471802661289965,-0.00745670831038131,-0.00124203890656438,-1.6218615127935687,0.21746845208968676,-0.011100241223435338,-0.2171849725442945,-0.03293241524586775,-0.20283681022305683,-0.014169742757315548,-0.0003735526855876723,-0.00723205808369183,-0.0010966494276873962,59,2,158000000,odom,base_footprint,-0.0024355844399237,-0.1475499912576563,-0.0010042630289861,0.0027804756344682,0.002697567768504,-0.7204173646873676,0.6935299652792869,"(1e-05, 0.0, 0.0, 0.0, 0.0, 0.0, 0.0, 1e-05, 0.0, 0.0, 0.0, 0.0, 0.0, 0.0, 1000000000000.0, 0.0, 0.0, 0.0, 0.0, 0.0, 0.0, 1000000000000.0, 0.0, 0.0, 0.0, 0.0, 0.0, 0.0, 1000000000000.0, 0.0, 0.0, 0.0, 0.0, 0.0, 0.0, 0.001)",0.2177923187713197,3.7438901089443394e-05,0.0,0.0,0.0,-0.0620692183110496,"(0.0, 0.0, 0.0, 0.0, 0.0, 0.0, 0.0, 0.0, 0.0, 0.0, 0.0, 0.0, 0.0, 0.0, 0.0, 0.0, 0.0, 0.0, 0.0, 0.0, 0.0, 0.0, 0.0, 0.0, 0.0, 0.0, 0.0, 0.0, 0.0, 0.0, 0.0, 0.0, 0.0, 0.0, 0.0, 0.0)",0.2199999988079071,0.0,0.0,0.0,0.0,-0.0337711013853549,60,2,233000000,base_footprint,0.0027846703705815,0.0026859958238516,-0.7216336137774966,0.6922643703844599,0.0,0.0,0.0,0.0,0.0,0.0,0.0,0.0,0.0,-8.397576066065626e-06,0.0003147869350839,-0.035497710497956,0.0,0.0,0.0,0.0,0.0,0.0,0.0,0.0,0.0,-0.0325429080313474,0.0108165429626085,0.0004702169400504,0.0,0.0,0.0,0.0,0.0,0.0,0.0,0.0,0.0
2.267,-1.6135329716831865,-0.0003136684940824,-0.007466238826312893,-0.001198883741087009,-1.622958162221256,0.21753294881496527,-0.01134177301890404,-0.2172370778778843,-0.033656479199420906,0.001936838596951986,-0.021743662268863574,-0.00038168383923961705,-0.007233784220344418,-0.0011207607573407163,61,2,225000000,odom,base_footprint,-0.0030174352293827,-0.1621744141738409,-0.0010036434600592,0.0027848314810459,0.0026868119126695,-0.7215474685503694,0.6923541553164261,"(1e-05, 0.0, 0.0, 0.0, 0.0, 0.0, 0.0, 1e-05, 0.0, 0.0, 0.0, 0.0, 0.0, 0.0, 1000000000000.0, 0.0, 0.0, 0.0, 0.0, 0.0, 0.0, 1000000000000.0, 0.0, 0.0, 0.0, 0.0, 0.0, 0.0, 1000000000000.0, 0.0, 0.0, 0.0, 0.0, 0.0, 0.0, 0.001)",0.2196296380514242,8.008156241901335e-05,0.0,0.0,0.0,-0.0352281265742146,"(0.0, 0.0, 0.0, 0.0, 0.0, 0.0, 0.0, 0.0, 0.0, 0.0, 0.0, 0.0, 0.0, 0.0, 0.0, 0.0, 0.0, 0.0, 0.0, 0.0, 0.0, 0.0, 0.0, 0.0, 0.0, 0.0, 0.0, 0.0, 0.0, 0.0, 0.0, 0.0, 0.0, 0.0, 0.0, 0.0)",0.2199999988079071,0.0,0.0,0.0,0.0,-0.0337711013853549,61,2,267000000,base_footprint,0.0027853763824443,0.0026827491081537,-0.722048462609234,0.6918316718532569,0.0,0.0,0.0,0.0,0.0,0.0,0.0,0.0,0.0,-4.314187407654664e-05,0.0004658440889119,-0.0348595831968227,0.0,0.0,0.0,0.0,0.0,0.0,0.0,0.0,0.0,-0.0051631752542358,0.0080865813460527,0.0002719913436864,0.0,0.0,0.0,0.0,0.0,0.0,0.0,0.0,0.0
2.301,-1.614722161760832,-0.0003226723550395004,-0.007472467211485007,-0.0011891900776455076,-1.6240789229785968,0.2242276096165236,-0.011941776783816652,-0.22390938989150416,-0.03546100665123101,0.20104086491166182,-0.05419001356787097,-0.000402010921224009,-0.007455948990731667,-0.0011808515214859927,61,2,225000000,odom,base_footprint,-0.0030174352293827,-0.1621744141738409,-0.0010036434600592,0.0027848314810459,0.0026868119126695,-0.7215474685503694,0.6923541553164261,"(1e-05, 0.0, 0.0, 0.0, 0.0, 0.0, 0.0, 1e-05, 0.0, 0.0, 0.0, 0.0, 0.0, 0.0, 1000000000000.0, 0.0, 0.0, 0.0, 0.0, 0.0, 0.0, 1000000000000.0, 0.0, 0.0, 0.0, 0.0, 0.0, 0.0, 1000000000000.0, 0.0, 0.0, 0.0, 0.0, 0.0, 0.0, 0.001)",0.2196296380514242,8.008156241901335e-05,0.0,0.0,0.0,-0.0352281265742146,"(0.0, 0.0, 0.0, 0.0, 0.0, 0.0, 0.0, 0.0, 0.0, 0.0, 0.0, 0.0, 0.0, 0.0, 0.0, 0.0, 0.0, 0.0, 0.0, 0.0, 0.0, 0.0, 0.0, 0.0, 0.0, 0.0, 0.0, 0.0, 0.0, 0.0, 0.0, 0.0, 0.0, 0.0, 0.0, 0.0)",0.2084210515022277,4.138498479733244e-05,0.0,0.0,0.0,-0.1910178363323211,62,2,301000000,base_footprint,0.0027852231794916,0.0026794709067963,-0.72245970120315,0.691402229606584,0.0,0.0,0.0,0.0,0.0,0.0,0.0,0.0,0.0,0.0001171312180722,0.000544859700542,-0.0351380843463104,0.0,0.0,0.0,0.0,0.0,0.0,0.0,0.0,0.0,-0.0044592550960167,0.0081356494068935,0.0003016775434617,0.0,0.0,0.0,0.0,0.0,0.0,0.0,0.0,0.0
2.335,-1.6163312943803665,-0.00033189352257559975,-0.007458953596988588,-0.0016091326195344369,-1.6252597745000827,0.21779587394500452,-0.011856050792991188,-0.21747293341255672,-0.034797831014435766,-0.19314521536093343,0.019915184288145447,-0.00039895124637860267,-0.0072416211254924135,-0.0011587677727807112,63,2,292000000,odom,base_footprint,-0.0036403244907701,-0.1768907538969667,-0.0010030822791512,0.0027854276365924,0.0026802015050967,-0.7223626223522772,0.6915036512854541,"(1e-05, 0.0, 0.0, 0.0, 0.0, 0.0, 0.0, 1e-05, 0.0, 0.0, 0.0, 0.0, 0.0, 0.0, 1000000000000.0, 0.0, 0.0, 0.0, 0.0, 0.0, 0.0, 1000000000000.0, 0.0, 0.0, 0.0, 0.0, 0.0, 0.0, 1000000000000.0, 0.0, 0.0, 0.0, 0.0, 0.0, 0.0, 0.001)",0.2200260076002342,4.136969355346583e-05,0.0,0.0,0.0,-0.0350827764039402,"(0.0, 0.0, 0.0, 0.0, 0.0, 0.0, 0.0, 0.0, 0.0, 0.0, 0.0, 0.0, 0.0, 0.0, 0.0, 0.0, 0.0, 0.0, 0.0, 0.0, 0.0, 0.0, 0.0, 0.0, 0.0, 0.0, 0.0, 0.0, 0.0, 0.0, 0.0, 0.0, 0.0, 0.0, 0.0, 0.0)",0.2084210515022277,4.138498479733244e-05,0.0,0.0,0.0,-0.1910178363323211,63,2,335000000,base_footprint,0.0027894756373829,0.0026785645139626,-0.7230157407101752,0.6908207313067043,0.0,0.0,0.0,0.0,0.0,0.0,0.0,0.0,0.0,0.0005207860759052,0.0024803364123224,-0.1121047457596731,0.0,0.0,0.0,0.0,0.0,0.0,0.0,0.0,0.0,0.1152655500743252,0.0002208335909061,0.0014549771953869,0.0,0.0,0.0,0.0,0.0,0.0,0.0,0.0,0.0
2.369,-1.6224587657896017,-0.00034539208767600006,-0.00716887037533559,-0.006127471409235197,-1.6264185422728636,0.2066288139293683,-0.011487227017427035,-0.20630925902951525,-0.190218165682525,-0.3353471476167033,-4.667277317360037,-0.00040423219731009895,-0.006868843727330947,-0.0063342649172280835,65,2,358000000,odom,base_footprint,-0.0042885755678576,-0.1911777636693764,-0.0010026156301335,0.0027906036650806,0.0026697466940057,-0.7244663226759874,0.6892993778410846,"(1e-05, 0.0, 0.0, 0.0, 0.0, 0.0, 0.0, 1e-05, 0.0, 0.0, 0.0, 0.0, 0.0, 0.0, 1000000000000.0, 0.0, 0.0, 0.0, 0.0, 0.0, 0.0, 1000000000000.0, 0.0, 0.0, 0.0, 0.0, 0.0, 0.0, 1000000000000.0, 0.0, 0.0, 0.0, 0.0, 0.0, 0.0, 0.001)",0.2101670830393557,8.768399892178196e-05,0.0,0.0,0.0,-0.192283518321259,"(0.0, 0.0, 0.0, 0.0, 0.0, 0.0, 0.0, 0.0, 0.0, 0.0, 0.0, 0.0, 0.0, 0.0, 0.0, 0.0, 0.0, 0.0, 0.0, 0.0, 0.0, 0.0, 0.0, 0.0, 0.0, 0.0, 0.0, 0.0, 0.0, 0.0, 0.0, 0.0, 0.0, 0.0, 0.0, 0.0)",0.2084210515022277,4.138498479733244e-05,0.0,0.0,0.0,-0.1910178363323211,64,2,369000000,base_footprint,0.0027928512609055,0.0026669540978906,-0.7251288490264414,0.688602381383671,0.0,0.0,0.0,0.0,0.0,0.0,0.0,0.0,0.0,4.4706252410721e-05,0.0015106222847057,-0.1923837632289426,0.0,0.0,0.0,0.0,0.0,0.0,0.0,0.0,0.0,0.1766612807961081,0.0189204796567768,-0.001461137292358,0.0,0.0,0.0,0.0,0.0,0.0,0.0,0.0,0.0
2.403,-1.6290039487170083,-0.00039035938611579977,-0.007141063730102898,-0.006545182927406579,-1.6327528071900916,0.21292409896646858,-0.013183589551351784,-0.21251556387056453,-0.1964274085204192,0.18904759871172006,-0.18646374888571177,-0.00046210520941139,-0.007075285270277386,-0.00654103270372996,66,2,392000000,odom,base_footprint,-0.0046649997219527,-0.1983176768367743,-0.0010027256335602,0.0027992937907025,0.0026614535876963,-0.7267173271151086,0.6869257653413111,"(1e-05, 0.0, 0.0, 0.0, 0.0, 0.0, 0.0, 1e-05, 0.0, 0.0, 0.0, 0.0, 0.0, 0.0, 1000000000000.0, 0.0, 0.0, 0.0, 0.0, 0.0, 0.0, 1000000000000.0, 0.0, 0.0, 0.0, 0.0, 0.0, 0.0, 1000000000000.0, 0.0, 0.0, 0.0, 0.0, 0.0, 0.0, 0.001)",0.2103890797670269,9.219827984818102e-05,0.0,0.0,0.0,-0.1926219462641865,"(0.0, 0.0, 0.0, 0.0, 0.0, 0.0, 0.0, 0.0, 0.0, 0.0, 0.0, 0.0, 0.0, 0.0, 0.0, 0.0, 0.0, 0.0, 0.0, 0.0, 0.0, 0.0, 0.0, 0.0, 0.0, 0.0, 0.0, 0.0, 0.0, 0.0, 0.0, 0.0, 0.0, 0.0, 0.0, 0.0)",0.2084210515022277,4.0658273064764217e-05,0.0,0.0,0.0,-0.0599026903510093,65,2,403000000,base_footprint,0.0028020578991348,0.0026593090213774,-0.7273784703238846,0.6862256461662918,0.0,0.0,0.0,0.0,0.0,0.0,0.0,0.0,0.0,0.000101268987221,0.0015748884824073,-0.1926681509522807,0.0,0.0,0.0,0.0,0.0,0.0,0.0,0.0,0.0,-0.0009829839757,0.0410985023465383,0.0003054948902244,0.0,0.0,0.0,0.0,0.0,0.0,0.0,0.0,0.0
2.437,-1.6347359728022646,-0.0004348795178961999,-0.007140888128437217,-0.005732024085256304,-1.6392938398938215,0.20683391903670867,-0.014156532821143882,-0.20634888573134488,-0.19098390248333022,-0.18288828617897623,0.16346864976243197,-0.0004932112390920073,-0.006869876014237893,-0.006359763952694897,66,2,392000000,odom,base_footprint,-0.0046649997219527,-0.1983176768367743,-0.0010027256335602,0.0027992937907025,0.0026614535876963,-0.7267173271151086,0.6869257653413111,"(1e-05, 0.0, 0.0, 0.0, 0.0, 0.0, 0.0, 1e-05, 0.0, 0.0, 0.0, 0.0, 0.0, 0.0, 1000000000000.0, 0.0, 0.0, 0.0, 0.0, 0.0, 0.0, 1000000000000.0, 0.0, 0.0, 0.0, 0.0, 0.0, 0.0, 1000000000000.0, 0.0, 0.0, 0.0, 0.0, 0.0, 0.0, 0.001)",0.2103890797670269,9.219827984818102e-05,0.0,0.0,0.0,-0.1926219462641865,"(0.0, 0.0, 0.0, 0.0, 0.0, 0.0, 0.0, 0.0, 0.0, 0.0, 0.0, 0.0, 0.0, 0.0, 0.0, 0.0, 0.0, 0.0, 0.0, 0.0, 0.0, 0.0, 0.0, 0.0, 0.0, 0.0, 0.0, 0.0, 0.0, 0.0, 0.0, 0.0, 0.0, 0.0, 0.0, 0.0)",0.2084210515022277,4.0658273064764217e-05,0.0,0.0,0.0,-0.0599026903510093,66,2,437000000,base_footprint,0.002810636926354,0.0026522708395995,-0.7293422071268477,0.6841381517521151,0.0,0.0,0.0,0.0,0.0,0.0,0.0,0.0,0.0,0.0022486363371465,-0.0017969335594456,-0.0620379870415015,0.0,0.0,0.0,0.0,0.0,0.0,0.0,0.0,0.0,0.0063873248707318,0.0380119894087884,-0.0049740840162057,0.0,0.0,0.0,0.0,0.0,0.0,0.0,0.0,0.0
2.471,-1.634522802516336,-0.0004686875639596001,-0.00728720493869639,0.00021317028592848788,-1.6456536038465166,0.2179031799831556,-0.01629640896659113,-0.2172929425949336,0.06933418824155495,0.33241023863203956,7.817360081828382,-0.0005342658357251823,-0.00723647878625954,0.00230882846844378,67,2,425000000,odom,base_footprint,-0.0050750272420838,-0.2052510201586063,-0.0010030803032425,0.0028092392051806,0.0026546523067954,-0.7288993252222286,0.6846099872823926,"(1e-05, 0.0, 0.0, 0.0, 0.0, 0.0, 0.0, 1e-05, 0.0, 0.0, 0.0, 0.0, 0.0, 0.0, 1000000000000.0, 0.0, 0.0, 0.0, 0.0, 0.0, 0.0, 1000000000000.0, 0.0, 0.0, 0.0, 0.0, 0.0, 0.0, 1000000000000.0, 0.0, 0.0, 0.0, 0.0, 0.0, 0.0, 0.001)",0.2105532669905972,0.0002501454309975,0.0,0.0,0.0,-0.194487612136246,"(0.0, 0.0, 0.0, 0.0, 0.0, 0.0, 0.0, 0.0, 0.0, 0.0, 0.0, 0.0, 0.0, 0.0, 0.0, 0.0, 0.0, 0.0, 0.0, 0.0, 0.0, 0.0, 0.0, 0.0, 0.0, 0.0, 0.0, 0.0, 0.0, 0.0, 0.0, 0.0, 0.0, 0.0, 0.0, 0.0)",0.2084210515022277,4.0658273064764217e-05,0.0,0.0,0.0,-0.0599026903510093,67,2,471000000,base_footprint,0.0028110309724474,0.0026600182884782,-0.7292692550055919,0.6842158841412306,0.0,0.0,0.0,0.0,0.0,0.0,0.0,0.0,0.0,0.0003417751344965,-4.413112121117759e-05,-0.0214004776955174,0.0,0.0,0.0,0.0,0.0,0.0,0.0,0.0,0.0,-0.0685386094294771,0.0074843166780582,0.0046451611086751,0.0,0.0,0.0,0.0,0.0,0.0,0.0,0.0,0.0
2.505,-1.6364901594091155,-0.0004598377232954004,-0.007120949810488497,-0.0019673568927793816,-1.6433447753780728,0.2133854092021995,-0.015467204020970337,-0.2128241021598912,-0.06455235075708954,-0.13566879222090333,-4.02061678674608,-0.0005226247490824962,-0.007086487240152061,-0.0021495932802110818,69,2,492000000,odom,base_footprint,-0.005984095461473,-0.2194576358034313,-0.0010043113760002,0.0028169846175306,0.0026594513164783,-0.729690487130859,0.683766615817919,"(1e-05, 0.0, 0.0, 0.0, 0.0, 0.0, 0.0, 1e-05, 0.0, 0.0, 0.0, 0.0, 0.0, 0.0, 1000000000000.0, 0.0, 0.0, 0.0, 0.0, 0.0, 0.0, 1000000000000.0, 0.0, 0.0, 0.0, 0.0, 0.0, 0.0, 1000000000000.0, 0.0, 0.0, 0.0, 0.0, 0.0, 0.0, 0.001)",0.2095783040531616,5.6777697469952496e-05,0.0,0.0,0.0,-0.0616520504679768,"(0.0, 0.0, 0.0, 0.0, 0.0, 0.0, 0.0, 0.0, 0.0, 0.0, 0.0, 0.0, 0.0, 0.0, 0.0, 0.0, 0.0, 0.0, 0.0, 0.0, 0.0, 0.0, 0.0, 0.0, 0.0, 0.0, 0.0, 0.0, 0.0, 0.0, 0.0, 0.0, 0.0, 0.0, 0.0, 0.0)",0.2084210515022277,0.0,0.0,0.0,0.0,-0.0017728171078488,68,2,505000000,base_footprint,0.0028191692341502,0.0026593869981056,-0.7299419407977438,0.6834981660619485,0.0,0.0,0.0,0.0,0.0,0.0,0.0,0.0,0.0,6.564016329201514e-06,0.0003973637320532,-0.0609972959040493,0.0,0.0,0.0,0.0,0.0,0.0,0.0,0.0,0.0,0.0926400251465447,-0.000478007940824,0.0001350204976907,0.0,0.0,0.0,0.0,0.0,0.0,0.0,0.0,0.0
2.539,-1.6380271158562225,-0.0004746319062784001,-0.007112844203310598,-0.0015369564471070518,-1.6454943686582837,0.20711716763862148,-0.01545686313507921,-0.20653960034983188,-0.06014906740526738,-0.18823548238973048,0.13223073128595061,-0.0005215527550880042,-0.006877252287576476,-0.002002963944595404,69,2,492000000,odom,base_footprint,-0.005984095461473,-0.2194576358034313,-0.0010043113760002,0.0028169846175306,0.0026594513164783,-0.729690487130859,0.683766615817919,"(1e-05, 0.0, 0.0, 0.0, 0.0, 0.0, 0.0, 1e-05, 0.0, 0.0, 0.0, 0.0, 0.0, 0.0, 1000000000000.0, 0.0, 0.0, 0.0, 0.0, 0.0, 0.0, 1000000000000.0, 0.0, 0.0, 0.0, 0.0, 0.0, 0.0, 1000000000000.0, 0.0, 0.0, 0.0, 0.0, 0.0, 0.0, 0.001)",0.2095783040531616,5.6777697469952496e-05,0.0,0.0,0.0,-0.0616520504679768,"(0.0, 0.0, 0.0, 0.0, 0.0, 0.0, 0.0, 0.0, 0.0, 0.0, 0.0, 0.0, 0.0, 0.0, 0.0, 0.0, 0.0, 0.0, 0.0, 0.0, 0.0, 0.0, 0.0, 0.0, 0.0, 0.0, 0.0, 0.0, 0.0, 0.0, 0.0, 0.0, 0.0, 0.0, 0.0, 0.0)",0.2084210515022277,0.0,0.0,0.0,0.0,-0.0017728171078488,69,2,539000000,base_footprint,0.0028214356737809,0.0026579159091125,-0.7304669759052318,0.6829370191281364,0.0,0.0,0.0,0.0,0.0,0.0,0.0,0.0,0.0,-0.0002698015857658,-0.0027368140887062,-0.0015663895549834,0.0,0.0,0.0,0.0,0.0,0.0,0.0,0.0,0.0,0.0079201689137435,0.0106805273843296,-0.0039087266253816,0.0,0.0,0.0,0.0,0.0,0.0,0.0,0.0,0.0
2.573,-1.6379298822080826,-0.0004752240897684997,-0.0070755360909481035,9.72336481399605e-05,-1.6474973326028792,0.2070327545206702,-0.01586405500113582,-0.20642406159006033,-0.0022342557672140714,-0.0025349284670057965,1.7391835326742733,-0.0005284803647395966,-0.0068739053122750145,-7.440071704822859e-05,71,2,558000000,odom,base_footprint,-0.0069041424748213,-0.2332431568164802,-0.0010047139510532,0.0028241087718181,0.0026570341993427,-0.7304430781386462,0.6829625715793275,"(1e-05, 0.0, 0.0, 0.0, 0.0, 0.0, 0.0, 1e-05, 0.0, 0.0, 0.0, 0.0, 0.0, 0.0, 1000000000000.0, 0.0, 0.0, 0.0, 0.0, 0.0, 0.0, 1000000000000.0, 0.0, 0.0, 0.0, 0.0, 0.0, 0.0, 1000000000000.0, 0.0, 0.0, 0.0, 0.0, 0.0, 0.0, 0.001)",0.2084269309026907,8.433115167680999e-05,0.0,0.0,0.0,0.0039308617655904,"(0.0, 0.0, 0.0, 0.0, 0.0, 0.0, 0.0, 0.0, 0.0, 0.0, 0.0, 0.0, 0.0, 0.0, 0.0, 0.0, 0.0, 0.0, 0.0, 0.0, 0.0, 0.0, 0.0, 0.0, 0.0, 0.0, 0.0, 0.0, 0.0, 0.0, 0.0, 0.0, 0.0, 0.0, 0.0, 0.0)",0.2084210515022277,0.0,0.0,0.0,0.0,-0.0017728171078488,70,2,573000000,base_footprint,0.0028248092934996,0.0026514760973112,-0.7304337974051918,0.6829725160906494,0.0,0.0,0.0,0.0,0.0,0.0,0.0,0.0,0.0,-0.000566596200645,0.0004638058746579,0.0006032487019865,0.0,0.0,0.0,0.0,0.0,0.0,0.0,0.0,0.0,0.0226869758352487,-0.0107146752528153,0.0049818235505887,0.0,0.0,0.0,0.0,0.0,0.0,0.0,0.0,0.0
2.607,-1.6378025157017093,-0.0004722764048035004,-0.007061208052847795,0.0001273665063732388,-1.6475717333199273,0.21299740853945012,-0.016336902041230773,-0.21236996415740303,0.00021808606744223968,0.17911873930270075,0.07364389893862797,-0.0005439433865011957,-0.007071925610267495,7.2622660458265825e-06,71,2,558000000,odom,base_footprint,-0.0069041424748213,-0.2332431568164802,-0.0010047139510532,0.0028241087718181,0.0026570341993427,-0.7304430781386462,0.6829625715793275,"(1e-05, 0.0, 0.0, 0.0, 0.0, 0.0, 0.0, 1e-05, 0.0, 0.0, 0.0, 0.0, 0.0, 0.0, 1000000000000.0, 0.0, 0.0, 0.0, 0.0, 0.0, 0.0, 1000000000000.0, 0.0, 0.0, 0.0, 0.0, 0.0, 0.0, 1000000000000.0, 0.0, 0.0, 0.0, 0.0, 0.0, 0.0, 0.001)",0.2084269309026907,8.433115167680999e-05,0.0,0.0,0.0,0.0039308617655904,"(0.0, 0.0, 0.0, 0.0, 0.0, 0.0, 0.0, 0.0, 0.0, 0.0, 0.0, 0.0, 0.0, 0.0, 0.0, 0.0, 0.0, 0.0, 0.0, 0.0, 0.0, 0.0, 0.0, 0.0, 0.0, 0.0, 0.0, 0.0, 0.0, 0.0, 0.0, 0.0, 0.0, 0.0, 0.0, 0.0)",0.2199999988079071,8.433114999206737e-05,0.0,0.0,0.0,0.0,71,2,607000000,base_footprint,0.0028269963574004,0.0026489719050459,-0.7303903117918933,0.6830190213163778,0.0,0.0,0.0,0.0,0.0,0.0,0.0,0.0,0.0,3.223998879268987e-05,-0.0002107046849004,0.0095987481919461,0.0,0.0,0.0,0.0,0.0,0.0,0.0,0.0,0.0,0.0333638238526687,-0.0005145990731062,-0.0013088321823743,0.0,0.0,0.0,0.0,0.0,0.0,0.0,0.0,0.0
2.641,-1.6382077856505026,-0.0004647395854752998,-0.007057931615771201,-0.0004052699487933076,-1.6475644710538817,0.2064161109897508,-0.015830621860999063,-0.20580816866107907,0.0013544850753287106,-0.19763656305403385,0.034126096332927056,-0.0005269569139174791,-0.006853427611604233,4.510435300844607e-05,73,2,625000000,odom,base_footprint,-0.007832884947431,-0.2471513882169669,-0.0010043622319532,0.0028239865186121,0.0026538903346591,-0.7303700652275285,0.6830406648112325,"(1e-05, 0.0, 0.0, 0.0, 0.0, 0.0, 0.0, 1e-05, 0.0, 0.0, 0.0, 0.0, 0.0, 0.0, 1000000000000.0, 0.0, 0.0, 0.0, 0.0, 0.0, 0.0, 1000000000000.0, 0.0, 0.0, 0.0, 0.0, 0.0, 0.0, 1000000000000.0, 0.0, 0.0, 0.0, 0.0, 0.0, 0.0, 0.001)",0.2078230863142781,0.0001678268081481,0.0,0.0,0.0,-0.0067313873188291,"(0.0, 0.0, 0.0, 0.0, 0.0, 0.0, 0.0, 0.0, 0.0, 0.0, 0.0, 0.0, 0.0, 0.0, 0.0, 0.0, 0.0, 0.0, 0.0, 0.0, 0.0, 0.0, 0.0, 0.0, 0.0, 0.0, 0.0, 0.0, 0.0, 0.0, 0.0, 0.0, 0.0, 0.0, 0.0, 0.0)",0.2199999988079071,8.433114999206737e-05,0.0,0.0,0.0,0.0,72,2,641000000,base_footprint,0.0028126374887943,0.0026398936177084,-0.7305287370720029,0.6828710598231765,0.0,0.0,0.0,0.0,0.0,0.0,0.0,0.0,0.0,0.0008421423954797,0.0001742052981616,-0.0557520216673246,0.0,0.0,0.0,0.0,0.0,0.0,0.0,0.0,0.0,-0.0544871867177509,-0.0051287188762933,0.0008778631935233,0.0,0.0,0.0,0.0,0.0,0.0,0.0,0.0,0.0
2.675,-1.6415705872390312,-0.0004894484999592996,-0.007162879925213805,-0.003362801588528529,-1.6475193667008732,0.22943310608275083,-0.017585540837352007,-0.22875816689298029,0.06996086405484522,0.6912010538438449,2.060251621006502,-0.0005766709625175416,-0.007618326258737522,0.002329696773026346,74,2,658000000,odom,base_footprint,-0.0082897246744641,-0.2540597816737587,-0.0010007402444604,0.0028057922557266,0.0026314322722045,-0.7310881833069175,0.6822721387562337,"(1e-05, 0.0, 0.0, 0.0, 0.0, 0.0, 0.0, 1e-05, 0.0, 0.0, 0.0, 0.0, 0.0, 0.0, 1000000000000.0, 0.0, 0.0, 0.0, 0.0, 0.0, 0.0, 1000000000000.0, 0.0, 0.0, 0.0, 0.0, 0.0, 0.0, 1000000000000.0, 0.0, 0.0, 0.0, 0.0, 0.0, 0.0, 0.001)",0.2122549100800957,0.000189287504699,0.0,0.0,0.0,-0.1223571336034001,"(0.0, 0.0, 0.0, 0.0, 0.0, 0.0, 0.0, 0.0, 0.0, 0.0, 0.0, 0.0, 0.0, 0.0, 0.0, 0.0, 0.0, 0.0, 0.0, 0.0, 0.0, 0.0, 0.0, 0.0, 0.0, 0.0, 0.0, 0.0, 0.0, 0.0, 0.0, 0.0, 0.0, 0.0, 0.0, 0.0)",0.2199999988079071,8.433114999206737e-05,0.0,0.0,0.0,0.0,73,2,675000000,base_footprint,0.0028112805693831,0.0026470602567499,-0.7316758394332389,0.6816418089900461,0.0,0.0,0.0,0.0,0.0,0.0,0.0,0.0,0.0,9.010986791859696e-05,-0.0005553236775753,-0.1041184801077448,0.0,0.0,0.0,0.0,0.0,0.0,0.0,0.0,0.0,-0.0720211682790205,0.0424867206764182,-0.0020354970101359,0.0,0.0,0.0,0.0,0.0,0.0,0.0,0.0,0.0
2.709,-1.6444732540139702,-0.0005210972278638006,-0.007234973930984379,-0.002902666774939,-1.6451896699278468,0.2243154318939074,-0.016672186619475258,-0.223694995874015,0.0038828549240590704,-0.15368390957487776,-1.9843245985221065,-0.0005546498089425758,-0.007449083138044418,0.00012929906897116706,74,2,658000000,odom,base_footprint,-0.0082897246744641,-0.2540597816737587,-0.0010007402444604,0.0028057922557266,0.0026314322722045,-0.7310881833069175,0.6822721387562337,"(1e-05, 0.0, 0.0, 0.0, 0.0, 0.0, 0.0, 1e-05, 0.0, 0.0, 0.0, 0.0, 0.0, 0.0, 1000000000000.0, 0.0, 0.0, 0.0, 0.0, 0.0, 0.0, 1000000000000.0, 0.0, 0.0, 0.0, 0.0, 0.0, 0.0, 1000000000000.0, 0.0, 0.0, 0.0, 0.0, 0.0, 0.0, 0.001)",0.2122549100800957,0.000189287504699,0.0,0.0,0.0,-0.1223571336034001,"(0.0, 0.0, 0.0, 0.0, 0.0, 0.0, 0.0, 0.0, 0.0, 0.0, 0.0, 0.0, 0.0, 0.0, 0.0, 0.0, 0.0, 0.0, 0.0, 0.0, 0.0, 0.0, 0.0, 0.0, 0.0, 0.0, 0.0, 0.0, 0.0, 0.0, 0.0, 0.0, 0.0, 0.0, 0.0, 0.0)",0.2199999988079071,0.0001892875006888,0.0,0.0,0.0,-0.146972507238388,74,2,709000000,base_footprint,0.0028161778742757,0.00263913963508,-0.7326643725584737,0.680579180748034,0.0,0.0,0.0,0.0,0.0,0.0,0.0,0.0,0.0,-3.993263627940038e-05,0.0007342146612792,-0.0607077682106984,0.0,0.0,0.0,0.0,0.0,0.0,0.0,0.0,0.0,-0.0919789783387495,0.033019500029515,0.0026396662516269,0.0,0.0,0.0,0.0,0.0,0.0,0.0,0.0,0.0
2.743,-1.6461064758875426,-0.0005534202368350002,-0.007443724615110614,-0.001633221873572399,-1.6450603708588756,0.21775120420126567,-0.016156224800342706,-0.21715101503631545,0.0033604584273799402,-0.1971239547339858,-0.01568758248285676,-0.0005375467982387868,-0.007231162671169868,0.00011190326563175202,75,2,692000000,odom,base_footprint,-0.0087967261373979,-0.2612545108443564,-0.0010026284518022,0.0028142951491821,0.0026425622298618,-0.7322635387382131,0.6810104304944706,"(1e-05, 0.0, 0.0, 0.0, 0.0, 0.0, 0.0, 1e-05, 0.0, 0.0, 0.0, 0.0, 0.0, 0.0, 1000000000000.0, 0.0, 0.0, 0.0, 0.0, 0.0, 0.0, 1000000000000.0, 0.0, 0.0, 0.0, 0.0, 0.0, 0.0, 1000000000000.0, 0.0, 0.0, 0.0, 0.0, 0.0, 0.0, 0.001)",0.2132710046030762,0.0001125587919533,0.0,0.0,0.0,-0.0863446445175114,"(0.0, 0.0, 0.0, 0.0, 0.0, 0.0, 0.0, 0.0, 0.0, 0.0, 0.0, 0.0, 0.0, 0.0, 0.0, 0.0, 0.0, 0.0, 0.0, 0.0, 0.0, 0.0, 0.0, 0.0, 0.0, 0.0, 0.0, 0.0, 0.0, 0.0, 0.0, 0.0, 0.0, 0.0, 0.0, 0.0)",0.2199999988079071,0.0001892875006888,0.0,0.0,0.0,-0.146972507238388,75,2,743000000,base_footprint,0.0028161945144851,0.002630188246163,-0.7332199229067782,0.6799806584093585,0.0,0.0,0.0,0.0,0.0,0.0,0.0,0.0,0.0,4.171298121375845e-05,0.0007556887717867,-0.0808183288778315,0.0,0.0,0.0,0.0,0.0,0.0,0.0,0.0,0.0,-0.3415561427054221,0.0627676758563903,0.0001121008123498,0.0,0.0,0.0,0.0,0.0,0.0,0.0,0.0,0.0
2.777,-1.6493332608548052,-0.0005933235336462988,-0.007724545331257993,-0.003226784967262697,-1.644948467593244,0.22943192841314344,-0.01699728195538693,-0.22880144707038644,-0.07765519222966841,0.35077249885518824,-2.4329024221335835,-0.0005758064030059782,-0.007618351922105575,-0.0025859179012479583,75,2,692000000,odom,base_footprint,-0.0087967261373979,-0.2612545108443564,-0.0010026284518022,0.0028142951491821,0.0026425622298618,-0.7322635387382131,0.6810104304944706,"(1e-05, 0.0, 0.0, 0.0, 0.0, 0.0, 0.0, 1e-05, 0.0, 0.0, 0.0, 0.0, 0.0, 0.0, 1000000000000.0, 0.0, 0.0, 0.0, 0.0, 0.0, 0.0, 1000000000000.0, 0.0, 0.0, 0.0, 0.0, 0.0, 0.0, 1000000000000.0, 0.0, 0.0, 0.0, 0.0, 0.0, 0.0, 0.001)",0.2132710046030762,0.0001125587919533,0.0,0.0,0.0,-0.0863446445175114,"(0.0, 0.0, 0.0, 0.0, 0.0, 0.0, 0.0, 0.0, 0.0, 0.0, 0.0, 0.0, 0.0, 0.0, 0.0, 0.0, 0.0, 0.0, 0.0, 0.0, 0.0, 0.0, 0.0, 0.0, 0.0, 0.0, 0.0, 0.0, 0.0, 0.0, 0.0, 0.0, 0.0, 0.0, 0.0, 0.0)",0.2199999988079071,0.0001892875006888,0.0,0.0,0.0,-0.146972507238388,76,2,777000000,base_footprint,0.0028331203134338,0.0026321571416167,-0.7343160148217922,0.6787967557040273,0.0,0.0,0.0,0.0,0.0,0.0,0.0,0.0,0.0,0.0005356598315753,0.0004588892540267,-0.145725055530703,0.0,0.0,0.0,0.0,0.0,0.0,0.0,0.0,0.0,0.1636670437878165,-0.0051267541479482,0.0003415654807263,0.0,0.0,0.0,0.0,0.0,0.0,0.0,0.0,0.0
2.811,-1.6544127136233382,-0.0006060238286438001,-0.007492878524939628,-0.005079452768532944,-1.647534385494492,0.22455317868228689,-0.017214867775032998,-0.2238923365901727,-0.15132340811810685,-0.14650900092662333,-2.2122587353885415,-0.00059198484931626,-0.007454143089561504,-0.0050390694903329585,77,2,758000000,odom,base_footprint,-0.0098785146865486,-0.2757934097836757,-0.0010028612080363,0.0028271241037405,0.0026334689627562,-0.7337002427540534,0.6794623065286018,"(1e-05, 0.0, 0.0, 0.0, 0.0, 0.0, 0.0, 1e-05, 0.0, 0.0, 0.0, 0.0, 0.0, 0.0, 1000000000000.0, 0.0, 0.0, 0.0, 0.0, 0.0, 0.0, 1000000000000.0, 0.0, 0.0, 0.0, 0.0, 0.0, 0.0, 1000000000000.0, 0.0, 0.0, 0.0, 0.0, 0.0, 0.0, 0.001)",0.2320687945639301,-2.8920533411858077e-05,0.0,0.0,0.0,-0.0813469795539835,"(0.0, 0.0, 0.0, 0.0, 0.0, 0.0, 0.0, 0.0, 0.0, 0.0, 0.0, 0.0, 0.0, 0.0, 0.0, 0.0, 0.0, 0.0, 0.0, 0.0, 0.0, 0.0, 0.0, 0.0, 0.0, 0.0, 0.0, 0.0, 0.0, 0.0, 0.0, 0.0, 0.0, 0.0, 0.0, 0.0)",0.2199999988079071,0.0,0.0,0.0,0.0,-0.0567315965890884,77,2,811000000,base_footprint,0.0028358877994814,0.0026225469180657,-0.7360376133075024,0.6769296209981115,0.0,0.0,0.0,0.0,0.0,0.0,0.0,0.0,0.0,0.0002475810392776,0.0014051458170903,-0.1491242367652349,0.0,0.0,0.0,0.0,0.0,0.0,0.0,0.0,0.0,0.0109530581582698,0.0326833476874613,0.0001169213014273,0.0,0.0,0.0,0.0,0.0,0.0,0.0,0.0,0.0
2.845,-1.658013961228622,-0.0006421366722919007,-0.00748262178621889,-0.0036012476052837967,-1.6525734549848248,0.21788247180099865,-0.01779795004405245,-0.21715433334921588,-0.14769236826831078,-0.20032152796661365,0.10904023572961169,-0.000610400609192655,-0.007229757021856547,-0.00491815586333475,79,2,825000000,odom,base_footprint,-0.0110782420817839,-0.2906411842071109,-0.0010026878616454,0.0028383676599189,0.0026194201987081,-0.7367942291022715,0.6761060170331566,"(1e-05, 0.0, 0.0, 0.0, 0.0, 0.0, 0.0, 1e-05, 0.0, 0.0, 0.0, 0.0, 0.0, 0.0, 1000000000000.0, 0.0, 0.0, 0.0, 0.0, 0.0, 0.0, 1000000000000.0, 0.0, 0.0, 0.0, 0.0, 0.0, 0.0, 1000000000000.0, 0.0, 0.0, 0.0, 0.0, 0.0, 0.0, 0.001)",0.2213156547398399,8.34431359486229e-05,0.0,0.0,0.0,-0.1491884620587154,"(0.0, 0.0, 0.0, 0.0, 0.0, 0.0, 0.0, 0.0, 0.0, 0.0, 0.0, 0.0, 0.0, 0.0, 0.0, 0.0, 0.0, 0.0, 0.0, 0.0, 0.0, 0.0, 0.0, 0.0, 0.0, 0.0, 0.0, 0.0, 0.0, 0.0, 0.0, 0.0, 0.0, 0.0, 0.0, 0.0)",0.2199999988079071,0.0,0.0,0.0,0.0,-0.0567315965890884,78,2,845000000,base_footprint,0.0028393024579809,0.0026176003874369,-0.7372553148351204,0.6756032025361717,0.0,0.0,0.0,0.0,0.0,0.0,0.0,0.0,0.0,0.0003558484759325,0.0008771939065408,-0.0587575239376013,0.0,0.0,0.0,0.0,0.0,0.0,0.0,0.0,0.0,0.0232980929569612,0.0216720882490403,0.000329147867248,0.0,0.0,0.0,0.0,0.0,0.0,0.0,0.0,0.0
2.879,-1.6600212534180314,-0.0006597273714998002,-0.0074746342870053994,-0.0020072921894094264,-1.6574916108481597,0.2180997845342045,-0.01888454574364856,-0.21728067089808625,-0.05899725816412278,0.006525907904079712,2.663516819945585,-0.000635911458024473,-0.007234828435045548,-0.0019646086968652886,79,2,825000000,odom,base_footprint,-0.0110782420817839,-0.2906411842071109,-0.0010026878616454,0.0028383676599189,0.0026194201987081,-0.7367942291022715,0.6761060170331566,"(1e-05, 0.0, 0.0, 0.0, 0.0, 0.0, 0.0, 1e-05, 0.0, 0.0, 0.0, 0.0, 0.0, 0.0, 1000000000000.0, 0.0, 0.0, 0.0, 0.0, 0.0, 0.0, 1000000000000.0, 0.0, 0.0, 0.0, 0.0, 0.0, 0.0, 1000000000000.0, 0.0, 0.0, 0.0, 0.0, 0.0, 0.0, 0.001)",0.2213156547398399,8.34431359486229e-05,0.0,0.0,0.0,-0.1491884620587154,"(0.0, 0.0, 0.0, 0.0, 0.0, 0.0, 0.0, 0.0, 0.0, 0.0, 0.0, 0.0, 0.0, 0.0, 0.0, 0.0, 0.0, 0.0, 0.0, 0.0, 0.0, 0.0, 0.0, 0.0, 0.0, 0.0, 0.0, 0.0, 0.0, 0.0, 0.0, 0.0, 0.0, 0.0, 0.0, 0.0)",0.2199999988079071,0.0,0.0,0.0,0.0,-0.0567315965890884,79,2,879000000,base_footprint,0.0028425667712644,0.0026162860698485,-0.737933003766479,0.6748629170531846,0.0,0.0,0.0,0.0,0.0,0.0,0.0,0.0,0.0,0.0001630268991412,0.0004965923663833,-0.0591450407253502,0.0,0.0,0.0,0.0,0.0,0.0,0.0,0.0,0.0,-0.0041084059284695,0.013176925317621,-0.0004251840737885,0.0,0.0,0.0,0.0,0.0,0.0,0.0,0.0,0.0
2.9130000000000003,-1.6620323699658748,-0.0006755696739926993,-0.007479347842246908,-0.0020111165478433612,-1.6594562195450249,0.22485031455271184,-0.019909098001934765,-0.2239671667258458,-0.06034683238693556,0.20271861917439454,-0.040527754438822255,-0.0006704137464757883,-0.007457440212598133,-0.0020095495184849544,81,2,892000000,odom,base_footprint,-0.0123764482763821,-0.3053703736732436,-0.001002962446592,0.0028440466748437,0.0026159566137547,-0.7382123037385647,0.6745573828656147,"(1e-05, 0.0, 0.0, 0.0, 0.0, 0.0, 0.0, 1e-05, 0.0, 0.0, 0.0, 0.0, 0.0, 0.0, 1000000000000.0, 0.0, 0.0, 0.0, 0.0, 0.0, 0.0, 1000000000000.0, 0.0, 0.0, 0.0, 0.0, 0.0, 0.0, 1000000000000.0, 0.0, 0.0, 0.0, 0.0, 0.0, 0.0, 0.001)",0.2208698677110998,4.1164186554251e-05,0.0,0.0,0.0,-0.0591780292343301,"(0.0, 0.0, 0.0, 0.0, 0.0, 0.0, 0.0, 0.0, 0.0, 0.0, 0.0, 0.0, 0.0, 0.0, 0.0, 0.0, 0.0, 0.0, 0.0, 0.0, 0.0, 0.0, 0.0, 0.0, 0.0, 0.0, 0.0, 0.0, 0.0, 0.0, 0.0, 0.0, 0.0, 0.0, 0.0, 0.0)",0.2199999988079071,5.037427399656736e-05,0.0,0.0,0.0,-0.0508827902376651,80,2,913000000,base_footprint,0.002846451616256,0.0026158600686782,-0.7386112347233635,0.674120537389068,0.0,0.0,0.0,0.0,0.0,0.0,0.0,0.0,0.0,0.0001706124080073,0.0004045029299552,-0.0591743218102551,0.0,0.0,0.0,0.0,0.0,0.0,0.0,0.0,0.0,-0.0026100525991383,0.0139536886480175,-9.210772356622444e-05,0.0,0.0,0.0,0.0,0.0,0.0,0.0,0.0,0.0
2.947,-1.6639221967964464,-0.0006910599652834998,-0.007482261335234386,-0.0018898268305715948,-1.6614657690635097,0.21840254297061573,-0.01977531544537918,-0.21750541987515482,-0.058612088061082375,-0.19362677423712046,0.05209442419979543,-0.000665534925262139,-0.007242287925700379,-0.0019517825324340432,81,2,892000000,odom,base_footprint,-0.0123764482763821,-0.3053703736732436,-0.001002962446592,0.0028440466748437,0.0026159566137547,-0.7382123037385647,0.6745573828656147,"(1e-05, 0.0, 0.0, 0.0, 0.0, 0.0, 0.0, 1e-05, 0.0, 0.0, 0.0, 0.0, 0.0, 0.0, 1000000000000.0, 0.0, 0.0, 0.0, 0.0, 0.0, 0.0, 1000000000000.0, 0.0, 0.0, 0.0, 0.0, 0.0, 0.0, 1000000000000.0, 0.0, 0.0, 0.0, 0.0, 0.0, 0.0, 0.001)",0.2208698677110998,4.1164186554251e-05,0.0,0.0,0.0,-0.0591780292343301,"(0.0, 0.0, 0.0, 0.0, 0.0, 0.0, 0.0, 0.0, 0.0, 0.0, 0.0, 0.0, 0.0, 0.0, 0.0, 0.0, 0.0, 0.0, 0.0, 0.0, 0.0, 0.0, 0.0, 0.0, 0.0, 0.0, 0.0, 0.0, 0.0, 0.0, 0.0, 0.0, 0.0, 0.0, 0.0, 0.0)",0.2199999988079071,5.037427399656736e-05,0.0,0.0,0.0,-0.0508827902376651,81,2,947000000,base_footprint,0.0028512142492915,0.0026170387014598,-0.7392478746485697,0.6734223054765207,0.0,0.0,0.0,0.0,0.0,0.0,0.0,0.0,0.0,0.0001656184405746,0.0002326961281462,-0.0530168158096248,0.0,0.0,0.0,0.0,0.0,0.0,0.0,0.0,0.0,-0.0001312838090274,0.0128114653821321,-0.0001514674697919,0.0,0.0,0.0,0.0,0.0,0.0,0.0,0.0,0.0
2.981,-1.6657016774475826,-0.0007050883240292006,-0.007482745331817531,-0.0017794806511362005,-1.663417551595944,0.21853730931302415,-0.020212265172984002,-0.21760059719208805,-0.05269490315977347,0.004047037309562029,0.17769324027954678,-0.0006793746008702527,-0.007245510419542589,-0.0017547402752204565,82,2,925000000,odom,base_footprint,-0.0130382265173073,-0.3126313691595281,-0.001003396468851,0.0028482094917005,0.0026160635081767,-0.7388702856272723,0.6738365862221237,"(1e-05, 0.0, 0.0, 0.0, 0.0, 0.0, 0.0, 1e-05, 0.0, 0.0, 0.0, 0.0, 0.0, 0.0, 1000000000000.0, 0.0, 0.0, 0.0, 0.0, 0.0, 0.0, 1000000000000.0, 0.0, 0.0, 0.0, 0.0, 0.0, 0.0, 1000000000000.0, 0.0, 0.0, 0.0, 0.0, 0.0, 0.0, 0.001)",0.2210282701326628,3.437116239521712e-05,0.0,0.0,0.0,-0.0591214440562082,"(0.0, 0.0, 0.0, 0.0, 0.0, 0.0, 0.0, 0.0, 0.0, 0.0, 0.0, 0.0, 0.0, 0.0, 0.0, 0.0, 0.0, 0.0, 0.0, 0.0, 0.0, 0.0, 0.0, 0.0, 0.0, 0.0, 0.0, 0.0, 0.0, 0.0, 0.0, 0.0, 0.0, 0.0, 0.0, 0.0)",0.2199999988079071,5.037427399656736e-05,0.0,0.0,0.0,-0.0508827902376651,82,2,981000000,base_footprint,0.0028567489383138,0.0026188981401169,-0.7398467347454785,0.6727642896620545,0.0,0.0,0.0,0.0,0.0,0.0,0.0,0.0,0.0,4.457545828725156e-05,0.000312626067086,-0.051429603357786,0.0,0.0,0.0,0.0,0.0,0.0,0.0,0.0,0.0,0.0023177243442148,0.0117260970906362,0.0001129858880543,0.0,0.0,0.0,0.0,0.0,0.0,0.0,0.0,0.0
3.015,-1.667412739177216,-0.0007185414065999998,-0.007478901258941184,-0.0017110617296334232,-1.6651722918711642,0.22519261408266641,-0.02122123521947419,-0.22419048287816426,-0.052864812988229606,0.19985900209135937,-0.005102397250935129,-0.0007131853924603486,-0.007464922235844067,-0.0017603982725080461,84,2,992000000,odom,base_footprint,-0.0144240816208307,-0.3273757796486422,-0.0010046169082858,0.0028582497199813,0.002618496451001,-0.7400527290184961,0.6725376808455799,"(1e-05, 0.0, 0.0, 0.0, 0.0, 0.0, 0.0, 1e-05, 0.0, 0.0, 0.0, 0.0, 0.0, 0.0, 1000000000000.0, 0.0, 0.0, 0.0, 0.0, 0.0, 0.0, 1000000000000.0, 0.0, 0.0, 0.0, 0.0, 0.0, 0.0, 1000000000000.0, 0.0, 0.0, 0.0, 0.0, 0.0, 0.0, 0.001)",0.2210158387096978,1.755034316517495e-06,0.0,0.0,0.0,-0.0506309744107717,"(0.0, 0.0, 0.0, 0.0, 0.0, 0.0, 0.0, 0.0, 0.0, 0.0, 0.0, 0.0, 0.0, 0.0, 0.0, 0.0, 0.0, 0.0, 0.0, 0.0, 0.0, 0.0, 0.0, 0.0, 0.0, 0.0, 0.0, 0.0, 0.0, 0.0, 0.0, 0.0, 0.0, 0.0, 0.0, 0.0)",0.2199999988079071,3.4371161746094e-05,0.0,0.0,0.0,0.0311349667608737,83,3,15000000,base_footprint,0.0028609574411068,0.0026158537901216,-0.7404220361156195,0.6721310740219272,0.0,0.0,0.0,0.0,0.0,0.0,0.0,0.0,0.0,-0.0003551652361092,0.00078793474807,-0.049567432583764,0.0,0.0,0.0,0.0,0.0,0.0,0.0,0.0,0.0,0.0049471193699627,0.0084789561158857,0.00099862707399,0.0,0.0,0.0,0.0,0.0,0.0,0.0,0.0,0.0
3.049,-1.6682228065978553,-0.0007262400086566999,-0.0075089047927972,-0.0008100674206392711,-1.6669326901436723,0.21846406863495446,-0.020970004720139816,-0.2174553015830504,-0.049240868413976804,-0.2020584218532118,0.10882716439197603,-0.0007041867068623467,-0.00724069074468293,-0.0016397209181854278,85,3,25000000,odom,base_footprint,-0.0151241461096315,-0.3346333793016366,-0.0010044454453153,0.0028631529949773,0.0026122303187178,-0.7406066168328094,0.6719276878587083,"(1e-05, 0.0, 0.0, 0.0, 0.0, 0.0, 0.0, 1e-05, 0.0, 0.0, 0.0, 0.0, 0.0, 0.0, 1000000000000.0, 0.0, 0.0, 0.0, 0.0, 0.0, 0.0, 1000000000000.0, 0.0, 0.0, 0.0, 0.0, 0.0, 0.0, 1000000000000.0, 0.0, 0.0, 0.0, 0.0, 0.0, 0.0, 0.001)",0.2209345964155659,0.0001700908522353,0.0,0.0,0.0,-0.0501828430295349,"(0.0, 0.0, 0.0, 0.0, 0.0, 0.0, 0.0, 0.0, 0.0, 0.0, 0.0, 0.0, 0.0, 0.0, 0.0, 0.0, 0.0, 0.0, 0.0, 0.0, 0.0, 0.0, 0.0, 0.0, 0.0, 0.0, 0.0, 0.0, 0.0, 0.0, 0.0, 0.0, 0.0, 0.0, 0.0, 0.0)",0.2199999988079071,3.4371161746094e-05,0.0,0.0,0.0,0.0311349667608737,84,3,49000000,base_footprint,0.0028672896882479,0.0026155092167427,-0.7406942059733126,0.6718311030303262,0.0,0.0,0.0,0.0,0.0,0.0,0.0,0.0,0.0,-0.0010522456994158,-0.0015930559717077,0.003779055464078,0.0,0.0,0.0,0.0,0.0,0.0,0.0,0.0,0.0,-0.05210028160745,0.0199347658400735,-0.0031836942075175,0.0,0.0,0.0,0.0,0.0,0.0,0.0,0.0,0.0
3.083,-1.6676645329932807,-0.0007322522278917012,-0.0074924306260845674,0.0005582736045746106,-1.6685724110618578,0.2181381110244708,-0.021294722274981633,-0.21709622356124886,0.03190946973532785,-0.009788516831340884,2.43694709157071,-0.0007052223596927918,-0.007229684594884995,0.0010625853421864174,86,3,58000000,odom,base_footprint,-0.0158353614853822,-0.341938963920963,-0.0010049659774872,0.0028682931662237,0.0026135194641424,-0.7406823121738332,0.6718442191781869,"(1e-05, 0.0, 0.0, 0.0, 0.0, 0.0, 0.0, 1e-05, 0.0, 0.0, 0.0, 0.0, 0.0, 0.0, 1000000000000.0, 0.0, 0.0, 0.0, 0.0, 0.0, 0.0, 1000000000000.0, 0.0, 0.0, 0.0, 0.0, 0.0, 0.0, 1000000000000.0, 0.0, 0.0, 0.0, 0.0, 0.0, 0.0, 0.001)",0.2224101581675966,-0.0001623470540063,0.0,0.0,0.0,0.0058729799354909,"(0.0, 0.0, 0.0, 0.0, 0.0, 0.0, 0.0, 0.0, 0.0, 0.0, 0.0, 0.0, 0.0, 0.0, 0.0, 0.0, 0.0, 0.0, 0.0, 0.0, 0.0, 0.0, 0.0, 0.0, 0.0, 0.0, 0.0, 0.0, 0.0, 0.0, 0.0, 0.0, 0.0, 0.0, 0.0, 0.0)",0.2199999988079071,3.4371161746094e-05,0.0,0.0,0.0,0.0311349667608737,85,3,83000000,base_footprint,0.0028650641586943,0.0026034561143176,-0.740506694568254,0.6720378328064767,0.0,0.0,0.0,0.0,0.0,0.0,0.0,0.0,0.0,4.706944430255767e-05,0.0002962354050285,0.0409050191715526,0.0,0.0,0.0,0.0,0.0,0.0,0.0,0.0,0.0,0.1019147833751505,-0.0286865550402463,0.0032050259367514,0.0,0.0,0.0,0.0,0.0,0.0,0.0,0.0,0.0
3.117,-1.6666047189839952,-0.0007102727635774006,-0.007403468980004713,0.0010598140092854536,-1.6675098257196714,0.22466591305580463,-0.021694369880892937,-0.22361602537535044,0.03399790833441101,0.19603009103104574,0.06271587384634122,-0.0007181547968600684,-0.0074468260470504175,0.0011321303475358869,87,3,92000000,odom,base_footprint,-0.0165585957252903,-0.3493930370063055,-0.0010039236947443,0.00286371387674,0.002606773303293,-0.740358687904487,0.6722008755722682,"(1e-05, 0.0, 0.0, 0.0, 0.0, 0.0, 0.0, 1e-05, 0.0, 0.0, 0.0, 0.0, 0.0, 0.0, 1000000000000.0, 0.0, 0.0, 0.0, 0.0, 0.0, 0.0, 1000000000000.0, 0.0, 0.0, 0.0, 0.0, 0.0, 0.0, 1000000000000.0, 0.0, 0.0, 0.0, 0.0, 0.0, 0.0, 0.001)",0.2186376393829125,9.915555338219084e-05,0.0,0.0,0.0,0.0418503544608804,"(0.0, 0.0, 0.0, 0.0, 0.0, 0.0, 0.0, 0.0, 0.0, 0.0, 0.0, 0.0, 0.0, 0.0, 0.0, 0.0, 0.0, 0.0, 0.0, 0.0, 0.0, 0.0, 0.0, 0.0, 0.0, 0.0, 0.0, 0.0, 0.0, 0.0, 0.0, 0.0, 0.0, 0.0, 0.0, 0.0)",0.2199999988079071,0.0,0.0,0.0,0.0,-0.0351526625454425,86,3,117000000,base_footprint,0.0028560331773102,0.0026125022308433,-0.7401504468286155,0.67243017032699,0.0,0.0,0.0,0.0,0.0,0.0,0.0,0.0,0.0,0.0004555586235525,0.0003817919122106,0.0180196733330058,0.0,0.0,0.0,0.0,0.0,0.0,0.0,0.0,0.0,0.0309320750874493,-0.0177882278225198,4.057096656960978e-05,0.0,0.0,0.0,0.0,0.0,0.0,0.0,0.0,0.0
3.151,-1.6674235087764993,-0.0007094189622621969,-0.007390254906903204,-0.0008187897925040487,-1.6663776953721354,0.21769660813895805,-0.020776071658415735,-0.2167029488531511,0.03493297617650903,-0.20928843594133872,0.028080115378318737,-0.0006875950476123801,-0.007216613808318752,0.0011632681066777507,87,3,92000000,odom,base_footprint,-0.0165585957252903,-0.3493930370063055,-0.0010039236947443,0.00286371387674,0.002606773303293,-0.740358687904487,0.6722008755722682,"(1e-05, 0.0, 0.0, 0.0, 0.0, 0.0, 0.0, 1e-05, 0.0, 0.0, 0.0, 0.0, 0.0, 0.0, 1000000000000.0, 0.0, 0.0, 0.0, 0.0, 0.0, 0.0, 1000000000000.0, 0.0, 0.0, 0.0, 0.0, 0.0, 0.0, 1000000000000.0, 0.0, 0.0, 0.0, 0.0, 0.0, 0.0, 0.001)",0.2186376393829125,9.915555338219084e-05,0.0,0.0,0.0,0.0418503544608804,"(0.0, 0.0, 0.0, 0.0, 0.0, 0.0, 0.0, 0.0, 0.0, 0.0, 0.0, 0.0, 0.0, 0.0, 0.0, 0.0, 0.0, 0.0, 0.0, 0.0, 0.0, 0.0, 0.0, 0.0, 0.0, 0.0, 0.0, 0.0, 0.0, 0.0, 0.0, 0.0, 0.0, 0.0, 0.0, 0.0)",0.2199999988079071,0.0,0.0,0.0,0.0,-0.0351526625454425,87,3,151000000,base_footprint,0.0028596883754334,0.0026104560611261,-0.7404256766974576,0.6721270899083449,0.0,0.0,0.0,0.0,0.0,0.0,0.0,0.0,0.0,-0.0003113167027961,0.0008671211152119,-0.0449068340081161,0.0,0.0,0.0,0.0,0.0,0.0,0.0,0.0,0.0,-0.0232578490432984,0.0141259762904222,-0.0003478640959136,0.0,0.0,0.0,0.0,0.0,0.0,0.0,0.0,0.0
3.185,-1.6687359758037816,-0.0007233593843926009,-0.007428598290487587,-0.0013124670272823824,-1.6652144272654577,0.2175426838916609,-0.02050946237798971,-0.2165737317122114,-0.03301713371745057,-0.004622349768683324,-2.040543840659447,-0.0006868788430512645,-0.007211533197490264,-0.001099470552791104,89,3,158000000,odom,base_footprint,-0.0179373638034474,-0.3637537440628319,-0.0010039539058585,0.0028600740226433,0.0026099988475903,-0.7405442993795623,0.6719963902723242,"(1e-05, 0.0, 0.0, 0.0, 0.0, 0.0, 0.0, 1e-05, 0.0, 0.0, 0.0, 0.0, 0.0, 0.0, 1000000000000.0, 0.0, 0.0, 0.0, 0.0, 0.0, 0.0, 1000000000000.0, 0.0, 0.0, 0.0, 0.0, 0.0, 0.0, 1000000000000.0, 0.0, 0.0, 0.0, 0.0, 0.0, 0.0, 0.001)",0.219165388091751,6.763810461900624e-05,0.0,0.0,0.0,-0.0429294944486207,"(0.0, 0.0, 0.0, 0.0, 0.0, 0.0, 0.0, 0.0, 0.0, 0.0, 0.0, 0.0, 0.0, 0.0, 0.0, 0.0, 0.0, 0.0, 0.0, 0.0, 0.0, 0.0, 0.0, 0.0, 0.0, 0.0, 0.0, 0.0, 0.0, 0.0, 0.0, 0.0, 0.0, 0.0, 0.0, 0.0)",0.2199999988079071,0.0,0.0,0.0,0.0,-0.0351526625454425,88,3,185000000,base_footprint,0.0028618416539658,0.0026057581881873,-0.7408666002856045,0.6716410503147219,0.0,0.0,0.0,0.0,0.0,0.0,0.0,0.0,0.0,0.0001244872162656,0.0008850056625448,-0.0375749249226802,0.0,0.0,0.0,0.0,0.0,0.0,0.0,0.0,0.0,-0.0191464982069827,0.0137247457061619,0.0007712627418731,0.0,0.0,0.0,0.0,0.0,0.0,0.0,0.0,0.0
3.219,-1.6700011456007768,-0.0007344443665445004,-0.007436844312466495,-0.0012651697969952025,-1.6663138978182488,0.22405327701777442,-0.021368497221500207,-0.22303196692155655,-0.0361673159974873,0.195513307090496,-0.0946000684695715,-0.0007159909294665066,-0.0074265392444632095,-0.0012043716227163272,90,3,192000000,odom,base_footprint,-0.0186638244598224,-0.3711873857256664,-0.0010036132062365,0.0028619072558174,0.0026047172243755,-0.7409667574274159,0.6715305572515231,"(1e-05, 0.0, 0.0, 0.0, 0.0, 0.0, 0.0, 1e-05, 0.0, 0.0, 0.0, 0.0, 0.0, 0.0, 1000000000000.0, 0.0, 0.0, 0.0, 0.0, 0.0, 0.0, 1000000000000.0, 0.0, 0.0, 0.0, 0.0, 0.0, 0.0, 1000000000000.0, 0.0, 0.0, 0.0, 0.0, 0.0, 0.0, 0.001)",0.2197544263406286,2.805544919019104e-05,0.0,0.0,0.0,-0.0369843730302414,"(0.0, 0.0, 0.0, 0.0, 0.0, 0.0, 0.0, 0.0, 0.0, 0.0, 0.0, 0.0, 0.0, 0.0, 0.0, 0.0, 0.0, 0.0, 0.0, 0.0, 0.0, 0.0, 0.0, 0.0, 0.0, 0.0, 0.0, 0.0, 0.0, 0.0, 0.0, 0.0, 0.0, 0.0, 0.0, 0.0)",0.2084210515022277,6.763810233678669e-05,0.0,0.0,0.0,-0.0347243584692478,89,3,219000000,base_footprint,0.0028620639341975,0.0026013220167481,-0.7412913326833293,0.6711722594106341,0.0,0.0,0.0,0.0,0.0,0.0,0.0,0.0,0.0,-0.0001503643644406,0.0005325825403255,-0.0369389667675917,0.0,0.0,0.0,0.0,0.0,0.0,0.0,0.0,0.0,-0.004916535305884,0.0105767546572635,-0.0004704010533218,0.0,0.0,0.0,0.0,0.0,0.0,0.0,0.0,0.0
3.253,-1.6723367971248342,-0.0007490796048232988,-0.007464469844709054,-0.0023356515240573472,-1.6675182694409652,0.21759016950039883,-0.02101294494741193,-0.21657317010158325,-0.03571891821649373,-0.19408731283410155,0.013465398828635781,-0.0007039691998916324,-0.007211473674581784,-0.0011894399766092412,91,3,225000000,odom,base_footprint,-0.0193789149027144,-0.3784069341151322,-0.0010032489707047,0.0028622128713497,0.0026005240992607,-0.7413779326277516,0.6710766022031236,"(1e-05, 0.0, 0.0, 0.0, 0.0, 0.0, 0.0, 1e-05, 0.0, 0.0, 0.0, 0.0, 0.0, 0.0, 1000000000000.0, 0.0, 0.0, 0.0, 0.0, 0.0, 0.0, 1000000000000.0, 0.0, 0.0, 0.0, 0.0, 0.0, 0.0, 1000000000000.0, 0.0, 0.0, 0.0, 0.0, 0.0, 0.0, 0.001)",0.2199556200315628,4.137022937381746e-05,0.0,0.0,0.0,-0.0368944162502557,"(0.0, 0.0, 0.0, 0.0, 0.0, 0.0, 0.0, 0.0, 0.0, 0.0, 0.0, 0.0, 0.0, 0.0, 0.0, 0.0, 0.0, 0.0, 0.0, 0.0, 0.0, 0.0, 0.0, 0.0, 0.0, 0.0, 0.0, 0.0, 0.0, 0.0, 0.0, 0.0, 0.0, 0.0, 0.0, 0.0)",0.2084210515022277,6.763810233678669e-05,0.0,0.0,0.0,-0.0347243584692478,90,3,253000000,base_footprint,0.0028630080450649,0.0025964144686623,-0.7420746461126297,0.6703061102314795,0.0,0.0,0.0,0.0,0.0,0.0,0.0,0.0,0.0,7.920442392824698e-05,0.0008573863233856,-0.0789367263604113,0.0,0.0,0.0,0.0,0.0,0.0,0.0,0.0,0.0,-0.0281018553005674,0.0204990994854439,0.0002785942182715,0.0,0.0,0.0,0.0,0.0,0.0,0.0,0.0,0.0
