Time,header.seq,header.stamp.secs,header.stamp.nsecs,header.frame_id,orientation.x,orientation.y,orientation.z,orientation.w,orientation_covariance_0,orientation_covariance_1,orientation_covariance_2,orientation_covariance_3,orientation_covariance_4,orientation_covariance_5,orientation_covariance_6,orientation_covariance_7,orientation_covariance_8,angular_velocity.x,angular_velocity.y,angular_velocity.z,angular_velocity_covariance_0,angular_velocity_covariance_1,angular_velocity_covariance_2,angular_velocity_covariance_3,angular_velocity_covariance_4,angular_velocity_covariance_5,angular_velocity_covariance_6,angular_velocity_covariance_7,angular_velocity_covariance_8,linear_acceleration.x,linear_acceleration.y,linear_acceleration.z,linear_acceleration_covariance_0,linear_acceleration_covariance_1,linear_acceleration_covariance_2,linear_acceleration_covariance_3,linear_acceleration_covariance_4,linear_acceleration_covariance_5,linear_acceleration_covariance_6,linear_acceleration_covariance_7,linear_acceleration_covariance_8
0.231,0,0,231000000,base_footprint,-0.00033147925340019127,-0.0007419868734379764,-0.38258269279141843,0.923920896372331,0.0,0.0,0.0,0.0,0.0,0.0,0.0,0.0,0.0,0.047654373546029874,0.00047431283856450707,-0.0002622099334089051,0.0,0.0,0.0,0.0,0.0,0.0,0.0,0.0,0.0,7.554339672656141e-05,-0.0003190432588856434,-0.06169219832268388,0.0,0.0,0.0,0.0,0.0,0.0,0.0,0.0,0.0
0.265,1,0,265000000,base_footprint,-2.7899116673494354e-05,1.1847944332172037e-05,-0.38258738552128163,0.9239193100705579,0.0,0.0,0.0,0.0,0.0,0.0,0.0,0.0,0.0,0.047628425179800774,0.0004736916449502755,-0.00032078750383422196,0.0,0.0,0.0,0.0,0.0,0.0,0.0,0.0,0.0,1.856104153762823e-05,0.0001859875057799157,7.284540821260506e-05,0.0,0.0,0.0,0.0,0.0,0.0,0.0,0.0,0.0
0.29900000000000004,2,0,299000000,base_footprint,0.0003994943929736538,0.0010742384705502799,-0.38259035494423765,0.9239173700713613,0.0,0.0,0.0,0.0,0.0,0.0,0.0,0.0,0.0,0.06777831352539719,0.0006479508272791354,-0.0003551480964667709,0.0,0.0,0.0,0.0,0.0,0.0,0.0,0.0,0.0,1.8221227431151454e-05,0.0010200416654276379,0.0029948489841328373,0.0,0.0,0.0,0.0,0.0,0.0,0.0,0.0,0.0
0.333,3,0,333000000,base_footprint,0.0008310180246453535,0.002144542155156595,-0.3825930980741391,0.9239140823983688,0.0,0.0,0.0,0.0,0.0,0.0,0.0,0.0,0.0,0.06770118100030263,0.0006479561862188718,-0.0004757442016372138,0.0,0.0,0.0,0.0,0.0,0.0,0.0,0.0,0.0,1.3417229948197579e-05,0.0002631510178629105,0.0001519066042761913,0.0,0.0,0.0,0.0,0.0,0.0,0.0,0.0,0.0
0.36700000000000005,4,0,367000000,base_footprint,0.0012620430814107202,0.0032136463790828048,-0.38259551718121904,0.9239094922972956,0.0,0.0,0.0,0.0,0.0,0.0,0.0,0.0,0.0,0.06762408337149832,0.0006485426887073396,-0.000598202534215066,0.0,0.0,0.0,0.0,0.0,0.0,0.0,0.0,0.0,2.7165446110278575e-06,0.00026778904943269534,0.00015251222869855794,0.0,0.0,0.0,0.0,0.0,0.0,0.0,0.0,0.0
0.401,5,0,401000000,base_footprint,0.0014649607958164895,0.0035565606937484717,-0.3826013794782363,0.9239055087979773,0.0,0.0,0.0,0.0,0.0,0.0,0.0,0.0,0.0,0.007173131823557586,-0.0007228058308557108,-0.00039517839592795924,0.0,0.0,0.0,0.0,0.0,0.0,0.0,0.0,0.0,-0.003557785972928971,0.0017241108698063425,0.12402435690209052,0.0,0.0,0.0,0.0,0.0,0.0,0.0,0.0,0.0
0.43500000000000005,6,0,435000000,base_footprint,0.0014707241346844536,0.003570191168113042,-0.3826044630413952,0.9239041701206618,0.0,0.0,0.0,0.0,0.0,0.0,0.0,0.0,0.0,-0.00024092319188221464,-2.4594570515611928e-05,0.00014526819159885472,0.0,0.0,0.0,0.0,0.0,0.0,0.0,0.0,0.0,0.004494462751433656,-0.0036142837020694046,0.008014608636015256,0.0,0.0,0.0,0.0,0.0,0.0,0.0,0.0,0.0
0.46900000000000003,7,0,469000000,base_footprint,0.0014704561492107752,0.00356968785744585,-0.38260110005734066,0.9239055651538346,0.0,0.0,0.0,0.0,0.0,0.0,0.0,0.0,0.0,-0.00018383806143195148,-3.3954108145717805e-05,0.0002891680713825944,0.0,0.0,0.0,0.0,0.0,0.0,0.0,0.0,0.0,0.00027962068648629436,4.204562398399526e-05,-8.07675288880016e-05,0.0,0.0,0.0,0.0,0.0,0.0,0.0,0.0,0.0
0.503,8,0,503000000,base_footprint,0.0014703925966161535,0.003569644640362468,-0.3825964903423493,0.9239074743503648,0.0,0.0,0.0,0.0,0.0,0.0,0.0,0.0,0.0,-0.00017619988089860686,-3.441997358600505e-05,0.00032630618412353164,0.0,0.0,0.0,0.0,0.0,0.0,0.0,0.0,0.0,7.19457970360807e-05,9.5578274019953e-06,-1.1950495341351565e-05,0.0,0.0,0.0,0.0,0.0,0.0,0.0,0.0,0.0
0.537,9,0,537000000,base_footprint,0.001470355902130053,0.003569641456057038,-0.3825915750877644,0.9239095098467488,0.0,0.0,0.0,0.0,0.0,0.0,0.0,0.0,0.0,-0.00017469899701351256,-3.469974608453044e-05,0.00033540308807700263,0.0,0.0,0.0,0.0,0.0,0.0,0.0,0.0,0.0,1.7626485104295414e-05,2.2975871468045835e-06,-2.4270538638949374e-06,0.0,0.0,0.0,0.0,0.0,0.0,0.0,0.0,0.0
0.5710000000000001,10,0,571000000,base_footprint,0.0014703270547978934,0.003569649075080691,-0.38258658458541817,0.9239115764179479,0.0,0.0,0.0,0.0,0.0,0.0,0.0,0.0,0.0,-0.0001743133411346515,-3.480278351307369e-05,0.0003376528580911358,0.0,0.0,0.0,0.0,0.0,0.0,0.0,0.0,0.0,4.35994486478895e-06,5.68471450590121e-07,-5.868314531984432e-07,0.0,0.0,0.0,0.0,0.0,0.0,0.0,0.0,0.0
0.605,11,0,605000000,base_footprint,0.0014703006326373075,0.0035696591147940117,-0.3825815754266861,0.9239136506697413,0.0,0.0,0.0,0.0,0.0,0.0,0.0,0.0,0.0,-0.00017421959442969184,-3.486451322958901e-05,0.0003382165196179139,0.0,0.0,0.0,0.0,0.0,0.0,0.0,0.0,0.0,1.0940340460042856e-06,1.5986591548838402e-07,-1.4619509930839091e-07,0.0,0.0,0.0,0.0,0.0,0.0,0.0,0.0,0.0
0.639,12,0,639000000,base_footprint,0.0014702752577042159,0.003569669568143194,-0.3825765615308224,0.9239157268480139,0.0,0.0,0.0,0.0,0.0,0.0,0.0,0.0,0.0,-0.00017419731747372603,-3.4913236739728694e-05,0.00033836544928361013,0.0,0.0,0.0,0.0,0.0,0.0,0.0,0.0,0.0,2.905993866574943e-07,5.9299458633529546e-08,-3.891622348809993e-08,0.0,0.0,0.0,0.0,0.0,0.0,0.0,0.0,0.0
0.673,13,0,673000000,base_footprint,0.0014702505490362338,0.003569679958148086,-0.3825715463216983,0.9239178035373841,0.0,0.0,0.0,0.0,0.0,0.0,0.0,0.0,0.0,-0.00017419264257769314,-3.4956214212861915e-05,0.00033841239082953856,0.0,0.0,0.0,0.0,0.0,0.0,0.0,0.0,0.0,9.291419921198679e-08,3.451190586607634e-08,-1.3172906137989858e-08,0.0,0.0,0.0,0.0,0.0,0.0,0.0,0.0,0.0
0.7070000000000001,14,0,707000000,base_footprint,0.0014702263749341133,0.0035696901828285756,-0.3825665306415047,0.9239198803897056,0.0,0.0,0.0,0.0,0.0,0.0,0.0,0.0,0.0,-0.00017419231030489844,-3.499546762129374e-05,0.00033843427070124276,0.0,0.0,0.0,0.0,0.0,0.0,0.0,0.0,0.0,4.42366947104641e-08,2.8372462791726374e-08,-7.432908912833861e-09,0.0,0.0,0.0,0.0,0.0,0.0,0.0,0.0,0.0
0.741,15,0,741000000,base_footprint,0.0014702026685373079,0.003569700231018604,-0.38256151469738936,0.9239219573193471,0.0,0.0,0.0,0.0,0.0,0.0,0.0,0.0,0.0,-0.00017419305817287196,-3.503170877859303e-05,0.00033845000874810935,0.0,0.0,0.0,0.0,0.0,0.0,0.0,0.0,0.0,3.221639567343031e-08,2.6824902382780574e-08,-6.558342285720629e-09,0.0,0.0,0.0,0.0,0.0,0.0,0.0,0.0,0.0
0.775,16,0,775000000,base_footprint,0.0014701793821335603,0.00356971011259743,-0.3825564985402944,0.9239240343052487,0.0,0.0,0.0,0.0,0.0,0.0,0.0,0.0,0.0,-0.00017419408255879752,-3.50653075479108e-05,0.0003384642568643,0.0,0.0,0.0,0.0,0.0,0.0,0.0,0.0,0.0,2.9217544196554274e-08,2.641075215989612e-08,-6.830868044532308e-09,0.0,0.0,0.0,0.0,0.0,0.0,0.0,0.0,0.0
0.809,17,0,809000000,base_footprint,0.0014701564756231173,0.0035697198414486155,-0.38255148218273904,0.9239261113422331,0.0,0.0,0.0,0.0,0.0,0.0,0.0,0.0,0.0,-0.00017419518488746843,-3.509653134133727e-05,0.0003384781573016879,0.0,0.0,0.0,0.0,0.0,0.0,0.0,0.0,0.0,2.8441501200213972e-08,2.6278726514664626e-08,-7.3402554593834685e-09,0.0,0.0,0.0,0.0,0.0,0.0,0.0,0.0,0.0
0.8430000000000001,18,0,843000000,base_footprint,0.0014701339134120764,0.0035697294313771725,-0.38254646562779265,0.9239281884290291,0.0,0.0,0.0,0.0,0.0,0.0,0.0,0.0,0.0,-0.00017419631545507346,-3.512560613675238e-05,0.0003384919893070037,0.0,0.0,0.0,0.0,0.0,0.0,0.0,0.0,0.0,2.821581214651774e-08,2.6219106559883635e-08,-7.86704099531301e-09,0.0,0.0,0.0,0.0,0.0,0.0,0.0,0.0,0.0
0.877,19,0,877000000,base_footprint,0.001470111663403361,0.003569738895204119,-0.3825414488762,0.9239302655653265,0.0,0.0,0.0,0.0,0.0,0.0,0.0,0.0,0.0,-0.00017419746112785225,-3.5152733000557365e-05,0.00033850582004854015,0.0,0.0,0.0,0.0,0.0,0.0,0.0,0.0,0.0,2.812884563938421e-08,2.618001981534893e-08,-8.360926993707243e-09,0.0,0.0,0.0,0.0,0.0,0.0,0.0,0.0,0.0
0.911,20,0,911000000,base_footprint,0.0014700896965272041,0.0035697482446331408,-0.3825364319281347,0.9239323427510511,0.0,0.0,0.0,0.0,0.0,0.0,0.0,0.0,0.0,-0.00017419861809797694,-3.517809303624714e-05,0.00033851966464130213,0.0,0.0,0.0,0.0,0.0,0.0,0.0,0.0,0.0,2.8078970022403667e-08,2.6148436515509523e-08,-8.812823347199732e-09,0.0,0.0,0.0,0.0,0.0,0.0,0.0,0.0,0.0
0.9450000000000001,21,0,945000000,base_footprint,0.0014700679864243138,0.0035697574902994267,-0.38253141478363023,0.9239344199861862,0.0,0.0,0.0,0.0,0.0,0.0,0.0,0.0,0.0,-0.00017419978452714677,-3.5201850504599884e-05,0.00033853352552816484,0.0,0.0,0.0,0.0,0.0,0.0,0.0,0.0,0.0,2.8040924108708227e-08,2.612092706084663e-08,-9.224215533613136e-09,0.0,0.0,0.0,0.0,0.0,0.0,0.0,0.0,0.0
0.9790000000000001,22,0,979000000,base_footprint,0.0014700465091852463,0.0035697666418551175,-0.3825263974426854,0.9239364972707291,0.0,0.0,0.0,0.0,0.0,0.0,0.0,0.0,0.0,-0.0001742009595823629,-3.522415414139584e-05,0.00033854740213208124,0.0,0.0,0.0,0.0,0.0,0.0,0.0,0.0,0.0,2.8008190814825118e-08,2.6096403234126217e-08,-9.597240794939857e-09,0.0,0.0,0.0,0.0,0.0,0.0,0.0,0.0,0.0
1.013,23,1,13000000,base_footprint,0.0014700252431211257,0.003569775708057189,-0.3825213799052913,0.9239385746046817,0.0,0.0,0.0,0.0,0.0,0.0,0.0,0.0,0.0,-0.00017420214232737404,-3.524513912357591e-05,0.0003385612932874125,0.0,0.0,0.0,0.0,0.0,0.0,0.0,0.0,0.0,2.7979040796094048e-08,2.607444495826112e-08,-9.936313264336372e-09,0.0,0.0,0.0,0.0,0.0,0.0,0.0,0.0,0.0
1.047,24,1,47000000,base_footprint,0.001470004168556683,0.0035697846968497354,-0.38251636217143664,0.9239406519880446,0.0,0.0,0.0,0.0,0.0,0.0,0.0,0.0,0.0,-0.00017420333206454453,-3.5264927836548044e-05,0.00033857519774978885,0.0,0.0,0.0,0.0,0.0,0.0,0.0,0.0,0.0,2.7952771730954105e-08,2.605475439827789e-08,-1.0243820526820414e-08,0.0,0.0,0.0,0.0,0.0,0.0,0.0,0.0,0.0
1.081,25,1,81000000,base_footprint,0.0014699832676433287,0.0035697936154394233,-0.3825113442411107,0.9239427294208201,0.0,0.0,0.0,0.0,0.0,0.0,0.0,0.0,0.0,-0.00017420452819643067,-3.5283631374871826e-05,0.00033858911436750026,0.0,0.0,0.0,0.0,0.0,0.0,0.0,0.0,0.0,2.79290723012127e-08,2.6037108635387285e-08,-1.0522905874392464e-08,0.0,0.0,0.0,0.0,0.0,0.0,0.0,0.0,0.0
1.115,26,1,115000000,base_footprint,0.0014699625241895067,0.0035698024703637826,-0.3825063261143026,0.9239448069030092,0.0,0.0,0.0,0.0,0.0,0.0,0.0,0.0,0.0,-0.00017420573015787324,-3.5301350688747694e-05,0.0003386030420392477,0.0,0.0,0.0,0.0,0.0,0.0,0.0,0.0,0.0,2.7907600998447186e-08,2.6021291590470164e-08,-1.077606591630785e-08,0.0,0.0,0.0,0.0,0.0,0.0,0.0,0.0,0.0
1.149,27,1,149000000,base_footprint,0.001469941923506924,0.0035698112675533454,-0.38250130779100144,0.9239468844346135,0.0,0.0,0.0,0.0,0.0,0.0,0.0,0.0,0.0,-0.00017420693738704862,-3.531817701337374e-05,0.00033861697979562096,0.0,0.0,0.0,0.0,0.0,0.0,0.0,0.0,0.0,2.7888192942174933e-08,2.600714196708438e-08,-1.1006063915927121e-08,0.0,0.0,0.0,0.0,0.0,0.0,0.0,0.0,0.0
1.183,28,1,183000000,base_footprint,0.0014699214522708257,0.003569820012387949,-0.3824962892711967,0.9239489620156346,0.0,0.0,0.0,0.0,0.0,0.0,0.0,0.0,0.0,-0.00017420814943613553,-3.533419337250983e-05,0.0003386309268000191,0.0,0.0,0.0,0.0,0.0,0.0,0.0,0.0,0.0,2.787075252798845e-08,2.5994509432585968e-08,-1.1214390139572354e-08,0.0,0.0,0.0,0.0,0.0,0.0,0.0,0.0,0.0
1.217,29,1,217000000,base_footprint,0.0014699010983935553,0.003569828709747984,-0.3824912705548776,0.9239510396460732,0.0,0.0,0.0,0.0,0.0,0.0,0.0,0.0,0.0,-0.00017420936578231406,-3.534947508966953e-05,0.0003386448821933543,0.0,0.0,0.0,0.0,0.0,0.0,0.0,0.0,0.0,2.785489904097906e-08,2.598322278389122e-08,-1.1403833533548656e-08,0.0,0.0,0.0,0.0,0.0,0.0,0.0,0.0,0.0
1.251,30,1,251000000,base_footprint,0.001469880850909465,0.0035698373640605284,-0.38248625164203387,0.9239531173259307,0.0,0.0,0.0,0.0,0.0,0.0,0.0,0.0,0.0,-0.0001742105860968475,-3.536409031523103e-05,0.0003386588453066623,0.0,0.0,0.0,0.0,0.0,0.0,0.0,0.0,0.0,2.784069277041521e-08,2.5973183650930095e-08,-1.1575761829207586e-08,0.0,0.0,0.0,0.0,0.0,0.0,0.0,0.0,0.0
1.2850000000000001,31,1,285000000,base_footprint,0.001468034580622215,0.0035655003912616924,-0.38257826191625893,0.9239150424095088,0.0,0.0,0.0,0.0,0.0,0.0,0.0,0.0,0.0,-0.0003996887584477796,3.186155777693393e-05,-0.014003472807468685,0.0,0.0,0.0,0.0,0.0,0.0,0.0,0.0,0.0,0.00038587066884682164,-0.615068289078224,-0.0031999163539057807,0.0,0.0,0.0,0.0,0.0,0.0,0.0,0.0,0.0
1.319,32,1,319000000,base_footprint,0.001469548320525065,0.003565338464144683,-0.38294040635447163,0.9237649993209539,0.0,0.0,0.0,0.0,0.0,0.0,0.0,0.0,0.0,-0.0003540876249748541,0.00012855926395646306,-0.031418027328826086,0.0,0.0,0.0,0.0,0.0,0.0,0.0,0.0,0.0,-0.001157316362553451,-0.7489408307339863,-0.004246140125807489,0.0,0.0,0.0,0.0,0.0,0.0,0.0,0.0,0.0
1.353,33,1,353000000,base_footprint,0.0014722361849877003,0.003565074610544322,-0.38357630168559087,0.9235011334854125,0.0,0.0,0.0,0.0,0.0,0.0,0.0,0.0,0.0,-0.0003857526113747107,0.0002253743077173567,-0.048856541741514624,0.0,0.0,0.0,0.0,0.0,0.0,0.0,0.0,0.0,-0.004699206530598521,-0.7485854372797385,-0.00413803897098459,0.0,0.0,0.0,0.0,0.0,0.0,0.0,0.0,0.0
1.387,34,1,387000000,base_footprint,0.0014761167203908602,0.003564740056601721,-0.38448511950051906,0.923123126451953,0.0,0.0,0.0,0.0,0.0,0.0,0.0,0.0,0.0,-0.0004296016937857407,0.00032135773033254995,-0.06617271741281085,0.0,0.0,0.0,0.0,0.0,0.0,0.0,0.0,0.0,-0.009889585778516174,-0.7384509426264616,-0.00404740685364611,0.0,0.0,0.0,0.0,0.0,0.0,0.0,0.0,0.0
1.421,35,1,421000000,base_footprint,0.001481193771257945,0.0035643503895901167,-0.38566226495190475,0.9226319520065838,0.0,0.0,0.0,0.0,0.0,0.0,0.0,0.0,0.0,-0.0004966098444574126,0.0004141660503057846,-0.08305440198779582,0.0,0.0,0.0,0.0,0.0,0.0,0.0,0.0,0.0,-0.01648071771944959,-0.7081727802955792,-0.003826448832007581,0.0,0.0,0.0,0.0,0.0,0.0,0.0,0.0,0.0
1.455,36,1,455000000,base_footprint,0.0014874944962789843,0.003564022810423269,-0.3870964584934672,0.922031136634412,0.0,0.0,0.0,0.0,0.0,0.0,0.0,0.0,0.0,-0.0005409394381391747,0.00050071509575866,-0.09895348725460433,0.0,0.0,0.0,0.0,0.0,0.0,0.0,0.0,0.0,-0.0236503917905323,-0.6439599617006111,-0.003461335652664893,0.0,0.0,0.0,0.0,0.0,0.0,0.0,0.0,0.0
1.489,37,1,489000000,base_footprint,0.0014946896863785118,0.003563545798375532,-0.3887575287160888,0.9213319982018663,0.0,0.0,0.0,0.0,0.0,0.0,0.0,0.0,0.0,-0.0006603618886157166,0.0005811991583025063,-0.11188774058947179,0.0,0.0,0.0,0.0,0.0,0.0,0.0,0.0,0.0,-0.02939419350964964,-0.5402583802267371,-0.002757672710325706,0.0,0.0,0.0,0.0,0.0,0.0,0.0,0.0,0.0
1.5230000000000001,38,1,523000000,base_footprint,0.0015025491012326817,0.0035627342683106937,-0.3905778834080619,0.9205617666746814,0.0,0.0,0.0,0.0,0.0,0.0,0.0,0.0,0.0,-0.0007201657695825217,0.0006216809622843213,-0.11941659829246393,0.0,0.0,0.0,0.0,0.0,0.0,0.0,0.0,0.0,-0.03241407372764411,-0.3964793919279726,-0.0019825897019195918,0.0,0.0,0.0,0.0,0.0,0.0,0.0,0.0,0.0
1.557,39,1,557000000,base_footprint,0.0015101998734118537,0.003560176733607246,-0.39246399706897556,0.9197592377587795,0.0,0.0,0.0,0.0,0.0,0.0,0.0,0.0,0.0,-0.0009484675196595048,0.0006216892200071745,-0.12057231583987629,0.0,0.0,0.0,0.0,0.0,0.0,0.0,0.0,0.0,-0.034217457390792384,-0.22231272265359373,-0.0006083386465140621,0.0,0.0,0.0,0.0,0.0,0.0,0.0,0.0,0.0
1.5910000000000002,40,1,591000000,base_footprint,0.001516662162524207,0.0035509161165896024,-0.3943117171362227,0.9189686395409266,0.0,0.0,0.0,0.0,0.0,0.0,0.0,0.0,0.0,-0.0017844004230977756,0.00034427136782424995,-0.11476102993922283,0.0,0.0,0.0,0.0,0.0,0.0,0.0,0.0,0.0,-0.03099375204417611,-0.021403905798371217,0.0016300301066562409,0.0,0.0,0.0,0.0,0.0,0.0,0.0,0.0,0.0
1.625,41,1,625000000,base_footprint,0.0015188799456612861,0.0035394679192968055,-0.39625548891736667,0.9181322087114785,0.0,0.0,0.0,0.0,0.0,0.0,0.0,0.0,0.0,-0.0004078062836390804,0.0007253828205065359,-0.13568267070424644,0.0,0.0,0.0,0.0,0.0,0.0,0.0,0.0,0.0,-0.005254414603175034,-0.010986205763583818,-0.0027883404270688922,0.0,0.0,0.0,0.0,0.0,0.0,0.0,0.0,0.0
1.659,42,1,659000000,base_footprint,0.0015279969827524007,0.003537768370266133,-0.39858133930134276,0.9171248908305383,0.0,0.0,0.0,0.0,0.0,0.0,0.0,0.0,0.0,-0.0009804637540858786,0.0009058676907632256,-0.16250843201280943,0.0,0.0,0.0,0.0,0.0,0.0,0.0,0.0,0.0,-0.04248281558670185,-0.18403695530732259,-0.00016848655634748558,0.0,0.0,0.0,0.0,0.0,0.0,0.0,0.0,0.0
1.693,43,1,693000000,base_footprint,0.0015383515745398695,0.003533327091952194,-0.4013477162947863,0.9159176598903714,0.0,0.0,0.0,0.0,0.0,0.0,0.0,0.0,0.0,-0.0012740464052930485,0.0010293237706711362,-0.1918362796774682,0.0,0.0,0.0,0.0,0.0,0.0,0.0,0.0,0.0,-0.06288512965287155,-0.34089232299859856,-0.0012852072634213893,0.0,0.0,0.0,0.0,0.0,0.0,0.0,0.0,0.0
1.727,44,1,727000000,base_footprint,0.0015474755103319616,0.0035388195802785053,-0.40408861377492883,0.9147116891638477,0.0,0.0,0.0,0.0,0.0,0.0,0.0,0.0,0.0,-0.0009840896642016534,0.0005802357905541422,-0.12634845721466323,0.0,0.0,0.0,0.0,0.0,0.0,0.0,0.0,0.0,-0.06742171597627186,-0.3191470861412311,-0.0012709986598075501,0.0,0.0,0.0,0.0,0.0,0.0,0.0,0.0,0.0
1.7610000000000001,45,1,761000000,base_footprint,0.0015569451744837765,0.003537378577860066,-0.4050612164282026,0.9142813975031021,0.0,0.0,0.0,0.0,0.0,0.0,0.0,0.0,0.0,-0.0017351452941454801,0.0007053317023942415,-0.033981759761103125,0.0,0.0,0.0,0.0,0.0,0.0,0.0,0.0,0.0,-0.03525415927117926,-0.21475206038920427,0.000525599627397935,0.0,0.0,0.0,0.0,0.0,0.0,0.0,0.0,0.0
1.795,46,1,795000000,base_footprint,0.0015580720495543586,0.003533718600325804,-0.4055958475123466,0.9140443609175012,0.0,0.0,0.0,0.0,0.0,0.0,0.0,0.0,0.0,-0.000444115096850642,0.0001722554325581036,-0.034498042850348604,0.0,0.0,0.0,0.0,0.0,0.0,0.0,0.0,0.0,-0.007333746659387779,-0.0036904031317256643,-0.0016998217777674553,0.0,0.0,0.0,0.0,0.0,0.0,0.0,0.0,0.0
1.8290000000000002,47,1,829000000,base_footprint,0.001559924261936619,0.0035324337762011153,-0.40613455014108335,0.9138051300630861,0.0,0.0,0.0,0.0,0.0,0.0,0.0,0.0,0.0,-0.00036425788169971085,0.0001816476219694416,-0.03486335917511907,0.0,0.0,0.0,0.0,0.0,0.0,0.0,0.0,0.0,-0.008237432822344154,-0.004976677532888522,-0.00014869739310436806,0.0,0.0,0.0,0.0,0.0,0.0,0.0,0.0,0.0
1.863,48,1,863000000,base_footprint,0.0015630495638940798,0.0035309970192539623,-0.4067929631418238,0.9135122188971562,0.0,0.0,0.0,0.0,0.0,0.0,0.0,0.0,0.0,-0.0016438250648352008,-0.0004031736950411148,-0.09202604507413925,0.0,0.0,0.0,0.0,0.0,0.0,0.0,0.0,0.0,-0.010752432525350485,-0.017254998644798177,0.00168818681867794,0.0,0.0,0.0,0.0,0.0,0.0,0.0,0.0,0.0
1.897,49,1,897000000,base_footprint,0.0015688440268147369,0.0035330232459310543,-0.408248890615198,0.9128624758344618,0.0,0.0,0.0,0.0,0.0,0.0,0.0,0.0,0.0,-0.0004734468328858293,0.0005535099997465682,-0.09366128836265321,0.0,0.0,0.0,0.0,0.0,0.0,0.0,0.0,0.0,-0.02159212731932257,-0.0058307895543610105,-0.0020658035870757797,0.0,0.0,0.0,0.0,0.0,0.0,0.0,0.0,0.0
1.931,50,1,931000000,base_footprint,0.0015753556961410104,0.003535427809333773,-0.40970367780497047,0.9122104556502939,0.0,0.0,0.0,0.0,0.0,0.0,0.0,0.0,0.0,-0.0003307927832133891,0.0005903461916538321,-0.09386569249459178,0.0,0.0,0.0,0.0,0.0,0.0,0.0,0.0,0.0,-0.021354422048212206,-0.0022588384456827667,-0.00024243981074249782,0.0,0.0,0.0,0.0,0.0,0.0,0.0,0.0,0.0
1.965,51,1,965000000,base_footprint,0.0015785407357107413,0.003522401161873688,-0.41117200816750665,0.9115496040253106,0.0,0.0,0.0,0.0,0.0,0.0,0.0,0.0,0.0,-0.004951014390897434,0.0016016682985832995,-0.10182264342547521,0.0,0.0,0.0,0.0,0.0,0.0,0.0,0.0,0.0,-0.005040290300553883,0.13225183775807314,0.008221163052131204,0.0,0.0,0.0,0.0,0.0,0.0,0.0,0.0,0.0
1.999,52,1,999000000,base_footprint,0.0015886544387920434,0.003537660310515273,-0.4122625248076812,0.9110568433285585,0.0,0.0,0.0,0.0,0.0,0.0,0.0,0.0,0.0,-0.0010881878212953694,5.361962159637309e-05,-0.049890416105362156,0.0,0.0,0.0,0.0,0.0,0.0,0.0,0.0,0.0,0.015119426365998265,0.232042198304811,-0.004602266372027301,0.0,0.0,0.0,0.0,0.0,0.0,0.0,0.0,0.0
2.033,53,2,33000000,base_footprint,0.0015928461261176133,0.0035341693657454896,-0.4130662851156687,0.9106927124935468,0.0,0.0,0.0,0.0,0.0,0.0,0.0,0.0,0.0,-0.0005192525570823012,0.00024809730938668404,-0.0504820703241311,0.0,0.0,0.0,0.0,0.0,0.0,0.0,0.0,0.0,-0.01493203105265375,0.0026462723188677593,-0.0008649983338170817,0.0,0.0,0.0,0.0,0.0,0.0,0.0,0.0,0.0
2.067,54,2,67000000,base_footprint,0.0015938033776558432,0.003523710766630333,-0.4137477104411466,0.9103833672458739,0.0,0.0,0.0,0.0,0.0,0.0,0.0,0.0,0.0,-0.001136576596932834,0.0015485458910473953,-0.03369954241195388,0.0,0.0,0.0,0.0,0.0,0.0,0.0,0.0,0.0,-0.001200120685583268,0.033278702504166834,0.00039650818994890644,0.0,0.0,0.0,0.0,0.0,0.0,0.0,0.0,0.0
2.101,55,2,101000000,base_footprint,0.0015891081267254126,0.003513141227642693,-0.4145189311511889,0.9100325204581166,0.0,0.0,0.0,0.0,0.0,0.0,0.0,0.0,0.0,-0.0013247501699721422,0.003268659271200484,-0.07233746058711685,0.0,0.0,0.0,0.0,0.0,0.0,0.0,0.0,0.0,-0.0071762158974475136,-0.022576767560440553,0.004291785766617515,0.0,0.0,0.0,0.0,0.0,0.0,0.0,0.0,0.0
2.135,56,2,135000000,base_footprint,0.0015891949680949975,0.0035230505256183373,-0.4159023990955367,0.9094010429952916,0.0,0.0,0.0,0.0,0.0,0.0,0.0,0.0,0.0,-0.0008911007856939764,0.00043678173345287614,-0.08649916434259163,0.0,0.0,0.0,0.0,0.0,0.0,0.0,0.0,0.0,-0.040151740182499784,-0.1216321617427168,-0.004710356756793954,0.0,0.0,0.0,0.0,0.0,0.0,0.0,0.0,0.0
2.169,57,2,169000000,base_footprint,0.0016016588625335664,0.0035192144971797016,-0.416767714172886,0.9090047976998353,0.0,0.0,0.0,0.0,0.0,0.0,0.0,0.0,0.0,-0.00022723366846450909,0.00035394751497488464,-0.02950110282692112,0.0,0.0,0.0,0.0,0.0,0.0,0.0,0.0,0.0,0.007603425508383818,0.14604148537272382,0.0001880561927655028,0.0,0.0,0.0,0.0,0.0,0.0,0.0,0.0,0.0
2.203,58,2,203000000,base_footprint,0.0015957221045189937,0.0035182544326004387,-0.4168846125627651,0.9089512062619786,0.0,0.0,0.0,0.0,0.0,0.0,0.0,0.0,0.0,0.00150641700867035,-0.0018225563748137876,0.017415437853211726,0.0,0.0,0.0,0.0,0.0,0.0,0.0,0.0,0.0,0.05278150876778316,0.3608740344425322,-0.0017854913203976437,0.0,0.0,0.0,0.0,0.0,0.0,0.0,0.0,0.0
2.237,59,2,237000000,base_footprint,0.0016002784171112157,0.003517944532500155,-0.41650913760090613,0.9091233147764958,0.0,0.0,0.0,0.0,0.0,0.0,0.0,0.0,0.0,-0.00016546862586251247,-0.00022705295952592526,0.02426563667265383,0.0,0.0,0.0,0.0,0.0,0.0,0.0,0.0,0.0,0.001872325485153749,-0.01621615067036846,0.004056164506141012,0.0,0.0,0.0,0.0,0.0,0.0,0.0,0.0,0.0
2.271,60,2,271000000,base_footprint,0.0015941692638302832,0.003509298030443847,-0.4161771655312763,0.9092753765180517,0.0,0.0,0.0,0.0,0.0,0.0,0.0,0.0,0.0,-0.00102007587658318,6.973254089852733e-05,0.011990416222829918,0.0,0.0,0.0,0.0,0.0,0.0,0.0,0.0,0.0,-0.03653800720161712,-0.2788482389854168,-0.0005957412033141939,0.0,0.0,0.0,0.0,0.0,0.0,0.0,0.0,0.0
2.305,61,2,305000000,base_footprint,0.0015987644124464443,0.003515355813275713,-0.4164580120761353,0.9091467485524288,0.0,0.0,0.0,0.0,0.0,0.0,0.0,0.0,0.0,-0.0005120283897572836,0.0003210424038765364,-0.04612123037337248,0.0,0.0,0.0,0.0,0.0,0.0,0.0,0.0,0.0,-0.0655093759169546,-0.42681722560845164,-0.0030875102019661486,0.0,0.0,0.0,0.0,0.0,0.0,0.0,0.0,0.0
2.339,62,2,339000000,base_footprint,0.00160136863615981,0.003514484362135277,-0.4171673515800365,0.9088214812568295,0.0,0.0,0.0,0.0,0.0,0.0,0.0,0.0,0.0,-0.000361399934145038,0.0002668580583322644,-0.0460222778454628,0.0,0.0,0.0,0.0,0.0,0.0,0.0,0.0,0.0,-0.01200947462788008,-0.0016893879151261022,-0.0001132184010498325,0.0,0.0,0.0,0.0,0.0,0.0,0.0,0.0,0.0
2.373,63,2,373000000,base_footprint,0.0016023930993576134,0.0035165833266050084,-0.41740324627961833,0.9087131538463051,0.0,0.0,0.0,0.0,0.0,0.0,0.0,0.0,0.0,-0.000671868139588307,-0.0002934014947408802,0.02981571788355523,0.0,0.0,0.0,0.0,0.0,0.0,0.0,0.0,0.0,-0.004213340200391941,0.015644067603068697,0.001114282607117621,0.0,0.0,0.0,0.0,0.0,0.0,0.0,0.0,0.0
2.407,64,2,407000000,base_footprint,0.0016016484322142793,0.0035206633024607663,-0.4169540435077644,0.9089193392456426,0.0,0.0,0.0,0.0,0.0,0.0,0.0,0.0,0.0,0.00023280546218475522,-0.00015378842294787158,0.028934758677189927,0.0,0.0,0.0,0.0,0.0,0.0,0.0,0.0,0.0,0.0074266801725410845,-0.006870603743088427,-0.0015527381629158463,0.0,0.0,0.0,0.0,0.0,0.0,0.0,0.0,0.0
2.441,65,2,441000000,base_footprint,0.0016016794733688866,0.0035257956530898907,-0.41650599647754255,0.9091247209740403,0.0,0.0,0.0,0.0,0.0,0.0,0.0,0.0,0.0,-2.8706102516272306e-05,-0.0002677992724661207,0.028809333115566563,0.0,0.0,0.0,0.0,0.0,0.0,0.0,0.0,0.0,0.0044223418138920716,-0.005106337170813104,0.00011043797596499548,0.0,0.0,0.0,0.0,0.0,0.0,0.0,0.0,0.0
2.475,66,2,475000000,base_footprint,0.0015926417586077173,0.003529831267472949,-0.4161829099794257,0.9092726704484795,0.0,0.0,0.0,0.0,0.0,0.0,0.0,0.0,0.0,-0.0008691051683239595,0.001001683158188904,-0.0075492757395196446,0.0,0.0,0.0,0.0,0.0,0.0,0.0,0.0,0.0,0.040320159642874276,0.23919867587532576,0.0017641577199044864,0.0,0.0,0.0,0.0,0.0,0.0,0.0,0.0,0.0
2.509,67,2,509000000,base_footprint,0.0016003636585490161,0.003530802894612262,-0.41649414923259903,0.9091301314564892,0.0,0.0,0.0,0.0,0.0,0.0,0.0,0.0,0.0,0.0013560921829406769,-0.00015804443914891887,0.02961260139154595,0.0,0.0,0.0,0.0,0.0,0.0,0.0,0.0,0.0,0.009308571679269639,0.0987261030662356,-0.002420781769436027,0.0,0.0,0.0,0.0,0.0,0.0,0.0,0.0,0.0
2.543,68,2,543000000,base_footprint,0.001603639505232941,0.003521877751273058,-0.4160188105117769,0.909347773966489,0.0,0.0,0.0,0.0,0.0,0.0,0.0,0.0,0.0,-0.0004952219183408608,-0.0005985276871264138,0.034854377413388954,0.0,0.0,0.0,0.0,0.0,0.0,0.0,0.0,0.0,0.015508253782554604,0.03910461465246586,0.0036873987175420663,0.0,0.0,0.0,0.0,0.0,0.0,0.0,0.0,0.0
2.577,69,2,577000000,base_footprint,0.0015999067788633405,0.0035035818723135412,-0.41542891871514187,0.9096174903263079,0.0,0.0,0.0,0.0,0.0,0.0,0.0,0.0,0.0,-0.0006093696396369957,-7.939470405778244e-05,0.023644013568985853,0.0,0.0,0.0,0.0,0.0,0.0,0.0,0.0,0.0,0.02267154080851314,0.028597380154887445,-0.0010488326646396408,0.0,0.0,0.0,0.0,0.0,0.0,0.0,0.0,0.0
2.6109999999999998,70,2,611000000,base_footprint,0.00158785409564206,0.0035040934788886056,-0.41550161065069274,0.9095843070298335,0.0,0.0,0.0,0.0,0.0,0.0,0.0,0.0,0.0,-0.0008821131053883812,-3.259241929941481e-05,-0.02979870241735388,0.0,0.0,0.0,0.0,0.0,0.0,0.0,0.0,0.0,-0.024690831633920617,-0.11427311406820373,0.0004533257138967945,0.0,0.0,0.0,0.0,0.0,0.0,0.0,0.0,0.0
2.645,71,2,645000000,base_footprint,0.0015912674456232548,0.0035185419306865435,-0.41627891112595794,0.9092287698276961,0.0,0.0,0.0,0.0,0.0,0.0,0.0,0.0,0.0,-6.083165220300592e-06,-0.0018688189835788416,-0.04804017767639903,0.0,0.0,0.0,0.0,0.0,0.0,0.0,0.0,0.0,-0.04581098932268834,-0.22458095247179238,-0.0034193311502250657,0.0,0.0,0.0,0.0,0.0,0.0,0.0,0.0,0.0
2.6790000000000003,72,2,679000000,base_footprint,0.001600265091976388,0.003518611746734013,-0.41671990995061314,0.9090267186247961,0.0,0.0,0.0,0.0,0.0,0.0,0.0,0.0,0.0,-0.0024843472380935944,0.0017911423191620457,-0.044335008691616475,0.0,0.0,0.0,0.0,0.0,0.0,0.0,0.0,0.0,0.037284682558377844,0.29839425931484725,0.005131342067568917,0.0,0.0,0.0,0.0,0.0,0.0,0.0,0.0,0.0
2.713,73,2,713000000,base_footprint,0.001605469338190431,0.0035168272284561105,-0.41736206827102534,0.9087320608204497,0.0,0.0,0.0,0.0,0.0,0.0,0.0,0.0,0.0,-0.0005924322190346218,0.00022193747183774125,-0.04141174244712515,0.0,0.0,0.0,0.0,0.0,0.0,0.0,0.0,0.0,-0.01124449512921568,-0.013402240595427356,-0.0015093601146670607,0.0,0.0,0.0,0.0,0.0,0.0,0.0,0.0,0.0
2.747,74,2,747000000,base_footprint,0.0016065973970771797,0.0035130376915914635,-0.41800423986790664,0.908436862342912,0.0,0.0,0.0,0.0,0.0,0.0,0.0,0.0,0.0,-0.0005155200141018026,0.0002495911027900976,-0.04175172261036713,0.0,0.0,0.0,0.0,0.0,0.0,0.0,0.0,0.0,-0.00935638393941167,-0.0039260763741001455,-0.00011089777883381271,0.0,0.0,0.0,0.0,0.0,0.0,0.0,0.0,0.0
2.781,75,2,781000000,base_footprint,0.0016087511479929298,0.0035114124603067686,-0.4186813717961372,0.9081249863389854,0.0,0.0,0.0,0.0,0.0,0.0,0.0,0.0,0.0,-0.000132702762782617,0.0002101324636426116,-0.04818522812994925,0.0,0.0,0.0,0.0,0.0,0.0,0.0,0.0,0.0,0.04341957269498109,0.3341697913571768,0.0011931472092654375,0.0,0.0,0.0,0.0,0.0,0.0,0.0,0.0,0.0
2.815,76,2,815000000,base_footprint,0.0016105775976907434,0.0035099115775744875,-0.4193073142614167,0.9078361431268294,0.0,0.0,0.0,0.0,0.0,0.0,0.0,0.0,0.0,-0.00035330755265529005,0.0002271564065123549,-0.036990677409971195,0.0,0.0,0.0,0.0,0.0,0.0,0.0,0.0,0.0,-0.008572030856000473,-0.003966089940720426,0.00029038809763422594,0.0,0.0,0.0,0.0,0.0,0.0,0.0,0.0,0.0
2.849,77,2,849000000,base_footprint,0.0016128112156657004,0.003510412150425893,-0.4198802876890305,0.9075712753589625,0.0,0.0,0.0,0.0,0.0,0.0,0.0,0.0,0.0,-0.000274410912485532,0.0002361732810798721,-0.03730148200152945,0.0,0.0,0.0,0.0,0.0,0.0,0.0,0.0,0.0,-0.008167950690656772,-0.0037898141465119804,-0.00014687084865888563,0.0,0.0,0.0,0.0,0.0,0.0,0.0,0.0,0.0
2.883,78,2,883000000,base_footprint,0.0016135727945949746,0.0035065342095209067,-0.4204260793802283,0.9073185837277026,0.0,0.0,0.0,0.0,0.0,0.0,0.0,0.0,0.0,-0.0003073803868699126,0.0001571199691150299,-0.030723264352725085,0.0,0.0,0.0,0.0,0.0,0.0,0.0,0.0,0.0,-0.09473630504742639,-0.5277135434482633,-0.0024998324621844457,0.0,0.0,0.0,0.0,0.0,0.0,0.0,0.0,0.0
2.917,79,2,917000000,base_footprint,0.0016173049442490134,0.0035169202294481013,-0.4206383345690249,0.907220153594382,0.0,0.0,0.0,0.0,0.0,0.0,0.0,0.0,0.0,-6.293152708677283e-05,0.00010610833237462906,-0.009150096561526266,0.0,0.0,0.0,0.0,0.0,0.0,0.0,0.0,0.0,-0.02846012970510703,-0.14423739443436112,-0.0011797116518094688,0.0,0.0,0.0,0.0,0.0,0.0,0.0,0.0,0.0
2.951,80,2,951000000,base_footprint,0.0016197162405574704,0.0035197461637874704,-0.4207713952196603,0.9071584320674879,0.0,0.0,0.0,0.0,0.0,0.0,0.0,0.0,0.0,-2.181286753923149e-05,2.640419111174548e-05,-0.00787564276896351,0.0,0.0,0.0,0.0,0.0,0.0,0.0,0.0,0.0,-0.002326997418581322,0.00010104940624980254,-0.00012233331313315831,0.0,0.0,0.0,0.0,0.0,0.0,0.0,0.0,0.0
2.9850000000000003,81,2,985000000,base_footprint,0.0016269458765140687,0.0035191290886592928,-0.421166499371932,0.9069750540033419,0.0,0.0,0.0,0.0,0.0,0.0,0.0,0.0,0.0,0.0014871354941699464,0.000556416149925736,-0.03698584698282172,0.0,0.0,0.0,0.0,0.0,0.0,0.0,0.0,0.0,0.04478385462312344,0.33139043384351874,-0.0018792532080038043,0.0,0.0,0.0,0.0,0.0,0.0,0.0,0.0,0.0
3.019,82,3,19000000,base_footprint,0.0016240896078698291,0.0035171881292111367,-0.4212963709180531,0.9069147476868415,0.0,0.0,0.0,0.0,0.0,0.0,0.0,0.0,0.0,-0.0013351061997828842,-0.0005025197439581597,-0.0027850027305994824,0.0,0.0,0.0,0.0,0.0,0.0,0.0,0.0,0.0,0.009114293023564469,0.040604068975876595,0.006553142746291363,0.0,0.0,0.0,0.0,0.0,0.0,0.0,0.0,0.0
3.053,83,3,53000000,base_footprint,0.001627432070324691,0.0035130265414697764,-0.42119739532926687,0.9069607291813779,0.0,0.0,0.0,0.0,0.0,0.0,0.0,0.0,0.0,0.0005991537302496146,0.0002402095690961568,0.012344586278500439,0.0,0.0,0.0,0.0,0.0,0.0,0.0,0.0,0.0,0.010587190996137202,0.05551454678464368,-0.003689004783607658,0.0,0.0,0.0,0.0,0.0,0.0,0.0,0.0,0.0
3.087,84,3,87000000,base_footprint,0.0016152423292984327,0.00349950438938912,-0.4213801395031067,0.9068759135039306,0.0,0.0,0.0,0.0,0.0,0.0,0.0,0.0,0.0,-0.0002579364408798054,0.0006654213113948205,-0.041274754158749906,0.0,0.0,0.0,0.0,0.0,0.0,0.0,0.0,0.0,-0.0014222201768908857,-0.04745439454885676,-0.0016943494995557908,0.0,0.0,0.0,0.0,0.0,0.0,0.0,0.0,0.0
3.121,85,3,121000000,base_footprint,0.0016141130795158656,0.0035072068461228915,-0.42227247565722437,0.9064607274677839,0.0,0.0,0.0,0.0,0.0,0.0,0.0,0.0,0.0,-0.0005684028808029056,0.00030394642769076684,-0.048273671504618726,0.0,0.0,0.0,0.0,0.0,0.0,0.0,0.0,0.0,-0.0372091931772429,-0.11232404575573846,0.0029275589909084016,0.0,0.0,0.0,0.0,0.0,0.0,0.0,0.0,0.0
3.155,86,3,155000000,base_footprint,0.0016151886870012548,0.0035054055189413544,-0.4225397670609912,0.9063361675171616,0.0,0.0,0.0,0.0,0.0,0.0,0.0,0.0,0.0,-0.0002402867321995181,8.813736916041034e-05,0.019683137099038836,0.0,0.0,0.0,0.0,0.0,0.0,0.0,0.0,0.0,-0.031131845638572027,-0.1503247658524714,-0.0005443112861364071,0.0,0.0,0.0,0.0,0.0,0.0,0.0,0.0,0.0
3.189,87,3,189000000,base_footprint,0.0016216195358525899,0.0035089403085687924,-0.42216689281037945,0.906509885386156,0.0,0.0,0.0,0.0,0.0,0.0,0.0,0.0,0.0,-0.00013563352633433814,-0.00014199552437383581,0.024930509983666214,0.0,0.0,0.0,0.0,0.0,0.0,0.0,0.0,0.0,-0.007321472299756739,-0.07411438464326012,-0.0007330073845927029,0.0,0.0,0.0,0.0,0.0,0.0,0.0,0.0,0.0
3.223,88,3,223000000,base_footprint,0.001619625769996489,0.003507760406683196,-0.4217844088451904,0.9066879203366547,0.0,0.0,0.0,0.0,0.0,0.0,0.0,0.0,0.0,-6.247951638706117e-05,-0.00010133778549525652,0.024730510576108044,0.0,0.0,0.0,0.0,0.0,0.0,0.0,0.0,0.0,0.004773681923683295,-0.005503003625206025,-0.00012114762874094169,0.0,0.0,0.0,0.0,0.0,0.0,0.0,0.0,0.0
3.257,89,3,257000000,base_footprint,0.0016171184885293028,0.003507159156751914,-0.4214032352823607,0.9068651487713059,0.0,0.0,0.0,0.0,0.0,0.0,0.0,0.0,0.0,-7.448227999580837e-05,-4.2725299224372265e-05,0.024717469772978628,0.0,0.0,0.0,0.0,0.0,0.0,0.0,0.0,0.0,0.004095851342640261,-0.006341002932449148,3.2880106770066716e-05,0.0,0.0,0.0,0.0,0.0,0.0,0.0,0.0,0.0
3.291,90,3,291000000,base_footprint,0.0016178087738593066,0.0035067747169194967,-0.4216493901641067,0.9067507248412283,0.0,0.0,0.0,0.0,0.0,0.0,0.0,0.0,0.0,-0.0002383675475484433,0.0001936929702275601,-0.01744670570484349,0.0,0.0,0.0,0.0,0.0,0.0,0.0,0.0,0.0,-0.005994848536957444,-0.016023206090931302,-0.00016990793373925257,0.0,0.0,0.0,0.0,0.0,0.0,0.0,0.0,0.0
3.325,91,3,325000000,base_footprint,0.0016190607164990691,0.0035075285658804625,-0.42191930621347096,0.9066251567930923,0.0,0.0,0.0,0.0,0.0,0.0,0.0,0.0,0.0,-0.00013952790382565727,0.00017643043539448546,-0.017618654822761627,0.0,0.0,0.0,0.0,0.0,0.0,0.0,0.0,0.0,-0.0047874232880429825,-0.004856865191982087,-0.00019015612545395172,0.0,0.0,0.0,0.0,0.0,0.0,0.0,0.0,0.0
3.359,92,3,359000000,base_footprint,0.0016205793651802613,0.003509933989282695,-0.42220313962934114,0.9064930021644069,0.0,0.0,0.0,0.0,0.0,0.0,0.0,0.0,0.0,-0.00031996689114824193,-0.00010610855038221285,-0.03407279991287944,0.0,0.0,0.0,0.0,0.0,0.0,0.0,0.0,0.0,-0.006150119853681791,-0.004774033168379266,0.0005223573274634448,0.0,0.0,0.0,0.0,0.0,0.0,0.0,0.0,0.0
3.393,93,3,393000000,base_footprint,0.0016249879997836455,0.003513019645260501,-0.4228775545054142,0.9061785651859644,0.0,0.0,0.0,0.0,0.0,0.0,0.0,0.0,0.0,-4.432546633394197e-05,0.00034697157270455507,-0.04356885618259231,0.0,0.0,0.0,0.0,0.0,0.0,0.0,0.0,0.0,-0.010375341129000683,-0.009014099104487973,-0.0010443179542537092,0.0,0.0,0.0,0.0,0.0,0.0,0.0,0.0,0.0
3.427,94,3,427000000,base_footprint,0.001629028841921599,0.0035154931876655825,-0.42354264708316014,0.9058678787077449,0.0,0.0,0.0,0.0,0.0,0.0,0.0,0.0,0.0,-0.000206137067477965,0.00021458089851658218,-0.042467318142834595,0.0,0.0,0.0,0.0,0.0,0.0,0.0,0.0,0.0,-0.010247875390559644,0.0012563298169392728,0.0002549060717960731,0.0,0.0,0.0,0.0,0.0,0.0,0.0,0.0,0.0
3.461,95,3,461000000,base_footprint,0.0016361910100545743,0.003513480935162523,-0.4241552987398018,0.9055811729942527,0.0,0.0,0.0,0.0,0.0,0.0,0.0,0.0,0.0,-0.001151000624261867,0.0004408438165041759,-0.016964963258796963,0.0,0.0,0.0,0.0,0.0,0.0,0.0,0.0,0.0,-0.007911773323852477,0.0007590263779581889,0.0033437564306758264,0.0,0.0,0.0,0.0,0.0,0.0,0.0,0.0,0.0
3.495,96,3,495000000,base_footprint,0.0016336353748371247,0.0035137665208078367,-0.42376938424906097,0.9057618305346451,0.0,0.0,0.0,0.0,0.0,0.0,0.0,0.0,0.0,-0.0008433733223234389,-0.0004619715690989465,0.035054617449585705,0.0,0.0,0.0,0.0,0.0,0.0,0.0,0.0,0.0,0.013021935887399408,0.04928703907522927,-0.0011410583282076125,0.0,0.0,0.0,0.0,0.0,0.0,0.0,0.0,0.0
3.529,97,3,529000000,base_footprint,0.001633183540964479,0.003510619864387714,-0.4231033688090257,0.9060731469159337,0.0,0.0,0.0,0.0,0.0,0.0,0.0,0.0,0.0,0.00014957231262787115,-7.365998568806109e-05,0.044166983120327706,0.0,0.0,0.0,0.0,0.0,0.0,0.0,0.0,0.0,0.016420601791588503,0.04763246986025217,-0.0018255662266965268,0.0,0.0,0.0,0.0,0.0,0.0,0.0,0.0,0.0
3.563,98,3,563000000,base_footprint,0.0016303662984489902,0.0035141866677985928,-0.42283173969984045,0.9061999295410497,0.0,0.0,0.0,0.0,0.0,0.0,0.0,0.0,0.0,-0.0004924262169456443,7.362756563829935e-05,-0.0063238899969812416,0.0,0.0,0.0,0.0,0.0,0.0,0.0,0.0,0.0,0.005885810138605318,-0.018707972812426844,0.0002141642364162141,0.0,0.0,0.0,0.0,0.0,0.0,0.0,0.0,0.0
3.597,99,3,597000000,base_footprint,0.001634104317921074,0.003513730644283538,-0.4227861910622602,0.9062211761193311,0.0,0.0,0.0,0.0,0.0,0.0,0.0,0.0,0.0,-0.0001667855568295196,0.00011118442186282856,0.012027627694523615,0.0,0.0,0.0,0.0,0.0,0.0,0.0,0.0,0.0,-0.007289165919691311,-0.03648133195512092,0.0002331460542713604,0.0,0.0,0.0,0.0,0.0,0.0,0.0,0.0,0.0
3.6310000000000002,100,3,631000000,base_footprint,0.001629219032197565,0.0035108468651660263,-0.4226378993333874,0.9062903649750979,0.0,0.0,0.0,0.0,0.0,0.0,0.0,0.0,0.0,-0.0001754834162912683,6.115815350271214e-05,0.009396815186548516,0.0,0.0,0.0,0.0,0.0,0.0,0.0,0.0,0.0,0.0029592243768014237,0.004043340360297114,-0.00015342367708939055,0.0,0.0,0.0,0.0,0.0,0.0,0.0,0.0,0.0
3.665,101,3,665000000,base_footprint,0.0016326892184467096,0.0035209397937303677,-0.4224782681749913,0.9063647445861656,0.0,0.0,0.0,0.0,0.0,0.0,0.0,0.0,0.0,-0.00284063103642933,0.0006191635552962259,0.017699632507165105,0.0,0.0,0.0,0.0,0.0,0.0,0.0,0.0,0.0,0.03635855844973334,0.1895875539137723,0.004607216189214194,0.0,0.0,0.0,0.0,0.0,0.0,0.0,0.0,0.0
3.699,102,3,699000000,base_footprint,0.001616952664519161,0.003493226890883295,-0.42200184779996763,0.9065867985380014,0.0,0.0,0.0,0.0,0.0,0.0,0.0,0.0,0.0,0.005114936248467119,-0.0012124982513249272,0.02782301938092422,0.0,0.0,0.0,0.0,0.0,0.0,0.0,0.0,0.0,0.09334461173584713,0.5334551450618156,-0.006291331377835772,0.0,0.0,0.0,0.0,0.0,0.0,0.0,0.0,0.0
3.733,103,3,733000000,base_footprint,0.0016218123668837196,0.003504728991302586,-0.4216990570313955,0.9067276282865634,0.0,0.0,0.0,0.0,0.0,0.0,0.0,0.0,0.0,-8.998129611061378e-05,-0.00011531792963650072,0.018921777547824023,0.0,0.0,0.0,0.0,0.0,0.0,0.0,0.0,0.0,-0.003046320982835686,-0.06528046544009901,0.005149037844207592,0.0,0.0,0.0,0.0,0.0,0.0,0.0,0.0,0.0
3.767,104,3,767000000,base_footprint,0.0016175603776127322,0.0035005743523102025,-0.42142493348342464,0.9068550903623577,0.0,0.0,0.0,0.0,0.0,0.0,0.0,0.0,0.0,0.0012217809636892098,-0.00022397721103916166,0.011917845406711711,0.0,0.0,0.0,0.0,0.0,0.0,0.0,0.0,0.0,-0.03401073602891284,-0.21456695878225784,-0.0024978381607591153,0.0,0.0,0.0,0.0,0.0,0.0,0.0,0.0,0.0
3.801,105,3,801000000,base_footprint,0.0016190654240965433,0.0035017298751073415,-0.42171077422303804,0.9067221952832302,0.0,0.0,0.0,0.0,0.0,0.0,0.0,0.0,0.0,0.0006278842673949546,9.399331255770938e-05,-0.024458869154648285,0.0,0.0,0.0,0.0,0.0,0.0,0.0,0.0,0.0,-0.06279438930438104,-0.3424053727609853,-0.0014145928106047592,0.0,0.0,0.0,0.0,0.0,0.0,0.0,0.0,0.0
3.835,106,3,835000000,base_footprint,0.0016209775539370792,0.0035085156352296382,-0.4216450304765148,0.906752739739046,0.0,0.0,0.0,0.0,0.0,0.0,0.0,0.0,0.0,2.2961990268715775e-05,-1.2914672709621855e-05,0.008883905702419053,0.0,0.0,0.0,0.0,0.0,0.0,0.0,0.0,0.0,-0.021219863465573613,-0.13281521975717345,1.5025043258112776e-05,0.0,0.0,0.0,0.0,0.0,0.0,0.0,0.0,0.0
3.869,107,3,869000000,base_footprint,0.0016209592927046057,0.003513604495598861,-0.42147729083680496,0.9068307010590717,0.0,0.0,0.0,0.0,0.0,0.0,0.0,0.0,0.0,0.0001822115974646949,-3.992277116147689e-05,0.015325517158591642,0.0,0.0,0.0,0.0,0.0,0.0,0.0,0.0,0.0,0.001120540843063356,-0.003261748319995352,-0.00036394183831861066,0.0,0.0,0.0,0.0,0.0,0.0,0.0,0.0,0.0
3.903,108,3,903000000,base_footprint,0.0016217410225372734,0.0035177350339460744,-0.42124139050560905,0.9069402882335683,0.0,0.0,0.0,0.0,0.0,0.0,0.0,0.0,0.0,0.00018147031679027615,-8.758288462771169e-05,0.015734778744763176,0.0,0.0,0.0,0.0,0.0,0.0,0.0,0.0,0.0,0.0023099507190782113,-0.0035423815015127318,-0.00017132767866796079,0.0,0.0,0.0,0.0,0.0,0.0,0.0,0.0,0.0
3.9370000000000003,109,3,937000000,base_footprint,0.0016220385261059489,0.0035205044725647107,-0.4209829995080977,0.9070602456091015,0.0,0.0,0.0,0.0,0.0,0.0,0.0,0.0,0.0,8.465048489895992e-05,-0.00015689821047710562,0.017613467335140135,0.0,0.0,0.0,0.0,0.0,0.0,0.0,0.0,0.0,0.003026985418383323,0.0019304047076468787,0.000180325189344848,0.0,0.0,0.0,0.0,0.0,0.0,0.0,0.0,0.0
3.971,110,3,971000000,base_footprint,0.0016179938196527494,0.00349473338344957,-0.42077719705819105,0.9071558407299324,0.0,0.0,0.0,0.0,0.0,0.0,0.0,0.0,0.0,0.00039383953474104804,-0.00024277979123896022,-0.0036472124872744148,0.0,0.0,0.0,0.0,0.0,0.0,0.0,0.0,0.0,0.02630315244034783,0.12057330054150155,0.0006954264612031059,0.0,0.0,0.0,0.0,0.0,0.0,0.0,0.0,0.0
4.005,111,4,5000000,base_footprint,0.001617637919977974,0.0035202998363851592,-0.42113607087137095,0.9069891953863868,0.0,0.0,0.0,0.0,0.0,0.0,0.0,0.0,0.0,-0.0012008091811947623,0.0008589972417430469,-0.016826436447806563,0.0,0.0,0.0,0.0,0.0,0.0,0.0,0.0,0.0,0.009732514750832845,0.12481541780210326,0.0026749431039966363,0.0,0.0,0.0,0.0,0.0,0.0,0.0,0.0,0.0
4.039,112,4,39000000,base_footprint,0.0016199320203599348,0.0035110840616453393,-0.42093462611038346,0.9070827352839835,0.0,0.0,0.0,0.0,0.0,0.0,0.0,0.0,0.0,0.0008593158392955028,0.00011115574838971304,0.0364727181805053,0.0,0.0,0.0,0.0,0.0,0.0,0.0,0.0,0.0,0.039048892010546926,0.14923265194839327,-0.0026528837027954225,0.0,0.0,0.0,0.0,0.0,0.0,0.0,0.0,0.0
4.073,113,4,73000000,base_footprint,0.0016093055472387978,0.003497575346423465,-0.4208082384973404,0.9071414462558292,0.0,0.0,0.0,0.0,0.0,0.0,0.0,0.0,0.0,-0.0011232544728877578,-5.9750759036031635e-05,-0.016630970380030613,0.0,0.0,0.0,0.0,0.0,0.0,0.0,0.0,0.0,-0.013124347079690714,-0.08860203545630176,0.002452067836126485,0.0,0.0,0.0,0.0,0.0,0.0,0.0,0.0,0.0
4.107,114,4,107000000,base_footprint,0.0016121916273238138,0.00351097527174332,-0.4214283453239781,0.9068534741887975,0.0,0.0,0.0,0.0,0.0,0.0,0.0,0.0,0.0,0.0018708071247541338,-0.0009145546965708066,-0.042949770712663864,0.0,0.0,0.0,0.0,0.0,0.0,0.0,0.0,0.0,-0.05539285554026434,-0.25278799412833347,-0.005353409686808955,0.0,0.0,0.0,0.0,0.0,0.0,0.0,0.0,0.0
4.141,115,4,141000000,base_footprint,0.0016240442616454584,0.0035114971120590492,-0.42189509715870205,0.9066363983768342,0.0,0.0,0.0,0.0,0.0,0.0,0.0,0.0,0.0,-0.0005574227894548771,-6.221508036744278e-05,-0.029287467466247323,0.0,0.0,0.0,0.0,0.0,0.0,0.0,0.0,0.0,-0.013359096598989135,-0.029987346462082138,0.003280519248660518,0.0,0.0,0.0,0.0,0.0,0.0,0.0,0.0,0.0
4.175,116,4,175000000,base_footprint,0.0016276337322623298,0.003514080112728225,-0.422273928009714,0.9064600000952286,0.0,0.0,0.0,0.0,0.0,0.0,0.0,0.0,0.0,0.0021047851347335013,-0.0006602816671695245,-0.012918574073996209,0.0,0.0,0.0,0.0,0.0,0.0,0.0,0.0,0.0,0.07561142251480449,0.4622092831133493,-0.0005459743559129245,0.0,0.0,0.0,0.0,0.0,0.0,0.0,0.0,0.0
4.209,117,4,209000000,base_footprint,0.0016189334115165467,0.0034959464487350827,-0.4224125149912079,0.9063955122306373,0.0,0.0,0.0,0.0,0.0,0.0,0.0,0.0,0.0,-0.00046792348242623207,0.0001371969255002137,-0.019818276597310554,0.0,0.0,0.0,0.0,0.0,0.0,0.0,0.0,0.0,0.01196422253495998,0.07732842625536615,0.003117995842023765,0.0,0.0,0.0,0.0,0.0,0.0,0.0,0.0,0.0
4.243,118,4,243000000,base_footprint,0.001625283200838058,0.0035030742068328136,-0.4229328908677597,0.9061527778183204,0.0,0.0,0.0,0.0,0.0,0.0,0.0,0.0,0.0,-0.0005748298248636188,0.00026833695244372446,-0.03748557608317243,0.0,0.0,0.0,0.0,0.0,0.0,0.0,0.0,0.0,-0.04617156696617795,-0.21892844368301198,-0.0008779369217043393,0.0,0.0,0.0,0.0,0.0,0.0,0.0,0.0,0.0
4.277,119,4,277000000,base_footprint,0.0016245575474093886,0.0035030161119249683,-0.42289171928500346,0.906171994408936,0.0,0.0,0.0,0.0,0.0,0.0,0.0,0.0,0.0,3.05746779191607e-05,-0.00023694603962902316,0.03879915624701639,0.0,0.0,0.0,0.0,0.0,0.0,0.0,0.0,0.0,0.0015349596783108075,0.015738769840275633,-0.00013191728650799455,0.0,0.0,0.0,0.0,0.0,0.0,0.0,0.0,0.0
4.311,120,4,311000000,base_footprint,0.0016224658856331614,0.003506266568924677,-0.42229973413144,0.9064480174018326,0.0,0.0,0.0,0.0,0.0,0.0,0.0,0.0,0.0,0.00013145004681959266,-0.00020397726144180748,0.03824512897762302,0.0,0.0,0.0,0.0,0.0,0.0,0.0,0.0,0.0,0.0077369431805993615,-0.007621812289341903,-0.0004061330966788091,0.0,0.0,0.0,0.0,0.0,0.0,0.0,0.0,0.0
4.345,121,4,345000000,base_footprint,0.001620675369718232,0.003510879613714044,-0.4217113555822522,0.9067218866381594,0.0,0.0,0.0,0.0,0.0,0.0,0.0,0.0,0.0,0.00024078499897398246,-0.0001923608114715713,0.038081521705635744,0.0,0.0,0.0,0.0,0.0,0.0,0.0,0.0,0.0,0.006851287734613173,-0.0062146383421521085,-0.00031166191059267854,0.0,0.0,0.0,0.0,0.0,0.0,0.0,0.0,0.0
4.379,122,4,379000000,base_footprint,0.0016186477656732058,0.0035087373840869793,-0.42115563517098886,0.9069801539753233,0.0,0.0,0.0,0.0,0.0,0.0,0.0,0.0,0.0,0.0003955474215549747,-0.00039543821193627774,0.009045836950446404,0.0,0.0,0.0,0.0,0.0,0.0,0.0,0.0,0.0,-0.04523289031476335,-0.3149455310359265,-0.001995758365942207,0.0,0.0,0.0,0.0,0.0,0.0,0.0,0.0,0.0
4.413,123,4,413000000,base_footprint,0.001622198438965709,0.0035191383061758843,-0.42121285596195057,0.9069535347029548,0.0,0.0,0.0,0.0,0.0,0.0,0.0,0.0,0.0,-4.547455618835364e-05,-1.7707012326879682e-05,-0.002786181854976331,0.0,0.0,0.0,0.0,0.0,0.0,0.0,0.0,0.0,-0.00795724666764536,-0.035399855710343375,0.0001129402484491204,0.0,0.0,0.0,0.0,0.0,0.0,0.0,0.0,0.0
4.447,124,4,447000000,base_footprint,0.0016238099171679268,0.003520117580013593,-0.4212423646091641,0.9069398228504778,0.0,0.0,0.0,0.0,0.0,0.0,0.0,0.0,0.0,-0.00014606401576197487,-4.7643627169036185e-05,-0.0010017291988534266,0.0,0.0,0.0,0.0,0.0,0.0,0.0,0.0,0.0,-0.0005130582512529631,0.006932009987760335,0.0002471695252597976,0.0,0.0,0.0,0.0,0.0,0.0,0.0,0.0,0.0
4.481,125,4,481000000,base_footprint,0.0016158297622273963,0.0035087175332251357,-0.42148023929574996,0.906829358743225,0.0,0.0,0.0,0.0,0.0,0.0,0.0,0.0,0.0,0.0018478086999207345,0.0010996038369591222,-0.04179268692613471,0.0,0.0,0.0,0.0,0.0,0.0,0.0,0.0,0.0,0.031270624606970776,0.16082268928625174,-0.002743135912051371,0.0,0.0,0.0,0.0,0.0,0.0,0.0,0.0,0.0
4.515,126,4,515000000,base_footprint,0.0016307920650454008,0.0035092102318514885,-0.42221283557584566,0.9064884706579521,0.0,0.0,0.0,0.0,0.0,0.0,0.0,0.0,0.0,-0.0005632237313969995,7.794014104421838e-05,-0.029673286902671,0.0,0.0,0.0,0.0,0.0,0.0,0.0,0.0,0.0,0.013833321630959558,0.1335949705115318,0.004711776844187867,0.0,0.0,0.0,0.0,0.0,0.0,0.0,0.0,0.0
4.549,127,4,549000000,base_footprint,0.0016284959528272797,0.003517092266516554,-0.4224415277364698,0.9063818917578825,0.0,0.0,0.0,0.0,0.0,0.0,0.0,0.0,0.0,6.552913800262388e-05,-0.00019843453236507053,-0.02546608949443644,0.0,0.0,0.0,0.0,0.0,0.0,0.0,0.0,0.0,0.00605265671362679,0.08638751687597596,-0.0005948456800405502,0.0,0.0,0.0,0.0,0.0,0.0,0.0,0.0,0.0
4.583,128,4,583000000,base_footprint,0.001632799961533234,0.003499384177044729,-0.4230813168809795,0.9060834881957199,0.0,0.0,0.0,0.0,0.0,0.0,0.0,0.0,0.0,-2.5330551880704496e-05,-0.00014051143429592546,-0.07344781975612481,0.0,0.0,0.0,0.0,0.0,0.0,0.0,0.0,0.0,-0.038694355176720284,-0.17639152717650503,-0.0009371679953735653,0.0,0.0,0.0,0.0,0.0,0.0,0.0,0.0,0.0
4.617,129,4,617000000,base_footprint,0.001639037089523921,0.0035091895666372703,-0.42499053039827167,0.9051895095601807,0.0,0.0,0.0,0.0,0.0,0.0,0.0,0.0,0.0,-0.0013254626697718583,0.0012422191457612751,-0.15177643684460132,0.0,0.0,0.0,0.0,0.0,0.0,0.0,0.0,0.0,-0.062468863306537975,-0.21128041826529428,0.0005625099471527558,0.0,0.0,0.0,0.0,0.0,0.0,0.0,0.0,0.0
4.651,130,4,651000000,base_footprint,0.001645966902368997,0.0034997048231391703,-0.4273265384372816,0.9040890843309181,0.0,0.0,0.0,0.0,0.0,0.0,0.0,0.0,0.0,-0.001145683802300126,0.0009305566872057345,-0.15221572261200295,0.0,0.0,0.0,0.0,0.0,0.0,0.0,0.0,0.0,-0.035972107859189834,0.006907278506948651,0.00018057434227288231,0.0,0.0,0.0,0.0,0.0,0.0,0.0,0.0,0.0
4.6850000000000005,131,4,685000000,base_footprint,0.0016494131269687528,0.0034995768404726658,-0.42856854443076564,0.9035009878925253,0.0,0.0,0.0,0.0,0.0,0.0,0.0,0.0,0.0,-7.485736521216431e-05,-0.0003944031014494355,0.02891417982110095,0.0,0.0,0.0,0.0,0.0,0.0,0.0,0.0,0.0,0.08580818725031142,0.5256615479722696,0.0026326095945763176,0.0,0.0,0.0,0.0,0.0,0.0,0.0,0.0,0.0
4.719,132,4,719000000,base_footprint,0.001643134326005854,0.003490043910990107,-0.42773284027769876,0.9038969725865104,0.0,0.0,0.0,0.0,0.0,0.0,0.0,0.0,0.0,0.0012285832075185428,-0.0008424535734516356,0.025546429587188342,0.0,0.0,0.0,0.0,0.0,0.0,0.0,0.0,0.0,-0.07427609800726019,-0.42928749210917355,-0.004113114463687136,0.0,0.0,0.0,0.0,0.0,0.0,0.0,0.0,0.0
4.753,133,4,753000000,base_footprint,0.0016434835191938546,0.0034944510848038263,-0.42766939708407864,0.9039269741363395,0.0,0.0,0.0,0.0,0.0,0.0,0.0,0.0,0.0,-0.0001493239629626073,1.1604892603453213e-05,0.0025319019922160953,0.0,0.0,0.0,0.0,0.0,0.0,0.0,0.0,0.0,-0.012585544964236042,-0.07060001808647394,0.0012345518357592363,0.0,0.0,0.0,0.0,0.0,0.0,0.0,0.0,0.0
4.787,134,4,787000000,base_footprint,0.0016434919792569034,0.0034961717868714722,-0.4277123101053979,0.9039066630472721,0.0,0.0,0.0,0.0,0.0,0.0,0.0,0.0,0.0,-9.189957946263165e-05,6.0244764357000065e-05,-0.003842486732435959,0.0,0.0,0.0,0.0,0.0,0.0,0.0,0.0,0.0,-0.0020040988388437355,-0.007037888132727611,-0.00023017275709152175,0.0,0.0,0.0,0.0,0.0,0.0,0.0,0.0,0.0
4.821,135,4,821000000,base_footprint,0.0016439145444260479,0.0034995777809899804,-0.42777276265306013,0.9038780415700417,0.0,0.0,0.0,0.0,0.0,0.0,0.0,0.0,0.0,3.0158486130175335e-05,7.615089225603884e-05,-0.004058926678135158,0.0,0.0,0.0,0.0,0.0,0.0,0.0,0.0,0.0,-0.0020112066503719466,-0.004977577698264539,-0.000282591264303227,0.0,0.0,0.0,0.0,0.0,0.0,0.0,0.0,0.0
4.855,136,4,855000000,base_footprint,0.0016453503972514336,0.0035037855037907367,-0.42783355045117333,0.9038492514891835,0.0,0.0,0.0,0.0,0.0,0.0,0.0,0.0,0.0,4.386571216145813e-05,6.179303388176936e-05,-0.0037427580788625243,0.0,0.0,0.0,0.0,0.0,0.0,0.0,0.0,0.0,-0.0021943028092655604,-0.0034991198195110053,-0.00015767255597783745,0.0,0.0,0.0,0.0,0.0,0.0,0.0,0.0,0.0
4.889,137,4,889000000,base_footprint,0.0016478451442360005,0.0035081134668407295,-0.42801351054913744,0.9037640248060818,0.0,0.0,0.0,0.0,0.0,0.0,0.0,0.0,0.0,-0.0005987794816023389,2.309543260771435e-05,-0.0020434297944496244,0.0,0.0,0.0,0.0,0.0,0.0,0.0,0.0,0.0,0.0697973837473407,0.35631122774058877,0.0026133074286898597,0.0,0.0,0.0,0.0,0.0,0.0,0.0,0.0,0.0
4.923,138,4,923000000,base_footprint,0.001650141949940759,0.0035080646109352078,-0.42817951188498055,0.903685385582931,0.0,0.0,0.0,0.0,0.0,0.0,0.0,0.0,0.0,-0.00018107080939804135,3.826423015062544e-05,-0.009854420778783745,0.0,0.0,0.0,0.0,0.0,0.0,0.0,0.0,0.0,-0.008539946951588858,-0.017404847961490978,-0.0006770836024932658,0.0,0.0,0.0,0.0,0.0,0.0,0.0,0.0,0.0
4.957,139,4,957000000,base_footprint,0.0016520196374635388,0.003503796443103726,-0.42830463196879365,0.90362610435715,0.0,0.0,0.0,0.0,0.0,0.0,0.0,0.0,0.0,-0.0006719546297863461,-0.00024169157405678652,-0.005311462705093942,0.0,0.0,0.0,0.0,0.0,0.0,0.0,0.0,0.0,0.0030913398789488614,0.016059229012562865,0.0010692018931049308,0.0,0.0,0.0,0.0,0.0,0.0,0.0,0.0,0.0
4.991,140,4,991000000,base_footprint,0.0016511052215118375,0.003489814816404228,-0.4278545040245322,0.9038393764546976,0.0,0.0,0.0,0.0,0.0,0.0,0.0,0.0,0.0,-0.001641497203062026,-0.0011978944548611532,0.04357702698798611,0.0,0.0,0.0,0.0,0.0,0.0,0.0,0.0,0.0,-0.0023795113410910364,-0.03765505446545979,0.0028917830069855057,0.0,0.0,0.0,0.0,0.0,0.0,0.0,0.0,0.0
5.025,141,5,25000000,base_footprint,0.0016436050666827563,0.003489829958162287,-0.42759608042581937,0.9039616759872756,0.0,0.0,0.0,0.0,0.0,0.0,0.0,0.0,0.0,-0.000760609881963242,0.0014544983302890641,-0.01877426306429134,0.0,0.0,0.0,0.0,0.0,0.0,0.0,0.0,0.0,-0.0038695297656869826,-0.0609876016930641,-0.0026524068681814134,0.0,0.0,0.0,0.0,0.0,0.0,0.0,0.0,0.0
5.059,142,5,59000000,base_footprint,0.0016344809073765539,0.0034952498307335624,-0.4281600397020797,0.9036946896508233,0.0,0.0,0.0,0.0,0.0,0.0,0.0,0.0,0.0,-0.0019923140728961416,0.001697168999178036,-0.0310582945829805,0.0,0.0,0.0,0.0,0.0,0.0,0.0,0.0,0.0,-0.03423460270883008,-0.11579008930199775,0.0007846419616502317,0.0,0.0,0.0,0.0,0.0,0.0,0.0,0.0,0.0
5.093,143,5,93000000,base_footprint,0.0016488946638731732,0.0035025338521146947,-0.4283871889712683,0.9035869796141914,0.0,0.0,0.0,0.0,0.0,0.0,0.0,0.0,0.0,-0.0009637291645714835,0.0002756256110092639,0.00018032224892688536,0.0,0.0,0.0,0.0,0.0,0.0,0.0,0.0,0.0,-0.023017291411510897,-0.10649518112736106,-0.0019828461008756996,0.0,0.0,0.0,0.0,0.0,0.0,0.0,0.0,0.0
5.127,144,5,127000000,base_footprint,0.0016465745417543482,0.003497639907415617,-0.4283973307118841,0.9035821945713014,0.0,0.0,0.0,0.0,0.0,0.0,0.0,0.0,0.0,-0.000308200706788289,-9.193912098765716e-05,-0.0007860852603686359,0.0,0.0,0.0,0.0,0.0,0.0,0.0,0.0,0.0,-0.0011791758324144574,-0.0009587001170117779,-0.0010648002320212298,0.0,0.0,0.0,0.0,0.0,0.0,0.0,0.0,0.0
5.161,145,5,161000000,base_footprint,0.0016531263106641255,0.0035059196992235594,-0.4284081564950551,0.9035770178291235,0.0,0.0,0.0,0.0,0.0,0.0,0.0,0.0,0.0,0.003749445788100564,-0.0017453461163930326,0.0021454690496544035,0.0,0.0,0.0,0.0,0.0,0.0,0.0,0.0,0.0,0.0211754274569329,0.10703669039790605,-0.0010088056933246423,0.0,0.0,0.0,0.0,0.0,0.0,0.0,0.0,0.0
5.195,146,5,195000000,base_footprint,0.0016383313842118336,0.003485743102272721,-0.42821548849588853,0.9036684463217293,0.0,0.0,0.0,0.0,0.0,0.0,0.0,0.0,0.0,-0.008014966891343815,0.0015236639598744666,0.015338702159961705,0.0,0.0,0.0,0.0,0.0,0.0,0.0,0.0,0.0,0.14874637906709104,0.7315518864031079,0.014055091497191263,0.0,0.0,0.0,0.0,0.0,0.0,0.0,0.0,0.0
5.229,147,5,229000000,base_footprint,0.0016424002736052854,0.0034940237969612598,-0.42786965594149257,0.9038322033671716,0.0,0.0,0.0,0.0,0.0,0.0,0.0,0.0,0.0,-0.00020990287286000702,-0.0001477810943448024,0.022583801850979537,0.0,0.0,0.0,0.0,0.0,0.0,0.0,0.0,0.0,-0.030436136819633426,-0.17958013845556933,-0.009687623964726605,0.0,0.0,0.0,0.0,0.0,0.0,0.0,0.0,0.0
5.263,148,5,263000000,base_footprint,0.0016380829720151094,0.0034904530881104327,-0.42752753319733494,0.903994104947382,0.0,0.0,0.0,0.0,0.0,0.0,0.0,0.0,0.0,-5.7975487304094415e-05,-0.0005870786197264402,0.021188517910848723,0.0,0.0,0.0,0.0,0.0,0.0,0.0,0.0,0.0,-0.023206895365204414,-0.13315281924230188,-0.0007791892483414225,0.0,0.0,0.0,0.0,0.0,0.0,0.0,0.0,0.0
5.297,149,5,297000000,base_footprint,0.0016378164313897168,0.00350006761041287,-0.426570763116929,0.904445935995016,0.0,0.0,0.0,0.0,0.0,0.0,0.0,0.0,0.0,0.0003154557049949412,-0.00042145041500554916,0.07462635477247558,0.0,0.0,0.0,0.0,0.0,0.0,0.0,0.0,0.0,-0.02587816550894862,-0.20213193414863523,-0.0015336169262882768,0.0,0.0,0.0,0.0,0.0,0.0,0.0,0.0,0.0
5.331,150,5,331000000,base_footprint,0.001634164283634806,0.003506169148925407,-0.42542285307609473,0.9049864266195317,0.0,0.0,0.0,0.0,0.0,0.0,0.0,0.0,0.0,0.0004606644611395414,-0.00041964357612522346,0.07461930081146877,0.0,0.0,0.0,0.0,0.0,0.0,0.0,0.0,0.0,0.014271614289946754,-0.007400436517583736,-0.0004042847990171903,0.0,0.0,0.0,0.0,0.0,0.0,0.0,0.0,0.0
5.365,151,5,365000000,base_footprint,0.0016288171029054089,0.003504552024212132,-0.42425472317526663,0.9055346459045247,0.0,0.0,0.0,0.0,0.0,0.0,0.0,0.0,0.0,-0.0017211158023810087,8.89350425600326e-05,0.08375388287216802,0.0,0.0,0.0,0.0,0.0,0.0,0.0,0.0,0.0,-0.009196971503673247,-0.12940161548760762,0.00273458061106281,0.0,0.0,0.0,0.0,0.0,0.0,0.0,0.0,0.0
5.399,152,5,399000000,base_footprint,0.0016308223537278535,0.0035085116797161954,-0.4235385687810201,0.9058698093651035,0.0,0.0,0.0,0.0,0.0,0.0,0.0,0.0,0.0,0.0018753952732389863,0.0003551589658723547,0.013544013353248792,0.0,0.0,0.0,0.0,0.0,0.0,0.0,0.0,0.0,-0.030751708527062258,-0.2373742206551447,-0.00746701537185664,0.0,0.0,0.0,0.0,0.0,0.0,0.0,0.0,0.0
5.433,153,5,433000000,base_footprint,0.0016313724121667572,0.0035158647727791376,-0.423257780767619,0.906001009016338,0.0,0.0,0.0,0.0,0.0,0.0,0.0,0.0,0.0,-0.00021801234047088647,-0.000215066185631926,0.020019957529877713,0.0,0.0,0.0,0.0,0.0,0.0,0.0,0.0,0.0,0.004483390026545199,0.018981223258393774,0.0033963287125616456,0.0,0.0,0.0,0.0,0.0,0.0,0.0,0.0,0.0
5.467,154,5,467000000,base_footprint,0.0016201232773342144,0.0034988656028377674,-0.4229429350255214,0.9061481152946559,0.0,0.0,0.0,0.0,0.0,0.0,0.0,0.0,0.0,-0.0018038199532809868,0.0002220772915383386,0.012512193048929105,0.0,0.0,0.0,0.0,0.0,0.0,0.0,0.0,0.0,0.018861747755412824,0.05662414617938222,0.002950142281207495,0.0,0.0,0.0,0.0,0.0,0.0,0.0,0.0,0.0
5.501,155,5,501000000,base_footprint,0.001630774646945767,0.0035112178130144063,-0.4226837888542672,0.9062689592848924,0.0,0.0,0.0,0.0,0.0,0.0,0.0,0.0,0.0,0.0006006212113646138,-0.0013055773877791916,0.03789319403695612,0.0,0.0,0.0,0.0,0.0,0.0,0.0,0.0,0.0,0.03456574092611436,0.1862612872792664,-0.0031338138519628285,0.0,0.0,0.0,0.0,0.0,0.0,0.0,0.0,0.0
5.535,156,5,535000000,base_footprint,0.0016221312177759574,0.003516104985825919,-0.4221770290112992,0.9065051361527046,0.0,0.0,0.0,0.0,0.0,0.0,0.0,0.0,0.0,-0.00032582253553389715,-0.00043139178142101453,0.0015387575296478273,0.0,0.0,0.0,0.0,0.0,0.0,0.0,0.0,0.0,0.03554287639943049,0.13052197156904388,0.0019480645213123642,0.0,0.0,0.0,0.0,0.0,0.0,0.0,0.0,0.0
5.569,157,5,569000000,base_footprint,0.0016170277768636843,0.0034966527269989197,-0.42205655240558054,0.9065613190581161,0.0,0.0,0.0,0.0,0.0,0.0,0.0,0.0,0.0,0.0014565860546103969,-0.0001666221183475549,-0.003827979679000504,0.0,0.0,0.0,0.0,0.0,0.0,0.0,0.0,0.0,-0.022220250330097585,-0.13093358368286234,-0.0017667504468813699,0.0,0.0,0.0,0.0,0.0,0.0,0.0,0.0,0.0
5.602,158,5,603000000,base_footprint,0.0016265263197581055,0.003510690022095665,-0.4224511068471866,0.9063774554738698,0.0,0.0,0.0,0.0,0.0,0.0,0.0,0.0,0.0,-0.0013075958976989667,0.00024560821550321664,-0.03442174777416994,0.0,0.0,0.0,0.0,0.0,0.0,0.0,0.0,0.0,-0.046251615727483604,-0.23238675706777012,0.0011118003394069765,0.0,0.0,0.0,0.0,0.0,0.0,0.0,0.0,0.0
5.6370000000000005,159,5,637000000,base_footprint,0.0016279723687316551,0.0035064918647034243,-0.42297610823612,0.9061325874739279,0.0,0.0,0.0,0.0,0.0,0.0,0.0,0.0,0.0,-0.000599119527201435,0.00023267962733565756,-0.034283522299691165,0.0,0.0,0.0,0.0,0.0,0.0,0.0,0.0,0.0,-0.011091397507127303,-0.00433291444289309,-0.0006174870585602173,0.0,0.0,0.0,0.0,0.0,0.0,0.0,0.0,0.0
5.671,160,5,671000000,base_footprint,0.0016259460353651412,0.0035034375333915977,-0.4234372915274659,0.9059171829526269,0.0,0.0,0.0,0.0,0.0,0.0,0.0,0.0,0.0,-0.003773154601001523,0.00019624350737527593,-0.001215656285666019,0.0,0.0,0.0,0.0,0.0,0.0,0.0,0.0,0.0,0.052563772011208015,0.3254952293110023,0.006721356935558494,0.0,0.0,0.0,0.0,0.0,0.0,0.0,0.0,0.0
5.705,161,5,705000000,base_footprint,0.0016269594610936115,0.003501997077515763,-0.42334599446861976,0.9059598545116425,0.0,0.0,0.0,0.0,0.0,0.0,0.0,0.0,0.0,-0.00017067811974242985,-2.7455486409327096e-05,0.005839630971411571,0.0,0.0,0.0,0.0,0.0,0.0,0.0,0.0,0.0,0.0020313604320427174,0.01057739009286734,-0.0054070441324825715,0.0,0.0,0.0,0.0,0.0,0.0,0.0,0.0,0.0
5.739,162,5,739000000,base_footprint,0.0016262795914207546,0.0035025879127852013,-0.4232582318820827,0.906000858849845,0.0,0.0,0.0,0.0,0.0,0.0,0.0,0.0,0.0,-0.00011963526861310996,-1.7356671188974118e-05,0.005511132925099305,0.0,0.0,0.0,0.0,0.0,0.0,0.0,0.0,0.0,0.0001407191143259351,-0.0055722663624644,-0.00016003546108610565,0.0,0.0,0.0,0.0,0.0,0.0,0.0,0.0,0.0
5.773,163,5,773000000,base_footprint,0.0016247811992724836,0.003500329607996761,-0.42311102057977046,0.9060696286945253,0.0,0.0,0.0,0.0,0.0,0.0,0.0,0.0,0.0,0.0003729639103521625,6.055330229333762e-05,0.04122369824798064,0.0,0.0,0.0,0.0,0.0,0.0,0.0,0.0,0.0,-0.047635606253379384,-0.2818648880315765,-0.0021342517986953215,0.0,0.0,0.0,0.0,0.0,0.0,0.0,0.0,0.0
5.807,164,5,807000000,base_footprint,0.0016226266040209236,0.0035097803016570167,-0.4221803830595428,0.9065035977230513,0.0,0.0,0.0,0.0,0.0,0.0,0.0,0.0,0.0,0.0003641377705323978,-0.0003295168147274028,0.06125940234714396,0.0,0.0,0.0,0.0,0.0,0.0,0.0,0.0,0.0,0.0027366077553423393,-0.051880564309913,-6.0015798547681756e-05,0.0,0.0,0.0,0.0,0.0,0.0,0.0,0.0,0.0
5.841,165,5,841000000,base_footprint,0.0016204267443370908,0.003516187146170374,-0.4212342711767887,0.9069436032252938,0.0,0.0,0.0,0.0,0.0,0.0,0.0,0.0,0.0,0.00043186744852724573,-0.0003030461780557783,0.06156672793288365,0.0,0.0,0.0,0.0,0.0,0.0,0.0,0.0,0.0,0.011872791836515961,-0.0058501262129371425,-0.00035055343870029536,0.0,0.0,0.0,0.0,0.0,0.0,0.0,0.0,0.0
5.875,166,5,875000000,base_footprint,0.0016207326875626075,0.003513596120156937,-0.42085835765986007,0.9071181128473322,0.0,0.0,0.0,0.0,0.0,0.0,0.0,0.0,0.0,0.0005274236662651963,0.0009247618769157272,-0.033303505157112,0.0,0.0,0.0,0.0,0.0,0.0,0.0,0.0,0.0,0.004317381968451229,-0.034815101237212,-0.0014282716128678815,0.0,0.0,0.0,0.0,0.0,0.0,0.0,0.0,0.0
5.909,167,5,909000000,base_footprint,0.001623793023745825,0.0035202069407322886,-0.4212977987606315,0.9069140732168384,0.0,0.0,0.0,0.0,0.0,0.0,0.0,0.0,0.0,-0.0002978044713643133,9.68894055560785e-05,-0.027342840227784784,0.0,0.0,0.0,0.0,0.0,0.0,0.0,0.0,0.0,-0.007868914990764518,0.019350779853405844,0.0017910501884617984,0.0,0.0,0.0,0.0,0.0,0.0,0.0,0.0,0.0
5.943,168,5,943000000,base_footprint,0.0016268861017878357,0.00351427143104378,-0.42168709957752964,0.9067331433160539,0.0,0.0,0.0,0.0,0.0,0.0,0.0,0.0,0.0,-0.0007355329609945745,-0.0002351172840531643,-0.02105666327613314,0.0,0.0,0.0,0.0,0.0,0.0,0.0,0.0,0.0,0.0006242050215812204,0.022487551794222713,0.0010547937173479842,0.0,0.0,0.0,0.0,0.0,0.0,0.0,0.0,0.0
5.977,169,5,977000000,base_footprint,0.0016264787429440869,0.003510323115534141,-0.421850569260253,0.9066571178859866,0.0,0.0,0.0,0.0,0.0,0.0,0.0,0.0,0.0,0.001484728466745899,-0.00235069921621758,0.004716173037092795,0.0,0.0,0.0,0.0,0.0,0.0,0.0,0.0,0.0,0.02547955805244527,0.13459518988719713,-0.0037122431745362327,0.0,0.0,0.0,0.0,0.0,0.0,0.0,0.0,0.0
6.011,170,6,11000000,base_footprint,0.0016204122729420582,0.003517922628698904,-0.4215743090016823,0.9067855868253523,0.0,0.0,0.0,0.0,0.0,0.0,0.0,0.0,0.0,0.000664810353717743,0.00047440514429128986,-0.012347652674723677,0.0,0.0,0.0,0.0,0.0,0.0,0.0,0.0,0.0,0.02404657650396219,0.14499684327149553,0.003126745865940624,0.0,0.0,0.0,0.0,0.0,0.0,0.0,0.0,0.0
6.045,171,6,45000000,base_footprint,0.0016289757775310922,0.003516445275332741,-0.422070680638359,0.9065546434694459,0.0,0.0,0.0,0.0,0.0,0.0,0.0,0.0,0.0,-0.00033155840305275044,0.0002686475501073671,-0.03157241939761511,0.0,0.0,0.0,0.0,0.0,0.0,0.0,0.0,0.0,0.002162780524715628,0.06162814394193861,0.001687743486150084,0.0,0.0,0.0,0.0,0.0,0.0,0.0,0.0,0.0
6.079,172,6,79000000,base_footprint,0.0016186485972302428,0.0035076462604515207,-0.42271414989692696,0.9062548338471629,0.0,0.0,0.0,0.0,0.0,0.0,0.0,0.0,0.0,-0.0002683025733731033,0.00046396412974393324,-0.036346311065105136,0.0,0.0,0.0,0.0,0.0,0.0,0.0,0.0,0.0,-0.0403294701706505,-0.2033000978954487,-0.0013683492792963088,0.0,0.0,0.0,0.0,0.0,0.0,0.0,0.0,0.0
6.113,173,6,113000000,base_footprint,0.0016256276194078268,0.003507131472116751,-0.4226203747757244,0.9062985579752991,0.0,0.0,0.0,0.0,0.0,0.0,0.0,0.0,0.0,-0.00029175671776825597,-0.0001434209587274851,0.020336001805189744,0.0,0.0,0.0,0.0,0.0,0.0,0.0,0.0,0.0,-0.021870799889736697,-0.12007736253151471,5.966753355568548e-05,0.0,0.0,0.0,0.0,0.0,0.0,0.0,0.0,0.0
6.147,174,6,147000000,base_footprint,0.0016234370242095841,0.003505408939364002,-0.422306210706622,0.9064450016184161,0.0,0.0,0.0,0.0,0.0,0.0,0.0,0.0,0.0,-0.00022129796930581358,-0.0001020770955776299,0.020229202308807124,0.0,0.0,0.0,0.0,0.0,0.0,0.0,0.0,0.0,0.002070499308706284,-0.007056307291220813,5.681886944550306e-06,0.0,0.0,0.0,0.0,0.0,0.0,0.0,0.0,0.0
6.181,175,6,181000000,base_footprint,0.0016255182703242591,0.0035134321309321123,-0.4219533406386149,0.9066092828826138,0.0,0.0,0.0,0.0,0.0,0.0,0.0,0.0,0.0,-0.0005777951961994896,1.4053697361110355e-05,0.026658829933739605,0.0,0.0,0.0,0.0,0.0,0.0,0.0,0.0,0.0,0.1224203572623587,0.6752531810797288,0.003675661091607844,0.0,0.0,0.0,0.0,0.0,0.0,0.0,0.0,0.0
6.215,176,6,215000000,base_footprint,0.0016195947653225198,0.003506165737614181,-0.4214821440171764,0.906828476609166,0.0,0.0,0.0,0.0,0.0,0.0,0.0,0.0,0.0,1.0570504531162985e-05,-0.0001649353135547152,0.041366081224834976,0.0,0.0,0.0,0.0,0.0,0.0,0.0,0.0,0.0,0.0038551573219131182,-0.013719235347241756,-0.0006887642509411053,0.0,0.0,0.0,0.0,0.0,0.0,0.0,0.0,0.0
6.249,177,6,249000000,base_footprint,0.0016166444638585945,0.0035076131370332113,-0.42084397303021504,0.9071248169215206,0.0,0.0,0.0,0.0,0.0,0.0,0.0,0.0,0.0,9.779577432714523e-05,-0.00023554588167607688,0.041255158861480894,0.0,0.0,0.0,0.0,0.0,0.0,0.0,0.0,0.0,0.007018860701037837,-0.002717721808921005,-0.00018790197305469541,0.0,0.0,0.0,0.0,0.0,0.0,0.0,0.0,0.0
6.283,178,6,283000000,base_footprint,0.0016124255096851769,0.0035066346502745926,-0.4202162146311327,0.9074158013603726,0.0,0.0,0.0,0.0,0.0,0.0,0.0,0.0,0.0,0.00024282667196322668,0.00014960094059187682,0.030852621945905365,0.0,0.0,0.0,0.0,0.0,0.0,0.0,0.0,0.0,-0.07909261571644002,-0.5253651099873586,-0.0025365768746501553,0.0,0.0,0.0,0.0,0.0,0.0,0.0,0.0,0.0
6.317,179,6,317000000,base_footprint,0.0016168236565355636,0.003516072500450274,-0.42053518120990324,0.9072679783174259,0.0,0.0,0.0,0.0,0.0,0.0,0.0,0.0,0.0,3.816624653932328e-05,0.00027619562303379266,-0.031506098212076714,0.0,0.0,0.0,0.0,0.0,0.0,0.0,0.0,0.0,-0.033547845823834535,-0.17585671843715103,-0.0017119848852339382,0.0,0.0,0.0,0.0,0.0,0.0,0.0,0.0,0.0
6.351,180,6,351000000,base_footprint,0.0016207451687751382,0.003518678074592566,-0.4210157600459975,0.907045049533151,0.0,0.0,0.0,0.0,0.0,0.0,0.0,0.0,0.0,-9.908012225310687e-05,0.00016862226928766755,-0.030691190862091777,0.0,0.0,0.0,0.0,0.0,0.0,0.0,0.0,0.0,-0.007450637587764525,-0.0008107890140585865,0.00012158921871803331,0.0,0.0,0.0,0.0,0.0,0.0,0.0,0.0,0.0
6.385,181,6,385000000,base_footprint,0.0016206154342144935,0.003520776166626183,-0.4207549657983059,0.9071660468166042,0.0,0.0,0.0,0.0,0.0,0.0,0.0,0.0,0.0,0.00011078712357908065,-0.0003232240802386698,0.03271754036615686,0.0,0.0,0.0,0.0,0.0,0.0,0.0,0.0,0.0,0.004684330588968473,0.015029314599191797,0.0003362014018224218,0.0,0.0,0.0,0.0,0.0,0.0,0.0,0.0,0.0
6.4190000000000005,182,6,419000000,base_footprint,0.001619984123483748,0.0035208514632387535,-0.42023072784594406,0.9074090117639794,0.0,0.0,0.0,0.0,0.0,0.0,0.0,0.0,0.0,-0.00018449415141121326,-0.00027819578179924645,0.035723017928632333,0.0,0.0,0.0,0.0,0.0,0.0,0.0,0.0,0.0,0.005599194091865382,0.008150329418669042,0.0005290021448684233,0.0,0.0,0.0,0.0,0.0,0.0,0.0,0.0,0.0
6.453,183,6,453000000,base_footprint,0.0016190558373756986,0.0035148545995094226,-0.4195832391707858,0.9077086150644881,0.0,0.0,0.0,0.0,0.0,0.0,0.0,0.0,0.0,9.407492016139232e-05,-0.0004690374309468551,0.05204857714677255,0.0,0.0,0.0,0.0,0.0,0.0,0.0,0.0,0.0,0.020932735162238515,0.04894368871485686,-0.00018891407843059818,0.0,0.0,0.0,0.0,0.0,0.0,0.0,0.0,0.0
6.487,184,6,487000000,base_footprint,0.001610708622274464,0.0035182894007562996,-0.4185718782745932,0.9081754290747499,0.0,0.0,0.0,0.0,0.0,0.0,0.0,0.0,0.0,0.0016249143823519135,0.00027309836585998656,0.061719944532957205,0.0,0.0,0.0,0.0,0.0,0.0,0.0,0.0,0.0,0.03412920214894328,0.13209740481196144,-0.0014178271104673173,0.0,0.0,0.0,0.0,0.0,0.0,0.0,0.0,0.0
6.521,185,6,521000000,base_footprint,0.001606030115359622,0.0035221455117375746,-0.4178365216031408,0.9085139824861537,0.0,0.0,0.0,0.0,0.0,0.0,0.0,0.0,0.0,6.368912126011333e-05,-0.0003175437145649935,0.018958493237359597,0.0,0.0,0.0,0.0,0.0,0.0,0.0,0.0,0.0,0.04444007683026827,0.19445064839622225,0.0026400121990134543,0.0,0.0,0.0,0.0,0.0,0.0,0.0,0.0,0.0
6.555,186,6,555000000,base_footprint,0.0016088206739312688,0.0035213433695630205,-0.41740010250658266,0.9087145680929777,0.0,0.0,0.0,0.0,0.0,0.0,0.0,0.0,0.0,0.00012347577451042767,-0.00018441347285277123,0.029116355820003624,0.0,0.0,0.0,0.0,0.0,0.0,0.0,0.0,0.0,0.002482291148373863,-0.01737582702585643,8.483462825987829e-05,0.0,0.0,0.0,0.0,0.0,0.0,0.0,0.0,0.0
6.589,187,6,589000000,base_footprint,0.001606763168258381,0.0035149252588553602,-0.4173425622458141,0.9087410243576796,0.0,0.0,0.0,0.0,0.0,0.0,0.0,0.0,0.0,0.0025435702931774435,0.0012861801041030687,-0.03405037435819878,0.0,0.0,0.0,0.0,0.0,0.0,0.0,0.0,0.0,-0.05373692117482155,-0.36696131976006374,-0.005836165296854059,0.0,0.0,0.0,0.0,0.0,0.0,0.0,0.0,0.0
6.623,188,6,623000000,base_footprint,0.001604490876843176,0.0035156336412727994,-0.41700517263529613,0.9088958971876446,0.0,0.0,0.0,0.0,0.0,0.0,0.0,0.0,0.0,-0.0001724030605985254,-0.00015784468092083846,0.029325849052637968,0.0,0.0,0.0,0.0,0.0,0.0,0.0,0.0,0.0,0.006650528262019251,0.02075287455490827,0.004790947223548482,0.0,0.0,0.0,0.0,0.0,0.0,0.0,0.0,0.0
6.657,189,6,657000000,base_footprint,0.0016014694349555556,0.0035141632051520185,-0.416554903484579,0.9091023585579181,0.0,0.0,0.0,0.0,0.0,0.0,0.0,0.0,0.0,-0.00012974256361703205,-0.00016418489649400734,0.028938368944423996,0.0,0.0,0.0,0.0,0.0,0.0,0.0,0.0,0.0,0.005308343069131836,-0.0063695055960450025,-0.00017939931188364443,0.0,0.0,0.0,0.0,0.0,0.0,0.0,0.0,0.0
6.691,190,6,691000000,base_footprint,0.0016023596192079523,0.0035134223296927882,-0.4169112367118109,0.9089390018095892,0.0,0.0,0.0,0.0,0.0,0.0,0.0,0.0,0.0,-0.0006440438423421896,0.0002981118076988066,-0.043282802968753205,0.0,0.0,0.0,0.0,0.0,0.0,0.0,0.0,0.0,0.04006870535435518,0.29509910339011103,0.0016017274141265322,0.0,0.0,0.0,0.0,0.0,0.0,0.0,0.0,0.0
6.725,191,6,725000000,base_footprint,0.0016011321704093356,0.00351454844050522,-0.416651775128117,0.9090579643827017,0.0,0.0,0.0,0.0,0.0,0.0,0.0,0.0,0.0,2.19851435453379e-05,-0.00010829988085760172,0.019765301630733197,0.0,0.0,0.0,0.0,0.0,0.0,0.0,0.0,0.0,0.0072459162718271596,0.028809186434499413,-0.0003279141781236764,0.0,0.0,0.0,0.0,0.0,0.0,0.0,0.0,0.0
6.759,192,6,759000000,base_footprint,0.001600625723435139,0.003517116403604949,-0.41633649435775083,0.9092023929551634,0.0,0.0,0.0,0.0,0.0,0.0,0.0,0.0,0.0,2.820828060073381e-05,-0.0002845423689958997,0.03613243718599873,0.0,0.0,0.0,0.0,0.0,0.0,0.0,0.0,0.0,0.004348474463641614,-0.0053149072013711305,5.933646006220444e-05,0.0,0.0,0.0,0.0,0.0,0.0,0.0,0.0,0.0
6.793,193,6,793000000,base_footprint,0.0015979813503710432,0.0035227193997743474,-0.4156344782367832,0.9095235111883977,0.0,0.0,0.0,0.0,0.0,0.0,0.0,0.0,0.0,0.0003185684345505231,-0.00023097852191912235,0.045195347578480795,0.0,0.0,0.0,0.0,0.0,0.0,0.0,0.0,0.0,0.00805365318343843,0.00021341573954829132,-0.0005528415745923059,0.0,0.0,0.0,0.0,0.0,0.0,0.0,0.0,0.0
6.827,194,6,827000000,base_footprint,0.0015968961914383573,0.0035282793481476154,-0.4149332789827916,0.9098435992850551,0.0,0.0,0.0,0.0,0.0,0.0,0.0,0.0,0.0,0.0003272353438404715,-0.00020332815717102185,0.04541300799290965,0.0,0.0,0.0,0.0,0.0,0.0,0.0,0.0,0.0,0.007853096856281024,-0.004701532873153349,-0.00023476224764934562,0.0,0.0,0.0,0.0,0.0,0.0,0.0,0.0,0.0
6.861,195,6,861000000,base_footprint,0.0015955082753095636,0.0035308338261803135,-0.41422788223352314,0.9101649571073179,0.0,0.0,0.0,0.0,0.0,0.0,0.0,0.0,0.0,-0.0016271126855576159,-0.0012658022936335512,0.049169164404047186,0.0,0.0,0.0,0.0,0.0,0.0,0.0,0.0,0.0,0.0012992588807914547,-0.04897728594917732,0.00684608915045205,0.0,0.0,0.0,0.0,0.0,0.0,0.0,0.0,0.0
6.895,196,6,895000000,base_footprint,0.001592202735573513,0.0035277061085329285,-0.41331496763038517,0.9105799018827258,0.0,0.0,0.0,0.0,0.0,0.0,0.0,0.0,0.0,-3.351627109812814e-05,-0.000883645566222555,0.048957173506605466,0.0,0.0,0.0,0.0,0.0,0.0,0.0,0.0,0.0,-0.018660808556744055,-0.22371801819297943,-0.007448482410620097,0.0,0.0,0.0,0.0,0.0,0.0,0.0,0.0,0.0
6.929,197,6,929000000,base_footprint,0.00159162770369083,0.003522819165729892,-0.41267447478833974,0.910870371855703,0.0,0.0,0.0,0.0,0.0,0.0,0.0,0.0,0.0,-0.000370362777655417,-0.0005255890264847615,0.04314048571847056,0.0,0.0,0.0,0.0,0.0,0.0,0.0,0.0,0.0,0.00786614301366875,-0.013033182199460286,0.000362625080120556,0.0,0.0,0.0,0.0,0.0,0.0,0.0,0.0,0.0
6.963,198,6,963000000,base_footprint,0.0015880738878292242,0.00353805536254446,-0.41194128340871766,0.9112021395986495,0.0,0.0,0.0,0.0,0.0,0.0,0.0,0.0,0.0,-0.0025123495556717314,-0.0006894876140257649,0.048271218643586786,0.0,0.0,0.0,0.0,0.0,0.0,0.0,0.0,0.0,0.03124639899554641,0.07944000211241369,0.003561945539606826,0.0,0.0,0.0,0.0,0.0,0.0,0.0,0.0,0.0
6.997,199,6,997000000,base_footprint,0.0015839125783015276,0.003521658258662285,-0.4109042706035056,0.9116703184506199,0.0,0.0,0.0,0.0,0.0,0.0,0.0,0.0,0.0,0.00015463996883467233,-0.0007503378465845749,0.0528296319722048,0.0,0.0,0.0,0.0,0.0,0.0,0.0,0.0,0.0,0.038902682402392946,0.2670527377955116,-0.000941598233853256,0.0,0.0,0.0,0.0,0.0,0.0,0.0,0.0,0.0
7.031,200,7,31000000,base_footprint,0.0015851012816277528,0.003533549425127704,-0.41066554017917606,0.911777832364734,0.0,0.0,0.0,0.0,0.0,0.0,0.0,0.0,0.0,-0.0005656783583346811,0.00034382716409758567,0.013472073501885687,0.0,0.0,0.0,0.0,0.0,0.0,0.0,0.0,0.0,0.00212149993114826,-0.03708555102825188,-0.0013446328961711058,0.0,0.0,0.0,0.0,0.0,0.0,0.0,0.0,0.0
7.065,201,7,65000000,base_footprint,0.001579602364102372,0.0035215886291660205,-0.41058473084859665,0.9118142804671815,0.0,0.0,0.0,0.0,0.0,0.0,0.0,0.0,0.0,-0.001600539033440491,0.0028296613631017594,-0.04069009619865588,0.0,0.0,0.0,0.0,0.0,0.0,0.0,0.0,0.0,-0.006886228450796663,-0.03900682578543011,-0.0011014999007732734,0.0,0.0,0.0,0.0,0.0,0.0,0.0,0.0,0.0
7.099,202,7,99000000,base_footprint,0.0015771342957924225,0.0035177560741357014,-0.41123828064401485,0.9115197280215993,0.0,0.0,0.0,0.0,0.0,0.0,0.0,0.0,0.0,0.0029716474108067523,0.0011720239617645147,-0.042955457987168794,0.0,0.0,0.0,0.0,0.0,0.0,0.0,0.0,0.0,-0.026838444717315016,-0.14442101386456563,-0.004375844085310501,0.0,0.0,0.0,0.0,0.0,0.0,0.0,0.0,0.0
7.133,203,7,133000000,base_footprint,0.0015814056515807712,0.003523786926042871,-0.41110345613495913,0.9115805123167985,0.0,0.0,0.0,0.0,0.0,0.0,0.0,0.0,0.0,0.00026603797336947915,-0.00022187704339040107,0.025214302491008624,0.0,0.0,0.0,0.0,0.0,0.0,0.0,0.0,0.0,-0.017020953511259367,-0.16335232378870732,0.00298345254290317,0.0,0.0,0.0,0.0,0.0,0.0,0.0,0.0,0.0
7.167,204,7,167000000,base_footprint,0.0015793297641763264,0.003522907931193876,-0.410820813580376,0.9117079323809584,0.0,0.0,0.0,0.0,0.0,0.0,0.0,0.0,0.0,3.840324884743389e-05,-0.0002409383228160554,-0.0015584655028086966,0.0,0.0,0.0,0.0,0.0,0.0,0.0,0.0,0.0,0.003709059588396113,-0.013581896287269074,-9.790969880336489e-05,0.0,0.0,0.0,0.0,0.0,0.0,0.0,0.0,0.0
7.201,205,7,201000000,base_footprint,0.0015795016374951386,0.003523936421295154,-0.41083579369200074,0.9117011778363237,0.0,0.0,0.0,0.0,0.0,0.0,0.0,0.0,0.0,-0.00014739685803803656,1.2703886156235993e-05,-0.0010892134336134354,0.0,0.0,0.0,0.0,0.0,0.0,0.0,0.0,0.0,-0.0020588157066723104,-0.005452462731181844,0.00018022609680001944,0.0,0.0,0.0,0.0,0.0,0.0,0.0,0.0,0.0
7.235,206,7,235000000,base_footprint,0.0015796518779592687,0.0035259097027193894,-0.4108557415611653,0.9116921806656773,0.0,0.0,0.0,0.0,0.0,0.0,0.0,0.0,0.0,-5.750622704814502e-05,2.90503051879543e-05,-0.0015024860799536489,0.0,0.0,0.0,0.0,0.0,0.0,0.0,0.0,0.0,-0.00111030789885653,-0.005553712256184376,-0.00022462533346896235,0.0,0.0,0.0,0.0,0.0,0.0,0.0,0.0,0.0
7.269,207,7,269000000,base_footprint,0.0015808967688799261,0.0035245691083753148,-0.41090677139467957,0.9116691852859825,0.0,0.0,0.0,0.0,0.0,0.0,0.0,0.0,0.0,0.00035240018560585046,-0.00015757535610565372,-0.010515244624486596,0.0,0.0,0.0,0.0,0.0,0.0,0.0,0.0,0.0,0.03414273893734866,0.2807043725422738,0.001343169248315491,0.0,0.0,0.0,0.0,0.0,0.0,0.0,0.0,0.0
7.303,208,7,303000000,base_footprint,0.0015812008408085387,0.0035244166406838895,-0.4114570983183255,0.9114209425587652,0.0,0.0,0.0,0.0,0.0,0.0,0.0,0.0,0.0,-5.470224333594725e-05,3.295693405171875e-05,-0.044672617757858885,0.0,0.0,0.0,0.0,0.0,0.0,0.0,0.0,0.0,0.01077623126817736,0.14522746764200872,0.0013881444525409205,0.0,0.0,0.0,0.0,0.0,0.0,0.0,0.0,0.0
7.337,209,7,337000000,base_footprint,0.0015865068897137134,0.003535448789859911,-0.41169970296099884,0.9113113288989492,0.0,0.0,0.0,0.0,0.0,0.0,0.0,0.0,0.0,-7.657070226771339e-05,4.927668520107759e-05,-0.010122623869654582,0.0,0.0,0.0,0.0,0.0,0.0,0.0,0.0,0.0,-0.016767836958705182,-0.09686418149678486,-0.0013180492958733742,0.0,0.0,0.0,0.0,0.0,0.0,0.0,0.0,0.0
7.371,210,7,371000000,base_footprint,0.0015832641984264905,0.003518734976260316,-0.4119077998466155,0.9112173594725714,0.0,0.0,0.0,0.0,0.0,0.0,0.0,0.0,0.0,0.00046376274592412785,-0.0003647603743719679,-0.026743699407265592,0.0,0.0,0.0,0.0,0.0,0.0,0.0,0.0,0.0,0.020641519112903718,0.16447335445756778,0.0016048952632085056,0.0,0.0,0.0,0.0,0.0,0.0,0.0,0.0,0.0
7.405,211,7,405000000,base_footprint,0.001583461484078149,0.0035346363010892333,-0.41246489703418393,0.9109652615278628,0.0,0.0,0.0,0.0,0.0,0.0,0.0,0.0,0.0,-0.0003747070572405351,0.0004207313018721445,-0.01085628242300284,0.0,0.0,0.0,0.0,0.0,0.0,0.0,0.0,0.0,0.012532172208178455,0.1811683541171242,0.000399924413043047,0.0,0.0,0.0,0.0,0.0,0.0,0.0,0.0,0.0
7.438,212,7,439000000,base_footprint,0.0015924427865911127,0.0035322033758344315,-0.4125410145437967,0.9109307871536991,0.0,0.0,0.0,0.0,0.0,0.0,0.0,0.0,0.0,-0.000541415984568287,0.00029781321834420715,-0.00522552422201714,0.0,0.0,0.0,0.0,0.0,0.0,0.0,0.0,0.0,0.007594394587225425,0.06483780025713645,0.0010464733917592572,0.0,0.0,0.0,0.0,0.0,0.0,0.0,0.0,0.0
7.473,213,7,473000000,base_footprint,0.0015804253096888007,0.0035132592597008627,-0.41292554056152325,0.9107566399522918,0.0,0.0,0.0,0.0,0.0,0.0,0.0,0.0,0.0,-0.004124734568923138,0.0039489195318459765,-0.04657007770698357,0.0,0.0,0.0,0.0,0.0,0.0,0.0,0.0,0.0,0.003191656499213399,-0.024150764273594263,0.0068550422244494195,0.0,0.0,0.0,0.0,0.0,0.0,0.0,0.0,0.0
7.507,214,7,507000000,base_footprint,0.0015827204340059023,0.0035265179384783058,-0.4139343144361964,0.9102985455329989,0.0,0.0,0.0,0.0,0.0,0.0,0.0,0.0,0.0,-0.0006777402498972279,0.00011009644371536635,-0.06353710954317007,0.0,0.0,0.0,0.0,0.0,0.0,0.0,0.0,0.0,-0.03460000925663835,-0.12187813033708703,-0.00734932661770319,0.0,0.0,0.0,0.0,0.0,0.0,0.0,0.0,0.0
7.541,215,7,541000000,base_footprint,0.001584520478182813,0.0035218304358044044,-0.4144189722791076,0.9100780194139202,0.0,0.0,0.0,0.0,0.0,0.0,0.0,0.0,0.0,-0.0001989758601281845,0.00026098010765972864,0.004023616442907368,0.0,0.0,0.0,0.0,0.0,0.0,0.0,0.0,0.0,-0.030567707157448835,-0.1412647065969221,-0.001167669787079437,0.0,0.0,0.0,0.0,0.0,0.0,0.0,0.0,0.0
7.575,216,7,575000000,base_footprint,0.0015864280783951768,0.0035116874354322028,-0.4140267862604823,0.9102565416167713,0.0,0.0,0.0,0.0,0.0,0.0,0.0,0.0,0.0,0.0007588590640922614,-0.0019483136410960366,0.013940252580088597,0.0,0.0,0.0,0.0,0.0,0.0,0.0,0.0,0.0,-0.04017348060448776,-0.3322356906953743,-0.0036955792094961666,0.0,0.0,0.0,0.0,0.0,0.0,0.0,0.0,0.0
7.609,217,7,609000000,base_footprint,0.0015912870535604294,0.003521708471569513,-0.414165866789678,0.9101932213334206,0.0,0.0,0.0,0.0,0.0,0.0,0.0,0.0,0.0,-0.0005395209208721223,7.752156336078455e-05,-0.01227700115376745,0.0,0.0,0.0,0.0,0.0,0.0,0.0,0.0,0.0,-0.014926513207060777,-0.09611421536675264,0.002050023986956187,0.0,0.0,0.0,0.0,0.0,0.0,0.0,0.0,0.0
7.643,218,7,643000000,base_footprint,0.0015909773837536967,0.003519161817230061,-0.41435715359042946,0.9101061660924543,0.0,0.0,0.0,0.0,0.0,0.0,0.0,0.0,0.0,-0.00034103207133731844,6.51489730509254e-05,-0.012488637420373407,0.0,0.0,0.0,0.0,0.0,0.0,0.0,0.0,0.0,-0.003187373569716093,-0.0053158133290507415,-0.00032777531714657065,0.0,0.0,0.0,0.0,0.0,0.0,0.0,0.0,0.0
7.677,219,7,677000000,base_footprint,0.001595406702935277,0.003525214948340904,-0.4145497147962442,0.9100184401974352,0.0,0.0,0.0,0.0,0.0,0.0,0.0,0.0,0.0,0.001913609142095878,-0.00044789200135291276,-0.012715413618068981,0.0,0.0,0.0,0.0,0.0,0.0,0.0,0.0,0.0,0.0778281526139939,0.5737572245634035,0.0003481220159530068,0.0,0.0,0.0,0.0,0.0,0.0,0.0,0.0,0.0
7.711,220,7,711000000,base_footprint,0.001589935533517411,0.00351331011476558,-0.4148112212458975,0.9098993238185881,0.0,0.0,0.0,0.0,0.0,0.0,0.0,0.0,0.0,0.0004573568437695333,9.02436526609035e-06,-0.02244812481452972,0.0,0.0,0.0,0.0,0.0,0.0,0.0,0.0,0.0,-0.008259547837050404,-0.03358767815096636,0.001332414333571274,0.0,0.0,0.0,0.0,0.0,0.0,0.0,0.0,0.0
7.745,221,7,745000000,base_footprint,0.0015945337787215091,0.003519742967743855,-0.41524486173495107,0.9097014750313374,0.0,0.0,0.0,0.0,0.0,0.0,0.0,0.0,0.0,-0.00010329291273003771,0.00012884096391330946,-0.02192809618250031,0.0,0.0,0.0,0.0,0.0,0.0,0.0,0.0,0.0,-0.03762778963242452,-0.21883373710694287,-0.000516872294741093,0.0,0.0,0.0,0.0,0.0,0.0,0.0,0.0,0.0
7.779,222,7,779000000,base_footprint,0.0015964566318349735,0.00351630182182286,-0.41566293968117274,0.9095105318374967,0.0,0.0,0.0,0.0,0.0,0.0,0.0,0.0,0.0,-0.0003257324143388445,-0.0007827224136819545,-0.05585648861183675,0.0,0.0,0.0,0.0,0.0,0.0,0.0,0.0,0.0,-0.054457690430975106,-0.35049200048035645,-0.0007891916486844313,0.0,0.0,0.0,0.0,0.0,0.0,0.0,0.0,0.0
7.813,223,7,813000000,base_footprint,0.0016020668634470895,0.003526268815659684,-0.4165254918860255,0.9091157865855753,0.0,0.0,0.0,0.0,0.0,0.0,0.0,0.0,0.0,-0.0002073267311262168,0.00031310231400418084,-0.0551834851827035,0.0,0.0,0.0,0.0,0.0,0.0,0.0,0.0,0.0,-0.014768694052410911,-0.0005461090652383923,-0.0012632557902144052,0.0,0.0,0.0,0.0,0.0,0.0,0.0,0.0,0.0
7.847,224,7,847000000,base_footprint,0.0016068367043019696,0.003527037434611333,-0.4173671781958256,0.9087296719308744,0.0,0.0,0.0,0.0,0.0,0.0,0.0,0.0,0.0,-0.0002620646420132232,0.0002660452784972862,-0.05361294108388756,0.0,0.0,0.0,0.0,0.0,0.0,0.0,0.0,0.0,-0.01191398810538079,0.004159858325811547,0.00012863151748805643,0.0,0.0,0.0,0.0,0.0,0.0,0.0,0.0,0.0
7.881,225,7,881000000,base_footprint,0.001608305678537597,0.0035313126620451604,-0.417532838583067,0.9086535488779506,0.0,0.0,0.0,0.0,0.0,0.0,0.0,0.0,0.0,-0.0005066751411808652,-0.000977525530011187,0.027467135586984246,0.0,0.0,0.0,0.0,0.0,0.0,0.0,0.0,0.0,-0.002032964555253522,0.039885099516607535,0.001253962864070849,0.0,0.0,0.0,0.0,0.0,0.0,0.0,0.0,0.0
7.915,226,7,915000000,base_footprint,0.0016092292827667883,0.0035185477363056956,-0.41709987641560486,0.908852421076728,0.0,0.0,0.0,0.0,0.0,0.0,0.0,0.0,0.0,-0.0001339610905205871,-0.0005597853304319732,0.034163496341499136,0.0,0.0,0.0,0.0,0.0,0.0,0.0,0.0,0.0,0.016117236313970187,0.02496829892147149,-0.00026348126992320486,0.0,0.0,0.0,0.0,0.0,0.0,0.0,0.0,0.0
7.949,227,7,949000000,base_footprint,0.0016056125194433323,0.003520715194070431,-0.4165553249213331,0.9091021327951235,0.0,0.0,0.0,0.0,0.0,0.0,0.0,0.0,0.0,7.429146323779454e-05,0.0005648999082798381,0.01766821876206182,0.0,0.0,0.0,0.0,0.0,0.0,0.0,0.0,0.0,0.01727653470304938,0.03601674487751438,-0.0009387547946468957,0.0,0.0,0.0,0.0,0.0,0.0,0.0,0.0,0.0
7.9830000000000005,228,7,983000000,base_footprint,0.0016049252959123642,0.0035233392099943053,-0.416540275602269,0.9091090193682999,0.0,0.0,0.0,0.0,0.0,0.0,0.0,0.0,0.0,0.0002227992755645623,0.0001009910710481044,0.007001711313652003,0.0,0.0,0.0,0.0,0.0,0.0,0.0,0.0,0.0,-0.006350523433707144,-0.02203397971002802,0.000670940466408742,0.0,0.0,0.0,0.0,0.0,0.0,0.0,0.0,0.0
8.017,229,8,17000000,base_footprint,0.0016056745509751215,0.0035231672505445302,-0.4162988229138579,0.9092196099635652,0.0,0.0,0.0,0.0,0.0,0.0,0.0,0.0,0.0,-0.00010261100968595725,-5.826217021168322e-05,0.01683019032441906,0.0,0.0,0.0,0.0,0.0,0.0,0.0,0.0,0.0,-0.00022226503079918018,-0.026054087662071783,-9.794679875166893e-05,0.0,0.0,0.0,0.0,0.0,0.0,0.0,0.0,0.0
8.051,230,8,51000000,base_footprint,0.001602948331006514,0.003521687872266105,-0.4160371467006149,0.9093393870477565,0.0,0.0,0.0,0.0,0.0,0.0,0.0,0.0,0.0,-0.000339528614613351,-0.0002582679700055787,0.016785227058223773,0.0,0.0,0.0,0.0,0.0,0.0,0.0,0.0,0.0,0.0028560764663459665,-0.004591378702679899,0.0005061041784261311,0.0,0.0,0.0,0.0,0.0,0.0,0.0,0.0,0.0
8.085,231,8,85000000,base_footprint,0.0016016325405172564,0.0035175444301644046,-0.41608526776341814,0.9093173877170894,0.0,0.0,0.0,0.0,0.0,0.0,0.0,0.0,0.0,-0.00035783064191018306,3.778233850227936e-05,-0.008271236597291318,0.0,0.0,0.0,0.0,0.0,0.0,0.0,0.0,0.0,-0.0027650281746564535,-0.01140160756424849,-6.17273451173329e-05,0.0,0.0,0.0,0.0,0.0,0.0,0.0,0.0,0.0
8.119,232,8,119000000,base_footprint,0.0016008367826380926,0.003514961010534194,-0.41621655131419477,0.9092573149459994,0.0,0.0,0.0,0.0,0.0,0.0,0.0,0.0,0.0,-0.0003320629916579406,5.728052682830699e-05,-0.008731266658341797,0.0,0.0,0.0,0.0,0.0,0.0,0.0,0.0,0.0,-0.0025365402838161224,-0.0055342088947630055,-0.00011874011939298506,0.0,0.0,0.0,0.0,0.0,0.0,0.0,0.0,0.0
8.153,233,8,153000000,base_footprint,0.0016006653326932488,0.0035140660865307727,-0.41635464404385764,0.9091940934658259,0.0,0.0,0.0,0.0,0.0,0.0,0.0,0.0,0.0,-0.00024843552433574315,6.214782021677135e-05,-0.009168828818781179,0.0,0.0,0.0,0.0,0.0,0.0,0.0,0.0,0.0,-0.002836930834569782,-0.005438060799417772,-0.0001851440274202296,0.0,0.0,0.0,0.0,0.0,0.0,0.0,0.0,0.0
8.187,234,8,187000000,base_footprint,0.0016017441066688877,0.00351654997372838,-0.41659901290437484,0.9090821364096864,0.0,0.0,0.0,0.0,0.0,0.0,0.0,0.0,0.0,-0.0018810456831204975,0.00034363809546788447,-0.03608477546916095,0.0,0.0,0.0,0.0,0.0,0.0,0.0,0.0,0.0,0.10313183599669995,0.7182496080972358,0.005311300772833133,0.0,0.0,0.0,0.0,0.0,0.0,0.0,0.0,0.0
8.221,235,8,221000000,base_footprint,0.0016028660652947005,0.003515684980412013,-0.4169601072573844,0.9089165746840608,0.0,0.0,0.0,0.0,0.0,0.0,0.0,0.0,0.0,0.00014195267391538762,7.761124743343007e-05,-0.0006030603633892203,0.0,0.0,0.0,0.0,0.0,0.0,0.0,0.0,0.0,-0.06271787819572841,-0.38598828943177904,-0.004364257053483481,0.0,0.0,0.0,0.0,0.0,0.0,0.0,0.0,0.0
8.255,236,8,255000000,base_footprint,0.0016033056737193366,0.0035196674796293334,-0.4169887618860591,0.908903412807148,0.0,0.0,0.0,0.0,0.0,0.0,0.0,0.0,0.0,4.938669688064189e-05,5.954577075564359e-05,-0.0021351056692447655,0.0,0.0,0.0,0.0,0.0,0.0,0.0,0.0,0.0,-0.0015610200688177657,-0.007079910767543927,0.0001812167310893813,0.0,0.0,0.0,0.0,0.0,0.0,0.0,0.0,0.0
8.289,237,8,289000000,base_footprint,0.0016034931305137128,0.003524183632868366,-0.4167203108554799,0.9090265075673064,0.0,0.0,0.0,0.0,0.0,0.0,0.0,0.0,0.0,0.000216000439401373,-5.467935842495751e-05,0.019171885987587085,0.0,0.0,0.0,0.0,0.0,0.0,0.0,0.0,0.0,0.002577098945950644,0.0009513301017020135,-0.0002298300526974942,0.0,0.0,0.0,0.0,0.0,0.0,0.0,0.0,0.0
8.323,238,8,323000000,base_footprint,0.001603397494678259,0.003527909955428915,-0.41641349972721514,0.9091670804713252,0.0,0.0,0.0,0.0,0.0,0.0,0.0,0.0,0.0,0.00013100785110057862,-0.00014559171302646278,0.02074025539423314,0.0,0.0,0.0,0.0,0.0,0.0,0.0,0.0,0.0,0.0031348038612991603,-0.0008046647436298998,3.4087252953452036e-05,0.0,0.0,0.0,0.0,0.0,0.0,0.0,0.0,0.0
8.357,239,8,357000000,base_footprint,0.0016035675367886753,0.0035294231899416933,-0.41608149090546825,0.9093190664827082,0.0,0.0,0.0,0.0,0.0,0.0,0.0,0.0,0.0,-2.987004144944912e-05,-0.000189495422132567,0.022192498563498773,0.0,0.0,0.0,0.0,0.0,0.0,0.0,0.0,0.0,0.004110343894901935,0.004479668189414925,0.00032125663973674287,0.0,0.0,0.0,0.0,0.0,0.0,0.0,0.0,0.0
8.391,240,8,391000000,base_footprint,0.001598073659458233,0.003516730844203247,-0.4153266239698112,0.9096641546123424,0.0,0.0,0.0,0.0,0.0,0.0,0.0,0.0,0.0,0.00017455833966280917,-0.0015232680827837709,0.07245070337185967,0.0,0.0,0.0,0.0,0.0,0.0,0.0,0.0,0.0,-0.0037657415293605237,-0.12048142621449764,-0.00017567524137200168,0.0,0.0,0.0,0.0,0.0,0.0,0.0,0.0,0.0
8.425,241,8,425000000,base_footprint,0.0016003683121962684,0.003513222726285281,-0.41418385395714097,0.9101850532768326,0.0,0.0,0.0,0.0,0.0,0.0,0.0,0.0,0.0,0.0004029872002255046,-0.00017286182964690105,0.06100599445770283,0.0,0.0,0.0,0.0,0.0,0.0,0.0,0.0,0.0,0.0214568429024439,0.025937928925167032,0.001049262960365868,0.0,0.0,0.0,0.0,0.0,0.0,0.0,0.0,0.0
8.459,242,8,459000000,base_footprint,0.0015988614692309128,0.003516530264640289,-0.41378804288706106,0.9103650549206049,0.0,0.0,0.0,0.0,0.0,0.0,0.0,0.0,0.0,0.010634316185882238,0.0008925983324912889,-5.970667622397489e-05,0.0,0.0,0.0,0.0,0.0,0.0,0.0,0.0,0.0,-0.0022262681954523765,-0.03736451112135236,-0.021719392747547674,0.0,0.0,0.0,0.0,0.0,0.0,0.0,0.0,0.0
8.493,243,8,493000000,base_footprint,0.0015885711824684186,0.0035207623291176127,-0.41336351739466515,0.9105578966553036,0.0,0.0,0.0,0.0,0.0,0.0,0.0,0.0,0.0,-0.006955530060741293,0.0014452342372712975,0.02941897582782877,0.0,0.0,0.0,0.0,0.0,0.0,0.0,0.0,0.0,0.05872876855044251,0.3962718389919237,0.03353598581409348,0.0,0.0,0.0,0.0,0.0,0.0,0.0,0.0,0.0
8.527,244,8,527000000,base_footprint,0.001593347022369011,0.003527417420246743,-0.41345616192531504,0.9105157992795059,0.0,0.0,0.0,0.0,0.0,0.0,0.0,0.0,0.0,0.0003476959042351125,0.0005264041644627515,-0.03438505093724088,0.0,0.0,0.0,0.0,0.0,0.0,0.0,0.0,0.0,-0.03015119735908517,-0.25569802637830963,-0.01408743880155193,0.0,0.0,0.0,0.0,0.0,0.0,0.0,0.0,0.0
8.561,245,8,561000000,base_footprint,0.0015895249115248772,0.003513294474933194,-0.4139897520362688,0.9102733739824739,0.0,0.0,0.0,0.0,0.0,0.0,0.0,0.0,0.0,-0.006163492343035388,0.0013102393455832466,-0.03945056343950652,0.0,0.0,0.0,0.0,0.0,0.0,0.0,0.0,0.0,-0.021895835715906378,-0.07281772546263121,0.009361317658682825,0.0,0.0,0.0,0.0,0.0,0.0,0.0,0.0,0.0
8.595,246,8,595000000,base_footprint,0.001593121490007043,0.0035192463653508648,-0.4141872880844581,0.9101834799963028,0.0,0.0,0.0,0.0,0.0,0.0,0.0,0.0,0.0,-0.0014598218723608832,9.0008573003999e-05,0.012767287019128189,0.0,0.0,0.0,0.0,0.0,0.0,0.0,0.0,0.0,-0.03779507611646679,-0.25695204263025717,-0.007602422976214252,0.0,0.0,0.0,0.0,0.0,0.0,0.0,0.0,0.0
8.629,247,8,629000000,base_footprint,0.001591484642801173,0.003518337737327902,-0.4139889525018773,0.9102737147048664,0.0,0.0,0.0,0.0,0.0,0.0,0.0,0.0,0.0,-0.00016490527859937764,-6.901987677549547e-05,0.012609081422449379,0.0,0.0,0.0,0.0,0.0,0.0,0.0,0.0,0.0,0.00211154991598937,-0.005356667839758481,-0.001710962967166781,0.0,0.0,0.0,0.0,0.0,0.0,0.0,0.0,0.0
8.663,248,8,663000000,base_footprint,0.0015916632419704947,0.003518799779610783,-0.41395058203078994,0.9102911623720212,0.0,0.0,0.0,0.0,0.0,0.0,0.0,0.0,0.0,-0.0011008587729437428,0.0007101719883393599,-0.08345604934612301,0.0,0.0,0.0,0.0,0.0,0.0,0.0,0.0,0.0,-0.002735617426084973,-0.009566557181419886,0.0005150065807957634,0.0,0.0,0.0,0.0,0.0,0.0,0.0,0.0,0.0
8.697,249,8,697000000,base_footprint,0.0015975926261636033,0.0035180143894394727,-0.4156698816170425,0.9095073505964812,0.0,0.0,0.0,0.0,0.0,0.0,0.0,0.0,0.0,-0.0006370672498460729,0.0006846991257510302,-0.11192758608858322,0.0,0.0,0.0,0.0,0.0,0.0,0.0,0.0,0.0,-0.02615707300000713,-0.03077615517625617,-0.0009385238502713318,0.0,0.0,0.0,0.0,0.0,0.0,0.0,0.0,0.0
8.731,250,8,731000000,base_footprint,0.0016044496532642222,0.0035186886631631154,-0.41740226568005095,0.9087135924902643,0.0,0.0,0.0,0.0,0.0,0.0,0.0,0.0,0.0,-0.0005092593653043415,0.0007172873108548791,-0.11226369568867452,0.0,0.0,0.0,0.0,0.0,0.0,0.0,0.0,0.0,-0.02535775728331341,-0.001531602093769421,-0.00016533473157344955,0.0,0.0,0.0,0.0,0.0,0.0,0.0,0.0,0.0
8.765,251,8,765000000,base_footprint,0.0016095874755594,0.0035169245857078445,-0.41896080208626235,0.907996083022858,0.0,0.0,0.0,0.0,0.0,0.0,0.0,0.0,0.0,0.001914093008170126,0.0025660449038066233,-0.03817877841936848,0.0,0.0,0.0,0.0,0.0,0.0,0.0,0.0,0.0,-0.025173004365984027,0.018469754680304238,-0.0033832456801914405,0.0,0.0,0.0,0.0,0.0,0.0,0.0,0.0,0.0
8.798,252,8,799000000,base_footprint,0.0016157153157912562,0.0035223113532578546,-0.4195572210331357,0.9077206183984704,0.0,0.0,0.0,0.0,0.0,0.0,0.0,0.0,0.0,-0.00018712666578635795,0.00021482809648667127,-0.03851431210043783,0.0,0.0,0.0,0.0,0.0,0.0,0.0,0.0,0.0,-0.004600124062512474,0.002496921042728902,0.0034991282121545437,0.0,0.0,0.0,0.0,0.0,0.0,0.0,0.0,0.0
8.833,253,8,833000000,base_footprint,0.0016192776867552704,0.0035221317744567712,-0.42013491983862483,0.9074533716173679,0.0,0.0,0.0,0.0,0.0,0.0,0.0,0.0,0.0,-0.00033129999278693227,0.00016048128984485103,-0.03631280280379687,0.0,0.0,0.0,0.0,0.0,0.0,0.0,0.0,0.0,-0.008410976724247498,0.00808939115902511,0.00039847996256976384,0.0,0.0,0.0,0.0,0.0,0.0,0.0,0.0,0.0
8.867,254,8,867000000,base_footprint,0.0016191157536652302,0.0035145946458135205,-0.4205963200133478,0.907239638507865,0.0,0.0,0.0,0.0,0.0,0.0,0.0,0.0,0.0,-0.0009588881169939976,0.0007606700312423238,-0.006785516627734589,0.0,0.0,0.0,0.0,0.0,0.0,0.0,0.0,0.0,0.0015695614212371935,-0.004175419906616908,0.001099910066676958,0.0,0.0,0.0,0.0,0.0,0.0,0.0,0.0,0.0
8.901,255,8,901000000,base_footprint,0.0016208219045497675,0.003512736438028452,-0.42010416423998737,0.9074676439451119,0.0,0.0,0.0,0.0,0.0,0.0,0.0,0.0,0.0,0.0004161698226747619,-0.0003249453759831039,0.059482988409276766,0.0,0.0,0.0,0.0,0.0,0.0,0.0,0.0,0.0,0.01335782591234992,0.06556951981883014,-0.0016828175420297525,0.0,0.0,0.0,0.0,0.0,0.0,0.0,0.0,0.0
8.935,256,8,935000000,base_footprint,0.0016177553149448998,0.0035192165764498066,-0.41956511449136336,0.9077169782945995,0.0,0.0,0.0,0.0,0.0,0.0,0.0,0.0,0.0,-0.00012547520077511078,-0.00020902845003132063,0.02503560591283801,0.0,0.0,0.0,0.0,0.0,0.0,0.0,0.0,0.0,0.010509070817256135,0.01787816434168808,0.0014391417308751017,0.0,0.0,0.0,0.0,0.0,0.0,0.0,0.0,0.0
8.969,257,8,969000000,base_footprint,0.0016127185344170837,0.003515365061072836,-0.4190073394767492,0.9079746091229822,0.0,0.0,0.0,0.0,0.0,0.0,0.0,0.0,0.0,-0.0017848176385058649,6.925823501687477e-05,0.061243401040486395,0.0,0.0,0.0,0.0,0.0,0.0,0.0,0.0,0.0,0.035103317926960274,0.1616958878060549,0.005151483879109171,0.0,0.0,0.0,0.0,0.0,0.0,0.0,0.0,0.0
9.003,258,9,3000000,base_footprint,0.00160528228649145,0.0035060566752794773,-0.4176870768856504,0.9085827625693167,0.0,0.0,0.0,0.0,0.0,0.0,0.0,0.0,0.0,0.0009754645287758508,-0.0024659278108190045,0.07721629580292913,0.0,0.0,0.0,0.0,0.0,0.0,0.0,0.0,0.0,0.05434273632112153,0.2644831464283257,-0.005411930285237955,0.0,0.0,0.0,0.0,0.0,0.0,0.0,0.0,0.0
9.037,259,9,37000000,base_footprint,0.0016062638270491726,0.0035177065483049793,-0.4169719550556307,0.9089111256631438,0.0,0.0,0.0,0.0,0.0,0.0,0.0,0.0,0.0,-6.112429438529262e-05,-0.00030811922560633747,0.03925905988117464,0.0,0.0,0.0,0.0,0.0,0.0,0.0,0.0,0.0,-0.009308522633777197,-0.131392815371905,0.0016074807232521991,0.0,0.0,0.0,0.0,0.0,0.0,0.0,0.0,0.0
9.071,260,9,71000000,base_footprint,0.0015995953228248828,0.003508148855771514,-0.4164356107755531,0.9091570360858464,0.0,0.0,0.0,0.0,0.0,0.0,0.0,0.0,0.0,0.0009103544254454108,-0.0019454026570437286,0.01483433766772247,0.0,0.0,0.0,0.0,0.0,0.0,0.0,0.0,0.0,-0.029577156685189204,-0.25404301544268204,-0.0037721275928198753,0.0,0.0,0.0,0.0,0.0,0.0,0.0,0.0,0.0
9.105,261,9,105000000,base_footprint,0.001602284850568772,0.0035137437256655534,-0.41668364307321687,0.9090433586378155,0.0,0.0,0.0,0.0,0.0,0.0,0.0,0.0,0.0,-0.0004026299287948762,0.0001394234473083464,-0.01985980153944447,0.0,0.0,0.0,0.0,0.0,0.0,0.0,0.0,0.0,-0.0201139771918917,-0.10990314777309731,0.0019285873636830432,0.0,0.0,0.0,0.0,0.0,0.0,0.0,0.0,0.0
9.14,262,9,139000000,base_footprint,0.0016028680851738635,0.00351337383845804,-0.41699340698736487,0.9089013068244773,0.0,0.0,0.0,0.0,0.0,0.0,0.0,0.0,0.0,-0.00026335717642983155,0.00013959185886268347,-0.020283956092037404,0.0,0.0,0.0,0.0,0.0,0.0,0.0,0.0,0.0,-0.0051356544662886205,-0.005099934445501459,-0.00024978871478690336,0.0,0.0,0.0,0.0,0.0,0.0,0.0,0.0,0.0
9.173,263,9,173000000,base_footprint,0.001601848504392925,0.003515278808269952,-0.41684725295066327,0.9089683408148795,0.0,0.0,0.0,0.0,0.0,0.0,0.0,0.0,0.0,-0.0005876277260017075,-0.00022517062825102793,0.052719726220997215,0.0,0.0,0.0,0.0,0.0,0.0,0.0,0.0,0.0,0.0010853101347726036,0.014124133742548551,0.0009713503649714598,0.0,0.0,0.0,0.0,0.0,0.0,0.0,0.0,0.0
9.207,264,9,207000000,base_footprint,0.001598997038480975,0.003519835001669861,-0.4160428213896997,0.9093368048969153,0.0,0.0,0.0,0.0,0.0,0.0,0.0,0.0,0.0,0.000298802673634706,-0.00025377741038505884,0.051847604701580514,0.0,0.0,0.0,0.0,0.0,0.0,0.0,0.0,0.0,0.012436745182261804,-0.007872847146790325,-0.0014305153944626442,0.0,0.0,0.0,0.0,0.0,0.0,0.0,0.0,0.0
9.241,265,9,241000000,base_footprint,0.0015968847220665,0.0035257671987135478,-0.41523975247574735,0.9097037797485097,0.0,0.0,0.0,0.0,0.0,0.0,0.0,0.0,0.0,0.00036086421054634546,-0.00021530848236793132,0.05208152267027232,0.0,0.0,0.0,0.0,0.0,0.0,0.0,0.0,0.0,0.009997791567173415,-0.005506057419173122,-0.00033112980871747346,0.0,0.0,0.0,0.0,0.0,0.0,0.0,0.0,0.0
9.275,266,9,275000000,base_footprint,0.0015930240314794117,0.003516004411535573,-0.414552824279756,0.9100170635043561,0.0,0.0,0.0,0.0,0.0,0.0,0.0,0.0,0.0,-0.001119771657584596,-5.2357126456824396e-05,0.024391642468422972,0.0,0.0,0.0,0.0,0.0,0.0,0.0,0.0,0.0,0.0546617770842443,0.3009953383289258,0.0034797948362056013,0.0,0.0,0.0,0.0,0.0,0.0,0.0,0.0,0.0
9.309,267,9,309000000,base_footprint,0.001594194428902288,0.0035203146319465685,-0.4143579613405695,0.9101057882481036,0.0,0.0,0.0,0.0,0.0,0.0,0.0,0.0,0.0,0.00048415777531695146,-0.0002613417761058158,0.028214482910632728,0.0,0.0,0.0,0.0,0.0,0.0,0.0,0.0,0.0,0.009802040951649781,0.07085136885692654,-0.0014934073114188646,0.0,0.0,0.0,0.0,0.0,0.0,0.0,0.0,0.0
9.343,268,9,343000000,base_footprint,0.0015949433137411929,0.0035321067012386094,-0.4137013235589625,0.910404413029528,0.0,0.0,0.0,0.0,0.0,0.0,0.0,0.0,0.0,-8.194411775289549e-05,-0.00028660873084630014,0.04573060502717837,0.0,0.0,0.0,0.0,0.0,0.0,0.0,0.0,0.0,-0.0005858594616610455,-0.036402049444626314,0.00031680129948658594,0.0,0.0,0.0,0.0,0.0,0.0,0.0,0.0,0.0
9.377,269,9,377000000,base_footprint,0.0015910581680705735,0.003519112016898925,-0.4127998966092221,0.9108135537770252,0.0,0.0,0.0,0.0,0.0,0.0,0.0,0.0,0.0,-0.0010382329329807827,0.0003312147219102377,0.07012939695467306,0.0,0.0,0.0,0.0,0.0,0.0,0.0,0.0,0.0,0.01721095282804394,0.005585933521996473,-0.0005639800446806743,0.0,0.0,0.0,0.0,0.0,0.0,0.0,0.0,0.0
9.411,270,9,411000000,base_footprint,0.0015866004110057699,0.0035147160887903117,-0.41207090164022264,0.9111436228670896,0.0,0.0,0.0,0.0,0.0,0.0,0.0,0.0,0.0,-0.0004665872535347161,0.0005946031533879048,0.015617584362580268,0.0,0.0,0.0,0.0,0.0,0.0,0.0,0.0,0.0,0.009474299633297312,-0.03989112772148436,0.0007840739285521364,0.0,0.0,0.0,0.0,0.0,0.0,0.0,0.0,0.0
9.445,271,9,445000000,base_footprint,0.0015734629707574344,0.0035173590636152804,-0.4123068260653786,0.9110369002292887,0.0,0.0,0.0,0.0,0.0,0.0,0.0,0.0,0.0,0.0013242608497285547,0.0018975078032712127,-0.041458742168518706,0.0,0.0,0.0,0.0,0.0,0.0,0.0,0.0,0.0,-0.03051390379550213,-0.19077900915544704,-0.005458691287648609,0.0,0.0,0.0,0.0,0.0,0.0,0.0,0.0,0.0
9.479,272,9,479000000,base_footprint,0.001589090712782052,0.003530338275242299,-0.41262240375642933,0.9108939364276366,0.0,0.0,0.0,0.0,0.0,0.0,0.0,0.0,0.0,-0.0008749139583367114,0.00027424630450867887,0.006437811142425165,0.0,0.0,0.0,0.0,0.0,0.0,0.0,0.0,0.0,0.0420603354478684,0.35769351480606887,0.006496000774677964,0.0,0.0,0.0,0.0,0.0,0.0,0.0,0.0,0.0
9.513,273,9,513000000,base_footprint,0.0015792095256271824,0.0035134141721992595,-0.4124647493529745,0.9109654178723344,0.0,0.0,0.0,0.0,0.0,0.0,0.0,0.0,0.0,0.0010405301554425623,0.001741865767136994,-0.005769146848153795,0.0,0.0,0.0,0.0,0.0,0.0,0.0,0.0,0.0,-0.006380612553280457,-0.060056244026585874,-0.0037855899772024923,0.0,0.0,0.0,0.0,0.0,0.0,0.0,0.0,0.0
9.547,274,9,547000000,base_footprint,0.0015860133320058044,0.0035240973398847947,-0.4124837122875197,0.9109567785560172,0.0,0.0,0.0,0.0,0.0,0.0,0.0,0.0,0.0,-0.00044629436435788644,1.5313846611689886e-05,-0.0005751686158456254,0.0,0.0,0.0,0.0,0.0,0.0,0.0,0.0,0.0,-0.0074715944125128796,-0.06169557232340114,0.002962370758120205,0.0,0.0,0.0,0.0,0.0,0.0,0.0,0.0,0.0
9.581,275,9,581000000,base_footprint,0.0015840847384921421,0.0035212538294168328,-0.4124416571996514,0.9109758343959599,0.0,0.0,0.0,0.0,0.0,0.0,0.0,0.0,0.0,0.0020386332810117835,-0.0014767582108084622,0.030475360228580668,0.0,0.0,0.0,0.0,0.0,0.0,0.0,0.0,0.0,-0.043368796993416586,-0.3327045447002732,-0.0046729656426245545,0.0,0.0,0.0,0.0,0.0,0.0,0.0,0.0,0.0
9.615,276,9,615000000,base_footprint,0.0015821402823901016,0.0035222779628076477,-0.41195969810176375,0.9111938858058604,0.0,0.0,0.0,0.0,0.0,0.0,0.0,0.0,0.0,-5.08226656595959e-05,-0.0001770650185291252,0.03100741645481066,0.0,0.0,0.0,0.0,0.0,0.0,0.0,0.0,0.0,0.005967308008970429,-0.00888121869263317,0.002486287061198765,0.0,0.0,0.0,0.0,0.0,0.0,0.0,0.0,0.0
9.649000000000001,277,9,649000000,base_footprint,0.0015801747902705254,0.0035240614978612186,-0.4114811425369433,0.9114100906697726,0.0,0.0,0.0,0.0,0.0,0.0,0.0,0.0,0.0,4.634235834118331e-05,-0.0001714497619903147,0.03072868841368647,0.0,0.0,0.0,0.0,0.0,0.0,0.0,0.0,0.0,0.005926462070171998,-0.006489686081550172,-0.0002604517634385178,0.0,0.0,0.0,0.0,0.0,0.0,0.0,0.0,0.0
9.683,278,9,683000000,base_footprint,0.001580176243919918,0.0035270822748890577,-0.411375182889414,0.9114579099642318,0.0,0.0,0.0,0.0,0.0,0.0,0.0,0.0,0.0,7.551216124749681e-06,2.609932927549239e-05,-0.001669467421950041,0.0,0.0,0.0,0.0,0.0,0.0,0.0,0.0,0.0,-0.0002008052220176951,-0.01403683579190031,-0.0003212532920851693,0.0,0.0,0.0,0.0,0.0,0.0,0.0,0.0,0.0
9.717,279,9,717000000,base_footprint,0.0015809621468799932,0.00353151870505587,-0.41140159959346667,0.9114459681112551,0.0,0.0,0.0,0.0,0.0,0.0,0.0,0.0,0.0,0.00011533744299146106,5.2097860750921845e-05,-0.001761068543152137,0.0,0.0,0.0,0.0,0.0,0.0,0.0,0.0,0.0,-0.0010170941932569583,-0.004801803454171058,-0.0003005925620308771,0.0,0.0,0.0,0.0,0.0,0.0,0.0,0.0,0.0
9.751,280,9,751000000,base_footprint,0.0015831015865511939,0.003535360210679132,-0.4114240837780362,0.9114358004297125,0.0,0.0,0.0,0.0,0.0,0.0,0.0,0.0,0.0,4.42538571183224e-05,-7.26507583523876e-06,-0.0010215699351061123,0.0,0.0,0.0,0.0,0.0,0.0,0.0,0.0,0.0,-0.001330911214443087,-0.002090544032326854,-7.753031885450043e-05,0.0,0.0,0.0,0.0,0.0,0.0,0.0,0.0,0.0
9.785,281,9,785000000,base_footprint,0.0015860423925712437,0.0035374299287681383,-0.41175306631762604,0.9112872123743759,0.0,0.0,0.0,0.0,0.0,0.0,0.0,0.0,0.0,-0.00014454972390806826,0.00010854553954213142,-0.025203678576373335,0.0,0.0,0.0,0.0,0.0,0.0,0.0,0.0,0.0,-0.005345477218509224,-0.001469169723832405,7.970080100198128e-05,0.0,0.0,0.0,0.0,0.0,0.0,0.0,0.0,0.0
9.819,282,9,819000000,base_footprint,0.0015886679144262246,0.003535691116105086,-0.4121339009956332,0.9111150435991665,0.0,0.0,0.0,0.0,0.0,0.0,0.0,0.0,0.0,-0.000386782322332178,5.6970766120133186e-05,-0.02325611207003754,0.0,0.0,0.0,0.0,0.0,0.0,0.0,0.0,0.0,-0.006081233515427022,0.010715509032807942,0.0006500974329821006,0.0,0.0,0.0,0.0,0.0,0.0,0.0,0.0,0.0
9.853,283,9,853000000,base_footprint,0.0015923086169589529,0.003528685387211399,-0.4124057266914784,0.9109920578823836,0.0,0.0,0.0,0.0,0.0,0.0,0.0,0.0,0.0,-0.00013613407549155408,-4.4104703538800944e-05,-0.008436496063555697,0.0,0.0,0.0,0.0,0.0,0.0,0.0,0.0,0.0,0.005215082688961365,0.05058256574191538,-0.0001077956450074249,0.0,0.0,0.0,0.0,0.0,0.0,0.0,0.0,0.0
9.887,284,9,887000000,base_footprint,0.0015864575034728729,0.003531070208764405,-0.41237552240842124,0.9110057317131173,0.0,0.0,0.0,0.0,0.0,0.0,0.0,0.0,0.0,0.0010464562408213486,-0.00016007934381647376,-0.0013184444472159349,0.0,0.0,0.0,0.0,0.0,0.0,0.0,0.0,0.0,0.009549681527933809,0.07891678529489243,-0.0016936167922104771,0.0,0.0,0.0,0.0,0.0,0.0,0.0,0.0,0.0
9.921,285,9,921000000,base_footprint,0.0015816740033717568,0.003529315780360946,-0.41235098075186427,0.9110168554480458,0.0,0.0,0.0,0.0,0.0,0.0,0.0,0.0,0.0,1.4747353995057456e-05,-0.0004161015883216757,0.015353264650134063,0.0,0.0,0.0,0.0,0.0,0.0,0.0,0.0,0.0,-0.00277745943181067,-0.046182042956112834,0.0013688467090065,0.0,0.0,0.0,0.0,0.0,0.0,0.0,0.0,0.0
9.955,286,9,955000000,base_footprint,0.0015858521140798294,0.0035309964444346807,-0.4118727647664371,0.9112331440311162,0.0,0.0,0.0,0.0,0.0,0.0,0.0,0.0,0.0,-0.00017284823715038925,-2.17581422809794e-05,0.03508235267290631,0.0,0.0,0.0,0.0,0.0,0.0,0.0,0.0,0.0,0.0017778234361434317,-0.04344474883068142,0.0007217079299261459,0.0,0.0,0.0,0.0,0.0,0.0,0.0,0.0,0.0
9.989,287,9,989000000,base_footprint,0.0015840900244393022,0.0035282578295685843,-0.4116851514762849,0.9113179347019519,0.0,0.0,0.0,0.0,0.0,0.0,0.0,0.0,0.0,-0.00027262128503012257,-0.00018661072335862287,0.00975784630013543,0.0,0.0,0.0,0.0,0.0,0.0,0.0,0.0,0.0,0.0002386807295007209,-0.011933147081388424,0.00010185923998700866,0.0,0.0,0.0,0.0,0.0,0.0,0.0,0.0,0.0
10.023,288,10,23000000,base_footprint,0.0015824672005933797,0.0035252458203999847,-0.41153705036809896,0.9113848389203045,0.0,0.0,0.0,0.0,0.0,0.0,0.0,0.0,0.0,-0.0003141798624541295,-5.16344788139291e-05,0.00937843391358874,0.0,0.0,0.0,0.0,0.0,0.0,0.0,0.0,0.0,0.0010346730146918244,-0.0056880359600582,0.00013524721749842125,0.0,0.0,0.0,0.0,0.0,0.0,0.0,0.0,0.0
10.057,289,10,57000000,base_footprint,0.0015807864154357303,0.003523533931934898,-0.4113939914779679,0.9114494333745373,0.0,0.0,0.0,0.0,0.0,0.0,0.0,0.0,0.0,-0.00022102981485150173,-5.4994339855596745e-05,0.009055177552345854,0.0,0.0,0.0,0.0,0.0,0.0,0.0,0.0,0.0,0.0013009244762915767,-0.005973821912500033,-0.00022105413422508823,0.0,0.0,0.0,0.0,0.0,0.0,0.0,0.0,0.0
10.091,290,10,91000000,base_footprint,0.0015792818134199485,0.0035236178749353496,-0.411138185815627,0.9115648535075604,0.0,0.0,0.0,0.0,0.0,0.0,0.0,0.0,0.0,-9.336045785321014e-05,-9.709361680995306e-05,0.016516864904798402,0.0,0.0,0.0,0.0,0.0,0.0,0.0,0.0,0.0,0.0030141393970349742,-0.00412261529340662,-0.00021263218485364154,0.0,0.0,0.0,0.0,0.0,0.0,0.0,0.0,0.0
10.125,291,10,125000000,base_footprint,0.0015782576830025829,0.003525237941081748,-0.4108843896210778,0.9116792748361998,0.0,0.0,0.0,0.0,0.0,0.0,0.0,0.0,0.0,-1.5647378234753987e-05,-8.593641270736682e-05,0.01619973557476796,0.0,0.0,0.0,0.0,0.0,0.0,0.0,0.0,0.0,0.0027577587927573675,-0.006092576171989335,-0.00022142021860260678,0.0,0.0,0.0,0.0,0.0,0.0,0.0,0.0,0.0
10.159,292,10,159000000,base_footprint,0.0015787099019241154,0.003527958986671316,-0.41061856220355214,0.9117990225671014,0.0,0.0,0.0,0.0,0.0,0.0,0.0,0.0,0.0,0.00013124739867507773,-0.000903402585247369,0.039616871724269004,0.0,0.0,0.0,0.0,0.0,0.0,0.0,0.0,0.0,0.00529433291267869,-0.0028750504435625414,-0.000655700777694872,0.0,0.0,0.0,0.0,0.0,0.0,0.0,0.0,0.0
10.193,293,10,193000000,base_footprint,0.001575043552727459,0.0035346637855437056,-0.40975490934953523,0.9121874476518981,0.0,0.0,0.0,0.0,0.0,0.0,0.0,0.0,0.0,0.0004773100148361397,-0.00023469787992946715,0.055621060445559874,0.0,0.0,0.0,0.0,0.0,0.0,0.0,0.0,0.0,0.009925273281877079,0.0013264758827622697,-0.00012516322603825424,0.0,0.0,0.0,0.0,0.0,0.0,0.0,0.0,0.0
10.227,294,10,227000000,base_footprint,0.0015731898260647815,0.0035402927687555857,-0.4088890068569999,0.9125758990201194,0.0,0.0,0.0,0.0,0.0,0.0,0.0,0.0,0.0,0.00037551438148461595,-0.00029911926123710045,0.05587161217573032,0.0,0.0,0.0,0.0,0.0,0.0,0.0,0.0,0.0,0.01041449869614648,-0.0042050054700828845,-2.2270945796860208e-05,0.0,0.0,0.0,0.0,0.0,0.0,0.0,0.0,0.0
10.261,295,10,261000000,base_footprint,0.0015699629552925081,0.003541970549809918,-0.40804924521865715,0.912951698140393,0.0,0.0,0.0,0.0,0.0,0.0,0.0,0.0,0.0,-0.0020791241864318542,-0.0030511893260043318,0.030394893651173423,0.0,0.0,0.0,0.0,0.0,0.0,0.0,0.0,0.0,0.009668315689048752,0.002684455238362318,0.004264917337054093,0.0,0.0,0.0,0.0,0.0,0.0,0.0,0.0,0.0
10.295,296,10,295000000,base_footprint,0.0015717714388185835,0.003543829603360971,-0.40782559496824117,0.9130516167748058,0.0,0.0,0.0,0.0,0.0,0.0,0.0,0.0,0.0,-0.0003140334231122436,-0.00017689413803996987,0.01783034950930243,0.0,0.0,0.0,0.0,0.0,0.0,0.0,0.0,0.0,0.0019547094505515073,-0.001245443101156484,-0.003402194693090754,0.0,0.0,0.0,0.0,0.0,0.0,0.0,0.0,0.0
10.329,297,10,329000000,base_footprint,0.001571745433353139,0.003536714159609052,-0.40745668656985756,0.913216332441968,0.0,0.0,0.0,0.0,0.0,0.0,0.0,0.0,0.0,4.063205635403323e-06,-0.00024642688055927974,0.031605786008947465,0.0,0.0,0.0,0.0,0.0,0.0,0.0,0.0,0.0,0.015258732058144106,0.053160280182376646,-0.00023031079384634476,0.0,0.0,0.0,0.0,0.0,0.0,0.0,0.0,0.0
10.363,298,10,363000000,base_footprint,0.0015734093723219797,0.0035390993041712754,-0.407214069042543,0.9133245322079537,0.0,0.0,0.0,0.0,0.0,0.0,0.0,0.0,0.0,-0.0003045240105655659,-0.0008055050408040598,-0.006165633669190698,0.0,0.0,0.0,0.0,0.0,0.0,0.0,0.0,0.0,0.007598877720583167,0.002642869657194454,-0.00020041419201668345,0.0,0.0,0.0,0.0,0.0,0.0,0.0,0.0,0.0
10.397,299,10,397000000,base_footprint,0.0015728943112932733,0.0035412010376230743,-0.40740116328419085,0.91324108429997,0.0,0.0,0.0,0.0,0.0,0.0,0.0,0.0,0.0,-0.0005407723490980746,0.0005153649520212174,-0.011301726202550048,0.0,0.0,0.0,0.0,0.0,0.0,0.0,0.0,0.0,-0.006906290707194566,-0.03745670644818928,0.000607214539172643,0.0,0.0,0.0,0.0,0.0,0.0,0.0,0.0,0.0
10.431000000000001,300,10,431000000,base_footprint,0.0015709215681528747,0.0035381649126358934,-0.4075761129051144,0.913163033517912,0.0,0.0,0.0,0.0,0.0,0.0,0.0,0.0,0.0,-0.0002478836419313383,0.0001407959614994936,-0.01124948075353312,0.0,0.0,0.0,0.0,0.0,0.0,0.0,0.0,0.0,-0.003922265066631308,-0.00037663781404828384,-0.00044625693762649193,0.0,0.0,0.0,0.0,0.0,0.0,0.0,0.0,0.0
10.465,301,10,465000000,base_footprint,0.0015679954653501974,0.0035295169622798247,-0.40758105114611437,0.9131608678906812,0.0,0.0,0.0,0.0,0.0,0.0,0.0,0.0,0.0,-0.002730202675185467,-0.0035272378673787625,0.05865516155228035,0.0,0.0,0.0,0.0,0.0,0.0,0.0,0.0,0.0,0.0024213556000291826,0.022283638639793515,0.0027377493769879494,0.0,0.0,0.0,0.0,0.0,0.0,0.0,0.0,0.0
10.499,302,10,499000000,base_footprint,0.0015643806689611094,0.0035324548649696436,-0.4066783588550323,0.9135632364071615,0.0,0.0,0.0,0.0,0.0,0.0,0.0,0.0,0.0,3.5180739070818866e-07,-0.0003497889935876137,0.05746174645294278,0.0,0.0,0.0,0.0,0.0,0.0,0.0,0.0,0.0,0.010162093660816919,-0.015487865015635292,-0.002292873886868438,0.0,0.0,0.0,0.0,0.0,0.0,0.0,0.0,0.0
10.533,303,10,533000000,base_footprint,0.001560050990859939,0.0035322813744573865,-0.40578868494186465,0.9139587695308523,0.0,0.0,0.0,0.0,0.0,0.0,0.0,0.0,0.0,4.073100512121754e-05,-0.00033826079496910693,0.057066412375885174,0.0,0.0,0.0,0.0,0.0,0.0,0.0,0.0,0.0,0.011946142792206944,-0.007162189966611814,-0.00021640853166190164,0.0,0.0,0.0,0.0,0.0,0.0,0.0,0.0,0.0
10.567,304,10,567000000,base_footprint,0.0015596959694543673,0.0035399873380007668,-0.4049068511910568,0.9143497567652507,0.0,0.0,0.0,0.0,0.0,0.0,0.0,0.0,0.0,-0.00408985941341091,1.0821097163350767e-05,0.05570365543065757,0.0,0.0,0.0,0.0,0.0,0.0,0.0,0.0,0.0,0.04032348565151572,0.2774736004634867,0.001410441116176539,0.0,0.0,0.0,0.0,0.0,0.0,0.0,0.0,0.0
10.601,305,10,601000000,base_footprint,0.0015543652866977361,0.0035316445373508964,-0.4047029538089543,0.9144400639810817,0.0,0.0,0.0,0.0,0.0,0.0,0.0,0.0,0.0,0.0008341337522399058,-0.0006953231215695904,-0.004262423630246703,0.0,0.0,0.0,0.0,0.0,0.0,0.0,0.0,0.0,0.019584523731510574,0.1743647101121729,0.0005373611936052113,0.0,0.0,0.0,0.0,0.0,0.0,0.0,0.0,0.0
10.635,306,10,635000000,base_footprint,0.001553442644446722,0.003538867833799203,-0.40407588024356683,0.9147173039993243,0.0,0.0,0.0,0.0,0.0,0.0,0.0,0.0,0.0,0.00022372888063384855,-0.00025712827307316073,0.047493582971236535,0.0,0.0,0.0,0.0,0.0,0.0,0.0,0.0,0.0,-0.0052962618117255375,-0.13338971499800512,-0.0009129573710933638,0.0,0.0,0.0,0.0,0.0,0.0,0.0,0.0,0.0
10.668,307,10,669000000,base_footprint,0.0015493858543320193,0.0035368439966249852,-0.4033341591651104,0.9150446143159312,0.0,0.0,0.0,0.0,0.0,0.0,0.0,0.0,0.0,0.00022939446486123943,-0.0004959642705380445,0.049473788671932764,0.0,0.0,0.0,0.0,0.0,0.0,0.0,0.0,0.0,-0.010724926998849985,-0.2240402682372744,-0.0005104185338957406,0.0,0.0,0.0,0.0,0.0,0.0,0.0,0.0,0.0
10.703,308,10,703000000,base_footprint,0.0015485427705635034,0.003550744991117316,-0.4020680467580538,0.9156015945821957,0.0,0.0,0.0,0.0,0.0,0.0,0.0,0.0,0.0,0.0005312995605044749,-0.00047649854797532674,0.08731961113341255,0.0,0.0,0.0,0.0,0.0,0.0,0.0,0.0,0.0,0.006744627528255179,-0.11479856756349474,-0.001838645142875009,0.0,0.0,0.0,0.0,0.0,0.0,0.0,0.0,0.0
10.736,309,10,737000000,base_footprint,0.0015445439829038436,0.0035562563598811204,-0.4007042105635707,0.9161992703889331,0.0,0.0,0.0,0.0,0.0,0.0,0.0,0.0,0.0,0.0005185496979728057,-0.0004961544470162068,0.08765705438449053,0.0,0.0,0.0,0.0,0.0,0.0,0.0,0.0,0.0,0.018934031574095272,-0.0001661740079115055,-8.745794450985025e-05,0.0,0.0,0.0,0.0,0.0,0.0,0.0,0.0,0.0
10.771,310,10,771000000,base_footprint,0.0015274194959274893,0.0035447209062807647,-0.39937692295048954,0.9167786948647852,0.0,0.0,0.0,0.0,0.0,0.0,0.0,0.0,0.0,-0.0007614380183388545,0.0016180318710796134,0.07731653690726749,0.0,0.0,0.0,0.0,0.0,0.0,0.0,0.0,0.0,0.024587431173010703,0.11306605600988057,0.0028631449798043654,0.0,0.0,0.0,0.0,0.0,0.0,0.0,0.0,0.0
10.805,311,10,805000000,base_footprint,0.0015387332177279982,0.003562988289891452,-0.39834930818658326,0.9172255808043087,0.0,0.0,0.0,0.0,0.0,0.0,0.0,0.0,0.0,0.0012971819993444593,-0.0006647275418695831,0.05788878146382937,0.0,0.0,0.0,0.0,0.0,0.0,0.0,0.0,0.0,0.024963331736711045,0.15828031969698947,-0.0030958072817724395,0.0,0.0,0.0,0.0,0.0,0.0,0.0,0.0,0.0
10.84,312,10,839000000,base_footprint,0.001534900488913602,0.0035538272230181116,-0.39739953690195257,0.9176375223707189,0.0,0.0,0.0,0.0,0.0,0.0,0.0,0.0,0.0,0.00022194390993578574,-7.378607828339476e-05,0.07147023438828277,0.0,0.0,0.0,0.0,0.0,0.0,0.0,0.0,0.0,0.03138362181352422,0.11192871229716204,0.002229149460826144,0.0,0.0,0.0,0.0,0.0,0.0,0.0,0.0,0.0
10.873,313,10,873000000,base_footprint,0.001521023103169075,0.003541672139098519,-0.3964520472999493,0.9180473393234456,0.0,0.0,0.0,0.0,0.0,0.0,0.0,0.0,0.0,0.0012399106815771184,-0.0003000010198767722,0.051712524767478125,0.0,0.0,0.0,0.0,0.0,0.0,0.0,0.0,0.0,0.004186383406279831,-0.10864568762785101,-0.0009950487284821543,0.0,0.0,0.0,0.0,0.0,0.0,0.0,0.0,0.0
10.907,314,10,907000000,base_footprint,0.0015268979242578286,0.003557024108229312,-0.39582584450621217,0.9183174380262886,0.0,0.0,0.0,0.0,0.0,0.0,0.0,0.0,0.0,0.0015507971544699373,0.0008857806426318822,0.023902153183987165,0.0,0.0,0.0,0.0,0.0,0.0,0.0,0.0,0.0,-0.012394979163003222,-0.2635868121482276,-0.003516231350123128,0.0,0.0,0.0,0.0,0.0,0.0,0.0,0.0,0.0
10.941,315,10,941000000,base_footprint,0.001522470221633095,0.0035568794795893806,-0.39545119084309005,0.9184788437158332,0.0,0.0,0.0,0.0,0.0,0.0,0.0,0.0,0.0,-0.00017481742680687344,1.6196443393095398e-05,0.024270559705695374,0.0,0.0,0.0,0.0,0.0,0.0,0.0,0.0,0.0,0.006853853621412586,0.0017927571320429845,0.003062797091228472,0.0,0.0,0.0,0.0,0.0,0.0,0.0,0.0,0.0
10.975,316,10,975000000,base_footprint,0.0015202195080851982,0.003553156816650177,-0.3952617784837395,0.918560390218931,0.0,0.0,0.0,0.0,0.0,0.0,0.0,0.0,0.0,-0.0006053581706128644,-6.969105296010107e-05,7.765843454102691e-06,0.0,0.0,0.0,0.0,0.0,0.0,0.0,0.0,0.0,0.0024801048527231806,-0.012270873800362403,0.0004954757559369788,0.0,0.0,0.0,0.0,0.0,0.0,0.0,0.0,0.0
11.009,317,11,9000000,base_footprint,0.0015195730224928199,0.0035505303463887056,-0.39526279239227996,0.9185599651532534,0.0,0.0,0.0,0.0,0.0,0.0,0.0,0.0,0.0,-0.0002793800312555721,-4.0443049023125734e-05,-0.0002802345928494905,0.0,0.0,0.0,0.0,0.0,0.0,0.0,0.0,0.0,-0.0005901419824375373,-0.005255517534566912,-0.0005107428144374383,0.0,0.0,0.0,0.0,0.0,0.0,0.0,0.0,0.0
11.043,318,11,43000000,base_footprint,0.0015193770582177105,0.0035498509573824006,-0.395270810331798,0.9185565178861772,0.0,0.0,0.0,0.0,0.0,0.0,0.0,0.0,0.0,-0.00019976764907925,-2.6354157199463325e-05,-0.0007410983965954357,0.0,0.0,0.0,0.0,0.0,0.0,0.0,0.0,0.0,-0.0004797604907678711,-0.0057831922748870996,-0.00019299452532997477,0.0,0.0,0.0,0.0,0.0,0.0,0.0,0.0,0.0
11.077,319,11,77000000,base_footprint,0.0015188206319176939,0.0035542457050842034,-0.3948799245171417,0.9187246082122176,0.0,0.0,0.0,0.0,0.0,0.0,0.0,0.0,0.0,-0.0006193965268365487,-0.00011695925950019935,0.0879034703922648,0.0,0.0,0.0,0.0,0.0,0.0,0.0,0.0,0.0,0.02103756542369671,0.35414472590879736,0.002522622547236521,0.0,0.0,0.0,0.0,0.0,0.0,0.0,0.0,0.0
11.111,320,11,111000000,base_footprint,0.0015131107542279843,0.0035553861771089454,-0.39348805388979513,0.9193216092157298,0.0,0.0,0.0,0.0,0.0,0.0,0.0,0.0,0.0,0.00044128046803297355,-0.0005096804520639447,0.08883051725293369,0.0,0.0,0.0,0.0,0.0,0.0,0.0,0.0,0.0,0.02048771042892186,-0.00227635197601351,-0.0011244379560993757,0.0,0.0,0.0,0.0,0.0,0.0,0.0,0.0,0.0
11.145,321,11,145000000,base_footprint,0.001508773689766625,0.0035615169819188846,-0.39210160622410045,0.9199137837836877,0.0,0.0,0.0,0.0,0.0,0.0,0.0,0.0,0.0,0.0005544927512887911,-0.0004973395859269073,0.08854191166873478,0.0,0.0,0.0,0.0,0.0,0.0,0.0,0.0,0.0,0.018077702163960638,-0.005665560433961666,-0.0003816981092341065,0.0,0.0,0.0,0.0,0.0,0.0,0.0,0.0,0.0
11.179,322,11,179000000,base_footprint,0.001504168972419192,0.003560617192276381,-0.39084370715585115,0.9204489426674268,0.0,0.0,0.0,0.0,0.0,0.0,0.0,0.0,0.0,0.000991907846274162,-0.0007942868280982403,0.04618575035590455,0.0,0.0,0.0,0.0,0.0,0.0,0.0,0.0,0.0,0.0063022278587086394,-0.31405643355907964,-0.0026269995398905065,0.0,0.0,0.0,0.0,0.0,0.0,0.0,0.0,0.0
11.213,323,11,213000000,base_footprint,0.0015053567725578434,0.003571819827630862,-0.3903721272437934,0.9206489984110459,0.0,0.0,0.0,0.0,0.0,0.0,0.0,0.0,0.0,0.0001738922019513114,-0.00017078078900622823,0.03001172937016264,0.0,0.0,0.0,0.0,0.0,0.0,0.0,0.0,0.0,0.0026499781999563786,-0.0474340934215917,0.0004582798192879392,0.0,0.0,0.0,0.0,0.0,0.0,0.0,0.0,0.0
11.247,324,11,247000000,base_footprint,0.0015038624131721275,0.003573407486507598,-0.3898996441861636,0.920849193201732,0.0,0.0,0.0,0.0,0.0,0.0,0.0,0.0,0.0,-9.095237044402599e-05,-0.00018522806350066584,0.030353462598789526,0.0,0.0,0.0,0.0,0.0,0.0,0.0,0.0,0.0,0.0046959388822709665,0.005986362403266124,0.0005119341385491755,0.0,0.0,0.0,0.0,0.0,0.0,0.0,0.0,0.0
11.281,325,11,281000000,base_footprint,0.00150932431476376,0.003564765273090324,-0.38969499566570187,0.9209358418162304,0.0,0.0,0.0,0.0,0.0,0.0,0.0,0.0,0.0,-0.0005321538999837088,-0.00015378417607762244,-0.01008882499714051,0.0,0.0,0.0,0.0,0.0,0.0,0.0,0.0,0.0,0.004696544353704308,0.03203838821325147,0.0007741767135506907,0.0,0.0,0.0,0.0,0.0,0.0,0.0,0.0,0.0
11.315,326,11,315000000,base_footprint,0.0015086098442341667,0.003567862008518198,-0.38979024528067724,0.9208955202090275,0.0,0.0,0.0,0.0,0.0,0.0,0.0,0.0,0.0,1.2573504510370021e-05,-0.00013547167908363437,0.0017819489224396483,0.0,0.0,0.0,0.0,0.0,0.0,0.0,0.0,0.0,0.005933265494512657,0.04929952928078863,-0.0011972569621056862,0.0,0.0,0.0,0.0,0.0,0.0,0.0,0.0,0.0
11.349,327,11,349000000,base_footprint,0.0015045912351020615,0.0035734707795304216,-0.3899108455365734,0.920844448886324,0.0,0.0,0.0,0.0,0.0,0.0,0.0,0.0,0.0,3.978358558315389e-05,4.010716903232567e-05,-0.02012929079977669,0.0,0.0,0.0,0.0,0.0,0.0,0.0,0.0,0.0,-0.0018330325507145348,-0.06883891376375853,4.803153866591602e-06,0.0,0.0,0.0,0.0,0.0,0.0,0.0,0.0,0.0
11.383,328,11,383000000,base_footprint,0.0015008118627086368,0.0035694865897330156,-0.38937452608412565,0.9210713787573691,0.0,0.0,0.0,0.0,0.0,0.0,0.0,0.0,0.0,-0.00025353107687889657,-3.751968599441751e-05,0.062012626402578826,0.0,0.0,0.0,0.0,0.0,0.0,0.0,0.0,0.0,0.004873039284029204,0.02757371304292048,0.0011163932202469667,0.0,0.0,0.0,0.0,0.0,0.0,0.0,0.0,0.0
