Time,yaw_world,delta_position_x_world,delta_position_y_world,delta_yaw,Theta_calculated,linear_velocity_x,world_velocity_x,world_velocity_y,angular_velocity_yaw,linear_acceleration_x,angular_acceleration_yaw,kinematic_delta_x,kinematic_delta_y,kinematic_delta_yaw,header.seq_x,header.stamp.secs_x,header.stamp.nsecs_x,header.frame_id_x,child_frame_id,pose.pose.position.x,pose.pose.position.y,pose.pose.position.z,pose.pose.orientation.x,pose.pose.orientation.y,pose.pose.orientation.z,pose.pose.orientation.w,pose.covariance,twist.twist.linear.x,twist.twist.linear.y,twist.twist.linear.z,twist.twist.angular.x,twist.twist.angular.y,twist.twist.angular.z,twist.covariance,linear.x,linear.y,linear.z,angular.x,angular.y,angular.z,header.seq_y,header.stamp.secs_y,header.stamp.nsecs_y,header.frame_id_y,orientation.x,orientation.y,orientation.z,orientation.w,orientation_covariance_0,orientation_covariance_1,orientation_covariance_2,orientation_covariance_3,orientation_covariance_4,orientation_covariance_5,orientation_covariance_6,orientation_covariance_7,orientation_covariance_8,angular_velocity.x,angular_velocity.y,angular_velocity.z,angular_velocity_covariance_0,angular_velocity_covariance_1,angular_velocity_covariance_2,angular_velocity_covariance_3,angular_velocity_covariance_4,angular_velocity_covariance_5,angular_velocity_covariance_6,angular_velocity_covariance_7,angular_velocity_covariance_8,linear_acceleration.x,linear_acceleration.y,linear_acceleration.z,linear_acceleration_covariance_0,linear_acceleration_covariance_1,linear_acceleration_covariance_2,linear_acceleration_covariance_3,linear_acceleration_covariance_4,linear_acceleration_covariance_5,linear_acceleration_covariance_6,linear_acceleration_covariance_7,linear_acceleration_covariance_8
0.616,-2.842199747809549e-05,3.6668704955535036e-06,5.8795123367334095e-06,-1.593256222694663e-05,-1.4819911591246182e-06,0.0001415951119098108,0.0001415951119096553,-2.0984270402552372e-10,-9.591101900416652e-05,0.00425909293502516,-0.0030287555169138704,4.7151172265876e-06,-8.180128992662693e-12,-3.1938369328387455e-06,6.0,0.0,589000000.0,odom,base_footprint,-1.1349699229164928e-05,8.219442753112975e-06,-0.0010028745106301,-7.838985792180262e-06,0.0039350397898697,-7.460880992972638e-06,0.9999922576423969,"(1e-05, 0.0, 0.0, 0.0, 0.0, 0.0, 0.0, 1e-05, 0.0, 0.0, 0.0, 0.0, 0.0, 0.0, 1000000000000.0, 0.0, 0.0, 0.0, 0.0, 0.0, 0.0, 1000000000000.0, 0.0, 0.0, 0.0, 0.0, 0.0, 0.0, 1000000000000.0, 0.0, 0.0, 0.0, 0.0, 0.0, 0.0, 0.001)",0.0002237216557382,0.0005237438014262,0.0,0.0,0.0,-0.0006801239290712,"(0.0, 0.0, 0.0, 0.0, 0.0, 0.0, 0.0, 0.0, 0.0, 0.0, 0.0, 0.0, 0.0, 0.0, 0.0, 0.0, 0.0, 0.0, 0.0, 0.0, 0.0, 0.0, 0.0, 0.0, 0.0, 0.0, 0.0, 0.0, 0.0, 0.0, 0.0, 0.0, 0.0, 0.0, 0.0, 0.0)",,,,,,,5,0,616000000,base_footprint,-7.142976814317183e-06,0.0038607503832384,-1.418310355017858e-05,0.9999925471493756,0.0,0.0,0.0,0.0,0.0,0.0,0.0,0.0,0.0,3.2692299116733096e-06,0.0022590150767416,-0.0001802029118248,0.0,0.0,0.0,0.0,0.0,0.0,0.0,0.0,0.0,-0.006722800577185,-0.0138617424225218,0.0036155247164381,0.0,0.0,0.0,0.0,0.0,0.0,0.0,0.0,0.0
0.65,-2.4460401756478877e-05,-4.308772175078829e-08,2.484739322405795e-07,3.961595721616613e-06,-4.6758280918268724e-06,5.388125612060363e-05,5.3881256120014616e-05,-2.5193949099071904e-10,-0.00036722389661114857,-0.0026340497233996144,-0.008147533862071532,1.7942458287248727e-06,-1.694855960984078e-11,-1.222855575715125e-05,7.0,0.0,622000000.0,odom,base_footprint,-9.553255460947352e-06,8.978301044754583e-06,-0.0010024857743461,-7.235563829262925e-06,0.0038614530128794,-1.4170701759658416e-05,0.9999925444359408,"(1e-05, 0.0, 0.0, 0.0, 0.0, 0.0, 0.0, 1e-05, 0.0, 0.0, 0.0, 0.0, 0.0, 0.0, 1000000000000.0, 0.0, 0.0, 0.0, 0.0, 0.0, 0.0, 1000000000000.0, 0.0, 0.0, 0.0, 0.0, 0.0, 0.0, 1000000000000.0, 0.0, 0.0, 0.0, 0.0, 0.0, 0.0, 0.001)",4.640555512916874e-07,4.996548111901944e-06,0.0,0.0,0.0,8.102091485518711e-05,"(0.0, 0.0, 0.0, 0.0, 0.0, 0.0, 0.0, 0.0, 0.0, 0.0, 0.0, 0.0, 0.0, 0.0, 0.0, 0.0, 0.0, 0.0, 0.0, 0.0, 0.0, 0.0, 0.0, 0.0, 0.0, 0.0, 0.0, 0.0, 0.0, 0.0, 0.0, 0.0, 0.0, 0.0, 0.0, 0.0)",,,,,,,6,0,650000000,base_footprint,-7.283470810728098e-06,0.0038608170223774,-1.2201807065526658e-05,0.9999925469172192,0.0,0.0,0.0,0.0,0.0,0.0,0.0,0.0,0.0,3.084351022118542e-05,-0.0002427285615608,0.0002479440699184,0.0,0.0,0.0,0.0,0.0,0.0,0.0,0.0,0.0,-3.031757658231125e-05,0.0008355312354249,0.0026527671461389,0.0,0.0,0.0,0.0,0.0,0.0,0.0,0.0,0.0
0.684,-1.5193681457419262e-05,-9.497051516992733e-08,6.005417870816807e-07,9.266720299059616e-06,-1.6904383849158933e-05,-2.8975899513198393e-06,-2.897589950905834e-06,4.898197277224347e-11,8.289495321931309e-05,-0.0017050704526103142,0.01351708257749134,-9.648974536921908e-08,1.368238976731936e-12,2.760401942203126e-06,8.0,0.0,655000000.0,odom,base_footprint,-9.608584955234784e-06,9.3207798607457e-06,-0.0010024077330125,-7.296293564449413e-06,0.0038607293465506,-1.1484110253396869e-05,0.9999925472641246,"(1e-05, 0.0, 0.0, 0.0, 0.0, 0.0, 0.0, 1e-05, 0.0, 0.0, 0.0, 0.0, 0.0, 0.0, 1000000000000.0, 0.0, 0.0, 0.0, 0.0, 0.0, 0.0, 1000000000000.0, 0.0, 0.0, 0.0, 0.0, 0.0, 0.0, 1000000000000.0, 0.0, 0.0, 0.0, 0.0, 0.0, 0.0, 0.001)",-2.559173401886397e-06,1.7266766666790166e-05,0.0,0.0,0.0,0.0002659189224218,"(0.0, 0.0, 0.0, 0.0, 0.0, 0.0, 0.0, 0.0, 0.0, 0.0, 0.0, 0.0, 0.0, 0.0, 0.0, 0.0, 0.0, 0.0, 0.0, 0.0, 0.0, 0.0, 0.0, 0.0, 0.0, 0.0, 0.0, 0.0, 0.0, 0.0, 0.0, 0.0, 0.0, 0.0, 0.0, 0.0)",,,,,,,7,0,684000000,base_footprint,-7.354589680352028e-06,0.0038606422561127,-7.568277235158976e-06,0.999992547637232,0.0,0.0,0.0,0.0,0.0,0.0,0.0,0.0,0.0,3.385889857492064e-05,-0.0001817450160184,0.0003188238750628,0.0,0.0,0.0,0.0,0.0,0.0,0.0,0.0,0.0,-2.2846841596434735e-05,0.000138988548293,-7.538953880500154e-05,0.0,0.0,0.0,0.0,0.0,0.0,0.0,0.0,0.0
0.7180000000000001,-4.608030502133604e-06,-1.0821925824824191e-07,6.883354056436318e-07,1.0585650955285658e-05,-1.4143981907022152e-05,-2.1427627644549533e-06,-2.142762764240621e-06,3.0307197770481124e-11,0.00022490148000771381,2.2667483089035614e-05,0.004264460263915938,-7.135400005325773e-08,6.461335911062426e-13,7.489219284256871e-06,9.0,0.0,689000000.0,odom,base_footprint,-9.707483464973209e-06,9.946805525912631e-06,-0.0010023945316874,-7.363509325227779e-06,0.0038606324903854,-6.6590316079132905e-06,0.9999925476813366,"(1e-05, 0.0, 0.0, 0.0, 0.0, 0.0, 0.0, 1e-05, 0.0, 0.0, 0.0, 0.0, 0.0, 0.0, 1000000000000.0, 0.0, 0.0, 0.0, 0.0, 0.0, 0.0, 1000000000000.0, 0.0, 0.0, 0.0, 0.0, 0.0, 0.0, 1000000000000.0, 0.0, 0.0, 0.0, 0.0, 0.0, 0.0, 0.001)",-3.1245878077985505e-06,2.1167657563143763e-05,0.0,0.0,0.0,0.0003244110469501,"(0.0, 0.0, 0.0, 0.0, 0.0, 0.0, 0.0, 0.0, 0.0, 0.0, 0.0, 0.0, 0.0, 0.0, 0.0, 0.0, 0.0, 0.0, 0.0, 0.0, 0.0, 0.0, 0.0, 0.0, 0.0, 0.0, 0.0, 0.0, 0.0, 0.0, 0.0, 0.0, 0.0, 0.0, 0.0, 0.0)",,,,,,,8,0,718000000,base_footprint,-7.396112884255749e-06,0.0038606047309758,-2.2754100601348027e-06,0.999992547807848,0.0,0.0,0.0,0.0,0.0,0.0,0.0,0.0,0.0,3.495651480599614e-05,-0.0001794941522456,0.0003372213934946,0.0,0.0,0.0,0.0,0.0,0.0,0.0,0.0,0.0,-5.393129979458912e-06,3.620405286811208e-05,-4.625286222598551e-06,0.0,0.0,0.0,0.0,0.0,0.0,0.0,0.0,0.0
0.752,6.315392177116348e-06,-1.1159602051648287e-07,7.108479404323501e-07,1.0923422679249954e-05,-6.6547626227375645e-06,-9.723565913738784e-07,-9.723565913523475e-07,6.470802300199628e-12,0.0002540237131214528,3.51473325249572e-05,0.0008745415349471171,-3.2379474492634694e-08,3.500971632908828e-14,8.45898964694438e-06,10.0,0.0,722000000.0,odom,base_footprint,-9.81339441278456e-06,1.062074638862458e-05,-0.0010023908854736,-7.401002733016648e-06,0.0038606022839576,-1.477961796312642e-06,0.9999925478187554,"(1e-05, 0.0, 0.0, 0.0, 0.0, 0.0, 0.0, 1e-05, 0.0, 0.0, 0.0, 0.0, 0.0, 0.0, 1000000000000.0, 0.0, 0.0, 0.0, 0.0, 0.0, 0.0, 1000000000000.0, 0.0, 0.0, 0.0, 0.0, 0.0, 0.0, 1000000000000.0, 0.0, 0.0, 0.0, 0.0, 0.0, 0.0, 0.001)",-3.26624941810286e-06,2.2119858351020624e-05,0.0,0.0,0.0,0.0003386478299282,"(0.0, 0.0, 0.0, 0.0, 0.0, 0.0, 0.0, 0.0, 0.0, 0.0, 0.0, 0.0, 0.0, 0.0, 0.0, 0.0, 0.0, 0.0, 0.0, 0.0, 0.0, 0.0, 0.0, 0.0, 0.0, 0.0, 0.0, 0.0, 0.0, 0.0, 0.0, 0.0, 0.0, 0.0, 0.0, 0.0)",,,,,,,9,0,752000000,base_footprint,-7.426747587811468e-06,0.003860594800006,3.1862973706223573e-06,0.9999925478434732,0.0,0.0,0.0,0.0,0.0,0.0,0.0,0.0,0.0,3.529167747543553e-05,-0.0001786647269422,0.0003420730209531,0.0,0.0,0.0,0.0,0.0,0.0,0.0,0.0,0.0,-1.4379741198108556e-06,9.544592639259296e-06,-1.460901989875844e-06,0.0,0.0,0.0,0.0,0.0,0.0,0.0,0.0,0.0
0.786,1.7328578968631352e-05,-1.125007513700857e-07,7.168268017680359e-07,1.1013186791515003e-05,1.8042270242268899e-06,-2.5802616186934495e-07,-2.58026161868925e-07,-4.655377742019614e-13,0.0002634039308721282,2.145136424938539e-05,0.000281688220741002,-8.592271189977793e-09,-6.473373939636664e-14,8.77135089804187e-06,11.0,0.0,755000000.0,odom,base_footprint,-9.921903751528016e-06,1.1311985016651143e-05,-0.001002389996189,-7.4300724324962e-06,0.0038605943013603,3.832844492347646e-06,0.9999925478431044,"(1e-05, 0.0, 0.0, 0.0, 0.0, 0.0, 0.0, 1e-05, 0.0, 0.0, 0.0, 0.0, 0.0, 0.0, 1000000000000.0, 0.0, 0.0, 0.0, 0.0, 0.0, 0.0, 1000000000000.0, 0.0, 0.0, 0.0, 0.0, 0.0, 0.0, 1000000000000.0, 0.0, 0.0, 0.0, 0.0, 0.0, 0.0, 0.001)",-3.305411898762707e-06,2.2383203783486463e-05,0.0,0.0,0.0,0.0003425868351889,"(0.0, 0.0, 0.0, 0.0, 0.0, 0.0, 0.0, 0.0, 0.0, 0.0, 0.0, 0.0, 0.0, 0.0, 0.0, 0.0, 0.0, 0.0, 0.0, 0.0, 0.0, 0.0, 0.0, 0.0, 0.0, 0.0, 0.0, 0.0, 0.0, 0.0, 0.0, 0.0, 0.0, 0.0, 0.0, 0.0)",,,,,,,10,0,786000000,base_footprint,-7.4541197411997726e-06,0.0038605923729857,8.692873314403935e-06,0.9999925478199324,0.0,0.0,0.0,0.0,0.0,0.0,0.0,0.0,0.0,3.540679004549137e-05,-0.0001784482789102,0.0003433701778176,0.0,0.0,0.0,0.0,0.0,0.0,0.0,0.0,0.0,-3.90917887406448e-07,2.5481002114609378e-06,-3.7796754534081057e-07,0.0,0.0,0.0,0.0,0.0,0.0,0.0,0.0,0.0
0.8200000000000001,2.836588526520343e-05,-1.1275071505351814e-07,7.184293663937312e-07,1.1037306296572078e-05,1.0575577922278256e-05,3.7297893778378077e-07,3.7297893776292327e-07,3.94446781982742e-12,0.00027297303457094596,1.8949102091685452e-05,0.00028736047143596927,1.2420198626473684e-08,2.0449380047983805e-13,9.090002051212501e-06,11.0,0.0,755000000.0,odom,base_footprint,-9.921903751528016e-06,1.1311985016651143e-05,-0.001002389996189,-7.4300724324962e-06,0.0038605943013603,3.832844492347646e-06,0.9999925478431044,"(1e-05, 0.0, 0.0, 0.0, 0.0, 0.0, 0.0, 1e-05, 0.0, 0.0, 0.0, 0.0, 0.0, 0.0, 1000000000000.0, 0.0, 0.0, 0.0, 0.0, 0.0, 0.0, 1000000000000.0, 0.0, 0.0, 0.0, 0.0, 0.0, 0.0, 1000000000000.0, 0.0, 0.0, 0.0, 0.0, 0.0, 0.0, 0.001)",-3.305411898762707e-06,2.2383203783486463e-05,0.0,0.0,0.0,0.0003425868351889,"(0.0, 0.0, 0.0, 0.0, 0.0, 0.0, 0.0, 0.0, 0.0, 0.0, 0.0, 0.0, 0.0, 0.0, 0.0, 0.0, 0.0, 0.0, 0.0, 0.0, 0.0, 0.0, 0.0, 0.0, 0.0, 0.0, 0.0, 0.0, 0.0, 0.0, 0.0, 0.0, 0.0, 0.0, 0.0, 0.0)",,,,,,,11,0,820000000,base_footprint,-7.480284585185897e-06,0.0038605919302371,1.4211504094568605e-05,0.9999925477582456,0.0,0.0,0.0,0.0,0.0,0.0,0.0,0.0,0.0,3.5461841677493264e-05,-0.0001783901797722,0.0003437260734711,0.0,0.0,0.0,0.0,0.0,0.0,0.0,0.0,0.0,-1.1375444463330232e-07,6.952945005373277e-07,-9.608314734380083e-08,0.0,0.0,0.0,0.0,0.0,0.0,0.0,0.0,0.0
0.8540000000000001,3.9409932689136666e-05,-1.128273380756814e-07,7.188733604636344e-07,1.1044047423933237e-05,1.9665579973349168e-05,9.827382473828768e-07,9.82738247192847e-07,1.932611759553128e-11,0.0002631806733348536,1.8311090378351228e-05,-0.00029406490198475573,3.272518362719558e-08,8.309440303080288e-13,8.763916422050625e-06,13.0,0.0,822000000.0,odom,base_footprint,-1.014389935375011e-05,1.2726499347858142e-05,-0.0010023899007591,-7.482558925857063e-06,0.0038605919258586,1.4698659506245031e-05,0.9999925477512034,"(1e-05, 0.0, 0.0, 0.0, 0.0, 0.0, 0.0, 1e-05, 0.0, 0.0, 0.0, 0.0, 0.0, 0.0, 1000000000000.0, 0.0, 0.0, 0.0, 0.0, 0.0, 0.0, 1000000000000.0, 0.0, 0.0, 0.0, 0.0, 0.0, 0.0, 1000000000000.0, 0.0, 0.0, 0.0, 0.0, 0.0, 0.0, 0.001)",-3.3195714096968467e-06,2.247755986475873e-05,0.0,0.0,0.0,0.0003440019744092,"(0.0, 0.0, 0.0, 0.0, 0.0, 0.0, 0.0, 0.0, 0.0, 0.0, 0.0, 0.0, 0.0, 0.0, 0.0, 0.0, 0.0, 0.0, 0.0, 0.0, 0.0, 0.0, 0.0, 0.0, 0.0, 0.0, 0.0, 0.0, 0.0, 0.0, 0.0, 0.0, 0.0, 0.0, 0.0, 0.0)",,,,,,,12,0,854000000,base_footprint,-7.505818513277113e-06,0.0038605920153663,1.973350293077387e-05,0.9999925476640028,0.0,0.0,0.0,0.0,0.0,0.0,0.0,0.0,0.0,3.549919010534399e-05,-0.0001783740702142,0.0003438328151561,0.0,0.0,0.0,0.0,0.0,0.0,0.0,0.0,0.0,-4.037183919650017e-08,2.0478944401293977e-07,-2.189450149546153e-08,0.0,0.0,0.0,0.0,0.0,0.0,0.0,0.0,0.0
0.888,5.045612038582287e-05,-1.1285806741228974e-07,7.190106128913448e-07,1.1046187696686206e-05,2.8429496395698806e-05,1.649281960630609e-06,1.6492819599641043e-06,4.6888255548922825e-11,0.00025929365357252256,2.0016327725157124e-05,-0.00011672732019012128,5.492108925691456e-08,1.872302661039315e-12,8.634478663965002e-06,14.0,0.0,855000000.0,odom,base_footprint,-1.025341136719638e-05,1.3424245408530622e-05,-0.0010023900006199,-7.507305525842942e-06,0.0038605920264696,2.0058369629352096e-05,0.999992547657485,"(1e-05, 0.0, 0.0, 0.0, 0.0, 0.0, 0.0, 1e-05, 0.0, 0.0, 0.0, 0.0, 0.0, 0.0, 1000000000000.0, 0.0, 0.0, 0.0, 0.0, 0.0, 0.0, 1000000000000.0, 0.0, 0.0, 0.0, 0.0, 0.0, 0.0, 1000000000000.0, 0.0, 0.0, 0.0, 0.0, 0.0, 0.0, 0.001)",-3.320572821239388e-06,2.2483789108785576e-05,0.0,0.0,0.0,0.0003440974003097,"(0.0, 0.0, 0.0, 0.0, 0.0, 0.0, 0.0, 0.0, 0.0, 0.0, 0.0, 0.0, 0.0, 0.0, 0.0, 0.0, 0.0, 0.0, 0.0, 0.0, 0.0, 0.0, 0.0, 0.0, 0.0, 0.0, 0.0, 0.0, 0.0, 0.0, 0.0, 0.0, 0.0, 0.0, 0.0, 0.0)",,,,,,,13,0,888000000,base_footprint,-7.530903085925329e-06,0.0038605922424878,2.525657014505796e-05,0.9999925475386948,0.0,0.0,0.0,0.0,0.0,0.0,0.0,0.0,0.0,3.553022018617465e-05,-0.0001783690879936,0.0003438736149124,0.0,0.0,0.0,0.0,0.0,0.0,0.0,0.0,0.0,-2.0943892666277057e-08,7.49124092957142e-08,-2.7038363500043503e-09,0.0,0.0,0.0,0.0,0.0,0.0,0.0,0.0,0.0
0.922,6.150323007899089e-05,-1.1287664459548766e-07,7.190666283365619e-07,1.1047109693168019e-05,4.575244319404703e-05,3.3429643890945716e-06,3.3429643855956813e-06,1.529487882584106e-10,0.00024480517049566415,2.5354513911477987e-05,-0.00048377743220248665,1.1132071401078747e-07,5.696556484171761e-12,8.152012177505617e-06,15.0,0.0,889000000.0,odom,base_footprint,-1.0366270717544236e-05,1.4143260587950385e-05,-0.0010023901117372,-7.532366464710445e-06,0.0038605922575271,2.5581473401564133e-05,0.9999925475303668,"(1e-05, 0.0, 0.0, 0.0, 0.0, 0.0, 0.0, 1e-05, 0.0, 0.0, 0.0, 0.0, 0.0, 0.0, 1000000000000.0, 0.0, 0.0, 0.0, 0.0, 0.0, 0.0, 1000000000000.0, 0.0, 0.0, 0.0, 0.0, 0.0, 0.0, 1000000000000.0, 0.0, 0.0, 0.0, 0.0, 0.0, 0.0, 0.001)",-3.321017821602152e-06,2.2486253293978864e-05,0.0,0.0,0.0,0.000344136635421,"(0.0, 0.0, 0.0, 0.0, 0.0, 0.0, 0.0, 0.0, 0.0, 0.0, 0.0, 0.0, 0.0, 0.0, 0.0, 0.0, 0.0, 0.0, 0.0, 0.0, 0.0, 0.0, 0.0, 0.0, 0.0, 0.0, 0.0, 0.0, 0.0, 0.0, 0.0, 0.0, 0.0, 0.0, 0.0, 0.0)",,,,,,,14,0,922000000,base_footprint,-7.55561265619434e-06,0.0038605925092385,3.078009689902996e-05,0.9999925473827174,0.0,0.0,0.0,0.0,0.0,0.0,0.0,0.0,0.0,3.555809707370344e-05,-0.0001783670629112,0.0003438969722935,0.0,0.0,0.0,0.0,0.0,0.0,0.0,0.0,0.0,-1.5801192896202732e-08,4.050524326948083e-08,1.9702283614087774e-09,0.0,0.0,0.0,0.0,0.0,0.0,0.0,0.0,0.0
0.9560000000000001,7.255093897384078e-05,-1.1289200276334843e-07,7.191011065682228e-07,1.104770889484989e-05,5.390445537134525e-05,4.429967609337869e-06,4.429967602901812e-06,2.387949911784141e-10,0.0002337471793293357,3.2642739346645576e-05,-0.0003320718067966503,1.475179211326004e-07,8.724268014677803e-12,7.78378107166688e-06,16.0,0.0,922000000.0,odom,base_footprint,-1.047582816195939e-05,1.4841179965400876e-05,-0.0010023902171905,-7.55633421185199e-06,0.0038605925173314,3.0942558438003e-05,0.9999925473776669,"(1e-05, 0.0, 0.0, 0.0, 0.0, 0.0, 0.0, 1e-05, 0.0, 0.0, 0.0, 0.0, 0.0, 0.0, 1000000000000.0, 0.0, 0.0, 0.0, 0.0, 0.0, 0.0, 1000000000000.0, 0.0, 0.0, 0.0, 0.0, 0.0, 0.0, 1000000000000.0, 0.0, 0.0, 0.0, 0.0, 0.0, 0.0, 0.001)",-3.3212947898337717e-06,2.248760074951074e-05,0.0,0.0,0.0,0.0003441591268074,"(0.0, 0.0, 0.0, 0.0, 0.0, 0.0, 0.0, 0.0, 0.0, 0.0, 0.0, 0.0, 0.0, 0.0, 0.0, 0.0, 0.0, 0.0, 0.0, 0.0, 0.0, 0.0, 0.0, 0.0, 0.0, 0.0, 0.0, 0.0, 0.0, 0.0, 0.0, 0.0, 0.0, 0.0, 0.0, 0.0)",,,,,,,15,0,956000000,base_footprint,-7.579990755327919e-06,0.0038605927883264,3.630392196658675e-05,0.9999925471961738,0.0,0.0,0.0,0.0,0.0,0.0,0.0,0.0,0.0,3.5583796191801706e-05,-0.0001783658309197,0.0003439157249851,0.0,0.0,0.0,0.0,0.0,0.0,0.0,0.0,0.0,-1.4440704168427413e-08,3.137347890240449e-08,2.8392558303954922e-09,0.0,0.0,0.0,0.0,0.0,0.0,0.0,0.0,0.0
0.9900000000000001,8.359916135736258e-05,-1.1290650714368411e-07,7.191298544139523e-07,1.1048222383521801e-05,6.1688236443036e-05,5.933119372162143e-06,5.9331193608730825e-06,3.660036704425615e-10,0.00022597867578445937,4.5139692577305506e-05,-0.00023328839474103078,1.9757287465179274e-07,1.3196845088238018e-11,7.525089903622498e-06,16.0,0.0,922000000.0,odom,base_footprint,-1.047582816195939e-05,1.4841179965400876e-05,-0.0010023902171905,-7.55633421185199e-06,0.0038605925173314,3.0942558438003e-05,0.9999925473776669,"(1e-05, 0.0, 0.0, 0.0, 0.0, 0.0, 0.0, 1e-05, 0.0, 0.0, 0.0, 0.0, 0.0, 0.0, 1000000000000.0, 0.0, 0.0, 0.0, 0.0, 0.0, 0.0, 1000000000000.0, 0.0, 0.0, 0.0, 0.0, 0.0, 0.0, 1000000000000.0, 0.0, 0.0, 0.0, 0.0, 0.0, 0.0, 0.001)",-3.3212947898337717e-06,2.248760074951074e-05,0.0,0.0,0.0,0.0003441591268074,"(0.0, 0.0, 0.0, 0.0, 0.0, 0.0, 0.0, 0.0, 0.0, 0.0, 0.0, 0.0, 0.0, 0.0, 0.0, 0.0, 0.0, 0.0, 0.0, 0.0, 0.0, 0.0, 0.0, 0.0, 0.0, 0.0, 0.0, 0.0, 0.0, 0.0, 0.0, 0.0, 0.0, 0.0, 0.0, 0.0)",,,,,,,16,0,990000000,base_footprint,-7.604070539659116e-06,0.0038605930723496,4.182800261996237e-05,0.9999925469790892,0.0,0.0,0.0,0.0,0.0,0.0,0.0,0.0,0.0,3.560770049843436e-05,-0.0001783648182872,0.0003439332702562,0.0,0.0,0.0,0.0,0.0,0.0,0.0,0.0,0.0,-1.4081614424452489e-08,2.893482791227392e-08,2.735146171159116e-09,0.0,0.0,0.0,0.0,0.0,0.0,0.0,0.0,0.0
1.024,9.46478743023249e-05,-1.129207841581523e-07,7.191570589781491e-07,1.1048712944962324e-05,6.921332634668431e-05,7.333812607545046e-06,7.333812589978787e-06,5.075975649661701e-10,0.0002015296008860922,4.20628599214085e-05,-0.0007342064534044193,2.4421595916370294e-07,1.805069976403426e-11,6.710935709506871e-06,18.0,0.0,989000000.0,odom,base_footprint,-1.0698306530990652e-05,1.625826133861549e-05,-0.0010023904164431,-7.604070539659116e-06,0.0038605930723496,4.182800261996237e-05,0.9999925469790892,"(1e-05, 0.0, 0.0, 0.0, 0.0, 0.0, 0.0, 1e-05, 0.0, 0.0, 0.0, 0.0, 0.0, 0.0, 1000000000000.0, 0.0, 0.0, 0.0, 0.0, 0.0, 0.0, 1000000000000.0, 0.0, 0.0, 0.0, 0.0, 0.0, 0.0, 1000000000000.0, 0.0, 0.0, 0.0, 0.0, 0.0, 0.0, 0.001)",-3.3217612447304237e-06,2.248968980172052e-05,0.0,0.0,0.0,0.0003441951795604,"(0.0, 0.0, 0.0, 0.0, 0.0, 0.0, 0.0, 0.0, 0.0, 0.0, 0.0, 0.0, 0.0, 0.0, 0.0, 0.0, 0.0, 0.0, 0.0, 0.0, 0.0, 0.0, 0.0, 0.0, 0.0, 0.0, 0.0, 0.0, 0.0, 0.0, 0.0, 0.0, 0.0, 0.0, 0.0, 0.0)",,,,,,,17,1,24000000,base_footprint,-7.627880409983458e-06,0.0038605933591879,4.735232750525752e-05,0.9999925467314682,0.0,0.0,0.0,0.0,0.0,0.0,0.0,0.0,0.0,3.5630024538261345e-05,-0.0001783638723857,0.0003439505064428,0.0,0.0,0.0,0.0,0.0,0.0,0.0,0.0,0.0,-1.3987682960796647e-08,2.827005518769688e-08,2.4046052962077927e-09,0.0,0.0,0.0,0.0,0.0,0.0,0.0,0.0,0.0
1.058,0.00010569707152656821,-1.1293499988396763e-07,7.191838312310614e-07,1.1049197224243307e-05,7.592426205604852e-05,9.113240884941428e-06,9.11324085867482e-06,6.919160884634308e-10,0.0001808971949069255,5.343628460649796e-05,-0.0006195917711461473,3.034709204901682e-07,2.4362719120380017e-11,6.0238765904006195e-06,20.0,1.0,55000000.0,odom,base_footprint,-1.0917518686622343e-05,1.7654296559480532e-05,-0.0010023905937418,-7.650065843249984e-06,0.0038605936310854,5.255191244683483e-05,0.9999925464705168,"(1e-05, 0.0, 0.0, 0.0, 0.0, 0.0, 0.0, 1e-05, 0.0, 0.0, 0.0, 0.0, 0.0, 0.0, 1000000000000.0, 0.0, 0.0, 0.0, 0.0, 0.0, 0.0, 1000000000000.0, 0.0, 0.0, 0.0, 0.0, 0.0, 0.0, 1000000000000.0, 0.0, 0.0, 0.0, 0.0, 0.0, 0.0, 0.001)",-3.322202059005098e-06,2.249162099089672e-05,0.0,0.0,0.0,0.000344228863054,"(0.0, 0.0, 0.0, 0.0, 0.0, 0.0, 0.0, 0.0, 0.0, 0.0, 0.0, 0.0, 0.0, 0.0, 0.0, 0.0, 0.0, 0.0, 0.0, 0.0, 0.0, 0.0, 0.0, 0.0, 0.0, 0.0, 0.0, 0.0, 0.0, 0.0, 0.0, 0.0, 0.0, 0.0, 0.0, 0.0)",,,,,,,18,1,58000000,base_footprint,-7.651445685061561e-06,0.0038605936481341,5.287689357903447e-05,0.999992546453309,0.0,0.0,0.0,0.0,0.0,0.0,0.0,0.0,0.0,3.565092785666732e-05,-0.0001783629518806,0.0003439676704081,0.0,0.0,0.0,0.0,0.0,0.0,0.0,0.0,0.0,-1.3963977514903326e-08,2.8076662751329572e-08,2.042129733259285e-09,0.0,0.0,0.0,0.0,0.0,0.0,0.0,0.0,0.0
1.092,0.00011674675117549989,-1.1294919850107776e-07,7.192104675342811e-07,1.104967964893168e-05,8.194813864648154e-05,-0.0001536112587617567,-0.00015361125824596872,-1.2588156716579702e-08,0.002225355308225451,-0.004886621611011956,0.06139513853809385,-5.115254878554566e-06,-6.155920052850359e-10,7.410433176390752e-05,20.0,1.0,55000000.0,odom,base_footprint,-1.0917518686622343e-05,1.7654296559480532e-05,-0.0010023905937418,-7.650065843249984e-06,0.0038605936310854,5.255191244683483e-05,0.9999925464705168,"(1e-05, 0.0, 0.0, 0.0, 0.0, 0.0, 0.0, 1e-05, 0.0, 0.0, 0.0, 0.0, 0.0, 0.0, 1000000000000.0, 0.0, 0.0, 0.0, 0.0, 0.0, 0.0, 1000000000000.0, 0.0, 0.0, 0.0, 0.0, 0.0, 0.0, 1000000000000.0, 0.0, 0.0, 0.0, 0.0, 0.0, 0.0, 0.001)",-3.322202059005098e-06,2.249162099089672e-05,0.0,0.0,0.0,0.000344228863054,"(0.0, 0.0, 0.0, 0.0, 0.0, 0.0, 0.0, 0.0, 0.0, 0.0, 0.0, 0.0, 0.0, 0.0, 0.0, 0.0, 0.0, 0.0, 0.0, 0.0, 0.0, 0.0, 0.0, 0.0, 0.0, 0.0, 0.0, 0.0, 0.0, 0.0, 0.0, 0.0, 0.0, 0.0, 0.0, 0.0)",,,,,,,19,1,92000000,base_footprint,-7.6747892142836e-06,0.0038605939388685,5.840170000205896e-05,0.9999925461446092,0.0,0.0,0.0,0.0,0.0,0.0,0.0,0.0,0.0,3.567054576469524e-05,-0.0001783620451068,0.0003439848240456,0.0,0.0,0.0,0.0,0.0,0.0,0.0,0.0,0.0,-1.3958895967866594e-08,2.8009775114789523e-08,1.696539811306464e-09,0.0,0.0,0.0,0.0,0.0,0.0,0.0,0.0,0.0
1.126,0.0001277969125859894,-1.1296339187845394e-07,7.19237048402413e-07,1.1050161410489505e-05,0.00015605247041028392,1.0700560572909885e-05,1.070056044261786e-05,1.6698489054000065e-09,0.00016372965439887335,0.004934288868908906,-0.06191068029509241,3.5632866250945626e-07,5.7056276718669797e-11,5.452197491482483e-06,21.0,1.0,89000000.0,odom,base_footprint,-1.1030467050108204e-05,1.837350546208568e-05,-0.0010023906786761,-7.673421823549981e-06,0.0038605939217209,5.807670474131928e-05,0.9999925461636135,"(1e-05, 0.0, 0.0, 0.0, 0.0, 0.0, 0.0, 1e-05, 0.0, 0.0, 0.0, 0.0, 0.0, 0.0, 1000000000000.0, 0.0, 0.0, 0.0, 0.0, 0.0, 0.0, 1000000000000.0, 0.0, 0.0, 0.0, 0.0, 0.0, 0.0, 1000000000000.0, 0.0, 0.0, 0.0, 0.0, 0.0, 0.0, 0.001)",-3.322428359458424e-06,2.249261025604252e-05,0.0,0.0,0.0,0.0003442461522867,"(0.0, 0.0, 0.0, 0.0, 0.0, 0.0, 0.0, 0.0, 0.0, 0.0, 0.0, 0.0, 0.0, 0.0, 0.0, 0.0, 0.0, 0.0, 0.0, 0.0, 0.0, 0.0, 0.0, 0.0, 0.0, 0.0, 0.0, 0.0, 0.0, 0.0, 0.0, 0.0, 0.0, 0.0, 0.0, 0.0)",,,,,,,20,1,126000000,base_footprint,-7.697931693335093e-06,0.0038605942311861,6.392674652250065e-05,0.999992545805365,0.0,0.0,0.0,0.0,0.0,0.0,0.0,0.0,0.0,3.5688998596295573e-05,-0.0001783611484393,0.0003440019829991,0.0,0.0,0.0,0.0,0.0,0.0,0.0,0.0,0.0,-1.3958762544361486e-08,2.797792700515984e-08,1.3790972356832226e-09,0.0,0.0,0.0,0.0,0.0,0.0,0.0,0.0,0.0
1.16,0.00013884755542842325,-1.129775833476343e-07,7.192635970538468e-07,1.1050642842433852e-05,0.00016150466790199047,8.886873669864838e-06,8.886873553963307e-06,1.435271574498918e-09,0.00018748479121463954,-5.446507216351491e-05,0.0007133674719449305,2.9593288913011223e-07,4.911607707363098e-11,6.243243547447497e-06,22.0,1.0,122000000.0,odom,base_footprint,-1.1140106976437886e-05,1.9071586583943864e-05,-0.0010023907574419,-7.695897303420599e-06,0.0038605942053341,6.343923276270118e-05,0.9999925458365272,"(1e-05, 0.0, 0.0, 0.0, 0.0, 0.0, 0.0, 1e-05, 0.0, 0.0, 0.0, 0.0, 0.0, 0.0, 1000000000000.0, 0.0, 0.0, 0.0, 0.0, 0.0, 0.0, 1000000000000.0, 0.0, 0.0, 0.0, 0.0, 0.0, 0.0, 1000000000000.0, 0.0, 0.0, 0.0, 0.0, 0.0, 0.0, 0.001)",-3.3226478738069027e-06,2.2493569364754623e-05,0.0,0.0,0.0,0.0003442629290169,"(0.0, 0.0, 0.0, 0.0, 0.0, 0.0, 0.0, 0.0, 0.0, 0.0, 0.0, 0.0, 0.0, 0.0, 0.0, 0.0, 0.0, 0.0, 0.0, 0.0, 0.0, 0.0, 0.0, 0.0, 0.0, 0.0, 0.0, 0.0, 0.0, 0.0, 0.0, 0.0, 0.0, 0.0, 0.0, 0.0)",,,,,,,21,1,160000000,base_footprint,-7.72089188730896e-06,0.0038605945249236,6.945203304783098e-05,0.9999925454355734,0.0,0.0,0.0,0.0,0.0,0.0,0.0,0.0,0.0,3.570639487100551e-05,-0.000178360260222,0.0003440191507236,0.0,0.0,0.0,0.0,0.0,0.0,0.0,0.0,0.0,-1.39599636456958e-08,2.7956735792712554e-08,1.089652975245643e-09,0.0,0.0,0.0,0.0,0.0,0.0,0.0,0.0,0.0
1.194,0.00014989867947754753,-1.1299177393123833e-07,7.192901213393274e-07,1.1051124049124283e-05,0.00016774791144946732,7.450438993869385e-06,7.450438889044085e-06,1.2497955747418516e-09,0.0002154918891787726,-4.313617645631992e-05,0.0008410539929169089,2.4809961479635924e-07,4.284181408354647e-11,7.1758799096531285e-06,22.0,1.0,122000000.0,odom,base_footprint,-1.1140106976437886e-05,1.9071586583943864e-05,-0.0010023907574419,-7.695897303420599e-06,0.0038605942053341,6.343923276270118e-05,0.9999925458365272,"(1e-05, 0.0, 0.0, 0.0, 0.0, 0.0, 0.0, 1e-05, 0.0, 0.0, 0.0, 0.0, 0.0, 0.0, 1000000000000.0, 0.0, 0.0, 0.0, 0.0, 0.0, 0.0, 1000000000000.0, 0.0, 0.0, 0.0, 0.0, 0.0, 0.0, 1000000000000.0, 0.0, 0.0, 0.0, 0.0, 0.0, 0.0, 0.001)",-3.3226478738069027e-06,2.2493569364754623e-05,0.0,0.0,0.0,0.0003442629290169,"(0.0, 0.0, 0.0, 0.0, 0.0, 0.0, 0.0, 0.0, 0.0, 0.0, 0.0, 0.0, 0.0, 0.0, 0.0, 0.0, 0.0, 0.0, 0.0, 0.0, 0.0, 0.0, 0.0, 0.0, 0.0, 0.0, 0.0, 0.0, 0.0, 0.0, 0.0, 0.0, 0.0, 0.0, 0.0, 0.0)",,,,,,,22,1,194000000,base_footprint,-7.743686815927699e-06,0.0038605948199384,7.497755953096198e-05,0.9999925450352304,0.0,0.0,0.0,0.0,0.0,0.0,0.0,0.0,0.0,3.572283282075102e-05,-0.0001783593795938,0.0003440363275176,0.0,0.0,0.0,0.0,0.0,0.0,0.0,0.0,0.0,-1.396153102844627e-08,2.793962730989378e-08,8.269032522169327e-10,0.0,0.0,0.0,0.0,0.0,0.0,0.0,0.0,0.0
1.228,0.00016095028455046268,-1.1300596405427327e-07,7.193166248931346e-07,1.1051605072915152e-05,0.00017492379135886083,5.8199539387297305e-06,5.8199538496892866e-06,1.0180484033047757e-09,0.00022766281608186954,-4.896351516935898e-05,0.00036549330039330126,1.9380446301756483e-07,3.489612688813683e-11,7.581171775526257e-06,24.0,1.0,189000000.0,odom,base_footprint,-1.1362750376298428e-05,2.0488979719945797e-05,-0.0010023909075628,-7.741013121081433e-06,0.0038605947851688,7.432748513834236e-05,0.9999925450839152,"(1e-05, 0.0, 0.0, 0.0, 0.0, 0.0, 0.0, 1e-05, 0.0, 0.0, 0.0, 0.0, 0.0, 0.0, 1000000000000.0, 0.0, 0.0, 0.0, 0.0, 0.0, 0.0, 1000000000000.0, 0.0, 0.0, 0.0, 0.0, 0.0, 0.0, 1000000000000.0, 0.0, 0.0, 0.0, 0.0, 0.0, 0.0, 0.001)",-3.323093343095726e-06,2.249551470200552e-05,0.0,0.0,0.0,0.0003442969934975,"(0.0, 0.0, 0.0, 0.0, 0.0, 0.0, 0.0, 0.0, 0.0, 0.0, 0.0, 0.0, 0.0, 0.0, 0.0, 0.0, 0.0, 0.0, 0.0, 0.0, 0.0, 0.0, 0.0, 0.0, 0.0, 0.0, 0.0, 0.0, 0.0, 0.0, 0.0, 0.0, 0.0, 0.0, 0.0, 0.0)",,,,,,,23,1,228000000,base_footprint,-7.766331917160179e-06,0.003860595116103,8.050332593987592e-05,0.9999925446043328,0.0,0.0,0.0,0.0,0.0,0.0,0.0,0.0,0.0,3.573840150323826e-05,-0.0001783585056842,0.0003440535129099,0.0,0.0,0.0,0.0,0.0,0.0,0.0,0.0,0.0,-1.3963220112051752e-08,2.792476239367492e-08,5.883258882245281e-10,0.0,0.0,0.0,0.0,0.0,0.0,0.0,0.0,0.0
1.262,0.00017200237048879815,-1.1302015395352888e-07,7.193431100859441e-07,1.1052085938335472e-05,0.00018250496313454434,4.679069569662193e-06,4.679069491736825e-06,8.53953414574578e-10,0.00024268697934881771,-3.4260791863890005e-05,0.0004511760740825278,1.5581301391902825e-07,2.927566921023456e-11,8.08147641231563e-06,26.0,1.0,255000000.0,odom,base_footprint,-1.158212461655015e-05,2.188531837257252e-05,-0.0010023910444768,-7.784878261924194e-06,0.0038605953607846,8.50541372340212e-05,0.9999925442265308,"(1e-05, 0.0, 0.0, 0.0, 0.0, 0.0, 0.0, 1e-05, 0.0, 0.0, 0.0, 0.0, 0.0, 0.0, 1000000000000.0, 0.0, 0.0, 0.0, 0.0, 0.0, 0.0, 1000000000000.0, 0.0, 0.0, 0.0, 0.0, 0.0, 0.0, 1000000000000.0, 0.0, 0.0, 0.0, 0.0, 0.0, 0.0, 0.001)",-3.323531976571493e-06,2.2497429098599465e-05,0.0,0.0,0.0,0.0003443305566319,"(0.0, 0.0, 0.0, 0.0, 0.0, 0.0, 0.0, 0.0, 0.0, 0.0, 0.0, 0.0, 0.0, 0.0, 0.0, 0.0, 0.0, 0.0, 0.0, 0.0, 0.0, 0.0, 0.0, 0.0, 0.0, 0.0, 0.0, 0.0, 0.0, 0.0, 0.0, 0.0, 0.0, 0.0, 0.0, 0.0)",0.0,0.0,0.0,0.0,0.0,0.0,24,1,262000000,base_footprint,-7.788841194917751e-06,0.0038605954133017,8.602933224928299e-05,0.9999925441428766,0.0,0.0,0.0,0.0,0.0,0.0,0.0,0.0,0.0,3.575318161854732e-05,-0.0001783576379315,0.000344070706244,0.0,0.0,0.0,0.0,0.0,0.0,0.0,0.0,0.0,-1.3964943684470478e-08,2.7911478899119883e-08,3.720249008116826e-10,0.0,0.0,0.0,0.0,0.0,0.0,0.0,0.0,0.0
1.296,0.00018305493715288634,-1.1303434381288585e-07,7.193695788318404e-07,1.1052566664088186e-05,0.000190586439547058,3.864345424797276e-06,3.864345354614597e-06,7.364918312334539e-10,0.0002627137230722406,-2.4466190536484007e-05,0.0006014037154181053,1.286827001659118e-07,2.5261013451475833e-11,8.748366978305613e-06,26.0,1.0,255000000.0,odom,base_footprint,-1.158212461655015e-05,2.188531837257252e-05,-0.0010023910444768,-7.784878261924194e-06,0.0038605953607846,8.50541372340212e-05,0.9999925442265308,"(1e-05, 0.0, 0.0, 0.0, 0.0, 0.0, 0.0, 1e-05, 0.0, 0.0, 0.0, 0.0, 0.0, 0.0, 1000000000000.0, 0.0, 0.0, 0.0, 0.0, 0.0, 0.0, 1000000000000.0, 0.0, 0.0, 0.0, 0.0, 0.0, 0.0, 1000000000000.0, 0.0, 0.0, 0.0, 0.0, 0.0, 0.0, 0.001)",-3.323531976571493e-06,2.2497429098599465e-05,0.0,0.0,0.0,0.0003443305566319,"(0.0, 0.0, 0.0, 0.0, 0.0, 0.0, 0.0, 0.0, 0.0, 0.0, 0.0, 0.0, 0.0, 0.0, 0.0, 0.0, 0.0, 0.0, 0.0, 0.0, 0.0, 0.0, 0.0, 0.0, 0.0, 0.0, 0.0, 0.0, 0.0, 0.0, 0.0, 0.0, 0.0, 0.0, 0.0, 0.0)",0.0,0.0,0.0,0.0,0.0,0.0,25,1,296000000,base_footprint,-7.811227352165182e-06,0.0038605957114302,9.155557843822227e-05,0.9999925436508582,0.0,0.0,0.0,0.0,0.0,0.0,0.0,0.0,0.0,3.576724658502949e-05,-0.0001783567756575,0.0003440879069171,0.0,0.0,0.0,0.0,0.0,0.0,0.0,0.0,0.0,-1.396670465883964e-08,2.7899625495057956e-08,1.7558033470681575e-10,0.0,0.0,0.0,0.0,0.0,0.0,0.0,0.0,0.0
1.33,0.0001941079844190227,-1.1304853378066304e-07,7.193960328007217e-07,1.1053047266136362e-05,0.0001993348065250089,3.015334145009029e-06,3.0153340851028358e-06,6.010610444231648e-10,0.00026480489468806343,-2.549583422787527e-05,6.279794642110532e-05,1.0041062491678828e-07,2.059299951516568e-11,8.818002993112513e-06,27.0,1.0,289000000.0,odom,base_footprint,-1.1695156456267147e-05,2.2604683281570056e-05,-0.0010023911113923,-7.807285276846691e-06,0.0038605956587561,9.05803410926576e-05,0.999992543739906,"(1e-05, 0.0, 0.0, 0.0, 0.0, 0.0, 0.0, 1e-05, 0.0, 0.0, 0.0, 0.0, 0.0, 0.0, 1000000000000.0, 0.0, 0.0, 0.0, 0.0, 0.0, 0.0, 1000000000000.0, 0.0, 0.0, 0.0, 0.0, 0.0, 0.0, 1000000000000.0, 0.0, 0.0, 0.0, 0.0, 0.0, 0.0, 0.001)",-3.323757884727285e-06,2.249841470157068e-05,0.0,0.0,0.0,0.0003443478495048,"(0.0, 0.0, 0.0, 0.0, 0.0, 0.0, 0.0, 0.0, 0.0, 0.0, 0.0, 0.0, 0.0, 0.0, 0.0, 0.0, 0.0, 0.0, 0.0, 0.0, 0.0, 0.0, 0.0, 0.0, 0.0, 0.0, 0.0, 0.0, 0.0, 0.0, 0.0, 0.0, 0.0, 0.0, 0.0, 0.0)",0.0,0.0,0.0,0.0,0.0,0.0,26,1,330000000,base_footprint,-7.833501911756991e-06,0.0038605960103932,9.708206448915828e-05,0.9999925431282742,0.0,0.0,0.0,0.0,0.0,0.0,0.0,0.0,0.0,3.578066280316288e-05,-0.0001783559184378,0.0003441051143521,0.0,0.0,0.0,0.0,0.0,0.0,0.0,0.0,0.0,-1.396848154193322e-08,2.7889000558232064e-08,-2.479671810568676e-12,0.0,0.0,0.0,0.0,0.0,0.0,0.0,0.0,0.0
1.364,0.00020516151217705642,-1.1306272398696471e-07,7.194224734485937e-07,1.1053527758033719e-05,0.0002081528095181362,2.4436553504098886e-06,2.4436552974710375e-06,5.086537230087204e-10,0.0002725084800494932,-1.716753136934356e-05,0.00023133889974263528,8.137372130448046e-08,1.7416753425191488e-11,9.074532385648124e-06,27.0,1.0,289000000.0,odom,base_footprint,-1.1695156456267147e-05,2.2604683281570056e-05,-0.0010023911113923,-7.807285276846691e-06,0.0038605956587561,9.05803410926576e-05,0.999992543739906,"(1e-05, 0.0, 0.0, 0.0, 0.0, 0.0, 0.0, 1e-05, 0.0, 0.0, 0.0, 0.0, 0.0, 0.0, 1000000000000.0, 0.0, 0.0, 0.0, 0.0, 0.0, 0.0, 1000000000000.0, 0.0, 0.0, 0.0, 0.0, 0.0, 0.0, 1000000000000.0, 0.0, 0.0, 0.0, 0.0, 0.0, 0.0, 0.001)",-3.323757884727285e-06,2.249841470157068e-05,0.0,0.0,0.0,0.0003443478495048,"(0.0, 0.0, 0.0, 0.0, 0.0, 0.0, 0.0, 0.0, 0.0, 0.0, 0.0, 0.0, 0.0, 0.0, 0.0, 0.0, 0.0, 0.0, 0.0, 0.0, 0.0, 0.0, 0.0, 0.0, 0.0, 0.0, 0.0, 0.0, 0.0, 0.0, 0.0, 0.0, 0.0, 0.0, 0.0, 0.0)",0.2199999988079071,2.2499370970763263e-05,0.0,0.0,0.0,0.0,27,1,364000000,base_footprint,-7.855675326172754e-06,0.0038605963101045,0.0001026087903872,0.9999925425751208,0.0,0.0,0.0,0.0,0.0,0.0,0.0,0.0,0.0,3.579349055112154e-05,-0.0001783550657283,0.0003441223279794,0.0,0.0,0.0,0.0,0.0,0.0,0.0,0.0,0.0,-1.3970266946586077e-08,2.7879402053653224e-08,-1.6418588217851074e-10,0.0,0.0,0.0,0.0,0.0,0.0,0.0,0.0,0.0
1.3980000000000001,0.00021635685066340288,2.777936080539025e-05,7.284947370068624e-07,1.1195338486346459e-05,0.00021722734190410264,2.044728571639656e-06,2.0447285233966184e-06,4.4417094903941937e-10,0.0002872076545150903,-1.1979783146253227e-05,0.00044141665061853136,6.808945973696065e-08,1.5208011193078263e-11,9.564014895352508e-06,29.0,1.0,355000000.0,odom,base_footprint,-1.1914611711754187e-05,2.400117302901924e-05,-0.0010023912352989,-7.850466634961262e-06,0.0038605962395211,0.0001013083627162,0.9999925427080252,"(1e-05, 0.0, 0.0, 0.0, 0.0, 0.0, 0.0, 1e-05, 0.0, 0.0, 0.0, 0.0, 0.0, 0.0, 1000000000000.0, 0.0, 0.0, 0.0, 0.0, 0.0, 0.0, 1000000000000.0, 0.0, 0.0, 0.0, 0.0, 0.0, 0.0, 1000000000000.0, 0.0, 0.0, 0.0, 0.0, 0.0, 0.0, 0.001)",-3.324196332671748e-06,2.2500326960198036e-05,0.0,0.0,0.0,0.0003443814230614,"(0.0, 0.0, 0.0, 0.0, 0.0, 0.0, 0.0, 0.0, 0.0, 0.0, 0.0, 0.0, 0.0, 0.0, 0.0, 0.0, 0.0, 0.0, 0.0, 0.0, 0.0, 0.0, 0.0, 0.0, 0.0, 0.0, 0.0, 0.0, 0.0, 0.0, 0.0, 0.0, 0.0, 0.0, 0.0, 0.0)",0.2199999988079071,2.2499370970763263e-05,0.0,0.0,0.0,0.0,28,1,398000000,base_footprint,-7.646409144456565e-06,0.0038549623238563,0.00010820549053,0.999992563721644,0.0,0.0,0.0,0.0,0.0,0.0,0.0,0.0,0.0,8.189928320136007e-06,0.0024101701047361,0.0003651477579741,0.0,0.0,0.0,0.0,0.0,0.0,0.0,0.0,0.0,0.1776036310898903,7.520272326902498e-05,-0.0042874096177825,0.0,0.0,0.0,0.0,0.0,0.0,0.0,0.0,0.0
1.432,0.0002306959618905759,0.0006772126905585892,9.337985899438303e-07,1.433911122717302e-05,0.00022679135679926077,0.03370933496993279,0.03370933410302444,7.644985749096051e-06,-0.0004145521429828609,1.0122309381790133,-0.021073867792731266,0.0011225208270194715,2.4833877148244075e-07,-1.380458636132927e-05,31.0,1.0,422000000.0,odom,base_footprint,0.0004259295336529,2.571702461634641e-05,-0.0010020789644481,-7.691109997503652e-06,0.0038554872687902,0.0001144735621015,0.999992560999616,"(1e-05, 0.0, 0.0, 0.0, 0.0, 0.0, 0.0, 1e-05, 0.0, 0.0, 0.0, 0.0, 0.0, 0.0, 1000000000000.0, 0.0, 0.0, 0.0, 0.0, 0.0, 0.0, 1000000000000.0, 0.0, 0.0, 0.0, 0.0, 0.0, 0.0, 1000000000000.0, 0.0, 0.0, 0.0, 0.0, 0.0, 0.0, 0.001)",0.025874500620979,1.7285378872142492e-05,0.0,0.0,0.0,0.0003566489179922,"(0.0, 0.0, 0.0, 0.0, 0.0, 0.0, 0.0, 0.0, 0.0, 0.0, 0.0, 0.0, 0.0, 0.0, 0.0, 0.0, 0.0, 0.0, 0.0, 0.0, 0.0, 0.0, 0.0, 0.0, 0.0, 0.0, 0.0, 0.0, 0.0, 0.0, 0.0, 0.0, 0.0, 0.0, 0.0, 0.0)",0.2199999988079071,2.2499370970763263e-05,0.0,0.0,0.0,0.0,29,1,432000000,base_footprint,-7.715493098659965e-06,0.003856762244001,0.0001153751640846,0.9999925559793114,0.0,0.0,0.0,0.0,0.0,0.0,0.0,0.0,0.0,-2.830846561497327e-06,0.00018486976985,0.0004715492941996,0.0,0.0,0.0,0.0,0.0,0.0,0.0,0.0,0.0,0.7884978979970871,0.0003878198942052,-0.0035548370739842,0.0,0.0,0.0,0.0,0.0,0.0,0.0,0.0,0.0
1.466,0.00024699244306095606,0.0015858394349890002,1.0629584915015825e-06,1.6296481170380163e-05,0.0002129867704381283,0.06705413730942304,0.06705413578852241,1.4281644042071582e-05,2.1424590652125422e-05,1.0013454156003079,0.013092394403453042,0.0022329027209457434,4.793765404590121e-07,7.134388687157766e-07,31.0,1.0,422000000.0,odom,base_footprint,0.0004259295336529,2.571702461634641e-05,-0.0010020789644481,-7.691109997503652e-06,0.0038554872687902,0.0001144735621015,0.999992560999616,"(1e-05, 0.0, 0.0, 0.0, 0.0, 0.0, 0.0, 1e-05, 0.0, 0.0, 0.0, 0.0, 0.0, 0.0, 1000000000000.0, 0.0, 0.0, 0.0, 0.0, 0.0, 0.0, 1000000000000.0, 0.0, 0.0, 0.0, 0.0, 0.0, 0.0, 1000000000000.0, 0.0, 0.0, 0.0, 0.0, 0.0, 0.0, 0.001)",0.025874500620979,1.7285378872142492e-05,0.0,0.0,0.0,0.0003566489179922,"(0.0, 0.0, 0.0, 0.0, 0.0, 0.0, 0.0, 0.0, 0.0, 0.0, 0.0, 0.0, 0.0, 0.0, 0.0, 0.0, 0.0, 0.0, 0.0, 0.0, 0.0, 0.0, 0.0, 0.0, 0.0, 0.0, 0.0, 0.0, 0.0, 0.0, 0.0, 0.0, 0.0, 0.0, 0.0, 0.0)",0.2199999988079071,1.7285379726672545e-05,0.0,0.0,0.0,0.0,30,1,466000000,base_footprint,-7.816101336427738e-06,0.0038571930135724,0.0001235236135842,0.9999925533437144,0.0,0.0,0.0,0.0,0.0,0.0,0.0,0.0,0.0,1.6238542766686114e-05,-0.0004376890428115,0.0006180261398573,0.0,0.0,0.0,0.0,0.0,0.0,0.0,0.0,0.0,0.7875934334605996,0.0004795556070688,-0.0054050442370221,0.0,0.0,0.0,0.0,0.0,0.0,0.0,0.0,0.0
1.5,0.0002656333421108842,0.0024937470259859,1.217649188285823e-06,1.8640899049928144e-05,0.00021370020930655542,0.10312014451714364,0.10312014216250966,2.203679629930725e-05,2.2144661498004173e-05,1.083063279511129,2.1623749125488018e-05,0.003433900732749555,7.397069211706547e-07,7.374172278835391e-07,32.0,1.0,455000000.0,odom,base_footprint,0.0017185832613609,2.668165792279385e-05,-0.0010021435317532,-7.768184487989371e-06,0.0038559856349893,0.0001218740147353,0.9999925582028912,"(1e-05, 0.0, 0.0, 0.0, 0.0, 0.0, 0.0, 1e-05, 0.0, 0.0, 0.0, 0.0, 0.0, 0.0, 1000000000000.0, 0.0, 0.0, 0.0, 0.0, 0.0, 0.0, 1000000000000.0, 0.0, 0.0, 0.0, 0.0, 0.0, 0.0, 1000000000000.0, 0.0, 0.0, 0.0, 0.0, 0.0, 0.0, 0.001)",0.0518228025331743,2.00227381363875e-05,0.0,0.0,0.0,0.0004997796866163,"(0.0, 0.0, 0.0, 0.0, 0.0, 0.0, 0.0, 0.0, 0.0, 0.0, 0.0, 0.0, 0.0, 0.0, 0.0, 0.0, 0.0, 0.0, 0.0, 0.0, 0.0, 0.0, 0.0, 0.0, 0.0, 0.0, 0.0, 0.0, 0.0, 0.0, 0.0, 0.0, 0.0, 0.0, 0.0, 0.0)",0.2199999988079071,1.7285379726672545e-05,0.0,0.0,0.0,0.0,31,1,500000000,base_footprint,-7.936800719984104e-06,0.0038581210320397,0.0001328443265314,0.9999925485679853,0.0,0.0,0.0,0.0,0.0,0.0,0.0,0.0,0.0,1.3784350741680529e-05,-0.0004027116160509,0.0006860826189372,0.0,0.0,0.0,0.0,0.0,0.0,0.0,0.0,0.0,0.7827782012956283,0.0003398861984073,-0.0060872573260374,0.0,0.0,0.0,0.0,0.0,0.0,0.0,0.0,0.0
1.534,0.0002866288748058925,0.0033899516833966,1.3729830412040655e-06,2.0995532695008277e-05,0.00021443762653472476,0.13378068101610296,0.13378067794025128,2.8687611493432785e-05,2.149048175035246e-05,0.9207368318005801,-1.9645037467018433e-05,0.004454896573778139,9.628786791687927e-07,7.156330422867369e-07,34.0,1.0,522000000.0,odom,base_footprint,0.0069697559018568,2.913894277427206e-05,-0.001002383240259,-8.015194701043035e-06,0.0038578593418909,0.0001406793653435,0.9999925485054232,"(1e-05, 0.0, 0.0, 0.0, 0.0, 0.0, 0.0, 1e-05, 0.0, 0.0, 0.0, 0.0, 0.0, 0.0, 1000000000000.0, 0.0, 0.0, 0.0, 0.0, 0.0, 0.0, 1000000000000.0, 0.0, 0.0, 0.0, 0.0, 0.0, 0.0, 1000000000000.0, 0.0, 0.0, 0.0, 0.0, 0.0, 0.0, 0.001)",0.1040085536203064,1.49438954931717e-05,0.0,0.0,0.0,0.000674859013567,"(0.0, 0.0, 0.0, 0.0, 0.0, 0.0, 0.0, 0.0, 0.0, 0.0, 0.0, 0.0, 0.0, 0.0, 0.0, 0.0, 0.0, 0.0, 0.0, 0.0, 0.0, 0.0, 0.0, 0.0, 0.0, 0.0, 0.0, 0.0, 0.0, 0.0, 0.0, 0.0, 0.0, 0.0, 0.0, 0.0)",0.2199999988079071,1.7285379726672545e-05,0.0,0.0,0.0,0.0,32,1,534000000,base_footprint,-8.089736840789428e-06,0.0038590652128043,0.0001433424545096,0.9999925434737904,0.0,0.0,0.0,0.0,0.0,0.0,0.0,0.0,0.0,3.439255201369239e-05,-0.0008251165423799,0.0007675101187116,0.0,0.0,0.0,0.0,0.0,0.0,0.0,0.0,0.0,0.7658407411842495,0.0003783403177188,-0.0054563369818991,0.0,0.0,0.0,0.0,0.0,0.0,0.0,0.0,0.0
1.568,0.00030861243165467884,0.0042514255027769,1.4380968866821916e-06,2.198355684878637e-05,0.00021515325957688347,0.16714375779336754,0.16714375392474795,3.596152402972344e-05,2.107243170563331e-05,1.0018941975154527,-1.2554055396971482e-05,0.005565887003656242,1.2069532367996339e-06,7.017119757975892e-07,34.0,1.0,522000000.0,odom,base_footprint,0.0069697559018568,2.913894277427206e-05,-0.001002383240259,-8.015194701043035e-06,0.0038578593418909,0.0001406793653435,0.9999925485054232,"(1e-05, 0.0, 0.0, 0.0, 0.0, 0.0, 0.0, 1e-05, 0.0, 0.0, 0.0, 0.0, 0.0, 0.0, 1000000000000.0, 0.0, 0.0, 0.0, 0.0, 0.0, 0.0, 1000000000000.0, 0.0, 0.0, 0.0, 0.0, 0.0, 0.0, 1000000000000.0, 0.0, 0.0, 0.0, 0.0, 0.0, 0.0, 0.001)",0.1040085536203064,1.49438954931717e-05,0.0,0.0,0.0,0.000674859013567,"(0.0, 0.0, 0.0, 0.0, 0.0, 0.0, 0.0, 0.0, 0.0, 0.0, 0.0, 0.0, 0.0, 0.0, 0.0, 0.0, 0.0, 0.0, 0.0, 0.0, 0.0, 0.0, 0.0, 0.0, 0.0, 0.0, 0.0, 0.0, 0.0, 0.0, 0.0, 0.0, 0.0, 0.0, 0.0, 0.0)",0.2199999988079071,1.494389562139986e-05,0.0,0.0,0.0,0.0,33,1,568000000,base_footprint,-8.25939748877736e-06,0.0038604242203004,0.0001543346508033,0.9999925365908676,0.0,0.0,0.0,0.0,0.0,0.0,0.0,0.0,0.0,4.946746576711993e-05,-0.0009934717936193,0.0007637476213212,0.0,0.0,0.0,0.0,0.0,0.0,0.0,0.0,0.0,0.7215089615467379,0.0002158955993673,-0.005388822340111,0.0,0.0,0.0,0.0,0.0,0.0,0.0,0.0,0.0
1.602,0.000330304310147446,0.005039801005872698,1.418692718314465e-06,2.1691878492767144e-05,0.00021585497155252042,0.2062424574050331,0.2062424526002677,4.451845943037449e-05,2.0420544818663628e-05,1.1741351234734403,-1.9576182791882322e-05,0.006867873669082312,1.4940295560549687e-06,6.800041424614989e-07,36.0,1.0,589000000.0,odom,base_footprint,0.0155918594887191,3.190884061397471e-05,-0.0010028054159201,-8.358267152495454e-06,0.0038615032214093,0.0001618559757873,0.9999925312349356,"(1e-05, 0.0, 0.0, 0.0, 0.0, 0.0, 0.0, 1e-05, 0.0, 0.0, 0.0, 0.0, 0.0, 0.0, 1000000000000.0, 0.0, 0.0, 0.0, 0.0, 0.0, 0.0, 1000000000000.0, 0.0, 0.0, 0.0, 0.0, 0.0, 0.0, 1000000000000.0, 0.0, 0.0, 0.0, 0.0, 0.0, 0.0, 0.001)",0.1512603172770193,-2.652921933629497e-06,0.0,0.0,0.0,0.0007068153153481,"(0.0, 0.0, 0.0, 0.0, 0.0, 0.0, 0.0, 0.0, 0.0, 0.0, 0.0, 0.0, 0.0, 0.0, 0.0, 0.0, 0.0, 0.0, 0.0, 0.0, 0.0, 0.0, 0.0, 0.0, 0.0, 0.0, 0.0, 0.0, 0.0, 0.0, 0.0, 0.0, 0.0, 0.0, 0.0, 0.0)",0.2199999988079071,1.494389562139986e-05,0.0,0.0,0.0,0.0,34,1,602000000,base_footprint,-8.431660264711562e-06,0.003862533390862,0.0001651810262178,0.9999925267120452,0.0,0.0,0.0,0.0,0.0,0.0,0.0,0.0,0.0,4.3341441983630736e-05,-0.0005531501735479,0.0006771732243153,0.0,0.0,0.0,0.0,0.0,0.0,0.0,0.0,0.0,0.6373087038774675,4.208197830211742e-05,-0.0054106399405211,0.0,0.0,0.0,0.0,0.0,0.0,0.0,0.0,0.0
1.6360000000000001,0.0003520440316377441,0.0057038977736809,1.421674156365212e-06,2.173972149029812e-05,0.00021653497569529279,0.21801748550728223,0.21801748039614618,4.7208410556554966e-05,-2.490317432248792e-06,0.35360444751498854,-0.0006880138814087813,0.007259982095137406,1.5814996494126926e-06,-8.292757049388478e-08,36.0,1.0,589000000.0,odom,base_footprint,0.0155918594887191,3.190884061397471e-05,-0.0010028054159201,-8.358267152495454e-06,0.0038615032214093,0.0001618559757873,0.9999925312349356,"(1e-05, 0.0, 0.0, 0.0, 0.0, 0.0, 0.0, 1e-05, 0.0, 0.0, 0.0, 0.0, 0.0, 0.0, 1000000000000.0, 0.0, 0.0, 0.0, 0.0, 0.0, 0.0, 1000000000000.0, 0.0, 0.0, 0.0, 0.0, 0.0, 0.0, 1000000000000.0, 0.0, 0.0, 0.0, 0.0, 0.0, 0.0, 0.001)",0.1512603172770193,-2.652921933629497e-06,0.0,0.0,0.0,0.0007068153153481,"(0.0, 0.0, 0.0, 0.0, 0.0, 0.0, 0.0, 0.0, 0.0, 0.0, 0.0, 0.0, 0.0, 0.0, 0.0, 0.0, 0.0, 0.0, 0.0, 0.0, 0.0, 0.0, 0.0, 0.0, 0.0, 0.0, 0.0, 0.0, 0.0, 0.0, 0.0, 0.0, 0.0, 0.0, 0.0, 0.0)",0.2199999988079071,1.494389562139986e-05,0.0,0.0,0.0,0.0,35,1,636000000,base_footprint,-8.585222691590291e-06,0.0038647417518149,0.0001760512511481,0.9999925163237188,0.0,0.0,0.0,0.0,0.0,0.0,0.0,0.0,0.0,3.846390610956703e-05,-5.16514065185142e-05,0.0006888850623578,0.0,0.0,0.0,0.0,0.0,0.0,0.0,0.0,0.0,0.5067892540192162,0.0002007502116324,-0.0044769008396515,0.0,0.0,0.0,0.0,0.0,0.0,0.0,0.0,0.0
1.67,0.00037079133322681705,0.006191967519403201,1.2240576228384606e-06,1.8747301589072948e-05,0.00021645204812470453,0.21801452813044214,0.2180145230232895,4.718969076629067e-05,1.3581695961077804e-05,-8.881011531786158e-05,0.0004826430448446425,0.007259883614199306,1.5828159790649312e-06,4.5227047550389094e-07,37.0,1.0,622000000.0,odom,base_footprint,0.020908569598511,3.320957323045091e-05,-0.0010030527075818,-8.524951873737992e-06,0.0038638143088439,0.0001718065649939,0.9999925206464378,"(1e-05, 0.0, 0.0, 0.0, 0.0, 0.0, 0.0, 1e-05, 0.0, 0.0, 0.0, 0.0, 0.0, 0.0, 1000000000000.0, 0.0, 0.0, 0.0, 0.0, 0.0, 0.0, 1000000000000.0, 0.0, 0.0, 0.0, 0.0, 0.0, 0.0, 1000000000000.0, 0.0, 0.0, 0.0, 0.0, 0.0, 0.0, 0.001)",0.1697352639450572,-1.4979797216270754e-05,0.0,0.0,0.0,0.0006618883152902,"(0.0, 0.0, 0.0, 0.0, 0.0, 0.0, 0.0, 0.0, 0.0, 0.0, 0.0, 0.0, 0.0, 0.0, 0.0, 0.0, 0.0, 0.0, 0.0, 0.0, 0.0, 0.0, 0.0, 0.0, 0.0, 0.0, 0.0, 0.0, 0.0, 0.0, 0.0, 0.0, 0.0, 0.0, 0.0, 0.0)",0.2199999988079071,0.0,0.0,0.0,0.0,0.0,36,1,670000000,base_footprint,-8.707827997205862e-06,0.0038669950552868,0.0001854251803962,0.9999925059173786,0.0,0.0,0.0,0.0,0.0,0.0,0.0,0.0,0.0,3.928143570222496e-05,-0.000152731607279,-8.871454322964533e-05,0.0,0.0,0.0,0.0,0.0,0.0,0.0,0.0,0.0,0.3363481822511647,-0.0013840042267676,-0.0023972394932406,0.0,0.0,0.0,0.0,0.0,0.0,0.0,0.0,0.0
1.7040000000000002,0.0003081576680144316,0.006464152193634699,-4.142822422958866e-06,-6.263366521238544e-05,0.00021690431859999748,0.22462138028835701,0.2246213750044217,4.872134705240085e-05,7.961792682600012e-06,0.1984039687061523,-0.0001687658642185523,0.007479891785243288,1.6334678791541826e-06,2.6512769633058044e-07,39.0,1.0,689000000.0,odom,base_footprint,0.0331343122368805,3.348459565372605e-05,-0.0010032100801001,-8.638565445229587e-06,0.003866298562667,0.0001740764817374,0.9999925106510438,"(1e-05, 0.0, 0.0, 0.0, 0.0, 0.0, 0.0, 1e-05, 0.0, 0.0, 0.0, 0.0, 0.0, 0.0, 1000000000000.0, 0.0, 0.0, 0.0, 0.0, 0.0, 0.0, 1000000000000.0, 0.0, 0.0, 0.0, 0.0, 0.0, 0.0, 1000000000000.0, 0.0, 0.0, 0.0, 0.0, 0.0, 0.0, 0.001)",0.1907472562923051,-0.0001964569736691,0.0,0.0,0.0,-0.0019674220908016,"(0.0, 0.0, 0.0, 0.0, 0.0, 0.0, 0.0, 0.0, 0.0, 0.0, 0.0, 0.0, 0.0, 0.0, 0.0, 0.0, 0.0, 0.0, 0.0, 0.0, 0.0, 0.0, 0.0, 0.0, 0.0, 0.0, 0.0, 0.0, 0.0, 0.0, 0.0, 0.0, 0.0, 0.0, 0.0, 0.0)",0.2199999988079071,0.0,0.0,0.0,0.0,0.0,37,1,704000000,base_footprint,-8.536623047654536e-06,0.0038651174645033,0.0001541083759708,0.9999925184943737,0.0,0.0,0.0,0.0,0.0,0.0,0.0,0.0,0.0,1.545520157645275e-05,-0.0003849139965846,-0.0038256289985119,0.0,0.0,0.0,0.0,0.0,0.0,0.0,0.0,0.0,0.1362248375270777,-0.0072056331362644,-0.0006004639428286,0.0,0.0,0.0,0.0,0.0,0.0,0.0,0.0,0.0
1.738,0.00012566776778210839,0.006510489326037504,-1.1547769511556543e-05,-0.00018248990023232326,0.00021716944629623924,0.21801166187634635,0.21801165673535142,4.7345471523653396e-05,-9.259550008626431e-07,-0.19849004240272258,-0.00026689932983371337,0.007259788167185777,1.5862596364856824e-06,-3.0834301528726016e-08,39.0,1.0,689000000.0,odom,base_footprint,0.0331343122368805,3.348459565372605e-05,-0.0010032100801001,-8.638565445229587e-06,0.003866298562667,0.0001740764817374,0.9999925106510438,"(1e-05, 0.0, 0.0, 0.0, 0.0, 0.0, 0.0, 1e-05, 0.0, 0.0, 0.0, 0.0, 0.0, 0.0, 1000000000000.0, 0.0, 0.0, 0.0, 0.0, 0.0, 0.0, 1000000000000.0, 0.0, 0.0, 0.0, 0.0, 0.0, 0.0, 1000000000000.0, 0.0, 0.0, 0.0, 0.0, 0.0, 0.0, 0.001)",0.1907472562923051,-0.0001964569736691,0.0,0.0,0.0,-0.0019674220908016,"(0.0, 0.0, 0.0, 0.0, 0.0, 0.0, 0.0, 0.0, 0.0, 0.0, 0.0, 0.0, 0.0, 0.0, 0.0, 0.0, 0.0, 0.0, 0.0, 0.0, 0.0, 0.0, 0.0, 0.0, 0.0, 0.0, 0.0, 0.0, 0.0, 0.0, 0.0, 0.0, 0.0, 0.0, 0.0, 0.0)",0.2199999988079071,0.0,0.0,0.0,0.0,0.0,38,1,738000000,base_footprint,-9.286382013151954e-06,0.0038475706104177,6.28682188481105e-05,0.9999925960534648,0.0,0.0,0.0,0.0,0.0,0.0,0.0,0.0,0.0,-0.0002615917113218,-0.0008658882062504,-0.0006494917003322,0.0,0.0,0.0,0.0,0.0,0.0,0.0,0.0,0.0,-0.0108670559247074,0.0079992943219684,0.0028711032120724,0.0,0.0,0.0,0.0,0.0,0.0,0.0,0.0,0.0
1.772,0.0002930009100616979,0.006572658579582599,1.1510391641851399e-05,0.00016733314227958948,0.0002171386119949048,0.21799460370096385,0.2179945985618308,4.733504529803856e-05,0.000112662963372573,-0.0005122575189940102,0.003411078629832902,0.0072592201269916804,1.5996308251435323e-06,3.751676680306681e-06,41.0,1.0,755000000.0,odom,base_footprint,0.0457833080089001,2.594295079704908e-05,-0.0010009187564549,-7.270165575658747e-06,0.0038490107918711,0.000109613122741,0.999992586496536,"(1e-05, 0.0, 0.0, 0.0, 0.0, 0.0, 0.0, 1e-05, 0.0, 0.0, 0.0, 0.0, 0.0, 0.0, 1000000000000.0, 0.0, 0.0, 0.0, 0.0, 0.0, 0.0, 1000000000000.0, 0.0, 0.0, 0.0, 0.0, 0.0, 0.0, 1000000000000.0, 0.0, 0.0, 0.0, 0.0, 0.0, 0.0, 0.001)",0.1931301430640604,0.0004530011450353,0.0,0.0,0.0,0.0075107949077973,"(0.0, 0.0, 0.0, 0.0, 0.0, 0.0, 0.0, 0.0, 0.0, 0.0, 0.0, 0.0, 0.0, 0.0, 0.0, 0.0, 0.0, 0.0, 0.0, 0.0, 0.0, 0.0, 0.0, 0.0, 0.0, 0.0, 0.0, 0.0, 0.0, 0.0, 0.0, 0.0, 0.0, 0.0, 0.0, 0.0)",0.2199999988079071,0.0,0.0,0.0,0.0,0.0,39,1,772000000,base_footprint,-7.587553909130908e-06,0.0038530508554127,0.0001465264275186,0.9999925662081396,0.0,0.0,0.0,0.0,0.0,0.0,0.0,0.0,0.0,5.246767419487592e-05,-0.0001203076446411,0.0021841298346885,0.0,0.0,0.0,0.0,0.0,0.0,0.0,0.0,0.0,0.1389230921757717,0.0036986065871705,-0.0045630213394407,0.0,0.0,0.0,0.0,0.0,0.0,0.0,0.0,0.0
1.806,0.0003539527907136521,0.0068356929627768,4.0091225743955544e-06,6.09518806519542e-05,0.000220890288675335,0.22462467343422507,0.2246246679542232,4.9617408554995766e-05,5.437707958710702e-06,0.19910119319102754,-0.0032199776400559242,0.0074800014404978205,1.6629928742349853e-06,1.810756750250664e-07,42.0,1.0,789000000.0,odom,base_footprint,0.0524710289171438,3.298748261752788e-05,-0.0010015187961372,-7.703764219859277e-06,0.0038529657839782,0.0001630871646685,0.999992563971301,"(1e-05, 0.0, 0.0, 0.0, 0.0, 0.0, 0.0, 1e-05, 0.0, 0.0, 0.0, 0.0, 0.0, 0.0, 1000000000000.0, 0.0, 0.0, 0.0, 0.0, 0.0, 0.0, 1000000000000.0, 0.0, 0.0, 0.0, 0.0, 0.0, 0.0, 1000000000000.0, 0.0, 0.0, 0.0, 0.0, 0.0, 0.0, 0.001)",0.2009862998612004,7.107649461895866e-05,0.0,0.0,0.0,0.0020756994894706,"(0.0, 0.0, 0.0, 0.0, 0.0, 0.0, 0.0, 0.0, 0.0, 0.0, 0.0, 0.0, 0.0, 0.0, 0.0, 0.0, 0.0, 0.0, 0.0, 0.0, 0.0, 0.0, 0.0, 0.0, 0.0, 0.0, 0.0, 0.0, 0.0, 0.0, 0.0, 0.0, 0.0, 0.0, 0.0, 0.0)",0.2199999988079071,0.0,0.0,0.0,0.0,0.0,40,1,806000000,base_footprint,-7.759531227367432e-06,0.0038529497558871,0.0001770023508368,0.9999925616664036,0.0,0.0,0.0,0.0,0.0,0.0,0.0,0.0,0.0,5.262818670135614e-05,-0.0002373623503768,0.0015021670909862,0.0,0.0,0.0,0.0,0.0,0.0,0.0,0.0,0.0,0.3073769651320672,-0.0012147865089144,-0.002128559650482,0.0,0.0,0.0,0.0,0.0,0.0,0.0,0.0,0.0
1.84,0.0003990259461987816,0.007273091707826598,2.961539504511067e-06,4.507315548512952e-05,0.00022107136435023378,0.21801779832232224,0.21801779299477958,4.819749173516085e-05,7.603478541729436e-06,-0.19840465801510004,6.503815564620823e-05,0.00725999250435775,1.6156500359554468e-06,2.5319583543959024e-07,42.0,1.0,789000000.0,odom,base_footprint,0.0524710289171438,3.298748261752788e-05,-0.0010015187961372,-7.703764219859277e-06,0.0038529657839782,0.0001630871646685,0.999992563971301,"(1e-05, 0.0, 0.0, 0.0, 0.0, 0.0, 0.0, 1e-05, 0.0, 0.0, 0.0, 0.0, 0.0, 0.0, 1000000000000.0, 0.0, 0.0, 0.0, 0.0, 0.0, 0.0, 1000000000000.0, 0.0, 0.0, 0.0, 0.0, 0.0, 0.0, 1000000000000.0, 0.0, 0.0, 0.0, 0.0, 0.0, 0.0, 0.001)",0.2009862998612004,7.107649461895866e-05,0.0,0.0,0.0,0.0020756994894706,"(0.0, 0.0, 0.0, 0.0, 0.0, 0.0, 0.0, 0.0, 0.0, 0.0, 0.0, 0.0, 0.0, 0.0, 0.0, 0.0, 0.0, 0.0, 0.0, 0.0, 0.0, 0.0, 0.0, 0.0, 0.0, 0.0, 0.0, 0.0, 0.0, 0.0, 0.0, 0.0, 0.0, 0.0, 0.0, 0.0)",0.2199999988079071,0.0,0.0,0.0,0.0,0.0,41,1,840000000,base_footprint,-8.790831116661665e-06,0.0038705966673483,0.0001995425142578,0.9999924892652672,0.0,0.0,0.0,0.0,0.0,0.0,0.0,0.0,0.0,-7.667612710159488e-05,0.0025901613121535,0.0008094574441104,0.0,0.0,0.0,0.0,0.0,0.0,0.0,0.0,0.0,0.3878940043076673,-0.0011920544021148,-0.0074125666644306,0.0,0.0,0.0,0.0,0.0,0.0,0.0,0.0,0.0
1.874,0.00045498835571140583,0.0074643830252140025,3.7757677478254687e-06,5.596240951262422e-05,0.00022132456018564284,0.21749190118544112,0.21749189585856848,4.81362989808178e-05,0.0014414185255492257,-0.015792706813246692,0.04305750891914403,0.007242480088444811,1.786489721182795e-06,4.799923690078922e-05,43.0,1.0,822000000.0,odom,base_footprint,0.0593074145453743,3.648513707524496e-05,-0.0010014810696392,-7.627034090682394e-06,0.0038522205275358,0.0001896841892598,0.9999925621517112,"(1e-05, 0.0, 0.0, 0.0, 0.0, 0.0, 0.0, 1e-05, 0.0, 0.0, 0.0, 0.0, 0.0, 0.0, 1000000000000.0, 0.0, 0.0, 0.0, 0.0, 0.0, 0.0, 1000000000000.0, 0.0, 0.0, 0.0, 0.0, 0.0, 0.0, 1000000000000.0, 0.0, 0.0, 0.0, 0.0, 0.0, 0.0, 0.001)",0.2137817587771304,2.463741219185339e-05,0.0,0.0,0.0,0.001606581448613,"(0.0, 0.0, 0.0, 0.0, 0.0, 0.0, 0.0, 0.0, 0.0, 0.0, 0.0, 0.0, 0.0, 0.0, 0.0, 0.0, 0.0, 0.0, 0.0, 0.0, 0.0, 0.0, 0.0, 0.0, 0.0, 0.0, 0.0, 0.0, 0.0, 0.0, 0.0, 0.0, 0.0, 0.0, 0.0, 0.0)",0.2084210515022277,2.463741293468047e-05,0.0,0.0,0.0,-0.0722395703196525,42,1,874000000,base_footprint,-9.868133594124728e-06,0.0038646766314631,0.0002275272166123,0.9999925061761812,0.0,0.0,0.0,0.0,0.0,0.0,0.0,0.0,0.0,7.699280706525157e-05,-0.0003493694357035,0.0016305101024785,0.0,0.0,0.0,0.0,0.0,0.0,0.0,0.0,0.0,-0.0052334792517928,0.0017477599259945,0.0048023070009995,0.0,0.0,0.0,0.0,0.0,0.0,0.0,0.0,0.0
1.908,-1.7713943634183736e-05,0.007345886802412091,4.177795662432598e-06,-0.0004727022993455897,0.00026932379708632936,0.22420242555116884,0.22420241741987293,6.0383047835422026e-05,0.001571640542425168,0.20151724822005168,0.003910571077355621,0.007465940441084604,2.216157382933417e-06,5.23356300627581e-05,45.0,1.0,889000000.0,odom,base_footprint,0.0739844472474447,4.350227496991509e-05,-0.0010027185774411,-9.62012367836354e-06,0.003862879288374,0.0002392435277319,0.9999925103887486,"(1e-05, 0.0, 0.0, 0.0, 0.0, 0.0, 0.0, 1e-05, 0.0, 0.0, 0.0, 0.0, 0.0, 0.0, 1000000000000.0, 0.0, 0.0, 0.0, 0.0, 0.0, 0.0, 1000000000000.0, 0.0, 0.0, 0.0, 0.0, 0.0, 0.0, 1000000000000.0, 0.0, 0.0, 0.0, 0.0, 0.0, 0.0, 0.001)",0.2196876198733168,2.8237301776075236e-05,0.0,0.0,0.0,0.0013240919712414,"(0.0, 0.0, 0.0, 0.0, 0.0, 0.0, 0.0, 0.0, 0.0, 0.0, 0.0, 0.0, 0.0, 0.0, 0.0, 0.0, 0.0, 0.0, 0.0, 0.0, 0.0, 0.0, 0.0, 0.0, 0.0, 0.0, 0.0, 0.0, 0.0, 0.0, 0.0, 0.0, 0.0, 0.0, 0.0, 0.0)",0.2084210515022277,2.463741293468047e-05,0.0,0.0,0.0,-0.0722395703196525,43,1,908000000,base_footprint,-7.764654333996378e-06,0.0038648025254419,-8.82676429533739e-06,0.99999253155373,0.0,0.0,0.0,0.0,0.0,0.0,0.0,0.0,0.0,-0.0016630128859238,-0.0003076815212814,-0.0704716669812456,0.0,0.0,0.0,0.0,0.0,0.0,0.0,0.0,0.0,-0.3108540562765758,-0.0026858507719818,0.0025802104411694,0.0,0.0,0.0,0.0,0.0,0.0,0.0,0.0,0.0
1.9420000000000002,-0.002459546309766298,0.0071035888958597,-7.219789932601406e-06,-0.0024418323661321148,0.0003216594271493456,0.20650211618813202,0.2065021055052834,6.642335125278915e-05,-0.07140343099572775,-0.5315408217128174,-2.191443589734322,0.006876516271448873,-5.954127012533314e-06,-0.0023777342521577346,45.0,1.0,889000000.0,odom,base_footprint,0.0739844472474447,4.350227496991509e-05,-0.0010027185774411,-9.62012367836354e-06,0.003862879288374,0.0002392435277319,0.9999925103887486,"(1e-05, 0.0, 0.0, 0.0, 0.0, 0.0, 0.0, 1e-05, 0.0, 0.0, 0.0, 0.0, 0.0, 0.0, 1000000000000.0, 0.0, 0.0, 0.0, 0.0, 0.0, 0.0, 1000000000000.0, 0.0, 0.0, 0.0, 0.0, 0.0, 0.0, 1000000000000.0, 0.0, 0.0, 0.0, 0.0, 0.0, 0.0, 0.001)",0.2196876198733168,2.8237301776075236e-05,0.0,0.0,0.0,0.0013240919712414,"(0.0, 0.0, 0.0, 0.0, 0.0, 0.0, 0.0, 0.0, 0.0, 0.0, 0.0, 0.0, 0.0, 0.0, 0.0, 0.0, 0.0, 0.0, 0.0, 0.0, 0.0, 0.0, 0.0, 0.0, 0.0, 0.0, 0.0, 0.0, 0.0, 0.0, 0.0, 0.0, 0.0, 0.0, 0.0, 0.0)",0.2084210515022277,2.463741293468047e-05,0.0,0.0,0.0,-0.0722395703196525,44,1,942000000,base_footprint,-3.294094415569328e-06,0.0038609439490224,-0.0012297326282838,0.9999917903956184,0.0,0.0,0.0,0.0,0.0,0.0,0.0,0.0,0.0,-0.0004990385187682,-0.00022900969284,-0.0719760710751572,0.0,0.0,0.0,0.0,0.0,0.0,0.0,0.0,0.0,0.0007053570553658,-0.0141942435091425,-0.0004766999609847,0.0,0.0,0.0,0.0,0.0,0.0,0.0,0.0,0.0
1.976,-0.004913582233667875,0.007110806053944901,-2.4883818326259185e-05,-0.002454035923901577,-0.0020560748250084693,0.20648956171345154,0.20648912525210836,-0.00042455769033362495,-0.0712395447339226,-0.0003770112516662857,0.004921509363517987,0.006876064682085309,-2.228450428328875e-05,-0.002372276839639623,47.0,1.0,955000000.0,odom,base_footprint,0.0878468436285011,3.039161929647149e-05,-0.0010024445240533,-1.3173447781677224e-06,0.0038609096659456,-0.0017340744388746,0.9999910431402156,"(1e-05, 0.0, 0.0, 0.0, 0.0, 0.0, 0.0, 1e-05, 0.0, 0.0, 0.0, 0.0, 0.0, 0.0, 1000000000000.0, 0.0, 0.0, 0.0, 0.0, 0.0, 0.0, 1000000000000.0, 0.0, 0.0, 0.0, 0.0, 0.0, 0.0, 1000000000000.0, 0.0, 0.0, 0.0, 0.0, 0.0, 0.0, 0.001)",0.2091300700029273,5.2170418476027306e-05,0.0,0.0,0.0,-0.0721589648709485,"(0.0, 0.0, 0.0, 0.0, 0.0, 0.0, 0.0, 0.0, 0.0, 0.0, 0.0, 0.0, 0.0, 0.0, 0.0, 0.0, 0.0, 0.0, 0.0, 0.0, 0.0, 0.0, 0.0, 0.0, 0.0, 0.0, 0.0, 0.0, 0.0, 0.0, 0.0, 0.0, 0.0, 0.0, 0.0, 0.0)",0.2084210515022277,6.681068771285936e-05,0.0,0.0,0.0,-0.0472066178917884,45,1,976000000,base_footprint,1.434197123160414e-06,0.0038612353944754,-0.0024567392400839,0.9999895275909032,0.0,0.0,0.0,0.0,0.0,0.0,0.0,0.0,0.0,-0.0005191171361483,-0.0001447959582017,-0.0724125024789788,0.0,0.0,0.0,0.0,0.0,0.0,0.0,0.0,0.0,0.0054539418716989,-0.0152031441301864,-0.0002061751338921,0.0,0.0,0.0,0.0,0.0,0.0,0.0,0.0,0.0
2.01,-0.006901771996544709,0.007113057467554307,-4.183506557253256e-05,-0.001988189762876834,-0.004428351664647945,0.21292975892552876,0.2129276711208783,-0.0009429247705445365,-0.07382700795530237,0.19339931567799473,-0.07770159823963242,0.0070904457631039836,-4.0105600628454636e-05,-0.002458439364911569,47.0,1.0,955000000.0,odom,base_footprint,0.0878468436285011,3.039161929647149e-05,-0.0010024445240533,-1.3173447781677224e-06,0.0038609096659456,-0.0017340744388746,0.9999910431402156,"(1e-05, 0.0, 0.0, 0.0, 0.0, 0.0, 0.0, 1e-05, 0.0, 0.0, 0.0, 0.0, 0.0, 0.0, 1000000000000.0, 0.0, 0.0, 0.0, 0.0, 0.0, 0.0, 1000000000000.0, 0.0, 0.0, 0.0, 0.0, 0.0, 0.0, 1000000000000.0, 0.0, 0.0, 0.0, 0.0, 0.0, 0.0, 0.001)",0.2091300700029273,5.2170418476027306e-05,0.0,0.0,0.0,-0.0721589648709485,"(0.0, 0.0, 0.0, 0.0, 0.0, 0.0, 0.0, 0.0, 0.0, 0.0, 0.0, 0.0, 0.0, 0.0, 0.0, 0.0, 0.0, 0.0, 0.0, 0.0, 0.0, 0.0, 0.0, 0.0, 0.0, 0.0, 0.0, 0.0, 0.0, 0.0, 0.0, 0.0, 0.0, 0.0, 0.0, 0.0)",0.2084210515022277,6.681068771285936e-05,0.0,0.0,0.0,-0.0472066178917884,46,2,10000000,base_footprint,4.997392592579471e-06,0.0038627289489886,-0.0034508212182142,0.9999865854765316,0.0,0.0,0.0,0.0,0.0,0.0,0.0,0.0,0.0,-0.0003251708013147,-7.421693603656709e-05,-0.0476241763875054,0.0,0.0,0.0,0.0,0.0,0.0,0.0,0.0,0.0,-0.0015035227338872,-0.012989459398949,-0.000101799390605,0.0,0.0,0.0,0.0,0.0,0.0,0.0,0.0,0.0
2.044,-0.008530024695691252,0.0071154008485520975,-5.40198513982877e-05,-0.0016282526991465431,-0.006886791029559802,0.20685200548349633,0.20684710022573155,-0.001424535275297338,-0.047818652336930494,-0.18251511837935222,0.7810317002514074,0.006887967829321877,-5.291184416732589e-05,-0.0015923611228197856,48.0,1.0,989000000.0,odom,base_footprint,0.0949602205935138,-1.7350076436728747e-06,-0.0010025577711107,3.308887801464353e-06,0.0038617502626462,-0.0029640994219856,0.9999881504240824,"(1e-05, 0.0, 0.0, 0.0, 0.0, 0.0, 0.0, 1e-05, 0.0, 0.0, 0.0, 0.0, 0.0, 0.0, 1000000000000.0, 0.0, 0.0, 0.0, 0.0, 0.0, 0.0, 1000000000000.0, 0.0, 0.0, 0.0, 0.0, 0.0, 0.0, 1000000000000.0, 0.0, 0.0, 0.0, 0.0, 0.0, 0.0, 0.001)",0.2093185152666199,4.922194895072107e-05,0.0,0.0,0.0,-0.0725887087141326,"(0.0, 0.0, 0.0, 0.0, 0.0, 0.0, 0.0, 0.0, 0.0, 0.0, 0.0, 0.0, 0.0, 0.0, 0.0, 0.0, 0.0, 0.0, 0.0, 0.0, 0.0, 0.0, 0.0, 0.0, 0.0, 0.0, 0.0, 0.0, 0.0, 0.0, 0.0, 0.0, 0.0, 0.0, 0.0, 0.0)",0.2084210515022277,6.681068771285936e-05,0.0,0.0,0.0,-0.0472066178917884,47,2,44000000,base_footprint,7.574846755984981e-06,0.0038661282014338,-0.0042649330793469,0.9999834315333332,0.0,0.0,0.0,0.0,0.0,0.0,0.0,0.0,0.0,-0.0003673179480497,4.312889946218072e-05,-0.0480758096520424,0.0,0.0,0.0,0.0,0.0,0.0,0.0,0.0,0.0,0.0052674800897861,-0.0098929267290211,-0.0003461790140621,0.0,0.0,0.0,0.0,0.0,0.0,0.0,0.0,0.0
2.078,-0.010166238129400222,0.007120751346116602,-6.598063537357712e-05,-0.001636213433708971,-0.008479152152379488,0.2070053247354405,0.20699788335041425,-0.0017552086125221667,-0.04752090661829304,0.00460418174006525,0.0089413128719955,0.006892980478851875,-6.389308095745482e-05,-0.0015824461903891586,50.0,2.0,55000000.0,odom,base_footprint,0.1087715553789064,-0.0001041361977822,-0.0010033738107651,8.41477500337496e-06,0.0038677737324403,-0.0045535181136754,0.9999821527049044,"(1e-05, 0.0, 0.0, 0.0, 0.0, 0.0, 0.0, 1e-05, 0.0, 0.0, 0.0, 0.0, 0.0, 0.0, 1000000000000.0, 0.0, 0.0, 0.0, 0.0, 0.0, 0.0, 1000000000000.0, 0.0, 0.0, 0.0, 0.0, 0.0, 0.0, 1000000000000.0, 0.0, 0.0, 0.0, 0.0, 0.0, 0.0, 0.001)",0.209437489583451,2.9554282767591672e-05,0.0,0.0,0.0,-0.0481645021059067,"(0.0, 0.0, 0.0, 0.0, 0.0, 0.0, 0.0, 0.0, 0.0, 0.0, 0.0, 0.0, 0.0, 0.0, 0.0, 0.0, 0.0, 0.0, 0.0, 0.0, 0.0, 0.0, 0.0, 0.0, 0.0, 0.0, 0.0, 0.0, 0.0, 0.0, 0.0, 0.0, 0.0, 0.0, 0.0, 0.0)",0.2199999988079071,3.986285446444526e-05,0.0,0.0,0.0,-0.0560943149030208,48,2,78000000,base_footprint,1.0411006601653685e-05,0.0038710516626713,-0.0050830232201832,0.999979588654478,0.0,0.0,0.0,0.0,0.0,0.0,0.0,0.0,0.0,-0.0003746660793351,7.192464959432756e-05,-0.0480745780228509,0.0,0.0,0.0,0.0,0.0,0.0,0.0,0.0,0.0,0.0038899689538324,-0.0106528116306863,-0.0002607713031741,0.0,0.0,0.0,0.0,0.0,0.0,0.0,0.0,0.0
2.112,-0.011574521311021334,0.007254491341583694,-7.797269717850001e-05,-0.001408283181621112,-0.01006159834276854,0.21341547007950154,0.21340466753185183,-0.0021472645096523115,-0.04904727208212811,0.19249685717901005,-0.045836800715767845,0.007106313980502862,-7.729765358562613e-05,-0.0016332741603348664,50.0,2.0,55000000.0,odom,base_footprint,0.1087715553789064,-0.0001041361977822,-0.0010033738107651,8.41477500337496e-06,0.0038677737324403,-0.0045535181136754,0.9999821527049044,"(1e-05, 0.0, 0.0, 0.0, 0.0, 0.0, 0.0, 1e-05, 0.0, 0.0, 0.0, 0.0, 0.0, 0.0, 1000000000000.0, 0.0, 0.0, 0.0, 0.0, 0.0, 0.0, 1000000000000.0, 0.0, 0.0, 0.0, 0.0, 0.0, 0.0, 1000000000000.0, 0.0, 0.0, 0.0, 0.0, 0.0, 0.0, 0.001)",0.209437489583451,2.9554282767591672e-05,0.0,0.0,0.0,-0.0481645021059067,"(0.0, 0.0, 0.0, 0.0, 0.0, 0.0, 0.0, 0.0, 0.0, 0.0, 0.0, 0.0, 0.0, 0.0, 0.0, 0.0, 0.0, 0.0, 0.0, 0.0, 0.0, 0.0, 0.0, 0.0, 0.0, 0.0, 0.0, 0.0, 0.0, 0.0, 0.0, 0.0, 0.0, 0.0, 0.0, 0.0)",0.2199999988079071,3.986285446444526e-05,0.0,0.0,0.0,-0.0560943149030208,49,2,112000000,base_footprint,1.3949094336230887e-05,0.0038652389147006,-0.0057871525734144,0.9999757840061164,0.0,0.0,0.0,0.0,0.0,0.0,0.0,0.0,0.0,-0.0002221065968985,-4.449194997154698e-05,-0.0360433649378381,0.0,0.0,0.0,0.0,0.0,0.0,0.0,0.0,0.0,0.3238997001403024,-0.0116297750237942,-0.0021743556425693,0.0,0.0,0.0,0.0,0.0,0.0,0.0,0.0,0.0
2.146,-0.013181511713009407,0.007556901070025213,-9.633857931749999e-05,-0.0016069904019880724,-0.011694872503103415,0.22885947712992138,0.22884382674804948,-0.0026764213961429917,-0.008084324907209289,0.4637839955081034,1.2301185337813458,0.007620487463262918,-9.014033893564169e-05,-0.00026920801941006936,52.0,2.0,122000000.0,odom,base_footprint,0.1230878898674595,-0.0002542168174147,-0.0010034220840588,1.4766651859634546e-05,0.0038668900205617,-0.0059991735284659,0.9999745281058364,"(1e-05, 0.0, 0.0, 0.0, 0.0, 0.0, 0.0, 1e-05, 0.0, 0.0, 0.0, 0.0, 0.0, 0.0, 1000000000000.0, 0.0, 0.0, 0.0, 0.0, 0.0, 0.0, 1000000000000.0, 0.0, 0.0, 0.0, 0.0, 0.0, 0.0, 1000000000000.0, 0.0, 0.0, 0.0, 0.0, 0.0, 0.0, 0.001)",0.2251390430973106,2.892403898821852e-05,0.0,0.0,0.0,-0.0404161166490226,"(0.0, 0.0, 0.0, 0.0, 0.0, 0.0, 0.0, 0.0, 0.0, 0.0, 0.0, 0.0, 0.0, 0.0, 0.0, 0.0, 0.0, 0.0, 0.0, 0.0, 0.0, 0.0, 0.0, 0.0, 0.0, 0.0, 0.0, 0.0, 0.0, 0.0, 0.0, 0.0, 0.0, 0.0, 0.0, 0.0)",0.2199999988079071,3.986285446444526e-05,0.0,0.0,0.0,-0.0560943149030208,50,2,146000000,base_footprint,1.7401109797200894e-05,0.0038782761965645,-0.0065906269290034,0.9999707607263462,0.0,0.0,0.0,0.0,0.0,0.0,0.0,0.0,0.0,-0.0005115268833802,-0.0015253843132058,-0.0532957308524101,0.0,0.0,0.0,0.0,0.0,0.0,0.0,0.0,0.0,0.001202295440952,-0.0144525371744135,0.002355881427767,0.0,0.0,0.0,0.0,0.0,0.0,0.0,0.0,0.0
2.18,-0.01500315195140757,0.007505878800700694,-0.0001087341229421,-0.0018216402383981634,-0.01196408052251341,0.21862728190257924,0.21861163501961917,-0.0026156120046137445,-0.05576672714852121,-0.3072731299502145,-1.4319039712105681,0.007279682514560157,-9.384942415017668e-05,-0.0018570320140457565,53.0,2.0,155000000.0,odom,base_footprint,0.1303979870613778,-0.0003519188906197,-0.0010043080116289,1.868453113501036e-05,0.0038749711380127,-0.0068562381678398,0.9999689876429938,"(1e-05, 0.0, 0.0, 0.0, 0.0, 0.0, 0.0, 1e-05, 0.0, 0.0, 0.0, 0.0, 0.0, 0.0, 1000000000000.0, 0.0, 0.0, 0.0, 0.0, 0.0, 0.0, 1000000000000.0, 0.0, 0.0, 0.0, 0.0, 0.0, 0.0, 1000000000000.0, 0.0, 0.0, 0.0, 0.0, 0.0, 0.0, 0.001)",0.220825135194356,-5.769897843603371e-06,0.0,0.0,0.0,-0.0535358770481319,"(0.0, 0.0, 0.0, 0.0, 0.0, 0.0, 0.0, 0.0, 0.0, 0.0, 0.0, 0.0, 0.0, 0.0, 0.0, 0.0, 0.0, 0.0, 0.0, 0.0, 0.0, 0.0, 0.0, 0.0, 0.0, 0.0, 0.0, 0.0, 0.0, 0.0, 0.0, 0.0, 0.0, 0.0, 0.0, 0.0)",0.2199999988079071,3.986285446444526e-05,0.0,0.0,0.0,-0.0560943149030208,51,2,180000000,base_footprint,2.3426036555829906e-05,0.0038732887531649,-0.0075014275396272,0.9999643622001352,0.0,0.0,0.0,0.0,0.0,0.0,0.0,0.0,0.0,-0.0002124381448666,-0.000388817777257,-0.0522562108372818,0.0,0.0,0.0,0.0,0.0,0.0,0.0,0.0,0.0,0.0011640775651205,-0.0171357753625588,-0.0018261438716151,0.0,0.0,0.0,0.0,0.0,0.0,0.0,0.0,0.0
2.214,-0.016769171775179448,0.007469203370043587,-0.0001168131467643,-0.0017660198237718775,-0.013821112536559266,0.22484044830231703,0.224818973778627,-0.003107446204190603,-0.05611989026696787,0.1865815735656994,-0.010605499052452215,0.007486370928315826,-0.00011046316495879645,-0.0018687923458900304,54.0,2.0,189000000.0,odom,base_footprint,0.1379011175752455,-0.0004657837318552,-0.0010037956053983,2.537039214502171e-05,0.0038718233277152,-0.0077624854004128,0.999962375372629,"(1e-05, 0.0, 0.0, 0.0, 0.0, 0.0, 0.0, 1e-05, 0.0, 0.0, 0.0, 0.0, 0.0, 0.0, 1000000000000.0, 0.0, 0.0, 0.0, 0.0, 0.0, 0.0, 1000000000000.0, 0.0, 0.0, 0.0, 0.0, 0.0, 0.0, 1000000000000.0, 0.0, 0.0, 0.0, 0.0, 0.0, 0.0, 0.001)",0.220263550227875,-3.879458255897327e-05,0.0,0.0,0.0,-0.0522897823078489,"(0.0, 0.0, 0.0, 0.0, 0.0, 0.0, 0.0, 0.0, 0.0, 0.0, 0.0, 0.0, 0.0, 0.0, 0.0, 0.0, 0.0, 0.0, 0.0, 0.0, 0.0, 0.0, 0.0, 0.0, 0.0, 0.0, 0.0, 0.0, 0.0, 0.0, 0.0, 0.0, 0.0, 0.0, 0.0, 0.0)",0.2199999988079071,2.8924039725097828e-05,0.0,0.0,0.0,-0.0486212335526943,52,2,214000000,base_footprint,2.6819645310068177e-05,0.0038717529358931,-0.0083844029478646,0.9999573543892348,0.0,0.0,0.0,0.0,0.0,0.0,0.0,0.0,0.0,-0.0006970147969443,0.0003675636946091,-0.0527373789691629,0.0,0.0,0.0,0.0,0.0,0.0,0.0,0.0,0.0,-0.0626843327228944,6.653478396029174e-05,-0.0012013752765137,0.0,0.0,0.0,0.0,0.0,0.0,0.0,0.0,0.0
2.248,-0.018696218928693217,0.00744530110569061,-0.00012901029006470006,-0.0019270471535137688,-0.01568990488244948,0.2179008770593633,0.217874056940712,-0.0034187037653425163,-0.05466483674704109,-0.20839553282143297,0.0436953008987021,0.007255098634903088,-0.00012043648706780643,-0.0018203390636764684,54.0,2.0,189000000.0,odom,base_footprint,0.1379011175752455,-0.0004657837318552,-0.0010037956053983,2.537039214502171e-05,0.0038718233277152,-0.0077624854004128,0.999962375372629,"(1e-05, 0.0, 0.0, 0.0, 0.0, 0.0, 0.0, 1e-05, 0.0, 0.0, 0.0, 0.0, 0.0, 0.0, 1000000000000.0, 0.0, 0.0, 0.0, 0.0, 0.0, 0.0, 1000000000000.0, 0.0, 0.0, 0.0, 0.0, 0.0, 0.0, 1000000000000.0, 0.0, 0.0, 0.0, 0.0, 0.0, 0.0, 0.001)",0.220263550227875,-3.879458255897327e-05,0.0,0.0,0.0,-0.0522897823078489,"(0.0, 0.0, 0.0, 0.0, 0.0, 0.0, 0.0, 0.0, 0.0, 0.0, 0.0, 0.0, 0.0, 0.0, 0.0, 0.0, 0.0, 0.0, 0.0, 0.0, 0.0, 0.0, 0.0, 0.0, 0.0, 0.0, 0.0, 0.0, 0.0, 0.0, 0.0, 0.0, 0.0, 0.0, 0.0, 0.0)",0.2199999988079071,2.8924039725097828e-05,0.0,0.0,0.0,-0.0486212335526943,53,2,248000000,base_footprint,2.8987359312138405e-05,0.0038770515310001,-0.0093478749193393,0.9999487911216512,0.0,0.0,0.0,0.0,0.0,0.0,0.0,0.0,0.0,-0.000279884944285,0.0004071338224702,-0.0506025490848222,0.0,0.0,0.0,0.0,0.0,0.0,0.0,0.0,0.0,0.0360694096156877,-0.0111056010270426,-0.0002098384460797,0.0,0.0,0.0,0.0,0.0,0.0,0.0,0.0,0.0
2.282,-0.020312288003663234,0.007467899645341697,-0.0001444193889925,-0.0016160690749700175,-0.01751024394612566,0.21750568247393548,0.21747233876482455,-0.0038083829389712093,-0.04774203911569993,-0.011867705268103082,0.20789182076099583,0.007241725199284268,-0.00013256592968248105,-0.0015898099025528079,56.0,2.0,255000000.0,odom,base_footprint,0.1523698850481313,-0.0007094340583818,-0.0010047607386571,3.0315556800467885e-05,0.0038787741656245,-0.0095340975116784,0.999947026185176,"(1e-05, 0.0, 0.0, 0.0, 0.0, 0.0, 0.0, 1e-05, 0.0, 0.0, 0.0, 0.0, 0.0, 0.0, 1000000000000.0, 0.0, 0.0, 0.0, 0.0, 0.0, 0.0, 1000000000000.0, 0.0, 0.0, 0.0, 0.0, 0.0, 0.0, 1000000000000.0, 0.0, 0.0, 0.0, 0.0, 0.0, 0.0, 0.001)",0.2198646488765246,3.469604409092695e-05,0.0,0.0,0.0,-0.0446491229285508,"(0.0, 0.0, 0.0, 0.0, 0.0, 0.0, 0.0, 0.0, 0.0, 0.0, 0.0, 0.0, 0.0, 0.0, 0.0, 0.0, 0.0, 0.0, 0.0, 0.0, 0.0, 0.0, 0.0, 0.0, 0.0, 0.0, 0.0, 0.0, 0.0, 0.0, 0.0, 0.0, 0.0, 0.0, 0.0, 0.0)",0.2199999988079071,0.0,0.0,0.0,0.0,-0.0500818230211734,54,2,282000000,base_footprint,2.987355703706581e-05,0.0038754530521505,-0.0101558563689088,0.9999409175309436,0.0,0.0,0.0,0.0,0.0,0.0,0.0,0.0,0.0,-0.000444761800463,-0.0001393310328235,-0.0483343329914787,0.0,0.0,0.0,0.0,0.0,0.0,0.0,0.0,0.0,-0.0030778927399473,-0.0183639146729782,0.0011755219539548,0.0,0.0,0.0,0.0,0.0,0.0,0.0,0.0,0.0
2.316,-0.021995991777201268,0.007472415807416893,-0.00015735085492919992,-0.001683703773538034,-0.019100053848678744,0.2240781432454051,0.22403727128379095,-0.0042796443802455356,-0.049010536142834314,0.1973711943384268,-0.03809300381784941,0.0074603217280239265,-0.00014858997591858764,-0.0016320508535563828,56.0,2.0,255000000.0,odom,base_footprint,0.1523698850481313,-0.0007094340583818,-0.0010047607386571,3.0315556800467885e-05,0.0038787741656245,-0.0095340975116784,0.999947026185176,"(1e-05, 0.0, 0.0, 0.0, 0.0, 0.0, 0.0, 1e-05, 0.0, 0.0, 0.0, 0.0, 0.0, 0.0, 1000000000000.0, 0.0, 0.0, 0.0, 0.0, 0.0, 0.0, 1000000000000.0, 0.0, 0.0, 0.0, 0.0, 0.0, 0.0, 1000000000000.0, 0.0, 0.0, 0.0, 0.0, 0.0, 0.0, 0.001)",0.2198646488765246,3.469604409092695e-05,0.0,0.0,0.0,-0.0446491229285508,"(0.0, 0.0, 0.0, 0.0, 0.0, 0.0, 0.0, 0.0, 0.0, 0.0, 0.0, 0.0, 0.0, 0.0, 0.0, 0.0, 0.0, 0.0, 0.0, 0.0, 0.0, 0.0, 0.0, 0.0, 0.0, 0.0, 0.0, 0.0, 0.0, 0.0, 0.0, 0.0, 0.0, 0.0, 0.0, 0.0)",0.2199999988079071,0.0,0.0,0.0,0.0,-0.0500818230211734,55,2,316000000,base_footprint,3.3582581428657564e-05,0.0038717205239171,-0.0109976568978816,0.9999320277874648,0.0,0.0,0.0,0.0,0.0,0.0,0.0,0.0,0.0,-0.0002651243518728,-0.000460650070537,-0.0496618951664974,0.0,0.0,0.0,0.0,0.0,0.0,0.0,0.0,0.0,0.0062078186084758,-0.0095688419109417,0.0007237967283909,0.0,0.0,0.0,0.0,0.0,0.0,0.0,0.0,0.0
2.35,-0.02369286492537434,0.00747772909280342,-0.00016954291692310012,-0.0016968731481730723,-0.020732104702235077,0.21745095265217035,0.21740422192380784,-0.004507892971240845,-0.04906926920020586,-0.19901473252957189,-0.0017637554766229227,0.007239434935526697,-0.00015601778284690362,-0.0016340066643668553,58.0,2.0,322000000.0,odom,base_footprint,0.1670908131753468,-0.0010127041250287,-0.0010037582909001,3.45236839864359e-05,0.0038705980872591,-0.0111717899649567,0.999930101750888,"(1e-05, 0.0, 0.0, 0.0, 0.0, 0.0, 0.0, 1e-05, 0.0, 0.0, 0.0, 0.0, 0.0, 0.0, 1000000000000.0, 0.0, 0.0, 0.0, 0.0, 0.0, 0.0, 1000000000000.0, 0.0, 0.0, 0.0, 0.0, 0.0, 0.0, 1000000000000.0, 0.0, 0.0, 0.0, 0.0, 0.0, 0.0, 0.001)",0.219933209222507,4.619843114840767e-05,0.0,0.0,0.0,-0.0497558923945332,"(0.0, 0.0, 0.0, 0.0, 0.0, 0.0, 0.0, 0.0, 0.0, 0.0, 0.0, 0.0, 0.0, 0.0, 0.0, 0.0, 0.0, 0.0, 0.0, 0.0, 0.0, 0.0, 0.0, 0.0, 0.0, 0.0, 0.0, 0.0, 0.0, 0.0, 0.0, 0.0, 0.0, 0.0, 0.0, 0.0)",0.2199999988079071,0.0,0.0,0.0,0.0,-0.0500818230211734,56,2,350000000,base_footprint,3.74918946934358e-05,0.0038666091506515,-0.0118460346669783,0.999922356681109,0.0,0.0,0.0,0.0,0.0,0.0,0.0,0.0,0.0,-0.0003439522150602,-0.0004111697619151,-0.0501073474162204,0.0,0.0,0.0,0.0,0.0,0.0,0.0,0.0,0.0,0.004514361503637,-0.0111613016330237,-6.567544621787212e-05,0.0,0.0,0.0,0.0,0.0,0.0,0.0,0.0,0.0
2.384,-0.02540439783343389,0.007483515774438898,-0.00018237748991819982,-0.0017115329080595494,-0.02236611136660205,0.21756963849790553,0.21751522192886674,-0.004865781062189399,-0.04951118527965706,0.0035641395115670743,-0.013270753136672765,0.0072431202628453475,-0.0001679917597467977,-0.0016487224698125804,59.0,2.0,355000000.0,odom,base_footprint,0.1743496445700041,-0.0011796336111796,-0.0010031316907409,3.810581674148509e-05,0.0038658924563547,-0.0119965086791265,0.999920565446563,"(1e-05, 0.0, 0.0, 0.0, 0.0, 0.0, 0.0, 1e-05, 0.0, 0.0, 0.0, 0.0, 0.0, 0.0, 1000000000000.0, 0.0, 0.0, 0.0, 0.0, 0.0, 0.0, 1000000000000.0, 0.0, 0.0, 0.0, 0.0, 0.0, 0.0, 1000000000000.0, 0.0, 0.0, 0.0, 0.0, 0.0, 0.0, 0.001)",0.2201050009769267,4.735285812708986e-05,0.0,0.0,0.0,-0.0501841345155744,"(0.0, 0.0, 0.0, 0.0, 0.0, 0.0, 0.0, 0.0, 0.0, 0.0, 0.0, 0.0, 0.0, 0.0, 0.0, 0.0, 0.0, 0.0, 0.0, 0.0, 0.0, 0.0, 0.0, 0.0, 0.0, 0.0, 0.0, 0.0, 0.0, 0.0, 0.0, 0.0, 0.0, 0.0, 0.0, 0.0)",0.2199999988079071,4.735285983770154e-05,0.0,0.0,0.0,-0.0419790185987949,57,2,384000000,base_footprint,4.090348789288017e-05,0.0038634954094401,-0.0127017309590115,0.999911864996496,0.0,0.0,0.0,0.0,0.0,0.0,0.0,0.0,0.0,-0.0003568698249728,-0.0002926016927082,-0.0505434500016749,0.0,0.0,0.0,0.0,0.0,0.0,0.0,0.0,0.0,0.004996477335659,-0.0113284501466425,-0.0002530191076609,0.0,0.0,0.0,0.0,0.0,0.0,0.0,0.0,0.0
2.418,-0.026910345924290705,0.00748772822468749,-0.00019482643431610017,-0.0015059480908568151,-0.02401483383641434,0.22434160668510642,0.22427691951829118,-0.00538700857999499,-0.05143242174529724,0.20336240802405053,-0.05769478875796333,0.007468264400097983,-0.00018577284014185166,-0.0017126996441183982,60.0,2.0,389000000.0,odom,base_footprint,0.1818342248693436,-0.0013642990723574,-0.0010027730646274,4.148772332335265e-05,0.0038631550290049,-0.0128535075984248,0.9999099267706106,"(1e-05, 0.0, 0.0, 0.0, 0.0, 0.0, 0.0, 1e-05, 0.0, 0.0, 0.0, 0.0, 0.0, 0.0, 1000000000000.0, 0.0, 0.0, 0.0, 0.0, 0.0, 0.0, 1000000000000.0, 0.0, 0.0, 0.0, 0.0, 0.0, 0.0, 1000000000000.0, 0.0, 0.0, 0.0, 0.0, 0.0, 0.0, 0.001)",0.2202953938765068,4.750578204321034e-05,0.0,0.0,0.0,-0.0506232985543044,"(0.0, 0.0, 0.0, 0.0, 0.0, 0.0, 0.0, 0.0, 0.0, 0.0, 0.0, 0.0, 0.0, 0.0, 0.0, 0.0, 0.0, 0.0, 0.0, 0.0, 0.0, 0.0, 0.0, 0.0, 0.0, 0.0, 0.0, 0.0, 0.0, 0.0, 0.0, 0.0, 0.0, 0.0, 0.0, 0.0)",0.2199999988079071,4.735285983770154e-05,0.0,0.0,0.0,-0.0419790185987949,58,2,418000000,base_footprint,4.371053708245601e-05,0.0038622090147354,-0.0134546347157906,0.9999020223179772,0.0,0.0,0.0,0.0,0.0,0.0,0.0,0.0,0.0,-0.0003128100544751,-0.0002161430310454,-0.0428751369016685,0.0,0.0,0.0,0.0,0.0,0.0,0.0,0.0,0.0,0.002994923774138,-0.0100316981416278,-0.0001849255133054,0.0,0.0,0.0,0.0,0.0,0.0,0.0,0.0,0.0
2.452,-0.028376173391070587,0.0074932567452843934,-0.00020598856243159982,-0.0014658274667798817,-0.025727533480532916,0.21792617216777524,0.2178540528277571,-0.005606084392839578,-0.042476748742051845,-0.1926556912111464,0.2689391292265884,0.0072544057688974425,-0.0001918034823117393,-0.0014144757331103267,61.0,2.0,422000000.0,odom,base_footprint,0.1891022695714816,-0.0015551761944278,-0.0010026494535519,4.4089384359980974e-05,0.0038621695725103,-0.0135619279886136,0.9999005729629076,"(1e-05, 0.0, 0.0, 0.0, 0.0, 0.0, 0.0, 1e-05, 0.0, 0.0, 0.0, 0.0, 0.0, 0.0, 1000000000000.0, 0.0, 0.0, 0.0, 0.0, 0.0, 0.0, 1000000000000.0, 0.0, 0.0, 0.0, 0.0, 0.0, 0.0, 1000000000000.0, 0.0, 0.0, 0.0, 0.0, 0.0, 0.0, 0.001)",0.2204092988753552,4.321010772810954e-05,0.0,0.0,0.0,-0.0429435572466586,"(0.0, 0.0, 0.0, 0.0, 0.0, 0.0, 0.0, 0.0, 0.0, 0.0, 0.0, 0.0, 0.0, 0.0, 0.0, 0.0, 0.0, 0.0, 0.0, 0.0, 0.0, 0.0, 0.0, 0.0, 0.0, 0.0, 0.0, 0.0, 0.0, 0.0, 0.0, 0.0, 0.0, 0.0, 0.0, 0.0)",0.2199999988079071,4.735285983770154e-05,0.0,0.0,0.0,-0.0419790185987949,59,2,452000000,base_footprint,4.61912335228603e-05,0.0038625424613547,-0.0141874715662379,0.9998918912975848,0.0,0.0,0.0,0.0,0.0,0.0,0.0,0.0,0.0,-0.0003319661259824,-0.0001291070123813,-0.0433255298209688,0.0,0.0,0.0,0.0,0.0,0.0,0.0,0.0,0.0,0.0050969104939033,-0.009927579251857,-0.0002122399215128,0.0,0.0,0.0,0.0,0.0,0.0,0.0,0.0,0.0
2.486,-0.02985702545594684,0.007499309553096523,-0.0002173398101169002,-0.001480852064876255,-0.02714200921364318,0.2181052735687963,0.2180249406593582,-0.005919088528044441,-0.042740139293993826,0.005378420451083018,-0.007909626184443857,0.00726008807976947,-0.00020226237204716134,-0.0014232466384899946,62.0,2.0,455000000.0,odom,base_footprint,0.1963759211830887,-0.0017565578225495,-0.0010027277923787,4.6465802468498094e-05,0.003862679419793,-0.0142741869233647,0.9998906565901624,"(1e-05, 0.0, 0.0, 0.0, 0.0, 0.0, 0.0, 1e-05, 0.0, 0.0, 0.0, 0.0, 0.0, 0.0, 1000000000000.0, 0.0, 0.0, 0.0, 0.0, 0.0, 0.0, 1000000000000.0, 0.0, 0.0, 0.0, 0.0, 0.0, 0.0, 1000000000000.0, 0.0, 0.0, 0.0, 0.0, 0.0, 0.0, 0.001)",0.2205956060876616,3.96809187343224e-05,0.0,0.0,0.0,-0.0433791561563804,"(0.0, 0.0, 0.0, 0.0, 0.0, 0.0, 0.0, 0.0, 0.0, 0.0, 0.0, 0.0, 0.0, 0.0, 0.0, 0.0, 0.0, 0.0, 0.0, 0.0, 0.0, 0.0, 0.0, 0.0, 0.0, 0.0, 0.0, 0.0, 0.0, 0.0, 0.0, 0.0, 0.0, 0.0, 0.0, 0.0)",0.2199999988079071,4.321010783314705e-05,0.0,0.0,0.0,-0.0347384251654148,60,2,486000000,base_footprint,4.8380286614115045e-05,0.0038644103955137,-0.01492781076804,0.999881105160667,0.0,0.0,0.0,0.0,0.0,0.0,0.0,0.0,0.0,-0.0003588825019664,-3.793388109340771e-05,-0.0437560916969675,0.0,0.0,0.0,0.0,0.0,0.0,0.0,0.0,0.0,0.0049628461968548,-0.0100478183366851,-0.0002400168580515,0.0,0.0,0.0,0.0,0.0,0.0,0.0,0.0,0.0
2.52,-0.03114001808995762,0.0075033228694026954,-0.00022821221030739996,-0.001282992634010778,-0.02856525585213321,0.22489647773448315,0.2248047291519582,-0.006423351795722411,-0.0444422557233558,0.20394006503564108,-0.051114607488347535,0.0074858367666560295,-0.00021942683975768924,-0.0014799271155877482,62.0,2.0,455000000.0,odom,base_footprint,0.1963759211830887,-0.0017565578225495,-0.0010027277923787,4.6465802468498094e-05,0.003862679419793,-0.0142741869233647,0.9998906565901624,"(1e-05, 0.0, 0.0, 0.0, 0.0, 0.0, 0.0, 1e-05, 0.0, 0.0, 0.0, 0.0, 0.0, 0.0, 1000000000000.0, 0.0, 0.0, 0.0, 0.0, 0.0, 0.0, 1000000000000.0, 0.0, 0.0, 0.0, 0.0, 0.0, 0.0, 1000000000000.0, 0.0, 0.0, 0.0, 0.0, 0.0, 0.0, 0.001)",0.2205956060876616,3.96809187343224e-05,0.0,0.0,0.0,-0.0433791561563804,"(0.0, 0.0, 0.0, 0.0, 0.0, 0.0, 0.0, 0.0, 0.0, 0.0, 0.0, 0.0, 0.0, 0.0, 0.0, 0.0, 0.0, 0.0, 0.0, 0.0, 0.0, 0.0, 0.0, 0.0, 0.0, 0.0, 0.0, 0.0, 0.0, 0.0, 0.0, 0.0, 0.0, 0.0, 0.0, 0.0)",0.2199999988079071,4.321010783314705e-05,0.0,0.0,0.0,-0.0347384251654148,61,2,520000000,base_footprint,4.975666176425608e-05,0.0038680510136304,-0.0155692229592069,0.9998713092203804,0.0,0.0,0.0,0.0,0.0,0.0,0.0,0.0,0.0,-0.0003367644894488,8.833107628298365e-05,-0.0368598605027011,0.0,0.0,0.0,0.0,0.0,0.0,0.0,0.0,0.0,0.002734144208708,-0.0087272745096337,-0.0003044809896522,0.0,0.0,0.0,0.0,0.0,0.0,0.0,0.0,0.0
2.5540000000000003,-0.032393623466749226,0.007507801594682784,-0.00023811469149189997,-0.0012536053767916062,-0.03004518296772085,0.21845467001936397,0.21835607649909783,-0.006562523081053406,-0.0364863113272195,-0.19344767913270808,0.2389172491332221,0.00727112310053424,-0.00022293945922568305,-0.0012149941671964096,64.0,2.0,522000000.0,odom,base_footprint,0.2111588757289196,-0.002197732574451,-0.0010035374223024,4.9847409547477466e-05,0.0038684917493535,-0.0156245351594555,0.9998704447016484,"(1e-05, 0.0, 0.0, 0.0, 0.0, 0.0, 0.0, 1e-05, 0.0, 0.0, 0.0, 0.0, 0.0, 0.0, 1000000000000.0, 0.0, 0.0, 0.0, 0.0, 0.0, 0.0, 1000000000000.0, 0.0, 0.0, 0.0, 0.0, 0.0, 0.0, 1000000000000.0, 0.0, 0.0, 0.0, 0.0, 0.0, 0.0, 0.001)",0.2208870749186924,2.7613056064430125e-05,0.0,0.0,0.0,-0.0368835133109533,"(0.0, 0.0, 0.0, 0.0, 0.0, 0.0, 0.0, 0.0, 0.0, 0.0, 0.0, 0.0, 0.0, 0.0, 0.0, 0.0, 0.0, 0.0, 0.0, 0.0, 0.0, 0.0, 0.0, 0.0, 0.0, 0.0, 0.0, 0.0, 0.0, 0.0, 0.0, 0.0, 0.0, 0.0, 0.0, 0.0)",0.2199999988079071,4.321010783314705e-05,0.0,0.0,0.0,-0.0347384251654148,62,2,554000000,base_footprint,5.184277631178924e-05,0.0038728321767657,-0.0161959399204824,0.999861335392738,0.0,0.0,0.0,0.0,0.0,0.0,0.0,0.0,0.0,-0.0003069526960808,9.089987781020332e-05,-0.0367180154660907,0.0,0.0,0.0,0.0,0.0,0.0,0.0,0.0,0.0,0.0030855416844309,-0.0090352284933665,-0.0001567881271191,0.0,0.0,0.0,0.0,0.0,0.0,0.0,0.0,0.0
2.588,-0.03362998232502603,0.007509686852777114,-0.0002483419031206,-0.0012363588582768037,-0.031260177134917466,0.2185885090062511,0.21848171550258363,-0.00683200268033043,-0.036384903888253446,0.004019188795409153,0.0030452684374190912,0.0072753018329552,-0.0002319033799050748,-0.0012116172994788398,65.0,2.0,555000000.0,odom,base_footprint,0.2184461346772264,-0.0024295769630682,-0.0010041471471174,5.203291529161338e-05,0.0038730828408929,-0.0162326562635928,0.9998607389994424,"(1e-05, 0.0, 0.0, 0.0, 0.0, 0.0, 0.0, 1e-05, 0.0, 0.0, 0.0, 0.0, 0.0, 0.0, 1000000000000.0, 0.0, 0.0, 0.0, 0.0, 0.0, 0.0, 1000000000000.0, 0.0, 0.0, 0.0, 0.0, 0.0, 0.0, 1000000000000.0, 0.0, 0.0, 0.0, 0.0, 0.0, 0.0, 0.001)",0.2210023630326429,5.172647163261684e-06,0.0,0.0,0.0,-0.0366928765076927,"(0.0, 0.0, 0.0, 0.0, 0.0, 0.0, 0.0, 0.0, 0.0, 0.0, 0.0, 0.0, 0.0, 0.0, 0.0, 0.0, 0.0, 0.0, 0.0, 0.0, 0.0, 0.0, 0.0, 0.0, 0.0, 0.0, 0.0, 0.0, 0.0, 0.0, 0.0, 0.0, 0.0, 0.0, 0.0, 0.0)",0.2084210515022277,3.5211065551266074e-05,0.0,0.0,0.0,-0.0355995781719684,63,2,588000000,base_footprint,5.444252479413033e-05,0.0038764445916406,-0.0168140307781293,0.999851118208272,0.0,0.0,0.0,0.0,0.0,0.0,0.0,0.0,0.0,-0.0002730238481396,3.9734777129982994e-05,-0.0358280318331973,0.0,0.0,0.0,0.0,0.0,0.0,0.0,0.0,0.0,-0.0011681736421229,-0.0084996011902262,-5.575193104048228e-06,0.0,0.0,0.0,0.0,0.0,0.0,0.0,0.0,0.0
2.622,-0.03403335104918616,0.007462425677857293,-0.0002542278604330001,-0.00040336872416012887,-0.03370085869001471,0.21734514668766472,0.217221733724426,-0.007323331648715448,-0.008974112722008334,-0.2378865238970838,0.8388805940856079,0.007233447516224707,-0.00024493803794484073,-0.00029883795364287754,66.0,2.0,589000000.0,odom,base_footprint,0.2259557459491331,-0.0026785035310541,-0.0010046055425276,5.458754682399353e-05,0.0038765947567047,-0.0168498308298465,0.9998505149442578,"(1e-05, 0.0, 0.0, 0.0, 0.0, 0.0, 0.0, 1e-05, 0.0, 0.0, 0.0, 0.0, 0.0, 0.0, 1000000000000.0, 0.0, 0.0, 0.0, 0.0, 0.0, 0.0, 1000000000000.0, 0.0, 0.0, 0.0, 0.0, 0.0, 0.0, 1000000000000.0, 0.0, 0.0, 0.0, 0.0, 0.0, 0.0, 0.001)",0.2209683390585407,-1.1968800641404091e-05,0.0,0.0,0.0,-0.0357704223615504,"(0.0, 0.0, 0.0, 0.0, 0.0, 0.0, 0.0, 0.0, 0.0, 0.0, 0.0, 0.0, 0.0, 0.0, 0.0, 0.0, 0.0, 0.0, 0.0, 0.0, 0.0, 0.0, 0.0, 0.0, 0.0, 0.0, 0.0, 0.0, 0.0, 0.0, 0.0, 0.0, 0.0, 0.0, 0.0, 0.0)",0.2084210515022277,3.5211065551266074e-05,0.0,0.0,0.0,-0.0355995781719684,64,2,622000000,base_footprint,5.550238723495411e-05,0.003877431159554,-0.0170156857049875,0.9998477028463272,0.0,0.0,0.0,0.0,0.0,0.0,0.0,0.0,0.0,-1.1850162774320232e-05,-0.000234903302661,-0.0089883235526015,0.0,0.0,0.0,0.0,0.0,0.0,0.0,0.0,0.0,-0.0507798456983376,0.0014537255545229,0.0009444377841205,0.0,0.0,0.0,0.0,0.0,0.0,0.0,0.0,0.0
2.656,-0.035521049400967,0.0073246394261773096,-0.0002528272373777999,-0.0014876983517808431,-0.03399969664365754,0.20679985578942572,0.2066803391196268,-0.0070297778004252435,-0.035172641632091536,-0.31667540234951935,-0.7867426099124084,0.00688231694938014,-0.00023811283097052222,-0.0011712489663486482,67.0,2.0,622000000.0,odom,base_footprint,0.2331956359933795,-0.0029252806991869,-0.0010047196697436,5.554860086504309e-05,0.0038773876842992,-0.0170202715092167,0.9998476249593492,"(1e-05, 0.0, 0.0, 0.0, 0.0, 0.0, 0.0, 1e-05, 0.0, 0.0, 0.0, 0.0, 0.0, 0.0, 1000000000000.0, 0.0, 0.0, 0.0, 0.0, 0.0, 0.0, 1000000000000.0, 0.0, 0.0, 0.0, 0.0, 0.0, 0.0, 1000000000000.0, 0.0, 0.0, 0.0, 0.0, 0.0, 0.0, 0.001)",0.2192652595426352,2.2394892964022403e-06,0.0,0.0,0.0,-0.0091387347012883,"(0.0, 0.0, 0.0, 0.0, 0.0, 0.0, 0.0, 0.0, 0.0, 0.0, 0.0, 0.0, 0.0, 0.0, 0.0, 0.0, 0.0, 0.0, 0.0, 0.0, 0.0, 0.0, 0.0, 0.0, 0.0, 0.0, 0.0, 0.0, 0.0, 0.0, 0.0, 0.0, 0.0, 0.0, 0.0, 0.0)",0.2084210515022277,3.5211065551266074e-05,0.0,0.0,0.0,-0.0355995781719684,65,2,656000000,base_footprint,6.390470435436509e-05,0.0038807601227617,-0.0177594377224822,0.9998347553415212,0.0,0.0,0.0,0.0,0.0,0.0,0.0,0.0,0.0,0.0001774798350094,0.0014154719128061,-0.0771496765776816,0.0,0.0,0.0,0.0,0.0,0.0,0.0,0.0,0.0,-0.1907396222417033,0.0004287135666602,-0.0017894753537196,0.0,0.0,0.0,0.0,0.0,0.0,0.0,0.0,0.0
2.69,-0.03843275879184073,0.007182511134987579,-0.00026264892338119994,-0.0029117093908737277,-0.03517094561000622,0.2128457606874055,0.2127141296421143,-0.007484443412711936,-0.03551178074698666,0.18155870564503795,-0.010184357804658359,0.007083231843122495,-0.00025341058544595547,-0.001182542298874656,68.0,2.0,655000000.0,odom,base_footprint,0.2403011469430091,-0.0031706444753168,-0.0010049724626707,6.390470435436509e-05,0.0038807601227617,-0.0177594377224822,0.9998347553415212,"(1e-05, 0.0, 0.0, 0.0, 0.0, 0.0, 0.0, 1e-05, 0.0, 0.0, 0.0, 0.0, 0.0, 0.0, 1000000000000.0, 0.0, 0.0, 0.0, 0.0, 0.0, 0.0, 1000000000000.0, 0.0, 0.0, 0.0, 0.0, 0.0, 0.0, 1000000000000.0, 0.0, 0.0, 0.0, 0.0, 0.0, 0.0, 0.001)",0.2127813509859371,-0.0001105326290078,0.0,0.0,0.0,-0.0771463512599954,"(0.0, 0.0, 0.0, 0.0, 0.0, 0.0, 0.0, 0.0, 0.0, 0.0, 0.0, 0.0, 0.0, 0.0, 0.0, 0.0, 0.0, 0.0, 0.0, 0.0, 0.0, 0.0, 0.0, 0.0, 0.0, 0.0, 0.0, 0.0, 0.0, 0.0, 0.0, 0.0, 0.0, 0.0, 0.0, 0.0)",0.2084210515022277,2.23948927668971e-06,0.0,0.0,0.0,-0.0337541177868843,66,2,690000000,base_footprint,6.340586234133969e-05,0.0038676823914373,-0.0192150107401602,0.9998078917346428,0.0,0.0,0.0,0.0,0.0,0.0,0.0,0.0,0.0,-0.0009375832978108,-0.000272197107832,-0.0788669998404286,0.0,0.0,0.0,0.0,0.0,0.0,0.0,0.0,0.0,-0.1012490348923749,0.0052578543804595,0.0042085797472715,0.0,0.0,0.0,0.0,0.0,0.0,0.0,0.0,0.0
2.724,-0.04051540915176506,0.007024657404899021,-0.0002750852098334002,-0.002082650359924332,-0.03635348790888093,0.20631804824672875,0.20618173076150662,-0.0074987287275318495,-0.03311713154882881,-0.196027400620923,0.07191138733206756,0.006865712894531974,-0.00025348422006218386,-0.0011028004805759995,68.0,2.0,655000000.0,odom,base_footprint,0.2403011469430091,-0.0031706444753168,-0.0010049724626707,6.390470435436509e-05,0.0038807601227617,-0.0177594377224822,0.9998347553415212,"(1e-05, 0.0, 0.0, 0.0, 0.0, 0.0, 0.0, 1e-05, 0.0, 0.0, 0.0, 0.0, 0.0, 0.0, 1000000000000.0, 0.0, 0.0, 0.0, 0.0, 0.0, 0.0, 1000000000000.0, 0.0, 0.0, 0.0, 0.0, 0.0, 0.0, 1000000000000.0, 0.0, 0.0, 0.0, 0.0, 0.0, 0.0, 0.001)",0.2127813509859371,-0.0001105326290078,0.0,0.0,0.0,-0.0771463512599954,"(0.0, 0.0, 0.0, 0.0, 0.0, 0.0, 0.0, 0.0, 0.0, 0.0, 0.0, 0.0, 0.0, 0.0, 0.0, 0.0, 0.0, 0.0, 0.0, 0.0, 0.0, 0.0, 0.0, 0.0, 0.0, 0.0, 0.0, 0.0, 0.0, 0.0, 0.0, 0.0, 0.0, 0.0, 0.0, 0.0)",0.2084210515022277,2.23948927668971e-06,0.0,0.0,0.0,-0.0337541177868843,67,2,724000000,base_footprint,6.368452541045358e-05,0.0038714229027227,-0.0202561101245786,0.9997873264007754,0.0,0.0,0.0,0.0,0.0,0.0,0.0,0.0,0.0,-0.0018652801939818,0.0001153908585076,-0.0581378345159911,0.0,0.0,0.0,0.0,0.0,0.0,0.0,0.0,0.0,-0.0895771773188583,-0.0175624089017745,0.0004652336626273,0.0,0.0,0.0,0.0,0.0,0.0,0.0,0.0,0.0
2.758,-0.042051772227612874,0.0070364561049584,-0.0002907441798923002,-0.001536363075847813,-0.037456288389456915,0.20603451973487513,0.2058900061420409,-0.0077154839907185345,-0.03344313951328017,-0.008514369725333938,-0.009790028962503368,0.0068559930743421465,-0.0002607340396832455,-0.0011136565457922297,70.0,2.0,722000000.0,odom,base_footprint,0.2543021354935855,-0.0037000346240085,-0.0010040105833872,6.429031968393066e-05,0.0038713851054956,-0.0202270208568133,0.9997879154457598,"(1e-05, 0.0, 0.0, 0.0, 0.0, 0.0, 0.0, 1e-05, 0.0, 0.0, 0.0, 0.0, 0.0, 0.0, 1000000000000.0, 0.0, 0.0, 0.0, 0.0, 0.0, 0.0, 1000000000000.0, 0.0, 0.0, 0.0, 0.0, 0.0, 0.0, 1000000000000.0, 0.0, 0.0, 0.0, 0.0, 0.0, 0.0, 0.001)",0.2063121563410543,1.216355792049012e-05,0.0,0.0,0.0,-0.0573971087498531,"(0.0, 0.0, 0.0, 0.0, 0.0, 0.0, 0.0, 0.0, 0.0, 0.0, 0.0, 0.0, 0.0, 0.0, 0.0, 0.0, 0.0, 0.0, 0.0, 0.0, 0.0, 0.0, 0.0, 0.0, 0.0, 0.0, 0.0, 0.0, 0.0, 0.0, 0.0, 0.0, 0.0, 0.0, 0.0, 0.0)",0.2084210515022277,2.23948927668971e-06,0.0,0.0,0.0,-0.0337541177868843,68,2,758000000,base_footprint,7.228833877494754e-05,0.0038723525432295,-0.0210241438496495,0.999771466403981,0.0,0.0,0.0,0.0,0.0,0.0,0.0,0.0,0.0,0.0002132974302141,0.0006768570737783,-0.0321570481048568,0.0,0.0,0.0,0.0,0.0,0.0,0.0,0.0,0.0,0.0521480224845262,-0.015520712501205,-0.0014670600971719,0.0,0.0,0.0,0.0,0.0,0.0,0.0,0.0,0.0
2.792,-0.04323890371018859,0.007070650803021716,-0.0003009400584416998,-0.0011871314825757165,-0.03856994493524901,0.2122658861754044,0.21210801806709184,-0.008185053786017055,-0.03475582705816663,0.18712812133721524,-0.039420046392986643,0.007063038069033147,-0.00027664009951787634,-0.001157369041036949,72.0,2.0,789000000.0,odom,base_footprint,0.2681976658896202,-0.0042821902353885,-0.0010035695849129,7.273506734790097e-05,0.0038684057178831,-0.0215786549856787,0.9997596670179392,"(1e-05, 0.0, 0.0, 0.0, 0.0, 0.0, 0.0, 1e-05, 0.0, 0.0, 0.0, 0.0, 0.0, 0.0, 1000000000000.0, 0.0, 0.0, 0.0, 0.0, 0.0, 0.0, 1000000000000.0, 0.0, 0.0, 0.0, 0.0, 0.0, 0.0, 1000000000000.0, 0.0, 0.0, 0.0, 0.0, 0.0, 0.0, 0.001)",0.2081327345910026,4.386967143887172e-05,0.0,0.0,0.0,-0.0352303067379922,"(0.0, 0.0, 0.0, 0.0, 0.0, 0.0, 0.0, 0.0, 0.0, 0.0, 0.0, 0.0, 0.0, 0.0, 0.0, 0.0, 0.0, 0.0, 0.0, 0.0, 0.0, 0.0, 0.0, 0.0, 0.0, 0.0, 0.0, 0.0, 0.0, 0.0, 0.0, 0.0, 0.0, 0.0, 0.0, 0.0)",0.2199999988079071,0.0004228756297379,0.0,0.0,0.0,-0.0214359108358621,69,2,792000000,base_footprint,7.316617018844867e-05,0.0038631088112052,-0.0216175663403257,0.9997588468538532,0.0,0.0,0.0,0.0,0.0,0.0,0.0,0.0,0.0,-0.0004682060859265,-0.0057773093631524,-0.0401193302072435,0.0,0.0,0.0,0.0,0.0,0.0,0.0,0.0,0.0,0.034619323356557,-0.0059509559603312,0.010719437236843,0.0,0.0,0.0,0.0,0.0,0.0,0.0,0.0,0.0
2.826,-0.045824396748670025,0.007402035150808783,-0.0003265350914972995,-0.0025854930384814345,-0.03972731397628593,0.2286525955865415,0.2284721827537807,-0.009081364224913738,0.00548863580415901,0.49209337570982264,1.208542428298067,0.007608151684775099,-0.00030170392696612523,0.00018277157227849505,72.0,2.0,789000000.0,odom,base_footprint,0.2681976658896202,-0.0042821902353885,-0.0010035695849129,7.273506734790097e-05,0.0038684057178831,-0.0215786549856787,0.9997596670179392,"(1e-05, 0.0, 0.0, 0.0, 0.0, 0.0, 0.0, 1e-05, 0.0, 0.0, 0.0, 0.0, 0.0, 0.0, 1000000000000.0, 0.0, 0.0, 0.0, 0.0, 0.0, 0.0, 1000000000000.0, 0.0, 0.0, 0.0, 0.0, 0.0, 0.0, 1000000000000.0, 0.0, 0.0, 0.0, 0.0, 0.0, 0.0, 0.001)",0.2081327345910026,4.386967143887172e-05,0.0,0.0,0.0,-0.0352303067379922,"(0.0, 0.0, 0.0, 0.0, 0.0, 0.0, 0.0, 0.0, 0.0, 0.0, 0.0, 0.0, 0.0, 0.0, 0.0, 0.0, 0.0, 0.0, 0.0, 0.0, 0.0, 0.0, 0.0, 0.0, 0.0, 0.0, 0.0, 0.0, 0.0, 0.0, 0.0, 0.0, 0.0, 0.0, 0.0, 0.0)",0.2199999988079071,0.0004228756297379,0.0,0.0,0.0,-0.0214359108358621,70,2,826000000,base_footprint,7.573614213214955e-05,0.0038668235310728,-0.0229099726061491,0.9997300511112998,0.0,0.0,0.0,0.0,0.0,0.0,0.0,0.0,0.0,0.0018974172254535,0.003415862226685,-0.0575527371023153,0.0,0.0,0.0,0.0,0.0,0.0,0.0,0.0,0.0,0.3934246055402526,-0.0546759360882982,-0.0165458664589158,0.0,0.0,0.0,0.0,0.0,0.0,0.0,0.0,0.0
2.8600000000000003,-0.04665966774258302,0.007475775431540099,-0.0003455397986179007,-0.0008352709939129928,-0.03954454240400729,0.21777623073515726,0.2176059768644205,-0.008609617070100486,-0.022803720280793634,-0.3266175631046318,-0.8496203028514306,0.007246169867303753,-0.00028944176289129694,-0.000759363885350428,73.0,2.0,822000000.0,odom,base_footprint,0.275348240734804,-0.0045960235729674,-0.0010027508630142,7.393029225206812e-05,0.0038615225594211,-0.0228108275104765,0.9997323388418136,"(1e-05, 0.0, 0.0, 0.0, 0.0, 0.0, 0.0, 1e-05, 0.0, 0.0, 0.0, 0.0, 0.0, 0.0, 1000000000000.0, 0.0, 0.0, 0.0, 0.0, 0.0, 0.0, 1000000000000.0, 0.0, 0.0, 0.0, 0.0, 0.0, 0.0, 1000000000000.0, 0.0, 0.0, 0.0, 0.0, 0.0, 0.0, 0.001)",0.2242957295019623,7.555400945409747e-05,0.0,0.0,0.0,-0.0832861444785577,"(0.0, 0.0, 0.0, 0.0, 0.0, 0.0, 0.0, 0.0, 0.0, 0.0, 0.0, 0.0, 0.0, 0.0, 0.0, 0.0, 0.0, 0.0, 0.0, 0.0, 0.0, 0.0, 0.0, 0.0, 0.0, 0.0, 0.0, 0.0, 0.0, 0.0, 0.0, 0.0, 0.0, 0.0, 0.0, 0.0)",0.2199999988079071,0.0004228756297379,0.0,0.0,0.0,-0.0214359108358621,71,2,860000000,base_footprint,7.959772109851902e-05,0.0038632699759528,-0.0233275027047665,0.9997204091278996,0.0,0.0,0.0,0.0,0.0,0.0,0.0,0.0,0.0,-0.0002623580814189,-0.0001932358958288,-0.0225003070856009,0.0,0.0,0.0,0.0,0.0,0.0,0.0,0.0,0.0,-0.0835126039319072,0.0028321572431919,0.0044020158535736,0.0,0.0,0.0,0.0,0.0,0.0,0.0,0.0,0.0
2.894,-0.04739411567423763,0.007474714453755693,-0.0003506977335753997,-0.0007344479316546139,-0.04030390628935798,0.2244630381654692,0.2242807534175381,-0.00904428819390335,-0.02300440593340715,0.20080502793729554,-0.0060265961745800106,0.007468433409998618,-0.0003040253581295251,-0.0007660467175824581,74.0,2.0,855000000.0,odom,base_footprint,0.2826142342344003,-0.0049312693398008,-0.0010029179661857,7.942593687979556e-05,0.0038632827991893,-0.0232825474519915,0.9997214570677576,"(1e-05, 0.0, 0.0, 0.0, 0.0, 0.0, 0.0, 1e-05, 0.0, 0.0, 0.0, 0.0, 0.0, 0.0, 1000000000000.0, 0.0, 0.0, 0.0, 0.0, 0.0, 0.0, 1000000000000.0, 0.0, 0.0, 0.0, 0.0, 0.0, 0.0, 1000000000000.0, 0.0, 0.0, 0.0, 0.0, 0.0, 0.0, 0.001)",0.2199684165527884,3.8279744897022974e-05,0.0,0.0,0.0,-0.0225171427569495,"(0.0, 0.0, 0.0, 0.0, 0.0, 0.0, 0.0, 0.0, 0.0, 0.0, 0.0, 0.0, 0.0, 0.0, 0.0, 0.0, 0.0, 0.0, 0.0, 0.0, 0.0, 0.0, 0.0, 0.0, 0.0, 0.0, 0.0, 0.0, 0.0, 0.0, 0.0, 0.0, 0.0, 0.0, 0.0, 0.0)",0.2199999988079071,7.5554009526968e-05,0.0,0.0,0.0,-0.0094399955123662,72,2,894000000,base_footprint,8.0585841866195e-05,0.0038620226318262,-0.0236946209913844,0.9997117800762318,0.0,0.0,0.0,0.0,0.0,0.0,0.0,0.0,0.0,0.0001315860811097,-4.574064681624808e-05,-0.0114497586610935,0.0,0.0,0.0,0.0,0.0,0.0,0.0,0.0,0.0,0.003020191436431,-0.0046153232557878,-0.0005045355424996,0.0,0.0,0.0,0.0,0.0,0.0,0.0,0.0,0.0
2.928,-0.0477578574642888,0.007477276929697574,-0.00035518273987049983,-0.0003637417900511711,-0.041069953006940274,0.21804638072449023,0.21786251268198964,-0.008952637317531995,-0.010942247584667754,-0.19269241564501402,0.36222697743962146,0.007254767599706069,-0.00029943480986204283,-0.0003643768445694362,74.0,2.0,855000000.0,odom,base_footprint,0.2826142342344003,-0.0049312693398008,-0.0010029179661857,7.942593687979556e-05,0.0038632827991893,-0.0232825474519915,0.9997214570677576,"(1e-05, 0.0, 0.0, 0.0, 0.0, 0.0, 0.0, 1e-05, 0.0, 0.0, 0.0, 0.0, 0.0, 0.0, 1000000000000.0, 0.0, 0.0, 0.0, 0.0, 0.0, 0.0, 1000000000000.0, 0.0, 0.0, 0.0, 0.0, 0.0, 0.0, 1000000000000.0, 0.0, 0.0, 0.0, 0.0, 0.0, 0.0, 0.001)",0.2199684165527884,3.8279744897022974e-05,0.0,0.0,0.0,-0.0225171427569495,"(0.0, 0.0, 0.0, 0.0, 0.0, 0.0, 0.0, 0.0, 0.0, 0.0, 0.0, 0.0, 0.0, 0.0, 0.0, 0.0, 0.0, 0.0, 0.0, 0.0, 0.0, 0.0, 0.0, 0.0, 0.0, 0.0, 0.0, 0.0, 0.0, 0.0, 0.0, 0.0, 0.0, 0.0, 0.0, 0.0)",0.2199999988079071,7.5554009526968e-05,0.0,0.0,0.0,-0.0094399955123662,73,2,928000000,base_footprint,8.099904262497094e-05,0.0038621439885911,-0.0238764379322739,0.9997074537056492,0.0,0.0,0.0,0.0,0.0,0.0,0.0,0.0,0.0,-0.0001326431641783,-0.0001222462011902,-0.0109396481820011,0.0,0.0,0.0,0.0,0.0,0.0,0.0,0.0,0.0,0.0041127802183801,-0.0034603302185156,0.0003151344723485,0.0,0.0,0.0,0.0,0.0,0.0,0.0,0.0,0.0
2.962,-0.0481338448746987,0.007483456230911234,-0.0003582708941909001,-0.0003759874104098948,-0.041434329851509855,0.21821785704507599,0.2180305652315233,-0.009039123749993256,-0.010888778704266421,0.005149439056629313,0.0016056720841241038,0.0072603634981789214,-0.00030230935646081275,-0.00036259633085207184,76.0,2.0,922000000.0,odom,base_footprint,0.2973452309758471,-0.0056256042500877,-0.0010027635604497,8.094002347748665e-05,0.0038620217549847,-0.0238491465922084,0.9997081056205857,"(1e-05, 0.0, 0.0, 0.0, 0.0, 0.0, 0.0, 1e-05, 0.0, 0.0, 0.0, 0.0, 0.0, 0.0, 1000000000000.0, 0.0, 0.0, 0.0, 0.0, 0.0, 0.0, 1000000000000.0, 0.0, 0.0, 0.0, 0.0, 0.0, 0.0, 1000000000000.0, 0.0, 0.0, 0.0, 0.0, 0.0, 0.0, 0.001)",0.2202391326070697,2.8652024152815703e-05,0.0,0.0,0.0,-0.0109049596014809,"(0.0, 0.0, 0.0, 0.0, 0.0, 0.0, 0.0, 0.0, 0.0, 0.0, 0.0, 0.0, 0.0, 0.0, 0.0, 0.0, 0.0, 0.0, 0.0, 0.0, 0.0, 0.0, 0.0, 0.0, 0.0, 0.0, 0.0, 0.0, 0.0, 0.0, 0.0, 0.0, 0.0, 0.0, 0.0, 0.0)",0.2199999988079071,7.5554009526968e-05,0.0,0.0,0.0,-0.0094399955123662,74,2,962000000,base_footprint,8.130703228245932e-05,0.00386386297591,-0.0240643742617935,0.999702940799645,0.0,0.0,0.0,0.0,0.0,0.0,0.0,0.0,0.0,-0.0001681476128565,-1.8710021706978228e-05,-0.0111715047891149,0.0,0.0,0.0,0.0,0.0,0.0,0.0,0.0,0.0,0.0051821183751241,-0.0030762853129593,-0.000282668429221,0.0,0.0,0.0,0.0,0.0,0.0,0.0,0.0,0.0
2.996,-0.04856285990120715,0.007489541133365307,-0.00036167046356130016,-0.000429015026508453,-0.04179692618236208,0.22500782468434416,0.22481131086909836,-0.00940189738819726,-0.011430554180314712,0.20390293211015537,-0.01626953381526398,0.0074861573082808715,-0.00031449788096142746,-0.00038063745420447993,78.0,2.0,989000000.0,odom,base_footprint,0.3120959630635763,-0.0063338131776083,-0.0010033724848441,8.146608930042294e-05,0.0038664892706532,-0.0242217877131709,0.9996991290503232,"(1e-05, 0.0, 0.0, 0.0, 0.0, 0.0, 0.0, 1e-05, 0.0, 0.0, 0.0, 0.0, 0.0, 0.0, 1000000000000.0, 0.0, 0.0, 0.0, 0.0, 0.0, 0.0, 1000000000000.0, 0.0, 0.0, 0.0, 0.0, 0.0, 0.0, 1000000000000.0, 0.0, 0.0, 0.0, 0.0, 0.0, 0.0, 0.001)",0.2205960847120288,1.7709546374278587e-05,0.0,0.0,0.0,-0.0113059133855096,"(0.0, 0.0, 0.0, 0.0, 0.0, 0.0, 0.0, 0.0, 0.0, 0.0, 0.0, 0.0, 0.0, 0.0, 0.0, 0.0, 0.0, 0.0, 0.0, 0.0, 0.0, 0.0, 0.0, 0.0, 0.0, 0.0, 0.0, 0.0, 0.0, 0.0, 0.0, 0.0, 0.0, 0.0, 0.0, 0.0)",0.2199999988079071,2.8652024411712773e-05,0.0,0.0,0.0,-0.0191100817173719,75,2,996000000,base_footprint,8.223026634825616e-05,0.0038668070423743,-0.0242788172724537,0.9996977443574288,0.0,0.0,0.0,0.0,0.0,0.0,0.0,0.0,0.0,-0.0002209980050486,-4.14545709521764e-05,-0.0214169156897473,0.0,0.0,0.0,0.0,0.0,0.0,0.0,0.0,0.0,0.0070103671680815,-0.0037974291972612,-7.060939257064284e-05,0.0,0.0,0.0,0.0,0.0,0.0,0.0,0.0,0.0
3.03,-0.04928045851044751,0.007497392978672912,-0.00036653978617959965,-0.0007175986092403595,-0.04217756363656644,0.21853876363741312,0.21834440802709001,-0.009214699966291059,-0.02052557079185019,-0.19426609750543664,-0.27312362196803236,0.007270763770879841,-0.00030932453756517215,-0.0006835015073686114,78.0,2.0,989000000.0,odom,base_footprint,0.3120959630635763,-0.0063338131776083,-0.0010033724848441,8.146608930042294e-05,0.0038664892706532,-0.0242217877131709,0.9996991290503232,"(1e-05, 0.0, 0.0, 0.0, 0.0, 0.0, 0.0, 1e-05, 0.0, 0.0, 0.0, 0.0, 0.0, 0.0, 1000000000000.0, 0.0, 0.0, 0.0, 0.0, 0.0, 0.0, 1000000000000.0, 0.0, 0.0, 0.0, 0.0, 0.0, 0.0, 1000000000000.0, 0.0, 0.0, 0.0, 0.0, 0.0, 0.0, 0.001)",0.2205960847120288,1.7709546374278587e-05,0.0,0.0,0.0,-0.0113059133855096,"(0.0, 0.0, 0.0, 0.0, 0.0, 0.0, 0.0, 0.0, 0.0, 0.0, 0.0, 0.0, 0.0, 0.0, 0.0, 0.0, 0.0, 0.0, 0.0, 0.0, 0.0, 0.0, 0.0, 0.0, 0.0, 0.0, 0.0, 0.0, 0.0, 0.0, 0.0, 0.0, 0.0, 0.0, 0.0, 0.0)",0.2199999988079071,2.8652024411712773e-05,0.0,0.0,0.0,-0.0191100817173719,76,3,30000000,base_footprint,8.236330438606386e-05,0.0038723190503381,-0.0246375005832608,0.999688947586432,0.0,0.0,0.0,0.0,0.0,0.0,0.0,0.0,0.0,-0.0002166639665903,0.0001683716511101,-0.0209237789435716,0.0,0.0,0.0,0.0,0.0,0.0,0.0,0.0,0.0,0.0038174174134703,-0.0051031468080018,-0.0004496661572578,0.0,0.0,0.0,0.0,0.0,0.0,0.0,0.0,0.0
3.064,-0.049976358567852125,0.007499476896035584,-0.0003729974193712,-0.0006959000574046151,-0.04286106514393495,0.2186358168373791,0.2184350228306239,-0.009368095064248324,-0.020415457360865252,0.0029145105094887103,0.003306709639187303,0.007273780082769121,-0.0003144202854980343,-0.000679834730116813,80.0,3.0,55000000.0,odom,base_footprint,0.326650687822425,-0.0070492087874677,-0.0010044927494161,8.363427124350259e-05,0.0038748957156835,-0.0249053587785376,0.9996823001797188,"(1e-05, 0.0, 0.0, 0.0, 0.0, 0.0, 0.0, 1e-05, 0.0, 0.0, 0.0, 0.0, 0.0, 0.0, 1000000000000.0, 0.0, 0.0, 0.0, 0.0, 0.0, 0.0, 1000000000000.0, 0.0, 0.0, 0.0, 0.0, 0.0, 0.0, 1000000000000.0, 0.0, 0.0, 0.0, 0.0, 0.0, 0.0, 0.001)",0.2208528552446242,-1.6223059913436297e-05,0.0,0.0,0.0,-0.020183384412018,"(0.0, 0.0, 0.0, 0.0, 0.0, 0.0, 0.0, 0.0, 0.0, 0.0, 0.0, 0.0, 0.0, 0.0, 0.0, 0.0, 0.0, 0.0, 0.0, 0.0, 0.0, 0.0, 0.0, 0.0, 0.0, 0.0, 0.0, 0.0, 0.0, 0.0, 0.0, 0.0, 0.0, 0.0, 0.0, 0.0)",0.2199999988079071,0.0,0.0,0.0,0.0,-0.0119782565161585,77,3,64000000,base_footprint,8.405521809930642e-05,0.0038754631059959,-0.0249853415609806,0.9996803021103876,0.0,0.0,0.0,0.0,0.0,0.0,0.0,0.0,0.0,-0.0001271350600706,2.8510784319368112e-05,-0.0198295579433977,0.0,0.0,0.0,0.0,0.0,0.0,0.0,0.0,0.0,-0.0011328277274435,-0.0052220203590844,0.0001571096562981,0.0,0.0,0.0,0.0,0.0,0.0,0.0,0.0,0.0
3.098,-0.05060221054164782,0.0074954953385347745,-0.0003782457505910001,-0.0006258519737956937,-0.04354089987405185,0.2251942209306428,0.22498079192854684,-0.009802061199722205,-0.01988314993406848,0.19694907186978136,0.015985208011915036,0.0074917522068367855,-0.0003288787584700253,-0.0006621088928044805,80.0,3.0,55000000.0,odom,base_footprint,0.326650687822425,-0.0070492087874677,-0.0010044927494161,8.363427124350259e-05,0.0038748957156835,-0.0249053587785376,0.9996823001797188,"(1e-05, 0.0, 0.0, 0.0, 0.0, 0.0, 0.0, 1e-05, 0.0, 0.0, 0.0, 0.0, 0.0, 0.0, 1000000000000.0, 0.0, 0.0, 0.0, 0.0, 0.0, 0.0, 1000000000000.0, 0.0, 0.0, 0.0, 0.0, 0.0, 0.0, 1000000000000.0, 0.0, 0.0, 0.0, 0.0, 0.0, 0.0, 0.001)",0.2208528552446242,-1.6223059913436297e-05,0.0,0.0,0.0,-0.020183384412018,"(0.0, 0.0, 0.0, 0.0, 0.0, 0.0, 0.0, 0.0, 0.0, 0.0, 0.0, 0.0, 0.0, 0.0, 0.0, 0.0, 0.0, 0.0, 0.0, 0.0, 0.0, 0.0, 0.0, 0.0, 0.0, 0.0, 0.0, 0.0, 0.0, 0.0, 0.0, 0.0, 0.0, 0.0, 0.0, 0.0)",0.2199999988079071,0.0,0.0,0.0,0.0,-0.0119782565161585,78,3,98000000,base_footprint,8.561252041833296e-05,0.0038772894754191,-0.025298167225166,0.999672427364018,0.0,0.0,0.0,0.0,0.0,0.0,0.0,0.0,0.0,-0.0004498195618716,-8.249813133198374e-05,-0.0122397472382146,0.0,0.0,0.0,0.0,0.0,0.0,0.0,0.0,0.0,-0.0042958763450158,-0.0043994682778885,0.0001434680143042,0.0,0.0,0.0,0.0,0.0,0.0,0.0,0.0,0.0
3.132,-0.051014534735669935,0.007483771888967927,-0.0003782395126076003,-0.00041232419402211645,-0.04420300876685612,0.2183466949874214,0.21813341526122623,-0.009648438132852554,-0.011487567435457695,-0.20563140970634866,0.25211959455287647,0.007263781531667157,-0.00032267255979842965,-0.00038253599560074126,81.0,3.0,89000000.0,odom,base_footprint,0.3341472768258651,-0.0074262601279051,-0.001004793415904,8.556512200547526e-05,0.0038772430484355,-0.0252374613209379,0.9996739619551104,"(1e-05, 0.0, 0.0, 0.0, 0.0, 0.0, 0.0, 1e-05, 0.0, 0.0, 0.0, 0.0, 0.0, 0.0, 1000000000000.0, 0.0, 0.0, 0.0, 0.0, 0.0, 0.0, 1000000000000.0, 0.0, 0.0, 0.0, 0.0, 0.0, 0.0, 1000000000000.0, 0.0, 0.0, 0.0, 0.0, 0.0, 0.0, 0.001)",0.2206788827093029,-2.892134640390676e-05,0.0,0.0,0.0,-0.0190583152284833,"(0.0, 0.0, 0.0, 0.0, 0.0, 0.0, 0.0, 0.0, 0.0, 0.0, 0.0, 0.0, 0.0, 0.0, 0.0, 0.0, 0.0, 0.0, 0.0, 0.0, 0.0, 0.0, 0.0, 0.0, 0.0, 0.0, 0.0, 0.0, 0.0, 0.0, 0.0, 0.0, 0.0, 0.0, 0.0, 0.0)",0.2199999988079071,0.0,0.0,0.0,0.0,-0.0119782565161585,79,3,132000000,base_footprint,9.168488212275817e-05,0.0038752483062552,-0.0255042820884633,0.9996671974410282,0.0,0.0,0.0,0.0,0.0,0.0,0.0,0.0,0.0,3.878864598383796e-05,-4.31303313402433e-05,-0.0134717348073169,0.0,0.0,0.0,0.0,0.0,0.0,0.0,0.0,0.0,-0.01446939411616,0.0048161868717446,0.000177472677779,0.0,0.0,0.0,0.0,0.0,0.0,0.0,0.0,0.0
3.166,-0.051490879455236775,0.007454538644183273,-0.000378500715795,-0.00047634471956684027,-0.04458554476245702,0.21802617284053522,0.21780950480493633,-0.009717595387716533,-0.01071776466238989,-0.009625289696281904,0.02311720039242655,0.007252999046737882,-0.00032488048479308783,-0.0003569015632575834,82.0,3.0,122000000.0,odom,base_footprint,0.3414146579661806,-0.0077944401952104,-0.0010044924104948,9.048236365207227e-05,0.0038754391310691,-0.0254443260809004,0.9996687246557092,"(1e-05, 0.0, 0.0, 0.0, 0.0, 0.0, 0.0, 1e-05, 0.0, 0.0, 0.0, 0.0, 0.0, 0.0, 1000000000000.0, 0.0, 0.0, 0.0, 0.0, 0.0, 0.0, 1000000000000.0, 0.0, 0.0, 0.0, 0.0, 0.0, 0.0, 1000000000000.0, 0.0, 0.0, 0.0, 0.0, 0.0, 0.0, 0.001)",0.2203109445890552,0.0001406362128938,0.0,0.0,0.0,-0.0129547397883867,"(0.0, 0.0, 0.0, 0.0, 0.0, 0.0, 0.0, 0.0, 0.0, 0.0, 0.0, 0.0, 0.0, 0.0, 0.0, 0.0, 0.0, 0.0, 0.0, 0.0, 0.0, 0.0, 0.0, 0.0, 0.0, 0.0, 0.0, 0.0, 0.0, 0.0, 0.0, 0.0, 0.0, 0.0, 0.0, 0.0)",0.2199999988079071,0.000140636213473,0.0,0.0,0.0,-0.0047496138140559,80,3,166000000,base_footprint,8.783166924921404e-05,0.0038691639698131,-0.0257423572494041,0.9996611190293524,0.0,0.0,0.0,0.0,0.0,0.0,0.0,0.0,0.0,-0.000993582462437,7.813543482291006e-05,-0.0197219433338794,0.0,0.0,0.0,0.0,0.0,0.0,0.0,0.0,0.0,-0.0460798943233428,0.0083132757342938,3.762622752793387e-05,0.0,0.0,0.0,0.0,0.0,0.0,0.0,0.0,0.0
3.2,-0.05266765367957346,0.007392928293015022,-0.00038122474507239906,-0.0011767742243366866,-0.044942446325714425,0.22436100646331025,0.22413445978456603,-0.010079938408061328,-0.01013855481019716,0.1902352439271783,0.017393689255036943,0.007463621159802451,-0.0003369118317212818,-0.0003376138751795655,82.0,3.0,122000000.0,odom,base_footprint,0.3414146579661806,-0.0077944401952104,-0.0010044924104948,9.048236365207227e-05,0.0038754391310691,-0.0254443260809004,0.9996687246557092,"(1e-05, 0.0, 0.0, 0.0, 0.0, 0.0, 0.0, 1e-05, 0.0, 0.0, 0.0, 0.0, 0.0, 0.0, 1000000000000.0, 0.0, 0.0, 0.0, 0.0, 0.0, 0.0, 1000000000000.0, 0.0, 0.0, 0.0, 0.0, 0.0, 0.0, 1000000000000.0, 0.0, 0.0, 0.0, 0.0, 0.0, 0.0, 0.001)",0.2203109445890552,0.0001406362128938,0.0,0.0,0.0,-0.0129547397883867,"(0.0, 0.0, 0.0, 0.0, 0.0, 0.0, 0.0, 0.0, 0.0, 0.0, 0.0, 0.0, 0.0, 0.0, 0.0, 0.0, 0.0, 0.0, 0.0, 0.0, 0.0, 0.0, 0.0, 0.0, 0.0, 0.0, 0.0, 0.0, 0.0, 0.0, 0.0, 0.0, 0.0, 0.0, 0.0, 0.0)",0.2199999988079071,0.000140636213473,0.0,0.0,0.0,-0.0047496138140559,81,3,200000000,base_footprint,8.726136246125387e-05,0.003869886486149,-0.026330529306761,0.999645797065373,0.0,0.0,0.0,0.0,0.0,0.0,0.0,0.0,0.0,-0.0008543150345494,-3.2257953711194016e-05,-0.03024126852056,0.0,0.0,0.0,0.0,0.0,0.0,0.0,0.0,0.0,-0.0423337082061529,-0.0129190139990788,0.00191737642688,0.0,0.0,0.0,0.0,0.0,0.0,0.0,0.0,0.0
3.234,-0.05332860133111067,0.007409890236488692,-0.00039307457775260117,-0.0006609476515372081,-0.045280060200894034,0.2175629444377089,0.21733994964596845,-0.00984789725238419,-0.003251783610066635,-0.20414600677481523,0.2068099459498656,0.00723740299522524,-0.0003283171003345876,-0.00010828439421521896,84.0,3.0,189000000.0,odom,base_footprint,0.356072222328959,-0.0085404397290841,-0.0010041608091115,8.821125908400714e-05,0.0038723313783191,-0.0261637797657503,0.9996501657564208,"(1e-05, 0.0, 0.0, 0.0, 0.0, 0.0, 0.0, 1e-05, 0.0, 0.0, 0.0, 0.0, 0.0, 0.0, 1000000000000.0, 0.0, 0.0, 0.0, 0.0, 0.0, 0.0, 1000000000000.0, 0.0, 0.0, 0.0, 0.0, 0.0, 0.0, 1000000000000.0, 0.0, 0.0, 0.0, 0.0, 0.0, 0.0, 0.001)",0.2174282895967059,6.659552738651209e-05,0.0,0.0,0.0,-0.0375900447516567,"(0.0, 0.0, 0.0, 0.0, 0.0, 0.0, 0.0, 0.0, 0.0, 0.0, 0.0, 0.0, 0.0, 0.0, 0.0, 0.0, 0.0, 0.0, 0.0, 0.0, 0.0, 0.0, 0.0, 0.0, 0.0, 0.0, 0.0, 0.0, 0.0, 0.0, 0.0, 0.0, 0.0, 0.0, 0.0, 0.0)",0.2199999988079071,0.000140636213473,0.0,0.0,0.0,-0.0047496138140559,82,3,234000000,base_footprint,9.25486697341239e-05,0.0038722409013189,-0.0266608996106906,0.9996370309352764,0.0,0.0,0.0,0.0,0.0,0.0,0.0,0.0,0.0,0.0007115851206602,0.0010053084105681,-0.0037091523580108,0.0,0.0,0.0,0.0,0.0,0.0,0.0,0.0,0.0,0.0654584096341852,-0.0140321417408535,-0.0033275040209834,0.0,0.0,0.0,0.0,0.0,0.0,0.0,0.0,0.0
3.268,-0.05349846274893693,0.007452173851499877,-0.000397442108300599,-0.00016986141782626002,-0.04538834459510932,0.217405548966562,0.21718164862454223,-0.009864290252120878,-0.00522374016277906,-0.004726590725132249,-0.05921791449586862,0.007232120735342585,-0.0003291001615873275,-0.00017395054742054273,84.0,3.0,189000000.0,odom,base_footprint,0.356072222328959,-0.0085404397290841,-0.0010041608091115,8.821125908400714e-05,0.0038723313783191,-0.0261637797657503,0.9996501657564208,"(1e-05, 0.0, 0.0, 0.0, 0.0, 0.0, 0.0, 1e-05, 0.0, 0.0, 0.0, 0.0, 0.0, 0.0, 1000000000000.0, 0.0, 0.0, 0.0, 0.0, 0.0, 0.0, 1000000000000.0, 0.0, 0.0, 0.0, 0.0, 0.0, 0.0, 1000000000000.0, 0.0, 0.0, 0.0, 0.0, 0.0, 0.0, 0.001)",0.2174282895967059,6.659552738651209e-05,0.0,0.0,0.0,-0.0375900447516567,"(0.0, 0.0, 0.0, 0.0, 0.0, 0.0, 0.0, 0.0, 0.0, 0.0, 0.0, 0.0, 0.0, 0.0, 0.0, 0.0, 0.0, 0.0, 0.0, 0.0, 0.0, 0.0, 0.0, 0.0, 0.0, 0.0, 0.0, 0.0, 0.0, 0.0, 0.0, 0.0, 0.0, 0.0, 0.0, 0.0)",0.2199999988079071,6.659553037025034e-05,0.0,0.0,0.0,0.0,83,3,268000000,base_footprint,9.3111314897935e-05,0.0038672954762944,-0.0267458013738002,0.9996347820403488,0.0,0.0,0.0,0.0,0.0,0.0,0.0,0.0,0.0,-7.441916298050253e-05,-0.0003488813560767,-0.0055670095209308,0.0,0.0,0.0,0.0,0.0,0.0,0.0,0.0,0.0,0.0011415190588971,0.0009497804043262,0.0021389999970517,0.0,0.0,0.0,0.0,0.0,0.0,0.0,0.0,0.0
3.302,-0.05364117018014569,0.0074556809036488425,-0.0003989076179612,-0.000142707431208762,-0.04556229514252985,0.22413161274884663,0.223899013035598,-0.010208417854108046,-0.005774145829771613,0.2019838973659048,-0.016528698708485064,0.007455804864293003,-0.0003406470921901475,-0.00019227905613139473,86.0,3.0,255000000.0,odom,base_footprint,0.3704734867582538,-0.0093037205367893,-0.0010036927984063,9.290588400905225e-05,0.0038689439596173,-0.0267133250645139,0.9996356440749458,"(1e-05, 0.0, 0.0, 0.0, 0.0, 0.0, 0.0, 1e-05, 0.0, 0.0, 0.0, 0.0, 0.0, 0.0, 1000000000000.0, 0.0, 0.0, 0.0, 0.0, 0.0, 0.0, 1000000000000.0, 0.0, 0.0, 0.0, 0.0, 0.0, 0.0, 1000000000000.0, 0.0, 0.0, 0.0, 0.0, 0.0, 0.0, 0.001)",0.2194852194502266,2.263592574672929e-05,0.0,0.0,0.0,-0.0051941863487362,"(0.0, 0.0, 0.0, 0.0, 0.0, 0.0, 0.0, 0.0, 0.0, 0.0, 0.0, 0.0, 0.0, 0.0, 0.0, 0.0, 0.0, 0.0, 0.0, 0.0, 0.0, 0.0, 0.0, 0.0, 0.0, 0.0, 0.0, 0.0, 0.0, 0.0, 0.0, 0.0, 0.0, 0.0, 0.0, 0.0)",0.2199999988079071,6.659553037025034e-05,0.0,0.0,0.0,0.0,84,3,302000000,base_footprint,9.371700061636695e-05,0.003864895426708,-0.0268171307555221,0.9996328802608014,0.0,0.0,0.0,0.0,0.0,0.0,0.0,0.0,0.0,-3.5841502877050234e-05,-0.0001542582257083,-0.0009521489710567,0.0,0.0,0.0,0.0,0.0,0.0,0.0,0.0,0.0,0.0037238229125185,-0.0013349462796835,-0.0003746330902704,0.0,0.0,0.0,0.0,0.0,0.0,0.0,0.0,0.0
3.336,-0.05368067323677332,0.007460498676624794,-0.00039972530213180056,-3.9503056627629436e-05,-0.045754574198661135,0.21767734378967526,0.21744953183895105,-0.009956259455714543,-0.0012637793681476923,-0.1938218906658068,0.1354464402890066,0.007241062877593795,-0.0003316860735590519,-4.2083852959318156e-05,88.0,3.0,322000000.0,odom,base_footprint,0.3851667932098266,-0.0100899223335972,-0.0010029637324134,9.343342793779036e-05,0.0038634044437235,-0.0268290544388349,0.9996325661032742,"(1e-05, 0.0, 0.0, 0.0, 0.0, 0.0, 0.0, 1e-05, 0.0, 0.0, 0.0, 0.0, 0.0, 0.0, 1000000000000.0, 0.0, 0.0, 0.0, 0.0, 0.0, 0.0, 1000000000000.0, 0.0, 0.0, 0.0, 0.0, 0.0, 0.0, 1000000000000.0, 0.0, 0.0, 0.0, 0.0, 0.0, 0.0, 0.001)",0.2197589104455829,2.737169614266781e-05,0.0,0.0,0.0,-0.0011652821023998,"(0.0, 0.0, 0.0, 0.0, 0.0, 0.0, 0.0, 0.0, 0.0, 0.0, 0.0, 0.0, 0.0, 0.0, 0.0, 0.0, 0.0, 0.0, 0.0, 0.0, 0.0, 0.0, 0.0, 0.0, 0.0, 0.0, 0.0, 0.0, 0.0, 0.0, 0.0, 0.0, 0.0, 0.0, 0.0, 0.0)",0.2199999988079071,6.659553037025034e-05,0.0,0.0,0.0,0.0,85,3,336000000,base_footprint,9.322193381845318e-05,0.0038626343867754,-0.0268368733137586,0.999632359218131,0.0,0.0,0.0,0.0,0.0,0.0,0.0,0.0,0.0,-0.0001144858960728,-0.0002401778842108,-0.0012179790488736,0.0,0.0,0.0,0.0,0.0,0.0,0.0,0.0,0.0,0.0053205717865422,-0.0010582515285768,0.0002352379414544,0.0,0.0,0.0,0.0,0.0,0.0,0.0,0.0,0.0
3.37,-0.053725112412445084,0.007466723904333394,-0.00040046648250900013,-4.443917567176214e-05,-0.045796658051620476,0.21784065216921786,0.21761224980200805,-0.009972886924989321,-0.0012368751524185564,0.0049041555418196,0.0008079344062803557,0.00724648152370622,-0.0003322366288920451,-4.118794257553793e-05,89.0,3.0,355000000.0,odom,base_footprint,0.3924115059688123,-0.0104783311761069,-0.0010027658201464,9.299428828768356e-05,0.0038618353422258,-0.0268495769868551,0.9996320211935384,"(1e-05, 0.0, 0.0, 0.0, 0.0, 0.0, 0.0, 1e-05, 0.0, 0.0, 0.0, 0.0, 0.0, 0.0, 1000000000000.0, 0.0, 0.0, 0.0, 0.0, 0.0, 0.0, 1000000000000.0, 0.0, 0.0, 0.0, 0.0, 0.0, 0.0, 1000000000000.0, 0.0, 0.0, 0.0, 0.0, 0.0, 0.0, 0.001)",0.2199423271573002,2.773051256320033e-05,0.0,0.0,0.0,-0.0013236868309216,"(0.0, 0.0, 0.0, 0.0, 0.0, 0.0, 0.0, 0.0, 0.0, 0.0, 0.0, 0.0, 0.0, 0.0, 0.0, 0.0, 0.0, 0.0, 0.0, 0.0, 0.0, 0.0, 0.0, 0.0, 0.0, 0.0, 0.0, 0.0, 0.0, 0.0, 0.0, 0.0, 0.0, 0.0, 0.0, 0.0)",0.2084210515022277,2.737169597821776e-05,0.0,0.0,0.0,-0.0093704145401716,86,3,370000000,base_footprint,9.297147367901458e-05,0.0038614383185034,-0.026859083689265,0.9996317673392492,0.0,0.0,0.0,0.0,0.0,0.0,0.0,0.0,0.0,1.4337667726315976e-06,-0.0002377400994896,-0.0014073150293005,0.0,0.0,0.0,0.0,0.0,0.0,0.0,0.0,0.0,0.0055033936585896,-0.0009175017773783,4.346214892747013e-05,0.0,0.0,0.0,0.0,0.0,0.0,0.0,0.0,0.0
3.404,-0.05382903464005106,0.007463136178612717,-0.0004007943520180999,-0.0001039222276059751,-0.04583784599419616,0.22462291008789445,0.2243869728922644,-0.01029262515593254,-0.001423835224950159,0.20367140896926703,-0.005614416592540618,0.0074720785300145,-0.0003429115144619751,-4.74137129908403e-05,89.0,3.0,355000000.0,odom,base_footprint,0.3924115059688123,-0.0104783311761069,-0.0010027658201464,9.299428828768356e-05,0.0038618353422258,-0.0268495769868551,0.9996320211935384,"(1e-05, 0.0, 0.0, 0.0, 0.0, 0.0, 0.0, 1e-05, 0.0, 0.0, 0.0, 0.0, 0.0, 0.0, 1000000000000.0, 0.0, 0.0, 0.0, 0.0, 0.0, 0.0, 1000000000000.0, 0.0, 0.0, 0.0, 0.0, 0.0, 0.0, 1000000000000.0, 0.0, 0.0, 0.0, 0.0, 0.0, 0.0, 0.001)",0.2199423271573002,2.773051256320033e-05,0.0,0.0,0.0,-0.0013236868309216,"(0.0, 0.0, 0.0, 0.0, 0.0, 0.0, 0.0, 0.0, 0.0, 0.0, 0.0, 0.0, 0.0, 0.0, 0.0, 0.0, 0.0, 0.0, 0.0, 0.0, 0.0, 0.0, 0.0, 0.0, 0.0, 0.0, 0.0, 0.0, 0.0, 0.0, 0.0, 0.0, 0.0, 0.0, 0.0, 0.0)",0.2084210515022277,2.737169597821776e-05,0.0,0.0,0.0,-0.0093704145401716,87,3,404000000,base_footprint,9.289713537212764e-05,0.0038615083374118,-0.0269110245560212,0.9996303701272924,0.0,0.0,0.0,0.0,0.0,0.0,0.0,0.0,0.0,1.7067811951009144e-06,-3.05283914664656e-05,-0.0055445042517419,0.0,0.0,0.0,0.0,0.0,0.0,0.0,0.0,0.0,-0.0185931122242676,0.0014985913020644,-0.000150822092453,0.0,0.0,0.0,0.0,0.0,0.0,0.0,0.0,0.0
3.438,-0.05409848208777886,0.007351177572206102,-0.00039641870968369977,-0.00026944744772779833,-0.04588525970718704,0.21741236960710286,0.21718353355761702,-0.009972522730130001,-0.005379029888658165,-0.21653274717091855,-0.11877461452576592,0.007232182334180283,-0.0003327230077804451,-0.0001791216952923169,90.0,3.0,389000000.0,odom,base_footprint,0.399881928810828,-0.0108792567396849,-0.0010026955830296,9.300125502135635e-05,0.0038612772290035,-0.0268738411380558,0.9996313713321596,"(1e-05, 0.0, 0.0, 0.0, 0.0, 0.0, 0.0, 1e-05, 0.0, 0.0, 0.0, 0.0, 0.0, 0.0, 1000000000000.0, 0.0, 0.0, 0.0, 0.0, 0.0, 0.0, 1000000000000.0, 0.0, 0.0, 0.0, 0.0, 0.0, 0.0, 1000000000000.0, 0.0, 0.0, 0.0, 0.0, 0.0, 0.0, 0.001)",0.2201332610927029,2.587259384779529e-05,0.0,0.0,0.0,-0.0015535019900072,"(0.0, 0.0, 0.0, 0.0, 0.0, 0.0, 0.0, 0.0, 0.0, 0.0, 0.0, 0.0, 0.0, 0.0, 0.0, 0.0, 0.0, 0.0, 0.0, 0.0, 0.0, 0.0, 0.0, 0.0, 0.0, 0.0, 0.0, 0.0, 0.0, 0.0, 0.0, 0.0, 0.0, 0.0, 0.0, 0.0)",0.2084210515022277,2.737169597821776e-05,0.0,0.0,0.0,-0.0093704145401716,88,3,438000000,base_footprint,9.243251926170304e-05,0.0038655976449635,-0.0270456935320135,0.9996267198671958,0.0,0.0,0.0,0.0,0.0,0.0,0.0,0.0,0.0,-0.0009650224090968,0.0023653508124933,-0.0101782478098089,0.0,0.0,0.0,0.0,0.0,0.0,0.0,0.0,0.0,-0.3116688835975867,0.033128056183032,-0.001658374404678,0.0,0.0,0.0,0.0,0.0,0.0,0.0,0.0,0.0
3.472,-0.05444867663175984,0.007088148247498149,-0.00038411138150270044,-0.0003501945439809834,-0.04606438140247926,0.20665117610071015,0.20643196548798476,-0.009515892421323075,-0.009147273196104517,-0.32315896415593715,-0.11316045968307363,0.006874136510378286,-0.0003179169263125514,-0.00030460419743028044,92.0,3.0,455000000.0,odom,base_footprint,0.4140504564777665,-0.0116432529154403,-0.0010032871404118,9.277781075751878e-05,0.0038656203812829,-0.0271309021978354,0.9996244107249868,"(1e-05, 0.0, 0.0, 0.0, 0.0, 0.0, 0.0, 1e-05, 0.0, 0.0, 0.0, 0.0, 0.0, 0.0, 1000000000000.0, 0.0, 0.0, 0.0, 0.0, 0.0, 0.0, 1000000000000.0, 0.0, 0.0, 0.0, 0.0, 0.0, 0.0, 1000000000000.0, 0.0, 0.0, 0.0, 0.0, 0.0, 0.0, 0.001)",0.2086952933579411,1.1680837248340126e-05,0.0,0.0,0.0,-0.0095423268488539,"(0.0, 0.0, 0.0, 0.0, 0.0, 0.0, 0.0, 0.0, 0.0, 0.0, 0.0, 0.0, 0.0, 0.0, 0.0, 0.0, 0.0, 0.0, 0.0, 0.0, 0.0, 0.0, 0.0, 0.0, 0.0, 0.0, 0.0, 0.0, 0.0, 0.0, 0.0, 0.0, 0.0, 0.0, 0.0, 0.0)",0.2084210515022277,2.587259405117948e-05,0.0,0.0,0.0,0.0,89,3,472000000,base_footprint,9.28271346546118e-05,0.0038673455759422,-0.0272207235451606,0.9996219621591942,0.0,0.0,0.0,0.0,0.0,0.0,0.0,0.0,0.0,-0.0002218905387331,0.000104789380388,-0.0113912446514627,0.0,0.0,0.0,0.0,0.0,0.0,0.0,0.0,0.0,0.009522370576876,-0.0046642018286642,0.0034403890167572,0.0,0.0,0.0,0.0,0.0,0.0,0.0,0.0,0.0
3.5060000000000002,-0.054691612456813005,0.007098049555303632,-0.0003877699802282003,-0.00024293582505316433,-0.04636898559990943,0.2133000426338429,0.21307077733736113,-0.009886962751617753,-0.011490755352860225,0.19966566165563768,-0.07037483954221345,0.007095194166758802,-0.0003305837875261421,-0.00038264215325024554,92.0,3.0,455000000.0,odom,base_footprint,0.4140504564777665,-0.0116432529154403,-0.0010032871404118,9.277781075751878e-05,0.0038656203812829,-0.0271309021978354,0.9996244107249868,"(1e-05, 0.0, 0.0, 0.0, 0.0, 0.0, 0.0, 1e-05, 0.0, 0.0, 0.0, 0.0, 0.0, 0.0, 1000000000000.0, 0.0, 0.0, 0.0, 0.0, 0.0, 0.0, 1000000000000.0, 0.0, 0.0, 0.0, 0.0, 0.0, 0.0, 1000000000000.0, 0.0, 0.0, 0.0, 0.0, 0.0, 0.0, 0.001)",0.2086952933579411,1.1680837248340126e-05,0.0,0.0,0.0,-0.0095423268488539,"(0.0, 0.0, 0.0, 0.0, 0.0, 0.0, 0.0, 0.0, 0.0, 0.0, 0.0, 0.0, 0.0, 0.0, 0.0, 0.0, 0.0, 0.0, 0.0, 0.0, 0.0, 0.0, 0.0, 0.0, 0.0, 0.0, 0.0, 0.0, 0.0, 0.0, 0.0, 0.0, 0.0, 0.0, 0.0, 0.0)",0.2084210515022277,2.587259405117948e-05,0.0,0.0,0.0,0.0,90,3,506000000,base_footprint,9.26634595290898e-05,0.0038721870417512,-0.0273421417995617,0.9996186297097558,0.0,0.0,0.0,0.0,0.0,0.0,0.0,0.0,0.0,-2.5203136453287243e-05,-9.7884623463237e-05,-0.0017512490818569,0.0,0.0,0.0,0.0,0.0,0.0,0.0,0.0,0.0,0.0006064673054645,-0.0022276403878595,0.0002876337983601,0.0,0.0,0.0,0.0,0.0,0.0,0.0,0.0,0.0
