Time,Theta_calculated,linear_velocity_x,world_velocity_x,world_velocity_y,angular_velocity_yaw,linear_acceleration_x,angular_acceleration_yaw,kinematic_delta_x,kinematic_delta_y,kinematic_delta_yaw
0.523,-1.344042162045004e-06,-2.3199967007026927e-06,-2.319996700700597e-06,3.1181733815487842e-12,-9.089152234572224e-06,-0.0001684313332773,0.0003330829131935,-7.72558901333985e-08,1.1675391052242068e-14,-3.026687694112551e-07
0.555,-1.6467109314562594e-06,-2.3268282652703226e-07,-2.3268282652671682e-07,3.831613540040314e-13,4.946539709065366e-06,6.26820983235934e-05,0.0004214922505596,-7.748338123349981e-09,1.7025138784752317e-15,1.647197723118767e-07
0.5890000000000001,-1.4819911591443822e-06,0.0001415951119098,0.0001415951119096,-2.0984270402832218e-10,-9.591101900416652e-05,0.0042590929350251,-0.0030287555169138,4.7151172265876e-06,-8.180128992662693e-12,-3.193836932838745e-06
0.622,-4.675828091983129e-06,5.388125612060363e-05,5.3881256120014616e-05,-2.519394909991383e-10,-0.0003672238966111,-0.0026340497233996,-0.0081475338620715,1.7942458287248727e-06,-1.694855960984078e-11,-1.222855575715125e-05
0.655,-1.690438384913438e-05,-2.8975899513198397e-06,-2.897589950905834e-06,4.898197277217233e-11,8.289495321931309e-05,-0.0017050704526103,0.0135170825774913,-9.64897453692191e-08,1.368238976731936e-12,2.760401942203126e-06
0.6890000000000001,-1.4143981906931257e-05,-2.1427627644549533e-06,-2.142762764240621e-06,3.0307197770286355e-11,0.0002249014800077,2.266748308903561e-05,0.0042644602639159,-7.135400005325773e-08,6.461335911062427e-13,7.489219284256871e-06
0.7220000000000001,-6.654762622674383e-06,-9.723565913738784e-07,-9.723565913523477e-07,6.470802300138193e-12,0.0002540237131214,3.51473325249572e-05,0.0008745415349471,-3.2379474492634694e-08,3.5009716329088285e-14,8.45898964694438e-06
0.756,1.8042270242699973e-06,-2.5802616186934495e-07,-2.58026161868925e-07,-4.655377742130843e-13,0.0002634039308721,2.145136424938539e-05,0.000281688220741,-8.592271189977793e-09,-6.473373939636664e-14,8.77135089804187e-06
0.789,1.0575577922311863e-05,3.729789377837808e-07,3.729789377629233e-07,3.944467819839956e-12,0.0002729730345709,1.894910209168545e-05,0.0002873604714359,1.2420198626473684e-08,2.0449380047983805e-13,9.0900020512125e-06
0.8220000000000001,1.9665579973524368e-05,9.827382473828768e-07,9.82738247192847e-07,1.9326117595703457e-11,0.0002631806733348,1.8311090378351228e-05,-0.0002940649019847,3.2725183627195583e-08,8.309440303080288e-13,8.763916422050625e-06
0.8560000000000001,2.842949639557499e-05,1.649281960630609e-06,1.6492819599641045e-06,4.6888255548718615e-11,0.0002592936535725,2.0016327725157124e-05,-0.0001167273201901,5.492108925691457e-08,1.872302661039315e-12,8.634478663965002e-06
0.889,3.706397505954e-05,2.4986590758423546e-06,2.4986590741261023e-06,9.26102376481106e-11,0.000260914958988,2.5506820276628996e-05,4.868785031484675e-05,8.320534714924921e-08,3.557216623988569e-12,8.688468134300632e-06
0.922,4.575244319384063e-05,3.342964389094572e-06,3.342964385595681e-06,1.5294878825772058e-10,0.0002448051704956,2.5354513911477987e-05,-0.0004837774322024,1.1132071401078748e-07,5.6965564841717606e-12,8.152012177505617e-06
0.955,5.3904455371346246e-05,4.429967609337869e-06,4.429967602901812e-06,2.3879499117841847e-10,0.0002337471793293,3.2642739346645576e-05,-0.0003320718067966,1.475179211326004e-07,8.724268014677803e-12,7.78378107166688e-06
0.989,6.168823644301313e-05,5.933119372162143e-06,5.9331193608730825e-06,3.6600367044242576e-10,0.0002259786757844,4.513969257730551e-05,-0.000233288394741,1.9757287465179276e-07,1.3196845088238018e-11,7.525089903622498e-06
1.023,6.921332634663563e-05,7.333812607545046e-06,7.333812589978787e-06,5.07597564965813e-10,0.000201529600886,4.20628599214085e-05,-0.0007342064534044,2.4421595916370294e-07,1.805069976403426e-11,6.710935709506871e-06
1.055,7.59242620561425e-05,9.113240884941428e-06,9.11324085867482e-06,6.919160884642873e-10,0.0001808971949069,5.343628460649796e-05,-0.0006195917711461,3.034709204901682e-07,2.4362719120380014e-11,6.02387659040062e-06
1.089,8.194813864654312e-05,-0.0001536112587617,-0.0001536112582459,-1.2588156716589162e-08,0.0022253553082254,-0.0048866216110119,0.0613951385380938,-5.115254878554566e-06,-6.155920052850359e-10,7.410433176390752e-05
1.122,0.0001560524704104,1.0700560572909885e-05,1.070056044261786e-05,1.6698489054017903e-09,0.0001637296543988,0.0049342888689089,-0.0619106802950924,3.5632866250945626e-07,5.7056276718669797e-11,5.452197491482483e-06
1.156,0.0001615046679019,8.886873669864838e-06,8.886873553963307e-06,1.4352715744984083e-09,0.0001874847912146,-5.446507216351491e-05,0.0007133674719449,2.959328891301123e-07,4.9116077073630976e-11,6.243243547447497e-06
1.189,0.0001677479114493,7.450438993869385e-06,7.450438889044085e-06,1.2497955747412056e-09,0.0002154918891787,-4.313617645631992e-05,0.0008410539929169,2.4809961479635924e-07,4.284181408354647e-11,7.1758799096531285e-06
1.223,0.000174923791359,5.8199539387297305e-06,5.819953849689287e-06,1.0180484033057822e-09,0.0002276628160818,-4.896351516935898e-05,0.0003654933003933,1.9380446301756486e-07,3.489612688813683e-11,7.581171775526257e-06
1.256,0.0001825049631345,4.679069569662193e-06,4.679069491736825e-06,8.539534145746512e-10,0.0002426869793488,-3.4260791863890005e-05,0.0004511760740825,1.5581301391902825e-07,2.927566921023456e-11,8.08147641231563e-06
1.29,0.0001905864395468,3.864345424797276e-06,3.864345354614597e-06,7.364918312327491e-10,0.0002627137230722,-2.4466190536484007e-05,0.0006014037154181,1.286827001659118e-07,2.5261013451475836e-11,8.748366978305613e-06
1.322,0.0001993348065251,3.015334145009029e-06,3.015334085102836e-06,6.010610444236843e-10,0.000264804894688,-2.549583422787527e-05,6.279794642110532e-05,1.0041062491678829e-07,2.0592999515165678e-11,8.818002993112513e-06
1.355,0.0002081528095182,2.443655350409889e-06,2.443655297471037e-06,5.086537230091054e-10,0.0002725084800494,-1.716753136934356e-05,0.0002313388997426,8.137372130448046e-08,1.7416753425191488e-11,9.074532385648124e-06
1.39,0.0002172273419039,2.044728571639656e-06,2.0447285233966184e-06,4.4417094903909067e-10,0.000287207654515,-1.1979783146253229e-05,0.0004414166506185,6.808945973696065e-08,1.5208011193078263e-11,9.564014895352508e-06
1.423,0.0002267913567992,0.0337093349699327,0.0337093341030244,7.644985749097186e-06,-0.0004145521429828,1.012230938179013,-0.0210738677927312,0.0011225208270194,2.483387714824408e-07,-1.380458636132927e-05
1.455,0.0002129867704379,0.067054137309423,0.0670541357885224,1.4281644042060643e-05,2.1424590652125425e-05,1.001345415600308,0.013092394403453,0.0022329027209457,4.793765404590121e-07,7.134388687157766e-07
1.49,0.0002137002093066,0.1031201445171436,0.1031201421625096,2.203679629932019e-05,2.2144661498004173e-05,1.083063279511129,2.1623749125488018e-05,0.0034339007327495,7.397069211706547e-07,7.374172278835391e-07
1.523,0.0002144376265345,0.1337806810161029,0.1337806779402512,2.868761149341134e-05,2.149048175035246e-05,0.92073683180058,-1.9645037467018436e-05,0.0044548965737781,9.628786791687929e-07,7.156330422867369e-07
1.5550000000000002,0.0002151532595768,0.1671437577933675,0.1671437539247479,3.596152402971804e-05,2.107243170563331e-05,1.0018941975154527,-1.2554055396971482e-05,0.0055658870036562,1.206953236799634e-06,7.017119757975892e-07
1.59,0.0002158549715526,0.2062424574050331,0.2062424526002677,4.451845943040095e-05,2.0420544818663628e-05,1.1741351234734403,-1.957618279188232e-05,0.0068678736690823,1.4940295560549687e-06,6.800041424614989e-07
1.623,0.0002165349756951,0.2180174855072822,0.2180174803961461,4.720841055651516e-05,-2.490317432248792e-06,0.3536044475149885,-0.0006880138814087,0.0072599820951374,1.5814996494126926e-06,-8.292757049388478e-08
1.656,0.0002164520481246,0.2180145281304421,0.2180145230232895,4.718969076627145e-05,1.3581695961077804e-05,-8.881011531786158e-05,0.0004826430448446,0.0072598836141993,1.5828159790649312e-06,4.5227047550389094e-07
1.689,0.0002169043186001,0.224621380288357,0.2246213750044217,4.872134705242843e-05,7.961792682600012e-06,0.1984039687061523,-0.0001687658642185,0.0074798917852432,1.6334678791541826e-06,2.6512769633058044e-07
1.723,0.0002171694462964,0.2180116618763463,0.2180116567353514,4.734547152369953e-05,-9.259550008626432e-07,-0.1984900424027225,-0.0002668993298337,0.0072597881671857,1.5862596364856824e-06,-3.0834301528726016e-08
1.755,0.0002171386119949,0.2179946037009638,0.2179945985618308,4.7335045298042335e-05,0.0001126629633725,-0.000512257518994,0.0034110786298329,0.0072592201269916,1.5996308251435325e-06,3.751676680306681e-06
1.789,0.0002208902886752,0.224624673434225,0.2246246679542232,4.96174085549719e-05,5.437707958710702e-06,0.1991011931910275,-0.0032199776400559,0.0074800014404978,1.6629928742349851e-06,1.810756750250664e-07
1.823,0.0002210713643502,0.2180177983223222,0.2180177929947795,4.819749173516522e-05,7.603478541729436e-06,-0.1984046580151,6.503815564620823e-05,0.0072599925043577,1.6156500359554468e-06,2.5319583543959024e-07
1.856,0.0002213245601856,0.2174919011854411,0.2174918958585684,4.81362989808288e-05,0.0014414185255492,-0.0157927068132466,0.043057508919144,0.0072424800884448,1.786489721182795e-06,4.799923690078922e-05
1.889,0.0002693237970864,0.2242024255511688,0.2242024174198729,6.03830478354564e-05,0.0015716405424251,0.2015172482200516,0.0039105710773556,0.0074659404410846,2.216157382933417e-06,5.23356300627581e-05
1.922,0.0003216594271492,0.206502116188132,0.2065021055052834,6.64233512527675e-05,-0.0714034309957277,-0.5315408217128174,-2.191443589734322,0.0068765162714488,-5.954127012533314e-06,-0.0023777342521577
1.955,-0.0020560748250084,0.2064895617134515,0.2064891252521083,-0.0004245576903336,-0.0712395447339226,-0.0003770112516662,0.0049215093635179,0.0068760646820853,-2.228450428328875e-05,-0.0023722768396396
1.989,-0.0044283516646481,0.2129297589255287,0.2129276711208783,-0.0009429247705445,-0.0738270079553023,0.1933993156779947,-0.0777015982396324,0.0070904457631039,-4.010560062845464e-05,-0.0024584393649115
2.022,-0.0068867910295596,0.2068520054834963,0.2068471002257315,-0.0014245352752973,-0.0478186523369304,-0.1825151183793522,0.7810317002514074,0.0068879678293218,-5.291184416732589e-05,-0.0015923611228197
2.056,-0.0084791521523794,0.2070053247354405,0.2069978833504142,-0.0017552086125221,-0.047520906618293,0.0046041817400652,0.0089413128719955,0.0068929804788518,-6.389308095745482e-05,-0.0015824461903891
2.089,-0.0100615983427686,0.2134154700795015,0.2134046675318518,-0.0021472645096523,-0.0490472720821281,0.19249685717901,-0.0458368007157678,0.0071063139805028,-7.729765358562613e-05,-0.0016332741603348
2.122,-0.0116948725031034,0.2288594771299213,0.2288438267480494,-0.002676421396143,-0.0080843249072092,0.4637839955081034,1.2301185337813458,0.0076204874632629,-9.014033893564168e-05,-0.00026920801941
2.156,-0.0119640805225135,0.2186272819025792,0.2186116350196191,-0.0026156120046137,-0.0557667271485212,-0.3072731299502145,-1.431903971210568,0.0072796825145601,-9.384942415017668e-05,-0.0018570320140457
2.19,-0.0138211125365593,0.224840448302317,0.224818973778627,-0.0031074462041906,-0.0561198902669678,0.1865815735656994,-0.0106054990524522,0.0074863709283158,-0.0001104631649587,-0.00186879234589
2.223,-0.0156899048824493,0.2179008770593633,0.217874056940712,-0.0034187037653424,-0.054664836747041,-0.2083955328214329,0.0436953008987021,0.007255098634903,-0.0001204364870678,-0.0018203390636764
2.256,-0.0175102439461258,0.2175056824739354,0.2174723387648245,-0.0038083829389712,-0.0477420391156999,-0.011867705268103,0.2078918207609958,0.0072417251992842,-0.0001325659296824,-0.0015898099025528
2.29,-0.0191000538486786,0.2240781432454051,0.2240372712837909,-0.0042796443802455,-0.0490105361428343,0.1973711943384268,-0.0380930038178494,0.0074603217280239,-0.0001485899759185,-0.0016320508535563
2.322,-0.020732104702235,0.2174509526521703,0.2174042219238078,-0.0045078929712408,-0.0490692692002058,-0.1990147325295718,-0.0017637554766229,0.0072394349355266,-0.0001560177828469,-0.0016340066643668
2.355,-0.0223661113666018,0.2175696384979055,0.2175152219288667,-0.0048657810621893,-0.049511185279657,0.003564139511567,-0.0132707531366727,0.0072431202628453,-0.0001679917597467,-0.0016487224698125
2.389,-0.0240148338364144,0.2243416066851064,0.2242769195182911,-0.005387008579995,-0.0514324217452972,0.2033624080240505,-0.0576947887579633,0.0074682644000979,-0.0001857728401418,-0.0017126996441183
2.422,-0.0257275334805328,0.2179261721677752,0.2178540528277571,-0.0056060843928395,-0.0424767487420518,-0.1926556912111464,0.2689391292265884,0.0072544057688974,-0.0001918034823117,-0.0014144757331103
2.456,-0.0271420092136431,0.2181052735687963,0.2180249406593582,-0.0059190885280444,-0.0427401392939938,0.005378420451083,-0.0079096261844438,0.0072600880797694,-0.0002022623720471,-0.0014232466384899
2.489,-0.0285652558521331,0.2248964777344831,0.2248047291519582,-0.0064233517957223,-0.0444422557233558,0.203940065035641,-0.0511146074883475,0.007485836766656,-0.0002194268397576,-0.0014799271155877
2.523,-0.0300451829677209,0.2184546700193639,0.2183560764990978,-0.0065625230810534,-0.0364863113272195,-0.193447679132708,0.2389172491332221,0.0072711231005342,-0.0002229394592256,-0.0012149941671964
2.555,-0.0312601771349173,0.2185885090062511,0.2184817155025836,-0.0068320026803303,-0.0363849038882534,0.0040191887954091,0.003045268437419,0.0072753018329552,-0.000231903379905,-0.0012116172994788
2.59,-0.0324717944343961,0.2252667679334376,0.2251480157648362,-0.0073135307707208,-0.036908836505059,0.2005483161317271,-0.0157337122163853,0.0074972777073935,-0.0002481378470624,-0.0012290642556184
2.622,-0.0337008586900146,0.2173451466876647,0.217221733724426,-0.0073233316487154,-0.0089741127220083,-0.2378865238970838,0.8388805940856079,0.0072334475162247,-0.0002449380379448,-0.0002988379536428
2.655,-0.0339996966436575,0.2067998557894257,0.2066803391196268,-0.0070297778004252,-0.0351726416320915,-0.3166754023495193,-0.7867426099124084,0.0068823169493801,-0.0002381128309705,-0.0011712489663486
2.689,-0.0351709456100061,0.2128457606874055,0.2127141296421143,-0.0074844434127119,-0.0355117807469866,0.1815587056450379,-0.0101843578046583,0.0070832318431224,-0.0002534105854459,-0.0011825422988746
2.722,-0.0363534879088808,0.2063180482467287,0.2061817307615066,-0.0074987287275318,-0.0331171315488288,-0.196027400620923,0.0719113873320675,0.0068657128945319,-0.0002534842200621,-0.0011028004805759
2.755,-0.0374562883894568,0.2060345197348751,0.2058900061420408,-0.0077154839907185,-0.0334431395132801,-0.0085143697253339,-0.0097900289625033,0.0068559930743421,-0.0002607340396832,-0.0011136565457922
2.789,-0.038569944935249,0.2122658861754044,0.2121080180670918,-0.008185053786017,-0.0347558270581666,0.1871281213372152,-0.0394200463929866,0.0070630380690331,-0.0002766400995178,-0.0011573690410369
2.822,-0.0397273139762859,0.2286525955865415,0.2284721827537807,-0.0090813642249137,0.005488635804159,0.4920933757098226,1.208542428298067,0.007608151684775,-0.0003017039269661,0.0001827715722784
2.856,-0.0395445424040074,0.2177762307351572,0.2176059768644204,-0.0086096170701005,-0.0228037202807936,-0.3266175631046318,-0.8496203028514306,0.0072461698673037,-0.0002894417628912,-0.0007593638853504
2.889,-0.0403039062893579,0.2244630381654692,0.2242807534175381,-0.0090442881939033,-0.0230044059334071,0.2008050279372955,-0.00602659617458,0.0074684334099986,-0.0003040253581295,-0.0007660467175824
2.922,-0.0410699530069403,0.2180463807244902,0.2178625126819896,-0.008952637317532,-0.0109422475846677,-0.192692415645014,0.3622269774396214,0.007254767599706,-0.000299434809862,-0.0003643768445694
2.955,-0.0414343298515098,0.2182178570450759,0.2180305652315233,-0.0090391237499932,-0.0108887787042664,0.0051494390566293,0.0016056720841241,0.0072603634981789,-0.0003023093564608,-0.000362596330852
2.99,-0.0417969261823618,0.2250078246843441,0.2248113108690983,-0.0094018973881972,-0.0114305541803147,0.2039029321101553,-0.0162695338152639,0.0074861573082808,-0.0003144978809614,-0.0003806374542044
3.022,-0.0421775636365663,0.2185387636374131,0.21834440802709,-0.009214699966291,-0.0205255707918501,-0.1942660975054366,-0.2731236219680323,0.0072707637708798,-0.0003093245375651,-0.0006835015073686
3.055,-0.0428610651439349,0.2186358168373791,0.2184350228306239,-0.0093680950642483,-0.0204154573608652,0.0029145105094887,0.0033067096391873,0.0072737800827691,-0.000314420285498,-0.0006798347301168
3.089,-0.0435408998740517,0.2251942209306428,0.2249807919285468,-0.0098020611997221,-0.0198831499340684,0.1969490718697813,0.015985208011915,0.0074917522068367,-0.00032887875847,-0.0006621088928044
3.122,-0.0442030087668562,0.2183466949874214,0.2181334152612262,-0.0096484381328525,-0.0114875674354576,-0.2056314097063486,0.2521195945528764,0.0072637815316671,-0.0003226725597984,-0.0003825359956007
3.155,-0.044585544762457,0.2180261728405352,0.2178095048049363,-0.0097175953877165,-0.0107177646623898,-0.0096252896962819,0.0231172003924265,0.0072529990467378,-0.000324880484793,-0.0003569015632575
3.19,-0.0449424463257146,0.2243610064633102,0.224134459784566,-0.0100799384080613,-0.0101385548101971,0.1902352439271783,0.0173936892550369,0.0074636211598024,-0.0003369118317212,-0.0003376138751795
3.223,-0.0452800602008941,0.2175629444377089,0.2173399496459684,-0.0098478972523842,-0.0032517836100666,-0.2041460067748152,0.2068099459498656,0.0072374029952252,-0.0003283171003345,-0.0001082843942152
3.255,-0.0453883445951093,0.217405548966562,0.2171816486245422,-0.0098642902521208,-0.005223740162779,-0.0047265907251322,-0.0592179144958686,0.0072321207353425,-0.0003291001615873,-0.0001739505474205
3.289,-0.0455622951425299,0.2241316127488466,0.223899013035598,-0.010208417854108,-0.0057741458297716,0.2019838973659048,-0.016528698708485,0.007455804864293,-0.0003406470921901,-0.0001922790561313
3.323,-0.0457545741986613,0.2176773437896752,0.217449531838951,-0.0099562594557145,-0.0012637793681476,-0.1938218906658068,0.1354464402890066,0.0072410628775937,-0.000331686073559,-4.208385295931816e-05
3.355,-0.0457966580516206,0.2178406521692178,0.217612249802008,-0.0099728869249893,-0.0012368751524185,0.0049041555418196,0.0008079344062803,0.0072464815237062,-0.000332236628892,-4.118794257553793e-05
3.389,-0.0458378459941961,0.2246229100878944,0.2243869728922644,-0.0102926251559325,-0.0014238352249501,0.203671408969267,-0.0056144165925406,0.0074720785300145,-0.0003429115144619,-4.74137129908403e-05
3.422,-0.045885259707187,0.2174123696071028,0.217183533557617,-0.0099725227301299,-0.0053790298886581,-0.2165327471709185,-0.1187746145257659,0.0072321823341802,-0.0003327230077804,-0.0001791216952923
3.455,-0.0460643814024793,0.2066511761007101,0.2064319654879847,-0.009515892421323,-0.0091472731961045,-0.3231589641559371,-0.1131604596830736,0.0068741365103782,-0.0003179169263125,-0.0003046041974302
3.489,-0.0463689855999096,0.2133000426338429,0.2130707773373611,-0.0098869627516177,-0.0114907553528602,0.1996656616556376,-0.0703748395422134,0.0070951941667588,-0.0003305837875261,-0.0003826421532502
3.522,-0.0467516277531598,0.2071503148555658,0.2069239703432226,-0.0096810868272713,-0.0019012600860746,-0.1846765098581704,0.2879728308344017,0.0068905584361442,-0.0003225890576215,-6.331196086628577e-05
3.556,-0.0468149397140261,0.2071359827104539,0.2069090405573763,-0.0096935168567192,-0.0007093566650949,-0.0004303947481034,0.0357928955249145,0.0068900676714187,-0.0003228662278896,-2.3621576947663316e-05
3.589,-0.0468385612909738,0.213237463842842,0.2130036010096872,-0.0099840844864879,0.0004390864442638,0.1832276616332743,0.0344877810618282,0.0070930227907629,-0.0003324086244933,1.4621578593987384e-05
3.622,-0.0468239397123798,0.2174517134396834,0.2172133775790675,-0.0101782257072458,-0.0082473623300916,0.1265540419471895,-0.2608543175482133,0.007233159297264,-0.000339918443642,-0.000274637165592
3.655,-0.0470985768779718,0.217872860245285,0.2176312538503516,-0.0102577082716034,0.0015325879120121,0.0126470512192688,0.2936921994625757,0.0072471299252572,-0.000341387015814,5.103517747000464e-05
3.69,-0.0470475417005018,0.2242821923137705,0.2240340170118002,-0.0105480334957546,0.0036164824281415,0.1924724344890535,0.0625794148987809,0.0074603543702336,-0.0003507902678344,0.0001204288648571
3.722,-0.0469271128356447,0.2177116462313318,0.2174719729418081,-0.0102128296546095,0.0030177545545755,-0.1973136961693296,-0.0179798160230038,0.0072418342312609,-0.0003397136240653,0.0001004912266673
3.755,-0.0468266216089773,0.2174799107762171,0.2172415167089117,-0.0101801281545464,-0.001358537055404,-0.0069590226761189,-0.1314201684678539,0.0072341352917603,-0.0003391521781582,-4.523928394495336e-05
3.79,-0.0468718608929223,0.2242194556417607,0.2239731988722784,-0.0105057353481956,-0.0015108654502288,0.2023887347010105,-0.0045744262710167,0.007458299189179,-0.0003500185831954,-5.03118194926211e-05
3.822,-0.0469221727124149,0.217776773762163,0.2175370792404497,-0.0102148101201461,0.0060066526530665,-0.1934739303182502,0.225751294393256,0.007244019165583,-0.0003394189620001,0.0002000215333471
3.855,-0.0467221511790678,0.2179308426990418,0.2176930188750906,-0.0101784936294123,0.006361358155473,0.0046266948011652,0.0106518168890826,0.0072492138286244,-0.00033816628375,0.0002118332265772
3.889,-0.0465103179524905,0.2247033487314293,0.2244603523114108,-0.0104472566425678,0.006687567950029,0.2033785595311567,0.0097960899266079,0.0074745688739105,-0.0003470513232017,0.0002226960127359
3.923,-0.0462876219397546,0.2182509802251177,0.2180172158090657,-0.0100987118033927,0.0131243234266203,-0.1937648200093587,0.1932959602579954,0.0072600469906247,-0.0003346908853105,0.0004370399701064
3.955,-0.0458505819696481,0.2184100462088038,0.2181805073412435,-0.0100107193172812,0.0133235105688149,0.0047767562668495,0.0059815958617014,0.0072654850526979,-0.0003317354442697,0.0004436729019415
3.989,-0.0454069090677066,0.2251565267553355,0.2249244541891952,-0.0102201491289876,0.0136209653069229,0.2025970134093614,0.0089325747179574,0.0074900617061493,-0.0003386222407998,0.0004535781447205
4.022,-0.0449533309229861,0.2185956852889055,0.2183748531860688,-0.0098232949100163,0.0845288733478496,-0.197022266259158,2.129366607835636,0.0072723338185142,-0.0003168710316365,0.0028148114824833
4.055,-0.0421385194405026,0.2184617736460609,0.2182678459935732,-0.0092029315931702,0.0863204244815811,-0.0040213706559955,0.0538003343462904,0.0072687501115961,-0.0002960011543774,0.0028744701352366
4.089,-0.039264049305266,0.2247927074682612,0.2246194521399549,-0.0088240042643795,0.0893755353619841,0.1901181327988083,0.0917450714835739,0.0074802543565477,-0.0002826981110398,0.002976205327554
4.122,-0.0362878439777119,0.2059866194217504,0.2058510119283856,-0.0074731699338835,-0.002442823369284,-0.5647473887841087,-2.757308070008053,0.0068548289027526,-0.0002491261522644,-8.134601819715925e-05
4.155,-0.0363691899959091,0.2064859038317504,0.2063493575748554,-0.0075080696360246,0.0928125170233857,0.0149935258258273,2.8605207325126063,0.0068718093502213,-0.0002393904717345,0.0030906568168787
4.189,-0.0332785331790303,0.2121388447911381,0.2120213879073882,-0.0070583666059086,0.0957462915858307,0.1697579867683986,0.0881013382115605,0.0070606752565653,-0.0002237783508819,0.0031883515098081
4.222,-0.0300901816692222,0.2059347119566364,0.2058414903868014,-0.0061956778485631,0.0863368656657909,-0.1863102953303802,-0.2825653429441358,0.0068548090319666,-0.0001964531465127,0.0028750176266708
4.255,-0.0272151640425513,0.2060465381966115,0.2059702371607876,-0.0056068981385954,0.0859704637220985,0.0033581453445952,-0.0110030613721451,0.0068590670240196,-0.0001768824853668,0.0028628164419458
4.29,-0.0243523476006055,0.212453931533191,0.2123909381429725,-0.005173240634058,0.0883491090847538,0.1924142143116974,0.0714307916713292,0.0070728616644258,-0.0001618552548668,0.0029420253325223
4.322,-0.0214103222680832,0.2174537894375908,0.2174039507264019,-0.004655400017217,-0.0120127382178508,0.1501458830150082,-3.013869288366508,0.0072395205695725,-0.0001564630840471,-0.0004000241826544
4.355,-0.0218103464507376,0.2180665730696101,0.2180147089493483,-0.0047557304438506,0.0762076640173904,0.0184019108714513,2.649261328385625,0.0072600831597706,-0.0001491441344864,0.0025377152117791
4.389,-0.0192726312389585,0.224829648923121,0.2247878954922277,-0.0043327906791332,0.0789325508066505,0.2030953709763018,0.0818284321099136,0.0074856181004864,-0.0001344341450683,0.0026284539418614
4.422,-0.016644177297097,0.2183889180316889,0.2183586687377782,-0.0036347360450205,0.067461557455412,-0.193415342085048,-0.3444742748119672,0.007271473657308,-0.0001128594115534,0.0022464698632652
4.456,-0.0143977074338318,0.2185479804018416,0.2185253289528699,-0.0031464811716842,0.0670221577755295,0.004776647752335,-0.0131951855820571,0.0072770044663883,-9.664753566691484e-05,0.0022318378539251
4.49,-0.0121658695799067,0.225240916527088,0.2252242479608009,-0.0027401840183258,0.0695499213192432,0.2009890728302215,0.0759088151265363,0.0075000665290449,-8.255296097262596e-05,0.0023160123799307
4.523,-0.0098498571999759,0.2185099913974404,0.2184993915976693,-0.0021522574097488,0.0581156551544599,-0.2021298837732019,-0.3433713562997978,0.0072760946352421,-6.461987676018278e-05,0.0019352513166435
4.555,-0.0079146058833324,0.2183116508786551,0.2183048132857834,-0.0017278326374556,0.0579822964884838,-0.0059561717352921,-0.0040047647440255,0.0072696013797976,-5.050896069688658e-05,0.0019308104730665
4.59,-0.0059837954102658,0.224670029369548,0.224666007135637,-0.0013443714678146,0.060509298177378,0.1909422970238102,0.0758859366034289,0.0074814181275808,-3.7220149435425066e-05,0.0020149596293066
4.623,-0.0039688357809592,0.2177299958999427,0.2177282810980369,-0.0008641323297255,-0.0207855230613771,-0.2084094135016609,-2.4412859230857413,0.007250341265055,-3.127505360807739e-05,-0.0006921579179438
4.655,-0.004660993698903,0.2174649362953455,0.2174625741017282,-0.0010135990277457,-0.0225655832499022,-0.0079597478858031,-0.0534552609166699,0.0072414904035969,-3.646386722182111e-05,-0.0007514339222217
4.69,-0.0054124276211248,0.224038401245223,0.2240351197210152,-0.001212585710749,-0.0228514115081392,0.1974013498461715,-0.0085834311782894,0.0074603534615247,-4.320756465655975e-05,-0.000760952003221
4.723,-0.0061733796243458,0.2174995430142238,0.2174953985066058,-0.001342698718598,-0.0134166137557887,-0.1963621090390133,0.2833272598303459,0.0072425866035551,-4.6320030678922216e-05,-0.0004467732380677
4.756,-0.0066201528624136,0.2176510793728246,0.2176463099560077,-0.0014408728913459,-0.0135464373905841,0.0045506413994224,-0.0038986076515124,0.0072476111203712,-4.960601252975369e-05,-0.0004510963651064
4.79,-0.00707124922752,0.224430886083274,0.2244252750465983,-0.0015869935041463,-0.0143643986227363,0.2035977991125935,-0.024563400364932,0.0074733488082438,-5.462422040163104e-05,-0.0004783344741371
4.822,-0.0075495837016571,0.2180118249133566,0.2180056120185449,-0.0016458828851815,-0.0141901808829102,-0.1927645996972172,0.0052317639587417,0.0072595737367468,-5.651333810065432e-05,-0.0004725330234009
4.856,-0.008022116725058,0.2181895515913255,0.2181825309048555,-0.0017503232774246,-0.0146048802287043,0.0053371374765441,-0.0124534338076312,0.0072654638999997,-6.00427531942892e-05,-0.0004863425116158
4.889,-0.0085084592366739,0.2249825253120851,0.2249743816824041,-0.0019142315489457,-0.0154703987216387,0.2039932048276138,-0.0259915463343638,0.0074916302476196,-6.566355308277997e-05,-0.0005151642774305
4.922,-0.0090236235141045,0.2062429503578822,0.2062345536681703,-0.0018610334802102,-0.0195048006347537,-0.5627499986247105,-0.1211532106040542,0.0068675901147232,-6.419347054120141e-05,-0.0006495098611372
4.955,-0.0096731333752418,0.2071245191483747,0.2071148289541241,-0.0020035118540604,-0.0241252843548884,0.0264735372520254,-0.1387532648689111,0.0068968963564132,-6.94780653231349e-05,-0.0008033719690177
4.989,-0.0104765053442596,0.2134308117514401,0.2134190990782415,-0.0022359681371661,-0.0247428117604176,0.1893781562482108,-0.0185443665324088,0.0071068246250129,-7.737597444876347e-05,-0.0008239356316219
5.022,-0.0113004409758815,0.2069752208681088,0.2069620056443821,-0.0023388614873929,-0.0085937087470582,-0.1938615880880256,0.4849580484492324,0.0068918236558263,-7.88609434679302e-05,-0.000286170501277
5.055,-0.0115866114771585,0.2066904372089224,0.2066765633134407,-0.0023947882079318,-0.0076414024069847,-0.0085520618374297,0.0285977879901933,0.0068823194463312,-8.061283064467817e-05,-0.0002544587001525
5.089,-0.0118410701773111,0.2126966492451903,0.2126817382205398,-0.002518497095753,-0.0070311126093239,0.1803667278158508,0.0183270209507756,0.0070822921138415,-8.468554471537698e-05,-0.0002341360498904
5.122,-0.0120752062272016,0.2174956375735923,0.2174797811809664,-0.0026262408538373,-0.0281885978094366,0.1441137636156758,-0.6353599159193001,0.0072420347263192,-9.084307113727272e-05,-0.0009386803070542
5.155,-0.0130138865342558,0.2176951030486498,0.2176766687522294,-0.0028329794024061,-0.0140731244281567,0.005989954205931,0.4238880895279234,0.0072486108281012,-9.60269499134653e-05,-0.0004686350434576
5.189,-0.0134825215777134,0.224106037182164,0.2240856686736125,-0.003021422941831,-0.019004979874814,0.1925205445499761,-0.1481037671668848,0.0074620205697256,-0.0001029645870051,-0.0006328658298313
5.222,-0.0141153874075447,0.2175916240824921,0.2175699475120437,-0.0030712880788206,-0.0022230854253773,-0.1956280210111675,0.5039607942773778,0.0072450755977439,-0.0001025323273082,-7.40287446650667e-05
5.255,-0.0141894161522098,0.2177463654586202,0.217724445350885,-0.0030895901165841,-0.0019901713938583,0.0046468881720154,0.0069944153609324,0.007250220754294,-0.0001031138521896,-6.62727074154823e-05
5.289,-0.0142556888596253,0.2245314161443043,0.2245086013697869,-0.0032007415935875,-0.0023180815941865,0.2037552758463704,-0.0098471531630086,0.0074761324480755,-0.0001068631961288,-7.719211708641095e-05
5.323,-0.0143328809767117,0.2181074352105225,0.2180850325277545,-0.0031260008766134,-0.0106551072547011,-0.1929123403538085,-0.250361130946386,0.0072622131050458,-0.0001053744408817,-0.0003548150715815
5.355,-0.0146876960482933,0.2182859601821362,0.2182624153632887,-0.0032060025608885,-0.0111622666789096,0.0053611102586702,-0.0152300127389943,0.0072681185680208,-0.000108100910321,-0.0003717034804076
5.39,-0.0150593995287009,0.2250760572100742,0.2250505356977252,-0.0033893821560191,-0.0118127685736601,0.2039068176557952,-0.0195345914339466,0.0074941606002741,-0.0001143303257393,-0.0003933651935028
5.422,-0.0154527647222038,0.2186017064149118,0.2185756072089551,-0.0033778663010688,-0.0049852292556293,-0.1944249488036755,0.2050312107516731,0.0072785585020721,-0.0001130773153424,-0.0001660081342124
5.456,-0.0156187728564163,0.2186486063062229,0.2186219376147509,-0.0034148840720617,-0.0045907457716926,0.0014084051444757,0.0118463508689708,0.0072801019558361,-0.0001142623163125,-0.0001528718341973
5.489,-0.0157716446906137,0.2251322330049369,0.2251042333518791,-0.0035505583859446,-0.0042308966931196,0.1947035044658874,0.010806278635827,0.0074959627765345,-0.0001187515683768,-0.0001408888598808
5.522,-0.0159125335504945,0.2182286671438604,0.2182010390256679,-0.0034724244419169,-0.0038398716641007,-0.207314290122417,0.0117424933639304,0.0072660873430027,-0.0001160865171713,-0.0001278677264145
5.556,-0.0160404012769091,0.2179605742790095,0.2179325348546558,-0.0034960251514889,-0.0030522344413681,-0.0080508367823112,0.0236527694514302,0.0072571476388144,-0.0001167766898137,-0.0001016394068975
5.59,-0.0161420406838066,0.2242270591131252,0.2241978468320867,-0.0036193251273061,-0.0025151721516385,0.1881827277512225,0.016127996688576,0.0074657834059442,-0.0001208261416867,-8.375523264956277e-05
5.623,-0.0162257959164562,0.2064878652244871,0.2064606841244557,-0.0033502829474064,-0.0247348944046276,-0.5327085251843271,-0.6672589265161905,0.0068750942114592,-0.0001143865993798,-0.0008236719836741
5.655,-0.0170494679001303,0.2059689124889898,0.2059389772438345,-0.0035114902335902,-0.0010360268830901,-0.0155841662311482,0.7116777033494748,0.0068577660811044,-0.0001170417030726,-3.4499695206902106e-05
5.689,-0.0170839675953372,0.2123029457198894,0.212271964897674,-0.0036268002182358,-0.0008697692464912,0.1902112081351221,0.0049927218197863,0.0070686548435738,-0.0001208653125596,-2.8963315908159255e-05
5.723,-0.0171129309112454,0.2062199394201736,0.2061897441545363,-0.0035288553309723,-0.0001570330516251,-0.1826728618533276,0.0214034893353195,0.0068661183310302,-0.0001175196063074,-5.229200619116803e-06
5.755,-0.0171181601118645,0.20638829947442,0.2063580610860819,-0.0035328154120755,-0.0004168354606526,0.0050558574848766,-0.0078018741449718,0.0068717227756441,-0.000117681209203,-1.3880620839734629e-05
5.789,-0.0171320407327042,0.212820360471644,0.2127891291219585,-0.0036458687303524,-0.0007516322275351,0.1931549849016204,-0.0100539569634364,0.0070858766429363,-0.0001214865824639,-2.502935317691968e-05
5.822,-0.0171570700858811,0.2181280321678171,0.2180959283203731,-0.0037422543311434,-0.0244301011997624,0.1593895404256212,-0.7110651343011221,0.0072625430940522,-0.0001275614356645,-0.000813522369952
5.855,-0.0179705924558332,0.2183953614444954,0.2183600978550129,-0.0039244827966244,-0.0020009894659401,0.0080279062065531,0.6735468989135849,0.007271387075184,-0.0001309177611013,-6.663294921580576e-05
5.889,-0.018037225405049,0.2251644159281483,0.2251277892567316,-0.0040611211063946,-0.0017254382114215,0.2032749094190057,0.0082748124480042,0.0074967516750545,-0.0001354406276991,-5.7457092440338366e-05
5.923,-0.0180946824974894,0.2186434180721456,0.2186076252043025,-0.0039560673409653,-0.0025435024275835,-0.195825761441522,-0.0245664929778361,0.0072796285090939,-0.0001320355456868,-8.469863083853113e-05
5.955,-0.0181793811283279,0.2185977976620376,0.2185616764749124,-0.0039737537881574,-0.0020971519754389,-0.0013699822855238,0.013403917481819,0.0072780993783817,-0.0001325703527423,-6.983516078211683e-05
5.989,-0.01824921628911,0.2249840955632277,0.2249466329380907,-0.0041055555311636,-0.0015905192531497,0.191780717753455,0.0152141958645403,0.0074907194368401,-0.0001369033016932,-5.2964291129886654e-05
6.023,-0.0183021805802399,0.2180600493791491,0.2180235286315221,-0.0039907515954794,0.0002036906212608,-0.2079293148371952,0.0538801764087252,0.0072601841326415,-0.0001328576476885,6.782897687984679e-06
6.055,-0.0182953976825519,0.2177789256976857,0.2177424790616717,-0.0039841297814714,0.000765248206438,-0.0084421525964962,0.016863591146464,0.0072508264205726,-0.0001325693907471,2.54827652743872e-05
6.089,-0.0182699149172775,0.2240600451899941,0.2240226517523032,-0.0040933302344737,0.0008091097623588,0.1886222069762254,0.0013171638414661,0.0074599563218068,-0.0001361973722014,2.6943355086550545e-05
6.122,-0.018242971562191,0.2175490053047393,0.2175128055003436,-0.0039685201840478,0.0917073367157092,-0.1955267232809235,2.729676485085597,0.0072433671134668,-0.0001210819871466,0.0030538543126331
6.156,-0.0151891172495579,0.2174793928358533,0.2174543060607968,-0.003303192980847,0.0922169605218675,-0.0020904645311122,0.0153040182029513,0.0072413860335543,-9.886815758315252e-05,0.0030708247853781
6.189,-0.0121182924641797,0.2242350539460944,0.2242185893510238,-0.0027172794565215,0.0948177450335541,0.2028727060132484,0.0781016369875853,0.0074666095757365,-7.868778407962127e-05,0.0031574309096173
6.222,-0.0089608615545623,0.217816314693076,0.2178075697489474,-0.0019517957194751,0.0838977719816722,-0.1927549325230756,-0.3279271186751329,0.007253073502122,-5.4853281641059376e-05,0.0027937958069896
6.255,-0.0061670657475726,0.2180002380720302,0.2179960925163489,-0.0013444132791944,0.0834578446939044,0.0055232245932176,-0.0132110296626975,0.00725932279243,-3.467186796886097e-05,0.002779146228307
6.289,-0.0033879195192656,0.2247919764801212,0.2247906864003518,-0.0007615756679952,0.0857087258203019,0.2039561083510826,0.0675940278197451,0.007485555904781,-1.4668154147085547e-05,0.002854100569816
6.322,-0.0005338189494496,0.2067578790926637,0.2067578496335257,-0.0001103712685657,-0.0342527810220717,-0.5415644861098351,-3.602447652924133,0.0068850328140006,-7.592705117496488e-06,-0.0011406176080349
6.356,-0.0016744365574846,0.2069810800027958,0.2069807898425262,-0.0003465765251126,0.0735231231413172,0.0067027300339957,3.236513638540208,0.0068924675480656,-3.094252999246932e-06,0.0024483200006058
6.389,0.0007738834431212,0.21342367347126,0.2134236095620155,0.0001651650307834,0.0763678163874507,0.1934712753292571,0.0854262236076129,0.0071069915252196,1.4546266787891898e-05,0.0025430482857021
6.422,0.0033169317288233,0.207094381722602,0.2070932424937153,0.0006869166660148,0.0650852261680125,-0.1900688212810213,-0.338816523106253,0.0068961747470737,3.035677655162508e-05,0.0021673380313948
6.455,0.0054842697602181,0.2069309216787534,0.206927809733663,0.0011348593072957,0.064729128191573,-0.0049087100254833,-0.0106936329261089,0.0068906499388922,4.522642278672866e-05,0.0021554799687793
6.49,0.0076397497289975,0.2129758443761057,0.2129696291561307,0.0016270663217495,0.0666608572600659,0.1815292101306995,0.0580098819367216,0.0070918226072437,6.20621029222626e-05,0.0022198065467601
6.523,0.0098595562757577,0.2176697458667095,0.2176591660219137,0.0021460923379316,-0.0312799403962495,0.140958002720835,-2.941165094784248,0.0072480860465745,6.769973966173818e-05,-0.0010416220151951
6.556,0.0088179342605626,0.2178073822180872,0.217798914361403,0.0019205862881319,0.0684439853718297,0.0041332237650944,2.994712485527907,0.0072526245887187,7.223033814732232e-05,0.0022791847128819
6.59,0.0110971189734445,0.2242113203454334,0.2241975151179278,0.0024880486307727,0.0720624342732808,0.1923104542746611,0.1086621291727045,0.0074656705557164,9.181970444174404e-05,0.0023996790613002
6.623,0.0134967980347448,0.2174145639458142,0.2173947617412436,0.0029343113700625,0.063367557953267,-0.2041067987873629,-0.2611073969974121,0.0072391369584847,0.0001053601326403,0.0021101396798437
6.655,0.0156069377145886,0.2175607846808302,0.2175342888708898,0.0033953197750464,0.0635927816707808,0.0043910130635433,0.0067634750004155,0.0072437665285257,0.0001207437732613,0.002117639629637
6.689,0.0177245773442256,0.2243300388145107,0.224294801902519,0.0039759469349634,0.0652642579692963,0.203280904915329,0.0501944834389045,0.0074688669635017,0.0001405251704219,0.0021732997903775
6.722,0.0198978771346031,0.217908009901473,0.2178648736542666,0.0043356206973071,0.0513526170334213,-0.1928537211122423,-0.4177669950713221,0.0072547731098091,0.0001505889407019,0.0017100421472129
6.755,0.0216079192818161,0.2180912768350299,0.2180403651701469,0.0047121320018306,0.0506948467162084,0.0055035115182264,-0.0197528623787665,0.0072606080461598,0.0001630522487386,0.0016881383956497
6.79,0.0232960576774658,0.224884304691133,0.2248232843860474,0.005238443880087,0.0518284446059321,0.2039948305136052,0.0340419786703821,0.0074864608781965,0.0001809106819615,0.0017258872053775
6.822,0.0250219448828434,0.2184373923973065,0.2183690143877318,0.0054651580640857,0.0421112220004398,-0.1936009697845792,-0.2918084866514198,0.0072715579419707,0.0001870980339258,0.0014023036926146
6.855,0.026424248575458,0.2185799490517837,0.2185036427603829,0.0057751387795744,0.0413870707941891,0.004280980614932,-0.0217462824699915,0.0072760362140509,0.0001973358102769,0.0013781894574464
6.89,0.0278024380329045,0.2251920483449151,0.225105019976129,0.0062600814152206,0.0422869882942597,0.1985615403342751,0.0270245495516687,0.007495847627966,0.0002137484854511,0.0014081567101988
6.923,0.0292105947431033,0.2184613231577179,0.2183681277564865,0.0063804777209599,0.0474853105343462,-0.202123879495412,0.1561057729755709,0.007271487345526,0.0002182287860918,0.0015812608407937
6.956,0.0307918555838971,0.2182324152491531,0.2181289661599411,0.0067187191840464,0.0478810284427615,-0.0068741113683125,0.0118834206731316,0.0072635128224956,0.0002295337714936,0.0015944382471439
6.99,0.032386293831041,0.2245758764463567,0.2244581110628015,0.0072719089493999,0.0500448273326041,0.1904943302463554,0.0649789456409198,0.0074742495305053,0.0002483925628119,0.0016664927501757
7.022,0.0340527865812168,0.2175971292763829,0.2174709794923118,0.007408356631359,0.037208635782679,-0.2095719870863,-0.3854712177154689,0.0072416285910766,0.0002511944023837,0.0012390475715632
7.055,0.03529183415278,0.2173639077958634,0.2172285569981007,0.0076695786593204,0.0390047190336465,-0.00700364806365,0.053936433962989,0.0072335427024719,0.000260104397641,0.0012988571438204
7.089,0.0365906912966004,0.2239886418260011,0.223838711745681,0.0081940704836216,0.0408919399059277,0.1989409618659967,0.056673299467902,0.0074536406453899,0.0002779474255057,0.0013617015988673
7.122,0.0379523928954678,0.2065940054313816,0.2064452359267446,0.0078388547207159,-0.037174561832299,-0.5223614532918767,-2.344339391538342,0.0068747858239942,0.0002567879417208,-0.0012379129090155
7.156,0.0367144799864522,0.2062573328010061,0.2061183358160538,0.0075709295734051,0.0329606986024639,-0.0101102892004649,2.1061639770199108,0.0068636005026988,0.0002558879196145,0.001097591263462
7.189,0.0378120712499143,0.2126191942968872,0.2124672159688179,0.0080376564941006,0.0346087242004068,0.1910468917682006,0.0494902581964843,0.0070750021287148,0.000271740366317,0.0011524705158735
7.222,0.0389645417657878,0.2065454071731584,0.206388634723139,0.0080459108523853,0.0371739771440893,-0.1823960097215831,0.0770346229334064,0.006872573581524,0.000272191860269,0.0012378934388981
7.255,0.040202435204686,0.2067191256400936,0.2065520947133633,0.0083083737835151,0.0369022219618961,0.0052167707788332,-0.0081608162820779,0.0068780126539348,0.0002809041291714,0.0012288439913311
7.29,0.0414312791960172,0.2131611970321939,0.2129782721792319,0.0088290146532218,0.0376374938920841,0.193455597360369,0.0220802381437849,0.0070919899625119,0.000298460055941,0.0012533285466064
7.322,0.0426846077426236,0.2182181711679652,0.2180194072425573,0.0093117288134548,0.1056441557322677,0.1518610851582973,2.04224209730281,0.0072594854287635,0.0003228599150545,0.0035179503858845
7.355,0.0462025581285081,0.2186411429206083,0.2184078203892294,0.0100981864934246,0.1054787996598095,0.0127018544337286,-0.0049656478215683,0.0072723744315731,0.0003490516483582,0.0035124440286716
7.389,0.0497150021571797,0.2252439270902504,0.2249656300620386,0.0111933900954121,0.1080823285750533,0.1982818068961593,0.0781840515088242,0.0074906680172743,0.000386230363022,0.0035991415415492
7.422,0.053314143698729,0.2183434529610573,0.2180332169679253,0.0116352803823148,0.0956454281915293,-0.2072214453211154,-0.3734804919977186,0.0072598762935213,0.0003990262591854,0.0031849927587779
7.455,0.0564991364575069,0.2180952329476096,0.2177472289230072,0.0123156376539583,0.0956164030192256,-0.0074540544578899,-0.0008716267959061,0.0072503170035305,0.0004216634354623,0.0031840262205402
7.489,0.0596831626780472,0.2243751522784342,0.2239756497770686,0.0133834699129354,0.0974502930723505,0.1885861660908283,0.0550717733671148,0.0074576523127225,0.0004577803684351,0.0032450947593092
7.523,0.0629282574373565,0.2175154825966811,0.2170849477875223,0.0136788381581109,0.0808334985124954,-0.2059960865391308,-0.4990028396352902,0.0072283063523431,0.0004652437242532,0.002691755500466
7.555,0.0656200129378225,0.2173714147312024,0.2169035834952881,0.0142536805473876,0.0830145257633501,-0.0043263623266864,0.0654963138394809,0.0072222234261167,0.0004846400771101,0.0027643837079195
7.59,0.0683843966457421,0.2240500423026369,0.2235263697382126,0.0153095880894705,0.0862873671050972,0.2005593865295629,0.09828352377619,0.0074426847355597,0.0005205124367895,0.0028733693245997
7.621,0.0712577659703419,0.2176583688163466,0.2171060040039113,0.0154967267913706,0.1517608459788348,-0.1919421467354452,1.9661705367488744,0.007228294503063,0.0005343164415277,0.0050536361710951
7.656,0.076311402141437,0.2177650241313808,0.2171312620789262,0.0166018301085615,0.1526880112219782,0.0032028623133402,0.0278428000943972,0.0072290336456908,0.0005712299410322,0.0050845107736918
7.69,0.0813959129151289,0.2245562815939604,0.2238128164386157,0.0182577874103232,0.1570774466744796,0.203941665542932,0.1318148784534953,0.0074513418767868,0.0006274835571705,0.0052306789742601
7.722,0.0866265918893891,0.1954603374985865,0.1947274125523911,0.0169108939950615,-0.0480721908360757,-0.8737520749361527,-6.160649775091753,0.0064848700511093,0.0005579511017101,-0.0016008039548413
7.755,0.0850257879345478,0.2066608022388288,0.2059142369567495,0.017550333344865,0.1449159654074779,0.3363502924997664,5.795440127434044,0.0068555065393002,0.0006009777972759,0.004825701648069
7.789,0.0898514895826168,0.2132621704889142,0.2124018858065343,0.0191361508007915,0.1504742377842322,0.1982392867893519,0.1669150863890204,0.0070713557992208,0.0006549612454047,0.0050107921182149
7.823,0.0948622817008318,0.2182269908097473,0.2172458306674442,0.0206704759376673,0.1264324931047173,0.1490937033283227,-0.7219743147001477,0.0072328148479753,0.0007035634170212,0.004210202020387
7.855,0.0990724837212188,0.2185889933505573,0.2175171060210493,0.0216207447197724,0.1248199883126146,0.0108709471714717,-0.048423567330411,0.0072418015068504,0.0007350318870267,0.00415650561081
7.89,0.1032289893320289,0.2250718400153874,0.2238736965578146,0.0231926962091881,0.1259535936353875,0.1946800800249269,0.0340422018850717,0.0074533515343285,0.0007879585859572,0.0041942546680584
7.923,0.1074232440000873,0.218189564402637,0.216931847700649,0.0233935774817559,0.098923550612238,-0.2066749433258369,-0.8117130036981848,0.0072225333185722,0.0007909126238479,0.0032941542353875
7.955,0.1107173982354749,0.2178480280082877,0.2165141635790964,0.0240703194150804,0.0970503244152853,-0.0102563481786578,-0.0562530389475271,0.0072086128033949,0.0008132003449568,0.003231775803029
7.989,0.1139491740385039,0.2243255428565312,0.2228707501257473,0.0255064289202563,0.1016231080763142,0.1945199654127158,0.13732083066153,0.0074201435119593,0.000861929947002,0.0033840494989412
8.022,0.1173332235374451,0.1727844297952791,0.171596424685595,0.0202268686355711,-0.0413978189019183,-1.5477811730105713,-4.294922732079057,0.0057146224956489,0.0006696235727779,-0.0013785473694338
8.056,0.1159546761680112,0.1944718547275679,0.1931659345494746,0.022499422454996,0.1000185732817264,0.6512740219906541,4.246738504013354,0.0064311650068303,0.0007599499942564,0.0033306184902814
8.089,0.1192852946582927,0.2004305794330072,0.1990063079573405,0.0238517623046847,0.1120294725868495,0.1789406818450245,0.3606876668205134,0.0066254120685072,0.0008066318467373,0.003730581437142
8.122,0.1230158760954348,0.2180718141910634,0.2164238638464444,0.0267586864841562,0.073218709719962,0.5297668095512366,-1.165488374381006,0.0072058200277699,0.0008998589461713,0.0024381830336747
8.155,0.1254540591291096,0.2178285472360799,0.2161166229354955,0.0272558485822389,0.0838531932882268,-0.0073053139634701,0.3193538609088543,0.0071954057806275,0.0009176759332603,0.0027923113364979
8.19,0.1282463704656075,0.2245790024711592,0.222734692155354,0.0287225566654605,0.0875235484336416,0.2027163734258049,0.1102208752376801,0.0074156596296569,0.0009672783871856,0.0029145341628402
8.223,0.1311609046284478,0.2068072763048667,0.2050309533309051,0.02704732350636,0.0662366242133359,-0.5336854704592324,-0.6392469735827517,0.0068265306884431,0.0009082139871492,0.002205679586304
8.255,0.1333665842147519,0.2068498582393124,0.2050130007105936,0.0275051521221348,0.0779089779370445,0.0012787367701411,0.3505211328441022,0.006825735903748,0.0009247854987573,0.0025943689653035
8.29,0.1359609531800555,0.2132506432820524,0.2112826679781455,0.0289045164679473,0.0796267740613288,0.1922157670492475,0.0515854691977262,0.0070344271978623,0.0009718565676964,0.0026515715762422
8.323,0.1386125247562977,0.19500856111265,0.1931381668501481,0.0269441535957337,0.0460518084724755,-0.5478102753574278,-1.0082572248904895,0.0064308092525299,0.0009021800398439,0.0015335252221334
8.356,0.1401460499784312,0.1954997085376383,0.1935829522476027,0.02730891131854,0.0580483327099639,0.0147491719215711,0.3602559831077586,0.0064454281384169,0.0009156252329719,0.0019330094792417
8.389,0.142079059457673,0.2012844245002657,0.1992562298806757,0.0285021823750822,0.0586364341965963,0.1737151940728929,0.0176607053042784,0.0066343003294119,0.0009556089397859,0.0019525932587466
8.422,0.1440316527164197,0.2058025276285539,0.2036715167032187,0.0295396963781313,0.0426944480100892,0.1356787726212666,-0.4787383239191327,0.0067815586374027,0.0009885019276708,0.0014217251187359
8.455,0.1454533778351556,0.2064928685897351,0.2043123647121522,0.0299292900708672,0.0469317649889013,0.0207309597952329,0.1272467561204832,0.0068028188363104,0.0010019705247334,0.0015628277741304
8.49,0.147016205609286,0.2125551605956904,0.2102622363417342,0.0311366065015513,0.0489197013280838,0.1820508109896483,0.0596977879634373,0.0070008834453327,0.0010425609484478,0.0016290260542251
8.522,0.1486452316635113,0.1945300512201307,0.1923848953052317,0.0288095971180039,0.0379396991878391,-0.5412945758426346,-0.3297297940013429,0.006405807991,0.0009634148459002,0.001263391982955
8.555,0.1499086236464663,0.1947134426549195,0.1925296786125676,0.0290800206993061,0.0442018445793538,0.0055072502939594,0.1880524141596028,0.0064105219966433,0.0009730913742826,0.0014719214244924
8.59,0.1513805450709587,0.2004844349967517,0.1981916608501777,0.0302336608007513,0.0486326622418743,0.1733030733282944,0.1330575874630774,0.0065989628367433,0.0010121333996857,0.0016194676526544
8.622,0.1530000127236132,0.2179720973047216,0.2154258154468683,0.0332197718606078,0.0244355858956151,0.5251550242633599,-0.7266389293170936,0.0071732273043094,0.0011091465513826,0.0008137050103239
8.656,0.1538137177339372,0.2178269435213613,0.215255272942621,0.0333728151982423,0.0360265251864466,-0.0043589724732831,0.3480762549799267,0.0071673307573536,0.0011156237774668,0.0011996832887086
8.689,0.1550134010226458,0.2245486239057921,0.2218561650607979,0.0346688119568708,0.0386518582868786,0.2018522637967224,0.0788388318448038,0.0073870637346779,0.0011592354980095,0.001287106880953
8.722,0.1563005079035989,0.2066987340703981,0.2041790605386202,0.0321757347060113,0.0068974899810064,-0.5360327277896115,-0.9535846338099772,0.00679903816604,0.0010722419321399,0.0002296864163675
8.755,0.1565301943199664,0.2068103709265343,0.2042819368235195,0.0322400342804139,0.0201858258605079,0.0033524581422287,0.3990491255105577,0.0068022257097131,0.0010758885122653,0.0006721880011549
8.789,0.1572023823211213,0.2131774186234585,0.2105487557750048,0.0333741404767025,0.0196642319271779,0.1912026335412689,-0.0156634814813818,0.007010907700046,0.0011136637786291,0.000654818923175
8.822,0.1578572012442963,0.1949678531995595,0.1925437015824829,0.0306494169954462,-0.0034726291925467,-0.5468337965134854,-0.6948006342259685,0.0064117628889683,0.0010202634811944,-0.0001156385521118
8.855,0.1577415626921845,0.1955014361432953,0.1930742028343195,0.0307109709059,0.0099585924363893,0.0160235118239,0.4033399888569401,0.006429199890211,0.0010237500111518,0.0003316211281317
8.889,0.1580731838203163,0.2013220701646974,0.1988120726559079,0.0316912559180184,0.0081588437470465,0.1747938144565193,-0.0540465071874708,0.0066202971588669,0.0010562270593213,0.0002716894967766
8.923,0.1583448733170929,0.2057971737840004,0.2032225735221767,0.0324509221518518,-0.0092511757888103,0.1343874960751653,-0.5228234094851921,0.0067674765897304,0.0010795824032697,-0.0003080641537673
8.956,0.1580368091633255,0.2065266693873212,0.2039529655851809,0.0325031228842687,-0.0046109755188893,0.0219067748744961,0.13934535345108,0.0067917153685505,0.0010818417038041,-0.000153545484779
8.989,0.1578832636785465,0.2125916971684067,0.2099475467106751,0.0334253995505282,-0.0044108761512033,0.1821329663989656,0.0060089900206006,0.0069913335297661,0.0011125617524226,-0.000146882175835
9.022,0.1577363815027115,0.1721116767598733,0.1699749773213311,0.0270358347699507,-0.0081700349155389,-1.2156162284844874,-0.1128876505806483,0.0056602879338423,0.0008995309358031,-0.0002720621626874
9.055,0.157464319340024,0.1605883042164858,0.1586015200514295,0.025182559212729,0.0252509970132734,-0.3460472235251494,1.0036345924568284,0.0052810763021846,0.000840806687947,0.000840858200542
9.089,0.1583051775405661,0.1654382587163821,0.1633695991173825,0.0260804818079398,0.025795516226068,0.1456442792761637,0.0163519283121499,0.0054398328030534,0.0008708237924862,0.000858990690328
9.123,0.1591641682308941,0.2058009321125239,0.2031996292673386,0.0326180061315802,-0.0081353993878838,1.2120922941784325,-1.0189464148333889,0.0067666932409943,0.0010852721269745,-0.0002709087996165
9.156,0.1588932594312776,0.2179967809928753,0.2152506761198402,0.0344926507129748,-0.0002505794453614,0.3662417081186618,0.2367813796553252,0.0071678507631156,0.0011485849972507,-8.344295530537948e-06
9.189,0.158884915135747,0.2245570534342485,0.2217286052971883,0.035528802963731,0.0018505461398089,0.1970051784196162,0.0630968644195342,0.007383524507787,0.0011833465610311,6.162318645563936e-05
9.222,0.1589465383222027,0.2067802808510175,0.2041737267365967,0.0327287925123304,0.0151826944717073,-0.5338370145114435,0.4003648147717221,0.006798707833573,0.0010915966100534,0.0005055837259078
9.256,0.1594521220481105,0.2067269298918332,0.2041044793260782,0.0328235443170512,0.0203402687378658,-0.0016021309064336,0.1548821100948506,0.0067963070002085,0.0010953348771911,0.0006773309489709
9.289,0.1601294529970815,0.2131147274887489,0.210388276378295,0.0339802918641653,0.0199823633970301,0.1918257536611324,-0.0107479081332045,0.0070055510906413,0.0011338839685158,0.0006654127011211
9.322,0.1607948656982026,0.1951683739879094,0.1926507673332927,0.0312470166732441,-0.0071513055999152,-0.538929534559744,-0.814824894803166,0.0064153929886711,0.001039770406572,-0.0002381384764771
9.355,0.1605567272217254,0.1954889629957566,0.1929746687185984,0.0312523900862559,-0.00094682801263,0.0096272975329482,0.1863206482668221,0.0064260714750278,0.0010406119218451,-3.1529372820582324e-05
9.389,0.1605251978489048,0.2013749786355221,0.1987859959155069,0.0321871068649706,-0.0031619848541099,0.1767572264193822,-0.0665212264708663,0.0066196286403513,0.0010714910526714,-0.0001052940956418
9.422,0.1604199037532629,0.2182223780726017,0.2154204677752114,0.0348572568509142,0.1924995705191505,0.5059279110234133,5.8757223835813965,0.0071697305410772,0.0011837401793907,0.0064102356982877
9.456,0.1668301394515506,0.2182464808001279,0.21521636824172,0.0362414296418475,0.1922617175214045,0.0007238056314167,-0.0071427326650461,0.0071627911789864,0.0012297826635212,0.0064023151934627
9.489,0.1732324546450134,0.2247244547142486,0.2213609463891658,0.0387351514816871,0.1997843192782311,0.1945337511747972,0.2259039566614583,0.0073669727182095,0.0013144008633872,0.006652817831965
9.522,0.1798852724769785,0.2063802367544236,0.2030501318822002,0.0369248705540461,0.2112763149571444,-0.5508774162109608,0.3451049753427423,0.0067571865242339,0.0012533825445579,0.0070355012880729
9.555,0.1869207737650514,0.2063781829350558,0.2027833057116236,0.0383521227084178,0.2135779804820642,-6.167625729372253e-05,0.0691190848324267,0.0067480838699703,0.0013011369280457,0.0071121467500527
9.589,0.1940329205151041,0.2123887871707228,0.2084032262846318,0.0409523160518079,0.2246101195500089,0.180498625695707,0.3312954675058485,0.0069346609314846,0.001389661887556,0.0074795169810153
9.623,0.2015124374961195,0.1835701819713815,0.1798556360488274,0.0367418275331786,-0.0126855927435307,-0.8654235795598001,-7.125997366172363,0.0059894492818534,0.0012222458625115,-0.0004224302383595
9.655,0.2010900072577599,0.1947333667374172,0.1908093812535377,0.0388955543286316,0.2144240635924359,0.3352307737548283,6.820109799878878,0.00634927250188,0.0013179040213806,0.0071403213176281
9.689,0.208230328575388,0.2007875110557804,0.1964501571876536,0.0415085573938838,0.2223697974302594,0.1818061356865819,0.2386106257604659,0.0065366109178255,0.0014064517019785,0.0074049142544276
9.722,0.2156352428298157,0.1836403963231485,0.1793874077228728,0.039293168772585,0.1876886248809509,-0.5149283703493068,-1.041476653132389,0.0059694710500347,0.0013271295592068,0.0062500312085356
9.756,0.2218852740383514,0.1836830206523701,0.1791799014703737,0.0404229512164337,0.1894489005704139,0.0012800098865341,0.0528611318157071,0.0059624033343446,0.0013649041749113,0.0063086483889947
9.79,0.2281939224273461,0.1893752252453998,0.1844659664157334,0.042840205077187,0.1944846278944669,0.1709370748657555,0.1512230427643525,0.0061380523097383,0.0014464681919492,0.0064763381088857
9.823,0.2346702605362319,0.1720222406796763,0.1673072944353638,0.0399990064523477,-0.0055539980375614,-0.5211106476193238,-6.007165943904756,0.005571454255801,0.0013314591917264,-0.0001849481346507
9.856,0.2344853124015811,0.1722686322031077,0.1675543381017969,0.0400253097976559,0.1985100535079444,0.0073991448477896,6.128049595961137,0.0055751117216351,0.0013512820528703,0.0066103847818145
9.89,0.2410956971833956,0.177551091056001,0.1724157705043583,0.0423933015530145,0.2018684458971069,0.1586323979847854,0.1008526242991757,0.0057366551433164,0.0014309915739402,0.0067222192483736
9.923,0.2478179164317693,0.1605980115078554,0.155691737545079,0.039392945567341,0.20292523911009,-0.5091014879323017,0.0317355319214128,0.0051800614988866,0.001329299014783,0.0067574104623659
9.955,0.2545753268941353,0.1608723449760853,0.1556874824286186,0.0405131977649651,0.1973813392228884,0.0082382422891882,-0.1664834800961419,0.0051799203689688,0.0013661246585234,0.0065727985961221
9.99,0.2611481254902575,0.1655608894787356,0.159947411847273,0.0427461526730648,0.2004213232357131,0.1407971322117207,0.0912908111959355,0.005321457290636,0.0014412171753283,0.0066740300637492
10.023,0.2678221555540067,0.14942960202914,0.1441023634813199,0.0395438339274876,0.1672387579747465,-0.484423046534405,-0.9964734312602584,0.0047949154315054,0.0013301711206092,0.005569050640559
10.056,0.2733912061945658,0.1492595490764144,0.1437161710683448,0.0402998159294656,0.1657915784548988,-0.0051066952770449,-0.0434588444398712,0.0047820179208315,0.0013551941695635,0.0055208595625481
10.089,0.2789120657571139,0.1537564345327514,0.1478145980379021,0.0423306717064318,0.172317027536572,0.1350416052954079,0.1959594318820784,0.0049181529146687,0.0014237324568708,0.0057381570169678
10.123,0.2846502227740818,0.1488818146310648,0.1428908009450426,0.0418092541565018,0.1914873313699331,-0.1463849820326309,0.5756847998006354,0.004753790694907,0.001407415667583,0.0063765281346187
10.156,0.2910267509087005,0.1378210142572661,0.132025608737832,0.039545803927932,0.1563601014714734,-0.3321561673813438,-1.054871768722516,0.0043930027808883,0.001328320905295,0.005206791379
10.189,0.2962335422877006,0.1418508433384586,0.1356722141769394,0.0414090818077221,0.1629325373617207,0.1210158883240993,0.1973704471545738,0.0045141199278346,0.0013911779344633,0.0054256534941453
10.222,0.3016591957818459,0.1373869057184551,0.1311831791742851,0.0408183214331395,0.1977539353102493,-0.1340521807808848,1.045687626081942,0.0043638909929675,0.0013736294996611,0.0065852060458313
10.255,0.3082444018276772,0.1262778305804083,0.12032606123684,0.0383109577447829,0.1620207321774717,-0.3336058600014051,-1.0730691631464748,0.0040033951449439,0.0012865631388444,0.0053952903815098
10.289,0.3136396922091871,0.1297986817985471,0.1234667055458687,0.0400458539463229,0.1713632543118008,0.1057312678119752,0.2805562202501213,0.0041076123668783,0.0013452559449703,0.0057063963685829
10.322,0.3193460885777701,0.1260212159530165,0.1196496984311351,0.039563828626856,0.1478162968356629,-0.1134374127786974,-0.7071158401242591,0.0039810745976802,0.0013272815155448,0.0049222826846275
10.355,0.3242683712623976,0.126072375438464,0.1195019986457931,0.0401685967934887,0.1478151770836561,0.0015363208843087,-3.3626186391578326e-05,0.0039761066485364,0.0013474080285237,0.0049222453968857
10.39,0.3291906166592834,0.129950879400285,0.1229730770895798,0.0420101579148147,0.1524827345759024,0.1164715904450764,0.1401668916590476,0.0040914323068167,0.0014093342723623,0.0050776750613775
10.422,0.334268291720661,0.1147715080377943,0.1084189762167745,0.0376540124472276,0.1313495596503699,-0.4558369778525723,-0.634629877643619,0.003607596509581,0.001261775184525,0.0043739403363573
10.455,0.3386422320570183,0.114738659636204,0.1082222604097944,0.0381169564224023,0.1341963216832489,-0.0009864384861953,0.0854883493357067,0.0036009514928458,0.001277347471712,0.0044687375120521
10.489,0.3431109695690705,0.1182257497406374,0.1113346825446239,0.039773312213388,0.1371833889996675,0.1047174205535536,0.0897017212137708,0.0037044050639567,0.0013329198419735,0.0045682068536889
10.523,0.3476791764227595,0.1147172587723242,0.1078532648901932,0.0390860935981356,0.1156329612719915,-0.1053600891385331,-0.6471599918220999,0.0035889971978809,0.0013084832168243,0.0038505776103573
10.556,0.3515297540331167,0.1146917846277027,0.1076780453329419,0.0394923285507991,0.1136170123120375,-0.0007649893279723,-0.0605390078064271,0.0035831807864631,0.0013218793232983,0.0037834465099908
10.589,0.3553132005431076,0.1181503543889645,0.1107703970158032,0.041102620198708,0.1153638797943634,0.1038609537916447,0.0524584829527293,0.0036860142579893,0.0013758040302163,0.0038416171971523
10.622,0.35915481774026,0.1146479496263942,0.1073327483831762,0.0402968172198501,0.0904601296223132,-0.1051773201973066,-0.7478603655270316,0.0035721522129227,0.0013472700729538,0.003012322316423
10.655,0.362167140056683,0.1145433461813228,0.1071130566470463,0.0405828935654053,0.0875356925011349,-0.0031412445967376,-0.0878209345699199,0.0035648882741289,0.0013566118254695,0.0029149385602877
10.69,0.3650820786169708,0.1180544480490966,0.1102740059144462,0.0421485032208444,0.0891599806538432,0.1054384945277409,0.0487774220032515,0.003670033527711,0.0014089993427551,0.0029690273557729
10.722,0.3680511059727437,0.1376257569456317,0.1284090046953992,0.0495174362017567,0.3551383097055895,0.5877269938899439,7.987337208761151,0.004266167834851,0.0016741819607571,0.0118261057131961
10.755,0.3798772116859399,0.1145948465698647,0.1064253998142937,0.0424925068069485,0.2410547623141865,-0.6916189302032145,-3.4259323540961875,0.0035382466725931,0.0014292138858243,0.0080271235850624
10.79,0.3879043352710023,0.1181714519022508,0.109391759207528,0.0446982668810344,0.2469238908725333,0.1074055655371189,0.1762501068572633,0.0036365830992877,0.0015034166752088,0.0082225655660553
10.822,0.3961269008370577,0.1147504970203038,0.1058644867862351,0.044276257790082,0.1225525471637687,-0.1027313778362459,-3.734875186449389,0.0035222671256813,0.0014815933645715,0.0040809998205534
10.855,0.4002079006576112,0.1148605715481351,0.1057842907658767,0.0447508069594806,0.1207119011313683,0.0033055413763151,-0.0552746556276405,0.0035196103007747,0.0014972825222545,0.0040197063076745
10.889,0.4042276069652858,0.1184238239927237,0.1088796288344098,0.0465771243631544,0.1245223914256214,0.1070045779155741,0.1144291379655592,0.0036224634371557,0.001558535793067,0.0041465956344731
10.922,0.408374202599759,0.1149041637126324,0.1054553264275515,0.0456304828657115,0.0279093891274501,-0.1056955039066441,-2.9012913603054447,0.0035109537239044,0.0015211314184907,0.000929382657944
10.956,0.409303585257703,0.1149892864307159,0.1054909641387419,0.045762347830109,0.0271555788987181,0.0025562377802841,-0.0226369438057638,0.0035121575663145,0.0015254789963978,0.0009042807773273
10.989,0.4102078660350304,0.118473742865599,0.1086449177724821,0.0472473236363146,0.0291073371578253,0.1046383313778708,0.0586113591323479,0.0036171105813623,0.001575093849194,0.0009692743273555
11.022,0.4111771403623859,0.11498653193,0.1054025158451762,0.0459588095885464,0.0159583938855343,-0.104721049117088,-0.3948631613300591,0.0035094949083134,0.0015313656110638,0.0005314145163882
11.055,0.4117085548787743,0.1149659131634149,0.1053591819545909,0.0460065643941956,0.0170651902503628,-0.0006191821797306,0.033237128072925,0.0035080232090836,0.0015330201047397,0.000568270835337
11.089,0.4122768257141113,0.1184137586160431,0.1084919742801362,0.047447968832994,0.0190463931775191,0.1035389024813261,0.0594955833980874,0.0036122793172042,0.0015811678057286,0.0006342448928113
11.122,0.4129110706069227,0.1149299262018503,0.1052708196801729,0.0461187864175466,0.0117595388681818,-0.1046195920178008,-0.2188244537338507,0.0035052154454192,0.0015364466271935,0.0003915926443104
11.155,0.4133026632512332,0.1148485710859458,0.1051782468693927,0.0461273310084664,0.0134804279349728,-0.0024430965737078,0.0516783503540843,0.0035020886747033,0.0015368308965468,0.0004488982502345
11.189,0.4137515615014677,0.1182408377796892,0.1082635535139798,0.0475383918466791,0.0153776168991674,0.1018698706829837,0.0569726415674052,0.0036047687312015,0.001583956283944,0.0005120746427422
11.222,0.4142636361442099,0.1146416114824528,0.1049444176924213,0.0461450785944965,0.0990974771038453,-0.1080848737908824,2.514109916056392,0.0034921052959903,0.0015423990932625,0.003299945987558
11.255,0.4175635821317681,0.1146437585111122,0.1047935328540311,0.0464920083189069,0.1010687498534965,6.447533511634951e-05,0.0591973798694057,0.0034870106942448,0.0015540579572101,0.0033655893701214
11.289,0.4209291715018894,0.1180947951910095,0.1077862611710397,0.0482545599293465,0.1041802964297478,0.1036347351320509,0.0934398371246637,0.0035864858403045,0.0016131044129334,0.0034692038711106
11.323,0.4243983753730001,0.1146382085889119,0.1044682668200087,0.047204873647732,0.115947444355794,-0.1038013994623897,0.3533678055869714,0.0034757478884543,0.001578638947284,0.0038610498970479
11.355,0.4282594252700479,0.1148824066618421,0.1045073727471174,0.0477092905198969,-0.0391857757835236,0.0073332754633686,-4.6586552594389685,0.0034811289415656,0.0015864530380237,-0.0013048863335913
11.389,0.4269545389364567,0.1180102245166365,0.1074165760316862,0.0488681111165135,-0.0334296762083508,0.0939284641079393,0.1728558430982832,0.0035778748248555,0.0016253216157969,-0.001113208217738
11.423,0.4258413307187185,0.1145363712296514,0.1043073011424241,0.0473134997948806,-0.0493131094382205,-0.1043199185280802,-0.4769799768729644,0.0034747230705794,0.0015726915975218,-0.0016421265442927
11.456,0.4241992041744257,0.1145220969974012,0.1043718461375575,0.0471362751447353,-0.051385949958058,-0.0004286556231282,-0.0622474630581837,0.0034769216189538,0.0015666682449967,-0.0017111521336033
11.489,0.4224880520408223,0.11790058126292,0.1075337701355837,0.0483428934028761,-0.055198333271554,0.1014559839495144,-0.1144859853902701,0.0035823498766241,0.0016065312487726,-0.0018381044979427
11.522,0.4206499475428797,0.1145902626591821,0.1046007103597248,0.0467933722715226,-0.1587906085290432,-0.0994089670792166,-3.110879136861536,0.0034873050510396,0.0015490076284118,-0.0052877272640171
11.556,0.4153622202788625,0.1144460360274629,0.1047147144068849,0.0461814221206305,-0.1623503221727797,-0.0043311300816589,-0.1068983076197155,0.0034911379287418,0.0015284127562907,-0.0054062657283535
11.589,0.409955954550509,0.1179682223278715,0.1081931841820739,0.0470184684538102,-0.1682529783940028,0.1057713603726309,-0.1772569435802733,0.0036071982941286,0.0015556186624106,-0.0056028241805202
11.622,0.4043531303699887,0.1152018807845832,0.1059116651459983,0.0453232007067819,0.2029878656214382,-0.0830733196182687,11.148373694157389,0.0035217286396937,0.001521175670956,0.0067594959251938
11.655,0.4111126262951826,0.1145661678315844,0.1050201426191574,0.0457840196560612,0.0797376441693061,-0.019090479069033,-3.7012078514153774,0.0034951404677744,0.0015292537129257,0.0026552635508378
11.689,0.4137678898460205,0.1181939238263847,0.1082198222789199,0.0475212972823368,0.0810157919340744,0.1089416214654767,0.0383828157588094,0.0036015789786025,0.0015873232222721,0.0026978258714046
11.722,0.4164657157174251,0.0814419041620605,0.0744806065763892,0.0329457584152404,0.2040043148070351,-1.10366425418391,3.693349035224044,0.0024764571833442,0.0011055130526848,0.0067933436830742
11.755,0.4232590594004994,0.0480699739931171,0.0438280476925717,0.0197439771868946,0.2038985663589428,-1.0021600651334346,-0.00317562907184,0.0014572298251059,0.0006624261125849,0.0067898222597527
11.789,0.4300488816602522,0.0161491451564963,0.0146786907396741,0.0067328246267515,0.2018672083441279,-0.9585834485471736,-0.0610017421866347,0.0004880428531967,0.0002258449229648,0.0067221780378594
11.822,0.4367710596981117,6.564712091037481e-05,5.948431870692292e-05,2.776977334791534e-05,-0.0008262004241755,-0.4829879289965745,-6.086889152201306,1.9808392906953634e-06,9.247088659713096e-07,-2.7512474125046542e-05
11.855,0.4367435472239866,0.0002492484486576,0.0002258524726679,0.0001054298332921,-0.0048273215721298,0.0055135533858042,-0.1201537882268544,7.521164770870968e-06,3.5102190516763093e-06,-0.0001607498083519
11.889,0.4365827974156347,0.0001478563207221,0.0001339876786644,6.252034503755853e-05,-0.0050377977472011,-0.0030448086467107,-0.0063206058579979,4.461961511587144e-06,2.081559225114141e-06,-0.0001677586649817
11.922,0.4364150387506529,0.015488351650833,0.0140366721668132,0.0065468214685657,-0.2274365147149481,0.4606755354387646,-6.678640149181589,0.0004682419810313,0.000216237669605,-0.0075736359400077
11.955,0.4288414028106451,0.0156685699531544,0.0142497515627108,0.0065152639837472,-0.6422317611420688,0.0054119610306715,-12.456313706520142,0.0004768001521607,0.0002118685040091,-0.0213863176460308
11.989,0.4074550851646141,0.0161443593599681,0.0148226574458184,0.0063975905923802,-1.087109253480909,0.0142879701745864,-13.359684454619826,0.0004973420943265,0.0002040606401739,-0.0362007381409142
12.023,0.3712543470236999,0.0001650653577674,0.0001538199536099,5.9883171311612535e-05,-1.3597030489818025,-0.4798586787447652,-8.185999864891695,5.165588979420185e-06,1.8774931983493656e-06,-0.045278111531094
12.056,0.3259762354926059,0.000289910015084,0.0002746429345731,9.283897530163074e-05,-1.3641636911640738,0.0037490888083053,-0.1339532186868248,9.21266775231489e-06,2.8827956057775244e-06,-0.0454266509157636
12.09,0.2805495845768422,0.0001469924894305,0.0001412455846874,4.069983728816516e-05,-1.4062438431481,-0.0042918175871923,-1.2636682277485396,4.733484727648596e-06,1.2447087450502991e-06,-0.0468279199768317
12.123,0.2337216646000104,0.0156733890779472,0.0152472484067309,0.0036299505798505,-0.6339936052453177,0.4662581558113129,23.19069783491839,0.0005089714332309,0.0001155096279751,-0.021111987054669
12.155,0.2126096775453414,0.0156732213299106,0.0153203163675596,0.0033072304507322,-0.216948633767493,-5.037478575437899e-06,12.523873017352091,0.0005105597638303,0.0001082876893729,-0.0072243895044575
12.189,0.2053852880408838,1.2640504519777505e-06,1.2374832461452649e-06,2.5779596710370185e-07,2.904948489965017e-06,-0.4706293477314927,6.51506122270219,4.120818014046351e-08,8.584663047470117e-09,9.673478471583508e-08
12.223,0.2053853847756686,1.2544808140828249e-06,1.2281147135584806e-06,2.5584441217872693e-07,2.1601649198128408e-06,-2.873765133611299e-07,-2.2365872977542827e-05,4.0896208200931466e-08,8.51967537140768e-09,7.19334918297676e-08
12.255,0.2053854567091604,-0.0001404862666152,-0.0001375335888446,-2.8651405672201744e-05,-0.0017695040583829,-0.0042564789017816,-0.0532031298289113,-4.579895333399674e-06,-9.539630307109989e-07,-5.892448514415171e-05
12.289,0.2053265322240162,-0.0001364830738884,-0.000133616173369,-2.7827103195529422e-05,-0.0034283744728661,0.0001202159978023,-0.0498159283628591,-4.449470213426439e-06,-9.263945310263412e-07,-0.0001141648699464
12.322,0.2052123673540697,0.0493648263550815,0.0483290403102389,0.0100593212374719,-0.2169281827768303,1.4865258086777775,-6.411405654773698,0.0016105524804414,0.0003291619108016,-0.0072237084864684
12.355,0.1979886588676014,0.082727587793409,0.0811114371036159,0.0162723247602286,-0.2169149235623712,1.0018847278777017,0.0003981746083815,0.002702943674226,0.0005321123165344,-0.0072232669546269
12.389,0.1907653919129744,0.1105882981761067,0.1085821596982277,0.0209686978316742,-0.3320188582279171,0.8366579694503806,-3.45657461458096,0.0036195713495707,0.0006782600037819,-0.0110562279789896
12.422,0.1797091639339847,0.1376946316443461,0.1354771586640113,0.024612010563919,-0.2961471450062756,0.8140040080552381,1.0772286252745211,0.0045153563808002,0.0007973279323226,-0.0098616999287089
12.455,0.1698474640052757,0.1376953281713793,0.1357139697619362,0.0232749180810609,-0.2961424005034749,2.091672772340368e-05,0.0001424775615806,0.0045230225183573,0.0007527649586153,-0.0098615419367657
12.489,0.15998592206851,0.1418673295828926,0.1400556165600857,0.0226000768351635,-0.3051076412133918,0.1252853276730713,-0.2692264477452519,0.0046675939310198,0.0007288835228279,-0.0101600844524059
12.522,0.1498258376161041,0.1146641117445975,0.1133795399564346,0.0171154445295701,0.0557772106852336,-0.8169134485974496,10.837382939898662,0.0037750064372149,0.0005734553550132,0.0018573811158182
12.555,0.1516832187319224,0.1146374612576858,0.1133212100095204,0.0173219769537308,0.0554567842885262,-0.0008003149222731,-0.0096224143155352,0.003773060757047,0.0005803109455977,0.0018467109168079
12.589,0.1535299296487303,0.1181366737722354,0.1167470808336867,0.0180663445882162,0.0574615003925696,0.10508145689338,0.0602016848061056,0.0038870990259462,0.0006053336044129,0.0019134679630725
12.622,0.1554433976118029,0.1147025922328548,0.113319621000684,0.0177580449711639,0.1478901707576576,-0.1031255717531703,2.71557568663928,0.0037720712158525,0.0006006374233501,0.00492474268623
12.656,0.1603681402980328,0.1144133101525158,0.1129452232032222,0.0182697043115121,0.1535454649302546,-0.0086871495597285,0.1698286538317408,0.0037595033716822,0.000617998845642,0.0051130639821774
12.689,0.1654812042802103,0.1180348900246607,0.116422439260858,0.0194435310498266,0.1575191109815046,0.1087561523166619,0.1193287102477477,0.0038751504552674,0.0006576396332344,0.0052453863956841
12.722,0.1707265906758944,0.1039111331878131,0.1024004295366953,0.0176543374578523,-0.2950463826162164,-0.4241368419473755,-13.590555363294929,0.0034127666719218,0.0005711333225318,-0.00982504454112
12.755,0.1609015461347744,0.0706682814263317,0.0697554768654538,0.0113216362344125,-0.2965667548721044,-0.9982838366811204,-0.0456568245011385,0.0023246807318804,0.0003655376862074,-0.009875672937241
12.789,0.1510258731975333,0.0387869264973257,0.038345424729552,0.0058355864674607,-0.3056984062960667,-0.957398045916096,-0.2742237664853568,0.0012778694197122,0.0001878241675181,-0.010179756929659
12.822,0.1408461162678743,0.0138367031444208,0.0136996861887893,0.0019424088744437,-0.1729553465133747,-0.7492559565436929,3.9862780715523134,0.0004563832081169,6.336875413689073e-05,-0.0057594130388953
12.855,0.1350867032289789,0.0002566876219371,0.0002543491099309,3.456971988728402e-05,0.0020395976121156,-0.4078082739484588,5.255103427191903,8.469784713583383e-06,1.1514706844565174e-06,6.7918600483452e-05
12.889,0.1351546218294624,3.526533821191397e-05,3.494373626899097e-05,4.751775958931977e-06,0.0016901785538875,-0.0066493178295859,-0.010493064811656,1.163621751483006e-06,1.5826844946432285e-07,5.628294584445471e-05
12.922,0.1352109047753069,2.45965402667236e-05,2.437204576028824e-05,3.315596258740059e-06,0.0016336514659801,-0.0003203843226783,-0.0016975101473689,8.115859718248945e-07,1.104325216335135e-07,5.440059381713879e-05
12.955,0.1352653053691239,2.693843918159637e-05,2.669237240101386e-05,3.6327346649816976e-06,0.0016545472995441,7.032729474092396e-05,0.0006275025094282,8.888525053722698e-07,1.2099574533262066e-07,5.509642507481872e-05
12.989,0.1353204017941988,3.0030910105418663e-05,2.9756372251094893e-05,4.051403733770095e-06,0.0017203255915465,9.286699470937818e-05,0.0019753240841579,9.90883149719424e-07,1.3494145844853506e-07,5.728684219850066e-05
13.022,0.1353776886363973,3.115081948610541e-05,3.086580279853166e-05,4.204256445327687e-06,0.0016829274858492,3.363091233293537e-05,-0.0011230662371572,1.0278271214922351e-06,1.4003192159175521e-07,5.60414852787794e-05
13.055,0.1354337301216761,3.293475185049775e-05,3.2633163787066426e-05,4.446852898439613e-06,0.0016947799537572,5.357154247424433e-05,0.0003559299672083,1.0866799759242184e-06,1.481123261386998e-07,5.643617246011701e-05
13.089,0.1354901662941361,3.5616236470912e-05,3.5289822230598895e-05,4.8108988021626e-06,0.0017575004262246,8.05250636761036e-05,0.001883497671692,1.1751461763221544e-06,1.6023889718519174e-07,5.852476419327956e-05
13.122,0.1355486910583294,3.60397181128977e-05,3.5709137799579364e-05,4.870190886174605e-06,0.0017159296615161,1.2717166425996994e-05,-0.0012483713125658,1.1891094366143772e-06,1.6221292790403689e-07,5.714045772848841e-05
13.155,0.1356058315160579,3.734466583258998e-05,3.700182724744933e-05,5.048647987107949e-06,0.0017250904412625,3.91876192099784e-05,0.0002750984908825,1.2321557917842596e-06,1.6815702500523384e-07,5.744551169404311e-05
13.189,0.135663277027752,3.971142618297563e-05,3.9346551347947406e-05,5.370872043649907e-06,0.0017861865824097,7.10738843959655e-05,0.0018347189533706,1.310234599677129e-06,1.7889076650942976e-07,5.948001319424634e-05
13.223,0.1357227570409462,3.9628330545537645e-05,3.926390034577605e-05,5.361968991271701e-06,0.0017415462992081,-2.4953644876271486e-06,-0.0013405490450954,1.3074824632737155e-06,1.785932375139795e-07,5.799349176363045e-05
13.255,0.1357807505327099,4.05956061485754e-05,4.022196206828767e-05,5.49518024704187e-06,0.0017487300364488,2.904731540653912e-05,0.0002157278450661,1.3393857621300255e-06,1.8303030050725401e-07,5.8232710213745874e-05
13.29,0.1358389832429237,4.273961194982049e-05,4.234589735671004e-05,5.787867195799783e-06,0.0018086699603479,6.438455859594862e-05,0.0017999977146899,1.410112317903042e-06,1.9278033756012826e-07,6.022870967958838e-05
13.322,0.1358992119526032,4.228489995867719e-05,4.189502918056689e-05,5.728812658377546e-06,0.00176171841663,-1.3655014749047902e-05,-0.0014099562678073,1.395098618687558e-06,1.908122585466699e-07,5.866522327377943e-05
13.355,0.135957877175877,4.300103408517109e-05,4.260421863541222e-05,5.828334827379024e-06,0.0017674153861327,2.150552932414091e-05,0.0001710801652477,1.4187145074384696e-06,1.941272057983955e-07,5.885493235822104e-05
13.389,0.1360167321082352,4.498276521879896e-05,4.456730335421059e-05,6.09956051395168e-06,0.0018265218377337,5.951144545429039e-05,0.0017749685165462,1.4840847506616971e-06,2.031624932341373e-07,6.0823177196533966e-05
13.422,0.1360775552854318,4.4256740915139325e-05,4.384761954000376e-05,6.003780234556158e-06,0.0017778270880838,-2.1802531641430317e-05,-0.0014623047942925,1.460119543090227e-06,1.999710650762401e-07,5.920164203319089e-05
13.455,0.136136756927465,4.479000565897354e-05,4.437559484504943e-05,6.078748973177348e-06,0.0017824595822678,1.6013956271297872e-05,0.0001391139394609,1.477701027867727e-06,2.0246818210664246e-07,5.9355904089519744e-05
13.489,0.1361961128315545,4.6655762030635336e-05,4.622371274802208e-05,6.334706816231904e-06,0.001841019790902,5.602871986972348e-05,0.0017585648238502,1.539242883844391e-06,2.1099498824428653e-07,6.130595903703906e-05
13.522,0.1362574187905915,4.573030657126195e-05,4.53064466048771e-05,6.21183025693911e-06,0.0017910217134961,-2.779145523643796e-05,-0.001501443765945,1.5086982244748657e-06,2.069009655357577e-07,5.9641023059420205e-05
13.555,0.1363170598136509,4.612961713209503e-05,4.570168228433731e-05,6.26879678528217e-06,0.0017948744143731,1.1991308133125515e-05,0.0001156967230344,1.5218595000792154e-06,2.087984587133126e-07,5.976931799862584e-05
13.589,0.1363768291316495,4.7906779141239975e-05,4.746196873051899e-05,6.513141477872408e-06,0.0018530725081007,5.336822850285116e-05,0.0017476905023298,1.5804765743746468e-06,2.1693849900082418e-07,6.170731451975442e-05
13.622,0.1364385364461693,4.683226017598352e-05,4.6397033601132906e-05,6.369918853985085e-06,0.0018020721586596,-3.226783679448829e-05,-0.0015315420252584,1.5450145683266711e-06,2.1216673186633066e-07,6.000900288336553e-05
13.655,0.1364985454490527,4.713183036789962e-05,4.669343501357182e-05,6.413467117075572e-06,0.0018053490006005,8.996101859342585e-06,9.840366188991777e-05,1.5548846782386226e-06,2.136172832781369e-07,6.0118121719998646e-05
13.689,0.1365586635707727,4.88449610102492e-05,4.839023135345543e-05,6.64949063100497e-06,0.0018633175984783,5.144536463512235e-05,0.00174079873507,1.6113875357225309e-06,2.214801959348847e-07,6.204847602933051e-05
13.722,0.136620712046802,4.7659921890123e-05,4.721582186510018e-05,6.491095452676128e-06,0.0018115353881509,-3.558676036415021e-05,-0.0015550213311547,1.572280056934885e-06,2.1620301507265065e-07,6.032412842542634e-05
13.755,0.1366810361752274,4.788567253648772e-05,4.743907543312205e-05,6.524703542866173e-06,0.0018143848418009,6.779298689631435e-06,8.556917867898545e-05,1.5797143551734435e-06,2.1732247365030922e-07,6.041901523197168e-05
13.789,0.1367414551904594,4.9552023238835534e-05,4.90894771917583e-05,6.754719542803943e-06,0.001872227023756,5.004056163206642e-05,0.0017370024611128,1.6346722753227135e-06,2.2498531487894145e-07,6.234515989107514e-05
13.822,0.1368038003503504,4.828526501795379e-05,4.7834133142827895e-05,6.585022727997671e-06,0.001819833613633,-3.804078741386611e-05,-0.0015733756793673,1.5928696936187032e-06,2.193316621179783e-07,6.060045933398151e-05
13.855,0.1368644008096845,4.845679760708751e-05,4.8003662532403527e-05,6.611324966249874e-06,0.0018223728929304,5.1511288028142026e-06,7.625463355379933e-05,1.598514985261641e-06,2.202077728793491e-07,6.068501733458299e-05
13.89,0.136925085827019,5.008922169704501e-05,4.962040648475686e-05,6.837060077491136e-06,0.0018801645951609,4.902174444316821e-05,0.00173548655347,1.6523521015097491e-06,2.277280479475391e-07,6.260948101886044e-05
13.922,0.1369876953080379,4.876173788448101e-05,4.8304930578484297e-05,6.65888604217271e-06,0.001827281730199,-3.986437875567575e-05,-0.0015880740228814,1.6085471428761233e-06,2.2179200606524179e-07,6.08484816156274e-05
13.955,0.1370485437896536,4.889328870948905e-05,4.843484264966075e-05,6.679797776284276e-06,0.0018295936980254,3.950475225466806e-06,6.942846325508048e-05,1.6128731841557808e-06,2.2248856632671185e-07,6.092547014424632e-05
13.989,0.1371094692597978,5.050115791543458e-05,5.002721528523813e-05,6.902512702204607e-06,0.0018873899402079,4.8284360538904735e-05,0.0017356228883649,1.6658987357347653e-06,2.2990826304503955e-07,6.285008500892531e-05
14.022,0.1371723193448067,4.912842697318392e-05,4.8666945003662194e-05,6.717946179449851e-06,0.0018341071794098,-4.122315141893859e-05,-0.0016000829068503,1.6206021353173502e-06,2.237592757717825e-07,6.107576907434797e-05
14.056,0.137233395113881,4.923049121308642e-05,4.876763926831044e-05,6.734881237091337e-06,0.0018362528768193,3.064992189264285e-06,6.443535764384721e-05,1.623955228333239e-06,2.2432337811274386e-07,6.114722079808566e-05
14.089,0.1372945423346792,5.082071320489151e-05,5.034248520139172e-05,6.955506768129062e-06,0.0018940943035827,4.7754414168320784e-05,0.0017369797826832,1.676397140244739e-06,2.3167349659561614e-07,6.307334030930534e-05
14.122,0.1373576156749885,4.941414677671628e-05,4.8948728041941e-05,6.7660863685707376e-06,0.0018404775188969,-4.223923207733405e-05,-0.0016101136542266,1.6299854354715666e-06,2.2536281611559157e-07,6.128790137926998e-05
14.156,0.1374189035763678,4.9494461192734926e-05,4.902787055248368e-05,6.780088336301133e-06,0.0018425019181718,2.411844324884221e-06,6.079277101622161e-05,1.6326208585434446e-06,2.2582922097615807e-07,6.135531387512217e-05
14.189,0.1374802588902428,5.1072126853229975e-05,5.059023400649688e-05,6.9993117147545446e-06,0.0019004185854857,4.73773471620135e-05,0.001739239258675,1.684647102935536e-06,2.33132649975261e-07,6.32839388966744e-05
14.222,0.1375435428291395,4.964013826410181e-05,4.917132637302945e-05,6.806172903781018e-06,0.0018465161986514,-4.300266033417903e-05,-0.0016186902953238,1.6373978943969825e-06,2.266980994815301e-07,6.148898941509273e-05
14.255,0.1376050318185546,4.970440594076775e-05,4.923456795266391e-05,6.818012059181701e-06,0.0018484524343557,1.929960260238218e-06,5.814521634540905e-05,1.6395038190246416e-06,2.270924637886433e-07,6.1553466064046e-05
0.298,3.141591307365492,-2.316024714468463e-06,2.3160247144663645e-06,-3.1178887534700298e-12,-9.125451539639702e-06,-0.0001683994503131,0.0003329767736131,7.712362304185018e-08,-1.1721748170079161e-14,-3.0387753627000213e-07
0.331,3.1415910034879557,-2.2863119533783898e-07,2.286311953375277e-07,-3.7726475564135756e-13,4.904974386880697e-06,6.268449006398269e-05,0.0004213341119075,7.613418811581951e-09,-1.6870446343679862e-15,1.6333564708312722e-07
0.364,3.1415911668236025,0.0001415940389249,-0.0001415940389248,2.105172298822484e-10,-9.59306639456644e-05,0.0042589390426518,-0.0030280972472235,-4.715081496228384e-06,8.193631718865987e-12,-3.194491109390625e-06
0.397,3.141587972332493,5.388129826264417e-05,-5.388129826205379e-05,2.5223222083228926e-10,-0.0003672282239225,-0.0026340162361058,-0.0081470738731806,-1.7942472320707977e-06,1.695453064313922e-11,-1.2228699856621878e-05
0.43,3.1415757436326364,-2.897474317635158e-06,2.897474317220897e-06,-4.899616657201996e-11,8.289301008046169e-05,-0.001705068245654,0.0135171541742654,9.648589476734008e-08,-1.3685152621273289e-12,2.7603372356793744e-06
0.465,3.141578503969872,-2.1427233637927974e-06,2.142723363578298e-06,-3.031872119293205e-11,0.0002249047189533,2.2665193809079893e-05,0.0042646158820695,7.13526880109358e-08,-6.463641465219043e-13,7.4893271411474995e-06
0.498,3.141585993297013,-9.723744030990702e-07,9.72374403077503e-07,-6.4762982164485006e-12,0.0002540278390994,3.5145614435247056e-05,0.0008745681725543,3.238006762284413e-08,-3.5116032512277835e-14,8.459127042011256e-06
0.531,3.141499243147818,-2.58115208950478e-07,2.581152078243845e-07,-2.4110655713552516e-11,0.0002634082725696,2.144922504950728e-05,0.0002816946988052,8.59523645783189e-09,6.472901107995331e-14,8.771495476569375e-06
0.5650000000000001,3.1415102122118053,3.728085347027164e-07,-3.7280853343580484e-07,3.0734849291754183e-11,0.000272977979305,1.8946658968564392e-05,0.0002873785806431,-1.2414524203948674e-08,-2.043634650792552e-13,9.090166710858752e-06
0.5980000000000001,3.1415212376105144,9.82485620788274e-07,-9.824856182828167e-07,7.016517267634537e-11,0.0002631861859922,1.83086212037705e-05,-0.0002940478472306,-3.2716771162297803e-08,-8.306388374307855e-13,8.764099993543128e-06
0.63,3.141532278278972,1.6489263199279393e-06,-1.648926316922624e-06,9.955443902635764e-11,0.000259300163448,2.001323420839835e-05,-0.0001166973736997,-5.4909246420472003e-08,-1.871755917616264e-12,8.634695442821246e-06
0.664,3.1415433233456613,2.4981606026666718e-06,-2.498160599627068e-06,1.2323487236027714e-10,0.0002609230751094,2.5502531013175133e-05,4.8736085927147215e-05,-8.318874799312564e-08,-3.556308119969736e-12,8.688738401145e-06
0.6970000000000001,3.141554369932279,3.342323639738733e-06,-3.3423236372894145e-06,1.2795637349353743e-10,0.0002448148208421,2.5350241353515376e-05,-0.0004837313593796,-1.1129937705693292e-07,-5.69523859440718e-12,8.152333534042493e-06
0.7310000000000001,3.141565417276563,4.429142349004525e-06,-4.429142347361719e-06,1.2063350834379178e-10,0.0002337589850582,3.2637198476450186e-05,-0.0003320070805957,-1.4749043996567218e-07,-8.722387356570373e-12,7.784174202440633e-06
0.764,3.1415764651764446,5.932051752396372e-06,-5.9320517516190815e-06,9.603050576898652e-11,0.0002259934267943,4.51324145162717e-05,-0.0002331999478651,-1.975373229085202e-07,-1.3194218256457363e-11,7.52558111225249e-06
0.798,3.1415875135781794,7.332562522355874e-06,-7.332562522259012e-06,3.768945652359572e-11,0.0002015464877169,4.205738047926432e-05,-0.0007341423146372,-2.441743313235563e-07,-1.8047435631990756e-11,6.7114980409743925e-06
0.8310000000000001,-3.1415167319726165,9.111813558932422e-06,-9.111813532671757e-06,-6.917836201425521e-10,0.0001809162123857,5.343096205935579e-05,-0.0006195277877235,-3.034233905271129e-07,-2.435885349132296e-11,6.024509872445616e-06
0.8650000000000001,-3.141510707462744,-0.000153612413,0.0001536124124842,1.2587942297991403e-08,0.0022253708734155,-0.004886613410179,0.061395034865761,5.115293314688878e-06,6.155988391915892e-10,7.410485008473937e-05
0.898,-3.141436602612659,1.0702166979612634e-05,-1.0702166849303544e-05,-1.6700836078440303e-09,0.0001637106172909,0.0049343717711604,-0.0619117194031412,-3.563821558455289e-07,-5.706497501374403e-11,5.451563555790006e-06
0.931,-3.1414311510491038,8.888367248527038e-06,-8.888367132609084e-06,-1.4354938869819202e-09,0.000187467113716,-5.446846039296082e-05,0.0007134083010527,-2.9598262530158e-07,-4.912426339845004e-11,6.242654886744378e-06
0.965,-3.1414249083942165,7.451788479171161e-06,-7.45178837433027e-06,-1.2500017099728035e-09,0.0002154759976528,-4.3140503584260565e-05,0.0008411076257287,-2.48144552662986e-07,-4.2849378437153466e-11,7.175350721838748e-06
0.998,-3.141417733043495,5.821054539121638e-06,-5.82105445006766e-06,-1.0182220348230074e-09,0.0002276499691862,-4.897098919067638e-05,0.0003655847307324,-1.9384111300978242e-07,-3.4902478530857026e-11,7.5807439739006335e-06
1.03,-3.141410152299521,4.679972576013531e-06,-4.679972498076261e-06,-8.541010288198018e-10,0.0002426765703944,-3.426672561886206e-05,0.0004512492855321,-1.5584308403177468e-07,-2.928105701841798e-11,8.081129794134378e-06
1.064,-3.141402071169727,3.865096486761257e-06,-3.865096416567899e-06,-7.366194377780186e-10,0.0002627052110802,-2.447075343099921e-05,0.0006014606812555,-1.2870771053122e-07,-2.526566858427185e-11,8.748083528971876e-06
1.097,-3.1413933230861977,3.015920624427876e-06,-3.0159205645126174e-06,-6.011649728904741e-10,0.0002647983897408,-2.5500776646648085e-05,6.285821803559103e-05,-1.004301546814329e-07,-2.0596781201890307e-11,8.817786378369362e-06
1.131,-3.1413845052998197,2.4441305696846955e-06,-2.444130516737849e-06,-5.08741594879362e-10,0.0002725033447843,-1.7170872514810215e-05,0.000231380031337,-8.138954610694279e-08,-1.741994397612454e-11,9.074361381318746e-06
1.164,-3.1413754309384383,2.0451273851126226e-06,-2.045127336862259e-06,-4.4424798945907437e-10,0.0002872034794186,-1.1982077614776964e-05,0.0004414454845132,-6.810274022498105e-08,-1.5210802481998084e-11,9.563875864640634e-06
1.197,-3.1413658670625733,1.6198542654819814e-06,-1.6198542238257049e-06,-3.673611203221029e-10,0.0002837878152312,-1.2770964553472709e-05,-0.0001025724981197,-5.3941145577557736e-08,-1.2560617802476224e-11,9.450134247200615e-06
1.231,-3.141356416928326,1.33178294467117e-06,-1.3317829075092585e-06,-3.146159537216261e-10,0.000287809189232,-8.650790414739082e-06,0.0001207619820056,-4.434837075399656e-08,-1.0748932190564166e-11,9.584046001426882e-06
1.265,-3.141346832882325,0.0340461101913406,-0.0340461091626744,-8.369238809492654e-06,-0.0003574327085189,1.0223657179698475,-0.0193766335660947,-0.0011337354363937,-2.7347475931095504e-07,-1.1902509193679892e-05
1.2970000000000002,-3.1413587353915187,0.0667238130281936,-0.0667238112027061,-1.560791398322639e-05,2.142740974843317e-05,0.9813123975030952,0.0113771807287492,-0.0022219029116085,-5.235269826758224e-07,7.135327446228247e-07
1.33,-3.1413580218587738,0.100087202285706,-0.1000871995307032,-2.348363330972009e-05,2.1489758690430332e-05,1.0019035813066783,1.8723406005154424e-06,-0.0033329037436804,-7.876846388714171e-07,7.156089643913303e-07
1.365,-3.1413573062498097,0.1371539667282133,-0.137153962929846,-3.227882093969873e-05,2.2141842748523917e-05,1.113116049324543,1.9582103846654e-05,-0.0045672269647776,-1.0827170009961769e-06,7.373233635258464e-07
1.397,-3.141356568926446,0.1668134327060546,-0.1668134280573006,-3.938209273637441e-05,2.1071294737236003e-05,0.8906746539892283,-3.214858892756488e-05,-0.0055548871525605,-1.3208500763755626e-06,7.01674114749959e-07
1.4300000000000002,-3.141355867252331,0.2001765057757376,-0.2001765001640126,-4.739906120566293e-05,1.984808257288845e-05,1.0018940861766668,-3.673309802845499e-05,-0.0066658774541492,-1.5895665697962029e-06,6.609411496771855e-07
1.464,-3.1413552063111814,0.2246240771561964,-0.2246240708239078,-5.333637533024644e-05,-2.5883040015577253e-06,0.7341613027164805,-0.0006737653625959,-0.0074799815484074,-1.7858549643496908e-06,-8.619052325187227e-08
1.497,-3.141355292501705,0.2180145286881761,-0.2180145225466757,-5.1748165262557335e-05,1.3570047970697771e-05,-0.1984849389795888,0.0004852357949626,-0.0072598836003158,-1.73462887986288e-06,4.518825974242358e-07
1.531,-3.1413548406191074,0.21801486498727,-0.2180148588223537,-5.184676220759269e-05,7.8121505289516e-06,1.009907188740142e-05,-0.0001729098330854,-0.0072598947935556,-1.7372103831880868e-06,2.601446126140883e-07
1.564,-3.141354580474495,0.2246180719839879,-0.2246180656184456,-5.347552364438068e-05,-1.3322509505746698e-06,0.1982945044059438,-0.0002746066510368,-0.0074797815581649,-1.7906215325554684e-06,-4.436395665413651e-08
1.597,-3.1413546248384514,0.217997302054005,-0.2179972958783937,-5.18896251138126e-05,6.910041518411442e-05,-0.1988219198193053,0.0021150950791197,-0.0072593099486397,-1.7460492238480973e-06,2.3010438256310105e-06
1.63,-3.1413523237946257,0.2180181060258683,-0.2180180997296787,-5.239624625962418e-05,5.627943374594199e-06,0.0006247438997962,-0.0019060802345201,-0.0072600027124575,-1.7552536589216995e-06,1.8741051437398682e-07
1.664,-3.1413521363841115,0.2246246388689853,-0.2246246323718831,-5.402608994715374e-05,6.4499873690308425e-06,0.1983943796731837,2.468600583893825e-05,-0.0074800002576805,-1.8099358013920297e-06,2.147845793887271e-07
1.697,-3.141351921599532,0.2174670796241297,-0.2174670733228154,-5.2351282388567534e-05,0.0016034100866464,-0.2149417190647332,0.0479567597380619,-0.0072416534890803,-1.9463754073381084e-06,5.339355588532824e-05
1.731,-3.1412985280436465,0.2176106860073544,-0.2176106765946219,-6.400486094643573e-05,0.0012534734715691,0.0043125040007415,-0.0105086070593806,-0.0072464354809118,-2.292352722892591e-06,4.17406666032516e-05
1.764,-3.1412567873770434,0.2130588227425233,-0.2130588107253546,-7.155925854208536e-05,-0.0008043335491531,-0.1366925905354656,-0.0617960066282965,-0.0070948584251408,-2.2974591039344717e-06,-2.678430718680014e-05
1.7970000000000002,-3.1412835716842302,0.2065018894662864,-0.206501879602556,-6.38259964823691e-05,0.0007521661758291,-0.1969049031902992,0.046741733482951,-0.0068765125604541,-2.2207814635242268e-06,2.5047133655109467e-05
1.831,-3.141258524550575,0.2066661456641932,-0.2066661341278602,-6.905315940482185e-05,0.0004027663782791,0.0049326185557615,-0.0104924864129131,-0.0068819822475759,-2.3548858707689224e-06,1.3412120396694152e-05
1.865,-3.1412451124301786,0.2131097358168968,-0.2131097229466823,-7.406440322000452e-05,7.233231299204896e-06,0.1935012057868923,-0.0118778722816786,-0.0070965537691904,-2.4767524198006444e-06,2.408666022635231e-07
1.897,-3.1412448715635763,0.20700846691183,-0.2070084543927511,-7.199382261534519e-05,-0.000353977034286,-0.1832212884404425,-0.01084715512268,-0.0068933815420322,-2.3660466939217948e-06,-1.178743524172521e-05
1.93,-3.141256658998818,0.2071416236839042,-0.2071416119915504,-6.959846381409602e-05,-0.000542273224202,0.0039987018640894,-0.0056545402377177,-0.00689781569683,-2.2646355007481477e-06,-1.805769836592808e-05
1.964,-3.141274716697184,0.2245058346205305,-0.2245058232735715,-7.137868622936865e-05,-0.0006830759521187,0.5214477758746635,-0.00422831014765,-0.0074760439382952,-2.3019480438965037e-06,-2.2746429205555695e-05
1.997,-3.141297463126389,0.2185293158394232,-0.218529306318384,-6.450776907310862e-05,-9.844073898727572e-05,-0.1794750384716891,0.0175566130069523,-0.0072770259012616,-2.1459778582282693e-06,-3.278076608276281e-06
2.031,-3.141300741202998,0.2182535211503914,-0.2182535118513902,-6.371090538067774e-05,-3.715318813762908e-05,-0.0082821227937477,0.0018404669924818,-0.0072678419436269,-2.1268610551965656e-06,-1.2372011649830484e-06
2.064,-3.1413019784041625,0.2245444888640492,-0.2245444793779356,-6.526951006379623e-05,5.545074969213213e-05,0.1889179493590908,0.0027808990339267,-0.0074773311590741,-2.190443715169825e-06,1.846509964748e-06
2.097,-3.141300131894198,0.2174566220695779,-0.2174566127658114,-6.361077889902379e-05,0.000739737401558,-0.2128488526868239,0.0205491487046832,-0.0072413051752948,-2.217175861541815e-06,2.463325547188422e-05
2.13,-3.141275498638726,0.2173875000845162,-0.2173874891513094,-6.894552079606624e-05,0.0014364859688055,-0.0020757352871399,0.0209233803978215,-0.0072390033277112,-2.478769945788448e-06,4.783498276122456e-05
2.164,-3.1412276636559646,0.2239950118136094,-0.2239949968935648,-8.175592272456805e-05,0.001686455812074,0.1984237756484448,0.007506601899954,-0.0074590333122488,-2.941959619244334e-06,5.6158978542064646e-05
2.197,-3.141171504677423,0.2175325137957275,-0.2175324945042476,-9.161357888206128e-05,0.0016727160677247,-0.1940690095460038,-0.0004126049354134,-0.0072438319738737,-3.2622299515998283e-06,5.570144505523401e-05
2.23,-3.1411158032323674,0.2177028101817328,-0.217702785430419,-0.0001038116589135,0.0013693536347279,0.0051140055857455,-0.0091099829728775,-0.0072495026686207,-3.631974466846181e-06,4.559947603643977e-05
2.265,-3.141070203756331,0.2245574721716517,-0.2245574415247415,-0.0001173200086016,0.0930931191844736,0.2058457054029693,2.7544674339262976,-0.0074777447495511,-1.5507343061073827e-05,0.0031000008688429
2.298,-3.1379702028874883,0.2180850259502141,-0.2180835950796663,-0.0007900005276621,0.0907437678666013,-0.1943677543975258,-0.0705510906267953,-0.0072621328672217,-3.728906090406145e-05,0.0030217674699578
2.33,-3.13494843541753,0.2182614625074303,-0.2182566448797111,-0.001450166105691,0.0903841517421422,0.005298395111599,-0.0107992830167894,-0.0072678625493751,-5.923773852231272e-05,0.0030097922530133
2.364,-3.131938643164517,0.2250495635794476,-0.2250390763605427,-0.0021725970849881,0.0840129099960041,0.2038468790395593,-0.1913285809651092,-0.0074936901552903,-8.28399111288328e-05,0.0027976299028669
2.397,-3.12914101326165,0.2185829990545588,-0.2185660543536206,-0.0027216465559368,0.0809791525288684,-0.1941911268735394,-0.0911038278419121,-0.0072781184561624,-0.0001004537974863,0.0026966057792113
2.43,-3.1264444074824387,0.2186275969274591,-0.2186025132397394,-0.0033116979851895,0.081057218080501,0.0013392754624735,0.0023443108598387,-0.0072793058563744,-0.0001201135863237,0.0026992053620806
2.465,-3.1237452021203578,0.2131869411512877,-0.2131529886719207,-0.003804641595561,-0.0125667524846623,-0.1633830563414832,-2.8115306476025044,-0.0070980206561634,-0.0001252189579598,-0.0004184728577392
2.497,-3.124163674978097,0.2069207564770797,-0.2068893291864415,-0.0036062348552474,-0.0082433193578118,-0.1881737139401802,0.1298328266321463,-0.0068894308971615,-0.0001191513130013,-0.0002745025346151
2.53,-3.124438177512713,0.2065485105308563,-0.2065181201362787,-0.0035430577038546,-0.0090585309313606,-0.0111785569436455,-0.0244808280344993,-0.0068770709336624,-0.0001169558494225,-0.0003016490800143
2.565,-3.124739826592726,0.2124600822658996,-0.2124299117597724,-0.0035803835224984,-0.0179879529968011,0.1775246767280264,-0.2681508127759914,-0.0070739511892698,-0.0001171176536176,-0.0005989988347934
2.597,-3.1253388254275203,0.2059098348861987,-0.2058826361414424,-0.0033466757106233,-0.0161700571838652,-0.1967041255165441,0.0545914658539307,-0.006855921308967,-0.0001096077037299,-0.0005384629042227
2.63,-3.125877288331743,0.2059404376108727,-0.2059150073007691,-0.0032362959818235,-0.0158187575379345,0.0009190007409594,0.0105495389168385,-0.0068569976677066,-0.0001059718777581,-0.0005267646260132
2.664,-3.126404052957756,0.2241884370617614,-0.2241625781412942,-0.003404977715573,0.062214253743557,0.5479879714981617,2.3433336721168656,-0.007464490896696,-0.0001211280725133,0.0020717346496604
2.698,-3.124332318308096,0.2176207218601761,-0.2175883059721094,-0.0037560201186673,0.0590323524729281,-0.1972286847322922,-0.095552590709578,-0.0072455628091124,-0.0001322068484331,0.0019657773373485
2.73,-3.1223665409707477,0.2177961576474031,-0.2177559054305288,-0.0041871154871943,0.0586825250542144,0.0052683419587698,-0.0105053278893009,-0.0072511306056968,-0.0001465255731685,0.0019541280843053
2.764,-3.120412412886442,0.2245940726122177,-0.2245436977534128,-0.0047566008626095,0.0698222965912707,0.2041415905349731,0.3345276737854753,-0.0074771140327693,-0.0001670974035382,0.0023250824764893
2.798,-3.1180873304099523,0.2181723698504838,-0.2181121024844426,-0.0051277398522455,0.0676097811667529,-0.1928439267787982,-0.0664419046401748,-0.0072629344180307,-0.0001789394964903,0.0022514057128528
2.83,-3.1158359246970995,0.218353267091662,-0.2182808423253591,-0.0056234440812061,0.0672510859158689,0.0054323495849334,-0.0107716291556756,-0.0072685360292562,-0.0001954093570099,0.0022394611609984
2.864,-3.1135964635361013,0.2250774984020702,-0.2249892977930897,-0.0063004893068983,-0.0220991818048776,0.2019288681804263,-2.6831912228452404,-0.0074922198600459,-0.0002070596167548,-0.0007359027541024
2.898,-3.114332366290204,0.2186392852071111,-0.218558052268212,-0.0059594315670203,-0.0226170621576594,-0.193339735584359,-0.0155519625460014,-0.0072780569197814,-0.0001957181506062,-0.00075314816985
2.931,-3.1150855144600538,0.2186291329621748,-0.2185523299376728,-0.0057945542198632,-0.0229200033363395,-0.0003048722203095,-0.0090973326930963,-0.0072778652608062,-0.0001901910975056,-0.0007632361111001
2.964,-3.115848750571154,0.2250503436673956,-0.2249757718924177,-0.0057930342846999,-0.0239706170228495,0.1928291503069311,-0.0315499605558544,-0.0074917691444476,-0.0001899280914855,-0.0007982215468608
2.998,-3.116646972118015,0.218121294583304,-0.2180534310769799,-0.0054406200247107,-0.02321454663187,-0.2080795520748216,0.0227048165459305,-0.0072612483187707,-0.0001783757971974,-0.0007730444028412
3.03,-3.117420016520856,0.2177914212825553,-0.217727794833059,-0.0052640803003817,-0.0233122043158625,-0.0099061051275881,-0.0029326631829595,-0.0072504026475166,-0.0001724894124914,-0.0007762964037182
3.064,-3.118196312924574,0.2240286422749805,-0.2239673296919151,-0.0052409722613469,-0.0303172528811443,0.1873039337064603,-0.2103618187772311,-0.0074581986787459,-0.0001707696647107,-0.0010095645209421
3.097,-3.1192058774455163,0.2174387467281315,-0.2173842623603626,-0.0048673459648543,-0.0289940390370132,-0.1978947611666348,0.0397361514754087,-0.0072389728439245,-0.0001585977585591,-0.0009655014999325
3.13,-3.120171378945449,0.2174777474539992,-0.217427852245469,-0.0046582942788075,-0.0289875246011506,0.0011711929689978,0.0001956287045832,-0.0072404210192932,-0.0001516364250475,-0.0009652845692183
3.164,-3.121136663514667,0.2241911629837313,-0.2241442585001603,-0.0045857323745816,-0.0191559970817609,0.2016040699619246,0.2952410666483397,-0.0074640518043014,-0.0001503343018411,-0.0006378947028226
3.198,-3.12177455821749,0.2177737136685397,-0.2177309490034469,-0.0043155777186281,-0.0186883777983535,-0.1927161956513981,0.0140426211233432,-0.0072504846600063,-0.0001414624317005,-0.0006223229806851
3.23,-3.122396881198175,0.2179586385012356,-0.2179184832878074,-0.0041836274755217,-0.0190725566214579,0.0055532982791566,-0.0115369015947265,-0.0072567290617078,-0.0001370201358097,-0.0006351161354945
3.264,-3.123031997333669,0.2126481408888913,-0.2126115135149771,-0.0039466624345746,-0.0085383525508057,-0.1594744027731032,0.3163424645841515,-0.0070799818127667,-0.0001304268756768,-0.0002843271399418
3.298,-3.1233163244736115,0.2068208786578624,-0.2067863380294439,-0.0037797160188084,-0.0264547240753473,-0.1749928597906556,-0.538029174911158,-0.0068860394400576,-0.0001228407196992,-0.000880942311709
3.331,-3.12419726678532,0.2070048663870846,-0.2069735473941778,-0.0036007481173811,-0.0273064979553773,0.0055251570336999,-0.0255787951960973,-0.0068922725363755,-0.0001167806051268,-0.000909306381914
3.364,-3.1251065731672343,0.2134191979851159,-0.213390195949631,-0.0035182866836269,-0.0203901222020455,0.1926225705114483,0.2076989715715256,-0.0071059325995757,-0.0001147560847132,-0.0006789910693281
3.398,-3.1257855642365624,0.2071840886203544,-0.2071582052290986,-0.0032748410198942,-0.0197041050907426,-0.1872405214643072,0.0206011144535393,-0.0068984033724902,-0.0001067983142428,-0.0006561466995217
3.43,-3.1264417109360845,0.207060622519962,-0.2070368574815417,-0.0031370435958113,-0.0195706420877931,-0.0037076907024763,0.0040078979864729,-0.0068943607680723,-0.0001022263010029,-0.0006517023815235
3.465,-3.127093413317608,0.2238422591748865,-0.2238187306353852,-0.0032454289827328,-0.000515719645464,0.5039530527004368,0.5722198931630347,-0.0074531645123205,-0.0001080188204184,-1.71734641939536e-05
3.497,-3.127110586781802,0.2179334679949349,-0.2179106147730097,-0.0031560167217997,-0.0119205438711974,-0.1774411765751249,-0.3424872139859865,-0.0072564440008418,-0.0001036648893343,-0.0003969541109108
3.531,-3.1275075408927124,0.2176579851417844,-0.2176363948713959,-0.0030656358823406,-0.0131670277044599,-0.0082727583528658,-0.0374319469448208,-0.0072473139620485,-0.0001005065970023,-0.0004384620225585
3.564,-3.1279460029152717,0.2240073946061829,-0.2239865363609788,-0.0030568557803827,-0.0116847025313196,0.1906729568888419,0.0445142694636715,-0.0074587711414412,-0.0001003522337632,-0.0003891005942929
3.597,-3.128335103509564,0.2174315672541434,-0.2174124593615153,-0.0028825254501186,-0.0105062572230623,-0.1974722928540378,0.035388747995715,-0.0072398514126397,-9.473138360482336e-05,-0.0003498583655279
3.631,-3.1286849618750923,0.2175305726398999,-0.217512451669701,-0.0028077396030928,-0.0104109140256872,0.0029731347074022,0.0028631590803357,-0.0072431805783799,-9.225193526348434e-05,-0.0003466834370553
3.664,-3.129031645312148,0.2242846389766045,-0.2242669455141854,-0.0028171671237682,-0.0207537284810352,0.2028248149160544,-0.31059502868913,-0.0074681209848971,-9.124111651186852e-05,-0.0006910991584184
3.697,-3.1297227444705658,0.2178782160616924,-0.2178628672943331,-0.0025861338939352,-0.0208007439358108,-0.1923850725198824,-0.0014118755187872,-0.0072548626137553,-8.361543476182765e-05,-0.0006926647730625
3.731,-3.1304154092436285,0.2180635744749239,-0.2180499531892919,-0.0024372991052137,-0.0212316800967686,0.0055663187156581,-0.0129410258545878,-0.0072610914218519,-7.860498841259916e-05,-0.0007070149472223
3.764,-3.131122424190851,0.2248671336007035,-0.2248548081044272,-0.0023543674560003,-0.0130442733452469,0.2043110848582477,0.245868070616267,-0.0074876817986221,-7.678428929066452e-05,-0.0004343743023967
3.797,-3.131556798493248,0.2184293479992766,-0.2184183481657423,-0.0021920884876516,-0.0128297866100713,-0.1933268949377442,0.0064410430983654,-0.0072733462696943,-7.145263650805707e-05,-0.0004272318941153
3.83,-3.131984030387363,0.2185832169618805,-0.2185731266218311,-0.0021002514519704,-0.0131228280816803,0.0046206895676826,-0.0088000441924621,-0.0072785000740259,-6.83578564020295e-05,-0.0004369901751199
3.864,-3.1324210205624827,0.2252838577142162,-0.2252743824708509,-0.002066191902032,-0.0219748665236133,0.2012204430130866,-0.2658269802382267,-0.0075016613520307,-6.606957285671827e-05,-0.0007317630552363
3.897,-3.133152783617719,0.2185661757811177,-0.2185583914394162,-0.0018446482042235,-0.0212519809760815,-0.2017321901831403,0.021708274700653,-0.0072780154837845,-5.886129256370932e-05,-0.0007076909665035
3.93,-3.133860474584223,0.2183147040138857,-0.2183081779003131,-0.0016880315505904,-0.0208489246765602,-0.0075517047216801,0.0121037927784166,-0.0072696811807292,-5.3697681549422365e-05,-0.0006942691917294
3.964,-3.134554743775952,0.2119244919084834,-0.2119192433896856,-0.0014914931485083,0.0076840721607911,-0.1918982614234942,0.8568467518724153,-0.0070569043054283,-5.057908124204736e-05,0.0002558796029543
3.998,-3.134298864172998,0.2065416376503421,-0.2065361437328112,-0.0015064578536387,-0.0125411908257681,-0.1616472750192559,-0.6073652548516305,-0.0068776637957837,-4.8738175430328027e-05,-0.000417621654498
4.031,-3.134716485827496,0.2059754792044421,-0.2059706097899618,-0.0014163107889414,-0.0107383292552293,-0.0170017551321319,0.0541399871032682,-0.006858829530437,-4.594607131665131e-05,-0.0003575863641991
4.064,-3.135074072191695,0.2121718005620545,-0.2121672927861851,-0.0013830493575629,-0.0123253357353736,0.1860757164448156,-0.0476578522565867,-0.0070651800427358,-4.461516161416077e-05,-0.0004104336799879
4.097,-3.135484505871683,0.2060091471014626,-0.2060053040675141,-0.0012583264771615,-0.0121046657383315,-0.1850646684862428,0.0066267266378995,-0.0068599848302232,-4.05289275496438e-05,-0.0004030853690864
4.131,-3.135887591240769,0.2061409403961231,-0.2061375856947268,-0.0011760405380457,-0.012101882435052,0.0039577565964108,8.358268106741239e-05,-0.0068643892579999,-3.778824209585944e-05,-0.0004029926850872
4.165,-3.136290583925857,0.2238142748256063,-0.2238111289059391,-0.0011866733169418,0.000859298255478,0.5307307636481444,0.389224645361265,-0.0074529099728546,-3.963288587148744e-05,2.8614631907419864e-05
4.197,-3.1362619692939493,0.2179528648897745,-0.217949768201546,-0.0011618324116078,-0.0190159491462651,-0.1760183163913457,-0.5968542763286264,-0.0072577389966209,-3.640087800209263e-05,-0.0006332311065706
4.231,-3.13689520040052,0.2181652309358248,-0.2181628239160078,-0.001024817190891,-0.0199460884004,0.0063773587402482,-0.0279321097337789,-0.0072648327929992,-3.1723525501813066e-05,-0.0006642047437333
4.264,-3.137559405144253,0.2249695254032142,-0.2249676956055961,-0.0009073555286155,-0.0124992145443924,0.2043331671888731,0.2236298455257541,-0.007491430296868,-2.866596869455653e-05,-0.0004162238443282
4.297,-3.1379756289885816,0.2185202756333051,-0.2185188461990158,-0.0007903914893954,-0.0122662252047472,-0.193671164261537,0.0069966768662208,-0.0072766827180517,-2.4843696789906985e-05,-0.000408465299318
4.331,-3.1383840942879,0.2186405217554299,-0.2186393963204023,-0.0007015198761738,-0.0123608318253648,0.0036109946584032,-0.0028410396581872,-0.007280696470237,-2.187198914149195e-05,-0.0004116156997846
4.364,-3.138795709987684,0.2252633979518329,-0.22526251684662,-0.0006300481982233,-0.0051129326843879,0.1988851710631533,0.2176546288581652,-0.0075012435334485,-2.035212007337047e-05,-0.0001702606583901
4.397,-3.1389659706460744,0.2184410389594573,-0.2184402853969263,-0.0005737746914529,-0.0042812570902493,-0.2048756454166829,0.024975243067226,-0.0072740628160321,-1.85979732698228e-05,-0.0001425658611053
4.43,-3.13910853650718,0.2181426371361284,-0.2181419640750721,-0.0005418912940352,-0.004105423680329,-0.0089610157155845,0.0052802825801895,-0.0072641285909153,-1.755821753709916e-05,-0.0001367106085549
4.464,-3.1392452471157344,0.224415503632574,-0.2244148853325583,-0.0005267939223057,-0.0105203596891011,0.1883743692626313,-0.1926407209841478,-0.0074730185796181,-1.624329438941248e-05,-0.000350327977647
4.497,-3.1395955750933817,0.2173964735022563,-0.2173960399787748,-0.0004341575338335,-0.0099744923178228,-0.2107816855951264,0.0163924135519023,-0.007239290381357,-1.3264924404032686e-05,-0.0003321505941835
4.53,-3.1399277256875653,0.2173928511235108,-0.217392549818728,-0.0003619432563634,-0.0096460481879814,-0.0001087801425063,0.0098631870823244,-0.0072391737055544,-1.0899796262274932e-05,-0.0003212134046597
4.564,-3.140248939092225,0.2240569363095396,-0.2240567340344799,-0.0003010684629998,-0.0179980679469694,0.2001226782591219,-0.2508114041738137,-0.0074610917905218,-7.799775155453795e-06,-0.000599335662634
4.597,-3.140848274754859,0.2175907821673637,-0.2175907218838565,-0.0001619699579642,-0.0175640522359672,-0.1941788030683465,0.0130335048349001,-0.0072457721985168,-3.284389855573011e-06,-0.0005848829394577
4.63,-3.141433157694317,0.2177701068033181,-0.2177701040333976,-3.4733438045318633e-05,-0.0179589276962612,0.005385124202835,-0.0118581219307508,-0.0072517443792599,1.002002725881096e-06,-0.0005980322922854
4.665,-3.135900938710364,0.2245666514285798,-0.2245630139506419,-0.0012781624501898,-0.0093240221682114,0.2041004391970477,0.2593064723138076,-0.0074780681502078,4.430270881891504e-06,-0.0003104899382014
4.697,-3.136214348080333,0.2181457712689665,-0.2181426162157229,-0.0011732489471958,-0.0092328077790865,-0.1928192240124092,0.0027391708445926,-0.0072642512034167,6.548044010751639e-06,-0.0003074524990435
4.731,-3.136541973921758,0.2183272137778132,-0.2183244290894281,-0.0011026961314126,-0.0096163793708706,0.0054487239893884,-0.0115186664199433,-0.0072702908192718,8.835191288657009e-06,-0.0003202254330499
4.765,-3.13684847959353,0.2122514354589905,-0.212249046872106,-0.0010069539634806,-0.0091043493593472,-0.1824558053700508,0.0153762766223229,-0.0070679645340098,1.0792404742511754e-05,-0.0003031748336662
4.798,-3.137370434151338,0.2071065754813557,-0.2071047294254523,-0.0008744468106766,-0.0180559349300626,-0.1545002996286704,-0.2688163835049646,-0.00689663535225,1.3649591563112891e-05,-0.000601262633171
4.83,-3.13799728187469,0.2071823564084937,-0.2071810173180839,-0.0007448959792561,-0.0181478810466769,0.0022757035176552,-0.0027611446430734,-0.0068991493667466,1.781335161602682e-05,-0.0006043244388543
4.864,-3.138410288346062,0.2133203835244265,-0.2133193033297344,-0.0006788622284491,-0.0106916531087798,0.1843251386166025,0.2239107488857977,-0.0071035354299404,2.175205936100592e-05,-0.0003560320485223
4.898,-3.1387006753140616,0.2067861836181515,-0.206785318886666,-0.00059802031715,-0.0096894505692799,-0.196222219407659,0.0300961723573538,-0.006885940048996,2.342248697968692e-05,-0.000322658703957
4.931,-3.138678241744453,0.206493680469872,-0.2064928035128523,-0.0006018067764109,-0.0099829043679683,-0.0087838783267125,-0.0088124263870382,-0.0068761917187992,2.564161695629958e-05,-0.0003324307154533
4.964,-3.13822488204865,0.2238339183715596,-0.2238326490234616,-0.0007538200752756,-0.0119713058319663,0.5207278649155458,-0.0597117556756154,-0.0074536069504359,3.051943870290402e-05,-0.0003986444842044
4.997,-3.137847305073411,0.2176581787478411,-0.2176566521348271,-0.0008152038309515,-0.0131411226529936,-0.1854576463579139,-0.0351296342650839,-0.0072479434940835,3.2707912209058565e-05,-0.0004375993843446
5.031,-3.138194994284304,0.2174191432752469,-0.2174178883235105,-0.0007387147540406,-0.0110280234031107,-0.0071782424202474,0.0634564339304165,-0.007239969977086,3.558547656682477e-05,-0.0003672331793235
5.064,-3.138577822221553,0.224115862936066,-0.2241148444189702,-0.0006756705101471,-0.0117381464067779,0.2011026925170904,-0.0213250151251403,-0.0074629536007792,3.951042913766082e-05,-0.0003908802753457
5.098,-3.138976962596585,0.2176887539072265,-0.2176880092119075,-0.00056940586362,-0.011659486292958,-0.1930062771423248,0.0023621655801775,-0.0072489183706589,4.120133258178912e-05,-0.0003882608935555
5.13,-3.1393912128568418,0.2178725843327689,-0.2178720563905302,-0.0004796331943323,-0.0120741001943778,0.0055204331994698,-0.0124508679105051,-0.0072550229601136,4.410305444438696e-05,-0.0004020675364727
5.165,-3.139526233587948,0.2246732183029285,-0.2246727386154854,-0.0004642689017682,-0.0034737266409171,0.2042232423471365,0.2582694760799005,-0.0074814679077736,4.741641822021266e-05,-0.0001156750971425
5.197,-3.1396491995107607,0.2182477927932229,-0.2182473806308947,-0.0004241542961376,-0.0035514231844064,-0.1929557210121808,-0.0023332295342126,-0.007267500098092,4.691042755668071e-05,-0.0001182623920407
5.23,-3.1396491995107607,0.2184249653824187,-0.218424552885499,-0.000424498622712,-0.0039104029468669,0.0053204981740482,-0.0107801730468605,-0.007273393932514,4.785215173935804e-05,-0.0001302164181306
5.264,-3.1397852768748105,0.2251997787166745,-0.2251994108967837,-0.0004070206146753,-0.0129300936431353,0.2034478478755489,-0.2708615824705239,-0.0074989761530242,5.1439037329891457e-05,-0.0004305721183164
5.298,-3.1402184088207608,0.2186602916604571,-0.2186600851851865,-0.0003004926674269,-0.0125856579620395,-0.1963809926792004,0.0103434138467199,-0.0072811944859757,5.303864699043871e-05,-0.0004191024101359
5.331,-3.140650963975971,0.2185725168668194,-0.2185724199540317,-0.0002058274385798,-0.0119280112181744,-0.0026358796888197,0.0197491514674225,-0.0072782494229224,5.5987997156423545e-05,-0.0003972027735652
5.365,-3.141050256546419,0.2249484384598534,-0.2249484053705516,-0.0001220113619497,-0.0038641500164722,0.1914691169079259,0.2421579940451092,-0.0074905459631724,5.959077101906558e-05,-0.0001286761955485
5.397,-3.1411114550346566,0.218025903671763,-0.2180258784295911,-0.0001049137457803,-0.0037412048363236,-0.2078839275702816,0.0036920474519117,-0.0072600254776858,5.8676263546373214e-05,-0.0001245821210495
5.43,-3.1410644294063284,0.2175167990122632,-0.2175167686664095,-0.000114897628205,-0.002974772274705,-0.0152884282132071,0.0230159928413978,-0.0072430662567183,5.934917810820654e-05,-9.905991674767911e-05
5.465,-3.141007404205157,0.2125711774738759,-0.2125711410692727,-0.0001244071437061,-0.0127434790927141,-0.1485171633149344,-0.2933545590993728,-0.0070783671162596,5.985224482054716e-05,-0.0004243578537873
5.497,-3.140980204116681,0.2058855716914242,-0.2058855330781673,-0.0001260945020208,-0.0026035750336702,-0.200768942415966,0.304501623394713,-0.0068557294163229,5.9721659779230544e-05,-8.669904862121935e-05
5.53,-3.14105247782612,0.2060088089653801,-0.2060087789097405,-0.0001112809602944,-0.0024580333963637,0.003700819037715,0.0043706197389345,-0.0068598280016134,6.033552505061295e-05,-8.18525120989122e-05
5.565,-3.1411628700257137,0.212402563056447,-0.2124025434395931,-9.128712775969388e-05,-0.0084320300869005,0.1920046273593657,-0.1793993000161221,-0.0070727203606961,6.349054072451484e-05,-0.0002807866018937
5.597,-3.141453696702283,0.2063330296652151,-0.2063330276731712,-2.86713955006068e-05,-0.0087151700254786,-0.182268270006963,-0.0085027008582001,-0.0068705951523216,6.363782314872502e-05,-0.0002902151618484
5.631,3.132184119574891,0.2065091017823445,-0.2064999617040254,0.0019429192435089,-0.0091055672533571,0.0052874509648465,-0.0117236404768312,-0.0068764388989686,6.573247511634369e-05,-0.0003032153895367
5.665,3.131880904185354,0.2244917767562155,-0.2244811900231397,0.0021801736072064,-0.0041583080810015,0.5400202694856143,0.1485663415121813,-0.0074752186757987,7.310727087671463e-05,-0.0001384716590973
5.698,3.1317424325262566,0.2183429096013755,-0.218332317124107,0.0021506911477026,-0.0012365246081512,-0.1846506653105089,0.0877412454309379,-0.0072704647803057,7.175791286652743e-05,-4.1176269451437264e-05
5.731,3.131701256256805,0.2185109718617518,-0.2185002824204386,0.0021613435996832,-0.001695869952069,0.0050469147260141,-0.0137941544720068,-0.0072760574656525,7.216839515781123e-05,-5.647246940390094e-05
5.764,3.1316447837874013,0.2003742785454673,-0.2003643640965447,0.0019932643587277,-0.0170224234508356,-0.5446454449334694,-0.4602568618248206,-0.00667211424658,6.825775575814573e-05,-0.0005668467009128
5.798,3.1310779370864883,0.1957379587176829,-0.1957271384951306,0.0020580912208547,-0.0128600895805586,-0.1392288236571865,0.1249950111194298,-0.0065176989321805,6.992123731736965e-05,-0.0004282409830326
5.831,3.130649696103456,0.1955644023100556,-0.1955526931727299,0.0021400102292854,-0.0123276956480813,-0.0052119041329548,0.015987805780098,-0.0065118899704491,7.259018052098783e-05,-0.0004105122650811
5.864,3.1302391838383747,0.2234697410770224,-0.2234553384644143,0.0025371024388989,-0.0078193665336612,0.8379981611701749,0.1353852586912932,-0.0074410518024379,8.544426314205757e-05,-0.0002603849055709
5.897,3.129978798932804,0.2179664471945402,-0.2179517475260167,0.0025313737309573,-0.0042468730237844,-0.165264080555019,0.1072820873836889,-0.0072577873220628,8.479817607688572e-05,-0.000141420871692
5.93,3.129837378061112,0.2180193880546921,-0.2180043245597736,0.0025628189517277,-0.0044600716374026,0.0015898156201762,-0.0064023607693154,-0.0072595377592606,8.587119294543328e-05,-0.0001485203855255
5.965,3.1296888576755864,0.2245736875359008,-0.2245577766379167,0.0026732162104692,-0.0006410807755583,0.1968258102465065,0.1146844102655946,-0.0074777731312426,8.908785078009791e-05,-2.134798982609265e-05
