Time,header.seq,header.stamp.secs,header.stamp.nsecs,header.frame_id,orientation.x,orientation.y,orientation.z,orientation.w,orientation_covariance_0,orientation_covariance_1,orientation_covariance_2,orientation_covariance_3,orientation_covariance_4,orientation_covariance_5,orientation_covariance_6,orientation_covariance_7,orientation_covariance_8,angular_velocity.x,angular_velocity.y,angular_velocity.z,angular_velocity_covariance_0,angular_velocity_covariance_1,angular_velocity_covariance_2,angular_velocity_covariance_3,angular_velocity_covariance_4,angular_velocity_covariance_5,angular_velocity_covariance_6,angular_velocity_covariance_7,angular_velocity_covariance_8,linear_acceleration.x,linear_acceleration.y,linear_acceleration.z,linear_acceleration_covariance_0,linear_acceleration_covariance_1,linear_acceleration_covariance_2,linear_acceleration_covariance_3,linear_acceleration_covariance_4,linear_acceleration_covariance_5,linear_acceleration_covariance_6,linear_acceleration_covariance_7,linear_acceleration_covariance_8
0.49000000000000005,0,0,490000000,base_footprint,0.00023437176027534518,0.0006646938770190796,-0.38258920212558367,0.9239182894979605,0.0,0.0,0.0,0.0,0.0,0.0,0.0,0.0,0.0,0.06780362266113044,0.0006465913158368482,-0.00031398344138495045,0.0,0.0,0.0,0.0,0.0,0.0,0.0,0.0,0.0,-4.155169507386192e-05,0.0001969001768852747,-0.03459463415062015,0.0,0.0,0.0,0.0,0.0,0.0,0.0,0.0,0.0
0.524,1,0,524000000,base_footprint,0.0006660823282407525,0.0017354503330500625,-0.3825920895648655,0.923915492644681,0.0,0.0,0.0,0.0,0.0,0.0,0.0,0.0,0.0,0.06773072028167983,0.0006478185073439807,-0.0004290957200917729,0.0,0.0,0.0,0.0,0.0,0.0,0.0,0.0,0.0,7.704182701808701e-05,0.00021264203870624863,0.00014446790486603639,0.0,0.0,0.0,0.0,0.0,0.0,0.0,0.0,0.0
0.558,2,0,558000000,base_footprint,0.0010972982905130243,0.002805012465062107,-0.3825946290545037,0.9239114014125918,0.0,0.0,0.0,0.0,0.0,0.0,0.0,0.0,0.0,0.06765352550917329,0.0006482950340244049,-0.000551384063259403,0.0,0.0,0.0,0.0,0.0,0.0,0.0,0.0,0.0,4.520402472020979e-06,0.00026707695476658983,0.0001524380287685814,0.0,0.0,0.0,0.0,0.0,0.0,0.0,0.0,0.0
0.5920000000000001,3,0,592000000,base_footprint,0.0015005996800197148,0.0036452450576745826,-0.3825986080693735,0.9239062536277409,0.0,0.0,0.0,0.0,0.0,0.0,0.0,0.0,0.0,0.003903647683962226,0.0003906179412269226,-0.0005909089361934912,0.0,0.0,0.0,0.0,0.0,0.0,0.0,0.0,0.0,0.02214545927058039,-0.008676376332822287,0.1269009549057083,0.0,0.0,0.0,0.0,0.0,0.0,0.0,0.0,0.0
0.626,4,0,626000000,base_footprint,0.0014711189802418935,0.0035712386599543997,-0.3826047804963079,0.9239040339801271,0.0,0.0,0.0,0.0,0.0,0.0,0.0,0.0,0.0,-0.0008533119100860879,-2.9827691338959886e-05,1.9137460602017586e-05,0.0,0.0,0.0,0.0,0.0,0.0,0.0,0.0,0.0,-0.02143815143708791,0.006810536831202672,0.005892603314572579,0.0,0.0,0.0,0.0,0.0,0.0,0.0,0.0,0.0
0.66,5,0,660000000,base_footprint,0.0014704948158139567,0.0035697230109954636,-0.3826026350674088,0.9239049292876927,0.0,0.0,0.0,0.0,0.0,0.0,0.0,0.0,0.0,-0.0001845937946102303,-3.419370400021082e-05,0.0002534429104090964,0.0,0.0,0.0,0.0,0.0,0.0,0.0,0.0,0.0,0.000458017135319212,9.444554670676723e-05,-0.0007757259215092503,0.0,0.0,0.0,0.0,0.0,0.0,0.0,0.0,0.0
0.6940000000000001,6,0,694000000,base_footprint,0.0014704121316973767,0.0035696542852701593,-0.38259831405931843,0.9239067190660614,0.0,0.0,0.0,0.0,0.0,0.0,0.0,0.0,0.0,-0.00017760790899561644,-3.417129738163519e-05,0.00031776546299157885,0.0,0.0,0.0,0.0,0.0,0.0,0.0,0.0,0.0,0.00012454981875278874,1.6448021193815592e-05,-1.424873586756559e-05,0.0,0.0,0.0,0.0,0.0,0.0,0.0,0.0,0.0
0.7280000000000001,7,0,728000000,base_footprint,0.0014703684160963786,0.0035696404587432385,-0.38259346949007755,0.923908725355087,0.0,0.0,0.0,0.0,0.0,0.0,0.0,0.0,0.0,-0.00017506344952000896,-3.463242170310229e-05,0.00033329289787672816,0.0,0.0,0.0,0.0,0.0,0.0,0.0,0.0,0.0,3.00899871323327e-05,3.983497280028757e-06,-4.253437738561056e-06,0.0,0.0,0.0,0.0,0.0,0.0,0.0,0.0,0.0
0.761,8,0,762000000,base_footprint,0.0014703376517855508,0.00356964565670318,-0.3825884964354295,0.9239107847256427,0.0,0.0,0.0,0.0,0.0,0.0,0.0,0.0,0.0,-0.00017440209483872765,-3.4771293723189206e-05,0.00033713001335281104,0.0,0.0,0.0,0.0,0.0,0.0,0.0,0.0,0.0,7.434435804398545e-06,9.531028769385837e-07,-1.0035929611325723e-06,0.0,0.0,0.0,0.0,0.0,0.0,0.0,0.0,0.0
0.796,9,0,796000000,base_footprint,0.0014703105730766008,0.003569655174173768,-0.3825834916249902,0.9239128571920554,0.0,0.0,0.0,0.0,0.0,0.0,0.0,0.0,0.0,-0.00017424114740169602,-3.484321811755138e-05,0.00033808398678804254,0.0,0.0,0.0,0.0,0.0,0.0,0.0,0.0,0.0,1.850074158664232e-06,2.544596214187841e-07,-2.4763157070580696e-07,0.0,0.0,0.0,0.0,0.0,0.0,0.0,0.0,0.0
0.8300000000000001,10,0,830000000,base_footprint,0.0014702848695545172,0.003569665566586379,-0.38257847885531754,0.9239149329169306,0.0,0.0,0.0,0.0,0.0,0.0,0.0,0.0,0.0,-0.0001742023145442277,-3.489548897368965e-05,0.0003383289147627861,0.0,0.0,0.0,0.0,0.0,0.0,0.0,0.0,0.0,4.765941032207858e-07,8.259058170513965e-08,-6.362119521501864e-08,0.0,0.0,0.0,0.0,0.0,0.0,0.0,0.0,0.0
0.8640000000000001,11,0,864000000,base_footprint,0.0014702599284934258,0.0035696760028297156,-0.38257346397981107,0.9239170094805407,0.0,0.0,0.0,0.0,0.0,0.0,0.0,0.0,0.0,-0.00017419356250872488,-3.4940283747397195e-05,0.0003383994597284046,0.0,0.0,0.0,0.0,0.0,0.0,0.0,0.0,0.0,1.386861526269806e-07,4.0258969426641764e-08,-1.900692633830696e-08,0.0,0.0,0.0,0.0,0.0,0.0,0.0,0.0,0.0
0.898,12,0,898000000,base_footprint,0.0014702355597513057,0.003569686294420391,-0.3825684484382837,0.9239190862876916,0.0,0.0,0.0,0.0,0.0,0.0,0.0,0.0,0.0,-0.0001741922225426469,-3.498084124120079e-05,0.00033842713614864073,0.0,0.0,0.0,0.0,0.0,0.0,0.0,0.0,0.0,5.551455750233089e-08,2.9801591391483884e-08,-8.64817973954177e-09,0.0,0.0,0.0,0.0,0.0,0.0,0.0,0.0,0.0
0.932,13,0,932000000,base_footprint,0.0014702116807840868,0.0035696964094432456,-0.38256343258488557,0.9239211631919836,0.0,0.0,0.0,0.0,0.0,0.0,0.0,0.0,0.0,-0.00017419271807888212,-3.501818065683704e-05,0.00033844429159392465,0.0,0.0,0.0,0.0,0.0,0.0,0.0,0.0,0.0,3.5007889009867205e-08,2.7190250426708035e-08,-6.658007878014557e-09,0.0,0.0,0.0,0.0,0.0,0.0,0.0,0.0,0.0
0.9660000000000001,14,0,966000000,base_footprint,0.0014701882388350204,0.0035697063531531193,-0.38255841650671785,0.9239232401574101,0.0,0.0,0.0,0.0,0.0,0.0,0.0,0.0,0.0,-0.0001741936763043078,-3.505275474002393e-05,0.00033845888061173027,0.0,0.0,0.0,0.0,0.0,0.0,0.0,0.0,0.0,2.9919767280108635e-08,2.6513001223583297e-08,-6.674641556296774e-09,0.0,0.0,0.0,0.0,0.0,0.0,0.0,0.0,0.0
0.9990000000000001,15,1,0,base_footprint,0.0014701651914869518,0.0035697161387307362,-0.3825534002251939,0.9239253171751175,0.0,0.0,0.0,0.0,0.0,0.0,0.0,0.0,0.0,-0.00017419475875398073,-3.5084858232636364e-05,0.0003384728579305522,0.0,0.0,0.0,0.0,0.0,0.0,0.0,0.0,0.0,2.8628481785708e-08,2.6315033183013265e-08,-7.137705448274716e-09,0.0,0.0,0.0,0.0,0.0,0.0,0.0,0.0,0.0
1.034,16,1,34000000,base_footprint,0.001470142501599168,0.0035697257802028044,-0.3825483837455705,0.9239273942429304,0.0,0.0,0.0,0.0,0.0,0.0,0.0,0.0,0.0,-0.00017419588104583731,-3.511472974869853e-05,0.0003384867024684279,0.0,0.0,0.0,0.0,0.0,0.0,0.0,0.0,0.0,2.82746347315235e-08,2.6238069002984367e-08,-7.668333648237696e-09,0.0,0.0,0.0,0.0,0.0,0.0,0.0,0.0,0.0
1.068,17,1,68000000,base_footprint,0.00147012013580837,0.0035697352908025237,-0.3825433670691303,0.9239294713603157,0.0,0.0,0.0,0.0,0.0,0.0,0.0,0.0,0.0,-0.0001741970216469056,-3.5142579049752514e-05,0.00033850053054939255,0.0,0.0,0.0,0.0,0.0,0.0,0.0,0.0,0.0,2.815504514541668e-08,2.619373097539245e-08,-8.176895266390185e-09,0.0,0.0,0.0,0.0,0.0,0.0,0.0,0.0,0.0
1.102,18,1,102000000,base_footprint,0.0014700980639295075,0.003569744682659753,-0.3825383501961793,0.9239315485271452,0.0,0.0,0.0,0.0,0.0,0.0,0.0,0.0,0.0,-0.00017419817457909302,-3.516859436894468e-05,0.000338514369213782,0.0,0.0,0.0,0.0,0.0,0.0,0.0,0.0,0.0,2.8095939776062015e-08,2.6159928605289265e-08,-8.644948527263755e-09,0.0,0.0,0.0,0.0,0.0,0.0,0.0,0.0,0.0
1.1360000000000001,19,1,136000000,base_footprint,0.0014700762585997964,0.00356975396680884,-0.3825333331267831,0.9239336257433887,0.0,0.0,0.0,0.0,0.0,0.0,0.0,0.0,0.0,-0.0001741993374370315,-3.5192946159550174e-05,0.0003385282238797086,0.0,0.0,0.0,0.0,0.0,0.0,0.0,0.0,0.0,2.8054693668067525e-08,2.6131063360022038e-08,-9.071562198029083e-09,0.0,0.0,0.0,0.0,0.0,0.0,0.0,0.0,0.0
1.17,20,1,170000000,base_footprint,0.0014700546950016278,0.0035697631532671994,-0.3825283158609486,0.9239357030090404,0.0,0.0,0.0,0.0,0.0,0.0,0.0,0.0,0.0,-0.0001742005093479774,-3.5215789041658746e-05,0.000338542094603297,0.0,0.0,0.0,0.0,0.0,0.0,0.0,0.0,0.0,2.8020236682345448e-08,2.6105459349762273e-08,-9.45893182334632e-09,0.0,0.0,0.0,0.0,0.0,0.0,0.0,0.0,0.0
1.204,21,1,204000000,base_footprint,0.001470033350622639,0.0035697722511238562,-0.38252329839866867,0.9239377803241007,0.0,0.0,0.0,0.0,0.0,0.0,0.0,0.0,0.0,-0.00017420168923404562,-3.523726311221888e-05,0.0003385559803271811,0.0,0.0,0.0,0.0,0.0,0.0,0.0,0.0,0.0,2.798978987655166e-08,2.6082554116136985e-08,-9.810521678830788e-09,0.0,0.0,0.0,0.0,0.0,0.0,0.0,0.0,0.0
1.238,22,1,238000000,base_footprint,0.0014700122050407514,0.003569781268624631,-0.3825182807399326,0.9239398576885712,0.0,0.0,0.0,0.0,0.0,0.0,0.0,0.0,0.0,-0.0001742028763125274,-3.525749548715119e-05,0.00033856987983690824,0.0,0.0,0.0,0.0,0.0,0.0,0.0,0.0,0.0,2.7962485045062776e-08,2.6062031436288674e-08,-1.012977943628919e-08,0.0,0.0,0.0,0.0,0.0,0.0,0.0,0.0,0.0
1.272,23,1,272000000,base_footprint,0.0014699912397299411,0.0035697902132497536,-0.3825132628847293,0.9239419351024536,0.0,0.0,0.0,0.0,0.0,0.0,0.0,0.0,0.0,-0.0001742040701285672,-3.5276601553815806e-05,0.0003385837919479276,0.0,0.0,0.0,0.0,0.0,0.0,0.0,0.0,0.0,2.7937870654290752e-08,2.6043627996331023e-08,-1.0419369668116903e-08,0.0,0.0,0.0,0.0,0.0,0.0,0.0,0.0,0.0
1.306,24,1,306000000,base_footprint,0.001469970437883967,0.0035697990917847233,-0.3825082448330482,0.923944012565749,0.0,0.0,0.0,0.0,0.0,0.0,0.0,0.0,0.0,-0.00017420526993164169,-3.5294685850378075e-05,0.0003385977154938192,0.0,0.0,0.0,0.0,0.0,0.0,0.0,0.0,0.0,2.791551595185611e-08,2.6027128536092277e-08,-1.0682155857799159e-08,0.0,0.0,0.0,0.0,0.0,0.0,0.0,0.0,0.0
1.34,25,1,340000000,base_footprint,0.001469949784257079,0.0035698079103853673,-0.382503226584878,0.9239460900784592,0.0,0.0,0.0,0.0,0.0,0.0,0.0,0.0,0.0,-0.00017420647518214363,-3.531184339045905e-05,0.00033861164953482263,0.0,0.0,0.0,0.0,0.0,0.0,0.0,0.0,0.0,2.7895444639907705e-08,2.6012374759690174e-08,-1.0920717072635475e-08,0.0,0.0,0.0,0.0,0.0,0.0,0.0,0.0,0.0
1.374,26,1,374000000,base_footprint,0.001469929265018683,0.003569816674635634,-0.3824982081402081,0.9239481676405854,0.0,0.0,0.0,0.0,0.0,0.0,0.0,0.0,0.0,-0.000174207685438012,-3.532816019589506e-05,0.0003386255930752602,0.0,0.0,0.0,0.0,0.0,0.0,0.0,0.0,0.0,2.7877160256838538e-08,2.5999163538664332e-08,-1.1137231022343574e-08,0.0,0.0,0.0,0.0,0.0,0.0,0.0,0.0,0.0
1.408,27,1,408000000,base_footprint,0.0014699088676223121,0.0035698253896011755,-0.3824931894990281,0.923950245252129,0.0,0.0,0.0,0.0,0.0,0.0,0.0,0.0,0.0,-0.00017420890023763712,-3.5343714332569425e-05,0.00033863954537886637,0.0,0.0,0.0,0.0,0.0,0.0,0.0,0.0,0.0,2.78608233047682e-08,2.5987393380409027e-08,-1.133346742637485e-08,0.0,0.0,0.0,0.0,0.0,0.0,0.0,0.0,0.0
1.442,28,1,442000000,base_footprint,0.0014698885806862774,0.003569834059877344,-0.38248817066132734,0.9239523229130909,0.0,0.0,0.0,0.0,0.0,0.0,0.0,0.0,0.0,-0.00017421011903893697,-3.5358576760533555e-05,0.00033865350561064435,0.0,0.0,0.0,0.0,0.0,0.0,0.0,0.0,0.0,2.7845931047607495e-08,2.5976882510408684e-08,-1.151204256969217e-08,0.0,0.0,0.0,0.0,0.0,0.0,0.0,0.0,0.0
1.476,29,1,476000000,base_footprint,0.0014698683938855392,0.003569842689632731,-0.38248315162709573,0.9239544006234726,0.0,0.0,0.0,0.0,0.0,0.0,0.0,0.0,0.0,-0.00017421134167485333,-3.5372811668939376e-05,0.0003386674730912317,0.0,0.0,0.0,0.0,0.0,0.0,0.0,0.0,0.0,2.783249493224358e-08,2.5967521674699307e-08,-1.1673705696605494e-08,0.0,0.0,0.0,0.0,0.0,0.0,0.0,0.0,0.0
1.51,30,1,510000000,base_footprint,0.0014698482978534673,0.0035698512826488355,-0.382478132396323,0.9239564783832742,0.0,0.0,0.0,0.0,0.0,0.0,0.0,0.0,0.0,-0.00017421256762206288,-3.5386477370302965e-05,0.00033868144730524554,0.0,0.0,0.0,0.0,0.0,0.0,0.0,0.0,0.0,2.7820578652490363e-08,2.595924249714381e-08,-1.182064602900601e-08,0.0,0.0,0.0,0.0,0.0,0.0,0.0,0.0,0.0
1.544,31,1,544000000,base_footprint,0.0014675646166093786,0.003565162490909966,-0.3825059974555097,0.9239449646927436,0.0,0.0,0.0,0.0,0.0,0.0,0.0,0.0,0.0,-0.0007411438856219233,-3.865598546712659e-06,-0.00794422261308934,0.0,0.0,0.0,0.0,0.0,0.0,0.0,0.0,0.0,0.0007244077866849497,-0.3502598038668261,-0.001395843591504991,0.0,0.0,0.0,0.0,0.0,0.0,0.0,0.0,0.0
1.578,32,1,578000000,base_footprint,0.0014687545382403217,0.003565216308783619,-0.382771879498765,0.92383484468695,0.0,0.0,0.0,0.0,0.0,0.0,0.0,0.0,0.0,-1.60323759327507e-05,9.47506697056429e-05,-0.025390224155887608,0.0,0.0,0.0,0.0,0.0,0.0,0.0,0.0,0.0,-0.0007180462492423767,-0.747233259052528,-0.00495309268914052,0.0,0.0,0.0,0.0,0.0,0.0,0.0,0.0,0.0
1.612,33,1,612000000,base_footprint,0.001471017631978807,0.003564965070844549,-0.38331118305698103,0.9236112082876797,0.0,0.0,0.0,0.0,0.0,0.0,0.0,0.0,0.0,-9.209606038671292e-05,0.00019050184528606706,-0.042832070855991174,0.0,0.0,0.0,0.0,0.0,0.0,0.0,0.0,0.0,-0.0032616881690306077,-0.7494764569298584,-0.004100741911315616,0.0,0.0,0.0,0.0,0.0,0.0,0.0,0.0,0.0
1.646,34,1,646000000,base_footprint,0.0014745395393653252,0.0035648051766032822,-0.3841240901680853,0.9232734163018778,0.0,0.0,0.0,0.0,0.0,0.0,0.0,0.0,0.0,-7.468668193568903e-05,0.0002866309792695241,-0.06022819099686011,0.0,0.0,0.0,0.0,0.0,0.0,0.0,0.0,0.0,-0.007900375388847247,-0.7435137265932132,-0.004146898870618002,0.0,0.0,0.0,0.0,0.0,0.0,0.0,0.0,0.0
1.681,35,1,680000000,base_footprint,0.0014792629415622581,0.003564594389502445,-0.3852076643690949,0.9228218467067709,0.0,0.0,0.0,0.0,0.0,0.0,0.0,0.0,0.0,-0.0001463253922418142,0.00038042502707283344,-0.07731059695854177,0.0,0.0,0.0,0.0,0.0,0.0,0.0,0.0,0.0,-0.01404070079054992,-0.7216616167147174,-0.003902845989803746,0.0,0.0,0.0,0.0,0.0,0.0,0.0,0.0,0.0
1.714,36,1,714000000,base_footprint,0.001485123902709559,0.003564212141893988,-0.3865531750086627,0.9222590382802022,0.0,0.0,0.0,0.0,0.0,0.0,0.0,0.0,0.0,-0.00018825431297286649,0.0004672084290542847,-0.09363536611363775,0.0,0.0,0.0,0.0,0.0,0.0,0.0,0.0,0.0,-0.021164812955594303,-0.6707403638716837,-0.0036275082357282214,0.0,0.0,0.0,0.0,0.0,0.0,0.0,0.0,0.0
1.748,37,1,748000000,base_footprint,0.00149204289059984,0.0035638110483936637,-0.38813969639646134,0.9215924528445787,0.0,0.0,0.0,0.0,0.0,0.0,0.0,0.0,0.0,-0.0005904489813557829,0.0005585066071655698,-0.10788615907536447,0.0,0.0,0.0,0.0,0.0,0.0,0.0,0.0,0.0,-0.02742970879075629,-0.5820124068663021,-0.002682308856084408,0.0,0.0,0.0,0.0,0.0,0.0,0.0,0.0,0.0
1.782,38,1,782000000,base_footprint,0.0014996955935406206,0.003563089452690602,-0.38991395275718327,0.9208431814114432,0.0,0.0,0.0,0.0,0.0,0.0,0.0,0.0,0.0,-0.0007070814481176548,0.0006114080940762493,-0.1174836723832863,0.0,0.0,0.0,0.0,0.0,0.0,0.0,0.0,0.0,-0.031697112331153354,-0.4499055360009739,-0.0022282389631562375,0.0,0.0,0.0,0.0,0.0,0.0,0.0,0.0,0.0
1.816,39,1,816000000,base_footprint,0.0015076394403236689,0.003561635008864623,-0.3917889861930942,0.920046972755831,0.0,0.0,0.0,0.0,0.0,0.0,0.0,0.0,0.0,-0.0008771785125685238,0.0006232948531571915,-0.12100168424382766,0.0,0.0,0.0,0.0,0.0,0.0,0.0,0.0,0.0,-0.0340337182166454,-0.2850472360084068,-0.0010959287462263074,0.0,0.0,0.0,0.0,0.0,0.0,0.0,0.0,0.0
1.85,40,1,850000000,base_footprint,0.001513943984371786,0.0035570579505859665,-0.39366427047344055,0.9192461571662741,0.0,0.0,0.0,0.0,0.0,0.0,0.0,0.0,0.0,-0.0009614422693839719,0.0007243743573409752,-0.11772069970013177,0.0,0.0,0.0,0.0,0.0,0.0,0.0,0.0,0.0,-0.03622056502159794,-0.09196911691285946,-3.970239769376344e-05,0.0,0.0,0.0,0.0,0.0,0.0,0.0,0.0,0.0
1.884,41,1,884000000,base_footprint,0.0015160170032032546,0.0035354053441586856,-0.3955277278837023,0.9184459804891383,0.0,0.0,0.0,0.0,0.0,0.0,0.0,0.0,0.0,-0.00037251965616408365,0.0009108149530918654,-0.1274792796705139,0.0,0.0,0.0,0.0,0.0,0.0,0.0,0.0,0.0,0.009692696001804512,0.02779056799175811,-0.0018435637697649728,0.0,0.0,0.0,0.0,0.0,0.0,0.0,0.0,0.0
1.9180000000000001,42,1,918000000,base_footprint,0.0015252389482590851,0.0035380276231782434,-0.39772227879082017,0.917497762918322,0.0,0.0,0.0,0.0,0.0,0.0,0.0,0.0,0.0,-0.000818187580288165,0.0008697556062276966,-0.15357345832557362,0.0,0.0,0.0,0.0,0.0,0.0,0.0,0.0,0.0,-0.04574743392300473,-0.1257227658900059,0.0005850756104481879,0.0,0.0,0.0,0.0,0.0,0.0,0.0,0.0,0.0
1.952,43,1,952000000,base_footprint,0.0015352406619994405,0.003534885944691222,-0.4003520495686317,0.9163533074222321,0.0,0.0,0.0,0.0,0.0,0.0,0.0,0.0,0.0,-0.0011572307149780702,0.0010280140114137773,-0.18319819619474678,0.0,0.0,0.0,0.0,0.0,0.0,0.0,0.0,0.0,-0.056919132114925525,-0.28880233078901374,-0.0009455802348630508,0.0,0.0,0.0,0.0,0.0,0.0,0.0,0.0,0.0
1.9860000000000002,44,1,986000000,base_footprint,0.0015445137192478461,0.0035416531048166363,-0.4033305693069278,0.915046186284171,0.0,0.0,0.0,0.0,0.0,0.0,0.0,0.0,0.0,-0.0013680146260361685,0.0009201177601555865,-0.1703682948685185,0.0,0.0,0.0,0.0,0.0,0.0,0.0,0.0,0.0,-0.06907538558177298,-0.3629080164928137,-0.0013768419178525576,0.0,0.0,0.0,0.0,0.0,0.0,0.0,0.0,0.0
2.02,45,2,20000000,base_footprint,0.0015514739104514877,0.0035344811355098203,-0.40493118795037103,0.9143390144781689,0.0,0.0,0.0,0.0,0.0,0.0,0.0,0.0,0.0,-0.0007410839472259353,0.0005216836598425367,-0.03465196205902624,0.0,0.0,0.0,0.0,0.0,0.0,0.0,0.0,0.0,-0.053453772771138434,-0.2804905979350738,-0.000610900823332315,0.0,0.0,0.0,0.0,0.0,0.0,0.0,0.0,0.0
2.054,46,2,54000000,base_footprint,0.001560652612710088,0.003542680476874755,-0.4052764349773676,0.9141859903928177,0.0,0.0,0.0,0.0,0.0,0.0,0.0,0.0,0.0,-0.0010325519300726984,0.00018982204362128646,-0.017944102696406204,0.0,0.0,0.0,0.0,0.0,0.0,0.0,0.0,0.0,0.06436870266043501,0.6919580064972959,0.003437496614700328,0.0,0.0,0.0,0.0,0.0,0.0,0.0,0.0,0.0
2.088,47,2,88000000,base_footprint,0.0015568703563491409,0.003532007183215015,-0.40532100399192517,0.914166278530842,0.0,0.0,0.0,0.0,0.0,0.0,0.0,0.0,0.0,0.0022857696833327164,-0.00019999388494819272,-0.010525822196466665,0.0,0.0,0.0,0.0,0.0,0.0,0.0,0.0,0.0,-0.037223835297153965,-0.3733136436429309,-0.005592267378219299,0.0,0.0,0.0,0.0,0.0,0.0,0.0,0.0,0.0
2.122,48,2,122000000,base_footprint,0.0015580330149958701,0.0035334882992110214,-0.4055370916765226,0.9140704317874588,0.0,0.0,0.0,0.0,0.0,0.0,0.0,0.0,0.0,-0.00024701658747760424,7.2477888255981e-05,-0.014700400440301045,0.0,0.0,0.0,0.0,0.0,0.0,0.0,0.0,0.0,-0.005424626882075937,-0.01778587896978546,0.0027388665675506354,0.0,0.0,0.0,0.0,0.0,0.0,0.0,0.0,0.0
2.156,49,2,156000000,base_footprint,0.0015602623096328755,0.0035341986615315237,-0.4060185926538558,0.9138566503783448,0.0,0.0,0.0,0.0,0.0,0.0,0.0,0.0,0.0,0.00018887640226570977,0.0003537819552617029,-0.05289007232721182,0.0,0.0,0.0,0.0,0.0,0.0,0.0,0.0,0.0,-0.04087234549386187,-0.3567330868582131,-0.0029747581927760764,0.0,0.0,0.0,0.0,0.0,0.0,0.0,0.0,0.0
2.19,50,2,190000000,base_footprint,0.0015640597700432508,0.003536838578729373,-0.40683664856309676,0.9134927399141447,0.0,0.0,0.0,0.0,0.0,0.0,0.0,0.0,0.0,-0.00020931516310187704,0.0003244591396661983,-0.05277286095092014,0.0,0.0,0.0,0.0,0.0,0.0,0.0,0.0,0.0,-0.013631370947389436,-0.0008051833328242284,0.0007197813540860908,0.0,0.0,0.0,0.0,0.0,0.0,0.0,0.0,0.0
2.224,51,2,224000000,base_footprint,0.0015688633603265377,0.0035403450169441105,-0.4076563818310325,0.9131271975893333,0.0,0.0,0.0,0.0,0.0,0.0,0.0,0.0,0.0,-0.00017709646639770435,0.0003069157086114552,-0.05268538352645433,0.0,0.0,0.0,0.0,0.0,0.0,0.0,0.0,0.0,-0.012613181993091162,-0.0024977643795869794,-0.00014122121803663822,0.0,0.0,0.0,0.0,0.0,0.0,0.0,0.0,0.0
2.258,52,2,258000000,base_footprint,0.0015750102837172174,0.0035414126321787814,-0.408814624812776,0.9126092155344281,0.0,0.0,0.0,0.0,0.0,0.0,0.0,0.0,0.0,-0.00041582067364750845,0.00041771621345612685,-0.07767829979614099,0.0,0.0,0.0,0.0,0.0,0.0,0.0,0.0,0.0,-0.01731332255887134,-0.0038445861160204793,0.00015677729973852006,0.0,0.0,0.0,0.0,0.0,0.0,0.0,0.0,0.0
2.292,53,2,292000000,base_footprint,0.0015808566067340086,0.003540609383491759,-0.41000977071065253,0.9120728879313214,0.0,0.0,0.0,0.0,0.0,0.0,0.0,0.0,0.0,-0.0005168346822369966,0.00040619392743300464,-0.07632142699237003,0.0,0.0,0.0,0.0,0.0,0.0,0.0,0.0,0.0,-0.01711273272588718,0.009610104151784395,0.0003622012348831258,0.0,0.0,0.0,0.0,0.0,0.0,0.0,0.0,0.0
2.326,54,2,326000000,base_footprint,0.0015860745222294075,0.0035335001407625476,-0.4111628439884263,0.9115536816160167,0.0,0.0,0.0,0.0,0.0,0.0,0.0,0.0,0.0,-0.001088716335875988,5.015477571250964e-05,-0.07070317006258026,0.0,0.0,0.0,0.0,0.0,0.0,0.0,0.0,0.0,-0.012253482146378749,0.02340417899720777,0.001387209270391617,0.0,0.0,0.0,0.0,0.0,0.0,0.0,0.0,0.0
2.36,55,2,360000000,base_footprint,0.001583007828010436,0.0035242412714990394,-0.41191788777659755,0.9112127784109172,0.0,0.0,0.0,0.0,0.0,0.0,0.0,0.0,0.0,0.0004676988825381257,0.00047499818879938056,-0.0268698121670979,0.0,0.0,0.0,0.0,0.0,0.0,0.0,0.0,0.0,0.011857946114034377,0.10787104126183149,-0.0022287538217184094,0.0,0.0,0.0,0.0,0.0,0.0,0.0,0.0,0.0
2.394,56,2,394000000,base_footprint,0.0015819856881790601,0.0035306382788922934,-0.41242971313806287,0.9109812092658559,0.0,0.0,0.0,0.0,0.0,0.0,0.0,0.0,0.0,-0.00014869547099491712,-0.0006033671022277982,-0.029526175252880017,0.0,0.0,0.0,0.0,0.0,0.0,0.0,0.0,0.0,-0.012924343290995023,-0.016136610096080084,0.0007630525112025186,0.0,0.0,0.0,0.0,0.0,0.0,0.0,0.0,0.0
2.428,57,2,428000000,base_footprint,0.0015902120512325,0.0035328704869303147,-0.4126110010813487,0.9108990898219199,0.0,0.0,0.0,0.0,0.0,0.0,0.0,0.0,0.0,-0.0006109146574982188,0.00047557260596384156,-0.0011944334908874587,0.0,0.0,0.0,0.0,0.0,0.0,0.0,0.0,0.0,-0.015110070074208075,-0.0655752042709387,0.0014734478658313135,0.0,0.0,0.0,0.0,0.0,0.0,0.0,0.0,0.0
2.462,58,2,462000000,base_footprint,0.0015879824660199628,0.003529296943127878,-0.41232343070935784,0.9110293139426636,0.0,0.0,0.0,0.0,0.0,0.0,0.0,0.0,0.0,-0.003475421722699653,-0.0010621810382418356,0.029965896734332278,0.0,0.0,0.0,0.0,0.0,0.0,0.0,0.0,0.0,0.09081138318989904,0.6710054992871068,0.007885695068140849,0.0,0.0,0.0,0.0,0.0,0.0,0.0,0.0,0.0
2.496,59,2,496000000,base_footprint,0.0015846914309049275,0.0035267455646137307,-0.41209108013748696,0.9111344535741752,0.0,0.0,0.0,0.0,0.0,0.0,0.0,0.0,0.0,-0.00021339787719421496,-0.0002343074571236355,0.014782818595013259,0.0,0.0,0.0,0.0,0.0,0.0,0.0,0.0,0.0,0.0034365436863961017,0.006163478345375434,-0.004849997480251366,0.0,0.0,0.0,0.0,0.0,0.0,0.0,0.0,0.0
2.5300000000000002,60,2,530000000,base_footprint,0.0015801120900796669,0.003518896008251502,-0.41186575846281653,0.9112363675921384,0.0,0.0,0.0,0.0,0.0,0.0,0.0,0.0,0.0,-0.00633394470853338,0.0008854276221766553,0.012866280612795496,0.0,0.0,0.0,0.0,0.0,0.0,0.0,0.0,0.0,-0.004383726761444523,-0.051306340940632106,0.00848502109440929,0.0,0.0,0.0,0.0,0.0,0.0,0.0,0.0,0.0
2.564,61,2,564000000,base_footprint,0.0015820137022307815,0.00351959431594837,-0.41196822157860785,0.9111900427999948,0.0,0.0,0.0,0.0,0.0,0.0,0.0,0.0,0.0,-0.0002557102632651278,0.00043137945338862066,-0.050435121455823954,0.0,0.0,0.0,0.0,0.0,0.0,0.0,0.0,0.0,-0.08108480860422718,-0.6276762903996213,-0.01202674286275047,0.0,0.0,0.0,0.0,0.0,0.0,0.0,0.0,0.0
2.598,62,2,598000000,base_footprint,0.001585684455506553,0.0035212409727542584,-0.41289093685813727,0.9107722880760203,0.0,0.0,0.0,0.0,0.0,0.0,0.0,0.0,0.0,-0.0004621215350508288,0.0003438669380448019,-0.06008641963261267,0.0,0.0,0.0,0.0,0.0,0.0,0.0,0.0,0.0,-0.016993016793268784,-0.030946569309746902,-0.0002163035814100499,0.0,0.0,0.0,0.0,0.0,0.0,0.0,0.0,0.0
2.632,63,2,632000000,base_footprint,0.0015930747620137053,0.0035257377552652142,-0.4138259815899443,0.9103477842271066,0.0,0.0,0.0,0.0,0.0,0.0,0.0,0.0,0.0,0.0009206503217903091,-0.00024244212804761778,-0.06264345779311996,0.0,0.0,0.0,0.0,0.0,0.0,0.0,0.0,0.0,0.0021740288342241426,0.10484237328733026,-0.0008863223760384835,0.0,0.0,0.0,0.0,0.0,0.0,0.0,0.0,0.0
2.666,64,2,666000000,base_footprint,0.0015935027391335932,0.0035224938041042123,-0.4147533397391369,0.9099256672726913,0.0,0.0,0.0,0.0,0.0,0.0,0.0,0.0,0.0,-0.0002681816350918838,0.0002922003458022038,-0.05969335956666886,0.0,0.0,0.0,0.0,0.0,0.0,0.0,0.0,0.0,0.01728175268090998,0.22574091037886151,0.002291042614532067,0.0,0.0,0.0,0.0,0.0,0.0,0.0,0.0,0.0
2.7,65,2,700000000,base_footprint,0.0015980397881090395,0.003525896721525135,-0.41567655922939817,0.909504267405246,0.0,0.0,0.0,0.0,0.0,0.0,0.0,0.0,0.0,-0.00018573913029548277,0.0003969192800503631,-0.05962596917554017,0.0,0.0,0.0,0.0,0.0,0.0,0.0,0.0,0.0,-0.013416438671280537,-0.00222546910240729,-0.0002316610376777448,0.0,0.0,0.0,0.0,0.0,0.0,0.0,0.0,0.0
2.734,66,2,734000000,base_footprint,0.0016021761988713724,0.003522961624956914,-0.41658169924111926,0.909090044841653,0.0,0.0,0.0,0.0,0.0,0.0,0.0,0.0,0.0,-0.0038650514338406743,0.0004219982193657348,-0.05207043285077134,0.0,0.0,0.0,0.0,0.0,0.0,0.0,0.0,0.0,-0.02504831538069776,-0.08426794036853336,0.005732945996593141,0.0,0.0,0.0,0.0,0.0,0.0,0.0,0.0,0.0
2.768,67,2,768000000,base_footprint,0.0016087394819262444,0.003520398023765289,-0.41755598731286103,0.9086429530977586,0.0,0.0,0.0,0.0,0.0,0.0,0.0,0.0,0.0,-0.0005078073199569464,0.0003825978032037957,-0.09139209042549293,0.0,0.0,0.0,0.0,0.0,0.0,0.0,0.0,0.0,-0.04896062497002899,-0.2311592409729587,-0.006808529438411231,0.0,0.0,0.0,0.0,0.0,0.0,0.0,0.0,0.0
2.802,68,2,802000000,base_footprint,0.0016170978737262939,0.0035222056373090025,-0.41911854483867855,0.907923248096569,0.0,0.0,0.0,0.0,0.0,0.0,0.0,0.0,0.0,-0.0009288235621735851,0.00027973516595690775,-0.09973690093778237,0.0,0.0,0.0,0.0,0.0,0.0,0.0,0.0,0.0,-0.026009723578421358,-0.016446830054886348,0.0004955780064300779,0.0,0.0,0.0,0.0,0.0,0.0,0.0,0.0,0.0
2.8360000000000003,69,2,836000000,base_footprint,0.0016203298427372244,0.0035192249597577685,-0.4205035062794664,0.9072826410736392,0.0,0.0,0.0,0.0,0.0,0.0,0.0,0.0,0.0,-0.0038183664273960223,0.0017907341285077643,-0.06964273637386081,0.0,0.0,0.0,0.0,0.0,0.0,0.0,0.0,0.0,-0.004395988432492878,0.06715701349637182,0.005264748742309199,0.0,0.0,0.0,0.0,0.0,0.0,0.0,0.0,0.0
2.87,70,2,870000000,base_footprint,0.0016190913754071485,0.0035186173723522093,-0.4213661691744213,0.9068823238712826,0.0,0.0,0.0,0.0,0.0,0.0,0.0,0.0,0.0,-0.0011070989817643343,0.0011326862751796563,-0.06624248917503966,0.0,0.0,0.0,0.0,0.0,0.0,0.0,0.0,0.0,-0.004191535119273736,0.07115930688863667,-0.0034392035852746916,0.0,0.0,0.0,0.0,0.0,0.0,0.0,0.0,0.0
2.904,71,2,904000000,base_footprint,0.0016177476834999408,0.0035100889241224524,-0.42218919635427044,0.906499500634122,0.0,0.0,0.0,0.0,0.0,0.0,0.0,0.0,0.0,-0.0006423872925750689,0.00023183031686761638,-0.03894577850698685,0.0,0.0,0.0,0.0,0.0,0.0,0.0,0.0,0.0,-0.019892404362898245,-0.04377949875545352,-0.0011167392578222705,0.0,0.0,0.0,0.0,0.0,0.0,0.0,0.0,0.0
2.938,72,2,938000000,base_footprint,0.0016260235952420981,0.0035110282852360373,-0.42254113433660245,0.9063354889450073,0.0,0.0,0.0,0.0,0.0,0.0,0.0,0.0,0.0,-0.0029051619635891224,0.0013834203490298224,-0.00444586848472364,0.0,0.0,0.0,0.0,0.0,0.0,0.0,0.0,0.0,0.025612682272348163,0.15972792310173317,0.0041180997801399735,0.0,0.0,0.0,0.0,0.0,0.0,0.0,0.0,0.0
2.972,73,2,972000000,base_footprint,0.0016184238930085375,0.003498853437700879,-0.4227581629358078,0.9062343374645793,0.0,0.0,0.0,0.0,0.0,0.0,0.0,0.0,0.0,0.0020174513066277375,0.0008159290755741697,-0.05038356644101889,0.0,0.0,0.0,0.0,0.0,0.0,0.0,0.0,0.0,0.035560205795774597,0.22944941463207225,-0.006300460471814788,0.0,0.0,0.0,0.0,0.0,0.0,0.0,0.0,0.0
3.006,74,3,6000000,base_footprint,0.001625931595008072,0.003505725961472091,-0.42321040069319366,0.9060231911916151,0.0,0.0,0.0,0.0,0.0,0.0,0.0,0.0,0.0,-0.00032728382530106614,0.00020778296703299196,-0.024778108153836416,0.0,0.0,0.0,0.0,0.0,0.0,0.0,0.0,0.0,-0.023744138540910127,-0.10078158070740888,0.0035005535041004727,0.0,0.0,0.0,0.0,0.0,0.0,0.0,0.0,0.0
3.04,75,3,40000000,base_footprint,0.0016228745546709427,0.0034978175950530713,-0.42363433759112235,0.9058250822117827,0.0,0.0,0.0,0.0,0.0,0.0,0.0,0.0,0.0,0.0002334151186934493,-0.00046847067074374545,-0.0418080652491444,0.0,0.0,0.0,0.0,0.0,0.0,0.0,0.0,0.0,-0.04897135710957506,-0.23854028419814222,-0.002470867932840227,0.0,0.0,0.0,0.0,0.0,0.0,0.0,0.0,0.0
3.074,76,3,74000000,base_footprint,0.001630175392931472,0.0035015010382073272,-0.4247504958671355,0.9053022137823868,0.0,0.0,0.0,0.0,0.0,0.0,0.0,0.0,0.0,-0.0005308832219769297,0.0005532700522248587,-0.0762357453371309,0.0,0.0,0.0,0.0,0.0,0.0,0.0,0.0,0.0,-0.037428682673790376,-0.11652906702854052,0.0007492751540407577,0.0,0.0,0.0,0.0,0.0,0.0,0.0,0.0,0.0
3.108,77,3,108000000,base_footprint,0.0016346470938937673,0.003500624166172481,-0.42592462262510167,0.9047504017136386,0.0,0.0,0.0,0.0,0.0,0.0,0.0,0.0,0.0,-0.0004232430487872136,0.000560970717252133,-0.07644606967102896,0.0,0.0,0.0,0.0,0.0,0.0,0.0,0.0,0.0,-0.017550754418060147,-0.002350393384153239,-0.00015635621984882674,0.0,0.0,0.0,0.0,0.0,0.0,0.0,0.0,0.0
3.142,78,3,142000000,base_footprint,0.0016382243387063759,0.003502564371697436,-0.4267121621134294,0.9043792229857566,0.0,0.0,0.0,0.0,0.0,0.0,0.0,0.0,0.0,-0.000983529732198545,0.0003912132168905044,-0.003203799471316284,0.0,0.0,0.0,0.0,0.0,0.0,0.0,0.0,0.0,-0.011835569682076988,0.0164497802783184,0.0011234939625069523,0.0,0.0,0.0,0.0,0.0,0.0,0.0,0.0,0.0
3.176,79,3,176000000,base_footprint,0.0016391783289421858,0.0035059511482499993,-0.4267771629026831,0.9043485360333641,0.0,0.0,0.0,0.0,0.0,0.0,0.0,0.0,0.0,0.00013665142945291898,0.00013326913463133336,-0.004221498405677407,0.0,0.0,0.0,0.0,0.0,0.0,0.0,0.0,0.0,0.00039971764041857294,-0.004661055268219348,-0.0014603209024152965,0.0,0.0,0.0,0.0,0.0,0.0,0.0,0.0,0.0
3.21,80,3,210000000,base_footprint,0.0016410692084055849,0.0035093402946575016,-0.42683292421698954,0.904322202661708,0.0,0.0,0.0,0.0,0.0,0.0,0.0,0.0,0.0,-1.5714990957053488e-05,-7.383574965213921e-06,-0.002755135811183174,0.0,0.0,0.0,0.0,0.0,0.0,0.0,0.0,0.0,-0.0014912966758585718,4.8741347620150153e-05,0.0001848117312029367,0.0,0.0,0.0,0.0,0.0,0.0,0.0,0.0,0.0
3.244,81,3,244000000,base_footprint,0.001646993006438068,0.0034922441629699165,-0.42698933965151403,0.9042484146896289,0.0,0.0,0.0,0.0,0.0,0.0,0.0,0.0,0.0,0.004250151046209074,-0.0005413612488002445,-0.028074632366309457,0.0,0.0,0.0,0.0,0.0,0.0,0.0,0.0,0.0,0.03055496425593901,0.19421709276540358,-0.00771658998690862,0.0,0.0,0.0,0.0,0.0,0.0,0.0,0.0,0.0
3.278,82,3,278000000,base_footprint,0.0016480654260461122,0.003510079704749277,-0.42702836615116807,0.9042299141938857,0.0,0.0,0.0,0.0,0.0,0.0,0.0,0.0,0.0,0.0007767056905204545,0.00016252524113382293,0.015003983439325784,0.0,0.0,0.0,0.0,0.0,0.0,0.0,0.0,0.0,0.027919238536211522,0.11294757007201525,0.007975388417137701,0.0,0.0,0.0,0.0,0.0,0.0,0.0,0.0,0.0
3.312,83,3,312000000,base_footprint,0.001645602754741457,0.0035082535739473287,-0.4266556109730225,0.9044058678346086,0.0,0.0,0.0,0.0,0.0,0.0,0.0,0.0,0.0,-0.0007604437676484506,-0.00042319391664861805,0.034865525797340216,0.0,0.0,0.0,0.0,0.0,0.0,0.0,0.0,0.0,0.01295951968700595,0.0491822035754465,0.0033285461186761526,0.0,0.0,0.0,0.0,0.0,0.0,0.0,0.0,0.0
3.346,84,3,346000000,base_footprint,0.0016467845503443722,0.003511399211637613,-0.4258632588747383,0.9047792233008055,0.0,0.0,0.0,0.0,0.0,0.0,0.0,0.0,0.0,-0.00020034846123956264,0.001637593619764682,0.08600902257499637,0.0,0.0,0.0,0.0,0.0,0.0,0.0,0.0,0.0,0.04639429987992889,0.1538334516289457,0.002148129104727702,0.0,0.0,0.0,0.0,0.0,0.0,0.0,0.0,0.0
3.38,85,3,380000000,base_footprint,0.0016323030419685492,0.00351083223194259,-0.42448853337933773,0.905425035369178,0.0,0.0,0.0,0.0,0.0,0.0,0.0,0.0,0.0,0.0006003694553009092,-0.00010593159187533891,0.04269178729529871,0.0,0.0,0.0,0.0,0.0,0.0,0.0,0.0,0.0,0.04388033348435,0.14280696167833812,-0.0028789258112309445,0.0,0.0,0.0,0.0,0.0,0.0,0.0,0.0,0.0
3.414,86,3,414000000,base_footprint,0.001636914871785998,0.0035103547209469565,-0.4241027687876002,0.9056057858837514,0.0,0.0,0.0,0.0,0.0,0.0,0.0,0.0,0.0,-0.0005371547338322087,0.0003759768722016205,0.025299421420499246,0.0,0.0,0.0,0.0,0.0,0.0,0.0,0.0,0.0,0.012009559552590242,0.04803204508706151,0.0017843827749854221,0.0,0.0,0.0,0.0,0.0,0.0,0.0,0.0,0.0
3.448,87,3,448000000,base_footprint,0.0016304528925070324,0.00349571372879638,-0.4239274931470229,0.9056879165380162,0.0,0.0,0.0,0.0,0.0,0.0,0.0,0.0,0.0,0.0012343856178430902,-0.00203040752960708,-0.01902214973278865,0.0,0.0,0.0,0.0,0.0,0.0,0.0,0.0,0.0,-0.04796375414920159,-0.25760900850699997,-0.00489806402397074,0.0,0.0,0.0,0.0,0.0,0.0,0.0,0.0,0.0
3.482,88,3,482000000,base_footprint,0.0016354672824556921,0.0035030938559334913,-0.42468898081859147,0.9053310572113776,0.0,0.0,0.0,0.0,0.0,0.0,0.0,0.0,0.0,-0.0006521289966749589,0.00034786394500544446,-0.053633599395533034,0.0,0.0,0.0,0.0,0.0,0.0,0.0,0.0,0.0,-0.02638422117661927,-0.09965162782573478,0.0028655834334738385,0.0,0.0,0.0,0.0,0.0,0.0,0.0,0.0,0.0
3.516,89,3,516000000,base_footprint,0.0016368729818653923,0.003499165786912212,-0.425517485317239,0.9049419573513708,0.0,0.0,0.0,0.0,0.0,0.0,0.0,0.0,0.0,-0.0005637576252553655,0.0003548602940937482,-0.05407727028060713,0.0,0.0,0.0,0.0,0.0,0.0,0.0,0.0,0.0,-0.011754538690588932,-0.0031941240168849106,-0.00013034451604550007,0.0,0.0,0.0,0.0,0.0,0.0,0.0,0.0,0.0
3.55,90,3,550000000,base_footprint,0.0016354629487466822,0.003494381836295075,-0.4261499591901586,0.9046443095707571,0.0,0.0,0.0,0.0,0.0,0.0,0.0,0.0,0.0,0.0004217685363274139,-0.00024253306684426723,0.01186334209702003,0.0,0.0,0.0,0.0,0.0,0.0,0.0,0.0,0.0,-0.06793546279555461,-0.3013599862396604,-0.002174719613424127,0.0,0.0,0.0,0.0,0.0,0.0,0.0,0.0,0.0
3.584,91,3,584000000,base_footprint,0.0016364826863683793,0.0034981552488827948,-0.42587466913506716,0.9047739226035247,0.0,0.0,0.0,0.0,0.0,0.0,0.0,0.0,0.0,-3.27515067589437e-05,-7.180547575184037e-05,0.017947082533457885,0.0,0.0,0.0,0.0,0.0,0.0,0.0,0.0,0.0,-0.00039744985504365504,-0.02431112878442881,0.00023901362075913566,0.0,0.0,0.0,0.0,0.0,0.0,0.0,0.0,0.0
3.618,92,3,618000000,base_footprint,0.0016352128687364188,0.0035009801827102674,-0.4256003661456882,0.9049029768728194,0.0,0.0,0.0,0.0,0.0,0.0,0.0,0.0,0.0,5.771483916115678e-05,-5.479937647718309e-05,0.01766192154519814,0.0,0.0,0.0,0.0,0.0,0.0,0.0,0.0,0.0,0.0026997057379797534,-0.0061655320837891705,-0.0002550843489172269,0.0,0.0,0.0,0.0,0.0,0.0,0.0,0.0,0.0
3.652,93,3,652000000,base_footprint,0.0016361548473983899,0.003505181796704034,-0.42577494727350096,0.9048208281047331,0.0,0.0,0.0,0.0,0.0,0.0,0.0,0.0,0.0,0.0001089053617561377,0.0002362339320789001,-0.02558454332095062,0.0,0.0,0.0,0.0,0.0,0.0,0.0,0.0,0.0,-0.005229274513448314,-0.015459456410082645,-0.0005701426434894942,0.0,0.0,0.0,0.0,0.0,0.0,0.0,0.0,0.0
3.686,94,3,686000000,base_footprint,0.0016392179495318864,0.003508035983546787,-0.426162595502786,0.9046382972450265,0.0,0.0,0.0,0.0,0.0,0.0,0.0,0.0,0.0,-4.0198742892036926e-05,0.0001856729626850784,-0.024741283032622324,0.0,0.0,0.0,0.0,0.0,0.0,0.0,0.0,0.0,-0.0065284631226914915,-0.0015611599346022848,0.00016520897058904373,0.0,0.0,0.0,0.0,0.0,0.0,0.0,0.0,0.0
3.72,95,3,720000000,base_footprint,0.001642413887833062,0.0035102733980753114,-0.42652663220388704,0.9044667005910733,0.0,0.0,0.0,0.0,0.0,0.0,0.0,0.0,0.0,-0.00011522520232727324,0.00010872224041985955,-0.022563743987134822,0.0,0.0,0.0,0.0,0.0,0.0,0.0,0.0,0.0,-0.005034110494344266,0.003698258454390105,8.570720218119366e-05,0.0,0.0,0.0,0.0,0.0,0.0,0.0,0.0,0.0
3.754,96,3,754000000,base_footprint,0.0016421598763162076,0.0035128690930947074,-0.42627283302734864,0.904586333571602,0.0,0.0,0.0,0.0,0.0,0.0,0.0,0.0,0.0,-0.0006546902291823523,-0.0004537891335057663,0.041582039227715126,0.0,0.0,0.0,0.0,0.0,0.0,0.0,0.0,0.0,0.007444329828726965,0.033020560915216664,0.0016153163818619322,0.0,0.0,0.0,0.0,0.0,0.0,0.0,0.0,0.0
3.7880000000000003,97,3,788000000,base_footprint,0.0016436197177051714,0.0035043812209665636,-0.4255593049277509,0.9049222595427142,0.0,0.0,0.0,0.0,0.0,0.0,0.0,0.0,0.0,0.0001516033515621341,-0.0006239283308591389,0.05635054253118934,0.0,0.0,0.0,0.0,0.0,0.0,0.0,0.0,0.0,0.019469069429342928,0.03939844539873558,-0.001147304804338156,0.0,0.0,0.0,0.0,0.0,0.0,0.0,0.0,0.0
3.822,98,3,822000000,base_footprint,0.0016386250856084135,0.003506533262951607,-0.42473576733977375,0.9053090892477542,0.0,0.0,0.0,0.0,0.0,0.0,0.0,0.0,0.0,0.00020143019430476152,0.0004304741570548159,0.037116996850365354,0.0,0.0,0.0,0.0,0.0,0.0,0.0,0.0,0.0,0.01761176552697984,-0.005439400698872433,2.5698781047525514e-05,0.0,0.0,0.0,0.0,0.0,0.0,0.0,0.0,0.0
3.856,99,3,856000000,base_footprint,0.0016365166267229508,0.0035088667341116324,-0.4245832782510719,0.9053806102944472,0.0,0.0,0.0,0.0,0.0,0.0,0.0,0.0,0.0,-0.000550904153978164,0.00016855144127686717,0.005297311528238746,0.0,0.0,0.0,0.0,0.0,0.0,0.0,0.0,0.0,-0.0014673712251366804,0.009788290116597306,0.000447595427971849,0.0,0.0,0.0,0.0,0.0,0.0,0.0,0.0,0.0
3.89,100,3,890000000,base_footprint,0.0016391452667852203,0.003509585816404248,-0.42436552373560793,0.9054826880039147,0.0,0.0,0.0,0.0,0.0,0.0,0.0,0.0,0.0,-0.0003007374702467009,0.00027648280969688456,0.0216774203454875,0.0,0.0,0.0,0.0,0.0,0.0,0.0,0.0,0.0,-0.0025774702056141855,-0.042167899149480104,-1.8982757135083364e-05,0.0,0.0,0.0,0.0,0.0,0.0,0.0,0.0,0.0
3.924,101,3,924000000,base_footprint,0.001634177310996162,0.003506662649238709,-0.4240581527898588,0.9056266978363842,0.0,0.0,0.0,0.0,0.0,0.0,0.0,0.0,0.0,-0.0002498993528777986,-0.00020046324886893702,0.019687028550915912,0.0,0.0,0.0,0.0,0.0,0.0,0.0,0.0,0.0,0.003625814533425908,0.0012914159149008781,-6.256967079874777e-05,0.0,0.0,0.0,0.0,0.0,0.0,0.0,0.0,0.0
3.958,102,3,958000000,base_footprint,0.0016326270339396796,0.003510795282863188,-0.4234099562207796,0.9059299188229559,0.0,0.0,0.0,0.0,0.0,0.0,0.0,0.0,0.0,0.0007125993493248034,-0.0005582110124195975,0.06704778564728055,0.0,0.0,0.0,0.0,0.0,0.0,0.0,0.0,0.0,0.13837195485072656,0.7259432007459243,0.002869261519736692,0.0,0.0,0.0,0.0,0.0,0.0,0.0,0.0,0.0
3.992,103,3,992000000,base_footprint,0.0016297079917253633,0.0035031102766885087,-0.42340027469841773,0.9059344786768829,0.0,0.0,0.0,0.0,0.0,0.0,0.0,0.0,0.0,-0.0003432673820198003,8.944110488526234e-05,-0.013479127806302352,0.0,0.0,0.0,0.0,0.0,0.0,0.0,0.0,0.0,0.0062466895731792356,0.02648930942463784,0.0008827019101679332,0.0,0.0,0.0,0.0,0.0,0.0,0.0,0.0,0.0
4.026,104,4,26000000,base_footprint,0.0016272322208634876,0.0035023683122342724,-0.42307796957781013,0.9060850496445808,0.0,0.0,0.0,0.0,0.0,0.0,0.0,0.0,0.0,-0.00013223448049823967,-0.00013254030646537017,0.029689848051338102,0.0,0.0,0.0,0.0,0.0,0.0,0.0,0.0,0.0,-0.012943893542289673,-0.0956020475607624,-0.0005686637342129729,0.0,0.0,0.0,0.0,0.0,0.0,0.0,0.0,0.0
4.06,105,4,60000000,base_footprint,0.001624953924727408,0.003499119097314263,-0.4231051788292381,0.9060723609834723,0.0,0.0,0.0,0.0,0.0,0.0,0.0,0.0,0.0,-0.00017307955280171914,0.00047672803852333355,-0.07147148575532236,0.0,0.0,0.0,0.0,0.0,0.0,0.0,0.0,0.0,-0.1011605429594723,-0.5721295866538239,-0.0035482827864878608,0.0,0.0,0.0,0.0,0.0,0.0,0.0,0.0,0.0
4.094,106,4,94000000,base_footprint,0.0016288812225404555,0.0035032663629998638,-0.42380735264497743,0.9057441149214323,0.0,0.0,0.0,0.0,0.0,0.0,0.0,0.0,0.0,-0.0002977915159857134,0.00029807810201174775,-0.040404883479854804,0.0,0.0,0.0,0.0,0.0,0.0,0.0,0.0,0.0,-0.03374642316389465,-0.1254220295445446,-0.0002741684904403306,0.0,0.0,0.0,0.0,0.0,0.0,0.0,0.0,0.0
4.128,107,4,128000000,base_footprint,0.001631200592763338,0.003505854579394564,-0.4244310821156311,0.9054519891758198,0.0,0.0,0.0,0.0,0.0,0.0,0.0,0.0,0.0,-0.0001467107845875956,0.0003172603591509043,-0.040659011799305714,0.0,0.0,0.0,0.0,0.0,0.0,0.0,0.0,0.0,-0.00988153834859886,-0.003514664517127718,-0.00026660821307644927,0.0,0.0,0.0,0.0,0.0,0.0,0.0,0.0,0.0
4.162,108,4,162000000,base_footprint,0.0016299151961142089,0.003510538046579654,-0.4239637456808482,0.9056708904714461,0.0,0.0,0.0,0.0,0.0,0.0,0.0,0.0,0.0,0.00030371848829973053,-0.00011311905043378252,0.035492297285097146,0.0,0.0,0.0,0.0,0.0,0.0,0.0,0.0,0.0,0.007765242116976011,0.014398452022090549,-0.00018480311442741582,0.0,0.0,0.0,0.0,0.0,0.0,0.0,0.0,0.0
4.196,109,4,196000000,base_footprint,0.0016287735642423087,0.0035155633525727602,-0.42341172242673014,0.9059290817843415,0.0,0.0,0.0,0.0,0.0,0.0,0.0,0.0,0.0,0.00022695530171756872,-0.0001732909808106727,0.036633465995241345,0.0,0.0,0.0,0.0,0.0,0.0,0.0,0.0,0.0,0.006459001345088785,-0.0025911310298148463,-5.5686494563611034e-05,0.0,0.0,0.0,0.0,0.0,0.0,0.0,0.0,0.0
4.23,110,4,230000000,base_footprint,0.0016279757371295699,0.0035178998132997237,-0.42283074325080805,0.9062003843730548,0.0,0.0,0.0,0.0,0.0,0.0,0.0,0.0,0.0,-0.0008308295876281809,1.450482298404938e-05,0.032638320285953835,0.0,0.0,0.0,0.0,0.0,0.0,0.0,0.0,0.0,0.011184070804572153,0.017157360155822723,0.0059380008260577445,0.0,0.0,0.0,0.0,0.0,0.0,0.0,0.0,0.0
4.264,111,4,264000000,base_footprint,0.0016260619139794106,0.0035172905736692924,-0.42305057927073253,0.9060977827852632,0.0,0.0,0.0,0.0,0.0,0.0,0.0,0.0,0.0,0.003402064758189869,-0.003067690580635964,-0.04345389147338473,0.0,0.0,0.0,0.0,0.0,0.0,0.0,0.0,0.0,0.052009239882193206,0.2553393932767682,-0.010433091751956766,0.0,0.0,0.0,0.0,0.0,0.0,0.0,0.0,0.0
4.298,112,4,298000000,base_footprint,0.0016351853092093996,0.003508857775906565,-0.42308540228450214,0.9060815396308846,0.0,0.0,0.0,0.0,0.0,0.0,0.0,0.0,0.0,-2.503686996940455e-06,-0.0008771723420816109,0.026283304466027693,0.0,0.0,0.0,0.0,0.0,0.0,0.0,0.0,0.0,0.0008176663846917419,0.05544476801915365,0.00649835654585131,0.0,0.0,0.0,0.0,0.0,0.0,0.0,0.0,0.0
4.332,113,4,332000000,base_footprint,0.0016301095143693208,0.0035095412516505365,-0.4226426604880055,0.9062881481067678,0.0,0.0,0.0,0.0,0.0,0.0,0.0,0.0,0.0,-0.005499630935125081,-0.002216502968482098,0.0020983093713533934,0.0,0.0,0.0,0.0,0.0,0.0,0.0,0.0,0.0,0.019873201372325743,0.03373442894180401,0.010383966082088206,0.0,0.0,0.0,0.0,0.0,0.0,0.0,0.0,0.0
4.366,114,4,366000000,base_footprint,0.0016200812982500104,0.0034949956104726666,-0.42328268397799274,0.9059894755385718,0.0,0.0,0.0,0.0,0.0,0.0,0.0,0.0,0.0,0.0037580102982229056,8.335343739458581e-05,-0.08100921465652369,0.0,0.0,0.0,0.0,0.0,0.0,0.0,0.0,0.0,-0.045706419391418264,-0.18554702924220356,-0.016945372661630816,0.0,0.0,0.0,0.0,0.0,0.0,0.0,0.0,0.0
4.4,115,4,400000000,base_footprint,0.0016285430628743879,0.003506672205268854,-0.42432834338451714,0.9055001425168793,0.0,0.0,0.0,0.0,0.0,0.0,0.0,0.0,0.0,0.0006901144346534622,-0.001966229685611884,-0.03978092302168088,0.0,0.0,0.0,0.0,0.0,0.0,0.0,0.0,0.0,-0.04536422159677443,-0.14363394424852802,0.0032216869641651584,0.0,0.0,0.0,0.0,0.0,0.0,0.0,0.0,0.0
4.434,116,4,434000000,base_footprint,0.0016431157667053547,0.003517390463666194,-0.42485570018643154,0.9052527614727284,0.0,0.0,0.0,0.0,0.0,0.0,0.0,0.0,0.0,0.0004071292797893612,0.000673328127287283,-0.024479394245778576,0.0,0.0,0.0,0.0,0.0,0.0,0.0,0.0,0.0,0.019400704928280367,0.13064466678390838,0.008113046454975563,0.0,0.0,0.0,0.0,0.0,0.0,0.0,0.0,0.0
4.468,117,4,468000000,base_footprint,0.001628727659096455,0.0034878437504227235,-0.42530238637751216,0.9050431273335976,0.0,0.0,0.0,0.0,0.0,0.0,0.0,0.0,0.0,0.0016479037649691365,-0.00039371023566336217,-0.07374823137301413,0.0,0.0,0.0,0.0,0.0,0.0,0.0,0.0,0.0,0.07250470332833944,0.422478879735071,-0.005406551628385124,0.0,0.0,0.0,0.0,0.0,0.0,0.0,0.0,0.0
4.502,118,4,502000000,base_footprint,0.0016379402680426446,0.0034972569545569264,-0.4260532218017981,0.9046898576516594,0.0,0.0,0.0,0.0,0.0,0.0,0.0,0.0,0.0,-0.0003040824533193268,0.00018414823277390207,-0.030854316026856177,0.0,0.0,0.0,0.0,0.0,0.0,0.0,0.0,0.0,-0.055413948023948216,-0.237990797981163,0.0013001431772066607,0.0,0.0,0.0,0.0,0.0,0.0,0.0,0.0,0.0
4.536,119,4,536000000,base_footprint,0.0016385185191375635,0.0034981944399221413,-0.4263336747202192,0.9045577238033389,0.0,0.0,0.0,0.0,0.0,0.0,0.0,0.0,0.0,0.001113563781530652,-0.000988807311375886,0.04352953140056317,0.0,0.0,0.0,0.0,0.0,0.0,0.0,0.0,0.0,-0.0022613681582103473,0.015250755886491565,-0.0012362414003548674,0.0,0.0,0.0,0.0,0.0,0.0,0.0,0.0,0.0
4.57,120,4,570000000,base_footprint,0.0016352079084549023,0.003499302943113167,-0.4256661922436465,0.9048720206497731,0.0,0.0,0.0,0.0,0.0,0.0,0.0,0.0,0.0,9.733407207424458e-05,-0.0002105605646874636,0.04289350353469409,0.0,0.0,0.0,0.0,0.0,0.0,0.0,0.0,0.0,0.008172700801144498,-0.007913206791391986,0.0010836045140597728,0.0,0.0,0.0,0.0,0.0,0.0,0.0,0.0,0.0
4.604,121,4,604000000,base_footprint,0.0016325475067745377,0.0035032702297255617,-0.4250071311495742,0.9051817499034901,0.0,0.0,0.0,0.0,0.0,0.0,0.0,0.0,0.0,0.00020617849546588485,-0.00019842873740188806,0.042713567420982534,0.0,0.0,0.0,0.0,0.0,0.0,0.0,0.0,0.0,0.007705059744140589,-0.00665209829668675,-0.0002985632510799026,0.0,0.0,0.0,0.0,0.0,0.0,0.0,0.0,0.0
4.638,122,4,638000000,base_footprint,0.001628704336692654,0.0035010230524636903,-0.4243218065941496,0.9055032272766602,0.0,0.0,0.0,0.0,0.0,0.0,0.0,0.0,0.0,-0.0003645051308629985,-0.000322778159291113,0.05423539516673625,0.0,0.0,0.0,0.0,0.0,0.0,0.0,0.0,0.0,-0.02636138483500157,-0.18588609844152842,0.00033571114184034084,0.0,0.0,0.0,0.0,0.0,0.0,0.0,0.0,0.0
4.672,123,4,672000000,base_footprint,0.0016309573702659084,0.003513152554097563,-0.42393076098124594,0.9056863185623651,0.0,0.0,0.0,0.0,0.0,0.0,0.0,0.0,0.0,0.0002247601425282238,-1.0364498767195105e-05,0.01719335690462597,0.0,0.0,0.0,0.0,0.0,0.0,0.0,0.0,0.0,-0.023837713638532675,-0.16453198498070576,-0.0026222170219569706,0.0,0.0,0.0,0.0,0.0,0.0,0.0,0.0,0.0
4.706,124,4,706000000,base_footprint,0.0016310254793150734,0.003515870712436277,-0.4236515951230789,0.9058169265136803,0.0,0.0,0.0,0.0,0.0,0.0,0.0,0.0,0.0,4.8477745810449074e-05,-0.00016114403596888884,0.019333119027386686,0.0,0.0,0.0,0.0,0.0,0.0,0.0,0.0,0.0,0.0027439409346127694,0.0009431439784107472,0.0002603228870085087,0.0,0.0,0.0,0.0,0.0,0.0,0.0,0.0,0.0
4.74,125,4,740000000,base_footprint,0.0016243102654296758,0.0035058114086372895,-0.42343655660382573,0.9059175202158437,0.0,0.0,0.0,0.0,0.0,0.0,0.0,0.0,0.0,0.0008023473438229888,-2.2453870699443504e-07,-0.012771666183394783,0.0,0.0,0.0,0.0,0.0,0.0,0.0,0.0,0.0,0.028813129529200295,0.10118705013189248,0.0007265365275613899,0.0,0.0,0.0,0.0,0.0,0.0,0.0,0.0,0.0
4.774,126,4,774000000,base_footprint,0.0016376713668171234,0.00350833650770404,-0.4241267047381215,0.905594582545316,0.0,0.0,0.0,0.0,0.0,0.0,0.0,0.0,0.0,-0.003624482232932748,3.548212905197081e-05,-0.04368309223354548,0.0,0.0,0.0,0.0,0.0,0.0,0.0,0.0,0.0,0.016216852450192186,0.15152950718448452,0.006084515121961629,0.0,0.0,0.0,0.0,0.0,0.0,0.0,0.0,0.0
4.808,127,4,808000000,base_footprint,0.001637209635845636,0.0035087827133625893,-0.42429972464709065,0.905513529248946,0.0,0.0,0.0,0.0,0.0,0.0,0.0,0.0,0.0,0.0010699115688086597,0.0007026456587701837,-0.002304781597233742,0.0,0.0,0.0,0.0,0.0,0.0,0.0,0.0,0.0,0.01679026223115302,0.12698987869966658,-0.007115785360710382,0.0,0.0,0.0,0.0,0.0,0.0,0.0,0.0,0.0
4.8420000000000005,128,4,842000000,base_footprint,0.0016337639456474524,0.0035081122902903997,-0.424453615815747,0.9054414127841,0.0,0.0,0.0,0.0,0.0,0.0,0.0,0.0,0.0,0.0011528100907085034,-0.0006049682927378377,0.020695483263682098,0.0,0.0,0.0,0.0,0.0,0.0,0.0,0.0,0.0,0.0365031403813213,0.18458946506199145,0.002730948202213151,0.0,0.0,0.0,0.0,0.0,0.0,0.0,0.0,0.0
4.876,129,4,876000000,base_footprint,0.0016348405703265599,0.00350867625814328,-0.42455926252817083,0.9053918759789934,0.0,0.0,0.0,0.0,0.0,0.0,0.0,0.0,0.0,0.0006850683066452578,-0.0011422903793533404,-0.025286178321128512,0.0,0.0,0.0,0.0,0.0,0.0,0.0,0.0,0.0,0.01875767163233122,0.1407108235094192,-0.00046271453370005,0.0,0.0,0.0,0.0,0.0,0.0,0.0,0.0,0.0
4.91,130,4,910000000,base_footprint,0.0016375195713763397,0.003505902702036368,-0.424923765619557,0.9052208684004104,0.0,0.0,0.0,0.0,0.0,0.0,0.0,0.0,0.0,-0.0005696014241000383,6.16774788872664e-05,-0.024393965885781344,0.0,0.0,0.0,0.0,0.0,0.0,0.0,0.0,0.0,-0.003445413358613734,-0.009456085827006099,0.0025145665788291706,0.0,0.0,0.0,0.0,0.0,0.0,0.0,0.0,0.0
4.944,131,4,944000000,base_footprint,0.0016313997328159275,0.0034909757548884936,-0.42542171709144583,0.9049870243545797,0.0,0.0,0.0,0.0,0.0,0.0,0.0,0.0,0.0,-0.0011134679264943438,0.0005088736479937339,-0.05563430331901359,0.0,0.0,0.0,0.0,0.0,0.0,0.0,0.0,0.0,-0.054218174187928084,-0.2602360350057343,-0.0009066167329960832,0.0,0.0,0.0,0.0,0.0,0.0,0.0,0.0,0.0
4.978,132,4,978000000,base_footprint,0.001636149002798399,0.003495491084540843,-0.4261125377362325,0.9046619311889422,0.0,0.0,0.0,0.0,0.0,0.0,0.0,0.0,0.0,0.001378035081748203,-0.002003038404526386,0.01596233393754364,0.0,0.0,0.0,0.0,0.0,0.0,0.0,0.0,0.0,-0.08829753916399218,-0.3942992402988057,-0.005834402740423593,0.0,0.0,0.0,0.0,0.0,0.0,0.0,0.0,0.0
5.012,133,5,12000000,base_footprint,0.0016370323335530507,0.0034975075544735204,-0.42582953660184314,0.9047951665009628,0.0,0.0,0.0,0.0,0.0,0.0,0.0,0.0,0.0,-0.00011236196021279543,-7.579102411020292e-05,0.01826349252870607,0.0,0.0,0.0,0.0,0.0,0.0,0.0,0.0,0.0,0.001962996656778011,-0.017692782816277442,0.0031551028973135116,0.0,0.0,0.0,0.0,0.0,0.0,0.0,0.0,0.0
5.046,134,5,46000000,base_footprint,0.0016363763917008026,0.003498583400471299,-0.42579650432393207,0.9048107089839368,0.0,0.0,0.0,0.0,0.0,0.0,0.0,0.0,0.0,-0.00027902368685346526,0.00017216281122607206,-0.013994499637875078,0.0,0.0,0.0,0.0,0.0,0.0,0.0,0.0,0.0,-0.0013611590889480232,-0.014876867316215734,-0.0002475443157541357,0.0,0.0,0.0,0.0,0.0,0.0,0.0,0.0,0.0
5.08,135,5,80000000,base_footprint,0.001636843626104148,0.003500423356946073,-0.42601031032136166,0.9047100548126803,0.0,0.0,0.0,0.0,0.0,0.0,0.0,0.0,0.0,-9.49620287606286e-05,0.0001394590864640054,-0.014064025454790036,0.0,0.0,0.0,0.0,0.0,0.0,0.0,0.0,0.0,-0.0046976172150423046,-0.003948272772517994,-0.00021803789093322395,0.0,0.0,0.0,0.0,0.0,0.0,0.0,0.0,0.0
5.114,136,5,114000000,base_footprint,0.0016377712312938327,0.003504318540283681,-0.426227233547172,0.9046078613629702,0.0,0.0,0.0,0.0,0.0,0.0,0.0,0.0,0.0,4.782301397125901e-05,0.00019167221724874443,-0.014158260307312105,0.0,0.0,0.0,0.0,0.0,0.0,0.0,0.0,0.0,-0.004195837077602436,-0.004198010649827001,-0.0003504764501457827,0.0,0.0,0.0,0.0,0.0,0.0,0.0,0.0,0.0
5.148,137,5,148000000,base_footprint,0.0016400207636367264,0.003495091234731143,-0.4266313388865894,0.9044173789512184,0.0,0.0,0.0,0.0,0.0,0.0,0.0,0.0,0.0,-0.001601972565286823,0.0008754758218506879,-0.053101445424159135,0.0,0.0,0.0,0.0,0.0,0.0,0.0,0.0,0.0,0.07145766407570465,0.39081681692857184,0.004055658357999535,0.0,0.0,0.0,0.0,0.0,0.0,0.0,0.0,0.0
5.182,138,5,182000000,base_footprint,0.0016438954256413315,0.0035119793654108935,-0.4268720991631125,0.9043036959809708,0.0,0.0,0.0,0.0,0.0,0.0,0.0,0.0,0.0,-0.0004856264751836942,9.280130292351483e-05,0.014099681562187508,0.0,0.0,0.0,0.0,0.0,0.0,0.0,0.0,0.0,0.051980440388795776,0.29373583527898256,7.935704228013345e-06,0.0,0.0,0.0,0.0,0.0,0.0,0.0,0.0,0.0
5.216,139,5,216000000,base_footprint,0.001644609201327519,0.003509691374988705,-0.4267025166890984,0.9043837346935298,0.0,0.0,0.0,0.0,0.0,0.0,0.0,0.0,0.0,-8.562584590468097e-05,-0.00011028307051570668,0.012062707803955432,0.0,0.0,0.0,0.0,0.0,0.0,0.0,0.0,0.0,-0.0013722380760939506,-0.0062375866693803106,-0.00033117372928682,0.0,0.0,0.0,0.0,0.0,0.0,0.0,0.0,0.0
5.25,140,5,250000000,base_footprint,0.0016414814869393196,0.0034973895074098794,-0.4261752745812943,0.9046323613163085,0.0,0.0,0.0,0.0,0.0,0.0,0.0,0.0,0.0,-0.0002582442647443005,-0.0006373993573480321,0.07616027961959611,0.0,0.0,0.0,0.0,0.0,0.0,0.0,0.0,0.0,-0.0014506815880728705,-0.06989412635898912,0.0006543068936285333,0.0,0.0,0.0,0.0,0.0,0.0,0.0,0.0,0.0
5.284,141,5,284000000,base_footprint,0.0016385865503971348,0.003488228317355459,-0.42456109629672684,0.9053910883196523,0.0,0.0,0.0,0.0,0.0,0.0,0.0,0.0,0.0,0.0007118734515623278,-0.0002780057470058786,0.11089438914152722,0.0,0.0,0.0,0.0,0.0,0.0,0.0,0.0,0.0,0.005998743366921591,-0.06324050092987413,-0.001362370016487506,0.0,0.0,0.0,0.0,0.0,0.0,0.0,0.0,0.0
5.318,142,5,318000000,base_footprint,0.0016267694731910785,0.0034952699335633335,-0.42336794538944345,0.9059496230618422,0.0,0.0,0.0,0.0,0.0,0.0,0.0,0.0,0.0,-0.0006192840827006779,0.0005983602432362012,0.036103201899432585,0.0,0.0,0.0,0.0,0.0,0.0,0.0,0.0,0.0,0.002248114693170662,-0.09008845697422066,0.002090475205517803,0.0,0.0,0.0,0.0,0.0,0.0,0.0,0.0,0.0
5.352,143,5,352000000,base_footprint,0.0016212969007397232,0.003491790230298505,-0.4234662663649696,0.9059036924796477,0.0,0.0,0.0,0.0,0.0,0.0,0.0,0.0,0.0,-0.0012695022162944284,-0.0007390735145614496,-0.045657967320682634,0.0,0.0,0.0,0.0,0.0,0.0,0.0,0.0,0.0,-0.040988562080452526,-0.23471439502191865,-0.0017782320625748416,0.0,0.0,0.0,0.0,0.0,0.0,0.0,0.0,0.0
5.386,144,5,386000000,base_footprint,0.001625327530626473,0.00350360988001616,-0.4240428996287848,0.9056338676875105,0.0,0.0,0.0,0.0,0.0,0.0,0.0,0.0,0.0,0.0018809164725719376,-0.001645206943726911,-0.006279972941825187,0.0,0.0,0.0,0.0,0.0,0.0,0.0,0.0,0.0,-0.04660868035877662,-0.17773553535153405,-0.0068168162055217175,0.0,0.0,0.0,0.0,0.0,0.0,0.0,0.0,0.0
5.42,145,5,420000000,base_footprint,0.001630143169707099,0.00350490047872067,-0.42405507148476546,0.9056281547378763,0.0,0.0,0.0,0.0,0.0,0.0,0.0,0.0,0.0,-0.0003737802917863877,-5.837418731728802e-05,-0.0010997901344803893,0.0,0.0,0.0,0.0,0.0,0.0,0.0,0.0,0.0,-0.00021351740689064345,-0.017999498891610254,0.004346877020971563,0.0,0.0,0.0,0.0,0.0,0.0,0.0,0.0,0.0
5.454,146,5,454000000,base_footprint,0.0016276167277911517,0.003502751416644765,-0.42368827371469664,0.9057998279492887,0.0,0.0,0.0,0.0,0.0,0.0,0.0,0.0,0.0,-0.00018466751403300503,-0.0003271416650864656,0.05447089635353976,0.0,0.0,0.0,0.0,0.0,0.0,0.0,0.0,0.0,0.06815886921347165,0.3603599454499574,0.0018497682161247213,0.0,0.0,0.0,0.0,0.0,0.0,0.0,0.0,0.0
5.488,147,5,488000000,base_footprint,0.0016261960766548913,0.0035028504272408435,-0.4234960237505096,0.9058897302612016,0.0,0.0,0.0,0.0,0.0,0.0,0.0,0.0,0.0,-0.00012395321702685425,-1.8897947589022682e-05,-0.0015390887807243342,0.0,0.0,0.0,0.0,0.0,0.0,0.0,0.0,0.0,-0.002227703674789517,-0.036785006580129835,-0.0004866375658189396,0.0,0.0,0.0,0.0,0.0,0.0,0.0,0.0,0.0
5.522,148,5,522000000,base_footprint,0.0016257234206191328,0.0035028541276077066,-0.4235206617269678,0.905878212634939,0.0,0.0,0.0,0.0,0.0,0.0,0.0,0.0,0.0,-0.00017678561239977834,2.8658296379850657e-05,-0.0017374850143944604,0.0,0.0,0.0,0.0,0.0,0.0,0.0,0.0,0.0,-0.001061483412916444,-0.0054385176876405,-5.010609349015164e-05,0.0,0.0,0.0,0.0,0.0,0.0,0.0,0.0,0.0
5.556,149,5,556000000,base_footprint,0.0016270354356838208,0.003503512841210408,-0.42382724605106376,0.9057348086820081,0.0,0.0,0.0,0.0,0.0,0.0,0.0,0.0,0.0,0.0005014518123839468,0.0003550597525903964,-0.045161622673094405,0.0,0.0,0.0,0.0,0.0,0.0,0.0,0.0,0.0,-0.06631444800458686,-0.3546876867720847,-0.0032334604287532435,0.0,0.0,0.0,0.0,0.0,0.0,0.0,0.0,0.0
5.59,150,5,590000000,base_footprint,0.0016297700512479414,0.003506245292304373,-0.42451551899320666,0.9054124056072231,0.0,0.0,0.0,0.0,0.0,0.0,0.0,0.0,0.0,-0.00016133066825839768,0.00032933739143103393,-0.04471827220389392,0.0,0.0,0.0,0.0,0.0,0.0,0.0,0.0,0.0,-0.012140616647443987,0.00043155982372409044,0.0010291788861125205,0.0,0.0,0.0,0.0,0.0,0.0,0.0,0.0,0.0
5.624,151,5,624000000,base_footprint,0.0016334466602739093,0.003509790616519416,-0.42520130543011464,0.9050905275619465,0.0,0.0,0.0,0.0,0.0,0.0,0.0,0.0,0.0,-0.00011169202297607962,0.0003241049633298644,-0.04439700334861154,0.0,0.0,0.0,0.0,0.0,0.0,0.0,0.0,0.0,-0.01076926265719561,-0.0019624720410080163,-0.00015452701763018839,0.0,0.0,0.0,0.0,0.0,0.0,0.0,0.0,0.0
5.658,152,5,658000000,base_footprint,0.0016339449732652267,0.003512342999141527,-0.4249849144072754,0.9051921432473446,0.0,0.0,0.0,0.0,0.0,0.0,0.0,0.0,0.0,0.00024021060666336611,-7.820356840483486e-05,0.02817960761814375,0.0,0.0,0.0,0.0,0.0,0.0,0.0,0.0,0.0,0.004252319647246498,0.015987372839426934,-0.00013668925281492468,0.0,0.0,0.0,0.0,0.0,0.0,0.0,0.0,0.0
5.692,153,5,692000000,base_footprint,0.0016336270097010303,0.0035148682860845553,-0.4245280424966593,0.9054064932933049,0.0,0.0,0.0,0.0,0.0,0.0,0.0,0.0,0.0,3.4353370623839142e-06,-0.00027804521911865815,0.030846241742057804,0.0,0.0,0.0,0.0,0.0,0.0,0.0,0.0,0.0,0.004811010206889016,0.002401936602192069,0.0005521279274748987,0.0,0.0,0.0,0.0,0.0,0.0,0.0,0.0,0.0
5.726,154,5,726000000,base_footprint,0.0016355878782859908,0.0035102765653959767,-0.42402264751790747,0.9056433057239651,0.0,0.0,0.0,0.0,0.0,0.0,0.0,0.0,0.0,-0.0002534797052691895,-0.0006773927230979603,0.036801367420852764,0.0,0.0,0.0,0.0,0.0,0.0,0.0,0.0,0.0,0.016303596324918134,0.018436490534287076,0.0006162536930616799,0.0,0.0,0.0,0.0,0.0,0.0,0.0,0.0,0.0
5.76,155,5,760000000,base_footprint,0.0016206635300725293,0.003502567831177309,-0.42371842935486953,0.9057857352008547,0.0,0.0,0.0,0.0,0.0,0.0,0.0,0.0,0.0,0.0009696237784525303,0.0001737645927363663,0.01665101871902635,0.0,0.0,0.0,0.0,0.0,0.0,0.0,0.0,0.0,0.039156696489653794,0.20245582516725585,-0.001173318572445529,0.0,0.0,0.0,0.0,0.0,0.0,0.0,0.0,0.0
5.7940000000000005,156,5,794000000,base_footprint,0.0016376305355936163,0.0035170625304353164,-0.42312886932834315,0.9060612056468944,0.0,0.0,0.0,0.0,0.0,0.0,0.0,0.0,0.0,0.0006077310386314256,0.0006116284417223992,0.03211058033172032,0.0,0.0,0.0,0.0,0.0,0.0,0.0,0.0,0.0,0.021206020993877733,0.1218196552063656,0.0014354454282779446,0.0,0.0,0.0,0.0,0.0,0.0,0.0,0.0,0.0
5.828,157,5,828000000,base_footprint,0.0016338131895896268,0.003513039927652699,-0.42276592583156,0.9062306335369116,0.0,0.0,0.0,0.0,0.0,0.0,0.0,0.0,0.0,0.00021613058941605782,-0.000619187712766121,0.025024526005661067,0.0,0.0,0.0,0.0,0.0,0.0,0.0,0.0,0.0,0.016913438167562037,0.020635159481845217,0.0004588898526257283,0.0,0.0,0.0,0.0,0.0,0.0,0.0,0.0,0.0
5.862,158,5,862000000,base_footprint,0.0016221706432303948,0.0035042746654606197,-0.4229543208089881,0.9061427763495558,0.0,0.0,0.0,0.0,0.0,0.0,0.0,0.0,0.0,0.0033735413030307267,-0.00011552902293454907,-0.03750493037318164,0.0,0.0,0.0,0.0,0.0,0.0,0.0,0.0,0.0,-0.05977962971009215,-0.32414230985435016,-0.007683953145824673,0.0,0.0,0.0,0.0,0.0,0.0,0.0,0.0,0.0
5.896,159,5,896000000,base_footprint,0.0016316671987196836,0.0035068646082309202,-0.4233810467533223,0.9059434468071578,0.0,0.0,0.0,0.0,0.0,0.0,0.0,0.0,0.0,-0.000547908907340192,7.588848678482716e-05,-0.027046373989980752,0.0,0.0,0.0,0.0,0.0,0.0,0.0,0.0,0.0,-0.010020021378292982,-0.027199466003362007,0.007021833024869143,0.0,0.0,0.0,0.0,0.0,0.0,0.0,0.0,0.0
5.929,160,5,930000000,base_footprint,0.0016292689750502002,0.0035046623207318126,-0.4237825764048652,0.9057557014782073,0.0,0.0,0.0,0.0,0.0,0.0,0.0,0.0,0.0,0.0009750656720540203,0.002779998937907636,0.0007766163603245121,0.0,0.0,0.0,0.0,0.0,0.0,0.0,0.0,0.0,-0.003212617885351501,0.010626416345610911,-0.0008937498760209749,0.0,0.0,0.0,0.0,0.0,0.0,0.0,0.0,0.0
5.964,161,5,964000000,base_footprint,0.0016278134101081498,0.003501888144932268,-0.4232780742393251,0.9059915887419545,0.0,0.0,0.0,0.0,0.0,0.0,0.0,0.0,0.0,-8.269828827533736e-05,-0.0001655057872418154,0.03343944679666163,0.0,0.0,0.0,0.0,0.0,0.0,0.0,0.0,0.0,0.005165562560341019,-0.005606541277581579,0.0006968905847931265,0.0,0.0,0.0,0.0,0.0,0.0,0.0,0.0,0.0
5.998,162,5,998000000,base_footprint,0.0016250387450800208,0.00350293863318061,-0.4227652585643662,0.9062309997020703,0.0,0.0,0.0,0.0,0.0,0.0,0.0,0.0,0.0,-8.578160786690262e-07,-0.000163421853400815,0.03307412271724855,0.0,0.0,0.0,0.0,0.0,0.0,0.0,0.0,0.0,0.006053842532382912,-0.006975057396801364,-0.00023138259203499888,0.0,0.0,0.0,0.0,0.0,0.0,0.0,0.0,0.0
6.032,163,6,32000000,base_footprint,0.001627558739542363,0.0035109008473368205,-0.42226141471765677,0.9064658417549074,0.0,0.0,0.0,0.0,0.0,0.0,0.0,0.0,0.0,0.0013267850970528012,-0.0009352974789605018,0.029396823621589498,0.0,0.0,0.0,0.0,0.0,0.0,0.0,0.0,0.0,0.026358660098104707,0.10129167034415267,-0.0005061985266477354,0.0,0.0,0.0,0.0,0.0,0.0,0.0,0.0,0.0
6.066,164,6,66000000,base_footprint,0.0016191650252111683,0.0035048501877143895,-0.42190260757222137,0.9066329378825497,0.0,0.0,0.0,0.0,0.0,0.0,0.0,0.0,0.0,-0.002321129366460415,-0.0010550394810435804,0.03193293992589351,0.0,0.0,0.0,0.0,0.0,0.0,0.0,0.0,0.0,0.08257569868626748,0.46509107897585594,0.007577265961633065,0.0,0.0,0.0,0.0,0.0,0.0,0.0,0.0,0.0
6.1,165,6,100000000,base_footprint,0.0016193179515020318,0.003514272618307714,-0.42129463977669995,0.9069155717004516,0.0,0.0,0.0,0.0,0.0,0.0,0.0,0.0,0.0,-3.67474399118937e-05,-0.00021389850874699052,0.03983295542886677,0.0,0.0,0.0,0.0,0.0,0.0,0.0,0.0,0.0,-0.033164195991425144,-0.2450941878967408,-0.005340023255125316,0.0,0.0,0.0,0.0,0.0,0.0,0.0,0.0,0.0
6.134,166,6,134000000,base_footprint,0.00161705839888499,0.003513938253789721,-0.42067272126502764,0.9072042211892312,0.0,0.0,0.0,0.0,0.0,0.0,0.0,0.0,0.0,-0.0028438561379252906,0.00017654649694608397,0.04886687600166205,0.0,0.0,0.0,0.0,0.0,0.0,0.0,0.0,0.0,-0.00902153913807223,-0.09518147670548546,0.003684967243968306,0.0,0.0,0.0,0.0,0.0,0.0,0.0,0.0,0.0
6.168,167,6,168000000,base_footprint,0.00161861690457103,0.0035149442617128514,-0.4202406183578606,0.9074044566390207,0.0,0.0,0.0,0.0,0.0,0.0,0.0,0.0,0.0,-0.00016817072825523307,-0.00030478811525081064,-0.003906933577273769,0.0,0.0,0.0,0.0,0.0,0.0,0.0,0.0,0.0,-0.03011345114628678,-0.2273792117587332,-0.00569102906398746,0.0,0.0,0.0,0.0,0.0,0.0,0.0,0.0,0.0
6.202,168,6,202000000,base_footprint,0.0016217130017104043,0.003520386534383793,-0.42048488065263107,0.9072912663903094,0.0,0.0,0.0,0.0,0.0,0.0,0.0,0.0,0.0,-0.0002670650348406715,-4.8272834924454635e-05,-0.014783755638980878,0.0,0.0,0.0,0.0,0.0,0.0,0.0,0.0,0.0,-0.009810677808050651,-0.02662625343477808,-0.00027145320005092315,0.0,0.0,0.0,0.0,0.0,0.0,0.0,0.0,0.0
6.236,169,6,236000000,base_footprint,0.0016108083592023708,0.0035087456877031455,-0.4206006929251173,0.9072376486406637,0.0,0.0,0.0,0.0,0.0,0.0,0.0,0.0,0.0,-0.005978864372752101,0.0005449047565461262,-0.0039506870367187,0.0,0.0,0.0,0.0,0.0,0.0,0.0,0.0,0.0,0.020335304718610246,0.08091481165826074,0.009466173945571109,0.0,0.0,0.0,0.0,0.0,0.0,0.0,0.0,0.0
6.27,170,6,270000000,base_footprint,0.0016269826591055734,0.0035172321979058375,-0.4203774793839248,0.9073410366735933,0.0,0.0,0.0,0.0,0.0,0.0,0.0,0.0,0.0,0.0013038246856769838,0.00013357719756059778,0.03004700129268714,0.0,0.0,0.0,0.0,0.0,0.0,0.0,0.0,0.0,0.026383235391876834,0.1970613074515187,-0.010709195863023742,0.0,0.0,0.0,0.0,0.0,0.0,0.0,0.0,0.0
6.304,171,6,304000000,base_footprint,0.0016155773551907247,0.0035169337447498836,-0.42049396926028226,0.9072870785493297,0.0,0.0,0.0,0.0,0.0,0.0,0.0,0.0,0.0,-0.0005066855159565124,0.00015022434731342757,-0.03864784490727599,0.0,0.0,0.0,0.0,0.0,0.0,0.0,0.0,0.0,0.02160306717364919,0.10029614876034616,0.0028816103469924835,0.0,0.0,0.0,0.0,0.0,0.0,0.0,0.0,0.0
6.338,172,6,338000000,base_footprint,0.0016146722977963632,0.003496998044188311,-0.42106536487539037,0.9070221178893072,0.0,0.0,0.0,0.0,0.0,0.0,0.0,0.0,0.0,-4.3014584849119456e-05,0.0006300265786282917,-0.052083086344338274,0.0,0.0,0.0,0.0,0.0,0.0,0.0,0.0,0.0,-0.027869767250406303,-0.12111047131286229,-0.0007539584922840335,0.0,0.0,0.0,0.0,0.0,0.0,0.0,0.0,0.0
6.372,173,6,372000000,base_footprint,0.0016164294677900543,0.003507450501231202,-0.421461386597857,0.906838124779593,0.0,0.0,0.0,0.0,0.0,0.0,0.0,0.0,0.0,0.0017644336126385039,-0.0027055385700273725,0.01746210828351915,0.0,0.0,0.0,0.0,0.0,0.0,0.0,0.0,0.0,-0.04567124782092833,-0.20796330185442943,-0.0037570889241425754,0.0,0.0,0.0,0.0,0.0,0.0,0.0,0.0,0.0
6.406,174,6,406000000,base_footprint,0.0016201968445917893,0.003508716126105269,-0.4211502944676682,0.906982631224616,0.0,0.0,0.0,0.0,0.0,0.0,0.0,0.0,0.0,-0.0002477573971273637,-0.00012260291763346786,0.019835407125369006,0.0,0.0,0.0,0.0,0.0,0.0,0.0,0.0,0.0,0.0038139378932084455,-0.015763516169959343,0.00367260943023349,0.0,0.0,0.0,0.0,0.0,0.0,0.0,0.0,0.0
6.44,175,6,440000000,base_footprint,0.0016207640872434523,0.0035138856253185357,-0.4208250917720314,0.9071335446705998,0.0,0.0,0.0,0.0,0.0,0.0,0.0,0.0,0.0,-0.00631845516658881,0.0009588917881186462,0.02638868211166525,0.0,0.0,0.0,0.0,0.0,0.0,0.0,0.0,0.0,0.059457587293486505,0.3228930839359272,0.0014446775445621613,0.0,0.0,0.0,0.0,0.0,0.0,0.0,0.0,0.0
6.474,176,6,474000000,base_footprint,0.0016123840482481732,0.0035038580557812653,-0.42037602847661315,0.907341786692664,0.0,0.0,0.0,0.0,0.0,0.0,0.0,0.0,0.0,-0.0011100784616216196,4.323826423288126e-05,0.022643553812386148,0.0,0.0,0.0,0.0,0.0,0.0,0.0,0.0,0.0,0.05974304205473342,0.3247445260561026,0.0026634062355600043,0.0,0.0,0.0,0.0,0.0,0.0,0.0,0.0,0.0
6.508,177,6,508000000,base_footprint,0.0016133546019437602,0.0035089564080836317,-0.42002136810652907,0.9075059970301983,0.0,0.0,0.0,0.0,0.0,0.0,0.0,0.0,0.0,0.00012074608851029516,-0.00015826577144959587,0.026656772002266918,0.0,0.0,0.0,0.0,0.0,0.0,0.0,0.0,0.0,-0.04989277498804154,-0.3284061539432035,-0.003114208364163527,0.0,0.0,0.0,0.0,0.0,0.0,0.0,0.0,0.0
6.542,178,6,542000000,base_footprint,0.001610195579429528,0.0035078685395892,-0.4196533968331358,0.9076762245729012,0.0,0.0,0.0,0.0,0.0,0.0,0.0,0.0,0.0,-0.0003227999489690217,-0.0001443029736028867,-0.0011531154912132694,0.0,0.0,0.0,0.0,0.0,0.0,0.0,0.0,0.0,-0.03654986743362834,-0.2561269781760955,-0.0009097471249630099,0.0,0.0,0.0,0.0,0.0,0.0,0.0,0.0,0.0
6.5760000000000005,179,6,576000000,base_footprint,0.001614533043119229,0.00351528029695226,-0.4202131292559109,0.9074171929649789,0.0,0.0,0.0,0.0,0.0,0.0,0.0,0.0,0.0,-0.00020158845146187387,0.00029862321228659106,-0.03989393161315878,0.0,0.0,0.0,0.0,0.0,0.0,0.0,0.0,0.0,-0.025581063752248938,-0.10669605063924184,-0.0011268100823578475,0.0,0.0,0.0,0.0,0.0,0.0,0.0,0.0,0.0
6.61,180,6,610000000,base_footprint,0.0016185457772872089,0.003518120948403896,-0.4208244645517792,0.9071338231866717,0.0,0.0,0.0,0.0,0.0,0.0,0.0,0.0,0.0,-0.00011414957848040398,0.0002563409910641951,-0.03921175695365717,0.0,0.0,0.0,0.0,0.0,0.0,0.0,0.0,0.0,-0.00935382609454602,-0.0012845202239291568,-0.0002035445705344817,0.0,0.0,0.0,0.0,0.0,0.0,0.0,0.0,0.0
6.644,181,6,644000000,base_footprint,0.0016194735727241478,0.003523042333470352,-0.4209534687251806,0.9070739455228015,0.0,0.0,0.0,0.0,0.0,0.0,0.0,0.0,0.0,0.002231547494305097,-0.00028288020992324556,0.055616466304999286,0.0,0.0,0.0,0.0,0.0,0.0,0.0,0.0,0.0,-0.0028676140406613693,0.027081108978691624,-0.0034003896900398054,0.0,0.0,0.0,0.0,0.0,0.0,0.0,0.0,0.0
6.678,182,6,678000000,base_footprint,0.001618570082021428,0.003521650923090227,-0.42015963743090806,0.9074419305275646,0.0,0.0,0.0,0.0,0.0,0.0,0.0,0.0,0.0,0.00013161050141103755,-0.0003611489633824588,0.051081599226944455,0.0,0.0,0.0,0.0,0.0,0.0,0.0,0.0,0.0,0.011058491789103956,-0.006226687198939637,0.003755910553129719,0.0,0.0,0.0,0.0,0.0,0.0,0.0,0.0,0.0
6.712,183,6,712000000,base_footprint,0.0016181902796356664,0.0035169938366168734,-0.41930097745902767,0.9078390289674023,0.0,0.0,0.0,0.0,0.0,0.0,0.0,0.0,0.0,-5.5786009229041845e-05,-0.0007175479982133176,0.06427331161930443,0.0,0.0,0.0,0.0,0.0,0.0,0.0,0.0,0.0,0.020111317426784247,0.035834604227394554,0.0006080053818627096,0.0,0.0,0.0,0.0,0.0,0.0,0.0,0.0,0.0
6.746,184,6,746000000,base_footprint,0.0016118161178373242,0.0035177939595297013,-0.41808923275415316,0.9083977216117972,0.0,0.0,0.0,0.0,0.0,0.0,0.0,0.0,0.0,0.0027368767383603512,-0.0031919773884654242,0.10124019334565089,0.0,0.0,0.0,0.0,0.0,0.0,0.0,0.0,0.0,0.05365858524920415,0.14061996104899369,-0.004459379945452574,0.0,0.0,0.0,0.0,0.0,0.0,0.0,0.0,0.0
6.78,185,6,780000000,base_footprint,0.0016001983398519755,0.0035242273825099274,-0.4163557497464322,0.909193548613119,0.0,0.0,0.0,0.0,0.0,0.0,0.0,0.0,0.0,0.002064354713990211,0.00033378638697565387,0.06821332634884786,0.0,0.0,0.0,0.0,0.0,0.0,0.0,0.0,0.0,0.030090352164706947,0.12200205878701637,0.002463842883434595,0.0,0.0,0.0,0.0,0.0,0.0,0.0,0.0,0.0
6.814,186,6,814000000,base_footprint,0.0016045219691374194,0.00352640258240781,-0.4156654615456019,0.9095093259951539,0.0,0.0,0.0,0.0,0.0,0.0,0.0,0.0,0.0,6.428423843440129e-05,-0.0003015785700852683,0.044797076844996245,0.0,0.0,0.0,0.0,0.0,0.0,0.0,0.0,0.0,0.018109523297116986,0.059242353996298666,0.0032277928208401105,0.0,0.0,0.0,0.0,0.0,0.0,0.0,0.0,0.0
6.848,187,6,848000000,base_footprint,0.0015922641654404126,0.0035089273051083043,-0.41518003970025824,0.9097311068433832,0.0,0.0,0.0,0.0,0.0,0.0,0.0,0.0,0.0,0.001474445613664004,-0.0012536113497645814,0.0053623878850451254,0.0,0.0,0.0,0.0,0.0,0.0,0.0,0.0,0.0,-0.028228543357551886,-0.24597213511107097,-0.0035317785959114723,0.0,0.0,0.0,0.0,0.0,0.0,0.0,0.0,0.0
6.882,188,6,882000000,base_footprint,0.0015990982777757154,0.003520084878956448,-0.4154429693156551,0.9096110108905536,0.0,0.0,0.0,0.0,0.0,0.0,0.0,0.0,0.0,-0.0006216275937152579,0.00010566494253878734,-0.02063578536861999,0.0,0.0,0.0,0.0,0.0,0.0,0.0,0.0,0.0,-0.018497176147804873,-0.109749709745241,0.0023136522924599606,0.0,0.0,0.0,0.0,0.0,0.0,0.0,0.0,0.0
6.916,189,6,916000000,base_footprint,0.0015986606762443134,0.0035166528863915763,-0.41576498093877456,0.9094638849682265,0.0,0.0,0.0,0.0,0.0,0.0,0.0,0.0,0.0,-0.00041900040442363905,0.00013790769327500776,-0.021035923763068794,0.0,0.0,0.0,0.0,0.0,0.0,0.0,0.0,0.0,-0.004925496420799134,-0.00482338734196956,-0.00030545203505137825,0.0,0.0,0.0,0.0,0.0,0.0,0.0,0.0,0.0
6.95,190,6,950000000,base_footprint,0.0016032936191450182,0.0035234595999503455,-0.41605998435957614,0.9093289306388133,0.0,0.0,0.0,0.0,0.0,0.0,0.0,0.0,0.0,-0.0003020827227804804,9.042902949437672e-05,-0.016162339566369054,0.0,0.0,0.0,0.0,0.0,0.0,0.0,0.0,0.0,0.08750830337307744,0.6241391361031068,0.0030966523957446177,0.0,0.0,0.0,0.0,0.0,0.0,0.0,0.0,0.0
6.984,191,6,984000000,base_footprint,0.0015969284721008537,0.003510521452934768,-0.4163186695323524,0.9092105869694851,0.0,0.0,0.0,0.0,0.0,0.0,0.0,0.0,0.0,0.00020362366570544205,6.396016565897336e-05,-0.023015961515996965,0.0,0.0,0.0,0.0,0.0,0.0,0.0,0.0,0.0,-0.031060764284112023,-0.1879560246394978,-0.0017041880116972698,0.0,0.0,0.0,0.0,0.0,0.0,0.0,0.0,0.0
7.018,192,7,18000000,base_footprint,0.0016012559099277185,0.0035159916878426257,-0.4167949214857095,0.9089923361644384,0.0,0.0,0.0,0.0,0.0,0.0,0.0,0.0,0.0,-0.00022445081710286742,0.00020645940867484005,-0.030890286692338415,0.0,0.0,0.0,0.0,0.0,0.0,0.0,0.0,0.0,-0.024158026694528684,-0.11497992853198381,-0.0001504495705145516,0.0,0.0,0.0,0.0,0.0,0.0,0.0,0.0,0.0
7.052,193,7,52000000,base_footprint,0.0016001788727135029,0.003519476045451286,-0.4165136670019757,0.9091212338937575,0.0,0.0,0.0,0.0,0.0,0.0,0.0,0.0,0.0,0.0003637376475744533,-0.00027191033036235606,0.04571032801953202,0.0,0.0,0.0,0.0,0.0,0.0,0.0,0.0,0.0,0.004935661144298563,0.01490402506521491,-0.00019283548781485454,0.0,0.0,0.0,0.0,0.0,0.0,0.0,0.0,0.0
7.086,194,7,86000000,base_footprint,0.001598395167120682,0.003525192662007876,-0.41580768621114605,0.9094443282781628,0.0,0.0,0.0,0.0,0.0,0.0,0.0,0.0,0.0,0.0003207046832616776,-0.00018226375890016886,0.04581211003904734,0.0,0.0,0.0,0.0,0.0,0.0,0.0,0.0,0.0,0.008401321544444241,-0.00543249894079103,-0.0002941115376962972,0.0,0.0,0.0,0.0,0.0,0.0,0.0,0.0,0.0
7.12,195,7,120000000,base_footprint,0.0015969233668012052,0.003529568318079243,-0.41509817487275663,0.9097683755772976,0.0,0.0,0.0,0.0,0.0,0.0,0.0,0.0,0.0,0.00013598402230812685,-0.00027112571433949293,0.045833570743124094,0.0,0.0,0.0,0.0,0.0,0.0,0.0,0.0,0.0,0.007459580214966607,-0.004671247383274149,0.00010705559045870951,0.0,0.0,0.0,0.0,0.0,0.0,0.0,0.0,0.0
7.154,196,7,154000000,base_footprint,0.001594260700492887,0.0035255182966062717,-0.4142357926716102,0.9101613797142143,0.0,0.0,0.0,0.0,0.0,0.0,0.0,0.0,0.0,0.0005515945335070606,-0.000662465052066989,0.050322841012948746,0.0,0.0,0.0,0.0,0.0,0.0,0.0,0.0,0.0,-0.01718097239969038,-0.20608918235708631,-0.001745378350971958,0.0,0.0,0.0,0.0,0.0,0.0,0.0,0.0,0.0
7.188,197,7,188000000,base_footprint,0.0015951448189153586,0.0035246784784993134,-0.41370471314101315,0.9104029011814175,0.0,0.0,0.0,0.0,0.0,0.0,0.0,0.0,0.0,-0.0006353069296385648,-0.0007239881303339116,0.028289966250691048,0.0,0.0,0.0,0.0,0.0,0.0,0.0,0.0,0.0,-0.0009726771205644004,-0.054473613705268806,0.0018491109630691224,0.0,0.0,0.0,0.0,0.0,0.0,0.0,0.0,0.0
7.222,198,7,222000000,base_footprint,0.0015970859894001168,0.0035246665757023136,-0.41316952367859705,0.9106459085424334,0.0,0.0,0.0,0.0,0.0,0.0,0.0,0.0,0.0,-0.0004657799136131999,-0.0005721758448997716,0.033627088866599826,0.0,0.0,0.0,0.0,0.0,0.0,0.0,0.0,0.0,0.015989830134662167,0.04082129652395821,2.4756510295192717e-05,0.0,0.0,0.0,0.0,0.0,0.0,0.0,0.0,0.0
7.256,199,7,256000000,base_footprint,0.0015915923842891298,0.0035232345400732436,-0.4131249144768272,0.9106661620432441,0.0,0.0,0.0,0.0,0.0,0.0,0.0,0.0,0.0,0.0008454838267627301,0.00039022904556086196,-0.03785363398425128,0.0,0.0,0.0,0.0,0.0,0.0,0.0,0.0,0.0,-0.0018054090052463407,-0.031114362484815312,-0.0039538318689942235,0.0,0.0,0.0,0.0,0.0,0.0,0.0,0.0,0.0
7.29,200,7,290000000,base_footprint,0.0015943651855266814,0.0035292033118381047,-0.4138098279735651,0.9103551114791016,0.0,0.0,0.0,0.0,0.0,0.0,0.0,0.0,0.0,0.000434924954767806,-0.0005450694591467519,-0.033599546283356645,0.0,0.0,0.0,0.0,0.0,0.0,0.0,0.0,0.0,-0.01929376861857033,-0.060216353654624105,0.0010077444863339623,0.0,0.0,0.0,0.0,0.0,0.0,0.0,0.0,0.0
7.324,201,7,324000000,base_footprint,0.0015955931037492355,0.0035270599766387316,-0.41430875686730845,0.9101281601585758,0.0,0.0,0.0,0.0,0.0,0.0,0.0,0.0,0.0,-0.0006665132553541818,8.264045654039195e-05,-0.033088499083093935,0.0,0.0,0.0,0.0,0.0,0.0,0.0,0.0,0.0,-0.007091367027617403,-0.00854882600844682,0.0020866659920458592,0.0,0.0,0.0,0.0,0.0,0.0,0.0,0.0,0.0
7.358,202,7,358000000,base_footprint,0.0015932164325392476,0.0035227989349860362,-0.4139645287362335,0.9102848018599734,0.0,0.0,0.0,0.0,0.0,0.0,0.0,0.0,0.0,0.00028396381443372514,-0.0003915619482161031,0.03547813702297289,0.0,0.0,0.0,0.0,0.0,0.0,0.0,0.0,0.0,0.006924451860928573,0.012054722442083558,-0.0008343551555593503,0.0,0.0,0.0,0.0,0.0,0.0,0.0,0.0,0.0
7.392,203,7,392000000,base_footprint,0.0015899582664987795,0.0035210620090739757,-0.4134188136012307,0.9105327883802924,0.0,0.0,0.0,0.0,0.0,0.0,0.0,0.0,0.0,-0.00015485223167981612,-0.0001877850138235988,0.03505586398421226,0.0,0.0,0.0,0.0,0.0,0.0,0.0,0.0,0.0,0.006155958626444651,-0.0067435405762219895,0.0006463820619260614,0.0,0.0,0.0,0.0,0.0,0.0,0.0,0.0,0.0
7.426,204,7,426000000,base_footprint,0.0015866908729087104,0.0035205390675329953,-0.412878264522802,0.9107780338267863,0.0,0.0,0.0,0.0,0.0,0.0,0.0,0.0,0.0,-6.820164701091371e-05,-0.0001922268755559223,0.03473086206833207,0.0,0.0,0.0,0.0,0.0,0.0,0.0,0.0,0.0,0.006817259821240819,-0.006734710894897402,-0.00024513957328907383,0.0,0.0,0.0,0.0,0.0,0.0,0.0,0.0,0.0
7.46,205,7,460000000,base_footprint,0.0015864050548079522,0.00352081737030195,-0.41292493971000815,0.9107568727874269,0.0,0.0,0.0,0.0,0.0,0.0,0.0,0.0,0.0,-0.00023597458729834756,5.740881649234368e-05,-0.006976440626858136,0.0,0.0,0.0,0.0,0.0,0.0,0.0,0.0,0.0,-0.002615791022969773,-0.016535822281401377,-0.00019688849186231242,0.0,0.0,0.0,0.0,0.0,0.0,0.0,0.0,0.0
7.494,206,7,494000000,base_footprint,0.001586682229373232,0.00352228120815141,-0.4130351609282356,0.9107068857824566,0.0,0.0,0.0,0.0,0.0,0.0,0.0,0.0,0.0,-0.00010773438598285945,6.902215727979858e-05,-0.007308116689432692,0.0,0.0,0.0,0.0,0.0,0.0,0.0,0.0,0.0,-0.002270591077763391,-0.005378850809976525,-0.00026807825739510934,0.0,0.0,0.0,0.0,0.0,0.0,0.0,0.0,0.0
7.5280000000000005,207,7,528000000,base_footprint,0.0015873471405605632,0.003525541030892013,-0.4131498679094296,0.9106548399563448,0.0,0.0,0.0,0.0,0.0,0.0,0.0,0.0,0.0,5.191235915685162e-06,9.176378912429798e-05,-0.007537936492763915,0.0,0.0,0.0,0.0,0.0,0.0,0.0,0.0,0.0,-0.0024796391714363196,-0.005020966874631707,-0.00026728590616208675,0.0,0.0,0.0,0.0,0.0,0.0,0.0,0.0,0.0
7.562,208,7,562000000,base_footprint,0.0015895241001519023,0.0035296452506948547,-0.4134116670164893,0.9105360007117712,0.0,0.0,0.0,0.0,0.0,0.0,0.0,0.0,0.0,-3.154358332954479e-05,0.00013767033451431049,-0.01697688533221068,0.0,0.0,0.0,0.0,0.0,0.0,0.0,0.0,0.0,-0.005069955088376028,-0.005876036679032643,-0.0001594195193271803,0.0,0.0,0.0,0.0,0.0,0.0,0.0,0.0,0.0
7.596,209,7,596000000,base_footprint,0.0015923881382833333,0.0035324713203307343,-0.4136644439427732,0.9104211738332454,0.0,0.0,0.0,0.0,0.0,0.0,0.0,0.0,0.0,-6.103109262729967e-05,7.406206668138993e-05,-0.015491726144324591,0.0,0.0,0.0,0.0,0.0,0.0,0.0,0.0,0.0,-0.003950720300334463,0.0008008756104424925,-2.031743057808907e-05,0.0,0.0,0.0,0.0,0.0,0.0,0.0,0.0,0.0
7.63,210,7,630000000,base_footprint,0.0015972190417756229,0.0035320267120207286,-0.41388223992730533,0.9103221765679417,0.0,0.0,0.0,0.0,0.0,0.0,0.0,0.0,0.0,-0.000588664990484724,-0.0024680508409395396,-0.00410715793183951,0.0,0.0,0.0,0.0,0.0,0.0,0.0,0.0,0.0,-0.0013464810507558334,0.001252339055181008,0.001048391909034948,0.0,0.0,0.0,0.0,0.0,0.0,0.0,0.0,0.0
7.664,211,7,664000000,base_footprint,0.0015933722261594065,0.003533877673728048,-0.41323643393271603,0.9106155185060861,0.0,0.0,0.0,0.0,0.0,0.0,0.0,0.0,0.0,-0.0005134824268997934,-0.0005641781715910727,0.05421235690670516,0.0,0.0,0.0,0.0,0.0,0.0,0.0,0.0,0.0,0.01361002507017605,0.047697063904432256,0.0007458751444216732,0.0,0.0,0.0,0.0,0.0,0.0,0.0,0.0,0.0
7.698,212,7,698000000,base_footprint,0.0015905323548686824,0.0035304915645756707,-0.41229831457048766,0.9110406717806159,0.0,0.0,0.0,0.0,0.0,0.0,0.0,0.0,0.0,0.0001657867689599366,-0.0001926614530491135,0.056381679632939295,0.0,0.0,0.0,0.0,0.0,0.0,0.0,0.0,0.0,0.01660953850426536,0.030425476313640714,-0.0011769721234307067,0.0,0.0,0.0,0.0,0.0,0.0,0.0,0.0,0.0
7.731,213,7,732000000,base_footprint,0.0015888106951790916,0.0035295098393471522,-0.41182945624766015,0.9112527186283865,0.0,0.0,0.0,0.0,0.0,0.0,0.0,0.0,0.0,-0.0014389477829791924,-0.0011101186335446096,0.009498577396283627,0.0,0.0,0.0,0.0,0.0,0.0,0.0,0.0,0.0,0.012905006750801218,-0.0021041553152823986,0.002014954689605324,0.0,0.0,0.0,0.0,0.0,0.0,0.0,0.0,0.0
7.766,214,7,766000000,base_footprint,0.0015895454785971976,0.003532405962031962,-0.4118298700002659,0.9112525191344356,0.0,0.0,0.0,0.0,0.0,0.0,0.0,0.0,0.0,-0.0004475313828596297,0.0004162206931271319,0.0003090660537403172,0.0,0.0,0.0,0.0,0.0,0.0,0.0,0.0,0.0,-0.007179161188412686,-0.03987591732440528,-0.0017079305031644483,0.0,0.0,0.0,0.0,0.0,0.0,0.0,0.0,0.0
7.8,215,7,800000000,base_footprint,0.001586918727733877,0.0035301875996343623,-0.4118231342162706,0.9112555764376701,0.0,0.0,0.0,0.0,0.0,0.0,0.0,0.0,0.0,-0.00018795880976131814,8.910396469525451e-05,0.0003966666516595924,0.0,0.0,0.0,0.0,0.0,0.0,0.0,0.0,0.0,-0.001660189693144932,-0.0018454651308235106,-0.00038932282694325497,0.0,0.0,0.0,0.0,0.0,0.0,0.0,0.0,0.0
7.834,216,7,834000000,base_footprint,0.0015920020293173462,0.003540504321732954,-0.4118109747235942,0.9112610226800495,0.0,0.0,0.0,0.0,0.0,0.0,0.0,0.0,0.0,0.0010891891886031554,0.00023217143216060768,0.00666081343662313,0.0,0.0,0.0,0.0,0.0,0.0,0.0,0.0,0.0,0.020068317835098902,0.14820529032625443,0.005687498852100539,0.0,0.0,0.0,0.0,0.0,0.0,0.0,0.0,0.0
7.868,217,7,868000000,base_footprint,0.0015790751735778503,0.0035132797234083495,-0.4119196008429462,0.9112120531624729,0.0,0.0,0.0,0.0,0.0,0.0,0.0,0.0,0.0,0.0017722337956867977,9.156073740305059e-07,-0.04294373514315669,0.0,0.0,0.0,0.0,0.0,0.0,0.0,0.0,0.0,0.04526578763567056,0.38293859298511473,-0.005101745250933203,0.0,0.0,0.0,0.0,0.0,0.0,0.0,0.0,0.0
7.902,218,7,902000000,base_footprint,0.0015845433122091183,0.0035217184735664617,-0.412133911558885,0.9111151001188916,0.0,0.0,0.0,0.0,0.0,0.0,0.0,0.0,0.0,2.971707149141864e-05,-3.918708042259617e-05,-0.0010038809536578523,0.0,0.0,0.0,0.0,0.0,0.0,0.0,0.0,0.0,-0.02881176661074126,-0.2075615911287749,0.001097804994869919,0.0,0.0,0.0,0.0,0.0,0.0,0.0,0.0,0.0
7.936,219,7,936000000,base_footprint,0.0015890273666901182,0.003530421539796212,-0.4121559153166902,0.9111051051252214,0.0,0.0,0.0,0.0,0.0,0.0,0.0,0.0,0.0,-0.0020922329056390176,0.0002639097616181352,-0.0032233427938062947,0.0,0.0,0.0,0.0,0.0,0.0,0.0,0.0,0.0,0.0295046428758207,0.22095473009386146,0.002856877834808333,0.0,0.0,0.0,0.0,0.0,0.0,0.0,0.0,0.0
7.97,220,7,970000000,base_footprint,0.0015830128488939503,0.003517999727262664,-0.4124906282458742,0.9109536757473253,0.0,0.0,0.0,0.0,0.0,0.0,0.0,0.0,0.0,0.0005852313356274232,7.362599656295001e-05,-0.033908191109949415,0.0,0.0,0.0,0.0,0.0,0.0,0.0,0.0,0.0,0.02555996957360894,0.24588416918264433,-0.00122629172147172,0.0,0.0,0.0,0.0,0.0,0.0,0.0,0.0,0.0
8.004,221,8,4000000,base_footprint,0.001585640762127434,0.0035249121776858893,-0.41260000922340223,0.9109041075362222,0.0,0.0,0.0,0.0,0.0,0.0,0.0,0.0,0.0,-5.813095974459982e-05,5.241434300092401e-05,-0.0020256325475248565,0.0,0.0,0.0,0.0,0.0,0.0,0.0,0.0,0.0,-0.019566852688112,-0.1432782159841059,-6.078832367811734e-05,0.0,0.0,0.0,0.0,0.0,0.0,0.0,0.0,0.0
8.038,222,8,38000000,base_footprint,0.0015842454865349785,0.0035219392039591156,-0.4126645141922428,0.9108749007613296,0.0,0.0,0.0,0.0,0.0,0.0,0.0,0.0,0.0,-0.0004068766656426245,-0.00026031433433205584,-0.02403780295621359,0.0,0.0,0.0,0.0,0.0,0.0,0.0,0.0,0.0,-0.02132566668986035,-0.14696467392190227,-8.635271836918902e-05,0.0,0.0,0.0,0.0,0.0,0.0,0.0,0.0,0.0
8.072,223,8,72000000,base_footprint,0.0015904992279572783,0.00352125081872625,-0.4139123966541842,0.9103085185808527,0.0,0.0,0.0,0.0,0.0,0.0,0.0,0.0,0.0,-0.0013421706657782521,0.0007010204676294134,-0.09307633521109893,0.0,0.0,0.0,0.0,0.0,0.0,0.0,0.0,0.0,-0.0671187025284749,-0.38525200953372274,-0.0012852822932779683,0.0,0.0,0.0,0.0,0.0,0.0,0.0,0.0,0.0
8.106,224,8,106000000,base_footprint,0.0015996678368903118,0.003531866378288179,-0.4151159943064169,0.909760231189346,0.0,0.0,0.0,0.0,0.0,0.0,0.0,0.0,0.0,-0.000304022933517249,0.00046813072706322113,-0.07183906392199099,0.0,0.0,0.0,0.0,0.0,0.0,0.0,0.0,0.0,-0.041718827913030845,-0.1581216861888607,-0.0025080590222503326,0.0,0.0,0.0,0.0,0.0,0.0,0.0,0.0,0.0
8.14,225,8,140000000,base_footprint,0.0016005210955838411,0.00352508573536977,-0.4160571128413844,0.9093302430673207,0.0,0.0,0.0,0.0,0.0,0.0,0.0,0.0,0.0,0.0011043527263774771,0.0010918366355139068,-0.018165864203693795,0.0,0.0,0.0,0.0,0.0,0.0,0.0,0.0,0.0,-0.013184418344660987,-0.01409592239846651,-0.0010053636956165433,0.0,0.0,0.0,0.0,0.0,0.0,0.0,0.0,0.0
8.174,226,8,174000000,base_footprint,0.00160491667054254,0.0035308461373425707,-0.41609526990551265,0.9093127535288911,0.0,0.0,0.0,0.0,0.0,0.0,0.0,0.0,0.0,-0.0010238828000373183,0.00010025635153940025,0.001963770588991956,0.0,0.0,0.0,0.0,0.0,0.0,0.0,0.0,0.0,0.0001523442515077543,0.05204528532606371,0.00347385385406761,0.0,0.0,0.0,0.0,0.0,0.0,0.0,0.0,0.0
8.208,227,8,208000000,base_footprint,0.0016015884021124667,0.0035257878958809105,-0.4160843373809042,0.9093177815926606,0.0,0.0,0.0,0.0,0.0,0.0,0.0,0.0,0.0,-0.00029629476298426253,0.00031324396996334564,-0.009500306411127483,0.0,0.0,0.0,0.0,0.0,0.0,0.0,0.0,0.0,0.015288157376002007,0.03000279470604635,-0.0013804884700054014,0.0,0.0,0.0,0.0,0.0,0.0,0.0,0.0,0.0
8.242,228,8,242000000,base_footprint,0.0016026339480650117,0.003522779816681305,-0.4162060581737199,0.9092620847293071,0.0,0.0,0.0,0.0,0.0,0.0,0.0,0.0,0.0,0.0017531256564080533,-0.0005295190915870973,0.01903284756880632,0.0,0.0,0.0,0.0,0.0,0.0,0.0,0.0,0.0,0.025866112725066392,0.2042866698466655,-0.0005608135945583674,0.0,0.0,0.0,0.0,0.0,0.0,0.0,0.0,0.0
8.276,229,8,276000000,base_footprint,0.0016015574976123187,0.0035229700304726607,-0.416002237762453,0.9093553551128282,0.0,0.0,0.0,0.0,0.0,0.0,0.0,0.0,0.0,0.0005796339001258384,-0.0012736563549368006,-0.0034387342568524826,0.0,0.0,0.0,0.0,0.0,0.0,0.0,0.0,0.0,0.018810268027095803,0.1210920638134971,0.0001395687253875605,0.0,0.0,0.0,0.0,0.0,0.0,0.0,0.0,0.0
8.31,230,8,310000000,base_footprint,0.001603163376147807,0.0035210366579825755,-0.4159937990822753,0.9093592201617237,0.0,0.0,0.0,0.0,0.0,0.0,0.0,0.0,0.0,-0.00043214525698418344,-8.560319436447277e-05,-8.414827685322224e-05,0.0,0.0,0.0,0.0,0.0,0.0,0.0,0.0,0.0,-0.0009825094158551146,-0.006267739716064178,0.0025380615194720234,0.0,0.0,0.0,0.0,0.0,0.0,0.0,0.0,0.0
8.344,231,8,344000000,base_footprint,0.001595389460810674,0.0035070190002386586,-0.4161052785002818,0.9093082825721998,0.0,0.0,0.0,0.0,0.0,0.0,0.0,0.0,0.0,-0.001293785964383344,-0.0004231761834039468,-0.028223001438750027,0.0,0.0,0.0,0.0,0.0,0.0,0.0,0.0,0.0,-0.04108796724194569,-0.2760330791369995,-0.0020223386706280616,0.0,0.0,0.0,0.0,0.0,0.0,0.0,0.0,0.0
8.378,232,8,378000000,base_footprint,0.0016031537572889162,0.0035142012730672145,-0.4167360870855639,0.909019314430698,0.0,0.0,0.0,0.0,0.0,0.0,0.0,0.0,0.0,-0.00047725401726645864,0.00025990732872383003,-0.042323154864415416,0.0,0.0,0.0,0.0,0.0,0.0,0.0,0.0,0.0,-0.02185678527562178,-0.08057912765909711,0.00010649166791665347,0.0,0.0,0.0,0.0,0.0,0.0,0.0,0.0,0.0
8.412,233,8,412000000,base_footprint,0.0016047358364868092,0.0035126305399337207,-0.417393037707281,0.9087178540796221,0.0,0.0,0.0,0.0,0.0,0.0,0.0,0.0,0.0,-0.00041466829439555127,0.0002763635433867402,-0.04277360182278179,0.0,0.0,0.0,0.0,0.0,0.0,0.0,0.0,0.0,-0.010106161154592962,-0.004503008143527705,-0.00011894534260914245,0.0,0.0,0.0,0.0,0.0,0.0,0.0,0.0,0.0
8.446,234,8,446000000,base_footprint,0.0016044041211406804,0.0035128646781095187,-0.4175289163369769,0.9086554295725301,0.0,0.0,0.0,0.0,0.0,0.0,0.0,0.0,0.0,-0.0002925639805200487,-0.00014467556092824838,0.029807699017473974,0.0,0.0,0.0,0.0,0.0,0.0,0.0,0.0,0.0,-0.00221079889725493,0.01495683936612668,0.0004644798444912885,0.0,0.0,0.0,0.0,0.0,0.0,0.0,0.0,0.0
8.48,235,8,480000000,base_footprint,0.0016026212575980091,0.00351653777549217,-0.4170757766386271,0.9088635002619835,0.0,0.0,0.0,0.0,0.0,0.0,0.0,0.0,0.0,0.00013072918005390587,-0.00011518915061352035,0.02912088577150241,0.0,0.0,0.0,0.0,0.0,0.0,0.0,0.0,0.0,0.006851239898755131,-0.007626547431851698,-0.0008337088500859333,0.0,0.0,0.0,0.0,0.0,0.0,0.0,0.0,0.0
8.514,236,8,514000000,base_footprint,0.0016012028829512736,0.003521756663563223,-0.41662603019688804,0.909069735686824,0.0,0.0,0.0,0.0,0.0,0.0,0.0,0.0,0.0,0.00024023871651058455,-5.5258993690629996e-05,0.029130281348780623,0.0,0.0,0.0,0.0,0.0,0.0,0.0,0.0,0.0,0.005304756456963261,-0.005542945580775379,-0.00039666314414443815,0.0,0.0,0.0,0.0,0.0,0.0,0.0,0.0,0.0
8.548,237,8,548000000,base_footprint,0.0016005139648343,0.0035131674549340845,-0.4163543203165984,0.9091942454520846,0.0,0.0,0.0,0.0,0.0,0.0,0.0,0.0,0.0,-0.0012811589935929596,0.0001679809197984849,-0.008837895093248607,0.0,0.0,0.0,0.0,0.0,0.0,0.0,0.0,0.0,0.06262640478019381,0.3804768266691123,0.0037647228048872583,0.0,0.0,0.0,0.0,0.0,0.0,0.0,0.0,0.0
8.582,238,8,582000000,base_footprint,0.001602054022824575,0.0035161321958664723,-0.41662885027616775,0.9090684635135287,0.0,0.0,0.0,0.0,0.0,0.0,0.0,0.0,0.0,-0.0002695334301893641,0.00015866262650289736,0.007925315469374665,0.0,0.0,0.0,0.0,0.0,0.0,0.0,0.0,0.0,-0.009108344694302694,-0.022661116415696715,-0.0013787816706491397,0.0,0.0,0.0,0.0,0.0,0.0,0.0,0.0,0.0
8.616,239,8,616000000,base_footprint,0.0016044509933963592,0.003528421758271096,-0.41632449331459626,0.9092078377594698,0.0,0.0,0.0,0.0,0.0,0.0,0.0,0.0,0.0,-0.00025716864852237025,-0.0002864894367789149,0.024742390971589884,0.0,0.0,0.0,0.0,0.0,0.0,0.0,0.0,0.0,-0.0017479093430778966,-0.017076083775880976,6.393527669418729e-05,0.0,0.0,0.0,0.0,0.0,0.0,0.0,0.0,0.0
8.649000000000001,240,8,650000000,base_footprint,0.0016021668244258756,0.0035165368420196326,-0.41561461719172915,0.9095326035974071,0.0,0.0,0.0,0.0,0.0,0.0,0.0,0.0,0.0,5.844922986519659e-05,-0.000657005544025026,0.08503059585879402,0.0,0.0,0.0,0.0,0.0,0.0,0.0,0.0,0.0,0.009852785669052781,-0.04470753732311558,-0.0005852009867098073,0.0,0.0,0.0,0.0,0.0,0.0,0.0,0.0,0.0
8.684,241,8,684000000,base_footprint,0.0015987842530626928,0.0035067781091727883,-0.4141223001073666,0.9102130887599835,0.0,0.0,0.0,0.0,0.0,0.0,0.0,0.0,0.0,0.00040007581199481997,-0.00027313777747405645,0.08628142080960774,0.0,0.0,0.0,0.0,0.0,0.0,0.0,0.0,0.0,0.014397673915422276,-0.06025311441402934,-0.0007424194778509212,0.0,0.0,0.0,0.0,0.0,0.0,0.0,0.0,0.0
8.718,242,8,718000000,base_footprint,0.0015923390672717792,0.0035135148786569707,-0.41350665791548186,0.910492923382198,0.0,0.0,0.0,0.0,0.0,0.0,0.0,0.0,0.0,0.0015820832257542033,0.0015555452649522916,-0.007130672842237907,0.0,0.0,0.0,0.0,0.0,0.0,0.0,0.0,0.0,-0.010658106903413029,-0.09634532637502337,-0.0023689053980264,0.0,0.0,0.0,0.0,0.0,0.0,0.0,0.0,0.0
8.752,243,8,752000000,base_footprint,0.0015913092450907586,0.0035297034836302013,-0.41377004701849734,0.910373196616923,0.0,0.0,0.0,0.0,0.0,0.0,0.0,0.0,0.0,-0.00013344238389614008,0.0007581741500386832,-0.04123845735514375,0.0,0.0,0.0,0.0,0.0,0.0,0.0,0.0,0.0,0.02509171921255901,0.1942788588637836,0.0029078230620625035,0.0,0.0,0.0,0.0,0.0,0.0,0.0,0.0,0.0
8.786,244,8,786000000,base_footprint,0.001595874587246913,0.0035248202496403623,-0.41451088095844146,0.9100361302682254,0.0,0.0,0.0,0.0,0.0,0.0,0.0,0.0,0.0,-0.0004142485950857741,6.239207169156968e-05,-0.04708431233646556,0.0,0.0,0.0,0.0,0.0,0.0,0.0,0.0,0.0,-0.008769861439389444,0.014295789356122041,0.0005811629187437831,0.0,0.0,0.0,0.0,0.0,0.0,0.0,0.0,0.0
8.82,245,8,820000000,base_footprint,0.001598836483484793,0.003520473089136528,-0.415229324695885,0.9097085565738772,0.0,0.0,0.0,0.0,0.0,0.0,0.0,0.0,0.0,-0.0005829928567240573,0.0002286382014014299,-0.046588280210496755,0.0,0.0,0.0,0.0,0.0,0.0,0.0,0.0,0.0,-0.010418057144769451,-0.005839709654544949,0.0003455083870545419,0.0,0.0,0.0,0.0,0.0,0.0,0.0,0.0,0.0
8.854,246,8,854000000,base_footprint,0.001594697203731128,0.0035136273698833384,-0.4158318164349228,0.9094333465427616,0.0,0.0,0.0,0.0,0.0,0.0,0.0,0.0,0.0,0.00045515938744414134,-0.0010577470405231742,0.0048206013018672715,0.0,0.0,0.0,0.0,0.0,0.0,0.0,0.0,0.0,-0.054887962561412665,-0.3125986247776953,-0.0035684491118823714,0.0,0.0,0.0,0.0,0.0,0.0,0.0,0.0,0.0
8.888,247,8,888000000,base_footprint,0.001597564136993459,0.0035158172171500107,-0.41568648394996643,0.9094997712366056,0.0,0.0,0.0,0.0,0.0,0.0,0.0,0.0,0.0,-0.000141435332634752,-3.9099796190466394e-05,0.009401886621555593,0.0,0.0,0.0,0.0,0.0,0.0,0.0,0.0,0.0,-0.00036509947318831646,-0.019552919826267112,0.0017014662065164554,0.0,0.0,0.0,0.0,0.0,0.0,0.0,0.0,0.0
8.922,248,8,922000000,base_footprint,0.0015963177929806738,0.0035166022789840843,-0.41554321097062785,0.90956523960304,0.0,0.0,0.0,0.0,0.0,0.0,0.0,0.0,0.0,-9.416305621384837e-05,-2.2521377088655342e-05,0.009067667214939238,0.0,0.0,0.0,0.0,0.0,0.0,0.0,0.0,0.0,0.0011396745270408327,-0.005975799282232079,-0.00017604151868903553,0.0,0.0,0.0,0.0,0.0,0.0,0.0,0.0,0.0
8.956,249,8,956000000,base_footprint,0.0015968436203895918,0.0035186497551476115,-0.4157264698136405,0.9094814849630756,0.0,0.0,0.0,0.0,0.0,0.0,0.0,0.0,0.0,-0.00013284752981434787,0.00014473067262511655,-0.01726206795140587,0.0,0.0,0.0,0.0,0.0,0.0,0.0,0.0,0.0,-0.004364287060943167,-0.01193967202484666,-0.00023899810603560337,0.0,0.0,0.0,0.0,0.0,0.0,0.0,0.0,0.0
8.99,250,8,990000000,base_footprint,0.0015978916869195522,0.003522168396888541,-0.4159940810612419,0.9093590960637903,0.0,0.0,0.0,0.0,0.0,0.0,0.0,0.0,0.0,-7.519274496750966e-06,0.00017760236458247837,-0.017390990570076495,0.0,0.0,0.0,0.0,0.0,0.0,0.0,0.0,0.0,-0.0045269111048037,-0.004435601666665531,-0.0002903485770589051,0.0,0.0,0.0,0.0,0.0,0.0,0.0,0.0,0.0
9.024,251,9,24000000,base_footprint,0.001600259321906369,0.0035255354199626764,-0.4162585280468037,0.9092380588154093,0.0,0.0,0.0,0.0,0.0,0.0,0.0,0.0,0.0,-1.6955208431602845e-05,0.000145567499913858,-0.016683085837209746,0.0,0.0,0.0,0.0,0.0,0.0,0.0,0.0,0.0,-0.004748736441293976,-0.002265176243371095,-8.090733947720605e-05,0.0,0.0,0.0,0.0,0.0,0.0,0.0,0.0,0.0
9.058,252,9,58000000,base_footprint,0.0016049073847940328,0.0035278089407702862,-0.4169436544251065,0.9089240715653872,0.0,0.0,0.0,0.0,0.0,0.0,0.0,0.0,0.0,-0.00029280000656162203,0.0002571512079418409,-0.0476786242668629,0.0,0.0,0.0,0.0,0.0,0.0,0.0,0.0,0.0,-0.010584272817392288,-0.004192680750902837,0.00010913295971837236,0.0,0.0,0.0,0.0,0.0,0.0,0.0,0.0,0.0
9.092,253,9,92000000,base_footprint,0.0016090271431620903,0.0035261833533888195,-0.4176630885467232,0.9085937054196572,0.0,0.0,0.0,0.0,0.0,0.0,0.0,0.0,0.0,-0.0004195445981574833,0.0001876651853474048,-0.044914509611613404,0.0,0.0,0.0,0.0,0.0,0.0,0.0,0.0,0.0,-0.010598610715061837,0.008900493580050633,0.00041244577037833393,0.0,0.0,0.0,0.0,0.0,0.0,0.0,0.0,0.0
9.126,254,9,126000000,base_footprint,0.0016160987636358272,0.0035192114508919774,-0.4182817882103628,0.9083090603022143,0.0,0.0,0.0,0.0,0.0,0.0,0.0,0.0,0.0,-0.00022620993441194084,-1.336681150191463e-05,-0.031157983839235234,0.0,0.0,0.0,0.0,0.0,0.0,0.0,0.0,0.0,-1.882813775081274e-05,0.043849763337419696,2.3354435136334713e-05,0.0,0.0,0.0,0.0,0.0,0.0,0.0,0.0,0.0
9.16,255,9,160000000,base_footprint,0.001598915813362949,0.0035111874779195805,-0.41881757351105525,0.9080621978416614,0.0,0.0,0.0,0.0,0.0,0.0,0.0,0.0,0.0,-0.0019819447772490575,0.0021226248918057074,-0.02490285204536267,0.0,0.0,0.0,0.0,0.0,0.0,0.0,0.0,0.0,0.029654493583200506,0.22886512980306162,0.0041137453357974665,0.0,0.0,0.0,0.0,0.0,0.0,0.0,0.0,0.0
9.194,256,9,194000000,base_footprint,0.0016120264616974092,0.0035168751980223017,-0.4185161444145771,0.9082011174975978,0.0,0.0,0.0,0.0,0.0,0.0,0.0,0.0,0.0,-0.003577887478422246,0.0010481898745677673,0.0666978698405228,0.0,0.0,0.0,0.0,0.0,0.0,0.0,0.0,0.0,0.04604441058099798,0.2750479917201458,0.0040802637379896535,0.0,0.0,0.0,0.0,0.0,0.0,0.0,0.0,0.0
9.228,257,9,228000000,base_footprint,0.0016080701428382597,0.003521515959643739,-0.4180871000109856,0.9083986954196742,0.0,0.0,0.0,0.0,0.0,0.0,0.0,0.0,0.0,-5.660975143477689e-05,0.0001750819849170854,-0.012686805104186315,0.0,0.0,0.0,0.0,0.0,0.0,0.0,0.0,0.0,0.029412898277251198,0.13675927090497794,-0.004867368843858709,0.0,0.0,0.0,0.0,0.0,0.0,0.0,0.0,0.0
9.262,258,9,262000000,base_footprint,0.001604056936571904,0.0035119503120157303,-0.41888204395793904,0.9080324479091976,0.0,0.0,0.0,0.0,0.0,0.0,0.0,0.0,0.0,-0.0021825005944640903,-0.0032842416818496113,-0.061168005667318524,0.0,0.0,0.0,0.0,0.0,0.0,0.0,0.0,0.0,-0.054997932608783134,-0.2907689028616806,-0.000765720103707413,0.0,0.0,0.0,0.0,0.0,0.0,0.0,0.0,0.0
9.296,259,9,296000000,base_footprint,0.0016161431748652165,0.003511921440073291,-0.4203465510007312,0.9073554053130597,0.0,0.0,0.0,0.0,0.0,0.0,0.0,0.0,0.0,0.0010268020985700556,-0.0016954215791094309,-0.09965207156972561,0.0,0.0,0.0,0.0,0.0,0.0,0.0,0.0,0.0,-0.08537492074212248,-0.3795696125104247,-0.0051340757089471944,0.0,0.0,0.0,0.0,0.0,0.0,0.0,0.0,0.0
9.33,260,9,330000000,base_footprint,0.00162128175822213,0.0035089464162718063,-0.4218556884356803,0.9066547506493122,0.0,0.0,0.0,0.0,0.0,0.0,0.0,0.0,0.0,0.0006010174146956768,0.003058876177198485,-0.07053969375184034,0.0,0.0,0.0,0.0,0.0,0.0,0.0,0.0,0.0,-0.018174797283505857,0.015052490068000909,0.002946555900121352,0.0,0.0,0.0,0.0,0.0,0.0,0.0,0.0,0.0
9.364,261,9,364000000,base_footprint,0.0016227193336880844,0.003504770859858264,-0.42218515535502366,0.9065013943514033,0.0,0.0,0.0,0.0,0.0,0.0,0.0,0.0,0.0,-0.00038687470884547125,0.00016667627528099075,-0.019076900751223605,0.0,0.0,0.0,0.0,0.0,0.0,0.0,0.0,0.0,-0.006304533078156284,-0.00041258730425412825,0.0005022559331105507,0.0,0.0,0.0,0.0,0.0,0.0,0.0,0.0,0.0
9.398,262,9,398000000,base_footprint,0.001622926866639813,0.0035045252312707366,-0.4224806651277656,0.9063637084551046,0.0,0.0,0.0,0.0,0.0,0.0,0.0,0.0,0.0,-0.0002541937555015126,0.0001558026813737065,-0.019378533475185464,0.0,0.0,0.0,0.0,0.0,0.0,0.0,0.0,0.0,-0.005356260410178782,-0.004892577940986153,-0.0002184363590559246,0.0,0.0,0.0,0.0,0.0,0.0,0.0,0.0,0.0
9.432,263,9,432000000,base_footprint,0.001624049602632922,0.003503826240935151,-0.42271558452161784,0.9062541697929498,0.0,0.0,0.0,0.0,0.0,0.0,0.0,0.0,0.0,-0.0008911289669248112,0.0003043787198400555,0.03555985459663619,0.0,0.0,0.0,0.0,0.0,0.0,0.0,0.0,0.0,-0.001175049343151982,0.004613801059960658,-0.0008681903753882223,0.0,0.0,0.0,0.0,0.0,0.0,0.0,0.0,0.0
9.466,264,9,466000000,base_footprint,0.001619975020868783,0.003510720119287634,-0.42191486498481595,0.90662720962368,0.0,0.0,0.0,0.0,0.0,0.0,0.0,0.0,0.0,0.00031200586298228743,-0.00023109466282944077,0.0519099893378925,0.0,0.0,0.0,0.0,0.0,0.0,0.0,0.0,0.0,0.009589022855162705,0.0020819440285636992,0.00040426682105544485,0.0,0.0,0.0,0.0,0.0,0.0,0.0,0.0,0.0
9.5,265,9,500000000,base_footprint,0.0016175693963313852,0.003516516909611678,-0.4211111409312918,0.9070007853147748,0.0,0.0,0.0,0.0,0.0,0.0,0.0,0.0,0.0,0.00034748152180692077,-0.00019718888028871987,0.052406257989975946,0.0,0.0,0.0,0.0,0.0,0.0,0.0,0.0,0.0,0.009750136157662913,-0.005344857564905835,-0.0002549965856538374,0.0,0.0,0.0,0.0,0.0,0.0,0.0,0.0,0.0
9.534,266,9,534000000,base_footprint,0.0016153995049868518,0.003513329410143813,-0.4203853362461656,0.9073374323095535,0.0,0.0,0.0,0.0,0.0,0.0,0.0,0.0,0.0,-0.0027111158997792546,-0.002157540385929145,0.00600709628046827,0.0,0.0,0.0,0.0,0.0,0.0,0.0,0.0,0.0,0.00818836196119709,-0.0019525364654604247,0.0025745777722269866,0.0,0.0,0.0,0.0,0.0,0.0,0.0,0.0,0.0
9.568,267,9,568000000,base_footprint,0.0016173297616629732,0.0035223741093186787,-0.42037822378463535,0.9073406890979546,0.0,0.0,0.0,0.0,0.0,0.0,0.0,0.0,0.0,-0.00028465462081494054,-0.00012830910216228916,0.004227993349735438,0.0,0.0,0.0,0.0,0.0,0.0,0.0,0.0,0.0,0.00044072087690621466,-0.004131970437205714,-0.002056904655055762,0.0,0.0,0.0,0.0,0.0,0.0,0.0,0.0,0.0
9.602,268,9,602000000,base_footprint,0.0016221552946967543,0.003515353836024597,-0.42028140918195517,0.9073855564177984,0.0,0.0,0.0,0.0,0.0,0.0,0.0,0.0,0.0,-0.00022812376074528816,-0.00048047651415622397,0.011526428434869894,0.0,0.0,0.0,0.0,0.0,0.0,0.0,0.0,0.0,0.010337175632980342,0.024574563892737922,0.00012669992747786347,0.0,0.0,0.0,0.0,0.0,0.0,0.0,0.0,0.0
9.636,269,9,636000000,base_footprint,0.0016226300957647617,0.00351588758774025,-0.41997629280277,0.9075268145292925,0.0,0.0,0.0,0.0,0.0,0.0,0.0,0.0,0.0,-9.732024677636178e-05,-5.441113909154824e-05,0.013767083233999569,0.0,0.0,0.0,0.0,0.0,0.0,0.0,0.0,0.0,0.005217512948816276,0.026820738121783868,-0.0003731072498415729,0.0,0.0,0.0,0.0,0.0,0.0,0.0,0.0,0.0
9.67,270,9,670000000,base_footprint,0.0016150473308157132,0.0035176540830194666,-0.42009994526617694,0.9074695883164496,0.0,0.0,0.0,0.0,0.0,0.0,0.0,0.0,0.0,-1.68811361065075e-05,6.821706785529881e-05,-0.021645784222735213,0.0,0.0,0.0,0.0,0.0,0.0,0.0,0.0,0.0,0.006595143074147127,0.00957371612867639,-0.00022127466602621718,0.0,0.0,0.0,0.0,0.0,0.0,0.0,0.0,0.0
9.704,271,9,704000000,base_footprint,0.0016167849811133987,0.0035151346269616766,-0.4204499318384437,0.9073074917865096,0.0,0.0,0.0,0.0,0.0,0.0,0.0,0.0,0.0,4.6175611029342294e-05,9.98079274504361e-05,-0.015963210820660434,0.0,0.0,0.0,0.0,0.0,0.0,0.0,0.0,0.0,-0.01108698269368633,-0.010253510413172868,0.00017641674770293197,0.0,0.0,0.0,0.0,0.0,0.0,0.0,0.0,0.0
9.738,272,9,738000000,base_footprint,0.0016196527860325998,0.0035159977108125337,-0.42048148861669615,0.9072928591230274,0.0,0.0,0.0,0.0,0.0,0.0,0.0,0.0,0.0,-0.003687605856512469,0.0016232745418536608,0.021455570255615192,0.0,0.0,0.0,0.0,0.0,0.0,0.0,0.0,0.0,0.029488549107067295,0.17162500650912896,0.005702257437227159,0.0,0.0,0.0,0.0,0.0,0.0,0.0,0.0,0.0
9.772,273,9,772000000,base_footprint,0.0016162843314905682,0.0035114275371179258,-0.42004483510895585,0.9074951206479853,0.0,0.0,0.0,0.0,0.0,0.0,0.0,0.0,0.0,-7.888862803121354e-05,-0.00022663501664156463,0.028500080411541867,0.0,0.0,0.0,0.0,0.0,0.0,0.0,0.0,0.0,0.02784535814617443,0.1416485309949042,-0.0035237723119991293,0.0,0.0,0.0,0.0,0.0,0.0,0.0,0.0,0.0
9.806000000000001,274,9,806000000,base_footprint,0.0016139843783190468,0.003510676134963059,-0.41960605990900224,0.9076980911598002,0.0,0.0,0.0,0.0,0.0,0.0,0.0,0.0,0.0,-0.00016018655041830055,-0.00014376698630381198,0.02822535254669241,0.0,0.0,0.0,0.0,0.0,0.0,0.0,0.0,0.0,0.003928312088054645,-0.006333362533895682,0.0001886541298547428,0.0,0.0,0.0,0.0,0.0,0.0,0.0,0.0,0.0
9.84,275,9,840000000,base_footprint,0.001610462853690554,0.003511123425887169,-0.41896990429876124,0.9079919039912042,0.0,0.0,0.0,0.0,0.0,0.0,0.0,0.0,0.0,-0.00041540372469522945,-0.00011701365841915873,0.07004760918709235,0.0,0.0,0.0,0.0,0.0,0.0,0.0,0.0,0.0,0.007365268264397951,0.004899621757166132,0.0006733611543971802,0.0,0.0,0.0,0.0,0.0,0.0,0.0,0.0,0.0
9.874,276,9,874000000,base_footprint,0.001604960875992506,0.0035121368325219497,-0.4179024287679583,0.9084837087286144,0.0,0.0,0.0,0.0,0.0,0.0,0.0,0.0,0.0,0.00017249097768835266,-0.00037695544429213737,0.068886134257023,0.0,0.0,0.0,0.0,0.0,0.0,0.0,0.0,0.0,0.014803521472325706,-0.008402541023345934,-0.001064314955477971,0.0,0.0,0.0,0.0,0.0,0.0,0.0,0.0,0.0
9.908,277,9,908000000,base_footprint,0.0016004907630494895,0.0035154304265553964,-0.4168391531616451,0.9089720570896095,0.0,0.0,0.0,0.0,0.0,0.0,0.0,0.0,0.0,0.0002545082900753092,-0.0003678859487431774,0.0686891934123424,0.0,0.0,0.0,0.0,0.0,0.0,0.0,0.0,0.0,0.013274335315087414,-0.007451334311930409,-0.00028393594488414903,0.0,0.0,0.0,0.0,0.0,0.0,0.0,0.0,0.0
9.942,278,9,942000000,base_footprint,0.0015950866902740806,0.0035154992403312597,-0.4158128144668761,0.909442026898184,0.0,0.0,0.0,0.0,0.0,0.0,0.0,0.0,0.0,-0.00010207050553017063,-0.00045836137872679863,0.04278659377130786,0.0,0.0,0.0,0.0,0.0,0.0,0.0,0.0,0.0,-0.02139479628318114,-0.24235419597352192,-0.0008964089306762302,0.0,0.0,0.0,0.0,0.0,0.0,0.0,0.0,0.0
9.976,279,9,976000000,base_footprint,0.0015972741346319264,0.003525331737326982,-0.41576325490779603,0.9094646428641169,0.0,0.0,0.0,0.0,0.0,0.0,0.0,0.0,0.0,7.634470082338684e-06,0.00010108507837981391,-0.0020675641607279588,0.0,0.0,0.0,0.0,0.0,0.0,0.0,0.0,0.0,-0.01750497057639331,-0.1243928624645487,-0.0014243733739602777,0.0,0.0,0.0,0.0,0.0,0.0,0.0,0.0,0.0
10.01,280,10,10000000,base_footprint,0.001599265522090006,0.0035284773647649642,-0.4157853554361244,0.9094545235481167,0.0,0.0,0.0,0.0,0.0,0.0,0.0,0.0,0.0,7.235354469736415e-05,-2.6787065876400532e-05,-0.0005427327614144749,0.0,0.0,0.0,0.0,0.0,0.0,0.0,0.0,0.0,-0.00031964872382315437,-0.0004147717192200886,-0.00020121836771219045,0.0,0.0,0.0,0.0,0.0,0.0,0.0,0.0,0.0
10.044,281,10,44000000,base_footprint,0.0016009841922628313,0.0035286723321799073,-0.4158386006026425,0.9094301752031457,0.0,0.0,0.0,0.0,0.0,0.0,0.0,0.0,0.0,-0.00013247925997429366,3.833752343286995e-05,-0.009053697918195134,0.0,0.0,0.0,0.0,0.0,0.0,0.0,0.0,0.0,-0.0013705661535702975,-0.0005288459714851635,0.0003550042502607595,0.0,0.0,0.0,0.0,0.0,0.0,0.0,0.0,0.0
10.078,282,10,78000000,base_footprint,0.0016040987759777794,0.0035257309819865007,-0.4159348553453168,0.9093861623078668,0.0,0.0,0.0,0.0,0.0,0.0,0.0,0.0,0.0,-0.0005912134768202824,-0.0005189766061930272,-0.002555053909211452,0.0,0.0,0.0,0.0,0.0,0.0,0.0,0.0,0.0,0.005269552195589781,0.020123767815630522,0.0009995036640516892,0.0,0.0,0.0,0.0,0.0,0.0,0.0,0.0,0.0
10.112,283,10,112000000,base_footprint,0.0016065868636396244,0.0035250190797713877,-0.4158303465467837,0.9094339536271552,0.0,0.0,0.0,0.0,0.0,0.0,0.0,0.0,0.0,3.016745165523865e-05,0.00013722982887396615,0.009120908182021192,0.0,0.0,0.0,0.0,0.0,0.0,0.0,0.0,0.0,0.0036883291904382005,0.04715314333526338,-0.001074057764052957,0.0,0.0,0.0,0.0,0.0,0.0,0.0,0.0,0.0
10.146,284,10,146000000,base_footprint,0.0015962952112771585,0.003519251113477752,-0.41569284041939353,0.9094968549353293,0.0,0.0,0.0,0.0,0.0,0.0,0.0,0.0,0.0,0.0012723159974732281,6.728044477248975e-05,0.027538731923236612,0.0,0.0,0.0,0.0,0.0,0.0,0.0,0.0,0.0,0.025072281370191157,0.08749717824773476,-0.001520579718995314,0.0,0.0,0.0,0.0,0.0,0.0,0.0,0.0,0.0
10.18,285,10,180000000,base_footprint,0.0015901667889160313,0.0035220508583459396,-0.4154008320194287,0.9096302629557248,0.0,0.0,0.0,0.0,0.0,0.0,0.0,0.0,0.0,0.000182039071901594,0.00027866429757561744,0.02720470748562412,0.0,0.0,0.0,0.0,0.0,0.0,0.0,0.0,0.0,-0.00762497159874375,-0.037654719590180206,0.002737846745310217,0.0,0.0,0.0,0.0,0.0,0.0,0.0,0.0,0.0
10.214,286,10,214000000,base_footprint,0.0015970964486006043,0.0035267149092497794,-0.4146759823860324,0.9099609009166613,0.0,0.0,0.0,0.0,0.0,0.0,0.0,0.0,0.0,-0.0002390589385030036,-0.00028572708753437173,0.05869518001891706,0.0,0.0,0.0,0.0,0.0,0.0,0.0,0.0,0.0,-0.0015259163261362105,-0.07124549948849607,3.36488777222748e-05,0.0,0.0,0.0,0.0,0.0,0.0,0.0,0.0,0.0
10.248,287,10,248000000,base_footprint,0.0015926588436762324,0.0035234833519448795,-0.414096226694772,0.9102248972314636,0.0,0.0,0.0,0.0,0.0,0.0,0.0,0.0,0.0,4.638191692626365e-05,-0.0003048169473111549,0.021693700347006125,0.0,0.0,0.0,0.0,0.0,0.0,0.0,0.0,0.0,0.00619394396905038,-0.012511927731215077,-0.0008201754721984427,0.0,0.0,0.0,0.0,0.0,0.0,0.0,0.0,0.0
10.281,288,10,282000000,base_footprint,0.0015905442339495513,0.003521409560180494,-0.41376504449720625,0.9103755037323744,0.0,0.0,0.0,0.0,0.0,0.0,0.0,0.0,0.0,-0.00021544431036127506,-0.00013597686625896414,0.021204778396238685,0.0,0.0,0.0,0.0,0.0,0.0,0.0,0.0,0.0,0.004499956618826444,-0.004873961284863204,0.0003150643363577503,0.0,0.0,0.0,0.0,0.0,0.0,0.0,0.0,0.0
10.316,289,10,316000000,base_footprint,0.00158792296549454,0.0035203512400633513,-0.4134380285828299,0.9105240700549028,0.0,0.0,0.0,0.0,0.0,0.0,0.0,0.0,0.0,-0.00015043468870473605,-0.0001067534570269811,0.02098367258539649,0.0,0.0,0.0,0.0,0.0,0.0,0.0,0.0,0.0,0.0037377553520706506,-0.006324087223294007,-0.00017142280685098784,0.0,0.0,0.0,0.0,0.0,0.0,0.0,0.0,0.0
10.35,290,10,350000000,base_footprint,0.0015888520018719717,0.003526176479866467,-0.41316630146761246,0.9106473790443386,0.0,0.0,0.0,0.0,0.0,0.0,0.0,0.0,0.0,-0.0011214610133081274,0.0002230667414185899,-0.012095849827740465,0.0,0.0,0.0,0.0,0.0,0.0,0.0,0.0,0.0,0.07887991486437632,0.5676749206917687,0.003729911739607539,0.0,0.0,0.0,0.0,0.0,0.0,0.0,0.0,0.0
10.384,291,10,384000000,base_footprint,0.0015878025606306076,0.00351995866003221,-0.41366657520723205,0.9104202619287313,0.0,0.0,0.0,0.0,0.0,0.0,0.0,0.0,0.0,0.001092650220022878,-0.0002385375341318152,0.010528701989010123,0.0,0.0,0.0,0.0,0.0,0.0,0.0,0.0,0.0,-0.03873199578035753,-0.24091139626291685,-0.003500761657332292,0.0,0.0,0.0,0.0,0.0,0.0,0.0,0.0,0.0
10.418,292,10,418000000,base_footprint,0.0015874250274819511,0.0035242998483599876,-0.41349312223916324,0.9104990374806936,0.0,0.0,0.0,0.0,0.0,0.0,0.0,0.0,0.0,5.0597564324098366e-05,-2.2784963934674113e-05,0.011115809313394958,0.0,0.0,0.0,0.0,0.0,0.0,0.0,0.0,0.0,0.0015814857842639174,-0.007135706160933375,0.0008814702229936308,0.0,0.0,0.0,0.0,0.0,0.0,0.0,0.0,0.0
10.452,293,10,452000000,base_footprint,0.0015890765026853881,0.0035195059944862993,-0.4135336671009295,0.9104806390514193,0.0,0.0,0.0,0.0,0.0,0.0,0.0,0.0,0.0,0.0010188561583337808,0.0021116353482440128,-0.028828850255050806,0.0,0.0,0.0,0.0,0.0,0.0,0.0,0.0,0.0,0.0716305391170581,0.5394318022816824,-0.0011857894586080875,0.0,0.0,0.0,0.0,0.0,0.0,0.0,0.0,0.0
10.486,294,10,486000000,base_footprint,0.0015895931856516209,0.0035257520197603466,-0.41411139515437284,0.9102179929387785,0.0,0.0,0.0,0.0,0.0,0.0,0.0,0.0,0.0,0.0015298342752579298,0.0007930746036349691,-0.0016420155696457459,0.0,0.0,0.0,0.0,0.0,0.0,0.0,0.0,0.0,-0.03528832398152011,-0.21349248405167803,0.0011245366096156266,0.0,0.0,0.0,0.0,0.0,0.0,0.0,0.0,0.0
10.52,295,10,520000000,base_footprint,0.0015934868394853526,0.00353253110708482,-0.41411380339093107,0.9102168641948838,0.0,0.0,0.0,0.0,0.0,0.0,0.0,0.0,0.0,-1.7549210632664716e-05,-4.822428199371385e-05,0.000736275663567129,0.0,0.0,0.0,0.0,0.0,0.0,0.0,0.0,0.0,-0.00038276781965343627,0.006420043809371048,0.0015885734585571096,0.0,0.0,0.0,0.0,0.0,0.0,0.0,0.0,0.0
10.554,296,10,554000000,base_footprint,0.0015919006487461178,0.003526466127562093,-0.41377379182860924,0.9103715060813088,0.0,0.0,0.0,0.0,0.0,0.0,0.0,0.0,0.0,0.0010922463854204348,-0.0009545674910846082,0.03751080893499044,0.0,0.0,0.0,0.0,0.0,0.0,0.0,0.0,0.0,-0.021056880099709442,-0.15762602964601682,-0.0020538698103972856,0.0,0.0,0.0,0.0,0.0,0.0,0.0,0.0,0.0
10.588000000000001,297,10,588000000,base_footprint,0.0015913905167770942,0.003521769999468606,-0.41279073528549814,0.9108176949723539,0.0,0.0,0.0,0.0,0.0,0.0,0.0,0.0,0.0,0.0016728330940428832,0.0007906493764479221,0.10385032006904972,0.0,0.0,0.0,0.0,0.0,0.0,0.0,0.0,0.0,0.007688681035721057,-0.06918839386183635,-0.0031685594335129994,0.0,0.0,0.0,0.0,0.0,0.0,0.0,0.0,0.0
10.622,298,10,622000000,base_footprint,0.0015827566204631059,0.0035098372109636238,-0.41106296798909353,0.9115988220002429,0.0,0.0,0.0,0.0,0.0,0.0,0.0,0.0,0.0,0.0001764263256676867,0.0002965116488116458,0.09945489755787086,0.0,0.0,0.0,0.0,0.0,0.0,0.0,0.0,0.0,0.02551101648806323,-0.06736776370945967,0.0038412222762501135,0.0,0.0,0.0,0.0,0.0,0.0,0.0,0.0,0.0
10.656,299,10,656000000,base_footprint,0.0015766228342844362,0.003518381291372771,-0.41023614787322205,0.9119711827857648,0.0,0.0,0.0,0.0,0.0,0.0,0.0,0.0,0.0,-0.00097844779100847,0.001732570278201157,0.010748143818639864,0.0,0.0,0.0,0.0,0.0,0.0,0.0,0.0,0.0,-0.011380191860632626,-0.11430790406335421,0.0018332635331127752,0.0,0.0,0.0,0.0,0.0,0.0,0.0,0.0,0.0
10.69,300,10,690000000,base_footprint,0.0015714014216099313,0.0035287522880479327,-0.41056912258195444,0.9118212950941351,0.0,0.0,0.0,0.0,0.0,0.0,0.0,0.0,0.0,-0.00032813954200686053,-0.0005016074804653102,-0.019776960498459582,0.0,0.0,0.0,0.0,0.0,0.0,0.0,0.0,0.0,-0.028628025962492358,-0.19335674369478936,-0.0034986233802480515,0.0,0.0,0.0,0.0,0.0,0.0,0.0,0.0,0.0
10.724,301,10,724000000,base_footprint,0.0015797738887712578,0.003530714870854836,-0.41062683413499623,0.911795284839328,0.0,0.0,0.0,0.0,0.0,0.0,0.0,0.0,0.0,-9.18985035855782e-05,-0.00017545938471998988,-0.0005124690133608423,0.0,0.0,0.0,0.0,0.0,0.0,0.0,0.0,0.0,-0.006674340188652749,-0.04803740813696811,-8.162275605390245e-05,0.0,0.0,0.0,0.0,0.0,0.0,0.0,0.0,0.0
10.758,302,10,758000000,base_footprint,0.001579294617424826,0.0035283098013674952,-0.41041373167525363,0.9118912356804675,0.0,0.0,0.0,0.0,0.0,0.0,0.0,0.0,0.0,0.0006076736580018887,0.00023863581180760506,-0.013436339237028723,0.0,0.0,0.0,0.0,0.0,0.0,0.0,0.0,0.0,0.07722592602049402,0.6282185366310507,0.0022982798824868244,0.0,0.0,0.0,0.0,0.0,0.0,0.0,0.0,0.0
10.792,303,10,792000000,base_footprint,0.0015800506671818405,0.003527144451417389,-0.4109075306389225,0.9116688345864035,0.0,0.0,0.0,0.0,0.0,0.0,0.0,0.0,0.0,-0.0006710002375780019,0.00020008331726581213,-0.013973661834879289,0.0,0.0,0.0,0.0,0.0,0.0,0.0,0.0,0.0,-0.04301365909011115,-0.304440673917574,0.0003160352181281658,0.0,0.0,0.0,0.0,0.0,0.0,0.0,0.0,0.0
10.826,304,10,826000000,base_footprint,0.0015789555309911084,0.0035242541631425373,-0.4110904729100768,0.9115863698051841,0.0,0.0,0.0,0.0,0.0,0.0,0.0,0.0,0.0,-0.0002962534743848323,8.046246488584833e-05,-0.011664991595233518,0.0,0.0,0.0,0.0,0.0,0.0,0.0,0.0,0.0,-0.002023604342126733,-0.0027415223810342225,-0.0006798696541800068,0.0,0.0,0.0,0.0,0.0,0.0,0.0,0.0,0.0
10.86,305,10,860000000,base_footprint,0.0015789439960436113,0.0035242966325883178,-0.41124530275902726,0.9115165315164278,0.0,0.0,0.0,0.0,0.0,0.0,0.0,0.0,0.0,-6.207056055708474e-05,5.038699722432528e-05,-0.002883138772474793,0.0,0.0,0.0,0.0,0.0,0.0,0.0,0.0,0.0,-0.045124161354741094,-0.341554526109729,-0.0020595280653071023,0.0,0.0,0.0,0.0,0.0,0.0,0.0,0.0,0.0
10.893,306,10,894000000,base_footprint,0.0015789666742729894,0.0035264598767296837,-0.41127664620672516,0.91150238136273,0.0,0.0,0.0,0.0,0.0,0.0,0.0,0.0,0.0,-5.824816173923823e-05,5.053591123829105e-05,-0.00212517020969649,0.0,0.0,0.0,0.0,0.0,0.0,0.0,0.0,0.0,-0.0010522363805327245,-0.004605825241063958,-9.035135541447459e-05,0.0,0.0,0.0,0.0,0.0,0.0,0.0,0.0,0.0
10.928,307,10,928000000,base_footprint,0.0015792788014694398,0.0035303529499134505,-0.411310055250304,0.9114872906061325,0.0,0.0,0.0,0.0,0.0,0.0,0.0,0.0,0.0,6.34407214118462e-05,7.742168026457651e-05,-0.002220909822662616,0.0,0.0,0.0,0.0,0.0,0.0,0.0,0.0,0.0,-0.0012800796002978856,-0.004953747588576507,-0.0002905505717794123,0.0,0.0,0.0,0.0,0.0,0.0,0.0,0.0,0.0
10.962,308,10,962000000,base_footprint,0.0015790113093507889,0.0035348481967288382,-0.4109866730177388,0.9116331313490758,0.0,0.0,0.0,0.0,0.0,0.0,0.0,0.0,0.0,0.00035857277155713387,-0.0002466872385203599,0.04397377353222451,0.0,0.0,0.0,0.0,0.0,0.0,0.0,0.0,0.0,0.04657113784511745,0.34800223666689784,0.0018123583086153592,0.0,0.0,0.0,0.0,0.0,0.0,0.0,0.0,0.0
10.996,309,10,996000000,base_footprint,0.0015777330622078205,0.003537647973982271,-0.41030368748910734,0.9119407216689238,0.0,0.0,0.0,0.0,0.0,0.0,0.0,0.0,0.0,0.0002565048400688871,-0.0002064612973180962,0.044728493276191224,0.0,0.0,0.0,0.0,0.0,0.0,0.0,0.0,0.0,0.007055445346526001,-0.0048388646248124275,-0.00025276433220896844,0.0,0.0,0.0,0.0,0.0,0.0,0.0,0.0,0.0
11.03,310,11,30000000,base_footprint,0.001575953673946399,0.0035412047981538014,-0.4095863811540185,0.9122631049273834,0.0,0.0,0.0,0.0,0.0,0.0,0.0,0.0,0.0,0.0007879211230347349,-0.0014199506026499064,0.05143885845180229,0.0,0.0,0.0,0.0,0.0,0.0,0.0,0.0,0.0,0.006269995370374381,-0.011666075159827406,-0.0005357418197492919,0.0,0.0,0.0,0.0,0.0,0.0,0.0,0.0,0.0
11.064,311,11,64000000,base_footprint,0.0015700609357897053,0.0035284365595604802,-0.40812971916430824,0.9129157778124805,0.0,0.0,0.0,0.0,0.0,0.0,0.0,0.0,0.0,-5.8382404586566124e-05,-0.00037838846803518267,0.13440313667665243,0.0,0.0,0.0,0.0,0.0,0.0,0.0,0.0,0.0,0.009443049446978782,-0.1446583258035862,0.0013103236766500049,0.0,0.0,0.0,0.0,0.0,0.0,0.0,0.0,0.0
11.098,312,11,98000000,base_footprint,0.0015715232261086548,0.003529378514961728,-0.4059510706231054,0.9138866461777426,0.0,0.0,0.0,0.0,0.0,0.0,0.0,0.0,0.0,-0.0006287525569761419,-0.0018697707168206595,0.1286309220472918,0.0,0.0,0.0,0.0,0.0,0.0,0.0,0.0,0.0,0.028164878473761285,0.007960906115648234,0.0028731771083247387,0.0,0.0,0.0,0.0,0.0,0.0,0.0,0.0,0.0
11.132,313,11,132000000,base_footprint,0.0015598921554232433,0.0035359558642247225,-0.40453593908185503,0.9145139352375947,0.0,0.0,0.0,0.0,0.0,0.0,0.0,0.0,0.0,0.00020761345351498446,0.00021811756695376693,0.050684801466660906,0.0,0.0,0.0,0.0,0.0,0.0,0.0,0.0,0.0,0.01305161555102536,-0.06690276809658682,-0.005196953644923077,0.0,0.0,0.0,0.0,0.0,0.0,0.0,0.0,0.0
11.166,314,11,166000000,base_footprint,0.001556804471329308,0.003545283839748855,-0.4038909860188912,0.9147989280355666,0.0,0.0,0.0,0.0,0.0,0.0,0.0,0.0,0.0,0.0009821415999855445,-0.0010918087163177038,0.053339762776663406,0.0,0.0,0.0,0.0,0.0,0.0,0.0,0.0,0.0,0.0016692681168875984,-0.08863607436615994,-0.0015903518501116918,0.0,0.0,0.0,0.0,0.0,0.0,0.0,0.0,0.0
11.2,315,11,200000000,base_footprint,0.0015520515275769045,0.0035451097927237827,-0.40305199537417663,0.9151688982682421,0.0,0.0,0.0,0.0,0.0,0.0,0.0,0.0,0.0,-0.0002369313544988316,-0.0004188460949369556,0.05347062916433086,0.0,0.0,0.0,0.0,0.0,0.0,0.0,0.0,0.0,0.012700796815321047,-0.0054178141030001604,0.0021882681113632382,0.0,0.0,0.0,0.0,0.0,0.0,0.0,0.0,0.0
11.234,316,11,234000000,base_footprint,0.0015462397403284685,0.003542845542134888,-0.4022881038190225,0.915504963893602,0.0,0.0,0.0,0.0,0.0,0.0,0.0,0.0,0.0,-0.00044309128768613094,0.0018829330092152,0.021849770893708185,0.0,0.0,0.0,0.0,0.0,0.0,0.0,0.0,0.0,0.009042711455723822,-0.011277975697064666,-0.0005007216048441528,0.0,0.0,0.0,0.0,0.0,0.0,0.0,0.0,0.0
11.268,317,11,268000000,base_footprint,0.0015452461829694268,0.003540463523344333,-0.4019222284217877,0.9156656593062439,0.0,0.0,0.0,0.0,0.0,0.0,0.0,0.0,0.0,-0.00019988530624320903,-0.00013836201554292638,0.023664680558422937,0.0,0.0,0.0,0.0,0.0,0.0,0.0,0.0,0.0,0.0052640874226935145,-0.007804838258749652,0.00010601857274484999,0.0,0.0,0.0,0.0,0.0,0.0,0.0,0.0,0.0
11.302,318,11,302000000,base_footprint,0.0015428476429727713,0.0035398991684358967,-0.40155608042500246,0.9158262952158214,0.0,0.0,0.0,0.0,0.0,0.0,0.0,0.0,0.0,-0.00010860041954303514,-0.0001364812279937764,0.02332882361466112,0.0,0.0,0.0,0.0,0.0,0.0,0.0,0.0,0.0,0.00462545820019192,-0.0062073851058723015,-0.0002338200653645139,0.0,0.0,0.0,0.0,0.0,0.0,0.0,0.0,0.0
11.336,319,11,336000000,base_footprint,0.0015453869495798945,0.0035481064832128487,-0.40120020515584676,0.9159822149487764,0.0,0.0,0.0,0.0,0.0,0.0,0.0,0.0,0.0,-0.002492036945217463,5.8196486736989306e-05,0.02037050527179851,0.0,0.0,0.0,0.0,0.0,0.0,0.0,0.0,0.0,0.023883927106095902,0.21935842617305812,0.0025209190391877446,0.0,0.0,0.0,0.0,0.0,0.0,0.0,0.0,0.0
11.37,320,11,370000000,base_footprint,0.0015399623331250295,0.003544130163441506,-0.40094843912434736,0.9160924717631658,0.0,0.0,0.0,0.0,0.0,0.0,0.0,0.0,0.0,-7.243762282067151e-06,-0.0005630940135605666,0.030918569321824626,0.0,0.0,0.0,0.0,0.0,0.0,0.0,0.0,0.0,0.03757566576779617,0.4508492451039727,0.0010125629942676943,0.0,0.0,0.0,0.0,0.0,0.0,0.0,0.0,0.0
11.404,321,11,404000000,base_footprint,0.0015384111081387342,0.0035467179137781972,-0.4004820533750521,0.9162964471216749,0.0,0.0,0.0,0.0,0.0,0.0,0.0,0.0,0.0,0.0001631484268720017,-0.0001340345219709456,0.029690974359575066,0.0,0.0,0.0,0.0,0.0,0.0,0.0,0.0,0.0,0.005682435524802555,-0.005872715756268802,-0.0006331512276695907,0.0,0.0,0.0,0.0,0.0,0.0,0.0,0.0,0.0
11.438,322,11,438000000,base_footprint,0.0015355582335307878,0.00354392401210482,-0.4000034957093857,0.9165054752066567,0.0,0.0,0.0,0.0,0.0,0.0,0.0,0.0,0.0,-0.0006878165301307567,-0.00020407296107351696,0.0364775070312729,0.0,0.0,0.0,0.0,0.0,0.0,0.0,0.0,0.0,-0.008887033083559474,-0.17968970308033788,0.0007101284648623532,0.0,0.0,0.0,0.0,0.0,0.0,0.0,0.0,0.0
11.472,323,11,472000000,base_footprint,0.0015333583399357491,0.0035463781382943952,-0.39920470874403197,0.9168536810914237,0.0,0.0,0.0,0.0,0.0,0.0,0.0,0.0,0.0,0.00019451301606038745,-0.001488684281428675,0.05566335925434951,0.0,0.0,0.0,0.0,0.0,0.0,0.0,0.0,0.0,-0.02358823446262065,-0.498991512031266,-0.0037713303898117786,0.0,0.0,0.0,0.0,0.0,0.0,0.0,0.0,0.0
11.506,324,11,506000000,base_footprint,0.0015345541125533293,0.0035600825052754114,-0.39838299617448886,0.9172109677251296,0.0,0.0,0.0,0.0,0.0,0.0,0.0,0.0,0.0,0.0001796058867204001,-0.00031738606262220984,0.053744729076938134,0.0,0.0,0.0,0.0,0.0,0.0,0.0,0.0,0.0,0.007671591641301822,-0.0024099214086795643,-0.0007053554457220508,0.0,0.0,0.0,0.0,0.0,0.0,0.0,0.0,0.0
11.54,325,11,540000000,base_footprint,0.0015371933858300654,0.0035560113072292316,-0.39762898089426696,0.9175381111283957,0.0,0.0,0.0,0.0,0.0,0.0,0.0,0.0,0.0,-0.00189455022861501,-0.0017400941031034886,0.024179863075702638,0.0,0.0,0.0,0.0,0.0,0.0,0.0,0.0,0.0,0.007003604983846056,0.034289892405086675,0.0033764727085234276,0.0,0.0,0.0,0.0,0.0,0.0,0.0,0.0,0.0
11.574,326,11,574000000,base_footprint,0.001532458895270682,0.0035538070740879805,-0.3970813712149914,0.9177752484454115,0.0,0.0,0.0,0.0,0.0,0.0,0.0,0.0,0.0,0.0007522526533662911,-9.740083483469081e-05,0.04493692212261114,0.0,0.0,0.0,0.0,0.0,0.0,0.0,0.0,0.0,0.01648133536918741,0.045611440330976256,-0.0044025525018620195,0.0,0.0,0.0,0.0,0.0,0.0,0.0,0.0,0.0
11.608,327,11,608000000,base_footprint,0.0015287795172550715,0.0035600472124695712,-0.39679050127454885,0.9179010224394158,0.0,0.0,0.0,0.0,0.0,0.0,0.0,0.0,0.0,0.0002879405157611365,0.00023212549278148962,-0.006673742339488235,0.0,0.0,0.0,0.0,0.0,0.0,0.0,0.0,0.0,0.0076402860873451845,-0.01633938183886783,0.0004273300546549733,0.0,0.0,0.0,0.0,0.0,0.0,0.0,0.0,0.0
11.642,328,11,642000000,base_footprint,0.001530222298157029,0.0035591126025713926,-0.39688503856507135,0.9178601512760004,0.0,0.0,0.0,0.0,0.0,0.0,0.0,0.0,0.0,0.000246434196193029,-0.0002032011197198809,-0.02139490741675948,0.0,0.0,0.0,0.0,0.0,0.0,0.0,0.0,0.0,-0.0033619258147270688,-0.046119279116666176,-7.035031698211955e-05,0.0,0.0,0.0,0.0,0.0,0.0,0.0,0.0,0.0
