Time,header.seq,header.stamp.secs,header.stamp.nsecs,header.frame_id,orientation.x,orientation.y,orientation.z,orientation.w,orientation_covariance_0,orientation_covariance_1,orientation_covariance_2,orientation_covariance_3,orientation_covariance_4,orientation_covariance_5,orientation_covariance_6,orientation_covariance_7,orientation_covariance_8,angular_velocity.x,angular_velocity.y,angular_velocity.z,angular_velocity_covariance_0,angular_velocity_covariance_1,angular_velocity_covariance_2,angular_velocity_covariance_3,angular_velocity_covariance_4,angular_velocity_covariance_5,angular_velocity_covariance_6,angular_velocity_covariance_7,angular_velocity_covariance_8,linear_acceleration.x,linear_acceleration.y,linear_acceleration.z,linear_acceleration_covariance_0,linear_acceleration_covariance_1,linear_acceleration_covariance_2,linear_acceleration_covariance_3,linear_acceleration_covariance_4,linear_acceleration_covariance_5,linear_acceleration_covariance_6,linear_acceleration_covariance_7,linear_acceleration_covariance_8
0.14800000000000002,0,0,70000000,base_footprint,0.0013143384656014807,-6.267174880511466e-06,0.9999991351692779,4.6214898487392426e-05,0.0,0.0,0.0,0.0,0.0,0.0,0.0,0.0,0.0,-1.6980355118362776e-05,-0.1569133548914,5.901202903403473e-06,0.0,0.0,0.0,0.0,0.0,0.0,0.0,0.0,0.0,0.00021882259904275998,-2.0359837566418727e-06,-0.13918362111694219,0.0,0.0,0.0,0.0,0.0,0.0,0.0,0.0,0.0
0.14800000000000002,1,0,104000000,base_footprint,0.0009554417895071302,-1.7732122100784638e-05,0.9999995423200252,4.665081889743661e-05,0.0,0.0,0.0,0.0,0.0,0.0,0.0,0.0,0.0,-0.00028337632992349624,0.04758799142272875,2.6468244875220054e-06,0.0,0.0,0.0,0.0,0.0,0.0,0.0,0.0,0.0,-0.0003408917599287304,2.326546585318056e-06,0.005131748679945539,0.0,0.0,0.0,0.0,0.0,0.0,0.0,0.0,0.0
0.14800000000000002,2,0,138000000,base_footprint,0.0001442680945152505,-2.2781257577155877e-05,0.9999999882474448,4.661374986343369e-05,0.0,0.0,0.0,0.0,0.0,0.0,0.0,0.0,0.0,-0.0002837837375476409,0.04756041008294899,3.2315359380251014e-06,0.0,0.0,0.0,0.0,0.0,0.0,0.0,0.0,0.0,-0.00021497684774632783,2.99874722134231e-07,7.846402313990012e-05,0.0,0.0,0.0,0.0,0.0,0.0,0.0,0.0,0.0
0.188,3,0,172000000,base_footprint,-0.0009389499799981795,-3.0715217152883674e-05,0.9999995576302639,4.657023893846026e-05,0.0,0.0,0.0,0.0,0.0,0.0,0.0,0.0,0.0,-0.0004203212577189502,0.06777050692349584,6.819772988770117e-06,0.0,0.0,0.0,0.0,0.0,0.0,0.0,0.0,0.0,-0.00036733097277300675,3.4448620411662384e-08,0.0028139967223474852,0.0,0.0,0.0,0.0,0.0,0.0,0.0,0.0,0.0
0.21000000000000002,4,0,206000000,base_footprint,-0.002092468497588257,-3.817498468482086e-05,0.9999978089770054,4.646983662155763e-05,0.0,0.0,0.0,0.0,0.0,0.0,0.0,0.0,0.0,-0.0004207755261393115,0.06769334313062904,8.03064481510863e-06,0.0,0.0,0.0,0.0,0.0,0.0,0.0,0.0,0.0,-0.0002958506533429004,3.9706970421795823e-07,0.0001509395746004906,0.0,0.0,0.0,0.0,0.0,0.0,0.0,0.0,0.0
0.24000000000000002,5,0,240000000,base_footprint,-0.0032446826301795045,-4.5641898063222704e-05,0.999994733887676,4.635043474905583e-05,0.0,0.0,0.0,0.0,0.0,0.0,0.0,0.0,0.0,-0.0004212576839605158,0.06761697244587432,9.061244986367185e-06,0.0,0.0,0.0,0.0,0.0,0.0,0.0,0.0,0.0,-0.0002947113235796892,4.589119685188197e-08,0.00014979072563239845,0.0,0.0,0.0,0.0,0.0,0.0,0.0,0.0,0.0
0.274,6,0,274000000,base_footprint,-0.003936843275214827,-6.8278122561128905e-06,0.9999922494422285,4.7685211079760545e-05,0.0,0.0,0.0,0.0,0.0,0.0,0.0,0.0,0.0,-4.566823077494664e-05,-0.024601802989128712,-0.0001274772500912432,0.0,0.0,0.0,0.0,0.0,0.0,0.0,0.0,0.0,0.0009362207868918862,0.00015259720156454747,0.13220735442215273,0.0,0.0,0.0,0.0,0.0,0.0,0.0,0.0,0.0
0.309,7,0,308000000,base_footprint,-0.003852785283229284,-6.878840237996296e-06,0.9999925768028257,4.8347573084518076e-05,0.0,0.0,0.0,0.0,0.0,0.0,0.0,0.0,0.0,8.267225892068879e-05,-0.000947393252781674,9.497934361464165e-06,0.0,0.0,0.0,0.0,0.0,0.0,0.0,0.0,0.0,-0.0010244578957106516,-0.00013511091398164433,0.0005630172074973096,0.0,0.0,0.0,0.0,0.0,0.0,0.0,0.0,0.0
0.34500000000000003,8,0,342000000,base_footprint,-0.0038531032113110213,-6.875268870228815e-06,0.9999925755838447,4.822408793604715e-05,0.0,0.0,0.0,0.0,0.0,0.0,0.0,0.0,0.0,3.850280044278241e-05,-0.0001628401448581696,9.087462230120563e-06,0.0,0.0,0.0,0.0,0.0,0.0,0.0,0.0,0.0,-1.6315238767311524e-05,-1.4120513855794713e-06,-0.0008733597945344641,0.0,0.0,0.0,0.0,0.0,0.0,0.0,0.0,0.0
0.377,9,0,376000000,base_footprint,-0.0038531018079711933,-6.875956101648118e-06,0.9999925755963621,4.8076322566680484e-05,0.0,0.0,0.0,0.0,0.0,0.0,0.0,0.0,0.0,3.871533685997682e-05,-0.0001807850359416175,9.762092612639765e-06,0.0,0.0,0.0,0.0,0.0,0.0,0.0,0.0,0.0,1.8096583387897851e-07,1.3156325576915802e-06,1.9514691703173163e-05,0.0,0.0,0.0,0.0,0.0,0.0,0.0,0.0,0.0
0.41000000000000003,10,0,410000000,base_footprint,-0.0038531016370920127,-6.876598599275118e-06,0.9999925756043501,4.792353382888699e-05,0.0,0.0,0.0,0.0,0.0,0.0,0.0,0.0,0.0,3.871122221711987e-05,-0.00018040491969233485,9.859188774456866e-06,0.0,0.0,0.0,0.0,0.0,0.0,0.0,0.0,0.0,-3.6336513530958616e-08,1.8880755778599317e-07,-4.2472268148805577e-07,0.0,0.0,0.0,0.0,0.0,0.0,0.0,0.0,0.0
0.444,11,0,444000000,base_footprint,-0.003853101627857904,-6.87723253474501e-06,0.9999925756117262,4.7770025482364684e-05,0.0,0.0,0.0,0.0,0.0,0.0,0.0,0.0,0.0,3.871155771984309e-05,-0.00018041050900687852,9.87315584602501e-06,0.0,0.0,0.0,0.0,0.0,0.0,0.0,0.0,0.0,-3.966386956181467e-09,2.716980579039769e-08,4.964167748010614e-09,0.0,0.0,0.0,0.0,0.0,0.0,0.0,0.0,0.0
0.47900000000000004,12,0,478000000,base_footprint,-0.0038531016253237206,-6.87786278403665e-06,0.999992575619058,4.7616411692306825e-05,0.0,0.0,0.0,0.0,0.0,0.0,0.0,0.0,0.0,3.8711811665699207e-05,-0.00018041015314971897,9.875075665826072e-06,0.0,0.0,0.0,0.0,0.0,0.0,0.0,0.0,0.0,-5.740592540649266e-10,3.734036997022757e-09,-5.206040077012712e-10,0.0,0.0,0.0,0.0,0.0,0.0,0.0,0.0,0.0
0.512,13,0,512000000,base_footprint,-0.0038531016244440974,-6.878490439300146e-06,0.9999925756263607,4.7462782124459694e-05,0.0,0.0,0.0,0.0,0.0,0.0,0.0,0.0,0.0,3.871205515063708e-05,-0.00018041010119536238,9.875251814902946e-06,0.0,0.0,0.0,0.0,0.0,0.0,0.0,0.0,0.0,-5.865270505152865e-11,3.4205349134663686e-10,-3.4992687448993075e-11,0.0,0.0,0.0,0.0,0.0,0.0,0.0,0.0,0.0
0.557,14,0,546000000,base_footprint,-0.0038531016237758915,-6.879115800192219e-06,0.9999925756336389,4.730914987530147e-05,0.0,0.0,0.0,0.0,0.0,0.0,0.0,0.0,0.0,3.871229081129911e-05,-0.00018041007300015008,9.875189761031286e-06,0.0,0.0,0.0,0.0,0.0,0.0,0.0,0.0,0.0,1.1367439517237267e-11,-1.2144743034658755e-10,1.1396991622869409e-11,0.0,0.0,0.0,0.0,0.0,0.0,0.0,0.0,0.0
0.5790000000000001,15,0,580000000,base_footprint,-0.0038531016231300196,-6.8797390316605385e-06,0.9999925756408937,4.7155516866463744e-05,0.0,0.0,0.0,0.0,0.0,0.0,0.0,0.0,0.0,3.8712519661295614e-05,-0.0001804100481212602,9.875107445689469e-06,0.0,0.0,0.0,0.0,0.0,0.0,0.0,0.0,0.0,1.7330532835594865e-11,-1.609914516412657e-10,1.649490810213187e-11,0.0,0.0,0.0,0.0,0.0,0.0,0.0,0.0,0.0
0.614,16,0,614000000,base_footprint,-0.0038531016224789545,-6.880360272161518e-06,0.9999925756481247,4.700188338203065e-05,0.0,0.0,0.0,0.0,0.0,0.0,0.0,0.0,0.0,3.8712742090639486e-05,-0.00018041002332995417,9.875036658672528e-06,0.0,0.0,0.0,0.0,0.0,0.0,0.0,0.0,0.0,1.394745865578113e-11,-1.386897573959407e-10,1.5344411743275252e-11,0.0,0.0,0.0,0.0,0.0,0.0,0.0,0.0,0.0
0.648,17,0,648000000,base_footprint,-0.003853101621818812,-6.880979648386592e-06,0.9999925756553323,4.684824946414197e-05,0.0,0.0,0.0,0.0,0.0,0.0,0.0,0.0,0.0,3.871295856504348e-05,-0.00018040999810470487,9.874981251310202e-06,0.0,0.0,0.0,0.0,0.0,0.0,0.0,0.0,0.0,9.428073276988778e-12,-1.0888838700315747e-10,1.3483908205694624e-11,0.0,0.0,0.0,0.0,0.0,0.0,0.0,0.0,0.0
0.684,18,0,682000000,base_footprint,-0.00385310162114975,-6.88159727870321e-06,0.9999925756625164,4.66946151203081e-05,0.0,0.0,0.0,0.0,0.0,0.0,0.0,0.0,0.0,3.8713169473633464e-05,-0.0001804099725300439,9.874940675923078e-06,0.0,0.0,0.0,0.0,0.0,0.0,0.0,0.0,0.0,5.073103203490705e-12,-8.014558153548717e-11,1.149503246905339e-11,0.0,0.0,0.0,0.0,0.0,0.0,0.0,0.0,0.0
0.7180000000000001,19,0,716000000,base_footprint,-0.0038531016204726163,-6.882213273703895e-06,0.9999925756696769,4.6540980360277216e-05,0.0,0.0,0.0,0.0,0.0,0.0,0.0,0.0,0.0,3.8713375189271294e-05,-0.00018040994645528353,9.87491368852855e-06,0.0,0.0,0.0,0.0,0.0,0.0,0.0,0.0,0.0,1.07878056043836e-12,-5.3813800968464375e-11,9.607412903885189e-12,0.0,0.0,0.0,0.0,0.0,0.0,0.0,0.0,0.0
0.75,20,0,750000000,base_footprint,-0.0038531016197875453,-6.882827738562633e-06,0.9999925756768141,4.6387345186186805e-05,0.0,0.0,0.0,0.0,0.0,0.0,0.0,0.0,0.0,3.8713575827302995e-05,-0.0001804099200696897,9.874899745196849e-06,0.0,0.0,0.0,0.0,0.0,0.0,0.0,0.0,0.0,-2.75180448645381e-12,-2.8538812703901277e-11,7.905872385573996e-12,0.0,0.0,0.0,0.0,0.0,0.0,0.0,0.0,0.0
0.784,21,0,784000000,base_footprint,-0.0038531016190949787,-6.883440778154074e-06,0.9999925756839274,4.62337096086907e-05,0.0,0.0,0.0,0.0,0.0,0.0,0.0,0.0,0.0,3.871377345758381e-05,-0.00018040989335300675,9.874899103749481e-06,0.0,0.0,0.0,0.0,0.0,0.0,0.0,0.0,0.0,-6.656685009566083e-12,-2.7300211631271576e-12,6.6505263664785245e-12,0.0,0.0,0.0,0.0,0.0,0.0,0.0,0.0,0.0
0.8300000000000001,22,0,818000000,base_footprint,-0.0038531016183954384,-6.884052474840068e-06,0.9999925756910174,4.608007362307235e-05,0.0,0.0,0.0,0.0,0.0,0.0,0.0,0.0,0.0,3.871396697598993e-05,-0.00018040986625281693,9.874909852293192e-06,0.0,0.0,0.0,0.0,0.0,0.0,0.0,0.0,0.0,-1.0004478386098818e-11,1.934483204439056e-11,5.1862690128236826e-12,0.0,0.0,0.0,0.0,0.0,0.0,0.0,0.0,0.0
0.8610000000000001,23,0,852000000,base_footprint,-0.003853101617689624,-6.884662913204665e-06,0.9999925756980836,4.5926437235686534e-05,0.0,0.0,0.0,0.0,0.0,0.0,0.0,0.0,0.0,3.8714156424945834e-05,-0.00018040983885828416,9.874931373275227e-06,0.0,0.0,0.0,0.0,0.0,0.0,0.0,0.0,0.0,-1.316817571696715e-11,4.0220497727809564e-11,3.659920310746665e-12,0.0,0.0,0.0,0.0,0.0,0.0,0.0,0.0,0.0
0.886,24,0,886000000,base_footprint,-0.003853101616977305,-6.885272173195812e-06,0.9999925757051266,4.57728004460592e-05,0.0,0.0,0.0,0.0,0.0,0.0,0.0,0.0,0.0,3.871434202571209e-05,-0.0001804098112312068,9.874963506019317e-06,0.0,0.0,0.0,0.0,0.0,0.0,0.0,0.0,0.0,-1.6283793153408648e-11,6.078759031108063e-11,2.3995707266196346e-12,0.0,0.0,0.0,0.0,0.0,0.0,0.0,0.0,0.0
0.921,25,0,920000000,base_footprint,-0.0038531016162593906,-6.885880329715583e-06,0.9999925757121458,4.561916325260613e-05,0.0,0.0,0.0,0.0,0.0,0.0,0.0,0.0,0.0,3.871452409470527e-05,-0.0001804097831019944,9.875004159297225e-06,0.0,0.0,0.0,0.0,0.0,0.0,0.0,0.0,0.0,-1.8792676409216764e-11,7.72959770737168e-11,9.305939221806674e-13,0.0,0.0,0.0,0.0,0.0,0.0,0.0,0.0,0.0
0.9550000000000001,26,0,954000000,base_footprint,-0.003853101615536528,-6.886487452704722e-06,0.9999925757191414,4.546552566384955e-05,0.0,0.0,0.0,0.0,0.0,0.0,0.0,0.0,0.0,3.871470298750416e-05,-0.00018040975484942816,9.875053512114547e-06,0.0,0.0,0.0,0.0,0.0,0.0,0.0,0.0,0.0,-2.1345240361783976e-11,9.415624283213074e-11,-1.0474590843735639e-13,0.0,0.0,0.0,0.0,0.0,0.0,0.0,0.0,0.0
0.9880000000000001,27,0,988000000,base_footprint,-0.0038531016148084527,-6.887093607574266e-06,0.9999925757261136,4.531188767848249e-05,0.0,0.0,0.0,0.0,0.0,0.0,0.0,0.0,0.0,3.871487866179129e-05,-0.0001804097264435538,9.8751121047321e-06,0.0,0.0,0.0,0.0,0.0,0.0,0.0,0.0,0.0,-2.4059419509673816e-11,1.1206597393900204e-10,-8.819506368108399e-13,0.0,0.0,0.0,0.0,0.0,0.0,0.0,0.0,0.0
1.022,28,1,22000000,base_footprint,-0.0038531016140753815,-6.887698855925778e-06,0.9999925757330621,4.5158249297406236e-05,0.0,0.0,0.0,0.0,0.0,0.0,0.0,0.0,0.0,3.871505144841111e-05,-0.00018040969781326174,9.875178613389639e-06,0.0,0.0,0.0,0.0,0.0,0.0,0.0,0.0,0.0,-2.638353327372967e-11,1.2740724113053906e-10,-2.083805413355889e-12,0.0,0.0,0.0,0.0,0.0,0.0,0.0,0.0,0.0
1.056,29,1,56000000,base_footprint,-0.0038531016133384983,-6.8883032555049776e-06,0.999992575739987,4.500461053086259e-05,0.0,0.0,0.0,0.0,0.0,0.0,0.0,0.0,0.0,3.87152215994427e-05,-0.00018040966880520162,9.875250543789565e-06,0.0,0.0,0.0,0.0,0.0,0.0,0.0,0.0,0.0,-2.7979975641073636e-11,1.3790642858564147e-10,-3.34466007542913e-12,0.0,0.0,0.0,0.0,0.0,0.0,0.0,0.0,0.0
1.089,30,1,90000000,base_footprint,-0.003853101612597116,-6.888906859956377e-06,0.9999925757468885,4.485097136690258e-05,0.0,0.0,0.0,0.0,0.0,0.0,0.0,0.0,0.0,3.871538919610171e-05,-0.0001804096396916823,9.87533129137701e-06,0.0,0.0,0.0,0.0,0.0,0.0,0.0,0.0,0.0,-3.056942224670987e-11,1.5500381243951602e-10,-3.899367496828377e-12,0.0,0.0,0.0,0.0,0.0,0.0,0.0,0.0,0.0
1.13,31,1,124000000,base_footprint,-0.0038531016118519934,-6.8895097199289445e-06,0.9999925757537662,4.4697331815018864e-05,0.0,0.0,0.0,0.0,0.0,0.0,0.0,0.0,0.0,3.8715554318051886e-05,-0.00018040961040395812,9.875416812019542e-06,0.0,0.0,0.0,0.0,0.0,0.0,0.0,0.0,0.0,-3.197183348950347e-11,1.642440806107697e-10,-4.8614715300143725e-12,0.0,0.0,0.0,0.0,0.0,0.0,0.0,0.0,0.0
1.159,32,1,158000000,base_footprint,-0.0038531016111036697,-6.890111882331984e-06,0.9999925757606206,4.454369189244035e-05,0.0,0.0,0.0,0.0,0.0,0.0,0.0,0.0,0.0,3.871571726409185e-05,-0.00018040958080168415,9.875507201662463e-06,0.0,0.0,0.0,0.0,0.0,0.0,0.0,0.0,0.0,-3.340594901749251e-11,1.7367485022049065e-10,-5.8168656282395615e-12,0.0,0.0,0.0,0.0,0.0,0.0,0.0,0.0,0.0
1.19,33,1,192000000,base_footprint,-0.0038531016103514927,-6.890713391655923e-06,0.9999925757674513,4.439005160134508e-05,0.0,0.0,0.0,0.0,0.0,0.0,0.0,0.0,0.0,3.8715878035449006e-05,-0.00018040955137428708,9.875605149744679e-06,0.0,0.0,0.0,0.0,0.0,0.0,0.0,0.0,0.0,-3.561803048986467e-11,1.883321919636046e-10,-6.167446479286754e-12,0.0,0.0,0.0,0.0,0.0,0.0,0.0,0.0,0.0
1.226,34,1,226000000,base_footprint,-0.0038531016095963554,-6.891314288975741e-06,0.9999925757742585,4.423641092659535e-05,0.0,0.0,0.0,0.0,0.0,0.0,0.0,0.0,0.0,3.871603690098138e-05,-0.00018040952155816734,9.87570781555868e-06,0.0,0.0,0.0,0.0,0.0,0.0,0.0,0.0,0.0,-3.7010745027693865e-11,1.9747303888139992e-10,-7.0000835710774036e-12,0.0,0.0,0.0,0.0,0.0,0.0,0.0,0.0,0.0
1.26,35,1,260000000,base_footprint,-0.0038531016088378415,-6.891914614442075e-06,0.999992575781042,4.408276987007039e-05,0.0,0.0,0.0,0.0,0.0,0.0,0.0,0.0,0.0,3.8716194005942726e-05,-0.00018040949138283527,9.875815227726042e-06,0.0,0.0,0.0,0.0,0.0,0.0,0.0,0.0,0.0,-3.840827382488234e-11,2.0667181488096384e-10,-8.040599287896502e-12,0.0,0.0,0.0,0.0,0.0,0.0,0.0,0.0,0.0
1.294,36,1,294000000,base_footprint,-0.0038531016080767273,-6.892514403223684e-06,0.999992575787802,4.392912843249295e-05,0.0,0.0,0.0,0.0,0.0,0.0,0.0,0.0,0.0,3.871634929147144e-05,-0.00018040946148787434,9.87592767632572e-06,0.0,0.0,0.0,0.0,0.0,0.0,0.0,0.0,0.0,-3.988099498246684e-11,2.1643309699661072e-10,-7.964351852381316e-12,0.0,0.0,0.0,0.0,0.0,0.0,0.0,0.0,0.0
1.334,37,1,328000000,base_footprint,-0.0038531016073129767,-6.893113689728158e-06,0.9999925757945384,4.377548661940793e-05,0.0,0.0,0.0,0.0,0.0,0.0,0.0,0.0,0.0,3.8716503036852685e-05,-0.00018040943129405275,9.87604449446366e-06,0.0,0.0,0.0,0.0,0.0,0.0,0.0,0.0,0.0,-4.1166306195526994e-11,2.2490127407589387e-10,-9.044385297763908e-12,0.0,0.0,0.0,0.0,0.0,0.0,0.0,0.0,0.0
1.366,38,1,362000000,base_footprint,-0.003853101606546811,-6.893712505956846e-06,0.9999925758012513,4.362184443122215e-05,0.0,0.0,0.0,0.0,0.0,0.0,0.0,0.0,0.0,3.871665524659471e-05,-0.00018040940103669815,9.876164881390584e-06,0.0,0.0,0.0,0.0,0.0,0.0,0.0,0.0,0.0,-4.221617649492835e-11,2.3181588112359373e-10,-9.242152358145755e-12,0.0,0.0,0.0,0.0,0.0,0.0,0.0,0.0,0.0
1.396,39,1,396000000,base_footprint,-0.003853101605778012,-6.8943108819400645e-06,0.9999925758079404,4.346820186381389e-05,0.0,0.0,0.0,0.0,0.0,0.0,0.0,0.0,0.0,3.871680602205782e-05,-0.00018040937056236907,9.876288469226086e-06,0.0,0.0,0.0,0.0,0.0,0.0,0.0,0.0,0.0,-4.315792829982231e-11,2.3801590609012363e-10,-1.0031004252190758e-11,0.0,0.0,0.0,0.0,0.0,0.0,0.0,0.0,0.0
1.433,40,1,430000000,base_footprint,-0.0038531016050072915,-6.8949088452647355e-06,0.9999925758146062,4.3314558922932526e-05,0.0,0.0,0.0,0.0,0.0,0.0,0.0,0.0,0.0,3.871695545597918e-05,-0.00018040934001861063,9.876416799711847e-06,0.0,0.0,0.0,0.0,0.0,0.0,0.0,0.0,0.0,-4.455074529966037e-11,2.4721225726978177e-10,-1.0413010814343676e-11,0.0,0.0,0.0,0.0,0.0,0.0,0.0,0.0,0.0
1.465,41,1,464000000,base_footprint,-0.0038531016042344136,-6.895506422400773e-06,0.9999925758212482,4.316091560802328e-05,0.0,0.0,0.0,0.0,0.0,0.0,0.0,0.0,0.0,3.871710373457632e-05,-0.0001804093094098236,9.87654742869003e-06,0.0,0.0,0.0,0.0,0.0,0.0,0.0,0.0,0.0,-4.522598843911347e-11,2.516627137856652e-10,-1.0834002928890577e-11,0.0,0.0,0.0,0.0,0.0,0.0,0.0,0.0,0.0
1.498,42,1,498000000,base_footprint,-0.0038531016034596176,-6.8961036378426964e-06,0.9999925758278667,4.3007271916572846e-05,0.0,0.0,0.0,0.0,0.0,0.0,0.0,0.0,0.0,3.8717250783048816e-05,-0.00018040927876435866,9.87668217875374e-06,0.0,0.0,0.0,0.0,0.0,0.0,0.0,0.0,0.0,-4.643504355580052e-11,2.59653156417761e-10,-1.1214242384997959e-11,0.0,0.0,0.0,0.0,0.0,0.0,0.0,0.0,0.0
1.532,43,1,532000000,base_footprint,-0.003853101602683099,-6.896700514523617e-06,0.9999925758344618,4.285362785245546e-05,0.0,0.0,0.0,0.0,0.0,0.0,0.0,0.0,0.0,3.871739680061802e-05,-0.0001804092478536124,9.876818523538995e-06,0.0,0.0,0.0,0.0,0.0,0.0,0.0,0.0,0.0,-4.6909707196936726e-11,2.62738015908109e-10,-1.1670440914350969e-11,0.0,0.0,0.0,0.0,0.0,0.0,0.0,0.0,0.0
1.568,44,1,566000000,base_footprint,-0.0038531016019047208,-6.8972970743523185e-06,0.9999925758410331,4.269998341568569e-05,0.0,0.0,0.0,0.0,0.0,0.0,0.0,0.0,0.0,3.871754178708785e-05,-0.00018040921699968374,9.876958755384822e-06,0.0,0.0,0.0,0.0,0.0,0.0,0.0,0.0,0.0,-4.804725265155727e-11,2.702764205025242e-10,-1.1996979926168418e-11,0.0,0.0,0.0,0.0,0.0,0.0,0.0,0.0,0.0
1.6,45,1,600000000,base_footprint,-0.0038531016011248147,-6.897893337222981e-06,0.9999925758475808,4.254633860514708e-05,0.0,0.0,0.0,0.0,0.0,0.0,0.0,0.0,0.0,3.871768570119375e-05,-0.0001804091860478929,9.87710121202773e-06,0.0,0.0,0.0,0.0,0.0,0.0,0.0,0.0,0.0,-4.870247726689986e-11,2.7458548880101923e-10,-1.223897392358024e-11,0.0,0.0,0.0,0.0,0.0,0.0,0.0,0.0,0.0
1.635,46,1,634000000,base_footprint,-0.0038531016003432576,-6.898489321809726e-06,0.9999925758541051,4.239269341980563e-05,0.0,0.0,0.0,0.0,0.0,0.0,0.0,0.0,0.0,3.8717828886697935e-05,-0.00018040915510369657,9.877246132332815e-06,0.0,0.0,0.0,0.0,0.0,0.0,0.0,0.0,0.0,-4.942454216246085e-11,2.79362502071287e-10,-1.2522509582918942e-11,0.0,0.0,0.0,0.0,0.0,0.0,0.0,0.0,0.0
1.6680000000000001,47,1,668000000,base_footprint,-0.0038531015995605287,-6.899085046623432e-06,0.9999925758606056,4.2239047865780194e-05,0.0,0.0,0.0,0.0,0.0,0.0,0.0,0.0,0.0,3.871797109560673e-05,-0.0001804091239923223,9.877392775562866e-06,0.0,0.0,0.0,0.0,0.0,0.0,0.0,0.0,0.0,-4.993262947899726e-11,2.8269586890801026e-10,-1.304047083971611e-11,0.0,0.0,0.0,0.0,0.0,0.0,0.0,0.0,0.0
1.701,48,1,702000000,base_footprint,-0.0038531015987765494,-6.899680527811367e-06,0.9999925758670827,4.208540194576432e-05,0.0,0.0,0.0,0.0,0.0,0.0,0.0,0.0,0.0,3.871811263958841e-05,-0.00018040909286206718,9.87754166133451e-06,0.0,0.0,0.0,0.0,0.0,0.0,0.0,0.0,0.0,-5.0591529259762585e-11,2.870447131847653e-10,-1.3153629714613754e-11,0.0,0.0,0.0,0.0,0.0,0.0,0.0,0.0,0.0
1.7360000000000002,49,1,736000000,base_footprint,-0.0038531015979910814,-6.900275780842055e-06,0.9999925758735361,4.1931755655774596e-05,0.0,0.0,0.0,0.0,0.0,0.0,0.0,0.0,0.0,3.8718253390225216e-05,-0.00018040906164066867,9.87769264022753e-06,0.0,0.0,0.0,0.0,0.0,0.0,0.0,0.0,0.0,-5.1207567812825295e-11,2.911004447709991e-10,-1.348879782523764e-11,0.0,0.0,0.0,0.0,0.0,0.0,0.0,0.0,0.0
1.77,50,1,770000000,base_footprint,-0.003853101597204681,-6.900870820011171e-06,0.9999925758799658,4.177810900055615e-05,0.0,0.0,0.0,0.0,0.0,0.0,0.0,0.0,0.0,3.871839352463466e-05,-0.00018040903038474114,9.87784489430439e-06,0.0,0.0,0.0,0.0,0.0,0.0,0.0,0.0,0.0,-5.1583463186070524e-11,2.93569929906685e-10,-1.3599484754037504e-11,0.0,0.0,0.0,0.0,0.0,0.0,0.0,0.0,0.0
1.8050000000000002,51,1,804000000,base_footprint,-0.0038531015964169183,-6.901465659461543e-06,0.9999925758863721,4.16244619797114e-05,0.0,0.0,0.0,0.0,0.0,0.0,0.0,0.0,0.0,3.871853281625778e-05,-0.00018040899905529404,9.877999672805571e-06,0.0,0.0,0.0,0.0,0.0,0.0,0.0,0.0,0.0,-5.23243262147034e-11,2.984634926119677e-10,-1.3999545801532096e-11,0.0,0.0,0.0,0.0,0.0,0.0,0.0,0.0,0.0
1.846,52,1,838000000,base_footprint,-0.003853101595628278,-6.902060311656819e-06,0.9999925758927549,4.1470814588761124e-05,0.0,0.0,0.0,0.0,0.0,0.0,0.0,0.0,0.0,3.871867174794134e-05,-0.00018040896767822304,9.878155825104855e-06,0.0,0.0,0.0,0.0,0.0,0.0,0.0,0.0,0.0,-5.272866650291208e-11,3.0112755823489155e-10,-1.419101905932512e-11,0.0,0.0,0.0,0.0,0.0,0.0,0.0,0.0,0.0
1.877,53,1,872000000,base_footprint,-0.0038531015948385606,-6.902654788621076e-06,0.999992575899114,4.13171668304377e-05,0.0,0.0,0.0,0.0,0.0,0.0,0.0,0.0,0.0,3.8718809989115816e-05,-0.0001804089363617563,9.878313229798245e-06,0.0,0.0,0.0,0.0,0.0,0.0,0.0,0.0,0.0,-5.309549165639547e-11,3.0355241657103157e-10,-1.4133947647876021e-11,0.0,0.0,0.0,0.0,0.0,0.0,0.0,0.0,0.0
1.905,54,1,906000000,base_footprint,-0.003853101594047961,-6.903249101414006e-06,0.9999925759054493,4.116351870938873e-05,0.0,0.0,0.0,0.0,0.0,0.0,0.0,0.0,0.0,3.8718947710847906e-05,-0.00018040890488378922,9.878472097642365e-06,0.0,0.0,0.0,0.0,0.0,0.0,0.0,0.0,0.0,-5.3526164460666315e-11,3.063878062371979e-10,-1.4672608982767356e-11,0.0,0.0,0.0,0.0,0.0,0.0,0.0,0.0,0.0
1.94,55,1,940000000,base_footprint,-0.003853101593256548,-6.90384326061954e-06,0.9999925759117613,4.1009870220611405e-05,0.0,0.0,0.0,0.0,0.0,0.0,0.0,0.0,0.0,3.8719084965515065e-05,-0.0001804088733826955,9.878632513428626e-06,0.0,0.0,0.0,0.0,0.0,0.0,0.0,0.0,0.0,-5.398211242753409e-11,3.0938937812194234e-10,-1.4688415627259423e-11,0.0,0.0,0.0,0.0,0.0,0.0,0.0,0.0,0.0
1.9740000000000002,56,1,974000000,base_footprint,-0.0038531015924641206,-6.904437275972139e-06,0.9999925759180496,4.085622136441788e-05,0.0,0.0,0.0,0.0,0.0,0.0,0.0,0.0,0.0,3.8719221722838975e-05,-0.0001804088419629926,9.878793988501087e-06,0.0,0.0,0.0,0.0,0.0,0.0,0.0,0.0,0.0,-5.4291590063885997e-11,3.1144057895286706e-10,-1.4726698788342483e-11,0.0,0.0,0.0,0.0,0.0,0.0,0.0,0.0,0.0
2.005,57,2,8000000,base_footprint,-0.0038531015916710046,-6.905031156613262e-06,0.9999925759243142,4.070257214354139e-05,0.0,0.0,0.0,0.0,0.0,0.0,0.0,0.0,0.0,3.871935808248576e-05,-0.00018040881038189607,9.878956832000787e-06,0.0,0.0,0.0,0.0,0.0,0.0,0.0,0.0,0.0,-5.469636434192134e-11,3.14094606631537e-10,-1.5014004243078377e-11,0.0,0.0,0.0,0.0,0.0,0.0,0.0,0.0,0.0
2.044,58,2,42000000,base_footprint,-0.003853101590877118,-6.905624911399163e-06,0.9999925759305555,4.0548922557157674e-05,0.0,0.0,0.0,0.0,0.0,0.0,0.0,0.0,0.0,3.871949400296217e-05,-0.00018040877881275236,9.879120568590625e-06,0.0,0.0,0.0,0.0,0.0,0.0,0.0,0.0,0.0,-5.4958042242433284e-11,3.1582260223205667e-10,-1.5194892440615723e-11,0.0,0.0,0.0,0.0,0.0,0.0,0.0,0.0,0.0
2.073,59,2,76000000,base_footprint,-0.0038448607349200825,-6.887870185954842e-06,0.999992607687543,3.960750097299141e-05,0.0,0.0,0.0,0.0,0.0,0.0,0.0,0.0,0.0,6.683756380472132e-05,0.0015149809535612766,0.00018107013757666683,0.0,0.0,0.0,0.0,0.0,0.0,0.0,0.0,0.0,0.13274018874354412,0.00032196270178300515,-0.0008862856792703987,0.0,0.0,0.0,0.0,0.0,0.0,0.0,0.0,0.0
2.111,60,2,110000000,base_footprint,-0.00384820515912895,-6.906158707908526e-06,0.9999925948221391,3.962629995299693e-05,0.0,0.0,0.0,0.0,0.0,0.0,0.0,0.0,0.0,1.2927227065035343e-05,0.0015477959064004287,-4.458820147819565e-05,0.0,0.0,0.0,0.0,0.0,0.0,0.0,0.0,0.0,0.7847496857639604,-0.0005010477432980397,0.005695197599128895,0.0,0.0,0.0,0.0,0.0,0.0,0.0,0.0,0.0
2.144,61,2,144000000,base_footprint,-0.003849235038421205,-6.965977576296251e-06,0.9999925908046292,4.0950452292244076e-05,0.0,0.0,0.0,0.0,0.0,0.0,0.0,0.0,0.0,-1.9157686794523538e-05,0.0010146548335264796,-0.00011559551200918362,0.0,0.0,0.0,0.0,0.0,0.0,0.0,0.0,0.0,0.7874235536712799,-0.0002028365644785086,0.006511537511975417,0.0,0.0,0.0,0.0,0.0,0.0,0.0,0.0,0.0
2.178,62,2,178000000,base_footprint,-0.0038500372956531874,-7.027756329590927e-06,0.9999925875955705,4.378753361392471e-05,0.0,0.0,0.0,0.0,0.0,0.0,0.0,0.0,0.0,-1.8472996643808947e-05,0.0010711295232438988,-0.00024031072163507646,0.0,0.0,0.0,0.0,0.0,0.0,0.0,0.0,0.0,0.7832769488893675,-0.0003107287874344492,0.005953935708058765,0.0,0.0,0.0,0.0,0.0,0.0,0.0,0.0,0.0
2.213,63,2,212000000,base_footprint,-0.0038514718192191964,-7.131430700274825e-06,0.9999925818282683,4.901430872020827e-05,0.0,0.0,0.0,0.0,0.0,0.0,0.0,0.0,0.0,-6.080312655148771e-05,0.0004946571523522159,-0.0004197408197288041,0.0,0.0,0.0,0.0,0.0,0.0,0.0,0.0,0.0,0.7677731427600238,-0.00042423925506332406,0.0065096176443669666,0.0,0.0,0.0,0.0,0.0,0.0,0.0,0.0,0.0
2.249,64,2,246000000,base_footprint,-0.003853056714048928,-7.259313575094868e-06,0.9999925752410119,5.800094950213617e-05,0.0,0.0,0.0,0.0,0.0,0.0,0.0,0.0,0.0,-6.764086315419263e-05,-1.66226638687962e-05,-0.0007052196783480936,0.0,0.0,0.0,0.0,0.0,0.0,0.0,0.0,0.0,0.7259440912996354,-0.0006385416385085038,0.0063409934462106965,0.0,0.0,0.0,0.0,0.0,0.0,0.0,0.0,0.0
2.2800000000000002,65,2,280000000,base_footprint,-0.003854811483220688,-7.502731196578918e-06,0.999992567545227,7.229413802099742e-05,0.0,0.0,0.0,0.0,0.0,0.0,0.0,0.0,0.0,-4.104392387579734e-05,3.229114950809281e-06,-0.0010491827401558405,0.0,0.0,0.0,0.0,0.0,0.0,0.0,0.0,0.0,0.6447642743629857,-0.0007606379196682325,0.0050763440143990314,0.0,0.0,0.0,0.0,0.0,0.0,0.0,0.0,0.0
2.314,66,2,314000000,base_footprint,-0.0038563758848317972,-8.11869557024327e-06,0.9999925598563973,9.236325824422374e-05,0.0,0.0,0.0,0.0,0.0,0.0,0.0,0.0,0.0,3.727094112980541e-05,-5.012722177384019e-05,-0.0013137760226051675,0.0,0.0,0.0,0.0,0.0,0.0,0.0,0.0,0.0,0.516043686601182,-0.0006080128113515791,0.004175061601747651,0.0,0.0,0.0,0.0,0.0,0.0,0.0,0.0,0.0
2.348,67,2,348000000,base_footprint,-0.0038583075000212276,-7.761943358080224e-06,0.9999925508175849,0.00010822350765434788,0.0,0.0,0.0,0.0,0.0,0.0,0.0,0.0,0.0,0.00010056486663476963,-7.74172584993693e-05,-0.0005000811952146503,0.0,0.0,0.0,0.0,0.0,0.0,0.0,0.0,0.0,0.34381157137010304,0.0015072052669990186,0.0026836306076075426,0.0,0.0,0.0,0.0,0.0,0.0,0.0,0.0,0.0
2.384,68,2,382000000,base_footprint,-0.0038554634248226765,-9.16221767888249e-06,0.9999925551266231,0.0001581428509691741,0.0,0.0,0.0,0.0,0.0,0.0,0.0,0.0,0.0,0.0007274790475016418,0.0010157507646218673,-0.012037960794578273,0.0,0.0,0.0,0.0,0.0,0.0,0.0,0.0,0.0,0.08126879076958134,-0.0010181233896702265,-0.001449384961834969,0.0,0.0,0.0,0.0,0.0,0.0,0.0,0.0,0.0
2.416,69,2,416000000,base_footprint,-0.003850196803019574,-3.02784065490918e-06,0.9999925535610349,0.0002622935208295351,0.0,0.0,0.0,0.0,0.0,0.0,0.0,0.0,0.0,0.00047736693370313874,-0.00022314704532008371,-0.00466487728570174,0.0,0.0,0.0,0.0,0.0,0.0,0.0,0.0,0.0,-0.04418362930506944,0.0010504369547503784,0.001638140867156058,0.0,0.0,0.0,0.0,0.0,0.0,0.0,0.0,0.0
2.451,70,2,450000000,base_footprint,-0.0038485194139232857,-1.592764063835281e-06,0.999992326614408,0.0007318525036017191,0.0,0.0,0.0,0.0,0.0,0.0,0.0,0.0,0.0,-0.0001212701681471559,-0.0012835026728711622,-0.06263172122403646,0.0,0.0,0.0,0.0,0.0,0.0,0.0,0.0,0.0,0.05387536611140437,-0.00482318175670296,0.002030187948988529,0.0,0.0,0.0,0.0,0.0,0.0,0.0,0.0,0.0
2.488,71,2,484000000,base_footprint,-0.003861944860447614,7.188945530270707e-07,0.99999055478729,0.0019939201553877133,0.0,0.0,0.0,0.0,0.0,0.0,0.0,0.0,0.0,0.000499674102732466,0.00020423445573455195,-0.05817945577259015,0.0,0.0,0.0,0.0,0.0,0.0,0.0,0.0,0.0,-0.09246335143003902,-0.015689043744376883,-0.0023914990279478706,0.0,0.0,0.0,0.0,0.0,0.0,0.0,0.0,0.0
2.515,72,2,518000000,base_footprint,-0.0038489436001445288,6.6449961265191995e-06,0.9999886640201524,0.002803109023514201,0.0,0.0,0.0,0.0,0.0,0.0,0.0,0.0,0.0,0.0012193689080881624,0.0009314307030255526,-0.08535456534651696,0.0,0.0,0.0,0.0,0.0,0.0,0.0,0.0,0.0,-0.18543845683215773,-0.005708512352615095,-0.0026936613973535493,0.0,0.0,0.0,0.0,0.0,0.0,0.0,0.0,0.0
2.558,73,2,552000000,base_footprint,-0.003848905565170392,1.616245715088172e-05,0.9999777751459986,0.005443792683785502,0.0,0.0,0.0,0.0,0.0,0.0,0.0,0.0,0.0,0.0017477642589220342,-0.00010606676127333633,-0.2250512879813739,0.0,0.0,0.0,0.0,0.0,0.0,0.0,0.0,0.0,0.36135007544747266,-0.03462671393635427,0.00402229132963889,0.0,0.0,0.0,0.0,0.0,0.0,0.0,0.0,0.0
2.5860000000000003,74,2,586000000,base_footprint,-0.0038521318079024554,2.711787233645145e-05,0.9999491722776602,0.009317360483408619,0.0,0.0,0.0,0.0,0.0,0.0,0.0,0.0,0.0,0.0019845633943295065,-0.002753368343922498,-0.08690060428864992,0.0,0.0,0.0,0.0,0.0,0.0,0.0,0.0,0.0,0.10697763762171408,-0.049807120798546135,0.004991698028210794,0.0,0.0,0.0,0.0,0.0,0.0,0.0,0.0,0.0
2.62,75,2,620000000,base_footprint,-0.0038497752525095334,3.442729872795389e-05,0.9999367846679484,0.010564313190699117,0.0,0.0,0.0,0.0,0.0,0.0,0.0,0.0,0.0,0.0008993657827973529,-0.00029046166925827575,-0.1415154040810243,0.0,0.0,0.0,0.0,0.0,0.0,0.0,0.0,0.0,0.3404033979372482,-0.027797025698575277,-0.0013097405058972436,0.0,0.0,0.0,0.0,0.0,0.0,0.0,0.0,0.0
2.654,76,2,654000000,base_footprint,-0.003852989206540368,4.9302086567613446e-05,0.9998862884413394,0.014579514068761106,0.0,0.0,0.0,0.0,0.0,0.0,0.0,0.0,0.0,0.002647018191641818,0.001516286501992501,-0.30929678053961274,0.0,0.0,0.0,0.0,0.0,0.0,0.0,0.0,0.0,0.4383478897683946,-0.07259611084184939,0.001587453577715133,0.0,0.0,0.0,0.0,0.0,0.0,0.0,0.0,0.0
2.688,77,2,688000000,base_footprint,-0.003853447607597367,7.037140137640457e-05,0.9997890883412418,0.020172377727728397,0.0,0.0,0.0,0.0,0.0,0.0,0.0,0.0,0.0,0.0025836531102368253,-0.0003454561382149689,-0.3484875997308633,0.0,0.0,0.0,0.0,0.0,0.0,0.0,0.0,0.0,0.005524464797867869,-0.07394486665041054,0.0019279318461376015,0.0,0.0,0.0,0.0,0.0,0.0,0.0,0.0,0.0
2.7190000000000003,78,2,722000000,base_footprint,-0.003853475396340346,9.280701892628023e-05,0.9996520400457194,0.02609484521239014,0.0,0.0,0.0,0.0,0.0,0.0,0.0,0.0,0.0,0.0025859130986032553,-0.00025622609913861303,-0.3486392269730812,0.0,0.0,0.0,0.0,0.0,0.0,0.0,0.0,0.0,-0.006391157778275117,-0.07750397435839701,-0.00018932208750748684,0.0,0.0,0.0,0.0,0.0,0.0,0.0,0.0,0.0
2.757,79,2,756000000,base_footprint,-0.0038539024420229614,0.00011511044707733572,0.9994798445868943,0.032018345524247135,0.0,0.0,0.0,0.0,0.0,0.0,0.0,0.0,0.0,0.002559622046429388,-0.00027068195595038465,-0.3485726384536521,0.0,0.0,0.0,0.0,0.0,0.0,0.0,0.0,0.0,-0.008864413768678765,-0.07734292292701676,-0.00011361768925402773,0.0,0.0,0.0,0.0,0.0,0.0,0.0,0.0,0.0
2.79,80,2,790000000,base_footprint,-0.0038544418895354276,0.00013962602241666565,0.9992458321712273,0.038637943407039244,0.0,0.0,0.0,0.0,0.0,0.0,0.0,0.0,0.0,0.003350664533497163,-0.00045169046381152676,-0.4736211831473055,0.0,0.0,0.0,0.0,0.0,0.0,0.0,0.0,0.0,-0.24479303546046008,-0.048390032120302115,-0.0018956140793555446,0.0,0.0,0.0,0.0,0.0,0.0,0.0,0.0,0.0
2.824,81,2,824000000,base_footprint,-0.003854217226615369,0.00017211711982543696,0.998880421842719,0.0471488944152357,0.0,0.0,0.0,0.0,0.0,0.0,0.0,0.0,0.0,0.0037365590288864314,-0.00036994139541406866,-0.502397355004946,0.0,0.0,0.0,0.0,0.0,0.0,0.0,0.0,0.0,-0.08829552396272054,-0.09310411238847839,-0.0008334260789315698,0.0,0.0,0.0,0.0,0.0,0.0,0.0,0.0,0.0
2.858,82,2,858000000,base_footprint,-0.003847383535583896,0.00020858416167925532,0.9984487614537995,0.05554480069233867,0.0,0.0,0.0,0.0,0.0,0.0,0.0,0.0,0.0,0.004085521726888256,-0.0010739919589317303,-0.48838403044717565,0.0,0.0,0.0,0.0,0.0,0.0,0.0,0.0,0.0,-0.05764122647753588,-0.09437063584812029,0.0010999015177246723,0.0,0.0,0.0,0.0,0.0,0.0,0.0,0.0,0.0
2.892,83,2,892000000,base_footprint,-0.003845900903014555,0.00023980044760736502,0.9980000108291485,0.06309619582042261,0.0,0.0,0.0,0.0,0.0,0.0,0.0,0.0,0.0,0.0025987190556149746,0.0011532540355226946,-0.38861240881152476,0.0,0.0,0.0,0.0,0.0,0.0,0.0,0.0,0.0,0.08766754539909184,-0.12143350027218858,-0.003083661608917121,0.0,0.0,0.0,0.0,0.0,0.0,0.0,0.0,0.0
2.926,84,2,926000000,base_footprint,-0.003848384389439953,0.0002610279971555952,0.9976020519735205,0.06910331178892552,0.0,0.0,0.0,0.0,0.0,0.0,0.0,0.0,0.0,0.0023925533197958456,-0.0004731384594913146,-0.32790331410827545,0.0,0.0,0.0,0.0,0.0,0.0,0.0,0.0,0.0,0.10142070122282795,-0.10839181642102615,0.003757275474617861,0.0,0.0,0.0,0.0,0.0,0.0,0.0,0.0,0.0
2.96,85,2,960000000,base_footprint,-0.0038472201464711427,0.0002820760110836159,0.9972152757775736,0.07447692989192267,0.0,0.0,0.0,0.0,0.0,0.0,0.0,0.0,0.0,0.002292506443983811,-0.00042776310687008565,-0.313889944237053,0.0,0.0,0.0,0.0,0.0,0.0,0.0,0.0,0.0,0.009456504784681904,-0.0756720045303891,8.132007488625315e-05,0.0,0.0,0.0,0.0,0.0,0.0,0.0,0.0,0.0
2.994,86,2,994000000,base_footprint,-0.0038399793940800506,0.000299085472520749,0.9967704836831656,0.08021077212046668,0.0,0.0,0.0,0.0,0.0,0.0,0.0,0.0,0.0,0.0023358419975134347,-0.0005797580686011984,-0.35509166852422447,0.0,0.0,0.0,0.0,0.0,0.0,0.0,0.0,0.0,-0.035483401956212725,-0.06653709175646234,0.00013045067483548645,0.0,0.0,0.0,0.0,0.0,0.0,0.0,0.0,0.0
3.027,87,3,28000000,base_footprint,-0.003836941663761206,0.00032174271600775046,0.9962710446117197,0.08619269127116637,0.0,0.0,0.0,0.0,0.0,0.0,0.0,0.0,0.0,0.002594146123480452,-0.0006655427641828514,-0.34477118121958883,0.0,0.0,0.0,0.0,0.0,0.0,0.0,0.0,0.0,-0.004850954660799018,-0.08151937263218059,-1.36721170117543e-05,0.0,0.0,0.0,0.0,0.0,0.0,0.0,0.0,0.0
3.062,88,3,62000000,base_footprint,-0.003838517486048526,0.0003462838451517898,0.9957739683617022,0.0917570150135448,0.0,0.0,0.0,0.0,0.0,0.0,0.0,0.0,0.0,0.00221713684346169,-0.0010516459031428079,-0.32267928638010834,0.0,0.0,0.0,0.0,0.0,0.0,0.0,0.0,0.0,0.01861410941289943,-0.08542415840487778,0.000677990988495455,0.0,0.0,0.0,0.0,0.0,0.0,0.0,0.0,0.0
3.096,89,3,96000000,base_footprint,-0.003836200162696888,0.00036472367390856807,0.9953074865752679,0.09668587131621861,0.0,0.0,0.0,0.0,0.0,0.0,0.0,0.0,0.0,0.002197566344550244,-0.00048097996823170947,-0.2790161302798601,0.0,0.0,0.0,0.0,0.0,0.0,0.0,0.0,0.0,-0.033168578028990925,-0.05702823431118554,-0.0008807709032886414,0.0,0.0,0.0,0.0,0.0,0.0,0.0,0.0,0.0
3.13,90,3,130000000,base_footprint,-0.0038350811147039943,0.0003825855658924356,0.9948378495701293,0.10140413622633601,0.0,0.0,0.0,0.0,0.0,0.0,0.0,0.0,0.0,0.002115286385767662,-0.0005579952201952721,-0.27918122321009603,0.0,0.0,0.0,0.0,0.0,0.0,0.0,0.0,0.0,-0.02299251528974754,-0.05769781765343026,-7.817257798107901e-05,0.0,0.0,0.0,0.0,0.0,0.0,0.0,0.0,0.0
3.164,91,3,164000000,base_footprint,-0.003833815158244708,0.000400316077362064,0.9943455911310238,0.10612250942502946,0.0,0.0,0.0,0.0,0.0,0.0,0.0,0.0,0.0,0.0020064850773203287,-0.000515937000364298,-0.27930088960017996,0.0,0.0,0.0,0.0,0.0,0.0,0.0,0.0,0.0,-0.024260945605859143,-0.057228305729233424,-0.0001897307871611546,0.0,0.0,0.0,0.0,0.0,0.0,0.0,0.0,0.0
3.2,92,3,198000000,base_footprint,-0.003829037454690792,0.0004205260687987143,0.993868662364574,0.11049997103912898,0.0,0.0,0.0,0.0,0.0,0.0,0.0,0.0,0.0,0.0016755083283071963,-0.00036683336929886157,-0.20990583331525775,0.0,0.0,0.0,0.0,0.0,0.0,0.0,0.0,0.0,-0.30593442413048827,0.08067195964449128,-0.0022855035881826345,0.0,0.0,0.0,0.0,0.0,0.0,0.0,0.0,0.0
3.232,93,3,232000000,base_footprint,-0.0038317474169401893,0.0004293031910101618,0.9935046617180721,0.11372607684679067,0.0,0.0,0.0,0.0,0.0,0.0,0.0,0.0,0.0,0.0012148379797052833,-0.0003023578373198227,-0.18913675254642098,0.0,0.0,0.0,0.0,0.0,0.0,0.0,0.0,0.0,-0.06654219378193482,-0.01298525517549181,-0.0007631890180574313,0.0,0.0,0.0,0.0,0.0,0.0,0.0,0.0,0.0
3.269,94,3,266000000,base_footprint,-0.0038311222735192946,0.00044167511469100066,0.9931350347024662,0.11690992375221944,0.0,0.0,0.0,0.0,0.0,0.0,0.0,0.0,0.0,0.0012435775305726531,-0.00033191821573013515,-0.18740281104793152,0.0,0.0,0.0,0.0,0.0,0.0,0.0,0.0,0.0,-0.021014908344214326,-0.033029991708960614,-5.623791593587898e-05,0.0,0.0,0.0,0.0,0.0,0.0,0.0,0.0,0.0
3.301,95,3,300000000,base_footprint,-0.0038228758959389644,0.00045353567875381463,0.9929144155981836,0.11876928568695737,0.0,0.0,0.0,0.0,0.0,0.0,0.0,0.0,0.0,0.0002906572869376202,-0.00069769750374756,-0.06481196415928525,0.0,0.0,0.0,0.0,0.0,0.0,0.0,0.0,0.0,0.18186097888027108,-0.12181518043655118,0.0025338734150917447,0.0,0.0,0.0,0.0,0.0,0.0,0.0,0.0,0.0
3.337,96,3,334000000,base_footprint,-0.0038286214063144265,0.000456294602143082,0.9927362932630408,0.12024884819290918,0.0,0.0,0.0,0.0,0.0,0.0,0.0,0.0,0.0,0.0005583427866480962,0.0010539977635879892,-0.10546589901711784,0.0,0.0,0.0,0.0,0.0,0.0,0.0,0.0,0.0,0.08621233649871529,-0.06648275587985264,-0.0020112836218533583,0.0,0.0,0.0,0.0,0.0,0.0,0.0,0.0,0.0
3.368,97,3,368000000,base_footprint,-0.003827276145039143,0.00046358262710709063,0.9925226187132877,0.12199995242202008,0.0,0.0,0.0,0.0,0.0,0.0,0.0,0.0,0.0,0.0007122022395169357,-0.00030006087862544627,-0.10346588012977415,0.0,0.0,0.0,0.0,0.0,0.0,0.0,0.0,0.0,-0.014874166393774865,-0.017989000021444726,0.0019282548247096314,0.0,0.0,0.0,0.0,0.0,0.0,0.0,0.0,0.0
3.402,98,3,402000000,base_footprint,-0.0038302443041564696,0.0004652086632613763,0.9923345285627748,0.12352042839775745,0.0,0.0,0.0,0.0,0.0,0.0,0.0,0.0,0.0,0.0004124097202931119,-0.00037713751643774667,-0.06478308084258638,0.0,0.0,0.0,0.0,0.0,0.0,0.0,0.0,0.0,-0.5681378273739965,0.283903038609642,-0.004347260635594798,0.0,0.0,0.0,0.0,0.0,0.0,0.0,0.0,0.0
3.438,99,3,436000000,base_footprint,-0.0038244446690717153,0.0004758329374639254,0.9921239044907639,0.12520105967598966,0.0,0.0,0.0,0.0,0.0,0.0,0.0,0.0,0.0,0.0006174701608531177,-0.0009469084793496714,-0.11033657198908785,0.0,0.0,0.0,0.0,0.0,0.0,0.0,0.0,0.0,0.25395747073276254,-0.16158497144679682,0.002519544589868709,0.0,0.0,0.0,0.0,0.0,0.0,0.0,0.0,0.0
3.47,100,3,470000000,base_footprint,-0.0038254735851871273,0.00048532866989195255,0.9918819614656879,0.12710351972668144,0.0,0.0,0.0,0.0,0.0,0.0,0.0,0.0,0.0,0.0010459969054975003,-0.0003529917095770546,-0.11346743884509405,0.0,0.0,0.0,0.0,0.0,0.0,0.0,0.0,0.0,-0.015511358668131085,-0.01770128715806341,-0.000998654105771151,0.0,0.0,0.0,0.0,0.0,0.0,0.0,0.0,0.0
3.504,101,3,504000000,base_footprint,-0.0038183648243148433,0.000490905588528764,0.9915181594684075,0.12991119484537542,0.0,0.0,0.0,0.0,0.0,0.0,0.0,0.0,0.0,0.0010277818944022736,-0.001508115221202071,-0.1813104423698019,0.0,0.0,0.0,0.0,0.0,0.0,0.0,0.0,0.0,0.0370517678031713,-0.06024194799328965,0.0021764190205064518,0.0,0.0,0.0,0.0,0.0,0.0,0.0,0.0,0.0
3.533,102,3,538000000,base_footprint,-0.00381757313479457,0.0005022323504815109,0.9911068612847455,0.1330126438062448,0.0,0.0,0.0,0.0,0.0,0.0,0.0,0.0,0.0,0.0012388156418274754,-0.0005668771648398687,-0.17903039330849402,0.0,0.0,0.0,0.0,0.0,0.0,0.0,0.0,0.0,-0.01444866793970085,-0.037252288401757205,-0.0013284153960468781,0.0,0.0,0.0,0.0,0.0,0.0,0.0,0.0,0.0
3.573,103,3,572000000,base_footprint,-0.0038152213859020314,0.0005114826010761428,0.990741734251089,0.13570555804560727,0.0,0.0,0.0,0.0,0.0,0.0,0.0,0.0,0.0,-0.0001594555139547213,-0.0009532408967365042,-0.1478218979856598,0.0,0.0,0.0,0.0,0.0,0.0,0.0,0.0,0.0,0.08528811110264863,-0.09217755283905361,0.00021593087544128744,0.0,0.0,0.0,0.0,0.0,0.0,0.0,0.0,0.0
3.607,104,3,606000000,base_footprint,-0.0038189890437331396,0.0005240122317073506,0.9904138449897971,0.13807808076009412,0.0,0.0,0.0,0.0,0.0,0.0,0.0,0.0,0.0,0.0006481877485727226,-0.0006083491952326959,-0.12469798652862918,0.0,0.0,0.0,0.0,0.0,0.0,0.0,0.0,0.0,0.11786097434135503,-0.10878999854255668,0.0015858908175511626,0.0,0.0,0.0,0.0,0.0,0.0,0.0,0.0,0.0
3.64,105,3,640000000,base_footprint,-0.003817987432505322,0.0005314219167230383,0.9901198321791888,0.14017081896089106,0.0,0.0,0.0,0.0,0.0,0.0,0.0,0.0,0.0,0.0008497616962181305,-0.00031684709197147144,-0.12448921382692056,0.0,0.0,0.0,0.0,0.0,0.0,0.0,0.0,0.0,-0.013532823581179914,-0.023989127533534087,-0.0004213542879845037,0.0,0.0,0.0,0.0,0.0,0.0,0.0,0.0,0.0
3.674,106,3,674000000,base_footprint,-0.003823110147297219,0.0005392178954448384,0.9898137056711319,0.14231627151680434,0.0,0.0,0.0,0.0,0.0,0.0,0.0,0.0,0.0,0.0019195241546280002,0.0018921663546292253,-0.1674871680306758,0.0,0.0,0.0,0.0,0.0,0.0,0.0,0.0,0.0,-0.03424716955284657,-0.011489628475842364,-0.0022531692204943153,0.0,0.0,0.0,0.0,0.0,0.0,0.0,0.0,0.0
3.709,107,3,708000000,base_footprint,-0.003816618185988003,0.0005509540920801247,0.9893684899407799,0.14537923162374927,0.0,0.0,0.0,0.0,0.0,0.0,0.0,0.0,0.0,0.0011968504102292266,-0.0005032658849178761,-0.1821470521886556,0.0,0.0,0.0,0.0,0.0,0.0,0.0,0.0,0.0,0.009213955736408165,-0.052710511681727835,0.002389356987740975,0.0,0.0,0.0,0.0,0.0,0.0,0.0,0.0,0.0
3.742,108,3,742000000,base_footprint,-0.0038149313752754597,0.000563315816171592,0.9889171722134803,0.14841817771144783,0.0,0.0,0.0,0.0,0.0,0.0,0.0,0.0,0.0,0.0011174735764657943,-0.0005142959911317641,-0.17709731215816768,0.0,0.0,0.0,0.0,0.0,0.0,0.0,0.0,0.0,-0.03337944108707886,-0.027246969942963772,-9.413280634845155e-05,0.0,0.0,0.0,0.0,0.0,0.0,0.0,0.0,0.0
3.776,109,3,776000000,base_footprint,-0.003818242271117479,0.000572387972344323,0.9884751619974539,0.15133389412843232,0.0,0.0,0.0,0.0,0.0,0.0,0.0,0.0,0.0,0.0020341578190269053,0.0004922139812461282,-0.13608071400392255,0.0,0.0,0.0,0.0,0.0,0.0,0.0,0.0,0.0,0.0021151824491822246,-0.04865506089087,-0.00025615980584117325,0.0,0.0,0.0,0.0,0.0,0.0,0.0,0.0,0.0
3.811,110,3,810000000,base_footprint,-0.003810269842552113,0.0005835652401723897,0.9881567973821862,0.15339910391758643,0.0,0.0,0.0,0.0,0.0,0.0,0.0,0.0,0.0,0.0007054855525215128,-0.00071708574675329,-0.12229236491131294,0.0,0.0,0.0,0.0,0.0,0.0,0.0,0.0,0.0,-0.0449498684099311,-0.0013123506132535307,0.0005153375758942798,0.0,0.0,0.0,0.0,0.0,0.0,0.0,0.0,0.0
3.845,111,3,844000000,base_footprint,-0.0038088929741507496,0.0005921494915146463,0.9878341033178901,0.155463584210037,0.0,0.0,0.0,0.0,0.0,0.0,0.0,0.0,0.0,0.0008008144176666844,-0.0003932565081119043,-0.122709699284493,0.0,0.0,0.0,0.0,0.0,0.0,0.0,0.0,0.0,-0.014096328381276984,-0.02334992283460792,-0.0005465704800460811,0.0,0.0,0.0,0.0,0.0,0.0,0.0,0.0,0.0
3.878,112,3,878000000,base_footprint,-0.0038071866377236345,0.0006000592955206625,0.9875294023456035,0.15738749874650954,0.0,0.0,0.0,0.0,0.0,0.0,0.0,0.0,0.0,-0.0016609357392467817,-0.0029821164620823693,-0.07880682513519792,0.0,0.0,0.0,0.0,0.0,0.0,0.0,0.0,0.0,-0.02236800901608373,-0.015872817626946884,0.0036377262965375952,0.0,0.0,0.0,0.0,0.0,0.0,0.0,0.0,0.0
3.912,113,3,912000000,base_footprint,-0.0038069099936143525,0.0006062350926321128,0.9873111856164238,0.1587506304617538,0.0,0.0,0.0,0.0,0.0,0.0,0.0,0.0,0.0,0.0006371837979812573,-0.00036143411046700105,-0.08123646296376799,0.0,0.0,0.0,0.0,0.0,0.0,0.0,0.0,0.0,-0.01107778700588975,-0.013673238716423237,-0.0038715595222049946,0.0,0.0,0.0,0.0,0.0,0.0,0.0,0.0,0.0
3.944,114,3,946000000,base_footprint,-0.0038065513783561095,0.0006122266257658266,0.9870895786834961,0.16012276227820008,0.0,0.0,0.0,0.0,0.0,0.0,0.0,0.0,0.0,0.0007145984173969501,-0.0003950305582630657,-0.08202203802170761,0.0,0.0,0.0,0.0,0.0,0.0,0.0,0.0,0.0,-0.010973496849762338,-0.01427393000107156,-8.150886689685093e-05,0.0,0.0,0.0,0.0,0.0,0.0,0.0,0.0,0.0
3.979,115,3,980000000,base_footprint,-0.0038063408552021184,0.0006177240029254551,0.9868903646622832,0.16134602047492858,0.0,0.0,0.0,0.0,0.0,0.0,0.0,0.0,0.0,-0.001174331062230367,-0.0020441541452318806,-0.03985206427699145,0.0,0.0,0.0,0.0,0.0,0.0,0.0,0.0,0.0,-0.07898972934002912,0.039421847356189144,0.0023707622769411794,0.0,0.0,0.0,0.0,0.0,0.0,0.0,0.0,0.0
4.014,116,4,14000000,base_footprint,-0.0038012130507373036,0.0006148098999186099,0.9867476849108587,0.16221645758427422,0.0,0.0,0.0,0.0,0.0,0.0,0.0,0.0,0.0,0.00030349212667776354,-0.00027763779615787336,-0.0564506330014954,0.0,0.0,0.0,0.0,0.0,0.0,0.0,0.0,0.0,-0.03303598353800884,0.011261057770356334,-0.0030360581096295636,0.0,0.0,0.0,0.0,0.0,0.0,0.0,0.0,0.0
4.048,117,4,48000000,base_footprint,-0.0038008595669115075,0.0006173009771960182,0.9866218609751138,0.16297998604754957,0.0,0.0,0.0,0.0,0.0,0.0,0.0,0.0,0.0,9.847848984024253e-05,-0.00019673469188426614,-0.02832837746639235,0.0,0.0,0.0,0.0,0.0,0.0,0.0,0.0,0.0,0.04107366695180056,-0.044728417738547646,0.00024803154848771375,0.0,0.0,0.0,0.0,0.0,0.0,0.0,0.0,0.0
4.082,118,4,82000000,base_footprint,-0.00380218771264978,0.0006208532882483964,0.9865555788325885,0.16338068363208888,0.0,0.0,0.0,0.0,0.0,0.0,0.0,0.0,0.0,0.0004012864822069036,0.00021382256514433916,-0.045109391701778946,0.0,0.0,0.0,0.0,0.0,0.0,0.0,0.0,0.0,0.036580015451693336,-0.03441014950020292,-0.00019828282036913337,0.0,0.0,0.0,0.0,0.0,0.0,0.0,0.0,0.0
4.118,119,4,116000000,base_footprint,-0.003804315112557906,0.0006239200163700288,0.98643184740832,0.16412601356563394,0.0,0.0,0.0,0.0,0.0,0.0,0.0,0.0,0.0,0.00024723010859256417,-0.00014736053811818895,-0.044577520023045374,0.0,0.0,0.0,0.0,0.0,0.0,0.0,0.0,0.0,-0.005072778959254027,-0.008746408910376563,0.0002490330173175112,0.0,0.0,0.0,0.0,0.0,0.0,0.0,0.0,0.0
4.15,120,4,150000000,base_footprint,-0.0038043584140630368,0.0006264007249073037,0.986308547565136,0.16486534954059118,0.0,0.0,0.0,0.0,0.0,0.0,0.0,0.0,0.0,0.00021960388491273794,-0.00012375913216893382,-0.044005975660434404,0.0,0.0,0.0,0.0,0.0,0.0,0.0,0.0,0.0,-0.006372788785050051,-0.007041690222946924,-7.5617756093785e-05,0.0,0.0,0.0,0.0,0.0,0.0,0.0,0.0,0.0
4.184,121,4,184000000,base_footprint,-0.0038015329101809543,0.0006369675696751498,0.9861204795376758,0.16598657312033493,0.0,0.0,0.0,0.0,0.0,0.0,0.0,0.0,0.0,0.0015330267224991467,1.533532584472848e-05,-0.151172141039078,0.0,0.0,0.0,0.0,0.0,0.0,0.0,0.0,0.0,-0.173489662090591,0.11921705068977356,-0.0019036602436738569,0.0,0.0,0.0,0.0,0.0,0.0,0.0,0.0,0.0
4.218,122,4,218000000,base_footprint,-0.0038019456845246476,0.0006439347849884053,0.9854552262489453,0.16989151719743043,0.0,0.0,0.0,0.0,0.0,0.0,0.0,0.0,0.0,0.0008652648442217428,-0.0011741149214306989,-0.17924499437979036,0.0,0.0,0.0,0.0,0.0,0.0,0.0,0.0,0.0,-0.1323715690302821,0.04240539787643151,0.0006470916709279604,0.0,0.0,0.0,0.0,0.0,0.0,0.0,0.0,0.0
4.252,123,4,252000000,base_footprint,-0.003803335475522522,0.0006526253105210561,0.9850963672631159,0.17196004165060239,0.0,0.0,0.0,0.0,0.0,0.0,0.0,0.0,0.0,0.0005980014881428314,-0.0003458674325345729,-0.08572100615838539,0.0,0.0,0.0,0.0,0.0,0.0,0.0,0.0,0.0,-0.12222425926768649,0.06714946902361174,-0.001959849380550467,0.0,0.0,0.0,0.0,0.0,0.0,0.0,0.0,0.0
4.285,124,4,286000000,base_footprint,-0.003792027113907673,0.0006598873079601897,0.9849766609634845,0.17264461311125037,0.0,0.0,0.0,0.0,0.0,0.0,0.0,0.0,0.0,-0.0007019658156175807,-0.0013745533883228831,-0.036516910942534876,0.0,0.0,0.0,0.0,0.0,0.0,0.0,0.0,0.0,0.004003366323054038,-0.01409911159414609,0.0017032721153407192,0.0,0.0,0.0,0.0,0.0,0.0,0.0,0.0,0.0
4.322,125,4,320000000,base_footprint,-0.003793531518542328,0.0006634530273744433,0.9847789508535166,0.17376877425056952,0.0,0.0,0.0,0.0,0.0,0.0,0.0,0.0,0.0,0.0009294665542356062,0.0018078597509274966,-0.051853158898989185,0.0,0.0,0.0,0.0,0.0,0.0,0.0,0.0,0.0,0.2863743822810449,-0.2583923534965782,-0.0020970060222909774,0.0,0.0,0.0,0.0,0.0,0.0,0.0,0.0,0.0
4.354,126,4,354000000,base_footprint,-0.003796720676368365,0.0006641384819706326,0.9847178401818949,0.1741146721551243,0.0,0.0,0.0,0.0,0.0,0.0,0.0,0.0,0.0,0.00010222956407610341,-0.00020707983290061633,-0.017550847974857182,0.0,0.0,0.0,0.0,0.0,0.0,0.0,0.0,0.0,0.05173703183705724,-0.04998257272055607,0.003518365316783241,0.0,0.0,0.0,0.0,0.0,0.0,0.0,0.0,0.0
4.388,127,4,388000000,base_footprint,-0.0038009043691417223,0.0006611818962187729,0.984709636787621,0.17416098065315422,0.0,0.0,0.0,0.0,0.0,0.0,0.0,0.0,0.0,-0.0002684393390182226,-7.159255727734032e-05,0.03814561534130177,0.0,0.0,0.0,0.0,0.0,0.0,0.0,0.0,0.0,-0.3151670827240341,0.26433910292818513,-0.0027769667610560997,0.0,0.0,0.0,0.0,0.0,0.0,0.0,0.0,0.0
4.422,128,4,422000000,base_footprint,-0.003796574330924847,0.0006671115473228786,0.9846742622670331,0.17436094234204919,0.0,0.0,0.0,0.0,0.0,0.0,0.0,0.0,0.0,-0.00023866779443110027,-0.0005609452872441873,-0.019600348328576968,0.0,0.0,0.0,0.0,0.0,0.0,0.0,0.0,0.0,0.016972151063989267,-0.01721356270653106,0.0007368357520821211,0.0,0.0,0.0,0.0,0.0,0.0,0.0,0.0,0.0
4.456,129,4,456000000,base_footprint,-0.0037979863890894522,0.0006676819980201324,0.9846654713104879,0.1744105475853824,0.0,0.0,0.0,0.0,0.0,0.0,0.0,0.0,0.0,0.00029990172403626095,-0.0002013026121417712,-0.0016667026095363675,0.0,0.0,0.0,0.0,0.0,0.0,0.0,0.0,0.0,0.02961475832728263,-0.02587608832126754,-0.0008166495309525258,0.0,0.0,0.0,0.0,0.0,0.0,0.0,0.0,0.0
4.49,130,4,490000000,base_footprint,-0.0037944164938293256,0.0006655483298569234,0.9845465710425526,0.17508057829823345,0.0,0.0,0.0,0.0,0.0,0.0,0.0,0.0,0.0,-0.002743305435932922,-0.0018561988698316783,-0.08906456775969063,0.0,0.0,0.0,0.0,0.0,0.0,0.0,0.0,0.0,0.0753794738151261,-0.07333743869183065,0.004969397136336702,0.0,0.0,0.0,0.0,0.0,0.0,0.0,0.0,0.0
4.524,131,4,524000000,base_footprint,-0.0037920841543102133,0.0006700951675941409,0.9842675415180169,0.17664251409078205,0.0,0.0,0.0,0.0,0.0,0.0,0.0,0.0,0.0,0.0005029531912133282,-0.0003735070199877335,-0.08909133259298976,0.0,0.0,0.0,0.0,0.0,0.0,0.0,0.0,0.0,-0.012475309887877772,-0.015256472861246413,-0.0037786153133205916,0.0,0.0,0.0,0.0,0.0,0.0,0.0,0.0,0.0
4.558,132,4,558000000,base_footprint,-0.0037915247196817566,0.0006740565721176235,0.9840583279449663,0.17780432275452407,0.0,0.0,0.0,0.0,0.0,0.0,0.0,0.0,0.0,0.00018862253307114658,-0.00018978392012604107,-0.04416720820987274,0.0,0.0,0.0,0.0,0.0,0.0,0.0,0.0,0.0,0.06152179826655167,-0.0738067939660509,0.0003831395178145927,0.0,0.0,0.0,0.0,0.0,0.0,0.0,0.0,0.0
4.5920000000000005,133,4,592000000,base_footprint,-0.0037947525622294724,0.000678855948550397,0.9839548274146789,0.17837610998937647,0.0,0.0,0.0,0.0,0.0,0.0,0.0,0.0,0.0,-5.3085294827202024e-05,-0.00028659099209056414,-0.03953038181261044,0.0,0.0,0.0,0.0,0.0,0.0,0.0,0.0,0.0,0.11100538158915157,-0.10687807548423012,0.0012171285881924297,0.0,0.0,0.0,0.0,0.0,0.0,0.0,0.0,0.0
4.626,134,4,626000000,base_footprint,-0.0037947417496566444,0.0006810181042555647,0.9838367351642043,0.1790262960875699,0.0,0.0,0.0,0.0,0.0,0.0,0.0,0.0,0.0,0.0001845919539202897,-0.0001368298114704729,-0.03887924587528866,0.0,0.0,0.0,0.0,0.0,0.0,0.0,0.0,0.0,-0.005403679910317761,-0.006367116342798913,-0.00031280890987622913,0.0,0.0,0.0,0.0,0.0,0.0,0.0,0.0,0.0
4.66,135,4,660000000,base_footprint,-0.003794931474037704,0.0006834767238793477,0.9837200590943319,0.17966629258188496,0.0,0.0,0.0,0.0,0.0,0.0,0.0,0.0,0.0,0.00015303913238574874,-6.360457418151861e-05,-0.0378680044869146,0.0,0.0,0.0,0.0,0.0,0.0,0.0,0.0,0.0,-0.006652601303858262,-0.00488810837895724,-6.980907367758989e-05,0.0,0.0,0.0,0.0,0.0,0.0,0.0,0.0,0.0
4.694,136,4,694000000,base_footprint,-0.0037971752398159504,0.0006886809290997602,0.983435644625695,0.1812165556962712,0.0,0.0,0.0,0.0,0.0,0.0,0.0,0.0,0.0,0.0005812498128322947,-0.0014457768752007276,-0.13861516461996867,0.0,0.0,0.0,0.0,0.0,0.0,0.0,0.0,0.0,-0.1618580369039228,0.11664449051207709,0.00045445726230222683,0.0,0.0,0.0,0.0,0.0,0.0,0.0,0.0,0.0
4.727,137,4,728000000,base_footprint,-0.0037917460703798677,0.0006928678520024891,0.9832806248656274,0.1820559127294108,0.0,0.0,0.0,0.0,0.0,0.0,0.0,0.0,0.0,-0.0007658299015108309,-0.002129621909782908,0.0853640314627189,0.0,0.0,0.0,0.0,0.0,0.0,0.0,0.0,0.0,0.08266826691402529,-0.09049821335424124,0.002790663997225388,0.0,0.0,0.0,0.0,0.0,0.0,0.0,0.0,0.0
4.765,138,4,762000000,base_footprint,-0.0037922074368185146,0.0006882749864403365,0.9835585597216021,0.18054834543320267,0.0,0.0,0.0,0.0,0.0,0.0,0.0,0.0,0.0,-0.0006972347296020646,0.000400297524186712,0.08944069957050019,0.0,0.0,0.0,0.0,0.0,0.0,0.0,0.0,0.0,0.04382363259983967,-0.013158078411442186,-0.0035584945006772043,0.0,0.0,0.0,0.0,0.0,0.0,0.0,0.0,0.0
4.795,139,4,796000000,base_footprint,-0.003793207100467193,0.0006834748744705293,0.9838030772915322,0.17921118702162722,0.0,0.0,0.0,0.0,0.0,0.0,0.0,0.0,0.0,-0.000648740724587122,0.0002020091746494035,0.07718370087665803,0.0,0.0,0.0,0.0,0.0,0.0,0.0,0.0,0.0,0.014685774003605464,0.010576371615005124,0.00031632544931895775,0.0,0.0,0.0,0.0,0.0,0.0,0.0,0.0,0.0
4.83,140,4,830000000,base_footprint,-0.003793944419269277,0.0006791377105143779,0.984036816896387,0.17792326365638741,0.0,0.0,0.0,0.0,0.0,0.0,0.0,0.0,0.0,-0.0006040941300516308,0.0001027830555788942,0.07718211490261576,0.0,0.0,0.0,0.0,0.0,0.0,0.0,0.0,0.0,0.011944732125475671,0.012062757559662598,3.328691908361348e-05,0.0,0.0,0.0,0.0,0.0,0.0,0.0,0.0,0.0
4.864,141,4,864000000,base_footprint,-0.003794952173510337,0.0006748790924517922,0.9842685765037862,0.17663666715442167,0.0,0.0,0.0,0.0,0.0,0.0,0.0,0.0,0.0,-0.0005581186560581328,6.220125792352055e-05,0.0769857478625202,0.0,0.0,0.0,0.0,0.0,0.0,0.0,0.0,0.0,0.011716900609912506,0.012187226327404224,7.841816773631588e-05,0.0,0.0,0.0,0.0,0.0,0.0,0.0,0.0,0.0
4.898,142,4,898000000,base_footprint,-0.003796437499023106,0.0006677685858523288,0.9846309939995534,0.17460511677176957,0.0,0.0,0.0,0.0,0.0,0.0,0.0,0.0,0.0,-0.0009575747023840642,0.00023680837288138633,0.13543431696380748,0.0,0.0,0.0,0.0,0.0,0.0,0.0,0.0,0.0,0.005365989335352902,0.029558758702948627,-1.6482674080908756e-05,0.0,0.0,0.0,0.0,0.0,0.0,0.0,0.0,0.0
4.932,143,4,932000000,base_footprint,-0.0037991727205408726,0.0006602461200083167,0.985027697459876,0.1723530260790205,0.0,0.0,0.0,0.0,0.0,0.0,0.0,0.0,0.0,-0.0007520514510360786,0.00015269821836613073,0.13338257409214943,0.0,0.0,0.0,0.0,0.0,0.0,0.0,0.0,0.0,0.016747942190094272,0.02468196838709585,-8.684375796803521e-05,0.0,0.0,0.0,0.0,0.0,0.0,0.0,0.0,0.0
4.966,144,4,966000000,base_footprint,-0.0037968227657320134,0.0006475467866413363,0.9853896857434669,0.17027134829570226,0.0,0.0,0.0,0.0,0.0,0.0,0.0,0.0,0.0,-0.0015637986341852238,-0.0004148692606653915,0.11277901389119815,0.0,0.0,0.0,0.0,0.0,0.0,0.0,0.0,0.0,-0.014800336076083465,0.04779355412301519,0.0010607975508919835,0.0,0.0,0.0,0.0,0.0,0.0,0.0,0.0,0.0
5.0,145,5,0,base_footprint,-0.0037986770886816686,0.0006412371504787028,0.985687679168884,0.16853770498601253,0.0,0.0,0.0,0.0,0.0,0.0,0.0,0.0,0.0,8.20661644455977e-05,0.0004000620757425497,0.10956759280132516,0.0,0.0,0.0,0.0,0.0,0.0,0.0,0.0,0.0,0.05369933303118142,-0.014881338612450768,-0.0019161401865390025,0.0,0.0,0.0,0.0,0.0,0.0,0.0,0.0,0.0
5.034,146,5,34000000,base_footprint,-0.0038015858635305454,0.0006350189499613018,0.9859992727226037,0.16670506556896234,0.0,0.0,0.0,0.0,0.0,0.0,0.0,0.0,0.0,-0.0008716652672820522,0.00017347583480022992,0.10885174582364056,0.0,0.0,0.0,0.0,0.0,0.0,0.0,0.0,0.0,0.014848721312502582,0.01882308611811885,0.0011611482906760868,0.0,0.0,0.0,0.0,0.0,0.0,0.0,0.0,0.0
5.072,147,5,68000000,base_footprint,-0.0038031679503244976,0.0006272980106316753,0.9863066684716435,0.16487661489463915,0.0,0.0,0.0,0.0,0.0,0.0,0.0,0.0,0.0,-0.0008649857253870705,0.00022573161778640633,0.10882540243012145,0.0,0.0,0.0,0.0,0.0,0.0,0.0,0.0,0.0,0.015653396759561143,0.018041216181537742,-8.149718521160836e-06,0.0,0.0,0.0,0.0,0.0,0.0,0.0,0.0,0.0
5.102,148,5,102000000,base_footprint,-0.003804940442090965,0.0006219241319484908,0.9865280090898697,0.16354700523025262,0.0,0.0,0.0,0.0,0.0,0.0,0.0,0.0,0.0,-0.0009091246462743067,-0.00022886157442748636,0.06732851995919657,0.0,0.0,0.0,0.0,0.0,0.0,0.0,0.0,0.0,-0.24947869373303136,0.2149049399811713,-0.001783457048623318,0.0,0.0,0.0,0.0,0.0,0.0,0.0,0.0,0.0
5.1370000000000005,149,5,136000000,base_footprint,-0.0038060216248393588,0.0006168546716217874,0.9867167809106596,0.16240421164184973,0.0,0.0,0.0,0.0,0.0,0.0,0.0,0.0,0.0,-0.0006649523255242765,0.00021537913558516676,0.06831537345767634,0.0,0.0,0.0,0.0,0.0,0.0,0.0,0.0,0.0,0.007293376939382283,0.012128200450420986,-0.0006121305981685944,0.0,0.0,0.0,0.0,0.0,0.0,0.0,0.0,0.0
5.17,150,5,170000000,base_footprint,-0.003807806984983681,0.0006120977814949848,0.9869050578769867,0.16125610896673867,0.0,0.0,0.0,0.0,0.0,0.0,0.0,0.0,0.0,-0.0006649168352088569,0.000282666766393847,0.06820754751606688,0.0,0.0,0.0,0.0,0.0,0.0,0.0,0.0,0.0,0.00974385668865537,0.011166164787891297,-2.2198826870665708e-05,0.0,0.0,0.0,0.0,0.0,0.0,0.0,0.0,0.0
5.205,151,5,204000000,base_footprint,-0.003800942117514715,0.0006074958032862407,0.9873022694214226,0.158806210782755,0.0,0.0,0.0,0.0,0.0,0.0,0.0,0.0,0.0,-0.001237387544030905,0.00022702247704349602,0.1616867035120727,0.0,0.0,0.0,0.0,0.0,0.0,0.0,0.0,0.0,0.13819058166826334,-0.06601735448897757,0.0017301451365819324,0.0,0.0,0.0,0.0,0.0,0.0,0.0,0.0,0.0
5.24,152,5,238000000,base_footprint,-0.0038020826392049555,0.000598552146068179,0.9876826228274541,0.15642321588438915,0.0,0.0,0.0,0.0,0.0,0.0,0.0,0.0,0.0,-0.0009847068899285429,0.00014265723907971937,0.11651467088804701,0.0,0.0,0.0,0.0,0.0,0.0,0.0,0.0,0.0,0.1140584276788399,-0.045122793718905985,0.0008495713768169661,0.0,0.0,0.0,0.0,0.0,0.0,0.0,0.0,0.0
5.274,153,5,272000000,base_footprint,-0.0038092793869029303,0.0005898490355137715,0.9879382642046077,0.15480028291012488,0.0,0.0,0.0,0.0,0.0,0.0,0.0,0.0,0.0,-0.0007201958720191005,0.0004218052386602836,0.09420455626170396,0.0,0.0,0.0,0.0,0.0,0.0,0.0,0.0,0.0,0.062197881701694234,-0.01878893601895225,2.465899810178291e-05,0.0,0.0,0.0,0.0,0.0,0.0,0.0,0.0,0.0
5.305,154,5,306000000,base_footprint,-0.003810142020194741,0.0005844137459444309,0.9881847467090272,0.1532189532987856,0.0,0.0,0.0,0.0,0.0,0.0,0.0,0.0,0.0,-0.0007207579721503861,0.00011290971212942987,0.09434188630595082,0.0,0.0,0.0,0.0,0.0,0.0,0.0,0.0,0.0,0.012482657199329368,0.016440397085944386,0.0002941063334001144,0.0,0.0,0.0,0.0,0.0,0.0,0.0,0.0,0.0
5.338,155,5,340000000,base_footprint,-0.003811081382569954,0.0005790274707286017,0.9884282220272409,0.15164033198971583,0.0,0.0,0.0,0.0,0.0,0.0,0.0,0.0,0.0,-0.0006884190626523733,0.00010090291153095588,0.09399328284787324,0.0,0.0,0.0,0.0,0.0,0.0,0.0,0.0,0.0,0.012320961409793382,0.016561319949218698,1.0616650062314926e-05,0.0,0.0,0.0,0.0,0.0,0.0,0.0,0.0,0.0
5.374,156,5,374000000,base_footprint,-0.0038083640933970903,0.0005716898990555264,0.9886633618852998,0.15009972151622497,0.0,0.0,0.0,0.0,0.0,0.0,0.0,0.0,0.0,-0.0013064317394768095,-0.00043102645379279776,0.07326918889401317,0.0,0.0,0.0,0.0,0.0,0.0,0.0,0.0,0.0,0.022587880375955778,0.010238539375854809,0.00015274265626366432,0.0,0.0,0.0,0.0,0.0,0.0,0.0,0.0,0.0
5.41,157,5,408000000,base_footprint,-0.003814413005564083,0.00057029435414384,0.9888315778728551,0.14898736731432086,0.0,0.0,0.0,0.0,0.0,0.0,0.0,0.0,0.0,-0.0005229654603999851,9.455636552269429e-07,0.061912564204249704,0.0,0.0,0.0,0.0,0.0,0.0,0.0,0.0,0.0,-0.010620865306353672,0.024611416421350552,0.00023969467172755827,0.0,0.0,0.0,0.0,0.0,0.0,0.0,0.0,0.0
5.442,158,5,442000000,base_footprint,-0.0038090611142265127,0.0005607965980244568,0.9889582675327159,0.14814425955565433,0.0,0.0,0.0,0.0,0.0,0.0,0.0,0.0,0.0,-0.00047903637299577095,-0.00010180262256935296,0.04756861929518003,0.0,0.0,0.0,0.0,0.0,0.0,0.0,0.0,0.0,-0.017856370554950596,0.025144267014109593,-0.0001243080719549049,0.0,0.0,0.0,0.0,0.0,0.0,0.0,0.0,0.0
5.476,159,5,476000000,base_footprint,-0.003812426990427798,0.0005592067212477948,0.9891145801753545,0.1470969067411607,0.0,0.0,0.0,0.0,0.0,0.0,0.0,0.0,0.0,-0.00010810281224633394,-0.00014259741911824028,0.08463955738199598,0.0,0.0,0.0,0.0,0.0,0.0,0.0,0.0,0.0,0.041972002670859536,-0.012614334054522254,-0.0004124804015781824,0.0,0.0,0.0,0.0,0.0,0.0,0.0,0.0,0.0
5.51,160,5,510000000,base_footprint,-0.0038139298313904046,0.0005538886464709602,0.9893237650348615,0.1456833383879394,0.0,0.0,0.0,0.0,0.0,0.0,0.0,0.0,0.0,-0.000657074976970893,8.934419131997705e-05,0.08371430842577365,0.0,0.0,0.0,0.0,0.0,0.0,0.0,0.0,0.0,0.010164372094317363,0.015458670304228976,0.00037915684362567725,0.0,0.0,0.0,0.0,0.0,0.0,0.0,0.0,0.0
5.5440000000000005,161,5,544000000,base_footprint,-0.0038150785707249672,0.0005479140079975182,0.989530481203888,0.1442725605724847,0.0,0.0,0.0,0.0,0.0,0.0,0.0,0.0,0.0,-0.0006833412540817407,0.00012098736111408156,0.0836244396417994,0.0,0.0,0.0,0.0,0.0,0.0,0.0,0.0,0.0,0.011144008798891478,0.014595321764412125,-7.51254652523649e-06,0.0,0.0,0.0,0.0,0.0,0.0,0.0,0.0,0.0
5.578,162,5,578000000,base_footprint,-0.003818088515197832,0.0005475677897209472,0.9897252253193006,0.1429304052196917,0.0,0.0,0.0,0.0,0.0,0.0,0.0,0.0,0.0,-0.001476863973154706,-0.001130162585210814,0.05261096232175457,0.0,0.0,0.0,0.0,0.0,0.0,0.0,0.0,0.0,-0.12688895338887463,0.10333715227227411,0.0011258217352867815,0.0,0.0,0.0,0.0,0.0,0.0,0.0,0.0,0.0
5.612,163,5,612000000,base_footprint,-0.0038175975835334475,0.0005366457535417998,0.9899178734616235,0.14159004824225055,0.0,0.0,0.0,0.0,0.0,0.0,0.0,0.0,0.0,-0.0008399248973791583,-0.00046407441350382805,0.08974143740119453,0.0,0.0,0.0,0.0,0.0,0.0,0.0,0.0,0.0,-0.13974169168821216,0.10886693925197745,-0.002508590478811418,0.0,0.0,0.0,0.0,0.0,0.0,0.0,0.0,0.0
5.646,164,5,646000000,base_footprint,-0.0038193353869913076,0.0005306172360827537,0.9901365048811753,0.1400529643536356,0.0,0.0,0.0,0.0,0.0,0.0,0.0,0.0,0.0,-0.0008634460999877524,0.00023625889992680616,0.0915663526182922,0.0,0.0,0.0,0.0,0.0,0.0,0.0,0.0,0.0,0.007212905473034331,0.018668406795647467,-0.0011447904680195568,0.0,0.0,0.0,0.0,0.0,0.0,0.0,0.0,0.0
5.68,165,5,680000000,base_footprint,-0.0038143451358370983,0.0005270278864275777,0.9903808037382539,0.13831499050920718,0.0,0.0,0.0,0.0,0.0,0.0,0.0,0.0,0.0,-0.0014478097426859678,-0.001399085570424806,0.1601167754541487,0.0,0.0,0.0,0.0,0.0,0.0,0.0,0.0,0.0,0.08563779713702203,-0.029619573078536174,0.003580421228255737,0.0,0.0,0.0,0.0,0.0,0.0,0.0,0.0,0.0
5.714,166,5,714000000,base_footprint,-0.0038143591421767637,0.0005164954952508746,0.9908295035822549,0.13506323973487486,0.0,0.0,0.0,0.0,0.0,0.0,0.0,0.0,0.0,-0.001444492330408064,0.00020459802371424412,0.18171106705090553,0.0,0.0,0.0,0.0,0.0,0.0,0.0,0.0,0.0,0.13544102363400437,-0.03387657985447169,-0.0013722017717781487,0.0,0.0,0.0,0.0,0.0,0.0,0.0,0.0,0.0
5.748,167,5,748000000,base_footprint,-0.003823728714976649,0.0005031741363981842,0.9911824974195277,0.13244766031791913,0.0,0.0,0.0,0.0,0.0,0.0,0.0,0.0,0.0,-0.0012960845200628325,-9.606492124906906e-05,0.1429446058922034,0.0,0.0,0.0,0.0,0.0,0.0,0.0,0.0,0.0,0.10591310773367188,-0.02357739508785162,0.0009701667913988061,0.0,0.0,0.0,0.0,0.0,0.0,0.0,0.0,0.0
5.782,168,5,782000000,base_footprint,-0.003819540321206991,0.0004926552796757858,0.9914950726557352,0.13008723727525554,0.0,0.0,0.0,0.0,0.0,0.0,0.0,0.0,0.0,-0.001986681833919807,-0.001643435856862149,0.11585106147490129,0.0,0.0,0.0,0.0,0.0,0.0,0.0,0.0,0.0,-0.12454176072596047,0.10762945716121303,0.0008815247286365448,0.0,0.0,0.0,0.0,0.0,0.0,0.0,0.0,0.0
5.817,169,5,816000000,base_footprint,-0.0038235636450371785,0.0004920467528844948,0.991621350620173,0.12912101008460836,0.0,0.0,0.0,0.0,0.0,0.0,0.0,0.0,0.0,-0.0002682585578122017,-2.0353922183484076e-05,0.04002302769503672,0.0,0.0,0.0,0.0,0.0,0.0,0.0,0.0,0.0,-0.12504378963584317,0.08605190888508556,-0.0035764877715509175,0.0,0.0,0.0,0.0,0.0,0.0,0.0,0.0,0.0
5.85,170,5,850000000,base_footprint,-0.0038246405083657642,0.0004904585385836473,0.9917072937810446,0.12845923492252564,0.0,0.0,0.0,0.0,0.0,0.0,0.0,0.0,0.0,-0.00018484897494848665,1.0352869983081281e-05,0.03883891380460631,0.0,0.0,0.0,0.0,0.0,0.0,0.0,0.0,0.0,0.003298444964849415,0.008167816664509123,-0.00016482711946245142,0.0,0.0,0.0,0.0,0.0,0.0,0.0,0.0,0.0
5.884,171,5,884000000,base_footprint,-0.003818717828565831,0.0004866792141978659,0.9917312473938491,0.12827436797789485,0.0,0.0,0.0,0.0,0.0,0.0,0.0,0.0,0.0,-0.0026419949497548815,-0.0017727901816790806,-0.08087362560399,0.0,0.0,0.0,0.0,0.0,0.0,0.0,0.0,0.0,0.13505290421832555,-0.07323640503759052,0.005806515086126492,0.0,0.0,0.0,0.0,0.0,0.0,0.0,0.0,0.0
5.918,172,5,918000000,base_footprint,-0.0038189587272755418,0.000490070080526079,0.9915306953383267,0.1298154674430209,0.0,0.0,0.0,0.0,0.0,0.0,0.0,0.0,0.0,0.0005898674555419986,-0.00035007259949251313,-0.08770317742977614,0.0,0.0,0.0,0.0,0.0,0.0,0.0,0.0,0.0,-0.0023635167123163213,-0.02023578066181926,-0.004050214933968882,0.0,0.0,0.0,0.0,0.0,0.0,0.0,0.0,0.0
5.952,173,5,952000000,base_footprint,-0.00381806162306984,0.000494314979047926,0.9913778844115528,0.13097735818765616,0.0,0.0,0.0,0.0,0.0,0.0,0.0,0.0,0.0,0.0003015252278940838,-0.00028829073550549404,-0.04437570227839938,0.0,0.0,0.0,0.0,0.0,0.0,0.0,0.0,0.0,0.07159666264987034,-0.05934250803318265,0.0005790481816851755,0.0,0.0,0.0,0.0,0.0,0.0,0.0,0.0,0.0
5.986,174,5,986000000,base_footprint,-0.0038218245226102608,0.0004975735427957202,0.9913606672508892,0.13110748836645356,0.0,0.0,0.0,0.0,0.0,0.0,0.0,0.0,0.0,-0.0003080101018766026,-0.00048300695654873786,0.011814845313150501,0.0,0.0,0.0,0.0,0.0,0.0,0.0,0.0,0.0,0.0817395567731092,-0.05022701909311349,0.0010236227807041373,0.0,0.0,0.0,0.0,0.0,0.0,0.0,0.0,0.0
6.02,175,6,20000000,base_footprint,-0.003821922813743147,0.0004962064268232524,0.9913878443315175,0.13090182885236795,0.0,0.0,0.0,0.0,0.0,0.0,0.0,0.0,0.0,-0.0001428541099868795,-5.9770236144974145e-05,0.011999823045118265,0.0,0.0,0.0,0.0,0.0,0.0,0.0,0.0,0.0,0.002602431828838013,0.001565166044256841,-0.0005973514381775856,0.0,0.0,0.0,0.0,0.0,0.0,0.0,0.0,0.0
6.054,176,6,54000000,base_footprint,-0.003822448285135947,0.0004950329929646758,0.9914146965345211,0.1306982912160946,0.0,0.0,0.0,0.0,0.0,0.0,0.0,0.0,0.0,-0.00016676567261796998,-4.826405043976346e-05,0.011721494056844672,0.0,0.0,0.0,0.0,0.0,0.0,0.0,0.0,0.0,0.002823485709119402,0.0012802231016034418,-1.1738815866542069e-05,0.0,0.0,0.0,0.0,0.0,0.0,0.0,0.0,0.0
6.089,177,6,88000000,base_footprint,-0.0038238238889074885,0.0004917281519043768,0.9914995921703623,0.1300526635647907,0.0,0.0,0.0,0.0,0.0,0.0,0.0,0.0,0.0,-0.0009277292812668793,-0.00046008830947046585,0.0682480998094841,0.0,0.0,0.0,0.0,0.0,0.0,0.0,0.0,0.0,-0.00949512848386631,0.014526488778012051,0.0007453890964458851,0.0,0.0,0.0,0.0,0.0,0.0,0.0,0.0,0.0
6.122,178,6,122000000,base_footprint,-0.003824844211784051,0.000487591837356687,0.9916507734507302,0.12889482664375856,0.0,0.0,0.0,0.0,0.0,0.0,0.0,0.0,0.0,-0.000681480776519803,0.00013977406981249328,0.06894013132228562,0.0,0.0,0.0,0.0,0.0,0.0,0.0,0.0,0.0,0.00708101795508827,0.01377938242537931,-0.0009269009849535486,0.0,0.0,0.0,0.0,0.0,0.0,0.0,0.0,0.0
6.156,179,6,156000000,base_footprint,-0.003826904491002317,0.0004829397538047294,0.9918006293398682,0.12773657742499772,0.0,0.0,0.0,0.0,0.0,0.0,0.0,0.0,0.0,-0.000677234938580306,0.00021022930330504344,0.06939842218213732,0.0,0.0,0.0,0.0,0.0,0.0,0.0,0.0,0.0,0.007053311073094408,0.013412237734244397,-1.6374302332045496e-05,0.0,0.0,0.0,0.0,0.0,0.0,0.0,0.0,0.0
6.19,180,6,190000000,base_footprint,-0.003820309055160642,0.00048335663428060536,0.9919320113008375,0.1267124956812172,0.0,0.0,0.0,0.0,0.0,0.0,0.0,0.0,0.0,-0.0004543854766731366,0.00012738427277708605,0.04487751331992781,0.0,0.0,0.0,0.0,0.0,0.0,0.0,0.0,0.0,-0.004828105395344726,0.0180736011417968,-3.0913788600838995e-05,0.0,0.0,0.0,0.0,0.0,0.0,0.0,0.0,0.0
6.223,181,6,224000000,base_footprint,-0.003825251354859569,0.00047900906668541237,0.9920134816598033,0.12607295589293271,0.0,0.0,0.0,0.0,0.0,0.0,0.0,0.0,0.0,-0.00030822743243141804,0.00015355403052909789,0.03802461168227638,0.0,0.0,0.0,0.0,0.0,0.0,0.0,0.0,0.0,0.02038884105356053,-0.0020132628364314996,2.16991580400674e-05,0.0,0.0,0.0,0.0,0.0,0.0,0.0,0.0,0.0
6.258,182,6,258000000,base_footprint,-0.0038258953475104446,0.00047712662741003465,0.9920944624828473,0.12543409578675782,0.0,0.0,0.0,0.0,0.0,0.0,0.0,0.0,0.0,-0.00029540833582062135,-4.4976949715379165e-05,0.038113447786200995,0.0,0.0,0.0,0.0,0.0,0.0,0.0,0.0,0.0,0.004116888367837751,0.007247425990365763,0.0002823396424697584,0.0,0.0,0.0,0.0,0.0,0.0,0.0,0.0,0.0
6.295,183,6,292000000,base_footprint,-0.003828909231184949,0.00046844291398028887,0.9922180866154141,0.12445235477315215,0.0,0.0,0.0,0.0,0.0,0.0,0.0,0.0,0.0,-0.000937011527228348,-0.0002832381139233878,0.10337699327321687,0.0,0.0,0.0,0.0,0.0,0.0,0.0,0.0,0.0,-0.34077187600701425,0.1997767003734189,-0.002100652031190921,0.0,0.0,0.0,0.0,0.0,0.0,0.0,0.0,0.0
6.327,184,6,326000000,base_footprint,-0.0038255511155694424,0.0004705954113584519,0.9923964885173086,0.12302175936449798,0.0,0.0,0.0,0.0,0.0,0.0,0.0,0.0,0.0,0.00047482361252953337,0.0027766804611893793,0.012898008780283582,0.0,0.0,0.0,0.0,0.0,0.0,0.0,0.0,0.0,0.0327122195441021,0.0030590990335297033,-0.004089097533174808,0.0,0.0,0.0,0.0,0.0,0.0,0.0,0.0,0.0
6.36,185,6,360000000,base_footprint,-0.0038252461370803176,0.000465903358797907,0.9924140091629711,0.12288036801348493,0.0,0.0,0.0,0.0,0.0,0.0,0.0,0.0,0.0,-0.0014689667745600718,-0.0009644829019395559,-0.0030719119497613053,0.0,0.0,0.0,0.0,0.0,0.0,0.0,0.0,0.0,-0.028449012904675067,0.01757144084139215,0.005639889471394456,0.0,0.0,0.0,0.0,0.0,0.0,0.0,0.0,0.0
6.394,186,6,394000000,base_footprint,-0.0038218818466003216,0.00046213857612641677,0.9924549180074307,0.12254964451172973,0.0,0.0,0.0,0.0,0.0,0.0,0.0,0.0,0.0,-0.0004706198079460777,-0.00035948081442618537,0.038295801387666084,0.0,0.0,0.0,0.0,0.0,0.0,0.0,0.0,0.0,-0.04351322050078321,0.02770433762863321,-0.0020799649381095424,0.0,0.0,0.0,0.0,0.0,0.0,0.0,0.0,0.0
6.428,187,6,428000000,base_footprint,-0.0038225429525196876,0.0004585715259438035,0.9925773857654597,0.1215537376823002,0.0,0.0,0.0,0.0,0.0,0.0,0.0,0.0,0.0,0.00010019977388046078,0.00010960843384668815,0.08362025322692582,0.0,0.0,0.0,0.0,0.0,0.0,0.0,0.0,0.0,0.08979043179906072,-0.03493879471199739,-0.0005634042963804408,0.0,0.0,0.0,0.0,0.0,0.0,0.0,0.0,0.0
6.457,188,6,462000000,base_footprint,-0.0038264604849324096,0.00045540132673090397,0.9927522748754755,0.12011690779968306,0.0,0.0,0.0,0.0,0.0,0.0,0.0,0.0,0.0,-0.0006197650807199429,-3.1659932397983925e-05,0.08483445705626867,0.0,0.0,0.0,0.0,0.0,0.0,0.0,0.0,0.0,0.012024103431536341,0.013749844176719794,0.0009152707451364235,0.0,0.0,0.0,0.0,0.0,0.0,0.0,0.0,0.0
6.496,189,6,496000000,base_footprint,-0.0038276852433811433,0.00045153746344105426,0.9928679527615748,0.1191569272792654,0.0,0.0,0.0,0.0,0.0,0.0,0.0,0.0,0.0,0.00038363812674853674,0.0010915308929787496,0.037446236802199794,0.0,0.0,0.0,0.0,0.0,0.0,0.0,0.0,0.0,0.32097083932256865,-0.15239837291239763,0.0007662804759805229,0.0,0.0,0.0,0.0,0.0,0.0,0.0,0.0,0.0
6.531,190,6,530000000,base_footprint,-0.003828020407060365,0.00044842854304584024,0.9929433379629454,0.1185270971829179,0.0,0.0,0.0,0.0,0.0,0.0,0.0,0.0,0.0,-0.0003694590687084231,-1.2675968836375997e-05,0.037129222951923904,0.0,0.0,0.0,0.0,0.0,0.0,0.0,0.0,0.0,0.00435172540558999,0.006979490260327472,0.0017310324653993004,0.0,0.0,0.0,0.0,0.0,0.0,0.0,0.0,0.0
6.564,191,6,564000000,base_footprint,-0.003829141147475014,0.0004454992148265147,0.9930183387132613,0.11789706606899628,0.0,0.0,0.0,0.0,0.0,0.0,0.0,0.0,0.0,-0.0004189367898470541,8.459013550613527e-06,0.03730811994636172,0.0,0.0,0.0,0.0,0.0,0.0,0.0,0.0,0.0,0.004120255029646151,0.007012695478655279,1.347724113758865e-05,0.0,0.0,0.0,0.0,0.0,0.0,0.0,0.0,0.0
6.598,192,6,598000000,base_footprint,-0.003830049795532528,0.0004424518702214122,0.9931045438563596,0.11716868150985738,0.0,0.0,0.0,0.0,0.0,0.0,0.0,0.0,0.0,-0.0005043947462080946,3.2244746790547876e-05,0.04438538799817739,0.0,0.0,0.0,0.0,0.0,0.0,0.0,0.0,0.0,0.002508743165217979,0.009172973709814475,-5.8541738932288914e-05,0.0,0.0,0.0,0.0,0.0,0.0,0.0,0.0,0.0
6.64,193,6,632000000,base_footprint,-0.0038307786650549312,0.00044000982841411996,0.9931914341232703,0.11642983599718758,0.0,0.0,0.0,0.0,0.0,0.0,0.0,0.0,0.0,-0.0004739293588191684,9.09881209921704e-05,0.04307731372867088,0.0,0.0,0.0,0.0,0.0,0.0,0.0,0.0,0.0,0.008454866360633027,0.007422896239272771,-5.53832339962574e-05,0.0,0.0,0.0,0.0,0.0,0.0,0.0,0.0,0.0
6.666,194,6,666000000,base_footprint,-0.0038312058023224245,0.0004377532686493708,0.993281723952638,0.11565702354743365,0.0,0.0,0.0,0.0,0.0,0.0,0.0,0.0,0.0,-0.0004476471589036075,-0.00037635025990563956,0.050702884567848515,0.0,0.0,0.0,0.0,0.0,0.0,0.0,0.0,0.0,-0.012811648683273967,0.017041773790407513,0.0006801897131579171,0.0,0.0,0.0,0.0,0.0,0.0,0.0,0.0,0.0
6.7,195,6,700000000,base_footprint,-0.00383167174472747,0.00043484466368122157,0.9933864082081693,0.1147544037892744,0.0,0.0,0.0,0.0,0.0,0.0,0.0,0.0,0.0,-0.0004507602729569261,-0.0001509155734042461,0.05431684752306799,0.0,0.0,0.0,0.0,0.0,0.0,0.0,0.0,0.0,0.012746110071392763,0.006517018172005307,-0.00040021273923569213,0.0,0.0,0.0,0.0,0.0,0.0,0.0,0.0,0.0
6.734,196,6,734000000,base_footprint,-0.0038315376772068343,0.00043224776973316487,0.9934914772143142,0.11384119282322082,0.0,0.0,0.0,0.0,0.0,0.0,0.0,0.0,0.0,-0.0004228593593815559,1.5534178303786006e-05,0.054304073649814724,0.0,0.0,0.0,0.0,0.0,0.0,0.0,0.0,0.0,0.0052230550002493135,0.010675961347243723,-0.00023205600734504868,0.0,0.0,0.0,0.0,0.0,0.0,0.0,0.0,0.0
6.771,197,6,768000000,base_footprint,-0.0038318162956949083,0.0004296239885558352,0.9935952574474946,0.1129318245002342,0.0,0.0,0.0,0.0,0.0,0.0,0.0,0.0,0.0,-0.0003501878316508523,-1.4195944438399863e-05,0.053835299025138054,0.0,0.0,0.0,0.0,0.0,0.0,0.0,0.0,0.0,0.005116736673547514,0.010693124020660624,9.093801572789812e-06,0.0,0.0,0.0,0.0,0.0,0.0,0.0,0.0,0.0
6.801,198,6,802000000,base_footprint,-0.00383320126503931,0.00042699618653631386,0.9937144484153139,0.1118781446618014,0.0,0.0,0.0,0.0,0.0,0.0,0.0,0.0,0.0,-0.00025162684763598735,0.00010202166927500403,0.0611424659797347,0.0,0.0,0.0,0.0,0.0,0.0,0.0,0.0,0.0,-0.0004926388037972517,0.016209736484599353,-0.0003105203252539772,0.0,0.0,0.0,0.0,0.0,0.0,0.0,0.0,0.0
6.836,199,6,836000000,base_footprint,-0.003828242183963932,0.00041867860061014123,0.993810663397498,0.11102042419048576,0.0,0.0,0.0,0.0,0.0,0.0,0.0,0.0,0.0,-0.0009531254398052596,-0.00036187476578307794,0.03997661628659799,0.0,0.0,0.0,0.0,0.0,0.0,0.0,0.0,0.0,-0.034329619010370536,0.028415954043831446,0.001303473559662052,0.0,0.0,0.0,0.0,0.0,0.0,0.0,0.0,0.0
6.871,200,6,870000000,base_footprint,-0.0038274937011899927,0.0004148198600094367,0.9938951729066512,0.11026134177176111,0.0,0.0,0.0,0.0,0.0,0.0,0.0,0.0,0.0,-0.000520830639733526,-5.041176640664349e-05,0.05715359617378499,0.0,0.0,0.0,0.0,0.0,0.0,0.0,0.0,0.0,0.03726428124437959,-0.007623062793338353,-0.0004477625294381051,0.0,0.0,0.0,0.0,0.0,0.0,0.0,0.0,0.0
6.9030000000000005,201,6,904000000,base_footprint,-0.0038313617632009735,0.00041396194095409173,0.9940092241937764,0.10922825422132301,0.0,0.0,0.0,0.0,0.0,0.0,0.0,0.0,0.0,-0.00039367480894717904,-7.903907747042476e-05,0.061081767829095336,0.0,0.0,0.0,0.0,0.0,0.0,0.0,0.0,0.0,0.01651416987900442,0.00735634121699025,-0.00019061117903366285,0.0,0.0,0.0,0.0,0.0,0.0,0.0,0.0,0.0
6.938,202,6,938000000,base_footprint,-0.0038315828786724937,0.0004095040673886643,0.9941221995721554,0.108195210600481,0.0,0.0,0.0,0.0,0.0,0.0,0.0,0.0,0.0,-0.00042348446301938234,-6.772362085194955e-05,0.06092076239761324,0.0,0.0,0.0,0.0,0.0,0.0,0.0,0.0,0.0,0.006695304178928382,0.011625339961105064,4.331856472981975e-05,0.0,0.0,0.0,0.0,0.0,0.0,0.0,0.0,0.0
6.973,203,6,972000000,base_footprint,-0.003831391278430283,0.0004049497745871587,0.9942359782892146,0.10714464957168891,0.0,0.0,0.0,0.0,0.0,0.0,0.0,0.0,0.0,-0.0012328458925363632,-0.0012410434674060009,0.08655368059003268,0.0,0.0,0.0,0.0,0.0,0.0,0.0,0.0,0.0,-0.00036944055385376446,0.01486032760586074,0.004003678120717418,0.0,0.0,0.0,0.0,0.0,0.0,0.0,0.0,0.0
7.006,204,7,6000000,base_footprint,-0.003833551607652488,0.0003952481940449517,0.9944994907965942,0.1046704851725244,0.0,0.0,0.0,0.0,0.0,0.0,0.0,0.0,0.0,-0.0012477641981892313,0.0001262246114941083,0.15011530167426937,0.0,0.0,0.0,0.0,0.0,0.0,0.0,0.0,0.0,-0.0003310182974377235,0.034478589340716556,-0.004184319243061635,0.0,0.0,0.0,0.0,0.0,0.0,0.0,0.0,0.0
7.04,205,7,40000000,base_footprint,-0.003835325298588054,0.0003851409154790643,0.9947636524213525,0.1021294167596199,0.0,0.0,0.0,0.0,0.0,0.0,0.0,0.0,0.0,-0.0012621769301493836,0.00015910351717986465,0.15022613868805176,0.0,0.0,0.0,0.0,0.0,0.0,0.0,0.0,0.0,0.013909354002849228,0.029761315615529336,-6.601166903630463e-06,0.0,0.0,0.0,0.0,0.0,0.0,0.0,0.0,0.0
7.072,206,7,74000000,base_footprint,-0.00383779997972649,0.00037871299690174726,0.9950190354526769,0.09961047612880031,0.0,0.0,0.0,0.0,0.0,0.0,0.0,0.0,0.0,-0.00032215815248106425,-0.0014382220324128442,0.12892073518564998,0.0,0.0,0.0,0.0,0.0,0.0,0.0,0.0,0.0,-0.0544890810968121,0.05839892326061774,0.0013107906247618684,0.0,0.0,0.0,0.0,0.0,0.0,0.0,0.0,0.0
7.108,207,7,108000000,base_footprint,-0.0038387462411900767,0.00036962698945012694,0.9951481568413544,0.09831212203202373,0.0,0.0,0.0,0.0,0.0,0.0,0.0,0.0,0.0,-0.000606568692875102,-1.1580855469387244e-05,0.06889938553692622,0.0,0.0,0.0,0.0,0.0,0.0,0.0,0.0,0.0,-0.2211762865760131,0.1112748371924929,-0.003697921560218881,0.0,0.0,0.0,0.0,0.0,0.0,0.0,0.0,0.0
7.142,208,7,142000000,base_footprint,-0.003840351542599724,0.00036548212739675865,0.995260813855863,0.0971649655267217,0.0,0.0,0.0,0.0,0.0,0.0,0.0,0.0,0.0,-0.0006068065535287548,0.00011934177824311044,0.06939036586060059,0.0,0.0,0.0,0.0,0.0,0.0,0.0,0.0,0.0,0.004709051654781219,0.01269850473269262,-0.00022783477778686448,0.0,0.0,0.0,0.0,0.0,0.0,0.0,0.0,0.0
7.176,209,7,176000000,base_footprint,-0.0038449405123814713,0.000360640107041054,0.9953870914061536,0.09586252987047321,0.0,0.0,0.0,0.0,0.0,0.0,0.0,0.0,0.0,-0.0014155721726108435,0.002384185548692858,0.10547939713294609,0.0,0.0,0.0,0.0,0.0,0.0,0.0,0.0,0.0,0.013396244557720188,0.01095581718259403,-0.0008451422882086919,0.0,0.0,0.0,0.0,0.0,0.0,0.0,0.0,0.0
7.21,210,7,210000000,base_footprint,-0.0038402171053294617,0.00035534554919325367,0.9955699026158085,0.09394517266828831,0.0,0.0,0.0,0.0,0.0,0.0,0.0,0.0,0.0,-0.0007531242562335121,-0.0005075854415916428,0.11336640558219807,0.0,0.0,0.0,0.0,0.0,0.0,0.0,0.0,0.0,-0.014190422699381419,0.031583862883455736,0.0016951076329610507,0.0,0.0,0.0,0.0,0.0,0.0,0.0,0.0,0.0
7.244,211,7,244000000,base_footprint,-0.003840633892692951,0.000349120567480905,0.9957473982178531,0.09204480750432427,0.0,0.0,0.0,0.0,0.0,0.0,0.0,0.0,0.0,-0.0007787179169482432,7.943683921905963e-05,0.11219302217482514,0.0,0.0,0.0,0.0,0.0,0.0,0.0,0.0,0.0,0.009558366987701659,0.021254683178268036,-0.0007907206634276472,0.0,0.0,0.0,0.0,0.0,0.0,0.0,0.0,0.0
7.2780000000000005,212,7,278000000,base_footprint,-0.00383564947834098,0.0003453344164855236,0.9959094667410742,0.0902745955002267,0.0,0.0,0.0,0.0,0.0,0.0,0.0,0.0,0.0,-0.00029594282442347946,0.0009252463824066105,0.06185957124072838,0.0,0.0,0.0,0.0,0.0,0.0,0.0,0.0,0.0,0.06700983444475336,-0.0004749332264537033,-0.00012151086994768986,0.0,0.0,0.0,0.0,0.0,0.0,0.0,0.0,0.0
7.312,213,7,312000000,base_footprint,-0.003835981371250279,0.0003377393165041228,0.9959080192446841,0.09029057748848313,0.0,0.0,0.0,0.0,0.0,0.0,0.0,0.0,0.0,-3.339116709997589e-06,-0.00022299452548898364,-0.012431893801753286,0.0,0.0,0.0,0.0,0.0,0.0,0.0,0.0,0.0,0.07226648618943077,-0.027395999760265667,0.0017529111084008818,0.0,0.0,0.0,0.0,0.0,0.0,0.0,0.0,0.0
7.348,214,7,346000000,base_footprint,-0.0038350118664624436,0.0003377585002687384,0.9959075685049779,0.09029559013419436,0.0,0.0,0.0,0.0,0.0,0.0,0.0,0.0,0.0,-0.0001423536434606789,-0.00017874319265595473,0.018537056649224233,0.0,0.0,0.0,0.0,0.0,0.0,0.0,0.0,0.0,0.0612419071140269,-0.023787972475122376,0.00045020577762955663,0.0,0.0,0.0,0.0,0.0,0.0,0.0,0.0,0.0
7.38,215,7,380000000,base_footprint,-0.003835253468073751,0.00033515756557133444,0.9959901338809859,0.08938026466719388,0.0,0.0,0.0,0.0,0.0,0.0,0.0,0.0,0.0,0.00045506879562630105,0.00047920640962551843,0.09315550350506503,0.0,0.0,0.0,0.0,0.0,0.0,0.0,0.0,0.0,0.13436790940799578,-0.039055997858802295,-0.0004473599790641978,0.0,0.0,0.0,0.0,0.0,0.0,0.0,0.0,0.0
7.413,216,7,414000000,base_footprint,-0.0038389088345310613,0.00033071229140911514,0.9961305251832369,0.08780165264110518,0.0,0.0,0.0,0.0,0.0,0.0,0.0,0.0,0.0,-0.0006419906939047257,-2.3091983185936392e-05,0.0930107566486089,0.0,0.0,0.0,0.0,0.0,0.0,0.0,0.0,0.0,0.008691678436041298,0.01863912808568405,0.0014389703368916024,0.0,0.0,0.0,0.0,0.0,0.0,0.0,0.0,0.0
7.451,217,7,448000000,base_footprint,-0.0038395916546891833,0.000324400631768712,0.9962682318928426,0.08622506840394203,0.0,0.0,0.0,0.0,0.0,0.0,0.0,0.0,0.0,-0.0006695549894904341,-3.872766700338946e-05,0.09291891784316486,0.0,0.0,0.0,0.0,0.0,0.0,0.0,0.0,0.0,0.008204590842085076,0.01871446053402247,4.373348485011941e-05,0.0,0.0,0.0,0.0,0.0,0.0,0.0,0.0,0.0
7.479,218,7,482000000,base_footprint,-0.00384093765056139,0.000317596230125586,0.9964149555456918,0.08451261855768062,0.0,0.0,0.0,0.0,0.0,0.0,0.0,0.0,0.0,-0.0009621143204251546,-4.9656087565181316e-05,0.1167197632842911,0.0,0.0,0.0,0.0,0.0,0.0,0.0,0.0,0.0,0.0026411551651800017,0.02222263177723853,-0.00010259623852217021,0.0,0.0,0.0,0.0,0.0,0.0,0.0,0.0,0.0
7.516,219,7,516000000,base_footprint,-0.0038417691205844128,0.0003097022052721529,0.9965807798178885,0.0825342001362925,0.0,0.0,0.0,0.0,0.0,0.0,0.0,0.0,0.0,-0.0009750839009473073,5.97859706419466e-05,0.11664585392303956,0.0,0.0,0.0,0.0,0.0,0.0,0.0,0.0,0.0,0.009569440899447187,0.023784868885787253,-4.797339722022021e-05,0.0,0.0,0.0,0.0,0.0,0.0,0.0,0.0,0.0
7.55,220,7,550000000,base_footprint,-0.003843205351827349,0.0003018755815385073,0.9967427336347895,0.08055471178028213,0.0,0.0,0.0,0.0,0.0,0.0,0.0,0.0,0.0,-0.0009725823814673329,6.621594644585778e-05,0.11688010953564212,0.0,0.0,0.0,0.0,0.0,0.0,0.0,0.0,0.0,0.008528206839177804,0.024087722732019343,-4.869592010387777e-05,0.0,0.0,0.0,0.0,0.0,0.0,0.0,0.0,0.0
7.584,221,7,584000000,base_footprint,-0.003843930382088476,0.00029503154178700617,0.9968726174321686,0.07893112041231953,0.0,0.0,0.0,0.0,0.0,0.0,0.0,0.0,0.0,0.000397123955096184,-0.0005354889564182099,0.04802707525484297,0.0,0.0,0.0,0.0,0.0,0.0,0.0,0.0,0.0,0.03142647310856063,0.013077379288549079,0.002019351263204753,0.0,0.0,0.0,0.0,0.0,0.0,0.0,0.0,0.0
7.618,222,7,618000000,base_footprint,-0.003845681415433289,0.00029252624478567864,0.9969394919247095,0.07808184554522994,0.0,0.0,0.0,0.0,0.0,0.0,0.0,0.0,0.0,-0.0004441470519941042,4.7475288792431526e-05,0.04973554115190697,0.0,0.0,0.0,0.0,0.0,0.0,0.0,0.0,0.0,0.00014831526886566226,0.011688656673363954,-0.002016005982593815,0.0,0.0,0.0,0.0,0.0,0.0,0.0,0.0,0.0
7.652,223,7,652000000,base_footprint,-0.00384634414596062,0.00029001888041256936,0.997007986728678,0.0772023051792387,0.0,0.0,0.0,0.0,0.0,0.0,0.0,0.0,0.0,-0.00032199622523554133,-0.00038414690534728843,0.05701625519311323,0.0,0.0,0.0,0.0,0.0,0.0,0.0,0.0,0.0,-0.014653734346170288,0.01618652555189703,0.0006011605345454753,0.0,0.0,0.0,0.0,0.0,0.0,0.0,0.0,0.0
7.686,224,7,686000000,base_footprint,-0.0038472036703011882,0.0002815220753793977,0.9970714699694181,0.07637803049479705,0.0,0.0,0.0,0.0,0.0,0.0,0.0,0.0,0.0,-0.00019078337675385804,0.0005715752603409168,0.033509383638497925,0.0,0.0,0.0,0.0,0.0,0.0,0.0,0.0,0.0,-0.15089759413438567,0.05853362898655084,-0.002352723946417912,0.0,0.0,0.0,0.0,0.0,0.0,0.0,0.0,0.0
7.72,225,7,720000000,base_footprint,-0.003847033739638772,0.0002800177218824324,0.9971234759871093,0.07569607358949662,0.0,0.0,0.0,0.0,0.0,0.0,0.0,0.0,0.0,0.00032991572015352336,0.00026753758922890876,0.06362980488687468,0.0,0.0,0.0,0.0,0.0,0.0,0.0,0.0,0.0,-0.36778870833907557,0.12327866891326779,-0.002987278567090088,0.0,0.0,0.0,0.0,0.0,0.0,0.0,0.0,0.0
7.754,226,7,754000000,base_footprint,-0.0038479326239063303,0.0002803807337859286,0.9972467123434746,0.07405477379141187,0.0,0.0,0.0,0.0,0.0,0.0,0.0,0.0,0.0,-0.0009518470485973109,-0.0004415331455489339,0.094708554696587,0.0,0.0,0.0,0.0,0.0,0.0,0.0,0.0,0.0,-0.15839671598119417,0.06961009605276955,0.00015346238697110679,0.0,0.0,0.0,0.0,0.0,0.0,0.0,0.0,0.0
7.788,227,7,788000000,base_footprint,-0.0038356794934820892,0.0002734504078731517,0.9973192449089179,0.07307213232145197,0.0,0.0,0.0,0.0,0.0,0.0,0.0,0.0,0.0,-1.814589163518437e-05,-0.000399508724910285,-0.014009013914997493,0.0,0.0,0.0,0.0,0.0,0.0,0.0,0.0,0.0,0.15074458438477895,-0.03225091391788072,0.0010030306336450189,0.0,0.0,0.0,0.0,0.0,0.0,0.0,0.0,0.0
7.821,228,7,822000000,base_footprint,-0.0038402338198705592,0.00027308213091504314,0.997285492804954,0.07353110818652595,0.0,0.0,0.0,0.0,0.0,0.0,0.0,0.0,0.0,4.484830599599703e-05,-0.0002373028886967867,-0.007381540293067033,0.0,0.0,0.0,0.0,0.0,0.0,0.0,0.0,0.0,0.12176457044160799,-0.04315455449545471,0.0007862822768947965,0.0,0.0,0.0,0.0,0.0,0.0,0.0,0.0,0.0
7.857,229,7,856000000,base_footprint,-0.003844682526465417,0.00027442929365833953,0.9973163809502436,0.07311073377515957,0.0,0.0,0.0,0.0,0.0,0.0,0.0,0.0,0.0,-0.00020133898625422457,-0.00012060797003144046,0.043568392216293515,0.0,0.0,0.0,0.0,0.0,0.0,0.0,0.0,0.0,0.10457089165224363,-0.026984144933528853,0.0005808114621586258,0.0,0.0,0.0,0.0,0.0,0.0,0.0,0.0,0.0
7.891,230,7,890000000,base_footprint,-0.0038441243529044257,0.0002693237085753037,0.9974105408230266,0.07181478418694166,0.0,0.0,0.0,0.0,0.0,0.0,0.0,0.0,0.0,-0.0008594474491603514,-0.0006589097795700284,0.10583585974055211,0.0,0.0,0.0,0.0,0.0,0.0,0.0,0.0,0.0,-0.008990423068188029,0.018542161373481594,0.0007315436016446829,0.0,0.0,0.0,0.0,0.0,0.0,0.0,0.0,0.0
7.924,231,7,924000000,base_footprint,-0.003843526175592963,0.0002634237335009398,0.9975122185509028,0.07038843481801553,0.0,0.0,0.0,0.0,0.0,0.0,0.0,0.0,0.0,0.0005509524263910617,0.002199812381611453,0.04081051037558481,0.0,0.0,0.0,0.0,0.0,0.0,0.0,0.0,0.0,0.3495228844602249,-0.08212045860013814,-0.0005047450040601639,0.0,0.0,0.0,0.0,0.0,0.0,0.0,0.0,0.0
7.959,232,7,958000000,base_footprint,-0.003844551329766576,0.0002607081587941232,0.9975605504440257,0.06970006925492485,0.0,0.0,0.0,0.0,0.0,0.0,0.0,0.0,0.0,-0.00029396866211902365,-0.0001285639882018785,0.04044481978719606,0.0,0.0,0.0,0.0,0.0,0.0,0.0,0.0,0.0,0.0027062250846472628,0.008339825882219244,0.0026009325417549016,0.0,0.0,0.0,0.0,0.0,0.0,0.0,0.0,0.0
7.992,233,7,992000000,base_footprint,-0.0038452478657565866,0.0002575465763087179,0.9976138057200962,0.06893360845972239,0.0,0.0,0.0,0.0,0.0,0.0,0.0,0.0,0.0,-0.00042586525638016226,-2.7255783601021665e-05,0.047666145839305514,0.0,0.0,0.0,0.0,0.0,0.0,0.0,0.0,0.0,0.0020592737618871045,0.009640138281395837,-0.00020812476171118633,0.0,0.0,0.0,0.0,0.0,0.0,0.0,0.0,0.0
8.018,234,8,26000000,base_footprint,-0.003846186150115381,0.0002542418441481388,0.99766936446716,0.06812474893074143,0.0,0.0,0.0,0.0,0.0,0.0,0.0,0.0,0.0,-0.00044166674135430245,-3.114242249671122e-05,0.047559949412022524,0.0,0.0,0.0,0.0,0.0,0.0,0.0,0.0,0.0,0.004159424427164304,0.009696693299675235,-4.153424595346071e-05,0.0,0.0,0.0,0.0,0.0,0.0,0.0,0.0,0.0
8.063,235,8,60000000,base_footprint,-0.003847390681335615,0.00025090007609694225,0.9977243119051922,0.06731516966782441,0.0,0.0,0.0,0.0,0.0,0.0,0.0,0.0,0.0,-0.0004362468246682065,-1.206809512410787e-05,0.04786135560471585,0.0,0.0,0.0,0.0,0.0,0.0,0.0,0.0,0.0,0.002905132560271134,0.010036607064054695,-8.784737205501508e-05,0.0,0.0,0.0,0.0,0.0,0.0,0.0,0.0,0.0
8.093,236,8,94000000,base_footprint,-0.0038483509389922754,0.0002477587103072382,0.9977791453743267,0.06649741248161743,0.0,0.0,0.0,0.0,0.0,0.0,0.0,0.0,0.0,-0.0004320530591200367,-4.015527117320134e-05,0.048189692307208584,0.0,0.0,0.0,0.0,0.0,0.0,0.0,0.0,0.0,0.0032427448939848216,0.010234534391062316,-2.2748651586397976e-05,0.0,0.0,0.0,0.0,0.0,0.0,0.0,0.0,0.0
8.13,237,8,128000000,base_footprint,-0.0038494396259705138,0.00024536421962957736,0.997832066070208,0.06569847435843473,0.0,0.0,0.0,0.0,0.0,0.0,0.0,0.0,0.0,-0.00042272111275111046,7.945553347146685e-05,0.046717217068727855,0.0,0.0,0.0,0.0,0.0,0.0,0.0,0.0,0.0,0.006597934059413425,0.0094414306175198,-0.00019896737166590647,0.0,0.0,0.0,0.0,0.0,0.0,0.0,0.0,0.0
8.159,238,8,162000000,base_footprint,-0.0038489161526706808,0.00024362226534556007,0.9978871881374676,0.0648558882734645,0.0,0.0,0.0,0.0,0.0,0.0,0.0,0.0,0.0,-0.00023016046404148943,-0.00041387689846675757,0.05313416175278564,0.0,0.0,0.0,0.0,0.0,0.0,0.0,0.0,0.0,-0.014989480598405476,0.014912849232763672,0.0006633676567324947,0.0,0.0,0.0,0.0,0.0,0.0,0.0,0.0,0.0
8.197,239,8,196000000,base_footprint,-0.0038496686694035995,0.00024118377821408008,0.997934280025602,0.06412717545085303,0.0,0.0,0.0,0.0,0.0,0.0,0.0,0.0,0.0,-9.93529351276462e-05,-0.0003886972777390336,0.041693667160364926,0.0,0.0,0.0,0.0,0.0,0.0,0.0,0.0,0.0,0.009515962973624432,0.007583477094565207,-1.6213742479009165e-05,0.0,0.0,0.0,0.0,0.0,0.0,0.0,0.0,0.0
8.235,240,8,230000000,base_footprint,-0.003850041736741624,0.00023851343516741766,0.9979712307253024,0.06354953134832826,0.0,0.0,0.0,0.0,0.0,0.0,0.0,0.0,0.0,-0.0008323284847262743,-0.0005485938190545104,0.022486858643488827,0.0,0.0,0.0,0.0,0.0,0.0,0.0,0.0,0.0,-0.032993507968561646,0.0161668201896839,0.00038214588987056273,0.0,0.0,0.0,0.0,0.0,0.0,0.0,0.0,0.0
8.258,241,8,264000000,base_footprint,-0.0038437159174997586,0.00023321306113480134,0.9979911509071948,0.06323633584061081,0.0,0.0,0.0,0.0,0.0,0.0,0.0,0.0,0.0,-0.0002669046276333861,-0.00014458025675597754,0.023645217782150257,0.0,0.0,0.0,0.0,0.0,0.0,0.0,0.0,0.0,0.0038085399280637705,0.0031704261381555487,-0.0007405021954441512,0.0,0.0,0.0,0.0,0.0,0.0,0.0,0.0,0.0
8.298,242,8,298000000,base_footprint,-0.0038469206359156554,0.00023374188691341745,0.998034950385398,0.06254106151615585,0.0,0.0,0.0,0.0,0.0,0.0,0.0,0.0,0.0,-0.0004663453811552056,-0.0005493508647095935,0.04631636232749231,0.0,0.0,0.0,0.0,0.0,0.0,0.0,0.0,0.0,0.03263407404651754,0.0005588675452129601,0.0008239046455344316,0.0,0.0,0.0,0.0,0.0,0.0,0.0,0.0,0.0
8.332,243,8,332000000,base_footprint,-0.0038465771850443352,0.00023064639647636575,0.9980842300521472,0.061749658844498484,0.0,0.0,0.0,0.0,0.0,0.0,0.0,0.0,0.0,-0.0002800842401870545,-0.00012879415030506993,0.046553982140969785,0.0,0.0,0.0,0.0,0.0,0.0,0.0,0.0,0.0,0.00462246829692298,0.009362293645534783,-0.0005184652237791069,0.0,0.0,0.0,0.0,0.0,0.0,0.0,0.0,0.0
8.363,244,8,366000000,base_footprint,-0.0038464256391911806,0.00022749834007492183,0.9981327889502714,0.06095973159931579,0.0,0.0,0.0,0.0,0.0,0.0,0.0,0.0,0.0,-0.00028253348121598043,-0.00011884524193118977,0.04644737162308834,0.0,0.0,0.0,0.0,0.0,0.0,0.0,0.0,0.0,0.003691397460966607,0.009590406464402,2.5570698457038663e-05,0.0,0.0,0.0,0.0,0.0,0.0,0.0,0.0,0.0
8.404,245,8,400000000,base_footprint,-0.003846355913543773,0.00022344242706739443,0.9981953573436346,0.05992648994628072,0.0,0.0,0.0,0.0,0.0,0.0,0.0,0.0,0.0,-0.0011246357637286707,-0.001228856861102308,0.09769370879628118,0.0,0.0,0.0,0.0,0.0,0.0,0.0,0.0,0.0,-0.6685667586937776,0.1766077409776174,-0.004032425032973978,0.0,0.0,0.0,0.0,0.0,0.0,0.0,0.0,0.0
8.434,246,8,434000000,base_footprint,-0.003846658743279418,0.0002192780053834436,0.9982573343940988,0.05888505295962306,0.0,0.0,0.0,0.0,0.0,0.0,0.0,0.0,0.0,-0.00033493146583801704,-0.00029281015754487424,0.03776241822934331,0.0,0.0,0.0,0.0,0.0,0.0,0.0,0.0,0.0,0.3487288810860354,-0.07059414515789399,0.0017529071833354054,0.0,0.0,0.0,0.0,0.0,0.0,0.0,0.0,0.0
8.468,247,8,468000000,base_footprint,-0.003847644499130121,0.00021665436106844876,0.9982950114213794,0.058242758038094845,0.0,0.0,0.0,0.0,0.0,0.0,0.0,0.0,0.0,-0.0003782666519151775,-7.53667793486349e-05,0.037738647331740226,0.0,0.0,0.0,0.0,0.0,0.0,0.0,0.0,0.0,0.0030019033181445274,0.007342847871280053,-0.00035235813734226456,0.0,0.0,0.0,0.0,0.0,0.0,0.0,0.0,0.0
8.502,248,8,502000000,base_footprint,-0.0038484467367731648,0.00021392032499011307,0.9983339702539802,0.0575710650651336,0.0,0.0,0.0,0.0,0.0,0.0,0.0,0.0,0.0,-0.0003864920001730005,-6.712406218721952e-05,0.0395894446745697,0.0,0.0,0.0,0.0,0.0,0.0,0.0,0.0,0.0,0.002684431599922584,0.0078018587467797796,-6.438564999775283e-05,0.0,0.0,0.0,0.0,0.0,0.0,0.0,0.0,0.0
8.54,249,8,536000000,base_footprint,-0.0038496846658614904,0.00021101294375612135,0.9983725263577005,0.056898453543603886,0.0,0.0,0.0,0.0,0.0,0.0,0.0,0.0,0.0,-0.00037107705205476234,-4.8635610092940697e-05,0.03967820207780839,0.0,0.0,0.0,0.0,0.0,0.0,0.0,0.0,0.0,0.002490743388867816,0.007864000172890184,-0.0001380180882789357,0.0,0.0,0.0,0.0,0.0,0.0,0.0,0.0,0.0
8.57,250,8,570000000,base_footprint,-0.00385049990431469,0.00020843921632969018,0.9984108837662379,0.05622132496392906,0.0,0.0,0.0,0.0,0.0,0.0,0.0,0.0,0.0,-0.0003669110482550457,-6.236810411330288e-05,0.039849473852394623,0.0,0.0,0.0,0.0,0.0,0.0,0.0,0.0,0.0,0.0023122855611224335,0.007864893709716277,-2.124985699630787e-05,0.0,0.0,0.0,0.0,0.0,0.0,0.0,0.0,0.0
8.604,251,8,604000000,base_footprint,-0.0038515227120128922,0.00020177962835586348,0.9985027161512876,0.05456602327714338,0.0,0.0,0.0,0.0,0.0,0.0,0.0,0.0,0.0,-0.001410505323352889,-0.0008887574698141943,0.10580992865328338,0.0,0.0,0.0,0.0,0.0,0.0,0.0,0.0,0.0,-0.0038032846510797956,0.02161665926935238,-0.004322930429149426,0.0,0.0,0.0,0.0,0.0,0.0,0.0,0.0,0.0
8.638,252,8,638000000,base_footprint,-0.0038487185290573644,0.00019752920863094165,0.9986239069404844,0.052301441995593605,0.0,0.0,0.0,0.0,0.0,0.0,0.0,0.0,0.0,0.00029172855712542944,-0.0032167871060861824,0.13915145891153688,0.0,0.0,0.0,0.0,0.0,0.0,0.0,0.0,0.0,0.10522726944926404,0.0059018392001939654,0.01015014674669063,0.0,0.0,0.0,0.0,0.0,0.0,0.0,0.0,0.0
8.672,253,8,672000000,base_footprint,-0.003847186862954004,0.0001917396617533506,0.9987358502337729,0.05011849805178224,0.0,0.0,0.0,0.0,0.0,0.0,0.0,0.0,0.0,-0.0005380947941387072,9.6054096379726e-05,0.11094548410563439,0.0,0.0,0.0,0.0,0.0,0.0,0.0,0.0,0.0,0.07168243418098745,0.01471801499646422,-0.004747716925712661,0.0,0.0,0.0,0.0,0.0,0.0,0.0,0.0,0.0
8.706,254,8,706000000,base_footprint,-0.0038506073278316696,0.0001823737485531099,0.9987916839353896,0.0489929756652064,0.0,0.0,0.0,0.0,0.0,0.0,0.0,0.0,0.0,-0.001996044946144133,0.001519339252304119,0.015038988405922875,0.0,0.0,0.0,0.0,0.0,0.0,0.0,0.0,0.0,0.11109683621857235,-0.008672066040304845,-0.0008339840878204545,0.0,0.0,0.0,0.0,0.0,0.0,0.0,0.0,0.0
8.741,255,8,740000000,base_footprint,-0.003847004803881967,0.00017712448587727152,0.9988045794540512,0.04872967517408212,0.0,0.0,0.0,0.0,0.0,0.0,0.0,0.0,0.0,-0.00023491605473899833,-0.00013216892674753795,0.020852163243819687,0.0,0.0,0.0,0.0,0.0,0.0,0.0,0.0,0.0,0.0016189339466172667,0.003331682845975353,0.0022077201094703176,0.0,0.0,0.0,0.0,0.0,0.0,0.0,0.0,0.0
8.774000000000001,256,8,774000000,base_footprint,-0.0038511130411721275,0.00018060120469153308,0.9988343745893062,0.048114742546734444,0.0,0.0,0.0,0.0,0.0,0.0,0.0,0.0,0.0,-0.001156439712860407,0.0005386179863645269,0.02776353639787127,0.0,0.0,0.0,0.0,0.0,0.0,0.0,0.0,0.0,0.06260408414080265,-0.004762083528458873,-0.0002708028950699148,0.0,0.0,0.0,0.0,0.0,0.0,0.0,0.0,0.0
8.809,257,8,808000000,base_footprint,-0.003849676648876273,0.0001760950673201889,0.998857512314451,0.04763212228331621,0.0,0.0,0.0,0.0,0.0,0.0,0.0,0.0,0.0,-0.00011774113986658737,-0.00010650402573839131,0.02866225263616653,0.0,0.0,0.0,0.0,0.0,0.0,0.0,0.0,0.0,0.0026382350901394277,0.0061583370060694755,0.0007789835306380443,0.0,0.0,0.0,0.0,0.0,0.0,0.0,0.0,0.0
8.846,258,8,842000000,base_footprint,-0.003849283406004373,0.00017419915545929308,0.998880574477037,0.04714605608467205,0.0,0.0,0.0,0.0,0.0,0.0,0.0,0.0,0.0,-0.00013697652297482656,-0.0001367074243817313,0.02854430825766788,0.0,0.0,0.0,0.0,0.0,0.0,0.0,0.0,0.0,0.00232221469160996,0.005947281019960697,8.015011058649758e-05,0.0,0.0,0.0,0.0,0.0,0.0,0.0,0.0,0.0
8.878,259,8,876000000,base_footprint,-0.0038491738328330903,0.00017225798634800627,0.9989049456272582,0.04662685695385526,0.0,0.0,0.0,0.0,0.0,0.0,0.0,0.0,0.0,1.576405809150576e-05,-0.0001154892020042554,0.040418518669580565,0.0,0.0,0.0,0.0,0.0,0.0,0.0,0.0,0.0,-0.0005631940140645502,0.006713158417223532,2.954194285407461e-05,0.0,0.0,0.0,0.0,0.0,0.0,0.0,0.0,0.0
8.91,260,8,910000000,base_footprint,-0.0038494665332690927,0.00016944648857143417,0.9989366385684582,0.04594284515402394,0.0,0.0,0.0,0.0,0.0,0.0,0.0,0.0,0.0,-0.0002899306473091262,-0.00014653863301137095,0.0401491867689188,0.0,0.0,0.0,0.0,0.0,0.0,0.0,0.0,0.0,0.0029538014282242423,0.008528810334600762,6.570202818144018e-05,0.0,0.0,0.0,0.0,0.0,0.0,0.0,0.0,0.0
8.944,261,8,944000000,base_footprint,-0.00385000581711181,0.00016668571615442677,0.9989677801765269,0.045260621297795525,0.0,0.0,0.0,0.0,0.0,0.0,0.0,0.0,0.0,-0.0003443995398184006,-0.00011682447838218516,0.04006186783250292,0.0,0.0,0.0,0.0,0.0,0.0,0.0,0.0,0.0,0.00291160464515582,0.008437990219832804,-9.298135491909293e-05,0.0,0.0,0.0,0.0,0.0,0.0,0.0,0.0,0.0
8.978,262,8,978000000,base_footprint,-0.003850741573606102,0.00016415958273777794,0.9989968514720466,0.044614298043366994,0.0,0.0,0.0,0.0,0.0,0.0,0.0,0.0,0.0,-0.0002938789305426245,-0.00015176619388439073,0.031138825453996658,0.0,0.0,0.0,0.0,0.0,0.0,0.0,0.0,0.0,0.005352811481182147,0.007635815310895247,-5.643351108398707e-05,0.0,0.0,0.0,0.0,0.0,0.0,0.0,0.0,0.0
9.012,263,9,12000000,base_footprint,-0.0038519601358049755,0.00016176182285356657,0.9990204157241583,0.044083389190880555,0.0,0.0,0.0,0.0,0.0,0.0,0.0,0.0,0.0,-0.0002935714291588204,-6.154601695620041e-05,0.03128069213443544,0.0,0.0,0.0,0.0,0.0,0.0,0.0,0.0,0.0,0.0019014506225141746,0.006548596615222979,-0.00021107542454910862,0.0,0.0,0.0,0.0,0.0,0.0,0.0,0.0,0.0
9.046,264,9,46000000,base_footprint,-0.0038526802560380343,0.0001598873553501384,0.9990437614668413,0.043551050102882224,0.0,0.0,0.0,0.0,0.0,0.0,0.0,0.0,0.0,-0.00027852221656111465,-7.852925112334871e-05,0.03118007715895755,0.0,0.0,0.0,0.0,0.0,0.0,0.0,0.0,0.0,0.0024388225412159004,0.00637802596794614,-8.112667157825261e-06,0.0,0.0,0.0,0.0,0.0,0.0,0.0,0.0,0.0
9.08,265,9,80000000,base_footprint,-0.0038454714194269325,0.0001596174993485082,0.9990627936780334,0.0431128885608436,0.0,0.0,0.0,0.0,0.0,0.0,0.0,0.0,0.0,0.0002709613082168543,0.000714001896410735,-0.0015112141027460741,0.0,0.0,0.0,0.0,0.0,0.0,0.0,0.0,0.0,-0.10421442839430121,0.026395191040257806,-0.0010935797446733507,0.0,0.0,0.0,0.0,0.0,0.0,0.0,0.0,0.0
9.114,266,9,114000000,base_footprint,-0.003851359432952992,0.00016544217503519377,0.99903377543813,0.04377962075259659,0.0,0.0,0.0,0.0,0.0,0.0,0.0,0.0,0.0,-0.0006434233984874886,0.000856898948569214,-0.02971910500709664,0.0,0.0,0.0,0.0,0.0,0.0,0.0,0.0,0.0,-0.13975621639485675,0.014314234712108615,-0.002727236793545366,0.0,0.0,0.0,0.0,0.0,0.0,0.0,0.0,0.0
9.148,267,9,148000000,base_footprint,-0.003857038561023839,0.00016027222905236455,0.9990315291886782,0.04383036907536462,0.0,0.0,0.0,0.0,0.0,0.0,0.0,0.0,0.0,0.0004088609636995864,0.0002532743085414218,0.013154827703495577,0.0,0.0,0.0,0.0,0.0,0.0,0.0,0.0,0.0,-0.05858788718292042,0.009427339998285843,0.0009925913768587214,0.0,0.0,0.0,0.0,0.0,0.0,0.0,0.0,0.0
9.182,268,9,182000000,base_footprint,-0.0038534744287963543,0.00015830499733048898,0.9990486831538363,0.04343793690934378,0.0,0.0,0.0,0.0,0.0,0.0,0.0,0.0,0.0,-0.0010729645725048342,-0.0012313070762373552,0.011967919867041857,0.0,0.0,0.0,0.0,0.0,0.0,0.0,0.0,0.0,-0.08594626384926388,0.020231406684419407,0.0018368634865758135,0.0,0.0,0.0,0.0,0.0,0.0,0.0,0.0,0.0
9.216,269,9,216000000,base_footprint,-0.0038481148505403054,0.00015582674078411222,0.9990574969899003,0.04323523376135839,0.0,0.0,0.0,0.0,0.0,0.0,0.0,0.0,0.0,-0.00023356662220693305,-0.00012372683558390247,0.018845422703574748,0.0,0.0,0.0,0.0,0.0,0.0,0.0,0.0,0.0,0.013585411532089213,3.9932576091949e-05,-0.0016862982497009413,0.0,0.0,0.0,0.0,0.0,0.0,0.0,0.0,0.0
9.25,270,9,250000000,base_footprint,-0.00385092645219208,0.0001569996127780562,0.9990795702155543,0.04272186904250497,0.0,0.0,0.0,0.0,0.0,0.0,0.0,0.0,0.0,-0.0002274827381205895,-0.00016845387335738508,0.03288821089962581,0.0,0.0,0.0,0.0,0.0,0.0,0.0,0.0,0.0,0.030686268802212636,0.0008761201570494552,0.00022679013814719742,0.0,0.0,0.0,0.0,0.0,0.0,0.0,0.0,0.0
9.28,271,9,284000000,base_footprint,-0.0038464399931608263,0.00015295242149629797,0.9991214655708549,0.041731026113467996,0.0,0.0,0.0,0.0,0.0,0.0,0.0,0.0,0.0,-0.0005137943411436357,0.0021059918323878203,0.11398544672003696,0.0,0.0,0.0,0.0,0.0,0.0,0.0,0.0,0.0,-0.017121631574738252,0.014243062276412602,-0.002624343236857907,0.0,0.0,0.0,0.0,0.0,0.0,0.0,0.0,0.0
9.318,272,9,318000000,base_footprint,-0.0038439461825694812,0.00014644486751093648,0.999193543307766,0.03996830799168117,0.0,0.0,0.0,0.0,0.0,0.0,0.0,0.0,0.0,0.0002393482003760136,2.0979446608693326e-05,0.06667484268639629,0.0,0.0,0.0,0.0,0.0,0.0,0.0,0.0,0.0,0.2782219923301079,-0.02245385031706602,0.004280754407530309,0.0,0.0,0.0,0.0,0.0,0.0,0.0,0.0,0.0
9.352,273,9,352000000,base_footprint,-0.003850319657169552,0.00014406734184430422,0.9992189391166736,0.03932767465396633,0.0,0.0,0.0,0.0,0.0,0.0,0.0,0.0,0.0,-0.00024673536348682277,-0.0002292262138620845,0.03550580446008756,0.0,0.0,0.0,0.0,0.0,0.0,0.0,0.0,0.0,0.08486266926443348,-0.004977402695462889,0.001287937567393044,0.0,0.0,0.0,0.0,0.0,0.0,0.0,0.0,0.0
9.386,274,9,386000000,base_footprint,-0.0038504824654061708,0.00014158574741220844,0.9992438285369424,0.03869011332489701,0.0,0.0,0.0,0.0,0.0,0.0,0.0,0.0,0.0,-0.00027584533175034533,-0.00015178784043592082,0.0397535582460252,0.0,0.0,0.0,0.0,0.0,0.0,0.0,0.0,0.0,0.0014962154766813938,0.008065697941800256,-5.537237553920386e-05,0.0,0.0,0.0,0.0,0.0,0.0,0.0,0.0,0.0
9.42,275,9,420000000,base_footprint,-0.00385091417426029,0.00013889769984309428,0.9992697445457488,0.03801484976855119,0.0,0.0,0.0,0.0,0.0,0.0,0.0,0.0,0.0,-0.0002954973514951051,-0.00015021282088719998,0.039643386121858616,0.0,0.0,0.0,0.0,0.0,0.0,0.0,0.0,0.0,0.0026941130520998354,0.008425863493949665,-3.4818328797679504e-06,0.0,0.0,0.0,0.0,0.0,0.0,0.0,0.0,0.0
9.454,276,9,454000000,base_footprint,-0.0038516211130625536,0.00013621333390935028,0.9992951428751783,0.037341182182761876,0.0,0.0,0.0,0.0,0.0,0.0,0.0,0.0,0.0,-0.00035709107476089824,-9.751398629840276e-05,0.03957862554644421,0.0,0.0,0.0,0.0,0.0,0.0,0.0,0.0,0.0,0.002597018145993121,0.008398961625447243,-0.0002227929638978277,0.0,0.0,0.0,0.0,0.0,0.0,0.0,0.0,0.0
9.488,277,9,488000000,base_footprint,-0.003852662440458524,0.0001337607907638188,0.9993171734279895,0.036746782064073336,0.0,0.0,0.0,0.0,0.0,0.0,0.0,0.0,0.0,-0.0002788166560521486,-4.740925781647983e-05,0.03079879465546911,0.0,0.0,0.0,0.0,0.0,0.0,0.0,0.0,0.0,0.004755257699520349,0.007188111256035896,-0.0001533889009003082,0.0,0.0,0.0,0.0,0.0,0.0,0.0,0.0,0.0
9.522,278,9,522000000,base_footprint,-0.0038536922666974746,0.00013171030671372443,0.9993363483146255,0.036221466639249696,0.0,0.0,0.0,0.0,0.0,0.0,0.0,0.0,0.0,-0.0002658089031786012,-7.731942636747791e-05,0.03092191052694353,0.0,0.0,0.0,0.0,0.0,0.0,0.0,0.0,0.0,0.0017309299958593119,0.0064574168903747614,-2.9147277707386127e-06,0.0,0.0,0.0,0.0,0.0,0.0,0.0,0.0,0.0
9.556000000000001,279,9,556000000,base_footprint,-0.0038544712700949017,0.0001301971252729315,0.9993550926790922,0.03570048790002679,0.0,0.0,0.0,0.0,0.0,0.0,0.0,0.0,0.0,-0.0002633312978545243,-5.84782332248582e-05,0.03030484550496758,0.0,0.0,0.0,0.0,0.0,0.0,0.0,0.0,0.0,0.0026077832631890984,0.006483042347205165,-7.344762815491177e-05,0.0,0.0,0.0,0.0,0.0,0.0,0.0,0.0,0.0
9.59,280,9,590000000,base_footprint,-0.003855757729026241,0.00012860122272724076,0.9993757618520928,0.035116993274052336,0.0,0.0,0.0,0.0,0.0,0.0,0.0,0.0,0.0,-0.00038808854602940537,9.443814416338763e-05,0.03904422655043767,0.0,0.0,0.0,0.0,0.0,0.0,0.0,0.0,0.0,-0.006412934128057784,0.009130478666967904,-0.000443342930385603,0.0,0.0,0.0,0.0,0.0,0.0,0.0,0.0,0.0
9.632,281,9,624000000,base_footprint,-0.0038561135497002775,0.00012740166375325675,0.9993994833456132,0.03443525585252924,0.0,0.0,0.0,0.0,0.0,0.0,0.0,0.0,0.0,-7.923973192949338e-05,-0.00013538112732257635,0.039984044344315406,0.0,0.0,0.0,0.0,0.0,0.0,0.0,0.0,0.0,-0.010893361866001221,0.010644111277879557,0.00038198602818713997,0.0,0.0,0.0,0.0,0.0,0.0,0.0,0.0,0.0
9.658,282,9,658000000,base_footprint,-0.003851008284388537,0.00012100029817394857,0.9994153301070446,0.03397282798279237,0.0,0.0,0.0,0.0,0.0,0.0,0.0,0.0,0.0,-0.0007407956936661743,-0.0010008886281157822,0.0176373184991575,0.0,0.0,0.0,0.0,0.0,0.0,0.0,0.0,0.0,-0.041645729409771584,0.011469150275474058,0.0016339006581153111,0.0,0.0,0.0,0.0,0.0,0.0,0.0,0.0,0.0
9.694,283,9,692000000,base_footprint,-0.0038493576487651335,0.00011890700379633632,0.9994254011868768,0.033675447573366706,0.0,0.0,0.0,0.0,0.0,0.0,0.0,0.0,0.0,-0.0002470996183279336,-0.00017529861857076322,0.027092533334679317,0.0,0.0,0.0,0.0,0.0,0.0,0.0,0.0,0.0,0.04001089019103824,-0.0022021564456667555,-0.0013764191567029677,0.0,0.0,0.0,0.0,0.0,0.0,0.0,0.0,0.0
9.726,284,9,726000000,base_footprint,-0.003852818733375106,0.00012011593484058467,0.9994433955974529,0.033136691998502006,0.0,0.0,0.0,0.0,0.0,0.0,0.0,0.0,0.0,-0.00020207279875237758,-1.3431918103764145e-05,0.03181812871342611,0.0,0.0,0.0,0.0,0.0,0.0,0.0,0.0,0.0,0.012621615553666912,0.005546457195873005,-0.0001715909251064989,0.0,0.0,0.0,0.0,0.0,0.0,0.0,0.0,0.0
9.761,285,9,760000000,base_footprint,-0.0038519730795028096,0.00011799278677652227,0.9994611364485187,0.03259731752970713,0.0,0.0,0.0,0.0,0.0,0.0,0.0,0.0,0.0,-0.00018880155242984706,-0.00011744730942254561,0.03168723667442533,0.0,0.0,0.0,0.0,0.0,0.0,0.0,0.0,0.0,0.001681180765484156,0.006786150249230871,0.000258266488553397,0.0,0.0,0.0,0.0,0.0,0.0,0.0,0.0,0.0
9.794,286,9,794000000,base_footprint,-0.0038570291271998666,0.00011409678446979235,0.9994825501835293,0.031933402369064404,0.0,0.0,0.0,0.0,0.0,0.0,0.0,0.0,0.0,-0.0014471935786689815,-0.0030965963676613134,0.06853913044466836,0.0,0.0,0.0,0.0,0.0,0.0,0.0,0.0,0.0,-0.5929260361931943,0.08455803148084881,-0.0010870267813877887,0.0,0.0,0.0,0.0,0.0,0.0,0.0,0.0,0.0
9.823,287,9,828000000,base_footprint,-0.0038521680425658727,0.0001108186114272599,0.9995211462568376,0.030702226401756353,0.0,0.0,0.0,0.0,0.0,0.0,0.0,0.0,0.0,-2.4834228680674223e-07,0.0017168681404739759,0.024799298212078602,0.0,0.0,0.0,0.0,0.0,0.0,0.0,0.0,0.0,0.26335813863954843,-0.017565724531875958,-0.0037837896298712256,0.0,0.0,0.0,0.0,0.0,0.0,0.0,0.0,0.0
9.862,288,9,862000000,base_footprint,-0.0038515783546991473,0.00010921082783490027,0.9995339429607131,0.030282838152704376,0.0,0.0,0.0,0.0,0.0,0.0,0.0,0.0,0.0,-0.0001626852298372944,-0.00019458428027935602,0.02460119267181509,0.0,0.0,0.0,0.0,0.0,0.0,0.0,0.0,0.0,0.0007506845232023267,0.004983017863804798,0.0025550468852046327,0.0,0.0,0.0,0.0,0.0,0.0,0.0,0.0,0.0
9.896,289,9,896000000,base_footprint,-0.003851854622831363,0.00010763040317528364,0.9995459589490499,0.029883567060934476,0.0,0.0,0.0,0.0,0.0,0.0,0.0,0.0,0.0,-0.00015880459420418837,-0.00016594435668075336,0.023068296725336293,0.0,0.0,0.0,0.0,0.0,0.0,0.0,0.0,0.0,0.002244922728585783,0.00467755670879891,-3.4841741061849933e-05,0.0,0.0,0.0,0.0,0.0,0.0,0.0,0.0,0.0
9.928,290,9,930000000,base_footprint,-0.003852442858395296,0.00010605394587129867,0.9995575966313912,0.029491667519157445,0.0,0.0,0.0,0.0,0.0,0.0,0.0,0.0,0.0,-0.00021168566929637448,-0.0001145257761993369,0.0230033746922463,0.0,0.0,0.0,0.0,0.0,0.0,0.0,0.0,0.0,0.0018011555925955616,0.0046110419202465445,-0.00020501316767222938,0.0,0.0,0.0,0.0,0.0,0.0,0.0,0.0,0.0
9.964,291,9,964000000,base_footprint,-0.0038532855869205128,0.00010445857598602988,0.9995690270922376,0.02910156965644573,0.0,0.0,0.0,0.0,0.0,0.0,0.0,0.0,0.0,-0.00020295675909281032,-8.819986464210855e-05,0.022909170150680357,0.0,0.0,0.0,0.0,0.0,0.0,0.0,0.0,0.0,0.0018209971877694929,0.004604119400162192,-0.0001467541155906314,0.0,0.0,0.0,0.0,0.0,0.0,0.0,0.0,0.0
9.998,292,9,998000000,base_footprint,-0.0038538322851157146,9.837468039057373e-05,0.9996192249368447,0.027322947055584575,0.0,0.0,0.0,0.0,0.0,0.0,0.0,0.0,0.0,-0.001466709850003822,3.738144785171956e-05,0.18242398541934418,0.0,0.0,0.0,0.0,0.0,0.0,0.0,0.0,0.0,0.19304941810363335,-0.0011319805124551507,0.0014719818192524175,0.0,0.0,0.0,0.0,0.0,0.0,0.0,0.0,0.0
10.032,293,10,32000000,base_footprint,-0.00385567450307066,8.356084942879188e-05,0.9997147314262204,0.02357079890692872,0.0,0.0,0.0,0.0,0.0,0.0,0.0,0.0,0.0,-0.00175137363341337,2.309998015173826e-05,0.22783824134682998,0.0,0.0,0.0,0.0,0.0,0.0,0.0,0.0,0.0,0.09939325709346104,0.037903439151964244,0.0005873542354355444,0.0,0.0,0.0,0.0,0.0,0.0,0.0,0.0,0.0
10.066,294,10,66000000,base_footprint,-0.003857054387657574,6.894860188593232e-05,0.9997985257148654,0.019698384601856928,0.0,0.0,0.0,0.0,0.0,0.0,0.0,0.0,0.0,-0.001740042522205495,4.887134915120655e-05,0.22782930201246857,0.0,0.0,0.0,0.0,0.0,0.0,0.0,0.0,0.0,0.002286753141460412,0.0496512657188272,-0.00015618682194742744,0.0,0.0,0.0,0.0,0.0,0.0,0.0,0.0,0.0
10.1,295,10,100000000,base_footprint,-0.00384706670022105,5.582855236456103e-05,0.999862511936705,0.01612929584945735,0.0,0.0,0.0,0.0,0.0,0.0,0.0,0.0,0.0,-0.001399099510994567,-0.0003182268084612543,0.1877009023535027,0.0,0.0,0.0,0.0,0.0,0.0,0.0,0.0,0.0,-0.14916356245371368,0.06403984128469525,-0.00022408028119721063,0.0,0.0,0.0,0.0,0.0,0.0,0.0,0.0,0.0
10.134,296,10,134000000,base_footprint,-0.0038561946705267303,3.870176007169932e-05,0.9999062515946745,0.013138351750680219,0.0,0.0,0.0,0.0,0.0,0.0,0.0,0.0,0.0,-0.0016773338953073769,-0.0005122311567863668,0.18119404493028404,0.0,0.0,0.0,0.0,0.0,0.0,0.0,0.0,0.0,-0.08974154086124936,0.03396169950095304,-0.000322697882540257,0.0,0.0,0.0,0.0,0.0,0.0,0.0,0.0,0.0
10.171,297,10,168000000,base_footprint,-0.0038542958081014453,3.005859525844654e-05,0.9999484561942237,0.009393000324360258,0.0,0.0,0.0,0.0,0.0,0.0,0.0,0.0,0.0,-0.0020197823728663345,-0.002169559211232353,0.2453079680387316,0.0,0.0,0.0,0.0,0.0,0.0,0.0,0.0,0.0,-0.12058738034007774,0.050731638791830104,0.0010200714401074015,0.0,0.0,0.0,0.0,0.0,0.0,0.0,0.0,0.0
10.202,298,10,202000000,base_footprint,-0.00384499541541808,1.4736931109013009e-05,0.9999771820051112,0.005554391253331602,0.0,0.0,0.0,0.0,0.0,0.0,0.0,0.0,0.0,-0.0015565931366349874,-0.00018793606116225173,0.20797781429805562,0.0,0.0,0.0,0.0,0.0,0.0,0.0,0.0,0.0,0.2903145280006158,0.04027839581426126,-0.00034353612029380874,0.0,0.0,0.0,0.0,0.0,0.0,0.0,0.0,0.0
10.236,299,10,236000000,base_footprint,-0.00385425815958171,9.515174626266678e-07,0.9999900302584037,0.002254789775293032,0.0,0.0,0.0,0.0,0.0,0.0,0.0,0.0,0.0,-0.0014767458811755308,-5.143674657916913e-07,0.19206562533016688,0.0,0.0,0.0,0.0,0.0,0.0,0.0,0.0,0.0,0.08146423022008242,0.041072023353027225,0.00018230227995868516,0.0,0.0,0.0,0.0,0.0,0.0,0.0,0.0,0.0
10.27,300,10,270000000,base_footprint,-0.0038534689865467107,-1.1463328032667936e-05,0.9999920650725675,-0.0010101669484430449,0.0,0.0,0.0,0.0,0.0,0.0,0.0,0.0,0.0,-0.001464158144572506,-0.00011058778766428964,0.19204450202239431,0.0,0.0,0.0,0.0,0.0,0.0,0.0,0.0,0.0,0.0008741535356953801,0.04190131104760719,0.00019773180919825417,0.0,0.0,0.0,0.0,0.0,0.0,0.0,0.0,0.0
10.305,301,10,304000000,base_footprint,-0.003849574248868062,-2.366612328515788e-05,0.9999829444549456,-0.004392154054006477,0.0,0.0,0.0,0.0,0.0,0.0,0.0,0.0,0.0,-0.0014344890589979274,-0.0066371739149185234,0.2330075560988144,0.0,0.0,0.0,0.0,0.0,0.0,0.0,0.0,0.0,-0.6658099826192758,0.031406623844503045,0.003040904658939112,0.0,0.0,0.0,0.0,0.0,0.0,0.0,0.0,0.0
10.338,302,10,338000000,base_footprint,-0.003852370509109935,-3.7215855265172454e-05,0.9999623441417069,-0.0077761272535345335,0.0,0.0,0.0,0.0,0.0,0.0,0.0,0.0,0.0,-0.0013829160172157669,0.00010335414110649712,0.18241986921862086,0.0,0.0,0.0,0.0,0.0,0.0,0.0,0.0,0.0,0.3282768784261757,0.04958039272685384,-0.00567538191022976,0.0,0.0,0.0,0.0,0.0,0.0,0.0,0.0,0.0
10.372,303,10,372000000,base_footprint,-0.0038488244666005046,-4.8548355389689774e-05,0.9999334720919429,-0.0108736186908521,0.0,0.0,0.0,0.0,0.0,0.0,0.0,0.0,0.0,-0.000708098479694341,-0.004316184446920729,0.1790404883266356,0.0,0.0,0.0,0.0,0.0,0.0,0.0,0.0,0.0,0.0512812219329959,0.040053406466516936,0.00476094076882564,0.0,0.0,0.0,0.0,0.0,0.0,0.0,0.0,0.0
10.406,304,10,406000000,base_footprint,-0.0038531855346645863,-5.886072252258447e-05,0.9999020631850529,-0.01345412705920486,0.0,0.0,0.0,0.0,0.0,0.0,0.0,0.0,0.0,-0.0010198946295483897,-6.692853024561134e-05,0.14365266419633477,0.0,0.0,0.0,0.0,0.0,0.0,0.0,0.0,0.0,0.2985335846056481,0.04804493365937952,-0.001991951889182932,0.0,0.0,0.0,0.0,0.0,0.0,0.0,0.0,0.0
10.438,305,10,440000000,base_footprint,-0.0038535291309683994,-6.812615400977519e-05,0.9998662360094344,-0.01589514895778681,0.0,0.0,0.0,0.0,0.0,0.0,0.0,0.0,0.0,-0.0010626043477110249,-0.00014097776692464424,0.14360671342448492,0.0,0.0,0.0,0.0,0.0,0.0,0.0,0.0,0.0,-0.0005302062471505232,0.03144313622822873,-4.084512462842865e-05,0.0,0.0,0.0,0.0,0.0,0.0,0.0,0.0,0.0
10.474,306,10,474000000,base_footprint,-0.0038565843846108975,-7.804605798114041e-05,0.9998243275412483,-0.018342156972068722,0.0,0.0,0.0,0.0,0.0,0.0,0.0,0.0,0.0,-0.001195062653911901,-0.0023784613125856697,0.1496490391957493,0.0,0.0,0.0,0.0,0.0,0.0,0.0,0.0,0.0,-0.07745340578377628,0.026511640782781294,0.0014730374321303805,0.0,0.0,0.0,0.0,0.0,0.0,0.0,0.0,0.0
10.511,307,10,508000000,base_footprint,-0.003853507633615233,-8.872845131442574e-05,0.9997674875203854,-0.021215878566674135,0.0,0.0,0.0,0.0,0.0,0.0,0.0,0.0,0.0,-0.0016569213257740171,0.003435902648138074,0.16791306119798657,0.0,0.0,0.0,0.0,0.0,0.0,0.0,0.0,0.0,-0.4600826374000123,-0.0033986076865579933,-0.00877259501999036,0.0,0.0,0.0,0.0,0.0,0.0,0.0,0.0,0.0
10.542,308,10,542000000,base_footprint,-0.0038561026421595657,-9.76027029338956e-05,0.9997170249661105,-0.023473196182767306,0.0,0.0,0.0,0.0,0.0,0.0,0.0,0.0,0.0,-0.0007683909532747004,2.0324022427655724e-05,0.12332021760993227,0.0,0.0,0.0,0.0,0.0,0.0,0.0,0.0,0.0,0.19344552957016906,0.04545632959039703,0.004115394727751229,0.0,0.0,0.0,0.0,0.0,0.0,0.0,0.0,0.0
10.576,309,10,576000000,base_footprint,-0.00385998347892967,-0.00010682591980825245,0.9996654354229341,-0.0255755026625304,0.0,0.0,0.0,0.0,0.0,0.0,0.0,0.0,0.0,-0.0011306057597902522,0.000355975266935077,0.11262800913982757,0.0,0.0,0.0,0.0,0.0,0.0,0.0,0.0,0.0,0.022474968082810347,0.027529143040208436,0.000800805876310688,0.0,0.0,0.0,0.0,0.0,0.0,0.0,0.0,0.0
10.61,310,10,610000000,base_footprint,-0.003852017714725402,-0.00011774627232952944,0.9996227328424953,-0.027194486202949775,0.0,0.0,0.0,0.0,0.0,0.0,0.0,0.0,0.0,-0.0006835890227696055,-0.00025492405634357235,0.09951834236884631,0.0,0.0,0.0,0.0,0.0,0.0,0.0,0.0,0.0,0.10200306208078382,0.03040003034433476,0.0011366385676349123,0.0,0.0,0.0,0.0,0.0,0.0,0.0,0.0,0.0
10.644,311,10,644000000,base_footprint,-0.0038491429595341534,-0.00011716964288106285,0.9995580642307255,-0.029476203980105413,0.0,0.0,0.0,0.0,0.0,0.0,0.0,0.0,0.0,-0.0010584865475257881,-0.000994498057799714,0.15181122897970575,0.0,0.0,0.0,0.0,0.0,0.0,0.0,0.0,0.0,0.021892065986147805,0.03272488096949471,0.0011285968306071492,0.0,0.0,0.0,0.0,0.0,0.0,0.0,0.0,0.0
10.681000000000001,312,10,678000000,base_footprint,-0.003847396650167217,-0.00012691967981106537,0.9994829783740934,-0.03192111167962278,0.0,0.0,0.0,0.0,0.0,0.0,0.0,0.0,0.0,-0.0012986775207001517,-0.002930152260320159,0.11569823473494499,0.0,0.0,0.0,0.0,0.0,0.0,0.0,0.0,0.0,0.01990219118000256,0.033756814468228515,0.0016731114259186592,0.0,0.0,0.0,0.0,0.0,0.0,0.0,0.0,0.0
10.712,313,10,712000000,base_footprint,-0.0038465558621159327,-0.00013275811268391493,0.9994320753741407,-0.033477053284616864,0.0,0.0,0.0,0.0,0.0,0.0,0.0,0.0,0.0,-0.0004179655305090583,-0.00017440734968590457,0.05959717232011675,0.0,0.0,0.0,0.0,0.0,0.0,0.0,0.0,0.0,0.14984268504596682,0.04041239178349949,-0.0015582564143324347,0.0,0.0,0.0,0.0,0.0,0.0,0.0,0.0,0.0
10.747,314,10,746000000,base_footprint,-0.00385143154741504,-0.00013944796855067232,0.9994020551494991,-0.034361012677993394,0.0,0.0,0.0,0.0,0.0,0.0,0.0,0.0,0.0,-0.00042738665363723606,-0.00024345362001780324,0.05178037519312179,0.0,0.0,0.0,0.0,0.0,0.0,0.0,0.0,0.0,0.020037539300325074,0.014018493295806385,0.0002825756298022228,0.0,0.0,0.0,0.0,0.0,0.0,0.0,0.0,0.0
10.782,315,10,780000000,base_footprint,-0.003850642833448096,-0.00014269796169402377,0.9993708869403352,-0.03525595727176971,0.0,0.0,0.0,0.0,0.0,0.0,0.0,0.0,0.0,-0.00046653572388233745,-0.0002890408123568757,0.0550928159638622,0.0,0.0,0.0,0.0,0.0,0.0,0.0,0.0,0.0,-0.0014198191948562675,0.011402411987591047,5.294532234291496e-05,0.0,0.0,0.0,0.0,0.0,0.0,0.0,0.0,0.0
10.814,316,10,814000000,base_footprint,-0.0038503323629913246,-0.00014620323813261752,0.9993375080078356,-0.03618975896571774,0.0,0.0,0.0,0.0,0.0,0.0,0.0,0.0,0.0,-0.00045406932286149934,-0.00018572083023483672,0.05496158528159441,0.0,0.0,0.0,0.0,0.0,0.0,0.0,0.0,0.0,-0.00040203471233932273,0.012149841739413199,-9.474771554766312e-05,0.0,0.0,0.0,0.0,0.0,0.0,0.0,0.0,0.0
10.85,317,10,848000000,base_footprint,-0.0038501902559264704,-0.0001496862365165786,0.9993033331614971,-0.03712144880451032,0.0,0.0,0.0,0.0,0.0,0.0,0.0,0.0,0.0,-0.00039866954551721483,-0.0001958681796553629,0.05486549179955205,0.0,0.0,0.0,0.0,0.0,0.0,0.0,0.0,0.0,-0.00047766910485158955,0.012116350307195416,8.24195767511434e-05,0.0,0.0,0.0,0.0,0.0,0.0,0.0,0.0,0.0
10.882,318,10,882000000,base_footprint,-0.003850532259930466,-0.00015297471306026112,0.9992708351441915,-0.03798615577131642,0.0,0.0,0.0,0.0,0.0,0.0,0.0,0.0,0.0,-0.0003030909135433009,-0.00028648003217260056,0.04377980692639614,0.0,0.0,0.0,0.0,0.0,0.0,0.0,0.0,0.0,0.002649313955450239,0.011827408044011153,8.87804505753761e-05,0.0,0.0,0.0,0.0,0.0,0.0,0.0,0.0,0.0
10.914,319,10,916000000,base_footprint,-0.003850867260948904,-0.0001557673361358695,0.9992423631565069,-0.038727848265494615,0.0,0.0,0.0,0.0,0.0,0.0,0.0,0.0,0.0,-0.00028411000323396416,-0.00012544240665910894,0.04367616113536654,0.0,0.0,0.0,0.0,0.0,0.0,0.0,0.0,0.0,-0.000206289503850974,0.009665471429747833,-0.0003365590530587025,0.0,0.0,0.0,0.0,0.0,0.0,0.0,0.0,0.0
10.951,320,10,950000000,base_footprint,-0.0038516272805040855,-0.0001585433394244832,0.9992134168813616,-0.03946754813230738,0.0,0.0,0.0,0.0,0.0,0.0,0.0,0.0,0.0,-0.00027999066733659357,-0.00010688408207125133,0.04347719646717135,0.0,0.0,0.0,0.0,0.0,0.0,0.0,0.0,0.0,-0.0003532834660298346,0.009660641989164267,-9.078458817466447e-05,0.0,0.0,0.0,0.0,0.0,0.0,0.0,0.0,0.0
10.984,321,10,984000000,base_footprint,-0.0038528195172004977,-0.0001611156668098814,0.999186376525554,-0.040146167802715196,0.0,0.0,0.0,0.0,0.0,0.0,0.0,0.0,0.0,-0.00026083748698739473,-0.0001846658223827526,0.035087527983582195,0.0,0.0,0.0,0.0,0.0,0.0,0.0,0.0,0.0,0.0013017580617493613,0.009189581813903175,-4.9483329589358105e-06,0.0,0.0,0.0,0.0,0.0,0.0,0.0,0.0,0.0
11.019,322,11,18000000,base_footprint,-0.003853482736469235,-0.00016425422426267214,0.9991619671499969,-0.040749074741620664,0.0,0.0,0.0,0.0,0.0,0.0,0.0,0.0,0.0,-0.00023932457441924873,-3.2571461172616e-05,0.03626432953941199,0.0,0.0,0.0,0.0,0.0,0.0,0.0,0.0,0.0,0.0008024139352397834,0.008593174394888901,-0.00024186897558336077,0.0,0.0,0.0,0.0,0.0,0.0,0.0,0.0,0.0
11.052,323,11,52000000,base_footprint,-0.00385401024325695,-0.00016696825822349123,0.9991375077662111,-0.04134439866983283,0.0,0.0,0.0,0.0,0.0,0.0,0.0,0.0,0.0,-0.00031559791934818285,-0.0003411340692365399,0.03099245961480646,0.0,0.0,0.0,0.0,0.0,0.0,0.0,0.0,0.0,-0.011193658367964819,0.0053642027287491385,0.0003937356763986991,0.0,0.0,0.0,0.0,0.0,0.0,0.0,0.0,0.0
11.086,324,11,86000000,base_footprint,-0.0038518986064712325,-0.0001626590982532658,0.9991144460710167,-0.041898210837084324,0.0,0.0,0.0,0.0,0.0,0.0,0.0,0.0,0.0,-0.0002838634370132502,6.911045365891316e-05,0.028700444921827925,0.0,0.0,0.0,0.0,0.0,0.0,0.0,0.0,0.0,-0.11915314490798082,-0.013308278091099109,-0.0010361647628665343,0.0,0.0,0.0,0.0,0.0,0.0,0.0,0.0,0.0
11.12,325,11,120000000,base_footprint,-0.0038537655028826755,-0.00016934899947067348,0.9991054078951798,-0.042112987628184384,0.0,0.0,0.0,0.0,0.0,0.0,0.0,0.0,0.0,-0.001240789866874818,-8.827782520766228e-05,0.01747099610317478,0.0,0.0,0.0,0.0,0.0,0.0,0.0,0.0,0.0,-0.15566683013888163,-0.023541217232971826,-0.0026199617148267296,0.0,0.0,0.0,0.0,0.0,0.0,0.0,0.0,0.0
11.154,326,11,154000000,base_footprint,-0.0038474408756585155,-0.00016997649790571775,0.9990777511134543,-0.042764652889755915,0.0,0.0,0.0,0.0,0.0,0.0,0.0,0.0,0.0,2.2147775290873713e-05,-0.0005410167767924901,0.05046603162402303,0.0,0.0,0.0,0.0,0.0,0.0,0.0,0.0,0.0,-0.08470469589525825,-0.005949158646427109,0.001844538333856232,0.0,0.0,0.0,0.0,0.0,0.0,0.0,0.0,0.0
