Time,delta_position_x,delta_position_y,delta_yaw,linear_velocity_x,angular_velocity_yaw,linear_acceleration_x,angular_acceleration_yaw,kinematic_delta_x,kinematic_delta_y,kinematic_delta_yaw,header.seq_x,header.stamp.secs_x,header.stamp.nsecs_x,header.frame_id_x,child_frame_id,pose.pose.position.x,pose.pose.position.y,pose.pose.position.z,pose.pose.orientation.x,pose.pose.orientation.y,pose.pose.orientation.z,pose.pose.orientation.w,pose.covariance,twist.twist.linear.x,twist.twist.linear.y,twist.twist.linear.z,twist.twist.angular.x,twist.twist.angular.y,twist.twist.angular.z,twist.covariance,linear.x,linear.y,linear.z,angular.x,angular.y,angular.z,header.seq_y,header.stamp.secs_y,header.stamp.nsecs_y,header.frame_id_y,orientation.x,orientation.y,orientation.z,orientation.w,orientation_covariance_0,orientation_covariance_1,orientation_covariance_2,orientation_covariance_3,orientation_covariance_4,orientation_covariance_5,orientation_covariance_6,orientation_covariance_7,orientation_covariance_8,angular_velocity.x,angular_velocity.y,angular_velocity.z,angular_velocity_covariance_0,angular_velocity_covariance_1,angular_velocity_covariance_2,angular_velocity_covariance_3,angular_velocity_covariance_4,angular_velocity_covariance_5,angular_velocity_covariance_6,angular_velocity_covariance_7,angular_velocity_covariance_8,linear_acceleration.x,linear_acceleration.y,linear_acceleration.z,linear_acceleration_covariance_0,linear_acceleration_covariance_1,linear_acceleration_covariance_2,linear_acceleration_covariance_3,linear_acceleration_covariance_4,linear_acceleration_covariance_5,linear_acceleration_covariance_6,linear_acceleration_covariance_7,linear_acceleration_covariance_8
0.29000000000000004,6.705896249147884e-07,-1.1981419438529366e-06,-4.300765646281235e-06,-2.266295274419805e-05,-7.563286380515388e-05,-0.00018173867779978386,-0.0001580412120942739,-7.546763263718065e-07,3.843824726596869e-12,-2.5185743647116247e-06,4,0,286000000,odom,base_footprint,7.084972548819339e-06,-9.947565275685804e-06,-0.0007568766083373,-0.0017516309438087,0.0009546725190345,0.8660044476712427,0.5000323159587229,"(1e-05, 0.0, 0.0, 0.0, 0.0, 0.0, 0.0, 1e-05, 0.0, 0.0, 0.0, 0.0, 0.0, 0.0, 1000000000000.0, 0.0, 0.0, 0.0, 0.0, 0.0, 0.0, 1000000000000.0, 0.0, 0.0, 0.0, 0.0, 0.0, 0.0, 1000000000000.0, 0.0, 0.0, 0.0, 0.0, 0.0, 0.0, 0.001)",-4.190169750592188e-05,2.220219021629476e-06,0.0,0.0,0.0,-0.0001554610199406,"(0.0, 0.0, 0.0, 0.0, 0.0, 0.0, 0.0, 0.0, 0.0, 0.0, 0.0, 0.0, 0.0, 0.0, 0.0, 0.0, 0.0, 0.0, 0.0, 0.0, 0.0, 0.0, 0.0, 0.0, 0.0, 0.0, 0.0, 0.0, 0.0, 0.0, 0.0, 0.0, 0.0, 0.0, 0.0, 0.0)",,,,,,,1.0,0.0,272000000.0,base_footprint,-0.0013084027165663,0.0007041520868539,0.8660056829537324,0.5000319483233143,0.0,0.0,0.0,0.0,0.0,0.0,0.0,0.0,0.0,0.0589815403327273,-0.0333624622389045,2.645432770132147e-05,0.0,0.0,0.0,0.0,0.0,0.0,0.0,0.0,0.0,0.0001857113847162,0.0004338429165658,0.0006417380296913,0.0,0.0,0.0,0.0,0.0,0.0,0.0,0.0,0.0
0.324,8.38536872545953e-07,-1.482375697195273e-06,-4.759640726881287e-06,-4.3818853398142226e-05,-0.0003604603548558872,-0.0006353123319502755,-0.00855337810963163,-1.4591678180380204e-06,1.802704778683976e-11,-1.2003329816701045e-05,5,0,319000000,odom,base_footprint,7.8825100155765e-06,-1.1357988272288693e-05,-0.0009048031050742,-0.0027259671273945,0.0015053684834543,0.8660008719933183,0.5000327916004726,"(1e-05, 0.0, 0.0, 0.0, 0.0, 0.0, 0.0, 1e-05, 0.0, 0.0, 0.0, 0.0, 0.0, 0.0, 1000000000000.0, 0.0, 0.0, 0.0, 0.0, 0.0, 0.0, 1000000000000.0, 0.0, 0.0, 0.0, 0.0, 0.0, 0.0, 1000000000000.0, 0.0, 0.0, 0.0, 0.0, 0.0, 0.0, 0.001)",-5.12262667321195e-05,2.232182329724254e-06,0.0,0.0,0.0,-0.0001672625975484,"(0.0, 0.0, 0.0, 0.0, 0.0, 0.0, 0.0, 0.0, 0.0, 0.0, 0.0, 0.0, 0.0, 0.0, 0.0, 0.0, 0.0, 0.0, 0.0, 0.0, 0.0, 0.0, 0.0, 0.0, 0.0, 0.0, 0.0, 0.0, 0.0, 0.0, 0.0, 0.0, 0.0, 0.0, 0.0, 0.0)",,,,,,,2.0,0.0,306000000.0,base_footprint,-0.0023127407545116,0.0012718150654844,0.8660025328372248,0.5000326457704066,0.0,0.0,0.0,0.0,0.0,0.0,0.0,0.0,0.0,0.0589155386027405,-0.0333239794809313,0.000149314474201,0.0,0.0,0.0,0.0,0.0,0.0,0.0,0.0,0.0,0.0001410363244385,0.0002461240948572,0.0001502361120806,0.0,0.0,0.0,0.0,0.0,0.0,0.0,0.0,0.0
0.35800000000000004,-1.0852481609471484e-05,-2.2671196525081965e-06,-1.26853357995671e-05,0.00018321734311683,0.0003392518033105187,0.006817903799248414,0.02101237712211429,6.101137525265393e-06,-7.752991232929025e-11,1.1297085050240273e-05,6,0,353000000,odom,base_footprint,-1.380827874460002e-06,-1.3948446365305569e-05,-0.0010028671957279,-0.0034108464695458,0.0019603849943907,0.8659955964224688,0.5000361486871997,"(1e-05, 0.0, 0.0, 0.0, 0.0, 0.0, 0.0, 1e-05, 0.0, 0.0, 0.0, 0.0, 0.0, 0.0, 1000000000000.0, 0.0, 0.0, 0.0, 0.0, 0.0, 0.0, 1000000000000.0, 0.0, 0.0, 0.0, 0.0, 0.0, 0.0, 1000000000000.0, 0.0, 0.0, 0.0, 0.0, 0.0, 0.0, 0.001)",0.0002239958469735,0.0005286712865474,0.0,0.0,0.0,-0.0006771619893884,"(0.0, 0.0, 0.0, 0.0, 0.0, 0.0, 0.0, 0.0, 0.0, 0.0, 0.0, 0.0, 0.0, 0.0, 0.0, 0.0, 0.0, 0.0, 0.0, 0.0, 0.0, 0.0, 0.0, 0.0, 0.0, 0.0, 0.0, 0.0, 0.0, 0.0, 0.0, 0.0, 0.0, 0.0, 0.0, 0.0)",,,,,,,3.0,0.0,340000000.0,base_footprint,-0.0033055934156107,0.0018451495334501,0.8659979392500976,0.5000332365852836,0.0,0.0,0.0,0.0,0.0,0.0,0.0,0.0,0.0,0.0440092233665991,-0.0419160560380191,-0.0005252902936402,0.0,0.0,0.0,0.0,0.0,0.0,0.0,0.0,0.0,0.0095668706671673,-0.0130040625085058,0.0340544207807703,0.0,0.0,0.0,0.0,0.0,0.0,0.0,0.0,0.0
0.392,-2.026556687193333e-07,1.212040615375649e-06,-9.31558958638945e-06,4.523607776367118e-05,-0.0004184475477175114,-0.004143581542136902,-0.022753734265106008,1.5063613893698905e-06,-2.1128310204069686e-11,-1.393430333899313e-05,7,0,386000000,odom,base_footprint,-3.0544860277989007e-06,-1.2592902043932677e-05,-0.0010024866992136,-0.0033476597398308,0.0019245848284634,0.8659928329677156,0.5000415006737485,"(1e-05, 0.0, 0.0, 0.0, 0.0, 0.0, 0.0, 1e-05, 0.0, 0.0, 0.0, 0.0, 0.0, 0.0, 1000000000000.0, 0.0, 0.0, 0.0, 0.0, 0.0, 0.0, 1000000000000.0, 0.0, 0.0, 0.0, 0.0, 0.0, 0.0, 1000000000000.0, 0.0, 0.0, 0.0, 0.0, 0.0, 0.0, 0.001)",3.911443447979401e-07,4.383056355997416e-06,0.0,0.0,0.0,6.761584064561393e-05,"(0.0, 0.0, 0.0, 0.0, 0.0, 0.0, 0.0, 0.0, 0.0, 0.0, 0.0, 0.0, 0.0, 0.0, 0.0, 0.0, 0.0, 0.0, 0.0, 0.0, 0.0, 0.0, 0.0, 0.0, 0.0, 0.0, 0.0, 0.0, 0.0, 0.0, 0.0, 0.0, 0.0, 0.0, 0.0, 0.0)",,,,,,,4.0,0.0,374000000.0,base_footprint,-0.0033472323954623,0.0019238666404821,0.8659932234390798,0.5000408300629384,0.0,0.0,0.0,0.0,0.0,0.0,0.0,0.0,0.0,-0.0049674003468548,0.0026547606351993,-0.0002078650950451,0.0,0.0,0.0,0.0,0.0,0.0,0.0,0.0,0.0,-0.0112426731042864,0.0127338557895416,0.1038758374562782,0.0,0.0,0.0,0.0,0.0,0.0,0.0,0.0,0.0
0.42600000000000005,-3.353975545220332e-07,-2.8129266331110114e-07,6.5970137068660514e-06,-6.28026279640091e-06,4.786703186548435e-05,-0.0015470372540562186,0.014003440828318189,-2.0913275107747736e-07,4.2236958301021545e-12,1.5939721611206292e-06,8,0,419000000,odom,base_footprint,-3.322437157591857e-06,-1.2819006169383432e-05,-0.0010024105115651,-0.0033470655682116,0.0019242401188667,0.8659941589192646,0.5000392096323674,"(1e-05, 0.0, 0.0, 0.0, 0.0, 0.0, 0.0, 1e-05, 0.0, 0.0, 0.0, 0.0, 0.0, 0.0, 1000000000000.0, 0.0, 0.0, 0.0, 0.0, 0.0, 0.0, 1000000000000.0, 0.0, 0.0, 0.0, 0.0, 0.0, 0.0, 1000000000000.0, 0.0, 0.0, 0.0, 0.0, 0.0, 0.0, 0.001)",-2.564869197556917e-06,1.7240204921600323e-05,0.0,0.0,0.0,0.0002621200817991,"(0.0, 0.0, 0.0, 0.0, 0.0, 0.0, 0.0, 0.0, 0.0, 0.0, 0.0, 0.0, 0.0, 0.0, 0.0, 0.0, 0.0, 0.0, 0.0, 0.0, 0.0, 0.0, 0.0, 0.0, 0.0, 0.0, 0.0, 0.0, 0.0, 0.0, 0.0, 0.0, 0.0, 0.0, 0.0, 0.0)",,,,,,,5.0,0.0,408000000.0,base_footprint,-0.0033471369091347,0.0019243181561822,0.8659934820865487,0.5000403810271324,0.0,0.0,0.0,0.0,0.0,0.0,0.0,0.0,0.0,-9.381729009979592e-05,2.38438685653712e-05,0.0002114443394304,0.0,0.0,0.0,0.0,0.0,0.0,0.0,0.0,0.0,0.0007993452624966,-0.0001736996107644,-0.00594319412153,0.0,0.0,0.0,0.0,0.0,0.0,0.0,0.0,0.0
0.46,-5.068569023554403e-07,-4.1282190564378807e-07,9.831124770709465e-06,-5.068269668396392e-06,0.00017456312115247735,3.6396190030165704e-05,0.003804687365975765,-1.687733799344081e-07,2.7835362889221435e-12,5.812951934377496e-06,9,0,453000000,odom,base_footprint,-3.813573551591284e-06,-1.3219791319195144e-05,-0.0010023982655949,-0.0033470186310938,0.0019241511826494,0.8659965432004412,0.5000350810427162,"(1e-05, 0.0, 0.0, 0.0, 0.0, 0.0, 0.0, 1e-05, 0.0, 0.0, 0.0, 0.0, 0.0, 0.0, 1000000000000.0, 0.0, 0.0, 0.0, 0.0, 0.0, 0.0, 1000000000000.0, 0.0, 0.0, 0.0, 0.0, 0.0, 0.0, 1000000000000.0, 0.0, 0.0, 0.0, 0.0, 0.0, 0.0, 0.001)",-3.020918874144808e-06,2.108001022440495e-05,0.0,0.0,0.0,0.0003198958593996,"(0.0, 0.0, 0.0, 0.0, 0.0, 0.0, 0.0, 0.0, 0.0, 0.0, 0.0, 0.0, 0.0, 0.0, 0.0, 0.0, 0.0, 0.0, 0.0, 0.0, 0.0, 0.0, 0.0, 0.0, 0.0, 0.0, 0.0, 0.0, 0.0, 0.0, 0.0, 0.0, 0.0, 0.0, 0.0, 0.0)",,,,,,,6.0,0.0,442000000.0,base_footprint,-0.0033470311514195,0.0019241756019203,0.8659956532967409,0.5000366220607,0.0,0.0,0.0,0.0,0.0,0.0,0.0,0.0,0.0,-0.0001754054499769,6.698396527706881e-05,0.0003069200967462,0.0,0.0,0.0,0.0,0.0,0.0,0.0,0.0,0.0,0.0001725900172225,-7.520984906441714e-05,9.04117269478428e-05,0.0,0.0,0.0,0.0,0.0,0.0,0.0,0.0,0.0
0.49400000000000005,-5.49309511217299e-07,-4.454779081570163e-07,1.0631640009250987e-05,-3.18409435671621e-06,0.00020636979161345713,5.658184119159705e-05,0.0009551552690984919,-1.0603034207297914e-07,1.076234040846387e-12,6.8721140607281235e-06,9,0,453000000,odom,base_footprint,-3.813573551591284e-06,-1.3219791319195144e-05,-0.0010023982655949,-0.0033470186310938,0.0019241511826494,0.8659965432004412,0.5000350810427162,"(1e-05, 0.0, 0.0, 0.0, 0.0, 0.0, 0.0, 1e-05, 0.0, 0.0, 0.0, 0.0, 0.0, 0.0, 1000000000000.0, 0.0, 0.0, 0.0, 0.0, 0.0, 0.0, 1000000000000.0, 0.0, 0.0, 0.0, 0.0, 0.0, 0.0, 1000000000000.0, 0.0, 0.0, 0.0, 0.0, 0.0, 0.0, 0.001)",-3.020918874144808e-06,2.108001022440495e-05,0.0,0.0,0.0,0.0003198958593996,"(0.0, 0.0, 0.0, 0.0, 0.0, 0.0, 0.0, 0.0, 0.0, 0.0, 0.0, 0.0, 0.0, 0.0, 0.0, 0.0, 0.0, 0.0, 0.0, 0.0, 0.0, 0.0, 0.0, 0.0, 0.0, 0.0, 0.0, 0.0, 0.0, 0.0, 0.0, 0.0, 0.0, 0.0, 0.0, 0.0)",,,,,,,7.0,0.0,476000000.0,base_footprint,-0.0033470109700092,0.0019241207504413,0.8659982389953692,0.5000321443005677,0.0,0.0,0.0,0.0,0.0,0.0,0.0,0.0,0.0,-0.0001709748224443,6.377530458233568e-05,0.0003300545667106,0.0,0.0,0.0,0.0,0.0,0.0,0.0,0.0,0.0,4.1925118209698685e-05,-1.7850439390735158e-05,-7.903420513375327e-06,0.0,0.0,0.0,0.0,0.0,0.0,0.0,0.0,0.0
0.528,-5.60157411804655e-07,-4.537519704482344e-07,1.0835472307402227e-05,-1.7588540872387574e-06,0.00021922663363395292,4.280000809241599e-05,0.00038609135196684025,-5.856984110464563e-08,1.7946098499519925e-13,7.300246900010633e-06,10,0,486000000,odom,base_footprint,-4.342605490280805e-06,-1.364901502037396e-05,-0.0010023948556947,-0.00334701133729,0.0019241094678974,0.8659991038381017,0.5000306465302585,"(1e-05, 0.0, 0.0, 0.0, 0.0, 0.0, 0.0, 1e-05, 0.0, 0.0, 0.0, 0.0, 0.0, 0.0, 1000000000000.0, 0.0, 0.0, 0.0, 0.0, 0.0, 0.0, 1000000000000.0, 0.0, 0.0, 0.0, 0.0, 0.0, 0.0, 1000000000000.0, 0.0, 0.0, 0.0, 0.0, 0.0, 0.0, 0.001)",-3.1343803663033743e-06,2.201442965308477e-05,0.0,0.0,0.0,0.0003339435270923,"(0.0, 0.0, 0.0, 0.0, 0.0, 0.0, 0.0, 0.0, 0.0, 0.0, 0.0, 0.0, 0.0, 0.0, 0.0, 0.0, 0.0, 0.0, 0.0, 0.0, 0.0, 0.0, 0.0, 0.0, 0.0, 0.0, 0.0, 0.0, 0.0, 0.0, 0.0, 0.0, 0.0, 0.0, 0.0, 0.0)",,,,,,,8.0,0.0,510000000.0,base_footprint,-0.0033470159259571,0.001924089972765,0.866000929447825,0.500027484802257,0.0,0.0,0.0,0.0,0.0,0.0,0.0,0.0,0.0,-0.0001703407207918,6.313875987385407e-05,0.0003359623210527,0.0,0.0,0.0,0.0,0.0,0.0,0.0,0.0,0.0,1.070621959713346e-05,-4.568119535878191e-06,-1.5188566059639296e-06,0.0,0.0,0.0,0.0,0.0,0.0,0.0,0.0,0.0
0.562,-5.629928895856118e-07,-4.5593457854986416e-07,1.0888940573661188e-05,-4.675510686396312e-07,0.00023008055659887365,3.8777868426400186e-05,0.0003259436325802021,-1.5569450585509764e-08,-6.876902227185444e-14,7.661682534742493e-06,10,0,486000000,odom,base_footprint,-4.342605490280805e-06,-1.364901502037396e-05,-0.0010023948556947,-0.00334701133729,0.0019241094678974,0.8659991038381017,0.5000306465302585,"(1e-05, 0.0, 0.0, 0.0, 0.0, 0.0, 0.0, 1e-05, 0.0, 0.0, 0.0, 0.0, 0.0, 0.0, 1000000000000.0, 0.0, 0.0, 0.0, 0.0, 0.0, 0.0, 1000000000000.0, 0.0, 0.0, 0.0, 0.0, 0.0, 0.0, 1000000000000.0, 0.0, 0.0, 0.0, 0.0, 0.0, 0.0, 0.001)",-3.1343803663033743e-06,2.201442965308477e-05,0.0,0.0,0.0,0.0003339435270923,"(0.0, 0.0, 0.0, 0.0, 0.0, 0.0, 0.0, 0.0, 0.0, 0.0, 0.0, 0.0, 0.0, 0.0, 0.0, 0.0, 0.0, 0.0, 0.0, 0.0, 0.0, 0.0, 0.0, 0.0, 0.0, 0.0, 0.0, 0.0, 0.0, 0.0, 0.0, 0.0, 0.0, 0.0, 0.0, 0.0)",,,,,,,9.0,0.0,544000000.0,base_footprint,-0.0033470267395176,0.0019240657796255,0.866003646926255,0.5000227783744527,0.0,0.0,0.0,0.0,0.0,0.0,0.0,0.0,0.0,-0.0001701810310257,6.294723580566233e-05,0.0003375181731447,0.0,0.0,0.0,0.0,0.0,0.0,0.0,0.0,0.0,2.8255483205246046e-06,-1.1866266571361354e-06,-4.027840339142798e-07,0.0,0.0,0.0,0.0,0.0,0.0,0.0,0.0,0.0
0.5960000000000001,-5.63741470430059e-07,-4.565314322972826e-07,1.0903255184047111e-05,8.229698339054231e-07,0.00022234350022066468,3.8754381457809433e-05,-0.00023234403538165073,2.7404895467031328e-08,3.2748220358028436e-13,7.4040385573481345e-06,12,0,553000000,odom,base_footprint,-5.447646688918999e-06,-1.4544101815406815e-05,-0.0010023939052757,-0.0033470302651321,0.0019240591282218,0.8660044479046354,0.5000213911366825,"(1e-05, 0.0, 0.0, 0.0, 0.0, 0.0, 0.0, 1e-05, 0.0, 0.0, 0.0, 0.0, 0.0, 0.0, 1000000000000.0, 0.0, 0.0, 0.0, 0.0, 0.0, 0.0, 1000000000000.0, 0.0, 0.0, 0.0, 0.0, 0.0, 0.0, 1000000000000.0, 0.0, 0.0, 0.0, 0.0, 0.0, 0.0, 0.001)",-3.1738975917995674e-06,2.233540820571103e-05,0.0,0.0,0.0,0.0003387698639021,"(0.0, 0.0, 0.0, 0.0, 0.0, 0.0, 0.0, 0.0, 0.0, 0.0, 0.0, 0.0, 0.0, 0.0, 0.0, 0.0, 0.0, 0.0, 0.0, 0.0, 0.0, 0.0, 0.0, 0.0, 0.0, 0.0, 0.0, 0.0, 0.0, 0.0, 0.0, 0.0, 0.0, 0.0, 0.0, 0.0)",,,,,,,10.0,0.0,578000000.0,base_footprint,-0.0033470389380789,0.0019240435774485,0.8660063715319201,0.5000180595266306,0.0,0.0,0.0,0.0,0.0,0.0,0.0,0.0,0.0,-0.0001701501316508,6.287849072369255e-05,0.0003379368793012,0.0,0.0,0.0,0.0,0.0,0.0,0.0,0.0,0.0,7.662568950518194e-07,-3.031265910810214e-07,-1.0459067115709874e-07,0.0,0.0,0.0,0.0,0.0,0.0,0.0,0.0,0.0
0.63,-5.639448629642108e-07,-4.5671399260443016e-07,1.0907341267518689e-05,2.135184297806273e-06,0.00021738177379949304,3.940583975678227e-05,-0.00014900079342857768,7.110163710359085e-08,1.3702129641639824e-12,7.238813067523119e-06,14,0,619000000,odom,base_footprint,-6.5420311198597335e-06,-1.543037036577698e-05,-0.0010023940411573,-0.0033470542806901,0.0019240171562357,0.8660097397081086,0.5000122259668446,"(1e-05, 0.0, 0.0, 0.0, 0.0, 0.0, 0.0, 1e-05, 0.0, 0.0, 0.0, 0.0, 0.0, 0.0, 1000000000000.0, 0.0, 0.0, 0.0, 0.0, 0.0, 0.0, 1000000000000.0, 0.0, 0.0, 0.0, 0.0, 0.0, 0.0, 1000000000000.0, 0.0, 0.0, 0.0, 0.0, 0.0, 0.0, 0.001)",-3.177908648594389e-06,2.2359918752710514e-05,0.0,0.0,0.0,0.0003391411210301,"(0.0, 0.0, 0.0, 0.0, 0.0, 0.0, 0.0, 0.0, 0.0, 0.0, 0.0, 0.0, 0.0, 0.0, 0.0, 0.0, 0.0, 0.0, 0.0, 0.0, 0.0, 0.0, 0.0, 0.0, 0.0, 0.0, 0.0, 0.0, 0.0, 0.0, 0.0, 0.0, 0.0, 0.0, 0.0, 0.0)",,,,,,,11.0,0.0,612000000.0,base_footprint,-0.0033470513624992,0.0019240221351268,0.8660090980666368,0.5000133372739279,0.0,0.0,0.0,0.0,0.0,0.0,0.0,0.0,0.0,-0.0001701520118331,6.284316022388232e-05,0.0003380584965971,0.0,0.0,0.0,0.0,0.0,0.0,0.0,0.0,0.0,2.282099619647463e-07,-7.232494432841045e-08,-2.7220605249394087e-08,0.0,0.0,0.0,0.0,0.0,0.0,0.0,0.0,0.0
0.664,-5.640058081141791e-07,-4.567882745561136e-07,1.0908754853211633e-05,3.7005432803018252e-06,0.00021472333185106992,4.7007777252118684e-05,-7.983309154423773e-05,1.2322809119063158e-07,3.2613243679109093e-12,7.150286950640629e-06,14,0,619000000,odom,base_footprint,-6.5420311198597335e-06,-1.543037036577698e-05,-0.0010023940411573,-0.0033470542806901,0.0019240171562357,0.8660097397081086,0.5000122259668446,"(1e-05, 0.0, 0.0, 0.0, 0.0, 0.0, 0.0, 1e-05, 0.0, 0.0, 0.0, 0.0, 0.0, 0.0, 1000000000000.0, 0.0, 0.0, 0.0, 0.0, 0.0, 0.0, 1000000000000.0, 0.0, 0.0, 0.0, 0.0, 0.0, 0.0, 1000000000000.0, 0.0, 0.0, 0.0, 0.0, 0.0, 0.0, 0.001)",-3.177908648594389e-06,2.2359918752710514e-05,0.0,0.0,0.0,0.0003391411210301,"(0.0, 0.0, 0.0, 0.0, 0.0, 0.0, 0.0, 0.0, 0.0, 0.0, 0.0, 0.0, 0.0, 0.0, 0.0, 0.0, 0.0, 0.0, 0.0, 0.0, 0.0, 0.0, 0.0, 0.0, 0.0, 0.0, 0.0, 0.0, 0.0, 0.0, 0.0, 0.0, 0.0, 0.0, 0.0, 0.0)",,,,,,,12.0,0.0,646000000.0,base_footprint,-0.003347063722804,0.0019240011087597,0.8660118251723538,0.5000086139716173,0.0,0.0,0.0,0.0,0.0,0.0,0.0,0.0,0.0,-0.000170161743164,6.28178140351795e-05,0.000338102497116,0.0,0.0,0.0,0.0,0.0,0.0,0.0,0.0,0.0,8.760507409370111e-08,-1.204574498492938e-08,-7.395049298363021e-09,0.0,0.0,0.0,0.0,0.0,0.0,0.0,0.0,0.0
0.6980000000000001,-5.640295241324776e-07,-4.5683423080316796e-07,1.090947000603748e-05,5.223733990824327e-06,0.0001954526457849664,4.57414627784535e-05,-0.0005786992812643702,1.7395034179772513e-07,5.791707571539322e-12,6.508573104639382e-06,16,0,686000000,odom,base_footprint,-7.653460163838284e-06,-1.633052691949648e-05,-0.0010023942343985,-0.003347078456124,0.001923976155484,0.8660151140183173,0.5000029176648901,"(1e-05, 0.0, 0.0, 0.0, 0.0, 0.0, 0.0, 1e-05, 0.0, 0.0, 0.0, 0.0, 0.0, 0.0, 1000000000000.0, 0.0, 0.0, 0.0, 0.0, 0.0, 0.0, 1000000000000.0, 0.0, 0.0, 0.0, 0.0, 0.0, 0.0, 1000000000000.0, 0.0, 0.0, 0.0, 0.0, 0.0, 0.0, 0.001)",-3.179435429760473e-06,2.236354604103897e-05,0.0,0.0,0.0,0.0003391987091388,"(0.0, 0.0, 0.0, 0.0, 0.0, 0.0, 0.0, 0.0, 0.0, 0.0, 0.0, 0.0, 0.0, 0.0, 0.0, 0.0, 0.0, 0.0, 0.0, 0.0, 0.0, 0.0, 0.0, 0.0, 0.0, 0.0, 0.0, 0.0, 0.0, 0.0, 0.0, 0.0, 0.0, 0.0, 0.0, 0.0)",,,,,,,13.0,0.0,680000000.0,base_footprint,-0.0033470759546942,0.0019239803882554,0.8660145524942598,0.5000038902350521,0.0,0.0,0.0,0.0,0.0,0.0,0.0,0.0,0.0,-0.000170172879167,6.2796213815546e-05,0.0003381262189299,0.0,0.0,0.0,0.0,0.0,0.0,0.0,0.0,0.0,5.0837901066339164e-08,3.687653677830395e-09,-2.566828825397688e-09,0.0,0.0,0.0,0.0,0.0,0.0,0.0,0.0,0.0
0.7320000000000001,-5.640435006789603e-07,-4.5687275314777037e-07,1.0910002479214143e-05,7.0249582687612475e-06,0.00017891457547989856,5.409081915726488e-05,-0.0004966387478999349,2.3393111016664561e-07,9.246923084896777e-12,5.957855363480623e-06,17,0,719000000,odom,base_footprint,-8.200910021847248e-06,-1.6773949945633315e-05,-0.0010023943244471,-0.0033470901730627,0.0019239563401359,0.8660177612641293,0.4999983325516598,"(1e-05, 0.0, 0.0, 0.0, 0.0, 0.0, 0.0, 1e-05, 0.0, 0.0, 0.0, 0.0, 0.0, 0.0, 1000000000000.0, 0.0, 0.0, 0.0, 0.0, 0.0, 0.0, 1000000000000.0, 0.0, 0.0, 0.0, 0.0, 0.0, 0.0, 1000000000000.0, 0.0, 0.0, 0.0, 0.0, 0.0, 0.0, 0.001)",-3.1800944031933416e-06,2.2364600984278288e-05,0.0,0.0,0.0,0.0003392160978728,"(0.0, 0.0, 0.0, 0.0, 0.0, 0.0, 0.0, 0.0, 0.0, 0.0, 0.0, 0.0, 0.0, 0.0, 0.0, 0.0, 0.0, 0.0, 0.0, 0.0, 0.0, 0.0, 0.0, 0.0, 0.0, 0.0, 0.0, 0.0, 0.0, 0.0, 0.0, 0.0, 0.0, 0.0, 0.0, 0.0)",,,,,,,14.0,0.0,714000000.0,base_footprint,-0.0033470880517666,0.0019239599264865,0.8660172799396436,0.4999991662250209,0.0,0.0,0.0,0.0,0.0,0.0,0.0,0.0,0.0,-0.0001701837957751,6.277662426240922e-05,0.00033814464192,0.0,0.0,0.0,0.0,0.0,0.0,0.0,0.0,0.0,4.120210853105432e-08,7.785386969073094e-09,-1.624490390557469e-09,0.0,0.0,0.0,0.0,0.0,0.0,0.0,0.0,0.0
0.766,-5.64054920485467e-07,-4.569093028962412e-07,1.0910487033388707e-05,9.296925589936927e-06,0.00016374244297657635,6.822724688215253e-05,-0.00045561959469436053,3.0958762182779535e-07,1.4003770925492697e-11,5.452623351119993e-06,17,0,719000000,odom,base_footprint,-8.200910021847248e-06,-1.6773949945633315e-05,-0.0010023943244471,-0.0033470901730627,0.0019239563401359,0.8660177612641293,0.4999983325516598,"(1e-05, 0.0, 0.0, 0.0, 0.0, 0.0, 0.0, 1e-05, 0.0, 0.0, 0.0, 0.0, 0.0, 0.0, 1000000000000.0, 0.0, 0.0, 0.0, 0.0, 0.0, 0.0, 1000000000000.0, 0.0, 0.0, 0.0, 0.0, 0.0, 0.0, 1000000000000.0, 0.0, 0.0, 0.0, 0.0, 0.0, 0.0, 0.001)",-3.1800944031933416e-06,2.2364600984278288e-05,0.0,0.0,0.0,0.0003392160978728,"(0.0, 0.0, 0.0, 0.0, 0.0, 0.0, 0.0, 0.0, 0.0, 0.0, 0.0, 0.0, 0.0, 0.0, 0.0, 0.0, 0.0, 0.0, 0.0, 0.0, 0.0, 0.0, 0.0, 0.0, 0.0, 0.0, 0.0, 0.0, 0.0, 0.0, 0.0, 0.0, 0.0, 0.0, 0.0, 0.0)",,,,,,,15.0,0.0,748000000.0,base_footprint,-0.0033471000217774,0.0019239396944798,0.866020007484268,0.4999944419835533,0.0,0.0,0.0,0.0,0.0,0.0,0.0,0.0,0.0,-0.000170194123143,6.275849635633814e-05,0.0003381616796712,0.0,0.0,0.0,0.0,0.0,0.0,0.0,0.0,0.0,3.865730842555624e-08,8.844809542343354e-09,-1.6673796700389123e-09,0.0,0.0,0.0,0.0,0.0,0.0,0.0,0.0,0.0
0.8,-5.640656612097492e-07,-4.5694530989657395e-07,1.0910958894605471e-05,-0.00015372114937894593,0.002197379951698423,-0.004895437686753238,0.061070195457112494,-5.1189142548816966e-06,-4.327853678135088e-10,7.317275239155749e-05,18,0,753000000,odom,base_footprint,-8.764961038176637e-06,-1.7230846447842396e-05,-0.0010023944127019,-0.0033471021217336,0.0019239361462127,0.8660204888253923,0.4999936082708667,"(1e-05, 0.0, 0.0, 0.0, 0.0, 0.0, 0.0, 1e-05, 0.0, 0.0, 0.0, 0.0, 0.0, 0.0, 1000000000000.0, 0.0, 0.0, 0.0, 0.0, 0.0, 0.0, 1000000000000.0, 0.0, 0.0, 0.0, 0.0, 0.0, 0.0, 1000000000000.0, 0.0, 0.0, 0.0, 0.0, 0.0, 0.0, 0.001)",-3.1807716882491665e-06,2.23656152790291e-05,0.0,0.0,0.0,0.0003392329620741,"(0.0, 0.0, 0.0, 0.0, 0.0, 0.0, 0.0, 0.0, 0.0, 0.0, 0.0, 0.0, 0.0, 0.0, 0.0, 0.0, 0.0, 0.0, 0.0, 0.0, 0.0, 0.0, 0.0, 0.0, 0.0, 0.0, 0.0, 0.0, 0.0, 0.0, 0.0, 0.0, 0.0, 0.0, 0.0, 0.0)",,,,,,,16.0,0.0,782000000.0,base_footprint,-0.0033471118753067,0.0019239196695526,0.8660227351217866,0.4999897175216498,0.0,0.0,0.0,0.0,0.0,0.0,0.0,0.0,0.0,-0.0001702038142462,6.274159944908186e-05,0.0003381783548098,0.0,0.0,0.0,0.0,0.0,0.0,0.0,0.0,0.0,3.7967861869351655e-08,9.111630324496693e-09,-1.9408457296480402e-09,0.0,0.0,0.0,0.0,0.0,0.0,0.0,0.0,0.0
0.8340000000000001,-5.640762143379972e-07,-4.569811503794992e-07,1.0911427283488704e-05,9.205762082792805e-06,0.00016421203693434708,0.004892700043896058,-0.06105609353645873,3.065518750049066e-07,3.797159977537535e-11,5.468260829913758e-06,20,0,819000000,odom,base_footprint,-9.859914415879904e-06,-1.811786609727008e-05,-0.0010023945719485,-0.0033471249984417,0.0019238975097358,0.866025783765764,0.4999844369833039,"(1e-05, 0.0, 0.0, 0.0, 0.0, 0.0, 0.0, 1e-05, 0.0, 0.0, 0.0, 0.0, 0.0, 0.0, 1000000000000.0, 0.0, 0.0, 0.0, 0.0, 0.0, 0.0, 1000000000000.0, 0.0, 0.0, 0.0, 0.0, 0.0, 0.0, 1000000000000.0, 0.0, 0.0, 0.0, 0.0, 0.0, 0.0, 0.001)",-3.182068476916208e-06,2.236754295013272e-05,0.0,0.0,0.0,0.0003392650875513,"(0.0, 0.0, 0.0, 0.0, 0.0, 0.0, 0.0, 0.0, 0.0, 0.0, 0.0, 0.0, 0.0, 0.0, 0.0, 0.0, 0.0, 0.0, 0.0, 0.0, 0.0, 0.0, 0.0, 0.0, 0.0, 0.0, 0.0, 0.0, 0.0, 0.0, 0.0, 0.0, 0.0, 0.0, 0.0, 0.0)",,,,,,,17.0,0.0,816000000.0,base_footprint,-0.0033471236228777,0.0019238998320679,0.8660254628505285,0.4999849928422027,0.0,0.0,0.0,0.0,0.0,0.0,0.0,0.0,0.0,-0.0001702129013277,6.272579463945209e-05,0.0003381949344736,0.0,0.0,0.0,0.0,0.0,0.0,0.0,0.0,0.0,3.7765300441300814e-08,9.172579125114866e-09,-2.2505663977811117e-09,0.0,0.0,0.0,0.0,0.0,0.0,0.0,0.0,0.0
0.8680000000000001,-5.640867091834447e-07,-4.570169251042616e-07,1.0911894623877316e-05,7.76300553728829e-06,0.00019372730724391882,-4.332602238752299e-05,0.000886344453740893,2.585080822126841e-07,3.356120533720181e-11,6.451119331222498e-06,20,0,819000000,odom,base_footprint,-9.859914415879904e-06,-1.811786609727008e-05,-0.0010023945719485,-0.0033471249984417,0.0019238975097358,0.866025783765764,0.4999844369833039,"(1e-05, 0.0, 0.0, 0.0, 0.0, 0.0, 0.0, 1e-05, 0.0, 0.0, 0.0, 0.0, 0.0, 0.0, 1000000000000.0, 0.0, 0.0, 0.0, 0.0, 0.0, 0.0, 1000000000000.0, 0.0, 0.0, 0.0, 0.0, 0.0, 0.0, 1000000000000.0, 0.0, 0.0, 0.0, 0.0, 0.0, 0.0, 0.001)",-3.182068476916208e-06,2.236754295013272e-05,0.0,0.0,0.0,0.0003392650875513,"(0.0, 0.0, 0.0, 0.0, 0.0, 0.0, 0.0, 0.0, 0.0, 0.0, 0.0, 0.0, 0.0, 0.0, 0.0, 0.0, 0.0, 0.0, 0.0, 0.0, 0.0, 0.0, 0.0, 0.0, 0.0, 0.0, 0.0, 0.0, 0.0, 0.0, 0.0, 0.0, 0.0, 0.0, 0.0, 0.0)",,,,,,,18.0,0.0,850000000.0,base_footprint,-0.0033471352742782,0.001923880164458,0.8660281906700448,0.4999802679459832,0.0,0.0,0.0,0.0,0.0,0.0,0.0,0.0,0.0,-0.0001702214336442,6.271097402854464e-05,0.0003382114887003,0.0,0.0,0.0,0.0,0.0,0.0,0.0,0.0,0.0,3.7692399083207774e-08,9.180603967455815e-09,-2.5472926107521206e-09,0.0,0.0,0.0,0.0,0.0,0.0,0.0,0.0,0.0
0.902,-5.640971803781009e-07,-4.5705266264479266e-07,1.0912361564585638e-05,6.062664735391894e-06,0.0002089201832202141,-5.1061285342234085e-05,0.0004562425218106687,2.0188673380649773e-07,2.7563719099518e-11,6.9570421012331295e-06,22,0,886000000,odom,base_footprint,-1.0971498562075115e-05,-1.9018463445253948e-05,-0.0010023947195464,-0.0033471478549083,0.0019238589359638,0.866031159282514,0.4999751259010962,"(1e-05, 0.0, 0.0, 0.0, 0.0, 0.0, 0.0, 1e-05, 0.0, 0.0, 0.0, 0.0, 0.0, 0.0, 1000000000000.0, 0.0, 0.0, 0.0, 0.0, 0.0, 0.0, 1000000000000.0, 0.0, 0.0, 0.0, 0.0, 0.0, 0.0, 1000000000000.0, 0.0, 0.0, 0.0, 0.0, 0.0, 0.0, 0.001)",-3.183384341266392e-06,2.2369487826160823e-05,0.0,0.0,0.0,0.0003392975945263,"(0.0, 0.0, 0.0, 0.0, 0.0, 0.0, 0.0, 0.0, 0.0, 0.0, 0.0, 0.0, 0.0, 0.0, 0.0, 0.0, 0.0, 0.0, 0.0, 0.0, 0.0, 0.0, 0.0, 0.0, 0.0, 0.0, 0.0, 0.0, 0.0, 0.0, 0.0, 0.0, 0.0, 0.0, 0.0, 0.0)",,,,,,,19.0,0.0,884000000.0,base_footprint,-0.0033471468384504,0.0019238606508502,0.8660309185802081,0.4999755428332062,0.0,0.0,0.0,0.0,0.0,0.0,0.0,0.0,0.0,-0.0001702294609537,6.269704442811639e-05,0.0003382280358511,0.0,0.0,0.0,0.0,0.0,0.0,0.0,0.0,0.0,3.7655309663404137e-08,9.175693721590526e-09,-2.8208452729605812e-09,0.0,0.0,0.0,0.0,0.0,0.0,0.0,0.0,0.0
0.936,-5.641076377652272e-07,-4.5708837251735163e-07,1.0912828287690246e-05,4.846526672612606e-06,0.0002262227945343468,-3.652066254592457e-05,0.0005195979373613427,1.6138933652954138e-07,2.3203867311713628e-11,7.533219057993749e-06,23,0,919000000,odom,base_footprint,-1.1519010173034055e-05,-1.946209224448856e-05,-0.0010023947877978,-0.0033471589968131,0.0019238401412796,0.8660338070544297,0.4999705395366527,"(1e-05, 0.0, 0.0, 0.0, 0.0, 0.0, 0.0, 1e-05, 0.0, 0.0, 0.0, 0.0, 0.0, 0.0, 1000000000000.0, 0.0, 0.0, 0.0, 0.0, 0.0, 0.0, 1000000000000.0, 0.0, 0.0, 0.0, 0.0, 0.0, 0.0, 1000000000000.0, 0.0, 0.0, 0.0, 0.0, 0.0, 0.0, 0.001)",-3.184027366913186e-06,2.237044559291285e-05,0.0,0.0,0.0,0.0003393136058448,"(0.0, 0.0, 0.0, 0.0, 0.0, 0.0, 0.0, 0.0, 0.0, 0.0, 0.0, 0.0, 0.0, 0.0, 0.0, 0.0, 0.0, 0.0, 0.0, 0.0, 0.0, 0.0, 0.0, 0.0, 0.0, 0.0, 0.0, 0.0, 0.0, 0.0, 0.0, 0.0, 0.0, 0.0, 0.0, 0.0)",,,,,,,20.0,0.0,918000000.0,base_footprint,-0.0033471583235227,0.001923841276863,0.8660336465809754,0.4999708175039392,0.0,0.0,0.0,0.0,0.0,0.0,0.0,0.0,0.0,-0.0001702370295659,6.2683922686564e-05,0.0003382445808065,0.0,0.0,0.0,0.0,0.0,0.0,0.0,0.0,0.0,3.7629377731214615e-08,9.16820640087354e-09,-3.0699940231960726e-09,0.0,0.0,0.0,0.0,0.0,0.0,0.0,0.0,0.0
0.9700000000000001,-5.641180845579637e-07,-4.571240590114794e-07,1.0913294851810919e-05,3.961424107765788e-06,0.0002478721730424551,-2.657965660200653e-05,0.0006501314867299786,1.319154212709613e-07,2.0007535694591024e-11,8.254143362313756e-06,23,0,919000000,odom,base_footprint,-1.1519010173034055e-05,-1.946209224448856e-05,-0.0010023947877978,-0.0033471589968131,0.0019238401412796,0.8660338070544297,0.4999705395366527,"(1e-05, 0.0, 0.0, 0.0, 0.0, 0.0, 0.0, 1e-05, 0.0, 0.0, 0.0, 0.0, 0.0, 0.0, 1000000000000.0, 0.0, 0.0, 0.0, 0.0, 0.0, 0.0, 1000000000000.0, 0.0, 0.0, 0.0, 0.0, 0.0, 0.0, 1000000000000.0, 0.0, 0.0, 0.0, 0.0, 0.0, 0.0, 0.001)",-3.184027366913186e-06,2.237044559291285e-05,0.0,0.0,0.0,0.0003393136058448,"(0.0, 0.0, 0.0, 0.0, 0.0, 0.0, 0.0, 0.0, 0.0, 0.0, 0.0, 0.0, 0.0, 0.0, 0.0, 0.0, 0.0, 0.0, 0.0, 0.0, 0.0, 0.0, 0.0, 0.0, 0.0, 0.0, 0.0, 0.0, 0.0, 0.0, 0.0, 0.0, 0.0, 0.0, 0.0, 0.0)",,,,,,,21.0,0.0,952000000.0,base_footprint,-0.0033471697368727,0.0019238220294539,0.8660363746723267,0.4999660919582097,0.0,0.0,0.0,0.0,0.0,0.0,0.0,0.0,0.0,-0.000170244182084,6.267153367264228e-05,0.0003382611249483,0.0,0.0,0.0,0.0,0.0,0.0,0.0,0.0,0.0,3.760805324452611e-08,9.160732863610741e-09,-3.2964853712351526e-09,0.0,0.0,0.0,0.0,0.0,0.0,0.0,0.0,0.0
1.004,-5.641285222577116e-07,-4.571597249369807e-07,1.0913761284481183e-05,3.047962046472977e-06,0.00025213897732201585,-2.7431293131916254e-05,0.00012813226064747025,1.0149713484817624e-07,1.623899193977511e-11,8.39622794482313e-06,25,0,986000000,odom,base_footprint,-1.263065493424618e-05,-2.0362896566250392e-05,-0.0010023949186729,-0.0033471814180477,0.0019238023356922,0.8660391830962655,0.499961227199751,"(1e-05, 0.0, 0.0, 0.0, 0.0, 0.0, 0.0, 1e-05, 0.0, 0.0, 0.0, 0.0, 0.0, 0.0, 1000000000000.0, 0.0, 0.0, 0.0, 0.0, 0.0, 0.0, 1000000000000.0, 0.0, 0.0, 0.0, 0.0, 0.0, 0.0, 1000000000000.0, 0.0, 0.0, 0.0, 0.0, 0.0, 0.0, 0.001)",-3.1853385583677903e-06,2.2372387674994105e-05,0.0,0.0,0.0,0.0003393461208123,"(0.0, 0.0, 0.0, 0.0, 0.0, 0.0, 0.0, 0.0, 0.0, 0.0, 0.0, 0.0, 0.0, 0.0, 0.0, 0.0, 0.0, 0.0, 0.0, 0.0, 0.0, 0.0, 0.0, 0.0, 0.0, 0.0, 0.0, 0.0, 0.0, 0.0, 0.0, 0.0, 0.0, 0.0, 0.0, 0.0)",,,,,,,22.0,0.0,986000000.0,base_footprint,-0.0033471810851943,0.0019238028967929,0.8660391028542497,0.4999613661960328,0.0,0.0,0.0,0.0,0.0,0.0,0.0,0.0,0.0,-0.0001702509571302,6.265980932890558e-05,0.0003382776686869,0.0,0.0,0.0,0.0,0.0,0.0,0.0,0.0,0.0,3.758937725450392e-08,9.153923596231156e-09,-3.5019217951371644e-09,0.0,0.0,0.0,0.0,0.0,0.0,0.0,0.0,0.0
1.038,-5.641389518211762e-07,-4.5719537253600265e-07,1.0914227602132343e-05,2.4289781220585355e-06,0.000261247565861655,-1.8588105838271512e-05,0.00027353118737655067,8.088497031546195e-08,1.3632554455126182e-11,8.699543943193113e-06,25,0,986000000,odom,base_footprint,-1.263065493424618e-05,-2.0362896566250392e-05,-0.0010023949186729,-0.0033471814180477,0.0019238023356922,0.8660391830962655,0.499961227199751,"(1e-05, 0.0, 0.0, 0.0, 0.0, 0.0, 0.0, 1e-05, 0.0, 0.0, 0.0, 0.0, 0.0, 0.0, 1000000000000.0, 0.0, 0.0, 0.0, 0.0, 0.0, 0.0, 1000000000000.0, 0.0, 0.0, 0.0, 0.0, 0.0, 0.0, 1000000000000.0, 0.0, 0.0, 0.0, 0.0, 0.0, 0.0, 0.001)",-3.1853385583677903e-06,2.2372387674994105e-05,0.0,0.0,0.0,0.0003393461208123,"(0.0, 0.0, 0.0, 0.0, 0.0, 0.0, 0.0, 0.0, 0.0, 0.0, 0.0, 0.0, 0.0, 0.0, 0.0, 0.0, 0.0, 0.0, 0.0, 0.0, 0.0, 0.0, 0.0, 0.0, 0.0, 0.0, 0.0, 0.0, 0.0, 0.0, 0.0, 0.0, 0.0, 0.0, 0.0, 0.0)",,,,,,,23.0,1.0,20000000.0,base_footprint,-0.00334719237456,0.0019237838681486,0.866041831126734,0.4999566402174193,0.0,0.0,0.0,0.0,0.0,0.0,0.0,0.0,0.0,-0.0001702573896624,6.264868783699018e-05,0.0003382942122003,0.0,0.0,0.0,0.0,0.0,0.0,0.0,0.0,0.0,3.757275355444571e-08,9.14786924462466e-09,-3.6885093211802147e-09,0.0,0.0,0.0,0.0,0.0,0.0,0.0,0.0,0.0
1.072,-5.641495071772462e-07,-4.572311109321928e-07,1.0914696380037727e-05,1.9928398368108438e-06,0.00027679455798524803,-1.3097245803233983e-05,0.00046687664034813933,6.636156552015389e-08,1.1779236144662947e-11,9.21725878090876e-06,27,1,53000000,odom,base_footprint,-1.3742340250076993e-05,-2.1263839382447327e-05,-0.0010023950407509,-0.0033472036105104,0.0019237649337803,0.8660445594899541,0.4999519140220596,"(1e-05, 0.0, 0.0, 0.0, 0.0, 0.0, 0.0, 1e-05, 0.0, 0.0, 0.0, 0.0, 0.0, 0.0, 1000000000000.0, 0.0, 0.0, 0.0, 0.0, 0.0, 0.0, 1000000000000.0, 0.0, 0.0, 0.0, 0.0, 0.0, 0.0, 1000000000000.0, 0.0, 0.0, 0.0, 0.0, 0.0, 0.0, 0.001)",-3.1866495991317045e-06,2.2374339087200728e-05,0.0,0.0,0.0,0.000339378810405,"(0.0, 0.0, 0.0, 0.0, 0.0, 0.0, 0.0, 0.0, 0.0, 0.0, 0.0, 0.0, 0.0, 0.0, 0.0, 0.0, 0.0, 0.0, 0.0, 0.0, 0.0, 0.0, 0.0, 0.0, 0.0, 0.0, 0.0, 0.0, 0.0, 0.0, 0.0, 0.0, 0.0, 0.0, 0.0, 0.0)",,,,,,,24.0,1.0,54000000.0,base_footprint,-0.0033472036105104,0.0019237649337803,0.8660445594899541,0.4999519140220596,0.0,0.0,0.0,0.0,0.0,0.0,0.0,0.0,0.0,-0.0001702635018173,6.26381286628428e-05,0.0003383109206922,0.0,0.0,0.0,0.0,0.0,0.0,0.0,0.0,0.0,3.7859531894981546e-08,9.025023796283516e-09,-3.8449203770790206e-09,0.0,0.0,0.0,0.0,0.0,0.0,0.0,0.0,0.0
1.106,-5.641600294712182e-07,-4.572668178617934e-07,1.0915164604607952e-05,1.54354027691438e-06,0.00027461464568665536,-1.349247927617008e-05,-6.546283178956983e-05,5.1399890325423807e-08,9.595427083789938e-12,9.144667701365624e-06,27,1,53000000,odom,base_footprint,-1.3742340250076993e-05,-2.1263839382447327e-05,-0.0010023950407509,-0.0033472036105104,0.0019237649337803,0.8660445594899541,0.4999519140220596,"(1e-05, 0.0, 0.0, 0.0, 0.0, 0.0, 0.0, 1e-05, 0.0, 0.0, 0.0, 0.0, 0.0, 0.0, 1000000000000.0, 0.0, 0.0, 0.0, 0.0, 0.0, 0.0, 1000000000000.0, 0.0, 0.0, 0.0, 0.0, 0.0, 0.0, 1000000000000.0, 0.0, 0.0, 0.0, 0.0, 0.0, 0.0, 0.001)",-3.1866495991317045e-06,2.2374339087200728e-05,0.0,0.0,0.0,0.000339378810405,"(0.0, 0.0, 0.0, 0.0, 0.0, 0.0, 0.0, 0.0, 0.0, 0.0, 0.0, 0.0, 0.0, 0.0, 0.0, 0.0, 0.0, 0.0, 0.0, 0.0, 0.0, 0.0, 0.0, 0.0, 0.0, 0.0, 0.0, 0.0, 0.0, 0.0, 0.0, 0.0, 0.0, 0.0, 0.0, 0.0)",,,,,,,25.0,1.0,88000000.0,base_footprint,-0.0033472147981757,0.0019237460849511,0.8660472879445053,0.4999471876089143,0.0,0.0,0.0,0.0,0.0,0.0,0.0,0.0,0.0,-0.0001702693361285,6.262808021123361e-05,0.0003383276927862,0.0,0.0,0.0,0.0,0.0,0.0,0.0,0.0,0.0,3.796358333746373e-08,8.979079095886548e-09,-3.9598322420530234e-09,0.0,0.0,0.0,0.0,0.0,0.0,0.0,0.0,0.0
1.1400000000000001,-5.641704794467385e-07,-4.5730246100517133e-07,1.0915631501351442e-05,1.2378876732973106e-06,0.00027937594583671185,-9.178756865377459e-06,0.00014298198648818295,4.1221658729627074e-08,8.075561656889148e-12,9.303218996362505e-06,28,1,86000000,odom,base_footprint,-1.4289901798664184e-05,-2.17076383340082e-05,-0.0010023950981526,-0.0033472144697738,0.0019237466381848,0.8660472076945439,0.4999473266241643,"(1e-05, 0.0, 0.0, 0.0, 0.0, 0.0, 0.0, 1e-05, 0.0, 0.0, 0.0, 0.0, 0.0, 0.0, 1000000000000.0, 0.0, 0.0, 0.0, 0.0, 0.0, 0.0, 1000000000000.0, 0.0, 0.0, 0.0, 0.0, 0.0, 0.0, 1000000000000.0, 0.0, 0.0, 0.0, 0.0, 0.0, 0.0, 0.001)",-3.1872927465241708e-06,2.2375309559690752e-05,0.0,0.0,0.0,0.0003393950558743,"(0.0, 0.0, 0.0, 0.0, 0.0, 0.0, 0.0, 0.0, 0.0, 0.0, 0.0, 0.0, 0.0, 0.0, 0.0, 0.0, 0.0, 0.0, 0.0, 0.0, 0.0, 0.0, 0.0, 0.0, 0.0, 0.0, 0.0, 0.0, 0.0, 0.0, 0.0, 0.0, 0.0, 0.0, 0.0, 0.0)",0.0,0.0,0.0,0.0,0.0,0.0,26.0,1.0,122000000.0,base_footprint,-0.0033472259419686,0.0019237273136059,0.8660500164899052,0.4999424609788121,0.0,0.0,0.0,0.0,0.0,0.0,0.0,0.0,0.0,-0.0001702749179283,6.261848488762777e-05,0.0003383444332332,0.0,0.0,0.0,0.0,0.0,0.0,0.0,0.0,0.0,3.7894318274590986e-08,8.99958657540295e-09,-4.0913807829356675e-09,0.0,0.0,0.0,0.0,0.0,0.0,0.0,0.0,0.0
1.174,-5.641809089442819e-07,-4.573380811808206e-07,1.0916098046820366e-05,1.019528153243198e-06,0.00029191621200574285,-6.557342944567942e-06,0.00037658456964057056,3.395028678657368e-08,6.97399296129017e-12,9.720809859791239e-06,30,1,153000000,odom,base_footprint,-1.540164799105747e-05,-2.2608788015598003e-05,-0.0010023952099471,-0.0033472363938251,0.0019237097106911,0.8660525846154904,0.4999380121878129,"(1e-05, 0.0, 0.0, 0.0, 0.0, 0.0, 0.0, 1e-05, 0.0, 0.0, 0.0, 0.0, 0.0, 0.0, 1000000000000.0, 0.0, 0.0, 0.0, 0.0, 0.0, 0.0, 1000000000000.0, 0.0, 0.0, 0.0, 0.0, 0.0, 0.0, 1000000000000.0, 0.0, 0.0, 0.0, 0.0, 0.0, 0.0, 0.001)",-3.188605364145682e-06,2.237727252756465e-05,0.0,0.0,0.0,0.0003394279738996,"(0.0, 0.0, 0.0, 0.0, 0.0, 0.0, 0.0, 0.0, 0.0, 0.0, 0.0, 0.0, 0.0, 0.0, 0.0, 0.0, 0.0, 0.0, 0.0, 0.0, 0.0, 0.0, 0.0, 0.0, 0.0, 0.0, 0.0, 0.0, 0.0, 0.0, 0.0, 0.0, 0.0, 0.0, 0.0, 0.0)",0.0,0.0,0.0,0.0,0.0,0.0,27.0,1.0,156000000.0,base_footprint,-0.0033472370459684,0.0019237086124443,0.8660527451260062,0.4999377341320034,0.0,0.0,0.0,0.0,0.0,0.0,0.0,0.0,0.0,-0.0001702802687141,6.26092985461634e-05,0.0003383611655949,0.0,0.0,0.0,0.0,0.0,0.0,0.0,0.0,0.0,3.786890841369685e-08,9.002430742271785e-09,-4.215852643829983e-09,0.0,0.0,0.0,0.0,0.0,0.0,0.0,0.0,0.0
1.208,-5.641913294793764e-07,-4.5737368805634157e-07,1.0916564457730262e-05,7.891595606757107e-07,0.00028659537867038314,-6.917975752777397e-06,-0.000159784784845637,2.6279012762745047e-08,5.6513025610260625e-12,9.54362610972376e-06,30,1,153000000,odom,base_footprint,-1.540164799105747e-05,-2.2608788015598003e-05,-0.0010023952099471,-0.0033472363938251,0.0019237097106911,0.8660525846154904,0.4999380121878129,"(1e-05, 0.0, 0.0, 0.0, 0.0, 0.0, 0.0, 1e-05, 0.0, 0.0, 0.0, 0.0, 0.0, 0.0, 1000000000000.0, 0.0, 0.0, 0.0, 0.0, 0.0, 0.0, 1000000000000.0, 0.0, 0.0, 0.0, 0.0, 0.0, 0.0, 1000000000000.0, 0.0, 0.0, 0.0, 0.0, 0.0, 0.0, 0.001)",-3.188605364145682e-06,2.237727252756465e-05,0.0,0.0,0.0,0.0003394279738996,"(0.0, 0.0, 0.0, 0.0, 0.0, 0.0, 0.0, 0.0, 0.0, 0.0, 0.0, 0.0, 0.0, 0.0, 0.0, 0.0, 0.0, 0.0, 0.0, 0.0, 0.0, 0.0, 0.0, 0.0, 0.0, 0.0, 0.0, 0.0, 0.0, 0.0, 0.0, 0.0, 0.0, 0.0, 0.0, 0.0)",0.0,0.0,0.0,0.0,0.0,0.0,28.0,1.0,190000000.0,base_footprint,-0.003347248113897,0.0019236899748654,0.866055473852765,0.4999330070685545,0.0,0.0,0.0,0.0,0.0,0.0,0.0,0.0,0.0,-0.0001702854095421,6.260048263208252e-05,0.0003383778959249,0.0,0.0,0.0,0.0,0.0,0.0,0.0,0.0,0.0,3.785552116457535e-08,9.001104840568563e-09,-4.330055028750062e-09,0.0,0.0,0.0,0.0,0.0,0.0,0.0,0.0,0.0
1.242,-5.642017444113141e-07,-4.5740928501444844e-07,1.0917030794477256e-05,6.285596032882898e-07,0.00028927508000664413,-4.822821543165794e-06,8.047151159942914e-05,2.0931034261304537e-08,4.7019112238312225e-12,9.63286016422125e-06,32,1,219000000,odom,base_footprint,-1.6496840544331145e-05,-2.349662292426688e-05,-0.0010023953147428,-0.0033472578524668,0.0019236735779582,0.8660578816281221,0.4999288359503223,"(1e-05, 0.0, 0.0, 0.0, 0.0, 0.0, 0.0, 1e-05, 0.0, 0.0, 0.0, 0.0, 0.0, 0.0, 1000000000000.0, 0.0, 0.0, 0.0, 0.0, 0.0, 0.0, 1000000000000.0, 0.0, 0.0, 0.0, 0.0, 0.0, 0.0, 1000000000000.0, 0.0, 0.0, 0.0, 0.0, 0.0, 0.0, 0.001)",-3.189893893707121e-06,2.2379205920429505e-05,0.0,0.0,0.0,0.0003394603940818,"(0.0, 0.0, 0.0, 0.0, 0.0, 0.0, 0.0, 0.0, 0.0, 0.0, 0.0, 0.0, 0.0, 0.0, 0.0, 0.0, 0.0, 0.0, 0.0, 0.0, 0.0, 0.0, 0.0, 0.0, 0.0, 0.0, 0.0, 0.0, 0.0, 0.0, 0.0, 0.0, 0.0, 0.0, 0.0, 0.0)",0.0,0.0,0.0,0.0,0.0,0.0,29.0,1.0,224000000.0,base_footprint,-0.0033472591491361,0.0019236713948865,0.8660582026701681,0.4999282797884824,0.0,0.0,0.0,0.0,0.0,0.0,0.0,0.0,0.0,-0.0001702903595343,6.2592002581766e-05,0.000338394625857,0.0,0.0,0.0,0.0,0.0,0.0,0.0,0.0,0.0,3.784605335916652e-08,8.999009447227379e-09,-4.434154178080082e-09,0.0,0.0,0.0,0.0,0.0,0.0,0.0,0.0,0.0
1.276,-5.642121549353195e-07,-4.574448737187376e-07,1.0917497079709904e-05,5.097579426846778e-07,0.00030039768770371607,-3.5676174355439038e-06,0.0003340122431553134,1.6974939024774786e-08,3.9798817588322065e-12,1.0003243000533746e-05,32,1,219000000,odom,base_footprint,-1.6496840544331145e-05,-2.349662292426688e-05,-0.0010023953147428,-0.0033472578524668,0.0019236735779582,0.8660578816281221,0.4999288359503223,"(1e-05, 0.0, 0.0, 0.0, 0.0, 0.0, 0.0, 1e-05, 0.0, 0.0, 0.0, 0.0, 0.0, 0.0, 1000000000000.0, 0.0, 0.0, 0.0, 0.0, 0.0, 0.0, 1000000000000.0, 0.0, 0.0, 0.0, 0.0, 0.0, 0.0, 1000000000000.0, 0.0, 0.0, 0.0, 0.0, 0.0, 0.0, 0.001)",-3.189893893707121e-06,2.2379205920429505e-05,0.0,0.0,0.0,0.0003394603940818,"(0.0, 0.0, 0.0, 0.0, 0.0, 0.0, 0.0, 0.0, 0.0, 0.0, 0.0, 0.0, 0.0, 0.0, 0.0, 0.0, 0.0, 0.0, 0.0, 0.0, 0.0, 0.0, 0.0, 0.0, 0.0, 0.0, 0.0, 0.0, 0.0, 0.0, 0.0, 0.0, 0.0, 0.0, 0.0, 0.0)",0.2199999988079071,2.2379206711775623e-05,0.0,0.0,0.0,0.3039292097091675,30.0,1.0,258000000.0,base_footprint,-0.003347270154755,0.001923652867082,0.8660609315782086,0.4999235522917916,0.0,0.0,0.0,0.0,0.0,0.0,0.0,0.0,0.0,-0.0001702951364908,6.258382721613807e-05,0.0003384113558843,0.0,0.0,0.0,0.0,0.0,0.0,0.0,0.0,0.0,3.7838348434398726e-08,8.996966843012398e-09,-4.528717404488417e-09,0.0,0.0,0.0,0.0,0.0,0.0,0.0,0.0,0.0
1.31,-0.00010339737439155758,0.00017757857642456938,1.5415851975841832e-05,3.8408251442792713e-07,0.00029350214169498876,-3.7740368845871062e-06,-0.0002070734537155347,1.278994734859125e-08,3.1251565375477026e-12,9.773621318443127e-06,33,1,253000000,odom,base_footprint,-1.706104596351562e-05,-2.395404477088109e-05,-0.0010023953669701,-0.0033472688614206,0.0019236550442803,0.8660606105254997,0.4999241084791161,"(1e-05, 0.0, 0.0, 0.0, 0.0, 0.0, 0.0, 1e-05, 0.0, 0.0, 0.0, 0.0, 0.0, 0.0, 1000000000000.0, 0.0, 0.0, 0.0, 0.0, 0.0, 0.0, 1000000000000.0, 0.0, 0.0, 0.0, 0.0, 0.0, 0.0, 1000000000000.0, 0.0, 0.0, 0.0, 0.0, 0.0, 0.0, 0.001)",-3.190557294436015e-06,2.238020113644416e-05,0.0,0.0,0.0,0.0003394770973246,"(0.0, 0.0, 0.0, 0.0, 0.0, 0.0, 0.0, 0.0, 0.0, 0.0, 0.0, 0.0, 0.0, 0.0, 0.0, 0.0, 0.0, 0.0, 0.0, 0.0, 0.0, 0.0, 0.0, 0.0, 0.0, 0.0, 0.0, 0.0, 0.0, 0.0, 0.0, 0.0, 0.0, 0.0, 0.0, 0.0)",0.2199999988079071,2.2379206711775623e-05,0.0,0.0,0.0,0.3039292097091675,31.0,1.0,292000000.0,base_footprint,-0.0033397510115261,0.0019190247182345,0.8660637519111449,0.4999187344288096,0.0,0.0,0.0,0.0,0.0,0.0,0.0,0.0,0.0,-5.6702316985222535e-05,-6.159466356881347e-05,0.0003295399887698,0.0,0.0,0.0,0.0,0.0,0.0,0.0,0.0,0.0,-0.0543152126847558,-0.0919033885831877,0.0002888831812269,0.0,0.0,0.0,0.0,0.0,0.0,0.0,0.0,0.0
1.344,-0.0005171329699375,0.0008939282787976,2.97233071995251e-05,0.033369013102807425,-0.000277442337239228,1.0020609315403302,-0.017145479847874377,0.0011111881030755083,2.7181011820035013e-07,-9.238829830066293e-06,35,1,319000000,odom,base_footprint,-0.0002279649220307,0.0003384284386292,-0.0010020697441023,-0.0033429876161041,0.001920706752674,0.8660680519048246,0.4999112569138154,"(1e-05, 0.0, 0.0, 0.0, 0.0, 0.0, 0.0, 1e-05, 0.0, 0.0, 0.0, 0.0, 0.0, 0.0, 1000000000000.0, 0.0, 0.0, 0.0, 0.0, 0.0, 0.0, 1000000000000.0, 0.0, 0.0, 0.0, 0.0, 0.0, 0.0, 1000000000000.0, 0.0, 0.0, 0.0, 0.0, 0.0, 0.0, 0.001)",0.0247978724688722,2.2308046580009344e-05,0.0,0.0,0.0,0.0007678661217701,"(0.0, 0.0, 0.0, 0.0, 0.0, 0.0, 0.0, 0.0, 0.0, 0.0, 0.0, 0.0, 0.0, 0.0, 0.0, 0.0, 0.0, 0.0, 0.0, 0.0, 0.0, 0.0, 0.0, 0.0, 0.0, 0.0, 0.0, 0.0, 0.0, 0.0, 0.0, 0.0, 0.0, 0.0, 0.0, 0.0)",0.2199999988079071,2.2379206711775623e-05,0.0,0.0,0.0,0.3039292097091675,32.0,1.0,326000000.0,base_footprint,-0.0033426294915213,0.0019205560221658,0.8660692304546903,0.4999092181109175,0.0,0.0,0.0,0.0,0.0,0.0,0.0,0.0,0.0,0.0015964678091748,-0.0010074227126584,0.0008307525457663,0.0,0.0,0.0,0.0,0.0,0.0,0.0,0.0,0.0,-0.3735897626980464,-0.6491291662417513,0.0005868650350807,0.0,0.0,0.0,0.0,0.0,0.0,0.0,0.0,0.0
1.3780000000000001,-0.0009528926164213001,0.0016483291553886998,4.358609784649304e-05,0.06840559535033389,4.229877581062425e-05,1.0521496170428366,0.00960183522672229,0.00227790625918064,5.482852250456266e-07,1.4085492344937878e-06,35,1,319000000,odom,base_footprint,-0.0002279649220307,0.0003384284386292,-0.0010020697441023,-0.0033429876161041,0.001920706752674,0.8660680519048246,0.4999112569138154,"(1e-05, 0.0, 0.0, 0.0, 0.0, 0.0, 0.0, 1e-05, 0.0, 0.0, 0.0, 0.0, 0.0, 0.0, 1000000000000.0, 0.0, 0.0, 0.0, 0.0, 0.0, 0.0, 1000000000000.0, 0.0, 0.0, 0.0, 0.0, 0.0, 0.0, 1000000000000.0, 0.0, 0.0, 0.0, 0.0, 0.0, 0.0, 0.001)",0.0247978724688722,2.2308046580009344e-05,0.0,0.0,0.0,0.0007678661217701,"(0.0, 0.0, 0.0, 0.0, 0.0, 0.0, 0.0, 0.0, 0.0, 0.0, 0.0, 0.0, 0.0, 0.0, 0.0, 0.0, 0.0, 0.0, 0.0, 0.0, 0.0, 0.0, 0.0, 0.0, 0.0, 0.0, 0.0, 0.0, 0.0, 0.0, 0.0, 0.0, 0.0, 0.0, 0.0, 0.0)",0.2199999988079071,2.2308046027319502e-05,0.0,0.0,0.0,0.3043576180934906,33.0,1.0,360000000.0,base_footprint,-0.0033431090059948,0.0019206888076027,0.8660783187386093,0.4998934690387367,0.0,0.0,0.0,0.0,0.0,0.0,0.0,0.0,0.0,0.001672016994222,-0.0010503372145025,0.0012365159236966,0.0,0.0,0.0,0.0,0.0,0.0,0.0,0.0,0.0,-0.3765950214601959,-0.6528640651049619,0.0027743991213819,0.0,0.0,0.0,0.0,0.0,0.0,0.0,0.0,0.0
1.412,-0.0013866232662975,0.0023991400732936,5.745368199949752e-05,0.1000873796615329,4.092557414597734e-05,0.9514049342702406,-4.123728722663397e-05,0.003332909645067806,8.068400662022994e-07,1.3628216190610455e-06,37,1,386000000,odom,base_footprint,-0.0019161214592808,0.0032583368236545,-0.0010022336515778,-0.0033442086367162,0.0019210888315902,0.8660880154357024,0.4998766599921846,"(1e-05, 0.0, 0.0, 0.0, 0.0, 0.0, 0.0, 1e-05, 0.0, 0.0, 0.0, 0.0, 0.0, 0.0, 1000000000000.0, 0.0, 0.0, 0.0, 0.0, 0.0, 0.0, 1000000000000.0, 0.0, 0.0, 0.0, 0.0, 0.0, 0.0, 1000000000000.0, 0.0, 0.0, 0.0, 0.0, 0.0, 0.0, 0.001)",0.075247636374115,2.0580333508928017e-05,0.0,0.0,0.0,0.0015730217096786,"(0.0, 0.0, 0.0, 0.0, 0.0, 0.0, 0.0, 0.0, 0.0, 0.0, 0.0, 0.0, 0.0, 0.0, 0.0, 0.0, 0.0, 0.0, 0.0, 0.0, 0.0, 0.0, 0.0, 0.0, 0.0, 0.0, 0.0, 0.0, 0.0, 0.0, 0.0, 0.0, 0.0, 0.0, 0.0, 0.0)",0.2199999988079071,2.2308046027319502e-05,0.0,0.0,0.0,0.3043576180934906,34.0,1.0,394000000.0,base_footprint,-0.0033446934829616,0.0019213912777422,0.8660908044933381,0.4998718232238592,0.0,0.0,0.0,0.0,0.0,0.0,0.0,0.0,0.0,0.0014025419890693,-0.0008372072012689,0.0016681017019581,0.0,0.0,0.0,0.0,0.0,0.0,0.0,0.0,0.0,-0.375242652951353,-0.6513492193749437,0.0032966379876321,0.0,0.0,0.0,0.0,0.0,0.0,0.0,0.0,0.0
1.446,-0.0018106824570657998,0.0031331130292136,7.482590697893698e-05,0.13345053069815596,4.044370129235851e-05,1.0018964275262179,-1.447065626482987e-05,0.00444390254057136,1.081812292304723e-06,1.3467752530355384e-06,38,1,419000000,odom,base_footprint,-0.0033661704716005,0.0057672753267893,-0.0010023724185779,-0.0033452701316463,0.0019214548669378,0.8661028732153279,0.4998509079586578,"(1e-05, 0.0, 0.0, 0.0, 0.0, 0.0, 0.0, 1e-05, 0.0, 0.0, 0.0, 0.0, 0.0, 0.0, 1000000000000.0, 0.0, 0.0, 0.0, 0.0, 0.0, 0.0, 1000000000000.0, 0.0, 0.0, 0.0, 0.0, 0.0, 0.0, 1000000000000.0, 0.0, 0.0, 0.0, 0.0, 0.0, 0.0, 0.001)",0.0996849725853326,1.6399456845998805e-05,0.0,0.0,0.0,0.0020219195176568,"(0.0, 0.0, 0.0, 0.0, 0.0, 0.0, 0.0, 0.0, 0.0, 0.0, 0.0, 0.0, 0.0, 0.0, 0.0, 0.0, 0.0, 0.0, 0.0, 0.0, 0.0, 0.0, 0.0, 0.0, 0.0, 0.0, 0.0, 0.0, 0.0, 0.0, 0.0, 0.0, 0.0, 0.0, 0.0, 0.0)",0.2199999988079071,2.2308046027319502e-05,0.0,0.0,0.0,0.3043576180934906,35.0,1.0,428000000.0,base_footprint,-0.0033463707878647,0.0019220694073243,0.8661070206582009,0.4998437117923144,0.0,0.0,0.0,0.0,0.0,0.0,0.0,0.0,0.0,0.0008849829606831,-0.0005039424541716,0.0021832090427626,0.0,0.0,0.0,0.0,0.0,0.0,0.0,0.0,0.0,-0.3676811481698047,-0.6383877418907311,0.0035526545695167,0.0,0.0,0.0,0.0,0.0,0.0,0.0,0.0,0.0
1.48,-0.0022107921350575004,0.0038254984538022997,0.0001004434418288014,0.17152822034250573,4.018063940562956e-05,1.143474163493987,-7.899756358226544e-06,0.0057118895662847885,1.3981552587500573e-06,1.3380152922074646e-06,39,1,453000000,odom,base_footprint,-0.0052738348032252,0.009068203599539,-0.0010025611506128,-0.0033467771205862,0.0019220020207617,0.8661228801972589,0.4998162276176534,"(1e-05, 0.0, 0.0, 0.0, 0.0, 0.0, 0.0, 1e-05, 0.0, 0.0, 0.0, 0.0, 0.0, 0.0, 1000000000000.0, 0.0, 0.0, 0.0, 0.0, 0.0, 0.0, 1000000000000.0, 0.0, 0.0, 0.0, 0.0, 0.0, 0.0, 1000000000000.0, 0.0, 0.0, 0.0, 0.0, 0.0, 0.0, 0.001)",0.1237560411585495,9.562514980174242e-06,0.0,0.0,0.0,0.0027119303832455,"(0.0, 0.0, 0.0, 0.0, 0.0, 0.0, 0.0, 0.0, 0.0, 0.0, 0.0, 0.0, 0.0, 0.0, 0.0, 0.0, 0.0, 0.0, 0.0, 0.0, 0.0, 0.0, 0.0, 0.0, 0.0, 0.0, 0.0, 0.0, 0.0, 0.0, 0.0, 0.0, 0.0, 0.0, 0.0, 0.0)",0.2199999988079071,2.058033351204358e-05,0.0,0.0,0.0,0.2887524962425231,36.0,1.0,462000000.0,base_footprint,-0.0033479296376682,0.0019226373349423,0.8661284975610761,0.4998064830966205,0.0,0.0,0.0,0.0,0.0,0.0,0.0,0.0,0.0,0.0008852524322518,-0.0005062097983475,0.0029423048262533,0.0,0.0,0.0,0.0,0.0,0.0,0.0,0.0,0.0,-0.3475983467077664,-0.6030471044283471,0.0026594508976588,0.0,0.0,0.0,0.0,0.0,0.0,0.0,0.0,0.0
1.514,-0.0025653816834925007,0.004438919070844401,0.00010087686069759627,0.1976526474427996,0.031586102734756503,0.7845173303391549,0.9473249878483746,0.006581830898374661,5.076945639083419e-06,0.0010518172210673916,40,1,486000000,odom,base_footprint,-0.0075002134429015,0.0129206537415198,-0.0010027828728342,-0.0033486169057164,0.0019227322750302,0.8661487060447678,0.4997714566503294,"(1e-05, 0.0, 0.0, 0.0, 0.0, 0.0, 0.0, 1e-05, 0.0, 0.0, 0.0, 0.0, 0.0, 0.0, 1000000000000.0, 0.0, 0.0, 0.0, 0.0, 0.0, 0.0, 1000000000000.0, 0.0, 0.0, 0.0, 0.0, 0.0, 0.0, 1000000000000.0, 0.0, 0.0, 0.0, 0.0, 0.0, 0.0, 0.001)",0.1449377017684486,-3.726803046139038e-06,0.0,0.0,0.0,0.0034770643914937,"(0.0, 0.0, 0.0, 0.0, 0.0, 0.0, 0.0, 0.0, 0.0, 0.0, 0.0, 0.0, 0.0, 0.0, 0.0, 0.0, 0.0, 0.0, 0.0, 0.0, 0.0, 0.0, 0.0, 0.0, 0.0, 0.0, 0.0, 0.0, 0.0, 0.0, 0.0, 0.0, 0.0, 0.0, 0.0, 0.0)",0.2199999988079071,2.058033351204358e-05,0.0,0.0,0.0,0.2887524962425231,37.0,1.0,496000000.0,base_footprint,-0.0033497378455259,0.0019234312592915,0.8661565217243113,0.4997579009310406,0.0,0.0,0.0,0.0,0.0,0.0,0.0,0.0,0.0,0.0001683000891361,-0.0001325818431427,0.0034146411696749,0.0,0.0,0.0,0.0,0.0,0.0,0.0,0.0,0.0,-0.3098492927416403,-0.5382141811316714,0.0033227597165581,0.0,0.0,0.0,0.0,0.0,0.0,0.0,0.0,0.0
1.548,-0.0028486794217232984,0.004929527618557299,-0.00014766989335202038,0.21801429108688816,0.2861786726289733,0.6114607700927499,7.645422519345849,0.007259715024128544,4.400995528954243e-05,0.00952974979854481,41,1,519000000,odom,base_footprint,-0.0100489024968702,0.017330697227727,-0.0010030129856721,-0.00335042862433,0.0019241156635492,0.8661687088354767,0.499736770951698,"(1e-05, 0.0, 0.0, 0.0, 0.0, 0.0, 0.0, 1e-05, 0.0, 0.0, 0.0, 0.0, 0.0, 0.0, 1000000000000.0, 0.0, 0.0, 0.0, 0.0, 0.0, 0.0, 1000000000000.0, 0.0, 0.0, 0.0, 0.0, 0.0, 0.0, 1000000000000.0, 0.0, 0.0, 0.0, 0.0, 0.0, 0.0, 0.001)",0.1626049224167182,-2.0338257588917164e-05,0.0,0.0,0.0,-8.091466594441461e-05,"(0.0, 0.0, 0.0, 0.0, 0.0, 0.0, 0.0, 0.0, 0.0, 0.0, 0.0, 0.0, 0.0, 0.0, 0.0, 0.0, 0.0, 0.0, 0.0, 0.0, 0.0, 0.0, 0.0, 0.0, 0.0, 0.0, 0.0, 0.0, 0.0, 0.0, 0.0, 0.0, 0.0, 0.0, 0.0, 0.0)",0.2084210515022277,0.0,0.0,0.0,0.0,0.31991907954216,38.0,1.0,530000000.0,base_footprint,-0.0033509086851693,0.0019246458373198,0.8661644420802479,0.4997441609715889,0.0,0.0,0.0,0.0,0.0,0.0,0.0,0.0,0.0,-8.173857568278341e-05,-6.777688038349562e-05,-0.00322355666362,0.0,0.0,0.0,0.0,0.0,0.0,0.0,0.0,0.0,-0.2492401141720479,-0.4322802152517632,0.0022649639985553,0.0,0.0,0.0,0.0,0.0,0.0,0.0,0.0,0.0
1.582,-0.003034750110602901,0.0052595523688805,-0.0008311410252019868,0.22462098478271134,0.29484278563840255,0.19839921008477998,0.26018357385673463,0.007478922664882899,0.0001176991514074688,0.009818264761758805,41,1,519000000,odom,base_footprint,-0.0100489024968702,0.017330697227727,-0.0010030129856721,-0.00335042862433,0.0019241156635492,0.8661687088354767,0.499736770951698,"(1e-05, 0.0, 0.0, 0.0, 0.0, 0.0, 0.0, 1e-05, 0.0, 0.0, 0.0, 0.0, 0.0, 0.0, 1000000000000.0, 0.0, 0.0, 0.0, 0.0, 0.0, 0.0, 1000000000000.0, 0.0, 0.0, 0.0, 0.0, 0.0, 0.0, 1000000000000.0, 0.0, 0.0, 0.0, 0.0, 0.0, 0.0, 0.001)",0.1626049224167182,-2.0338257588917164e-05,0.0,0.0,0.0,-8.091466594441461e-05,"(0.0, 0.0, 0.0, 0.0, 0.0, 0.0, 0.0, 0.0, 0.0, 0.0, 0.0, 0.0, 0.0, 0.0, 0.0, 0.0, 0.0, 0.0, 0.0, 0.0, 0.0, 0.0, 0.0, 0.0, 0.0, 0.0, 0.0, 0.0, 0.0, 0.0, 0.0, 0.0, 0.0, 0.0, 0.0, 0.0)",0.2084210515022277,0.0,0.0,0.0,0.0,0.31991907954216,39.0,1.0,564000000.0,base_footprint,-0.0033515347708901,0.0019270712393796,0.86606085555888,0.4999236422492327,0.0,0.0,0.0,0.0,0.0,0.0,0.0,0.0,0.0,-6.13664115164737e-05,-0.0002352558352061,-0.0231624486430964,0.0,0.0,0.0,0.0,0.0,0.0,0.0,0.0,0.0,-0.1712682134203788,-0.2908025259672603,0.0013903726726272,0.0,0.0,0.0,0.0,0.0,0.0,0.0,0.0,0.0
1.616,-0.003079933096707498,0.0053466470883352,-0.0008568811546281196,0.20659447125394642,0.3163649668704578,-0.541336742605553,0.6463117487103675,0.006877254494271933,0.00017824852510609366,0.010534953396786246,43,1,586000000,odom,base_footprint,-0.0159016873638145,0.0274689577380312,-0.001003387874014,-0.0033533023526462,0.0019281363067073,0.8658832543027271,0.5002311741303548,"(1e-05, 0.0, 0.0, 0.0, 0.0, 0.0, 0.0, 1e-05, 0.0, 0.0, 0.0, 0.0, 0.0, 0.0, 1000000000000.0, 0.0, 0.0, 0.0, 0.0, 0.0, 0.0, 1000000000000.0, 0.0, 0.0, 0.0, 0.0, 0.0, 0.0, 1000000000000.0, 0.0, 0.0, 0.0, 0.0, 0.0, 0.0, 0.001)",0.1818670078804257,-5.725330185349376e-05,0.0,0.0,0.0,-0.0305231002530377,"(0.0, 0.0, 0.0, 0.0, 0.0, 0.0, 0.0, 0.0, 0.0, 0.0, 0.0, 0.0, 0.0, 0.0, 0.0, 0.0, 0.0, 0.0, 0.0, 0.0, 0.0, 0.0, 0.0, 0.0, 0.0, 0.0, 0.0, 0.0, 0.0, 0.0, 0.0, 0.0, 0.0, 0.0, 0.0, 0.0)",0.2084210515022277,0.0,0.0,0.0,0.0,0.31991907954216,40.0,1.0,598000000.0,base_footprint,-0.0033556022634035,0.0019251777927106,0.8658119853470064,0.5003545139732342,0.0,0.0,0.0,0.0,0.0,0.0,0.0,0.0,0.0,-1.881717953196039e-05,0.0008071221873264,-0.0229276011387169,0.0,0.0,0.0,0.0,0.0,0.0,0.0,0.0,0.0,-0.0503736667615098,-0.0758619909497308,0.0005040608312352,0.0,0.0,0.0,0.0,0.0,0.0,0.0,0.0,0.0
1.65,-0.003073685522906003,0.0053215492069213985,-0.0001295166806767334,0.20668558294358297,0.31520352800941226,0.0027360867758722865,-0.03487804387524106,0.006878032127739242,0.00025066640866692634,0.01049627748271343,43,1,586000000,odom,base_footprint,-0.0159016873638145,0.0274689577380312,-0.001003387874014,-0.0033533023526462,0.0019281363067073,0.8658832543027271,0.5002311741303548,"(1e-05, 0.0, 0.0, 0.0, 0.0, 0.0, 0.0, 1e-05, 0.0, 0.0, 0.0, 0.0, 0.0, 0.0, 1000000000000.0, 0.0, 0.0, 0.0, 0.0, 0.0, 0.0, 1000000000000.0, 0.0, 0.0, 0.0, 0.0, 0.0, 0.0, 1000000000000.0, 0.0, 0.0, 0.0, 0.0, 0.0, 0.0, 0.001)",0.1818670078804257,-5.725330185349376e-05,0.0,0.0,0.0,-0.0305231002530377,"(0.0, 0.0, 0.0, 0.0, 0.0, 0.0, 0.0, 0.0, 0.0, 0.0, 0.0, 0.0, 0.0, 0.0, 0.0, 0.0, 0.0, 0.0, 0.0, 0.0, 0.0, 0.0, 0.0, 0.0, 0.0, 0.0, 0.0, 0.0, 0.0, 0.0, 0.0, 0.0, 0.0, 0.0, 0.0, 0.0)",0.2084210515022277,0.0001210396876558,0.0,0.0,0.0,0.2987614572048187,41.0,1.0,632000000.0,base_footprint,-0.0033494031583471,0.0019174540970552,0.8656390554702312,0.5006537031850206,0.0,0.0,0.0,0.0,0.0,0.0,0.0,0.0,0.0,-0.0006539808876647,-8.800593285321427e-05,-0.0099243107999933,0.0,0.0,0.0,0.0,0.0,0.0,0.0,0.0,0.0,0.0186073993626557,0.0192960738120942,0.0004866662668956,0.0,0.0,0.0,0.0,0.0,0.0,0.0,0.0,0.0
1.6840000000000002,-0.003104414928917599,0.005375300941764201,0.0023412844095638263,0.2127961505169637,0.3267126565588259,0.18350052772915143,0.34561947595836817,0.007078212974188686,0.00033374604751547116,0.010879531463408905,45,1,653000000,odom,base_footprint,-0.0219628952959132,0.0379760829286433,-0.0010025944195531,-0.0033493674904099,0.0019210161202606,0.8657114917758305,0.500528425208545,"(1e-05, 0.0, 0.0, 0.0, 0.0, 0.0, 0.0, 1e-05, 0.0, 0.0, 0.0, 0.0, 0.0, 0.0, 1000000000000.0, 0.0, 0.0, 0.0, 0.0, 0.0, 0.0, 1000000000000.0, 0.0, 0.0, 0.0, 0.0, 0.0, 0.0, 1000000000000.0, 0.0, 0.0, 0.0, 0.0, 0.0, 0.0, 0.001)",0.1809034820167061,0.0001403589991871,0.0,0.0,0.0,0.0389503517043975,"(0.0, 0.0, 0.0, 0.0, 0.0, 0.0, 0.0, 0.0, 0.0, 0.0, 0.0, 0.0, 0.0, 0.0, 0.0, 0.0, 0.0, 0.0, 0.0, 0.0, 0.0, 0.0, 0.0, 0.0, 0.0, 0.0, 0.0, 0.0, 0.0, 0.0, 0.0, 0.0, 0.0, 0.0, 0.0, 0.0)",0.2084210515022277,0.0001210396876558,0.0,0.0,0.0,0.2987614572048187,42.0,1.0,666000000.0,base_footprint,-0.0033490498061325,0.0019196541186432,0.8658715642681085,0.5002514697483254,0.0,0.0,0.0,0.0,0.0,0.0,0.0,0.0,0.0,-0.000540136090699,0.0011258656406062,0.0654103437143209,0.0,0.0,0.0,0.0,0.0,0.0,0.0,0.0,0.0,-0.0224018733993543,-0.0351118433813592,-0.0013901848733479,0.0,0.0,0.0,0.0,0.0,0.0,0.0,0.0,0.0
1.718,-0.003246803933184099,0.005580872545165601,0.004944844634004131,0.20638743304295637,0.2980142142288008,-0.19245397819841864,-0.8618150849857389,0.006861307957938581,0.00039508435606326077,0.009923873333819068,46,1,686000000,odom,base_footprint,-0.0249850771924208,0.0432068624262495,-0.0010021216579665,-0.0033473160188613,0.0019175299084441,0.8663443846622718,0.4994322033256061,"(1e-05, 0.0, 0.0, 0.0, 0.0, 0.0, 0.0, 1e-05, 0.0, 0.0, 0.0, 0.0, 0.0, 0.0, 1000000000000.0, 0.0, 0.0, 0.0, 0.0, 0.0, 0.0, 1000000000000.0, 0.0, 0.0, 0.0, 0.0, 0.0, 0.0, 1000000000000.0, 0.0, 0.0, 0.0, 0.0, 0.0, 0.0, 0.001)",0.1859354670511218,7.988027661144648e-05,0.0,0.0,0.0,0.1124741503754066,"(0.0, 0.0, 0.0, 0.0, 0.0, 0.0, 0.0, 0.0, 0.0, 0.0, 0.0, 0.0, 0.0, 0.0, 0.0, 0.0, 0.0, 0.0, 0.0, 0.0, 0.0, 0.0, 0.0, 0.0, 0.0, 0.0, 0.0, 0.0, 0.0, 0.0, 0.0, 0.0, 0.0, 0.0, 0.0, 0.0)",0.2084210515022277,0.0001210396876558,0.0,0.0,0.0,0.2987614572048187,43.0,1.0,700000000.0,base_footprint,-0.0033486784488307,0.0019145363135895,0.8667593471282237,0.4987116953403097,0.0,0.0,0.0,0.0,0.0,0.0,0.0,0.0,0.0,-0.000349624335767,0.001276790861596,0.1411607541048284,0.0,0.0,0.0,0.0,0.0,0.0,0.0,0.0,0.0,-0.0890017295483864,-0.1913018620851633,0.0005208249378899,0.0,0.0,0.0,0.0,0.0,0.0,0.0,0.0,0.0
1.752,-0.003468622952442303,0.005879182272720503,0.008315918516424325,0.20628404873559317,0.2993117697878546,-0.0031046338547508216,0.038965632404018284,0.006853604290896512,0.0004630705809571442,0.00996708193393556,47,1,719000000,odom,base_footprint,-0.0281500216902829,0.0486430837829082,-0.0010024395468806,-0.0033540208006989,0.001908875478019,0.867588717240076,0.4972674576690065,"(1e-05, 0.0, 0.0, 0.0, 0.0, 0.0, 0.0, 1e-05, 0.0, 0.0, 0.0, 0.0, 0.0, 0.0, 1000000000000.0, 0.0, 0.0, 0.0, 0.0, 0.0, 0.0, 1000000000000.0, 0.0, 0.0, 0.0, 0.0, 0.0, 0.0, 1000000000000.0, 0.0, 0.0, 0.0, 0.0, 0.0, 0.0, 0.001)",0.1956388749704425,-7.769773094870591e-05,0.0,0.0,0.0,0.1908911452685171,"(0.0, 0.0, 0.0, 0.0, 0.0, 0.0, 0.0, 0.0, 0.0, 0.0, 0.0, 0.0, 0.0, 0.0, 0.0, 0.0, 0.0, 0.0, 0.0, 0.0, 0.0, 0.0, 0.0, 0.0, 0.0, 0.0, 0.0, 0.0, 0.0, 0.0, 0.0, 0.0, 0.0, 0.0, 0.0, 0.0)",0.2199999988079071,0.0001403589994879,0.0,0.0,0.0,0.3261298239231109,44.0,1.0,734000000.0,base_footprint,-0.0033628734309094,0.0019027623998091,0.8683258860911877,0.4959790581481153,0.0,0.0,0.0,0.0,0.0,0.0,0.0,0.0,0.0,-0.0006543103446823,0.0016984397149573,0.2345651788236413,0.0,0.0,0.0,0.0,0.0,0.0,0.0,0.0,0.0,-0.1304102942845938,-0.3050480164054764,0.0020478904621326,0.0,0.0,0.0,0.0,0.0,0.0,0.0,0.0,0.0
1.786,-0.0035996686838013006,0.005988413025155702,0.005412307882835421,0.2122688683935218,0.3098421926871486,0.1797243140519108,0.31622891589471336,0.007047246952993495,0.0005480083364473272,0.010317745016482048,48,1,753000000,odom,base_footprint,-0.0316314270000261,0.0545375267621766,-0.0010034834162472,-0.003370151451214,0.0018997679131915,0.8697036794093415,0.4935590572392785,"(1e-05, 0.0, 0.0, 0.0, 0.0, 0.0, 0.0, 1e-05, 0.0, 0.0, 0.0, 0.0, 0.0, 0.0, 1000000000000.0, 0.0, 0.0, 0.0, 0.0, 0.0, 0.0, 1000000000000.0, 0.0, 0.0, 0.0, 0.0, 0.0, 0.0, 1000000000000.0, 0.0, 0.0, 0.0, 0.0, 0.0, 0.0, 0.001)",0.2052917625730468,-0.0001410929362079,0.0,0.0,0.0,0.3007649162526312,"(0.0, 0.0, 0.0, 0.0, 0.0, 0.0, 0.0, 0.0, 0.0, 0.0, 0.0, 0.0, 0.0, 0.0, 0.0, 0.0, 0.0, 0.0, 0.0, 0.0, 0.0, 0.0, 0.0, 0.0, 0.0, 0.0, 0.0, 0.0, 0.0, 0.0, 0.0, 0.0, 0.0, 0.0, 0.0, 0.0)",0.2199999988079071,0.0001403589994879,0.0,0.0,0.0,0.3261298239231109,45.0,1.0,768000000.0,base_footprint,-0.0033606050243034,0.0018944674164062,0.8704295932755164,0.4922778082315899,0.0,0.0,0.0,0.0,0.0,0.0,0.0,0.0,0.0,-0.0009978488715903,0.0025499755611764,0.1389055148981975,0.0,0.0,0.0,0.0,0.0,0.0,0.0,0.0,0.0,0.0027776387857026,-0.106490398809886,0.0035432182684589,0.0,0.0,0.0,0.0,0.0,0.0,0.0,0.0,0.0
1.82,-0.0037455671661763973,0.006160800526665296,0.007781074522295484,0.21854508195196465,0.31978447408688143,0.2692392551522412,7.931643704859142,0.007248100285186258,0.0006536770317467583,0.010648822987093153,48,1,753000000,odom,base_footprint,-0.0316314270000261,0.0545375267621766,-0.0010034834162472,-0.003370151451214,0.0018997679131915,0.8697036794093415,0.4935590572392785,"(1e-05, 0.0, 0.0, 0.0, 0.0, 0.0, 0.0, 1e-05, 0.0, 0.0, 0.0, 0.0, 0.0, 0.0, 1000000000000.0, 0.0, 0.0, 0.0, 0.0, 0.0, 0.0, 1000000000000.0, 0.0, 0.0, 0.0, 0.0, 0.0, 0.0, 1000000000000.0, 0.0, 0.0, 0.0, 0.0, 0.0, 0.0, 0.001)",0.2052917625730468,-0.0001410929362079,0.0,0.0,0.0,0.3007649162526312,"(0.0, 0.0, 0.0, 0.0, 0.0, 0.0, 0.0, 0.0, 0.0, 0.0, 0.0, 0.0, 0.0, 0.0, 0.0, 0.0, 0.0, 0.0, 0.0, 0.0, 0.0, 0.0, 0.0, 0.0, 0.0, 0.0, 0.0, 0.0, 0.0, 0.0, 0.0, 0.0, 0.0, 0.0, 0.0, 0.0)",0.2199999988079071,0.0001403589994879,0.0,0.0,0.0,0.3261298239231109,46.0,1.0,802000000.0,base_footprint,-0.0033648567245603,0.0018821907603585,0.8715432915297491,0.4903034020753433,0.0,0.0,0.0,0.0,0.0,0.0,0.0,0.0,0.0,-0.0001717972820162,0.0022374848079393,0.2355819900100501,0.0,0.0,0.0,0.0,0.0,0.0,0.0,0.0,0.0,-0.0765170183288454,-0.1883773905454771,-0.0028793331941891,0.0,0.0,0.0,0.0,0.0,0.0,0.0,0.0,0.0
1.854,-0.0038951130602620995,0.006264415025632894,0.011181712373163231,0.22448973571783618,0.3357461197449298,0.17851813110725304,0.47932869843989073,0.007437480561703217,0.0007526776325553087,0.011180345787506164,50,1,819000000,odom,base_footprint,-0.0387664544447303,0.0663341021893544,-0.0010026406451981,-0.0033751841365468,0.0018753698576246,0.8727938284488641,0.4880737896481602,"(1e-05, 0.0, 0.0, 0.0, 0.0, 0.0, 0.0, 1e-05, 0.0, 0.0, 0.0, 0.0, 0.0, 0.0, 1000000000000.0, 0.0, 0.0, 0.0, 0.0, 0.0, 0.0, 1000000000000.0, 0.0, 0.0, 0.0, 0.0, 0.0, 0.0, 1000000000000.0, 0.0, 0.0, 0.0, 0.0, 0.0, 0.0, 0.001)",0.2175177383260206,-0.0001209857566749,0.0,0.0,0.0,0.3220807665719986,"(0.0, 0.0, 0.0, 0.0, 0.0, 0.0, 0.0, 0.0, 0.0, 0.0, 0.0, 0.0, 0.0, 0.0, 0.0, 0.0, 0.0, 0.0, 0.0, 0.0, 0.0, 0.0, 0.0, 0.0, 0.0, 0.0, 0.0, 0.0, 0.0, 0.0, 0.0, 0.0, 0.0, 0.0, 0.0, 0.0)",0.2199999988079071,0.0,0.0,0.0,0.0,0.3415060937404632,47.0,1.0,836000000.0,base_footprint,-0.0033791948055323,0.0018676815367433,0.8740740449210499,0.4857773737047642,0.0,0.0,0.0,0.0,0.0,0.0,0.0,0.0,0.0,-0.0010011069850976,0.0019726778599768,0.3292672866485775,0.0,0.0,0.0,0.0,0.0,0.0,0.0,0.0,0.0,-0.0206044335009394,-0.1972493232836136,0.0022850072489609,0.0,0.0,0.0,0.0,0.0,0.0,0.0,0.0,0.0
1.888,-0.003966611053398898,0.006219762267206705,0.011694633255968865,0.2180489944163857,0.3408148294313635,-0.19341565469821245,0.15221350409710785,0.007215400140410759,0.0008124121878473289,0.011349133820064404,52,1,886000000,odom,base_footprint,-0.0465104283876486,0.0786359393596445,-0.0010024135633614,-0.0033939916341576,0.001840393629257,0.8782369789296147,0.4782101030014528,"(1e-05, 0.0, 0.0, 0.0, 0.0, 0.0, 0.0, 1e-05, 0.0, 0.0, 0.0, 0.0, 0.0, 0.0, 1000000000000.0, 0.0, 0.0, 0.0, 0.0, 0.0, 0.0, 1000000000000.0, 0.0, 0.0, 0.0, 0.0, 0.0, 0.0, 1000000000000.0, 0.0, 0.0, 0.0, 0.0, 0.0, 0.0, 0.001)",0.2170585993923557,-0.0001047258260073,0.0,0.0,0.0,0.3443171738533186,"(0.0, 0.0, 0.0, 0.0, 0.0, 0.0, 0.0, 0.0, 0.0, 0.0, 0.0, 0.0, 0.0, 0.0, 0.0, 0.0, 0.0, 0.0, 0.0, 0.0, 0.0, 0.0, 0.0, 0.0, 0.0, 0.0, 0.0, 0.0, 0.0, 0.0, 0.0, 0.0, 0.0, 0.0, 0.0, 0.0)",0.2199999988079071,0.0,0.0,0.0,0.0,0.3415060937404632,48.0,1.0,870000000.0,base_footprint,-0.0033887056758488,0.0018494649437803,0.8768335644002718,0.4807785316488025,0.0,0.0,0.0,0.0,0.0,0.0,0.0,0.0,0.0,-0.00161181965181,0.0021907765764137,0.3445629412292813,0.0,0.0,0.0,0.0,0.0,0.0,0.0,0.0,0.0,0.0647816274258753,-0.0334270360891319,0.0010646459770499,0.0,0.0,0.0,0.0,0.0,0.0,0.0,0.0,0.0
1.9220000000000002,-0.0040424590460133025,0.006178112519074297,0.011700397650549197,0.218220489527111,0.34097478907895423,0.00515000332508443,0.004803593020743126,0.007211380348011939,0.0008949691767892648,0.011354460476329178,52,1,886000000,odom,base_footprint,-0.0465104283876486,0.0786359393596445,-0.0010024135633614,-0.0033939916341576,0.001840393629257,0.8782369789296147,0.4782101030014528,"(1e-05, 0.0, 0.0, 0.0, 0.0, 0.0, 0.0, 1e-05, 0.0, 0.0, 0.0, 0.0, 0.0, 0.0, 1000000000000.0, 0.0, 0.0, 0.0, 0.0, 0.0, 0.0, 1000000000000.0, 0.0, 0.0, 0.0, 0.0, 0.0, 0.0, 1000000000000.0, 0.0, 0.0, 0.0, 0.0, 0.0, 0.0, 0.001)",0.2170585993923557,-0.0001047258260073,0.0,0.0,0.0,0.3443171738533186,"(0.0, 0.0, 0.0, 0.0, 0.0, 0.0, 0.0, 0.0, 0.0, 0.0, 0.0, 0.0, 0.0, 0.0, 0.0, 0.0, 0.0, 0.0, 0.0, 0.0, 0.0, 0.0, 0.0, 0.0, 0.0, 0.0, 0.0, 0.0, 0.0, 0.0, 0.0, 0.0, 0.0, 0.0, 0.0, 0.0)",0.2199999988079071,0.0,0.0,0.0,0.0,0.3415060937404632,49.0,1.0,904000000.0,base_footprint,-0.0033996577542242,0.0018316468111676,0.8796323374434483,0.4756385584883641,0.0,0.0,0.0,0.0,0.0,0.0,0.0,0.0,0.0,-0.0015967361229457,0.0021060258190567,0.3441983751392204,0.0,0.0,0.0,0.0,0.0,0.0,0.0,0.0,0.0,0.0661285082329878,-0.0358279782445229,0.0003557881289083,0.0,0.0,0.0,0.0,0.0,0.0,0.0,0.0,0.0
1.956,-0.004117647915748902,0.0061363476501013065,0.011650113010660322,0.2249999805738627,0.35082281741760246,0.2035883197222728,0.295736586746193,0.007424293220351318,0.0010083542401592457,0.011682399820006163,53,1,919000000,odom,base_footprint,-0.0504307560634441,0.0846341390498343,-0.0010026466802525,-0.0034053126849911,0.0018236967857407,0.8809382377407011,0.473215489245501,"(1e-05, 0.0, 0.0, 0.0, 0.0, 0.0, 0.0, 1e-05, 0.0, 0.0, 0.0, 0.0, 0.0, 0.0, 1000000000000.0, 0.0, 0.0, 0.0, 0.0, 0.0, 0.0, 1000000000000.0, 0.0, 0.0, 0.0, 0.0, 0.0, 0.0, 1000000000000.0, 0.0, 0.0, 0.0, 0.0, 0.0, 0.0, 0.001)",0.2172422364749291,-0.0001103918548319,0.0,0.0,0.0,0.3440563969598166,"(0.0, 0.0, 0.0, 0.0, 0.0, 0.0, 0.0, 0.0, 0.0, 0.0, 0.0, 0.0, 0.0, 0.0, 0.0, 0.0, 0.0, 0.0, 0.0, 0.0, 0.0, 0.0, 0.0, 0.0, 0.0, 0.0, 0.0, 0.0, 0.0, 0.0, 0.0, 0.0, 0.0, 0.0, 0.0, 0.0)",0.2199999988079071,0.0,0.0,0.0,0.0,0.2704710066318512,50.0,1.0,938000000.0,base_footprint,-0.0034117326937775,0.0018145341797325,0.8823986427522109,0.4704866659266689,0.0,0.0,0.0,0.0,0.0,0.0,0.0,0.0,0.0,-0.0015968681018172,0.00201739879027,0.3438037263659996,0.0,0.0,0.0,0.0,0.0,0.0,0.0,0.0,0.0,0.0665346314545796,-0.0335727324529757,0.0003185403522902,0.0,0.0,0.0,0.0,0.0,0.0,0.0,0.0,0.0
1.9900000000000002,-0.004197120631853596,0.006113188705679895,0.00929099600723182,0.21843363311936762,0.26950488535702694,-0.1971876112460985,-2.4419799417590244,0.007197146074541154,0.0010533192132395244,0.008974512682388998,54,1,953000000,odom,base_footprint,-0.0545437931858004,0.0907724299872837,-0.0010029515943918,-0.0034174569789177,0.0018063543772413,0.8836884691394638,0.4680595555926746,"(1e-05, 0.0, 0.0, 0.0, 0.0, 0.0, 0.0, 1e-05, 0.0, 0.0, 0.0, 0.0, 0.0, 0.0, 1000000000000.0, 0.0, 0.0, 0.0, 0.0, 0.0, 0.0, 1000000000000.0, 0.0, 0.0, 0.0, 0.0, 0.0, 0.0, 1000000000000.0, 0.0, 0.0, 0.0, 0.0, 0.0, 0.0, 0.001)",0.2174067819410125,-0.000126175853868,0.0,0.0,0.0,0.3433695069258577,"(0.0, 0.0, 0.0, 0.0, 0.0, 0.0, 0.0, 0.0, 0.0, 0.0, 0.0, 0.0, 0.0, 0.0, 0.0, 0.0, 0.0, 0.0, 0.0, 0.0, 0.0, 0.0, 0.0, 0.0, 0.0, 0.0, 0.0, 0.0, 0.0, 0.0, 0.0, 0.0, 0.0, 0.0, 0.0, 0.0)",0.2199999988079071,0.0,0.0,0.0,0.0,0.2704710066318512,51.0,1.0,972000000.0,base_footprint,-0.0034235103271117,0.0017999902765267,0.8848732079784395,0.4658158921870206,0.0,0.0,0.0,0.0,0.0,0.0,0.0,0.0,0.0,-0.0019621572638102,0.0021688263468457,0.2703911868315816,0.0,0.0,0.0,0.0,0.0,0.0,0.0,0.0,0.0,0.0576529471215932,-0.0472044810805915,0.0011741476330607,0.0,0.0,0.0,0.0,0.0,0.0,0.0,0.0,0.0
2.024,-0.004250448745554795,0.0060735605298523065,0.009107162077323759,0.2184484301192471,0.26621301754270815,0.0004443543507356192,-0.09885488931888237,0.007187952074536043,0.0011175486569115762,0.008864893484172182,54,1,953000000,odom,base_footprint,-0.0545437931858004,0.0907724299872837,-0.0010029515943918,-0.0034174569789177,0.0018063543772413,0.8836884691394638,0.4680595555926746,"(1e-05, 0.0, 0.0, 0.0, 0.0, 0.0, 0.0, 1e-05, 0.0, 0.0, 0.0, 0.0, 0.0, 0.0, 1000000000000.0, 0.0, 0.0, 0.0, 0.0, 0.0, 0.0, 1000000000000.0, 0.0, 0.0, 0.0, 0.0, 0.0, 0.0, 1000000000000.0, 0.0, 0.0, 0.0, 0.0, 0.0, 0.0, 0.001)",0.2174067819410125,-0.000126175853868,0.0,0.0,0.0,0.3433695069258577,"(0.0, 0.0, 0.0, 0.0, 0.0, 0.0, 0.0, 0.0, 0.0, 0.0, 0.0, 0.0, 0.0, 0.0, 0.0, 0.0, 0.0, 0.0, 0.0, 0.0, 0.0, 0.0, 0.0, 0.0, 0.0, 0.0, 0.0, 0.0, 0.0, 0.0, 0.0, 0.0, 0.0, 0.0, 0.0, 0.0)",0.2199999988079071,0.0,0.0,0.0,0.0,0.2704710066318512,52.0,2.0,6000000.0,base_footprint,-0.0034345412010178,0.0017848230806407,0.8870000546264318,0.4617530957405874,0.0,0.0,0.0,0.0,0.0,0.0,0.0,0.0,0.0,-0.0011641400345186,0.0017040770534169,0.2682333979451162,0.0,0.0,0.0,0.0,0.0,0.0,0.0,0.0,0.0,0.0525520030389067,-0.0176289806337868,-0.0005503903337029,0.0,0.0,0.0,0.0,0.0,0.0,0.0,0.0,0.0
2.058,-0.004295309012273804,0.006017190111777995,0.008658825234703738,0.22500450516950776,0.2715211239735099,0.19687913063845797,0.15940259551957242,0.007393073328190824,0.0012173284930370855,0.009041653428317881,56,2,19000000,odom,base_footprint,-0.0627331601828102,0.1026071780954785,-0.0010036769461849,-0.0034384305342448,0.0017783820503326,0.8878621411083074,0.4600932872139258,"(1e-05, 0.0, 0.0, 0.0, 0.0, 0.0, 0.0, 1e-05, 0.0, 0.0, 0.0, 0.0, 0.0, 0.0, 1000000000000.0, 0.0, 0.0, 0.0, 0.0, 0.0, 0.0, 1000000000000.0, 0.0, 0.0, 0.0, 0.0, 0.0, 0.0, 1000000000000.0, 0.0, 0.0, 0.0, 0.0, 0.0, 0.0, 0.001)",0.2179900324318119,-0.0001456099298788,0.0,0.0,0.0,0.2660518432180053,"(0.0, 0.0, 0.0, 0.0, 0.0, 0.0, 0.0, 0.0, 0.0, 0.0, 0.0, 0.0, 0.0, 0.0, 0.0, 0.0, 0.0, 0.0, 0.0, 0.0, 0.0, 0.0, 0.0, 0.0, 0.0, 0.0, 0.0, 0.0, 0.0, 0.0, 0.0, 0.0, 0.0, 0.0, 0.0, 0.0)",0.2199999988079071,0.0,0.0,0.0,0.0,0.1593851596117019,53.0,2.0,40000000.0,base_footprint,-0.003443056085875,0.0017656759156852,0.8890689557429611,0.457756943898693,0.0,0.0,0.0,0.0,0.0,0.0,0.0,0.0,0.0,-0.0012120619471932,0.0022685818721493,0.2587273630944996,0.0,0.0,0.0,0.0,0.0,0.0,0.0,0.0,0.0,0.0641362431976859,-0.0065801822695707,0.0006739398084603,0.0,0.0,0.0,0.0,0.0,0.0,0.0,0.0,0.0
2.092,-0.0043606168014102,0.006017232324364102,0.005356478053031299,0.21810174967803023,0.15378718007378003,-0.2072899546990251,-3.535553870862759,0.007157747453358173,0.0012307028421634642,0.0051211130964568755,58,2,86000000,odom,base_footprint,-0.0712485024038963,0.1144692230847154,-0.0010044448600881,-0.0034581870065813,0.0017499939259121,0.8911309102427579,0.4537297425492413,"(1e-05, 0.0, 0.0, 0.0, 0.0, 0.0, 0.0, 1e-05, 0.0, 0.0, 0.0, 0.0, 0.0, 0.0, 1000000000000.0, 0.0, 0.0, 0.0, 0.0, 0.0, 0.0, 1000000000000.0, 0.0, 0.0, 0.0, 0.0, 0.0, 0.0, 1000000000000.0, 0.0, 0.0, 0.0, 0.0, 0.0, 0.0, 0.001)",0.2185866204853477,-0.000173027837482,0.0,0.0,0.0,0.1514764683804705,"(0.0, 0.0, 0.0, 0.0, 0.0, 0.0, 0.0, 0.0, 0.0, 0.0, 0.0, 0.0, 0.0, 0.0, 0.0, 0.0, 0.0, 0.0, 0.0, 0.0, 0.0, 0.0, 0.0, 0.0, 0.0, 0.0, 0.0, 0.0, 0.0, 0.0, 0.0, 0.0, 0.0, 0.0, 0.0, 0.0)",0.2199999988079071,0.0,0.0,0.0,0.0,0.1593851596117019,54.0,2.0,74000000.0,base_footprint,-0.0034484223146743,0.0017485852746039,0.8907068869291108,0.4545616486353959,0.0,0.0,0.0,0.0,0.0,0.0,0.0,0.0,0.0,0.0010977219617393,0.001172738769003,0.1394841795926898,0.0,0.0,0.0,0.0,0.0,0.0,0.0,0.0,0.0,0.0355533535761042,-0.0447446816004687,-0.0027235490425228,0.0,0.0,0.0,0.0,0.0,0.0,0.0,0.0,0.0
2.126,-0.004392090380199998,0.005996472434473793,0.005183547102374674,0.21799817719517667,0.1507820585604212,-0.003110284770377144,-0.09024388929005486,0.00714801868466617,0.0012663827428705658,0.005021042550062027,58,2,86000000,odom,base_footprint,-0.0712485024038963,0.1144692230847154,-0.0010044448600881,-0.0034581870065813,0.0017499939259121,0.8911309102427579,0.4537297425492413,"(1e-05, 0.0, 0.0, 0.0, 0.0, 0.0, 0.0, 1e-05, 0.0, 0.0, 0.0, 0.0, 0.0, 0.0, 1000000000000.0, 0.0, 0.0, 0.0, 0.0, 0.0, 0.0, 1000000000000.0, 0.0, 0.0, 0.0, 0.0, 0.0, 0.0, 1000000000000.0, 0.0, 0.0, 0.0, 0.0, 0.0, 0.0, 0.001)",0.2185866204853477,-0.000173027837482,0.0,0.0,0.0,0.1514764683804705,"(0.0, 0.0, 0.0, 0.0, 0.0, 0.0, 0.0, 0.0, 0.0, 0.0, 0.0, 0.0, 0.0, 0.0, 0.0, 0.0, 0.0, 0.0, 0.0, 0.0, 0.0, 0.0, 0.0, 0.0, 0.0, 0.0, 0.0, 0.0, 0.0, 0.0, 0.0, 0.0, 0.0, 0.0, 0.0, 0.0)",0.2199999988079071,0.0,0.0,0.0,0.0,0.1593851596117019,55.0,2.0,108000000.0,base_footprint,-0.0034615098029671,0.0017422170359205,0.8918553451687883,0.4523041298988385,0.0,0.0,0.0,0.0,0.0,0.0,0.0,0.0,0.0,-0.0004601326517367,0.0011817015536633,0.1514641941850673,0.0,0.0,0.0,0.0,0.0,0.0,0.0,0.0,0.0,0.0284671673423762,-0.0072683407843718,0.002643425836597,0.0,0.0,0.0,0.0,0.0,0.0,0.0,0.0,0.0
2.16,-0.00442039802532361,0.005968390361859699,0.005422806398236001,0.22445088908938515,0.15762082495381244,0.19377513195821275,0.20536836016189886,0.007352805965230091,0.0013416408506151541,0.005248773470961954,59,2,119000000,odom,base_footprint,-0.0755071745883612,0.1202942954000996,-0.0010044457293153,-0.0034638234645331,0.0017381754179781,0.8922699151813693,0.4514857463258999,"(1e-05, 0.0, 0.0, 0.0, 0.0, 0.0, 0.0, 1e-05, 0.0, 0.0, 0.0, 0.0, 0.0, 0.0, 1000000000000.0, 0.0, 0.0, 0.0, 0.0, 0.0, 0.0, 1000000000000.0, 0.0, 0.0, 0.0, 0.0, 0.0, 0.0, 1000000000000.0, 0.0, 0.0, 0.0, 0.0, 0.0, 0.0, 0.001)",0.2185188506866144,-7.355214422502532e-05,0.0,0.0,0.0,0.1530592588249004,"(0.0, 0.0, 0.0, 0.0, 0.0, 0.0, 0.0, 0.0, 0.0, 0.0, 0.0, 0.0, 0.0, 0.0, 0.0, 0.0, 0.0, 0.0, 0.0, 0.0, 0.0, 0.0, 0.0, 0.0, 0.0, 0.0, 0.0, 0.0, 0.0, 0.0, 0.0, 0.0, 0.0, 0.0, 0.0, 0.0)",0.2199999988079071,0.0,0.0,0.0,0.0,0.2253226190805435,56.0,2.0,142000000.0,base_footprint,-0.0034654137891105,0.0017297442724875,0.893034565319919,0.4499714035756999,0.0,0.0,0.0,0.0,0.0,0.0,0.0,0.0,0.0,-0.000981426714972,0.0011936873441497,0.1555660626175105,0.0,0.0,0.0,0.0,0.0,0.0,0.0,0.0,0.0,0.0318830113697288,-0.0031064610015451,0.0011016113250815,0.0,0.0,0.0,0.0,0.0,0.0,0.0,0.0,0.0
2.194,-0.004461458423738587,0.0059431775312903945,0.007303172882209719,0.21781321075696952,0.22085132277424716,-0.19932967965212103,1.8988137483614027,0.007127007783877405,0.001346900834165138,0.007354349048382431,60,2,153000000,odom,base_footprint,-0.0799192347039018,0.1262655970295808,-0.001003833347506,-0.0034645210756768,0.0017261829453502,0.8934583173293461,0.4491294385599421,"(1e-05, 0.0, 0.0, 0.0, 0.0, 0.0, 0.0, 1e-05, 0.0, 0.0, 0.0, 0.0, 0.0, 0.0, 1000000000000.0, 0.0, 0.0, 0.0, 0.0, 0.0, 0.0, 1000000000000.0, 0.0, 0.0, 0.0, 0.0, 0.0, 0.0, 1000000000000.0, 0.0, 0.0, 0.0, 0.0, 0.0, 0.0, 0.001)",0.218146851725388,5.79708486290742e-05,0.0,0.0,0.0,0.1584733539984749,"(0.0, 0.0, 0.0, 0.0, 0.0, 0.0, 0.0, 0.0, 0.0, 0.0, 0.0, 0.0, 0.0, 0.0, 0.0, 0.0, 0.0, 0.0, 0.0, 0.0, 0.0, 0.0, 0.0, 0.0, 0.0, 0.0, 0.0, 0.0, 0.0, 0.0, 0.0, 0.0, 0.0, 0.0, 0.0, 0.0)",0.2199999988079071,0.0,0.0,0.0,0.0,0.2253226190805435,57.0,2.0,176000000.0,base_footprint,-0.0034657056576524,0.0017200663087784,0.8944355559569465,0.4471801275729681,0.0,0.0,0.0,0.0,0.0,0.0,0.0,0.0,0.0,-0.001837975852115,0.001589583734755,0.2106340495095957,0.0,0.0,0.0,0.0,0.0,0.0,0.0,0.0,0.0,0.0338943666889182,-0.0260349195527263,0.0013307840792035,0.0,0.0,0.0,0.0,0.0,0.0,0.0,0.0,0.0
2.228,-0.004474109302371812,0.005868299158070911,0.007929405414622613,0.21763840508173696,0.22472491560789826,-0.0052494196766535856,0.1163241091186517,0.007111107136127343,0.0013986139758857118,0.007483339689743013,62,2,219000000,odom,base_footprint,-0.0885792072764,0.1377485671748921,-0.0010036891906213,-0.0034756265721759,0.0017003904646781,0.8966878710258444,0.4426464623684878,"(1e-05, 0.0, 0.0, 0.0, 0.0, 0.0, 0.0, 1e-05, 0.0, 0.0, 0.0, 0.0, 0.0, 0.0, 1000000000000.0, 0.0, 0.0, 0.0, 0.0, 0.0, 0.0, 1000000000000.0, 0.0, 0.0, 0.0, 0.0, 0.0, 0.0, 1000000000000.0, 0.0, 0.0, 0.0, 0.0, 0.0, 0.0, 0.001)",0.217565960040004,-5.05189877050144e-05,0.0,0.0,0.0,0.2275708245762616,"(0.0, 0.0, 0.0, 0.0, 0.0, 0.0, 0.0, 0.0, 0.0, 0.0, 0.0, 0.0, 0.0, 0.0, 0.0, 0.0, 0.0, 0.0, 0.0, 0.0, 0.0, 0.0, 0.0, 0.0, 0.0, 0.0, 0.0, 0.0, 0.0, 0.0, 0.0, 0.0, 0.0, 0.0, 0.0, 0.0)",0.2199999988079071,0.0,0.0,0.0,0.0,0.2253226190805435,58.0,2.0,210000000.0,base_footprint,-0.0034713457626915,0.0017055689568911,0.8961761340210023,0.4436816173837944,0.0,0.0,0.0,0.0,0.0,0.0,0.0,0.0,0.0,-0.0006862154471996,0.0019112818785121,0.2352697587674245,0.0,0.0,0.0,0.0,0.0,0.0,0.0,0.0,0.0,0.0632281441324052,0.0451316322412448,-0.0021128233693875,0.0,0.0,0.0,0.0,0.0,0.0,0.0,0.0,0.0
2.262,-0.004529970016326101,0.00584544259659639,0.007578604659005172,0.2242017645798006,0.23406667481590257,0.1970978828247338,0.28053330954967903,0.0073143369279511285,0.0014967084038450978,0.007794420271369556,62,2,219000000,odom,base_footprint,-0.0885792072764,0.1377485671748921,-0.0010036891906213,-0.0034756265721759,0.0017003904646781,0.8966878710258444,0.4426464623684878,"(1e-05, 0.0, 0.0, 0.0, 0.0, 0.0, 0.0, 1e-05, 0.0, 0.0, 0.0, 0.0, 0.0, 0.0, 1000000000000.0, 0.0, 0.0, 0.0, 0.0, 0.0, 0.0, 1000000000000.0, 0.0, 0.0, 0.0, 0.0, 0.0, 0.0, 1000000000000.0, 0.0, 0.0, 0.0, 0.0, 0.0, 0.0, 0.001)",0.217565960040004,-5.05189877050144e-05,0.0,0.0,0.0,0.2275708245762616,"(0.0, 0.0, 0.0, 0.0, 0.0, 0.0, 0.0, 0.0, 0.0, 0.0, 0.0, 0.0, 0.0, 0.0, 0.0, 0.0, 0.0, 0.0, 0.0, 0.0, 0.0, 0.0, 0.0, 0.0, 0.0, 0.0, 0.0, 0.0, 0.0, 0.0, 0.0, 0.0, 0.0, 0.0, 0.0, 0.0)",0.2199999988079071,0.0,0.0,0.0,0.0,0.1865451782941818,59.0,2.0,244000000.0,base_footprint,-0.0034782867088852,0.0016915126324587,0.8978979074147051,0.4401867650973604,0.0,0.0,0.0,0.0,0.0,0.0,0.0,0.0,0.0,-0.0013607616760546,0.0015048607491231,0.2306234647155172,0.0,0.0,0.0,0.0,0.0,0.0,0.0,0.0,0.0,0.045003985363669,-0.0315449242320634,0.0016078913174317,0.0,0.0,0.0,0.0,0.0,0.0,0.0,0.0,0.0
2.2960000000000003,-0.004581414655636287,0.005827169461537218,0.0065025488798315925,0.21768249712122345,0.19062551126754915,-0.19577379755486915,-1.3045394458964992,0.007091205885681616,0.0015033688019017017,0.006347829525209387,64,2,286000000,odom,base_footprint,-0.0975348733395039,0.1492630660850949,-0.0010031154507265,-0.0034829038495163,0.0016771059020698,0.8998002826698746,0.4362848931647556,"(1e-05, 0.0, 0.0, 0.0, 0.0, 0.0, 0.0, 1e-05, 0.0, 0.0, 0.0, 0.0, 0.0, 0.0, 1000000000000.0, 0.0, 0.0, 0.0, 0.0, 0.0, 0.0, 1000000000000.0, 0.0, 0.0, 0.0, 0.0, 0.0, 0.0, 1000000000000.0, 0.0, 0.0, 0.0, 0.0, 0.0, 0.0, 0.001)",0.2180083445818972,-5.951624608756256e-05,0.0,0.0,0.0,0.1920458261351149,"(0.0, 0.0, 0.0, 0.0, 0.0, 0.0, 0.0, 0.0, 0.0, 0.0, 0.0, 0.0, 0.0, 0.0, 0.0, 0.0, 0.0, 0.0, 0.0, 0.0, 0.0, 0.0, 0.0, 0.0, 0.0, 0.0, 0.0, 0.0, 0.0, 0.0, 0.0, 0.0, 0.0, 0.0, 0.0, 0.0)",0.2199999988079071,0.0,0.0,0.0,0.0,0.1865451782941818,60.0,2.0,278000000.0,base_footprint,-0.0034817829718574,0.0016798228552083,0.8994229048820955,0.4370623451590918,0.0,0.0,0.0,0.0,0.0,0.0,0.0,0.0,0.0,-0.0012307353130918,0.0010813310263387,0.1922669971233479,0.0,0.0,0.0,0.0,0.0,0.0,0.0,0.0,0.0,0.0416392864528636,-0.0250093427054472,0.0004080891342471,0.0,0.0,0.0,0.0,0.0,0.0,0.0,0.0,0.0
2.33,-0.004621124423363113,0.005800345276026686,0.006530100831875883,0.21780666028625892,0.1902496365934453,0.0037286235746386777,-0.011287527750866496,0.007085568897475126,0.0015491908023973309,0.0063353128985617286,64,2,286000000,odom,base_footprint,-0.0975348733395039,0.1492630660850949,-0.0010031154507265,-0.0034829038495163,0.0016771059020698,0.8998002826698746,0.4362848931647556,"(1e-05, 0.0, 0.0, 0.0, 0.0, 0.0, 0.0, 1e-05, 0.0, 0.0, 0.0, 0.0, 0.0, 0.0, 1000000000000.0, 0.0, 0.0, 0.0, 0.0, 0.0, 0.0, 1000000000000.0, 0.0, 0.0, 0.0, 0.0, 0.0, 0.0, 1000000000000.0, 0.0, 0.0, 0.0, 0.0, 0.0, 0.0, 0.001)",0.2180083445818972,-5.951624608756256e-05,0.0,0.0,0.0,0.1920458261351149,"(0.0, 0.0, 0.0, 0.0, 0.0, 0.0, 0.0, 0.0, 0.0, 0.0, 0.0, 0.0, 0.0, 0.0, 0.0, 0.0, 0.0, 0.0, 0.0, 0.0, 0.0, 0.0, 0.0, 0.0, 0.0, 0.0, 0.0, 0.0, 0.0, 0.0, 0.0, 0.0, 0.0, 0.0, 0.0, 0.0)",0.2199999988079071,0.0,0.0,0.0,0.0,0.1865451782941818,61.0,2.0,312000000.0,base_footprint,-0.0034860761400092,0.0016696128190261,0.9008449155084156,0.434123827805865,0.0,0.0,0.0,0.0,0.0,0.0,0.0,0.0,0.0,-0.0010602750719471,0.0011852820531738,0.1921799098675548,0.0,0.0,0.0,0.0,0.0,0.0,0.0,0.0,0.0,0.0386324633620621,-0.0143321420073632,-1.76982756389259e-05,0.0,0.0,0.0,0.0,0.0,0.0,0.0,0.0,0.0
2.364,-0.00463451969099779,0.005739242318070409,0.006612729903313851,0.22456560949883084,0.19591249094909646,0.20297144782498253,0.17005568635589097,0.007295025947661954,0.0016442026942647082,0.006523885948604913,66,2,353000000,odom,base_footprint,-0.1066590864827006,0.1606821867142907,-0.0010029106109231,-0.003490777952984,0.0016586384976591,0.902587583350876,0.4304889287408476,"(1e-05, 0.0, 0.0, 0.0, 0.0, 0.0, 0.0, 1e-05, 0.0, 0.0, 0.0, 0.0, 0.0, 0.0, 1000000000000.0, 0.0, 0.0, 0.0, 0.0, 0.0, 0.0, 1000000000000.0, 0.0, 0.0, 0.0, 0.0, 0.0, 0.0, 1000000000000.0, 0.0, 0.0, 0.0, 0.0, 0.0, 0.0, 0.001)",0.2183360933621177,-5.290514653745471e-05,0.0,0.0,0.0,0.1918196123756405,"(0.0, 0.0, 0.0, 0.0, 0.0, 0.0, 0.0, 0.0, 0.0, 0.0, 0.0, 0.0, 0.0, 0.0, 0.0, 0.0, 0.0, 0.0, 0.0, 0.0, 0.0, 0.0, 0.0, 0.0, 0.0, 0.0, 0.0, 0.0, 0.0, 0.0, 0.0, 0.0, 0.0, 0.0, 0.0, 0.0)",0.2084210515022277,0.0,0.0,0.0,0.0,0.1511673778295516,62.0,2.0,346000000.0,base_footprint,-0.0034897667361135,0.0016605631985265,0.902257118362606,0.4311811178866688,0.0,0.0,0.0,0.0,0.0,0.0,0.0,0.0,0.0,-0.0011616909077835,0.0009629365423879,0.1919326314053469,0.0,0.0,0.0,0.0,0.0,0.0,0.0,0.0,0.0,0.0395921179388302,-0.0139569126242595,0.0005260539340666,0.0,0.0,0.0,0.0,0.0,0.0,0.0,0.0,0.0
2.398,-0.0044674605304355075,0.005464761314914607,0.0054967140544461834,0.2066993697302817,0.15231809453722703,-0.5365237167732476,-1.3091410333894724,0.0067057573706799595,0.0015522985731903241,0.00507219254808966,67,2,386000000,odom,base_footprint,-0.1110280834542088,0.1660451830271627,-0.0010029595070974,-0.0034949017078337,0.0016514881626425,0.9038313360377644,0.4278714459333447,"(1e-05, 0.0, 0.0, 0.0, 0.0, 0.0, 0.0, 1e-05, 0.0, 0.0, 0.0, 0.0, 0.0, 0.0, 1000000000000.0, 0.0, 0.0, 0.0, 0.0, 0.0, 0.0, 1000000000000.0, 0.0, 0.0, 0.0, 0.0, 0.0, 0.0, 1000000000000.0, 0.0, 0.0, 0.0, 0.0, 0.0, 0.0, 0.001)",0.2071800362608725,5.231129613578189e-06,0.0,0.0,0.0,0.1556147166529367,"(0.0, 0.0, 0.0, 0.0, 0.0, 0.0, 0.0, 0.0, 0.0, 0.0, 0.0, 0.0, 0.0, 0.0, 0.0, 0.0, 0.0, 0.0, 0.0, 0.0, 0.0, 0.0, 0.0, 0.0, 0.0, 0.0, 0.0, 0.0, 0.0, 0.0, 0.0, 0.0, 0.0, 0.0, 0.0, 0.0)",0.2084210515022277,0.0,0.0,0.0,0.0,0.1511673778295516,63.0,2.0,380000000.0,base_footprint,-0.0034950576614359,0.0016541158598512,0.9035981358490516,0.4283636975314138,0.0,0.0,0.0,0.0,0.0,0.0,0.0,0.0,0.0,-0.0012278766008386,0.0008519845874574,0.1554991898129676,0.0,0.0,0.0,0.0,0.0,0.0,0.0,0.0,0.0,0.1048222973871731,0.3130197491491708,-0.00146569218926,0.0,0.0,0.0,0.0,0.0,0.0,0.0,0.0,0.0
2.432,-0.004489800241074995,0.005432656455685386,0.005238728107582968,0.20675229512913412,0.1533803114332513,0.0015893513168898654,0.031898405286013794,0.0066994843955368215,0.0015868159848805316,0.0051075643707272685,67,2,386000000,odom,base_footprint,-0.1110280834542088,0.1660451830271627,-0.0010029595070974,-0.0034949017078337,0.0016514881626425,0.9038313360377644,0.4278714459333447,"(1e-05, 0.0, 0.0, 0.0, 0.0, 0.0, 0.0, 1e-05, 0.0, 0.0, 0.0, 0.0, 0.0, 0.0, 1000000000000.0, 0.0, 0.0, 0.0, 0.0, 0.0, 0.0, 1000000000000.0, 0.0, 0.0, 0.0, 0.0, 0.0, 0.0, 1000000000000.0, 0.0, 0.0, 0.0, 0.0, 0.0, 0.0, 0.001)",0.2071800362608725,5.231129613578189e-06,0.0,0.0,0.0,0.1556147166529367,"(0.0, 0.0, 0.0, 0.0, 0.0, 0.0, 0.0, 0.0, 0.0, 0.0, 0.0, 0.0, 0.0, 0.0, 0.0, 0.0, 0.0, 0.0, 0.0, 0.0, 0.0, 0.0, 0.0, 0.0, 0.0, 0.0, 0.0, 0.0, 0.0, 0.0, 0.0, 0.0, 0.0, 0.0, 0.0, 0.0)",0.2084210515022277,0.0,0.0,0.0,0.0,0.1511673778295516,64.0,2.0,414000000.0,base_footprint,-0.0034989562730704,0.0016461564332137,0.904724486520526,0.4259796367951963,0.0,0.0,0.0,0.0,0.0,0.0,0.0,0.0,0.0,-0.0008923126335071,0.0007047681022754,0.1542889927156104,0.0,0.0,0.0,0.0,0.0,0.0,0.0,0.0,0.0,0.030356789345508,-0.0104193632264583,3.158429978059884e-05,0.0,0.0,0.0,0.0,0.0,0.0,0.0,0.0,0.0
2.466,-0.0045204998337808056,0.005412781222615015,0.005198695776422291,0.21303934992751175,0.15570274542521034,0.18880044439572455,0.06974276252129294,0.006894700514234766,0.001670572536019379,0.005184901422659505,68,2,419000000,odom,base_footprint,-0.1153761288636679,0.1713250890210663,-0.0010031104582993,-0.0034997981914233,0.0016448899064473,0.9049211691862128,0.4255616562949165,"(1e-05, 0.0, 0.0, 0.0, 0.0, 0.0, 0.0, 1e-05, 0.0, 0.0, 0.0, 0.0, 0.0, 0.0, 1000000000000.0, 0.0, 0.0, 0.0, 0.0, 0.0, 0.0, 1000000000000.0, 0.0, 0.0, 0.0, 0.0, 0.0, 0.0, 1000000000000.0, 0.0, 0.0, 0.0, 0.0, 0.0, 0.0, 0.001)",0.2073058398037545,-4.505266894209992e-05,0.0,0.0,0.0,0.1538468658411958,"(0.0, 0.0, 0.0, 0.0, 0.0, 0.0, 0.0, 0.0, 0.0, 0.0, 0.0, 0.0, 0.0, 0.0, 0.0, 0.0, 0.0, 0.0, 0.0, 0.0, 0.0, 0.0, 0.0, 0.0, 0.0, 0.0, 0.0, 0.0, 0.0, 0.0, 0.0, 0.0, 0.0, 0.0, 0.0, 0.0)",0.2199999988079071,5.23112976225093e-06,0.0,0.0,0.0,0.295101910829544,65.0,2.0,448000000.0,base_footprint,-0.0035037383775846,0.001638380973715,0.9058279588958756,0.4236280779264975,0.0,0.0,0.0,0.0,0.0,0.0,0.0,0.0,0.0,-0.0009204771168349,0.0007708945003046,0.151252284160994,0.0,0.0,0.0,0.0,0.0,0.0,0.0,0.0,0.0,0.0306796898359962,-0.0054455994018797,0.000253020340038,0.0,0.0,0.0,0.0,0.0,0.0,0.0,0.0,0.0
2.5,-0.0045584879057940925,0.00539359468868289,0.00522209644259286,0.21816149156087347,0.29061836889932774,0.15381806706791953,4.0515202244479696,0.007047543621086997,0.0017631538741538794,0.009677591684347614,70,2,486000000,odom,base_footprint,-0.1242995840836621,0.181989226700472,-0.0010025193677056,-0.0035068617011694,0.0016167801605247,0.9071062228351194,0.4208840558119592,"(1e-05, 0.0, 0.0, 0.0, 0.0, 0.0, 0.0, 1e-05, 0.0, 0.0, 0.0, 0.0, 0.0, 0.0, 1000000000000.0, 0.0, 0.0, 0.0, 0.0, 0.0, 0.0, 1000000000000.0, 0.0, 0.0, 0.0, 0.0, 0.0, 0.0, 1000000000000.0, 0.0, 0.0, 0.0, 0.0, 0.0, 0.0, 0.001)",0.2076269484966318,0.0001051322777825,0.0,0.0,0.0,0.1518097925372891,"(0.0, 0.0, 0.0, 0.0, 0.0, 0.0, 0.0, 0.0, 0.0, 0.0, 0.0, 0.0, 0.0, 0.0, 0.0, 0.0, 0.0, 0.0, 0.0, 0.0, 0.0, 0.0, 0.0, 0.0, 0.0, 0.0, 0.0, 0.0, 0.0, 0.0, 0.0, 0.0, 0.0, 0.0, 0.0, 0.0)",0.2199999988079071,5.23112976225093e-06,0.0,0.0,0.0,0.295101910829544,66.0,2.0,482000000.0,base_footprint,-0.0035050762732595,0.0016186366981869,0.906944826612842,0.4212317366198326,0.0,0.0,0.0,0.0,0.0,0.0,0.0,0.0,0.0,-0.000740663211486,0.0011576362271567,0.1553301465850819,0.0,0.0,0.0,0.0,0.0,0.0,0.0,0.0,0.0,0.0345509725969773,-0.0220126320313649,0.0001333146912539,0.0,0.0,0.0,0.0,0.0,0.0,0.0,0.0,0.0
2.534,-0.004593295232210304,0.005379461602663588,0.005342075639680476,0.21823383956457248,0.28951299843268563,0.002172612723694089,-0.033194308307570815,0.007032516087175209,0.0018317514179271143,0.009640782847808432,70,2,486000000,odom,base_footprint,-0.1242995840836621,0.181989226700472,-0.0010025193677056,-0.0035068617011694,0.0016167801605247,0.9071062228351194,0.4208840558119592,"(1e-05, 0.0, 0.0, 0.0, 0.0, 0.0, 0.0, 1e-05, 0.0, 0.0, 0.0, 0.0, 0.0, 0.0, 1000000000000.0, 0.0, 0.0, 0.0, 0.0, 0.0, 0.0, 1000000000000.0, 0.0, 0.0, 0.0, 0.0, 0.0, 0.0, 1000000000000.0, 0.0, 0.0, 0.0, 0.0, 0.0, 0.0, 0.001)",0.2076269484966318,0.0001051322777825,0.0,0.0,0.0,0.1518097925372891,"(0.0, 0.0, 0.0, 0.0, 0.0, 0.0, 0.0, 0.0, 0.0, 0.0, 0.0, 0.0, 0.0, 0.0, 0.0, 0.0, 0.0, 0.0, 0.0, 0.0, 0.0, 0.0, 0.0, 0.0, 0.0, 0.0, 0.0, 0.0, 0.0, 0.0, 0.0, 0.0, 0.0, 0.0, 0.0, 0.0)",0.2199999988079071,5.23112976225093e-06,0.0,0.0,0.0,0.295101910829544,67.0,2.0,516000000.0,base_footprint,-0.0035093039554617,0.0016009746896264,0.908017111623562,0.418915321592079,0.0,0.0,0.0,0.0,0.0,0.0,0.0,0.0,0.0,-0.0011431339027203,0.0009031252095823,0.1536999673382095,0.0,0.0,0.0,0.0,0.0,0.0,0.0,0.0,0.0,0.0285101707992927,-0.0052139826523014,0.0003433113654406,0.0,0.0,0.0,0.0,0.0,0.0,0.0,0.0,0.0
2.568,-0.004723123953796288,0.005469086765021114,0.00655509225045403,0.22488991452194135,0.2979812849367566,0.19988213085191778,0.25430289802014844,0.007228193636559246,0.001958416086715853,0.009922776788393995,72,2,553000000,odom,base_footprint,-0.1333855183814702,0.192616747574812,-0.0010026633202222,-0.0035182486725235,0.0015895083672777,0.9094325084097088,0.4158336302381681,"(1e-05, 0.0, 0.0, 0.0, 0.0, 0.0, 0.0, 1e-05, 0.0, 0.0, 0.0, 0.0, 0.0, 0.0, 1000000000000.0, 0.0, 0.0, 0.0, 0.0, 0.0, 0.0, 1000000000000.0, 0.0, 0.0, 0.0, 0.0, 0.0, 0.0, 1000000000000.0, 0.0, 0.0, 0.0, 0.0, 0.0, 0.0, 0.001)",0.2119863043528189,-2.026027201414149e-05,0.0,0.0,0.0,0.2114151479577303,"(0.0, 0.0, 0.0, 0.0, 0.0, 0.0, 0.0, 0.0, 0.0, 0.0, 0.0, 0.0, 0.0, 0.0, 0.0, 0.0, 0.0, 0.0, 0.0, 0.0, 0.0, 0.0, 0.0, 0.0, 0.0, 0.0, 0.0, 0.0, 0.0, 0.0, 0.0, 0.0, 0.0, 0.0, 0.0, 0.0)",0.2199999988079071,0.0001051322760758,0.0,0.0,0.0,0.1600149273872375,68.0,2.0,550000000.0,base_footprint,-0.0035173399839261,0.0015909465008223,0.909259377510662,0.4162120632773543,0.0,0.0,0.0,0.0,0.0,0.0,0.0,0.0,0.0,-0.0010607360873848,0.0012837504525389,0.2026050566977654,0.0,0.0,0.0,0.0,0.0,0.0,0.0,0.0,0.0,0.0190799683029057,-0.1070954485676034,0.0004317224570381,0.0,0.0,0.0,0.0,0.0,0.0,0.0,0.0,0.0
2.6020000000000003,-0.00490063665286361,0.0056016522665645885,0.005724090218754085,0.2184354467157027,0.18091166430472516,-0.1938278620492087,-3.515604223184126,0.007005368128137284,0.0019581327952449263,0.006024358421347348,73,2,586000000,odom,base_footprint,-0.1380964968061963,0.1980312260739188,-0.0010039148389382,-0.0035316675472049,0.0015851143709161,0.910700668141822,0.4130487958859173,"(1e-05, 0.0, 0.0, 0.0, 0.0, 0.0, 0.0, 1e-05, 0.0, 0.0, 0.0, 0.0, 0.0, 0.0, 1000000000000.0, 0.0, 0.0, 0.0, 0.0, 0.0, 0.0, 1000000000000.0, 0.0, 0.0, 0.0, 0.0, 0.0, 0.0, 1000000000000.0, 0.0, 0.0, 0.0, 0.0, 0.0, 0.0, 0.001)",0.2189841010051219,-3.772719429973037e-06,0.0,0.0,0.0,0.1800980275605654,"(0.0, 0.0, 0.0, 0.0, 0.0, 0.0, 0.0, 0.0, 0.0, 0.0, 0.0, 0.0, 0.0, 0.0, 0.0, 0.0, 0.0, 0.0, 0.0, 0.0, 0.0, 0.0, 0.0, 0.0, 0.0, 0.0, 0.0, 0.0, 0.0, 0.0, 0.0, 0.0, 0.0, 0.0, 0.0, 0.0)",0.2199999988079071,0.0001051322760758,0.0,0.0,0.0,0.1600149273872375,69.0,2.0,584000000.0,base_footprint,-0.0035305633667268,0.0015867126800785,0.9105891082351064,0.4132946811039044,0.0,0.0,0.0,0.0,0.0,0.0,0.0,0.0,0.0,-0.0007677057313187,0.0017762205872558,0.1794855703238195,0.0,0.0,0.0,0.0,0.0,0.0,0.0,0.0,0.0,0.0105944254793917,-0.2299268928074834,0.000630955187509,0.0,0.0,0.0,0.0,0.0,0.0,0.0,0.0,0.0
2.636,-0.004924616118866687,0.005569942236486103,0.005248475224282956,0.21808109497506528,0.15248845419268464,-0.010641193412534992,-0.85354985321443,0.006983047008066141,0.0019937513118198553,0.005077865524616399,73,2,586000000,odom,base_footprint,-0.1380964968061963,0.1980312260739188,-0.0010039148389382,-0.0035316675472049,0.0015851143709161,0.910700668141822,0.4130487958859173,"(1e-05, 0.0, 0.0, 0.0, 0.0, 0.0, 0.0, 1e-05, 0.0, 0.0, 0.0, 0.0, 0.0, 0.0, 1000000000000.0, 0.0, 0.0, 0.0, 0.0, 0.0, 0.0, 1000000000000.0, 0.0, 0.0, 0.0, 0.0, 0.0, 0.0, 1000000000000.0, 0.0, 0.0, 0.0, 0.0, 0.0, 0.0, 0.001)",0.2189841010051219,-3.772719429973037e-06,0.0,0.0,0.0,0.1800980275605654,"(0.0, 0.0, 0.0, 0.0, 0.0, 0.0, 0.0, 0.0, 0.0, 0.0, 0.0, 0.0, 0.0, 0.0, 0.0, 0.0, 0.0, 0.0, 0.0, 0.0, 0.0, 0.0, 0.0, 0.0, 0.0, 0.0, 0.0, 0.0, 0.0, 0.0, 0.0, 0.0, 0.0, 0.0, 0.0, 0.0)",0.2199999988079071,0.0001051322760758,0.0,0.0,0.0,0.1600149273872375,70.0,2.0,618000000.0,base_footprint,-0.0035375726322395,0.0015749219367363,0.9116834575409856,0.4108750156031379,0.0,0.0,0.0,0.0,0.0,0.0,0.0,0.0,0.0,-0.000764445728369,0.0010095881723902,0.154164067909367,0.0,0.0,0.0,0.0,0.0,0.0,0.0,0.0,0.0,0.0335215433941534,0.0071728438221093,0.0007241622796739,0.0,0.0,0.0,0.0,0.0,0.0,0.0,0.0,0.0
2.67,-0.0049088306407349125,0.005491212141466917,0.00444380588323856,0.2246364992394548,0.15899832203662986,0.19685898691860435,0.19549152684520182,0.007182205487707704,0.0020909589479787116,0.005294644123819775,74,2,619000000,odom,base_footprint,-0.1428641065960783,0.2034489305851318,-0.0010041379200103,-0.0035379443556681,0.0015743083669928,0.9117469026229102,0.4107342085344624,"(1e-05, 0.0, 0.0, 0.0, 0.0, 0.0, 0.0, 1e-05, 0.0, 0.0, 0.0, 0.0, 0.0, 0.0, 1000000000000.0, 0.0, 0.0, 0.0, 0.0, 0.0, 0.0, 1000000000000.0, 0.0, 0.0, 0.0, 0.0, 0.0, 0.0, 1000000000000.0, 0.0, 0.0, 0.0, 0.0, 0.0, 0.0, 0.001)",0.218660509802874,-3.753769592035328e-05,0.0,0.0,0.0,0.1543826691411214,"(0.0, 0.0, 0.0, 0.0, 0.0, 0.0, 0.0, 0.0, 0.0, 0.0, 0.0, 0.0, 0.0, 0.0, 0.0, 0.0, 0.0, 0.0, 0.0, 0.0, 0.0, 0.0, 0.0, 0.0, 0.0, 0.0, 0.0, 0.0, 0.0, 0.0, 0.0, 0.0, 0.0, 0.0, 0.0, 0.0)",0.2084210515022277,0.0,0.0,0.0,0.0,0.1297672837972641,71.0,2.0,652000000.0,base_footprint,-0.0035410632426937,0.0015641104568792,0.9127696957916392,0.4084562361796286,0.0,0.0,0.0,0.0,0.0,0.0,0.0,0.0,0.0,-0.0012130379300256,0.0008730135423093,0.1579326917179016,0.0,0.0,0.0,0.0,0.0,0.0,0.0,0.0,0.0,0.0345722741627286,0.0006531781608752,0.00113431847261,0.0,0.0,0.0,0.0,0.0,0.0,0.0,0.0,0.0
2.704,-0.004800519179838009,0.005333683153560892,0.0029458178864620876,0.20660992434377148,0.12762126754743683,-0.5413385854559556,-0.9422538885643553,0.0065965994167109885,0.001954667521111433,0.0042497882093296465,76,2,686000000,odom,base_footprint,-0.1524988689586715,0.214230840758462,-0.0010043164319398,-0.0035453395251341,0.0015619422991016,0.9134423374595282,0.4069497352749836,"(1e-05, 0.0, 0.0, 0.0, 0.0, 0.0, 0.0, 1e-05, 0.0, 0.0, 0.0, 0.0, 0.0, 0.0, 1000000000000.0, 0.0, 0.0, 0.0, 0.0, 0.0, 0.0, 1000000000000.0, 0.0, 0.0, 0.0, 0.0, 0.0, 0.0, 1000000000000.0, 0.0, 0.0, 0.0, 0.0, 0.0, 0.0, 0.001)",0.2111814125943128,3.5712374727298046e-06,0.0,0.0,0.0,0.0853043339930988,"(0.0, 0.0, 0.0, 0.0, 0.0, 0.0, 0.0, 0.0, 0.0, 0.0, 0.0, 0.0, 0.0, 0.0, 0.0, 0.0, 0.0, 0.0, 0.0, 0.0, 0.0, 0.0, 0.0, 0.0, 0.0, 0.0, 0.0, 0.0, 0.0, 0.0, 0.0, 0.0, 0.0, 0.0, 0.0, 0.0)",0.2084210515022277,0.0,0.0,0.0,0.0,0.1297672837972641,72.0,2.0,686000000.0,base_footprint,-0.003544953135321,0.0015621138530783,0.9134249791745922,0.4069886982797856,0.0,0.0,0.0,0.0,0.0,0.0,0.0,0.0,0.0,0.0001051161275317,0.0009003763070642,0.0847815614652687,0.0,0.0,0.0,0.0,0.0,0.0,0.0,0.0,0.0,0.0450686397913189,0.2107894453266095,-0.0027879301881756,0.0,0.0,0.0,0.0,0.0,0.0,0.0,0.0,0.0
2.738,-0.0047317270434648895,0.0052210885169158006,0.004468553239544981,0.2065657460729028,0.1290515865887962,-0.001326674800861694,0.04295252376454575,0.006586776902632242,0.0019824168191654107,0.004297417833406914,76,2,686000000,odom,base_footprint,-0.1524988689586715,0.214230840758462,-0.0010043164319398,-0.0035453395251341,0.0015619422991016,0.9134423374595282,0.4069497352749836,"(1e-05, 0.0, 0.0, 0.0, 0.0, 0.0, 0.0, 1e-05, 0.0, 0.0, 0.0, 0.0, 0.0, 0.0, 1000000000000.0, 0.0, 0.0, 0.0, 0.0, 0.0, 0.0, 1000000000000.0, 0.0, 0.0, 0.0, 0.0, 0.0, 0.0, 1000000000000.0, 0.0, 0.0, 0.0, 0.0, 0.0, 0.0, 0.001)",0.2111814125943128,3.5712374727298046e-06,0.0,0.0,0.0,0.0853043339930988,"(0.0, 0.0, 0.0, 0.0, 0.0, 0.0, 0.0, 0.0, 0.0, 0.0, 0.0, 0.0, 0.0, 0.0, 0.0, 0.0, 0.0, 0.0, 0.0, 0.0, 0.0, 0.0, 0.0, 0.0, 0.0, 0.0, 0.0, 0.0, 0.0, 0.0, 0.0, 0.0, 0.0, 0.0, 0.0, 0.0)",0.2084210515022277,0.0,0.0,0.0,0.0,0.1297672837972641,73.0,2.0,720000000.0,base_footprint,-0.0035363760183153,0.0015583962686733,0.9141486107220306,0.4053608059010002,0.0,0.0,0.0,0.0,0.0,0.0,0.0,0.0,0.0,-0.0013624294864669,0.0001756973609652,0.1337091068067878,0.0,0.0,0.0,0.0,0.0,0.0,0.0,0.0,0.0,0.0344626966908199,0.118350747094523,0.0019700602277157,0.0,0.0,0.0,0.0,0.0,0.0,0.0,0.0,0.0
2.7720000000000002,-0.004676583974959403,0.005111836689897592,0.0041031641869651025,0.21255988131095666,0.13754466587953415,0.18000406120281878,0.2550474261482867,0.0067687899215593825,0.0020700082627325557,0.004580237373788488,78,2,753000000,odom,base_footprint,-0.1618586900879904,0.2245592165606985,-0.0010037466339776,-0.0035468978516471,0.0015486748674875,0.9151035180065804,0.4032004122688432,"(1e-05, 0.0, 0.0, 0.0, 0.0, 0.0, 0.0, 1e-05, 0.0, 0.0, 0.0, 0.0, 0.0, 0.0, 1000000000000.0, 0.0, 0.0, 0.0, 0.0, 0.0, 0.0, 1000000000000.0, 0.0, 0.0, 0.0, 0.0, 0.0, 0.0, 1000000000000.0, 0.0, 0.0, 0.0, 0.0, 0.0, 0.0, 0.001)",0.2070936392909516,7.621916934319461e-05,0.0,0.0,0.0,0.134829381112188,"(0.0, 0.0, 0.0, 0.0, 0.0, 0.0, 0.0, 0.0, 0.0, 0.0, 0.0, 0.0, 0.0, 0.0, 0.0, 0.0, 0.0, 0.0, 0.0, 0.0, 0.0, 0.0, 0.0, 0.0, 0.0, 0.0, 0.0, 0.0, 0.0, 0.0, 0.0, 0.0, 0.0, 0.0, 0.0, 0.0)",0.1968421041965484,4.978320430382155e-05,0.0,0.0,0.0,0.1090978160500526,74.0,2.0,754000000.0,base_footprint,-0.0035468978516471,0.0015486748674875,0.9151035180065804,0.4032004122688432,0.0,0.0,0.0,0.0,0.0,0.0,0.0,0.0,0.0,-0.0010211068100425,0.0005287645839466,0.1348250556950966,0.0,0.0,0.0,0.0,0.0,0.0,0.0,0.0,0.0,0.0294471201092546,-0.0025374545091992,-0.0006400951389534,0.0,0.0,0.0,0.0,0.0,0.0,0.0,0.0,0.0
2.806,-0.0045042971524139885,0.00488823037296332,0.003985330375680274,0.19506426158928414,0.1118536438324374,-0.5253939856358113,-0.7715021635764789,0.006203716821631381,0.001925405585411161,0.0037247263396201656,79,2,786000000,odom,base_footprint,-0.1662846495357223,0.2293810100716361,-0.0010033772586496,-0.0035458941595561,0.001544589562799,0.915854592521935,0.4014914771625574,"(1e-05, 0.0, 0.0, 0.0, 0.0, 0.0, 0.0, 1e-05, 0.0, 0.0, 0.0, 0.0, 0.0, 0.0, 1000000000000.0, 0.0, 0.0, 0.0, 0.0, 0.0, 0.0, 1000000000000.0, 0.0, 0.0, 0.0, 0.0, 0.0, 0.0, 1000000000000.0, 0.0, 0.0, 0.0, 0.0, 0.0, 0.0, 0.001)",0.1955687471207842,-0.0001298961119439,0.0,0.0,0.0,0.1160179467630633,"(0.0, 0.0, 0.0, 0.0, 0.0, 0.0, 0.0, 0.0, 0.0, 0.0, 0.0, 0.0, 0.0, 0.0, 0.0, 0.0, 0.0, 0.0, 0.0, 0.0, 0.0, 0.0, 0.0, 0.0, 0.0, 0.0, 0.0, 0.0, 0.0, 0.0, 0.0, 0.0, 0.0, 0.0, 0.0, 0.0)",0.1968421041965484,4.978320430382155e-05,0.0,0.0,0.0,0.1090978160500526,75.0,2.0,788000000.0,base_footprint,-0.0035463793791887,0.0015442664020325,0.9158777776530738,0.401438581648358,0.0,0.0,0.0,0.0,0.0,0.0,0.0,0.0,0.0,-7.312355475457844e-05,0.0012259747743629,0.1156464729572482,0.0,0.0,0.0,0.0,0.0,0.0,0.0,0.0,0.0,0.0453804748951041,0.3344619567005328,-0.0031358768350133,0.0,0.0,0.0,0.0,0.0,0.0,0.0,0.0,0.0
2.84,-0.004529170585392511,0.004875284516742684,0.003945904899118168,0.19491698584290718,0.11498861061118978,-0.00442269508639527,0.09414314650908062,0.006191721924211217,0.0019473513132584877,0.00382912073335262,79,2,786000000,odom,base_footprint,-0.1662846495357223,0.2293810100716361,-0.0010033772586496,-0.0035458941595561,0.001544589562799,0.915854592521935,0.4014914771625574,"(1e-05, 0.0, 0.0, 0.0, 0.0, 0.0, 0.0, 1e-05, 0.0, 0.0, 0.0, 0.0, 0.0, 0.0, 1000000000000.0, 0.0, 0.0, 0.0, 0.0, 0.0, 0.0, 1000000000000.0, 0.0, 0.0, 0.0, 0.0, 0.0, 0.0, 1000000000000.0, 0.0, 0.0, 0.0, 0.0, 0.0, 0.0, 0.001)",0.1955687471207842,-0.0001298961119439,0.0,0.0,0.0,0.1160179467630633,"(0.0, 0.0, 0.0, 0.0, 0.0, 0.0, 0.0, 0.0, 0.0, 0.0, 0.0, 0.0, 0.0, 0.0, 0.0, 0.0, 0.0, 0.0, 0.0, 0.0, 0.0, 0.0, 0.0, 0.0, 0.0, 0.0, 0.0, 0.0, 0.0, 0.0, 0.0, 0.0, 0.0, 0.0, 0.0, 0.0)",0.1968421041965484,4.978320430382155e-05,0.0,0.0,0.0,0.1090978160500526,76.0,2.0,822000000.0,base_footprint,-0.0035493809276357,0.0015396115366619,0.9166674555137556,0.3996320901695506,0.0,0.0,0.0,0.0,0.0,0.0,0.0,0.0,0.0,-0.0007035799859904,0.0005788433537204,0.1162532850236819,0.0,0.0,0.0,0.0,0.0,0.0,0.0,0.0,0.0,0.0250559058826055,-0.0044813360323758,0.0011514849311337,0.0,0.0,0.0,0.0,0.0,0.0,0.0,0.0,0.0
2.874,-0.004623695593915705,0.004939535370472092,0.003492040880431979,0.20092314879578232,0.11828981593472483,0.18036525384009455,0.09913529500105246,0.006374668258833023,0.0020321318594937053,0.003939050870626337,80,2,819000000,odom,base_footprint,-0.1706690478278388,0.2341217519520146,-0.0010034747420595,-0.0035492131886407,0.0015398582687084,0.9166210534995824,0.3997385097830451,"(1e-05, 0.0, 0.0, 0.0, 0.0, 0.0, 0.0, 1e-05, 0.0, 0.0, 0.0, 0.0, 0.0, 0.0, 1000000000000.0, 0.0, 0.0, 0.0, 0.0, 0.0, 0.0, 1000000000000.0, 0.0, 0.0, 0.0, 0.0, 0.0, 0.0, 1000000000000.0, 0.0, 0.0, 0.0, 0.0, 0.0, 0.0, 0.001)",0.1957134788837398,-2.0893903305715944e-05,0.0,0.0,0.0,0.1162695660120822,"(0.0, 0.0, 0.0, 0.0, 0.0, 0.0, 0.0, 0.0, 0.0, 0.0, 0.0, 0.0, 0.0, 0.0, 0.0, 0.0, 0.0, 0.0, 0.0, 0.0, 0.0, 0.0, 0.0, 0.0, 0.0, 0.0, 0.0, 0.0, 0.0, 0.0, 0.0, 0.0, 0.0, 0.0, 0.0, 0.0)",0.2199999988079071,0.0,0.0,0.0,0.0,0.1570435911417007,77.0,2.0,856000000.0,base_footprint,-0.0035449812154368,0.0015358286565811,0.9174516070833258,0.3978286352171533,0.0,0.0,0.0,0.0,0.0,0.0,0.0,0.0,0.0,-0.0060333736370484,-0.0022547066246031,0.1113042838903083,0.0,0.0,0.0,0.0,0.0,0.0,0.0,0.0,0.0,0.0201113582829932,-0.0386315371092139,0.0085915968644821,0.0,0.0,0.0,0.0,0.0,0.0,0.0,0.0,0.0
2.908,-0.004922351495916105,0.0052313626355331155,0.001995702400028332,0.24150006791466094,0.22786788511773756,1.2185260996660245,3.2906327081985802,0.007647829889734424,0.002486641076830348,0.007588000574420661,82,2,886000000,odom,base_footprint,-0.1798267410130395,0.2439137398253123,-0.0010022991312287,-0.0035428869432478,0.0015296777492092,0.9178915905060974,0.3968124697086496,"(1e-05, 0.0, 0.0, 0.0, 0.0, 0.0, 0.0, 1e-05, 0.0, 0.0, 0.0, 0.0, 0.0, 0.0, 1000000000000.0, 0.0, 0.0, 0.0, 0.0, 0.0, 0.0, 1000000000000.0, 0.0, 0.0, 0.0, 0.0, 0.0, 0.0, 1000000000000.0, 0.0, 0.0, 0.0, 0.0, 0.0, 0.0, 0.001)",0.2127417433620926,-8.217240707944495e-06,0.0,0.0,0.0,0.0200689120788083,"(0.0, 0.0, 0.0, 0.0, 0.0, 0.0, 0.0, 0.0, 0.0, 0.0, 0.0, 0.0, 0.0, 0.0, 0.0, 0.0, 0.0, 0.0, 0.0, 0.0, 0.0, 0.0, 0.0, 0.0, 0.0, 0.0, 0.0, 0.0, 0.0, 0.0, 0.0, 0.0, 0.0, 0.0, 0.0, 0.0)",0.2199999988079071,0.0,0.0,0.0,0.0,0.1570435911417007,78.0,2.0,890000000.0,base_footprint,-0.0035523354740038,0.0015311718763003,0.9179150141591518,0.3967581923622618,0.0,0.0,0.0,0.0,0.0,0.0,0.0,0.0,0.0,0.0050250878350147,0.0009160031570931,0.0475324975608503,0.0,0.0,0.0,0.0,0.0,0.0,0.0,0.0,0.0,-0.0094251226644618,-0.4324404290009104,-0.0130010523539458,0.0,0.0,0.0,0.0,0.0,0.0,0.0,0.0,0.0
2.942,-0.0049920110496746994,0.00527285975805708,0.0029570762182378196,0.21794932938860934,0.15647021548832604,-0.7072293851667149,-2.144074163045391,0.00688753123988373,0.0022882717123209563,0.005210458175761257,82,2,886000000,odom,base_footprint,-0.1798267410130395,0.2439137398253123,-0.0010022991312287,-0.0035428869432478,0.0015296777492092,0.9178915905060974,0.3968124697086496,"(1e-05, 0.0, 0.0, 0.0, 0.0, 0.0, 0.0, 1e-05, 0.0, 0.0, 0.0, 0.0, 0.0, 0.0, 1000000000000.0, 0.0, 0.0, 0.0, 0.0, 0.0, 0.0, 1000000000000.0, 0.0, 0.0, 0.0, 0.0, 0.0, 0.0, 1000000000000.0, 0.0, 0.0, 0.0, 0.0, 0.0, 0.0, 0.001)",0.2127417433620926,-8.217240707944495e-06,0.0,0.0,0.0,0.0200689120788083,"(0.0, 0.0, 0.0, 0.0, 0.0, 0.0, 0.0, 0.0, 0.0, 0.0, 0.0, 0.0, 0.0, 0.0, 0.0, 0.0, 0.0, 0.0, 0.0, 0.0, 0.0, 0.0, 0.0, 0.0, 0.0, 0.0, 0.0, 0.0, 0.0, 0.0, 0.0, 0.0, 0.0, 0.0, 0.0, 0.0)",0.2199999988079071,0.0,0.0,0.0,0.0,0.1570435911417007,79.0,2.0,924000000.0,base_footprint,-0.00354858602546,0.0015226465467438,0.918450221070502,0.3955177372764204,0.0,0.0,0.0,0.0,0.0,0.0,0.0,0.0,0.0,-0.0008310627695946,0.0007896330507023,0.0893957534317329,0.0,0.0,0.0,0.0,0.0,0.0,0.0,0.0,0.0,0.0142508378685636,-0.0611250964489702,0.0080479222232024,0.0,0.0,0.0,0.0,0.0,0.0,0.0,0.0,0.0
2.976,-0.0049251853541540935,0.005173446893161737,0.003823281032730552,0.22461203928034812,0.16005086874669938,0.20008137813029375,0.10752712487607625,0.007085556130874651,0.0023955985575236406,0.00532969392926509,84,2,953000000,odom,base_footprint,-0.1896352032520053,0.2542849451698617,-0.0010024584351662,-0.0035517792181517,0.0015150688018792,0.9189430113124204,0.3943714383559893,"(1e-05, 0.0, 0.0, 0.0, 0.0, 0.0, 0.0, 1e-05, 0.0, 0.0, 0.0, 0.0, 0.0, 0.0, 1000000000000.0, 0.0, 0.0, 0.0, 0.0, 0.0, 0.0, 1000000000000.0, 0.0, 0.0, 0.0, 0.0, 0.0, 0.0, 1000000000000.0, 0.0, 0.0, 0.0, 0.0, 0.0, 0.0, 0.001)",0.2129469267354427,-2.9869023560363805e-05,0.0,0.0,0.0,0.0755298295300856,"(0.0, 0.0, 0.0, 0.0, 0.0, 0.0, 0.0, 0.0, 0.0, 0.0, 0.0, 0.0, 0.0, 0.0, 0.0, 0.0, 0.0, 0.0, 0.0, 0.0, 0.0, 0.0, 0.0, 0.0, 0.0, 0.0, 0.0, 0.0, 0.0, 0.0, 0.0, 0.0, 0.0, 0.0, 0.0, 0.0)",0.2084210515022277,0.0,0.0,0.0,0.0,0.1431458294391632,80.0,2.0,958000000.0,base_footprint,-0.0035576846100041,0.001520130939583,0.9190184238978504,0.3941955969039395,0.0,0.0,0.0,0.0,0.0,0.0,0.0,0.0,0.0,0.0025730763620841,-0.0012998680025866,0.1081064368639473,0.0,0.0,0.0,0.0,0.0,0.0,0.0,0.0,0.0,0.0201733743638269,0.0905918375824459,-0.0052966052239867,0.0,0.0,0.0,0.0,0.0,0.0,0.0,0.0,0.0
3.01,-0.004874822128994899,0.00507483749701565,0.00465120785649109,0.2065965556211069,0.1403230860319501,-0.5410055152925289,-0.5924259073498284,0.006506144462792829,0.002236021641257393,0.004672758764863939,85,2,986000000,odom,base_footprint,-0.1943713768923284,0.2592470166428688,-0.0010030639186243,-0.0035577977633962,0.0015120704759072,0.9198037995492068,0.3923595622038455,"(1e-05, 0.0, 0.0, 0.0, 0.0, 0.0, 0.0, 1e-05, 0.0, 0.0, 0.0, 0.0, 0.0, 0.0, 1000000000000.0, 0.0, 0.0, 0.0, 0.0, 0.0, 0.0, 1000000000000.0, 0.0, 0.0, 0.0, 0.0, 0.0, 0.0, 1000000000000.0, 0.0, 0.0, 0.0, 0.0, 0.0, 0.0, 0.001)",0.2068669703699419,-5.1793340957159706e-05,0.0,0.0,0.0,0.1373753922485941,"(0.0, 0.0, 0.0, 0.0, 0.0, 0.0, 0.0, 0.0, 0.0, 0.0, 0.0, 0.0, 0.0, 0.0, 0.0, 0.0, 0.0, 0.0, 0.0, 0.0, 0.0, 0.0, 0.0, 0.0, 0.0, 0.0, 0.0, 0.0, 0.0, 0.0, 0.0, 0.0, 0.0, 0.0, 0.0, 0.0)",0.2084210515022277,0.0,0.0,0.0,0.0,0.1431458294391632,81.0,2.0,992000000.0,base_footprint,-0.0035595850085233,0.001512919588664,0.9199398217357334,0.3920405142503929,0.0,0.0,0.0,0.0,0.0,0.0,0.0,0.0,0.0,-0.000232107889038,0.0003052603558661,0.1393149488086907,0.0,0.0,0.0,0.0,0.0,0.0,0.0,0.0,0.0,0.0300744315129702,0.0999185812544182,0.0032405014983872,0.0,0.0,0.0,0.0,0.0,0.0,0.0,0.0,0.0
3.044,-0.0049021770547917065,0.005056981910013525,0.004634151804864039,0.20642207439537288,0.13589213943781847,-0.005239676448469036,-0.13306145928323193,0.0064903066102975394,0.0022640059847572475,0.004525208243279355,85,2,986000000,odom,base_footprint,-0.1943713768923284,0.2592470166428688,-0.0010030639186243,-0.0035577977633962,0.0015120704759072,0.9198037995492068,0.3923595622038455,"(1e-05, 0.0, 0.0, 0.0, 0.0, 0.0, 0.0, 1e-05, 0.0, 0.0, 0.0, 0.0, 0.0, 0.0, 1000000000000.0, 0.0, 0.0, 0.0, 0.0, 0.0, 0.0, 1000000000000.0, 0.0, 0.0, 0.0, 0.0, 0.0, 0.0, 1000000000000.0, 0.0, 0.0, 0.0, 0.0, 0.0, 0.0, 0.001)",0.2068669703699419,-5.1793340957159706e-05,0.0,0.0,0.0,0.1373753922485941,"(0.0, 0.0, 0.0, 0.0, 0.0, 0.0, 0.0, 0.0, 0.0, 0.0, 0.0, 0.0, 0.0, 0.0, 0.0, 0.0, 0.0, 0.0, 0.0, 0.0, 0.0, 0.0, 0.0, 0.0, 0.0, 0.0, 0.0, 0.0, 0.0, 0.0, 0.0, 0.0, 0.0, 0.0, 0.0, 0.0)",0.2084210515022277,0.0,0.0,0.0,0.0,0.1431458294391632,82.0,3.0,26000000.0,base_footprint,-0.003564415266635,0.0015001123912559,0.9208502085979468,0.3898973428118465,0.0,0.0,0.0,0.0,0.0,0.0,0.0,0.0,0.0,-0.0009544675498322,0.0008875533678606,0.1360635870897708,0.0,0.0,0.0,0.0,0.0,0.0,0.0,0.0,0.0,0.0298247097056323,-8.704365725508562e-05,0.001090922319294,0.0,0.0,0.0,0.0,0.0,0.0,0.0,0.0,0.0
3.078,-0.0049352577293236,0.005048676609211877,0.002905799969467271,0.21277440316558838,0.13915304162268025,0.19076062373019495,0.09792499053638962,0.006679278560068938,0.0023642897220429344,0.004633796286035253,87,3,53000000,odom,base_footprint,-0.2040229945253849,0.2692203630731739,-0.0010034238827496,-0.0035690208560387,0.0014907945041817,0.921591501651384,0.3881419118129639,"(1e-05, 0.0, 0.0, 0.0, 0.0, 0.0, 0.0, 1e-05, 0.0, 0.0, 0.0, 0.0, 0.0, 0.0, 1000000000000.0, 0.0, 0.0, 0.0, 0.0, 0.0, 0.0, 1000000000000.0, 0.0, 0.0, 0.0, 0.0, 0.0, 0.0, 1000000000000.0, 0.0, 0.0, 0.0, 0.0, 0.0, 0.0, 0.001)",0.2072550180528174,-1.5127202743603352e-05,0.0,0.0,0.0,0.1359011893619068,"(0.0, 0.0, 0.0, 0.0, 0.0, 0.0, 0.0, 0.0, 0.0, 0.0, 0.0, 0.0, 0.0, 0.0, 0.0, 0.0, 0.0, 0.0, 0.0, 0.0, 0.0, 0.0, 0.0, 0.0, 0.0, 0.0, 0.0, 0.0, 0.0, 0.0, 0.0, 0.0, 0.0, 0.0, 0.0, 0.0)",0.2084210515022277,0.0,0.0,0.0,0.0,0.0635292455554008,83.0,3.0,60000000.0,base_footprint,-0.0035708193687657,0.0014918266398723,0.9216990619190206,0.3878864047113662,0.0,0.0,0.0,0.0,0.0,0.0,0.0,0.0,0.0,-0.0031621477884552,0.0016071166235845,0.0639776717047876,0.0,0.0,0.0,0.0,0.0,0.0,0.0,0.0,0.0,0.0247065553701006,-0.0138002240235184,0.0058227770925956,0.0,0.0,0.0,0.0,0.0,0.0,0.0,0.0,0.0
3.112,-0.004955115845491798,0.005049749308505436,0.0019328635989355194,0.20658270236036208,0.057824741931129256,-0.18593696111790678,-2.442291282028558,0.006477354092144758,0.0023167470426453166,0.0019255639063066043,87,3,53000000,odom,base_footprint,-0.2040229945253849,0.2692203630731739,-0.0010034238827496,-0.0035690208560387,0.0014907945041817,0.921591501651384,0.3881419118129639,"(1e-05, 0.0, 0.0, 0.0, 0.0, 0.0, 0.0, 1e-05, 0.0, 0.0, 0.0, 0.0, 0.0, 0.0, 1000000000000.0, 0.0, 0.0, 0.0, 0.0, 0.0, 0.0, 1000000000000.0, 0.0, 0.0, 0.0, 0.0, 0.0, 0.0, 1000000000000.0, 0.0, 0.0, 0.0, 0.0, 0.0, 0.0, 0.001)",0.2072550180528174,-1.5127202743603352e-05,0.0,0.0,0.0,0.1359011893619068,"(0.0, 0.0, 0.0, 0.0, 0.0, 0.0, 0.0, 0.0, 0.0, 0.0, 0.0, 0.0, 0.0, 0.0, 0.0, 0.0, 0.0, 0.0, 0.0, 0.0, 0.0, 0.0, 0.0, 0.0, 0.0, 0.0, 0.0, 0.0, 0.0, 0.0, 0.0, 0.0, 0.0, 0.0, 0.0, 0.0)",0.2084210515022277,0.0,0.0,0.0,0.0,0.0635292455554008,84.0,3.0,94000000.0,base_footprint,-0.0035731619887843,0.0014844277544229,0.9220665982899025,0.3870119084805164,0.0,0.0,0.0,0.0,0.0,0.0,0.0,0.0,0.0,-0.0005554616874261,0.0005374598766576,0.0566655302859899,0.0,0.0,0.0,0.0,0.0,0.0,0.0,0.0,0.0,0.0123077151692872,-0.0147791339020872,-0.0054776382662668,0.0,0.0,0.0,0.0,0.0,0.0,0.0,0.0,0.0
3.146,-0.004965546132131404,0.005040932538926068,0.001984437436335807,0.2066668881645839,0.05727765910368876,0.002528102228883323,-0.016428913736951812,0.006475540090024592,0.0023301055138549784,0.001907346048152836,89,3,119000000,odom,base_footprint,-0.2136340496726251,0.2790222345218978,-0.0010036665726011,-0.0035748124570601,0.0014798953667164,0.9223540262778152,0.3863263915845047,"(1e-05, 0.0, 0.0, 0.0, 0.0, 0.0, 0.0, 1e-05, 0.0, 0.0, 0.0, 0.0, 0.0, 0.0, 1000000000000.0, 0.0, 0.0, 0.0, 0.0, 0.0, 0.0, 1000000000000.0, 0.0, 0.0, 0.0, 0.0, 0.0, 0.0, 1000000000000.0, 0.0, 0.0, 0.0, 0.0, 0.0, 0.0, 0.001)",0.2081330672670392,-4.047556733786928e-05,0.0,0.0,0.0,0.0576005239002455,"(0.0, 0.0, 0.0, 0.0, 0.0, 0.0, 0.0, 0.0, 0.0, 0.0, 0.0, 0.0, 0.0, 0.0, 0.0, 0.0, 0.0, 0.0, 0.0, 0.0, 0.0, 0.0, 0.0, 0.0, 0.0, 0.0, 0.0, 0.0, 0.0, 0.0, 0.0, 0.0, 0.0, 0.0, 0.0, 0.0)",0.2199999988079071,0.0,0.0,0.0,0.0,0.1150364130735397,85.0,3.0,128000000.0,base_footprint,-0.003575402443579,0.0014785384247888,0.922443595937904,0.3861124742023263,0.0,0.0,0.0,0.0,0.0,0.0,0.0,0.0,0.0,-0.0004533728904603,0.0005453421661568,0.0580984417608807,0.0,0.0,0.0,0.0,0.0,0.0,0.0,0.0,0.0,0.0117357371319821,-0.001374353005501,-9.17896907392168e-05,0.0,0.0,0.0,0.0,0.0,0.0,0.0,0.0,0.0
3.18,-0.005067280506696498,0.005116766690991925,0.003717523016248503,0.21294179093811702,0.060885864103187914,0.18843551872471845,0.10835450448946407,0.006667416495735625,0.002413975352551339,0.002027499274636158,90,3,153000000,odom,base_footprint,-0.2186016332181791,0.2840605113319948,-0.0010037291322863,-0.0035772567572875,0.0014744856222339,0.9227408266236692,0.385401603535987,"(1e-05, 0.0, 0.0, 0.0, 0.0, 0.0, 0.0, 1e-05, 0.0, 0.0, 0.0, 0.0, 0.0, 0.0, 1000000000000.0, 0.0, 0.0, 0.0, 0.0, 0.0, 0.0, 1000000000000.0, 0.0, 0.0, 0.0, 0.0, 0.0, 0.0, 1000000000000.0, 0.0, 0.0, 0.0, 0.0, 0.0, 0.0, 0.001)",0.20806044940403,-4.881194091931052e-05,0.0,0.0,0.0,0.0603798885730223,"(0.0, 0.0, 0.0, 0.0, 0.0, 0.0, 0.0, 0.0, 0.0, 0.0, 0.0, 0.0, 0.0, 0.0, 0.0, 0.0, 0.0, 0.0, 0.0, 0.0, 0.0, 0.0, 0.0, 0.0, 0.0, 0.0, 0.0, 0.0, 0.0, 0.0, 0.0, 0.0, 0.0, 0.0, 0.0, 0.0)",0.2199999988079071,0.0,0.0,0.0,0.0,0.1150364130735397,86.0,3.0,162000000.0,base_footprint,-0.0035688183646287,0.0014724247232427,0.9228693223819976,0.3850938967409211,0.0,0.0,0.0,0.0,0.0,0.0,0.0,0.0,0.0,-0.0013725043921851,0.0001656863861054,0.1016980881024458,0.0,0.0,0.0,0.0,0.0,0.0,0.0,0.0,0.0,0.0141687465582121,-0.0952042371360193,0.0022764074202709,0.0,0.0,0.0,0.0,0.0,0.0,0.0,0.0,0.0
3.214,-0.005174513511323892,0.005169508358708219,0.005442653480204562,0.2180009503011079,0.11383949620218742,0.15192670759732332,1.590199162132117,0.0068186024221565085,0.0024911735602680526,0.003790855223532841,90,3,153000000,odom,base_footprint,-0.2186016332181791,0.2840605113319948,-0.0010037291322863,-0.0035772567572875,0.0014744856222339,0.9227408266236692,0.385401603535987,"(1e-05, 0.0, 0.0, 0.0, 0.0, 0.0, 0.0, 1e-05, 0.0, 0.0, 0.0, 0.0, 0.0, 0.0, 1000000000000.0, 0.0, 0.0, 0.0, 0.0, 0.0, 0.0, 1000000000000.0, 0.0, 0.0, 0.0, 0.0, 0.0, 0.0, 1000000000000.0, 0.0, 0.0, 0.0, 0.0, 0.0, 0.0, 0.001)",0.20806044940403,-4.881194091931052e-05,0.0,0.0,0.0,0.0603798885730223,"(0.0, 0.0, 0.0, 0.0, 0.0, 0.0, 0.0, 0.0, 0.0, 0.0, 0.0, 0.0, 0.0, 0.0, 0.0, 0.0, 0.0, 0.0, 0.0, 0.0, 0.0, 0.0, 0.0, 0.0, 0.0, 0.0, 0.0, 0.0, 0.0, 0.0, 0.0, 0.0, 0.0, 0.0, 0.0, 0.0)",0.2199999988079071,0.0,0.0,0.0,0.0,0.1150364130735397,87.0,3.0,196000000.0,base_footprint,-0.0035695052632051,0.0014696422654268,0.9238403638376091,0.3827585151609061,0.0,0.0,0.0,0.0,0.0,0.0,0.0,0.0,0.0,-0.0013131663831631,0.0003966646344526,0.1576732931565754,0.0,0.0,0.0,0.0,0.0,0.0,0.0,0.0,0.0,0.0345879000355161,-0.1172490931099003,-9.276804902312168e-05,0.0,0.0,0.0,0.0,0.0,0.0,0.0,0.0,0.0
3.248,-0.005200790921577908,0.005141890122824788,0.005489218647578119,0.2180495144083334,0.11568839564019044,0.001458381598363579,0.05552250564573644,0.00681054900145823,0.0025177742555235493,0.003852423574818342,91,3,186000000,odom,base_footprint,-0.2235643198976182,0.2890617032617343,-0.001002550614007,-0.003570326705376,0.0014700204152809,0.923571229591498,0.3834074538634381,"(1e-05, 0.0, 0.0, 0.0, 0.0, 0.0, 0.0, 1e-05, 0.0, 0.0, 0.0, 0.0, 0.0, 0.0, 1000000000000.0, 0.0, 0.0, 0.0, 0.0, 0.0, 0.0, 1000000000000.0, 0.0, 0.0, 0.0, 0.0, 0.0, 0.0, 1000000000000.0, 0.0, 0.0, 0.0, 0.0, 0.0, 0.0, 0.001)",0.2155457791113439,8.26241964055896e-05,0.0,0.0,0.0,0.1547438645735345,"(0.0, 0.0, 0.0, 0.0, 0.0, 0.0, 0.0, 0.0, 0.0, 0.0, 0.0, 0.0, 0.0, 0.0, 0.0, 0.0, 0.0, 0.0, 0.0, 0.0, 0.0, 0.0, 0.0, 0.0, 0.0, 0.0, 0.0, 0.0, 0.0, 0.0, 0.0, 0.0, 0.0, 0.0, 0.0, 0.0)",0.2084210515022277,8.26241957838647e-05,0.0,0.0,0.0,0.1465387344360351,88.0,3.0,230000000.0,base_footprint,-0.0035741914974195,0.0014634484874632,0.9249117509655724,0.3801622500978536,0.0,0.0,0.0,0.0,0.0,0.0,0.0,0.0,0.0,-0.0015462528885954,0.0002261352436298,0.1635714550754488,0.0,0.0,0.0,0.0,0.0,0.0,0.0,0.0,0.0,0.0324232143241447,0.0127386099997701,0.0004529300992954,0.0,0.0,0.0,0.0,0.0,0.0,0.0,0.0,0.0
3.282,-0.005130045449067394,0.005021283474663296,0.004687296762902803,0.2245622615144118,0.12163052457505977,0.19557799117352578,0.17844231035643618,0.007003666894570046,0.0026206698744348257,0.00405029646834949,93,3,253000000,odom,base_footprint,-0.2338017546077228,0.2992150484460859,-0.0010024964541648,-0.0035755274546932,0.0014586800663918,0.9256128312538976,0.3784520768525763,"(1e-05, 0.0, 0.0, 0.0, 0.0, 0.0, 0.0, 1e-05, 0.0, 0.0, 0.0, 0.0, 0.0, 0.0, 1000000000000.0, 0.0, 0.0, 0.0, 0.0, 0.0, 0.0, 1000000000000.0, 0.0, 0.0, 0.0, 0.0, 0.0, 0.0, 1000000000000.0, 0.0, 0.0, 0.0, 0.0, 0.0, 0.0, 0.001)",0.2168463944606142,1.5198390331830349e-05,0.0,0.0,0.0,0.142584113170691,"(0.0, 0.0, 0.0, 0.0, 0.0, 0.0, 0.0, 0.0, 0.0, 0.0, 0.0, 0.0, 0.0, 0.0, 0.0, 0.0, 0.0, 0.0, 0.0, 0.0, 0.0, 0.0, 0.0, 0.0, 0.0, 0.0, 0.0, 0.0, 0.0, 0.0, 0.0, 0.0, 0.0, 0.0, 0.0, 0.0)",0.2084210515022277,8.26241957838647e-05,0.0,0.0,0.0,0.1465387344360351,89.0,3.0,264000000.0,base_footprint,-0.0035844362525645,0.0014536588727681,0.925848906983106,0.3778741061925528,0.0,0.0,0.0,0.0,0.0,0.0,0.0,0.0,0.0,-0.0030235126572206,-0.0024516719791948,0.1152021150912787,0.0,0.0,0.0,0.0,0.0,0.0,0.0,0.0,0.0,0.034637979796829,0.1105695168863274,-0.0003953890643619,0.0,0.0,0.0,0.0,0.0,0.0,0.0,0.0,0.0
3.316,-0.005048382023255499,0.004895744641284672,0.0052632963459555695,0.20664144620217528,0.1495145410902084,-0.5381626219890847,0.8373578533077666,0.006433796079699258,0.002440601425696538,0.00497883421830394,93,3,253000000,odom,base_footprint,-0.2338017546077228,0.2992150484460859,-0.0010024964541648,-0.0035755274546932,0.0014586800663918,0.9256128312538976,0.3784520768525763,"(1e-05, 0.0, 0.0, 0.0, 0.0, 0.0, 0.0, 1e-05, 0.0, 0.0, 0.0, 0.0, 0.0, 0.0, 1000000000000.0, 0.0, 0.0, 0.0, 0.0, 0.0, 0.0, 1000000000000.0, 0.0, 0.0, 0.0, 0.0, 0.0, 0.0, 1000000000000.0, 0.0, 0.0, 0.0, 0.0, 0.0, 0.0, 0.001)",0.2168463944606142,1.5198390331830349e-05,0.0,0.0,0.0,0.142584113170691,"(0.0, 0.0, 0.0, 0.0, 0.0, 0.0, 0.0, 0.0, 0.0, 0.0, 0.0, 0.0, 0.0, 0.0, 0.0, 0.0, 0.0, 0.0, 0.0, 0.0, 0.0, 0.0, 0.0, 0.0, 0.0, 0.0, 0.0, 0.0, 0.0, 0.0, 0.0, 0.0, 0.0, 0.0, 0.0, 0.0)",0.2084210515022277,8.26241957838647e-05,0.0,0.0,0.0,0.1465387344360351,90.0,3.0,298000000.0,base_footprint,-0.0035897701070278,0.0014485225481397,0.9268009267958112,0.3755330310684155,0.0,0.0,0.0,0.0,0.0,0.0,0.0,0.0,0.0,-0.0009493228074916,0.0005706678389406,0.1540819625849845,0.0,0.0,0.0,0.0,0.0,0.0,0.0,0.0,0.0,0.0213424038387213,0.1239379390697319,-0.001590220456685,0.0,0.0,0.0,0.0,0.0,0.0,0.0,0.0,0.0
3.35,-0.005077069608420887,0.004871087983875422,0.005211503899969382,0.2064000512574863,0.15285262225564802,-0.007249097438107261,0.10024267764082963,0.006413925903079947,0.002470071763446502,0.0050899923211130795,95,3,319000000,odom,base_footprint,-0.2436490572154584,0.3087957335073104,-0.0010036939448091,-0.0035914512281379,0.0014448482487588,0.9274366926097132,0.3739601517445011,"(1e-05, 0.0, 0.0, 0.0, 0.0, 0.0, 0.0, 1e-05, 0.0, 0.0, 0.0, 0.0, 0.0, 0.0, 1000000000000.0, 0.0, 0.0, 0.0, 0.0, 0.0, 0.0, 1000000000000.0, 0.0, 0.0, 0.0, 0.0, 0.0, 0.0, 1000000000000.0, 0.0, 0.0, 0.0, 0.0, 0.0, 0.0, 0.001)",0.2069407598559487,-3.850912095457182e-05,0.0,0.0,0.0,0.1541820573091757,"(0.0, 0.0, 0.0, 0.0, 0.0, 0.0, 0.0, 0.0, 0.0, 0.0, 0.0, 0.0, 0.0, 0.0, 0.0, 0.0, 0.0, 0.0, 0.0, 0.0, 0.0, 0.0, 0.0, 0.0, 0.0, 0.0, 0.0, 0.0, 0.0, 0.0, 0.0, 0.0, 0.0, 0.0, 0.0, 0.0)",0.1968421041965484,0.0,0.0,0.0,0.0,0.1131564229726791,91.0,3.0,332000000.0,base_footprint,-0.0035923874214448,0.0014422656392847,0.9277812110576736,0.373104595295738,0.0,0.0,0.0,0.0,0.0,0.0,0.0,0.0,0.0,-0.0009775227643759,0.0006851093271222,0.1535611670397341,0.0,0.0,0.0,0.0,0.0,0.0,0.0,0.0,0.0,0.0305527425441554,0.0025931377181827,7.258406955125004e-05,0.0,0.0,0.0,0.0,0.0,0.0,0.0,0.0,0.0
3.384,-0.004970153107919623,0.0047152171114244745,0.005779469904192869,0.21268937611409958,0.15633054985868491,0.18886861431271065,0.10444227036146815,0.006596177028305777,0.0025793289825637934,0.0052058073102942085,95,3,319000000,odom,base_footprint,-0.2436490572154584,0.3087957335073104,-0.0010036939448091,-0.0035914512281379,0.0014448482487588,0.9274366926097132,0.3739601517445011,"(1e-05, 0.0, 0.0, 0.0, 0.0, 0.0, 0.0, 1e-05, 0.0, 0.0, 0.0, 0.0, 0.0, 0.0, 1000000000000.0, 0.0, 0.0, 0.0, 0.0, 0.0, 0.0, 1000000000000.0, 0.0, 0.0, 0.0, 0.0, 0.0, 0.0, 1000000000000.0, 0.0, 0.0, 0.0, 0.0, 0.0, 0.0, 0.001)",0.2069407598559487,-3.850912095457182e-05,0.0,0.0,0.0,0.1541820573091757,"(0.0, 0.0, 0.0, 0.0, 0.0, 0.0, 0.0, 0.0, 0.0, 0.0, 0.0, 0.0, 0.0, 0.0, 0.0, 0.0, 0.0, 0.0, 0.0, 0.0, 0.0, 0.0, 0.0, 0.0, 0.0, 0.0, 0.0, 0.0, 0.0, 0.0, 0.0, 0.0, 0.0, 0.0, 0.0, 0.0)",0.1968421041965484,0.0,0.0,0.0,0.0,0.1131564229726791,92.0,3.0,366000000.0,base_footprint,-0.0035871301974899,0.0014235471470521,0.9288052444288714,0.3705481398305636,0.0,0.0,0.0,0.0,0.0,0.0,0.0,0.0,0.0,-0.0042480438000573,0.0004012526637014,0.1904057561306253,0.0,0.0,0.0,0.0,0.0,0.0,0.0,0.0,0.0,0.0231065293548742,0.1859096716998241,0.0036195719498371,0.0,0.0,0.0,0.0,0.0,0.0,0.0,0.0,0.0
3.418,-0.004878319164295375,0.004577097693662213,0.004405581759681976,0.19499616773557454,0.11435740802426088,-0.5313275789346856,-1.2604547097424634,0.006036738033195846,0.002391992454589028,0.0038081016872078878,97,3,386000000,odom,base_footprint,-0.2535325792453333,0.3182148140284547,-0.0010026506615046,-0.0035928786615638,0.0014197407188821,0.929445947451636,0.3689380792557815,"(1e-05, 0.0, 0.0, 0.0, 0.0, 0.0, 0.0, 1e-05, 0.0, 0.0, 0.0, 0.0, 0.0, 0.0, 1000000000000.0, 0.0, 0.0, 0.0, 0.0, 0.0, 0.0, 1000000000000.0, 0.0, 0.0, 0.0, 0.0, 0.0, 0.0, 1000000000000.0, 0.0, 0.0, 0.0, 0.0, 0.0, 0.0, 0.001)",0.1978560897158314,6.717377722735562e-05,0.0,0.0,0.0,0.146292240884406,"(0.0, 0.0, 0.0, 0.0, 0.0, 0.0, 0.0, 0.0, 0.0, 0.0, 0.0, 0.0, 0.0, 0.0, 0.0, 0.0, 0.0, 0.0, 0.0, 0.0, 0.0, 0.0, 0.0, 0.0, 0.0, 0.0, 0.0, 0.0, 0.0, 0.0, 0.0, 0.0, 0.0, 0.0, 0.0, 0.0)",0.1968421041965484,0.0,0.0,0.0,0.0,0.1131564229726791,93.0,3.0,400000000.0,base_footprint,-0.0035972748662525,0.0014231199034464,0.929774711568386,0.3681087068668733,0.0,0.0,0.0,0.0,0.0,0.0,0.0,0.0,0.0,7.341279134454482e-05,-0.0003447405682272,0.129936708773926,0.0,0.0,0.0,0.0,0.0,0.0,0.0,0.0,0.0,0.0268010650998718,0.1165254917962117,-0.0062686514541425,0.0,0.0,0.0,0.0,0.0,0.0,0.0,0.0,0.0
