Time,delta_position_x,delta_position_y,delta_yaw,linear_velocity_x,angular_velocity_yaw,linear_acceleration_x,angular_acceleration_yaw,kinematic_delta_x,kinematic_delta_y,kinematic_delta_yaw,header.seq_x,header.stamp.secs_x,header.stamp.nsecs_x,header.frame_id_x,child_frame_id,pose.pose.position.x,pose.pose.position.y,pose.pose.position.z,pose.pose.orientation.x,pose.pose.orientation.y,pose.pose.orientation.z,pose.pose.orientation.w,pose.covariance,twist.twist.linear.x,twist.twist.linear.y,twist.twist.linear.z,twist.twist.angular.x,twist.twist.angular.y,twist.twist.angular.z,twist.covariance,linear.x,linear.y,linear.z,angular.x,angular.y,angular.z,header.seq_y,header.stamp.secs_y,header.stamp.nsecs_y,header.frame_id_y,orientation.x,orientation.y,orientation.z,orientation.w,orientation_covariance_0,orientation_covariance_1,orientation_covariance_2,orientation_covariance_3,orientation_covariance_4,orientation_covariance_5,orientation_covariance_6,orientation_covariance_7,orientation_covariance_8,angular_velocity.x,angular_velocity.y,angular_velocity.z,angular_velocity_covariance_0,angular_velocity_covariance_1,angular_velocity_covariance_2,angular_velocity_covariance_3,angular_velocity_covariance_4,angular_velocity_covariance_5,angular_velocity_covariance_6,angular_velocity_covariance_7,angular_velocity_covariance_8,linear_acceleration.x,linear_acceleration.y,linear_acceleration.z,linear_acceleration_covariance_0,linear_acceleration_covariance_1,linear_acceleration_covariance_2,linear_acceleration_covariance_3,linear_acceleration_covariance_4,linear_acceleration_covariance_5,linear_acceleration_covariance_6,linear_acceleration_covariance_7,linear_acceleration_covariance_8
0.274,-7.17914696579669e-07,-7.069695273642651e-07,-7.499680401257258e-06,-3.491757687404095e-05,-0.0004469525909487099,-0.000787577974560581,-0.007607184122024978,-8.222110949195134e-07,-8.221732336194268e-07,-1.4883521278592042e-05,4.0,0.0,268000000.0,odom,base_footprint,-4.000006694486436,-4.00000824744377,-0.0007568506354318,-0.0008090500589665,0.0018231666931887,0.3826746597668571,0.923881013049587,"(1e-05, 0.0, 0.0, 0.0, 0.0, 0.0, 0.0, 1e-05, 0.0, 0.0, 0.0, 0.0, 0.0, 0.0, 1000000000000.0, 0.0, 0.0, 0.0, 0.0, 0.0, 0.0, 1000000000000.0, 0.0, 0.0, 0.0, 0.0, 0.0, 0.0, 1000000000000.0, 0.0, 0.0, 0.0, 0.0, 0.0, 0.0, 0.001)",-2.9900777150761287e-05,1.9621543391592635e-06,0.0,0.0,0.0,-0.0002444674789555,"(0.0, 0.0, 0.0, 0.0, 0.0, 0.0, 0.0, 0.0, 0.0, 0.0, 0.0, 0.0, 0.0, 0.0, 0.0, 0.0, 0.0, 0.0, 0.0, 0.0, 0.0, 0.0, 0.0, 0.0, 0.0, 0.0, 0.0, 0.0, 0.0, 0.0, 0.0, 0.0, 0.0, 0.0, 0.0, 0.0)",,,,,,,3.0,0.0,242000000.0,base_footprint,-0.0004238133133192,0.0009171393328509,0.3826781234220139,0.9238811790982244,0.0,0.0,0.0,0.0,0.0,0.0,0.0,0.0,0.0,-0.0677884582687416,-0.0006181970908648,-0.0001431935483785,0.0,0.0,0.0,0.0,0.0,0.0,0.0,0.0,0.0,-4.484756616742803e-06,-0.0010119311864085,0.0029868075147014,0.0,0.0,0.0,0.0,0.0,0.0,0.0,0.0,0.0
0.308,-9.425439646548739e-07,-9.18386291459683e-07,-7.928824037994886e-06,-7.274063803942227e-06,-0.0001270424410081745,0.0008301355276305923,0.009606911409625688,-1.7128545724419502e-07,-1.7127429609024473e-07,-4.230513285572212e-06,5.0,0.0,303000000.0,odom,base_footprint,-4.00000758710364,-4.000009117043184,-0.0009047776662874,-0.0012469834038695,0.0028531008221946,0.3826701141684275,0.9238798020145323,"(1e-05, 0.0, 0.0, 0.0, 0.0, 0.0, 0.0, 1e-05, 0.0, 0.0, 0.0, 0.0, 0.0, 0.0, 1000000000000.0, 0.0, 0.0, 0.0, 0.0, 0.0, 0.0, 1000000000000.0, 0.0, 0.0, 0.0, 0.0, 0.0, 0.0, 1000000000000.0, 0.0, 0.0, 0.0, 0.0, 0.0, 0.0, 0.001)",-3.8746949757868094e-05,2.0701191943360983e-06,0.0,0.0,0.0,-0.0002563675387329,"(0.0, 0.0, 0.0, 0.0, 0.0, 0.0, 0.0, 0.0, 0.0, 0.0, 0.0, 0.0, 0.0, 0.0, 0.0, 0.0, 0.0, 0.0, 0.0, 0.0, 0.0, 0.0, 0.0, 0.0, 0.0, 0.0, 0.0, 0.0, 0.0, 0.0, 0.0, 0.0, 0.0, 0.0, 0.0, 0.0)",,,,,,,4.0,0.0,276000000.0,base_footprint,-0.0008754335042633,0.0019792900587242,0.3826740132996784,0.9238808990190028,0.0,0.0,0.0,0.0,0.0,0.0,0.0,0.0,0.0,-0.0677123691418725,-0.0006176522425371,-4.198678604692563e-05,0.0,0.0,0.0,0.0,0.0,0.0,0.0,0.0,0.0,-1.720310727717852e-05,-0.0002610003382522,0.0001512302041805,0.0,0.0,0.0,0.0,0.0,0.0,0.0,0.0,0.0
0.342,-4.8366141305322685e-06,9.926227188206127e-06,-1.3895966964105888e-05,0.00018442483641485028,0.0004581384012544349,0.005756723730294069,0.017572998266144425,4.3427056938509845e-06,4.342470595912848e-06,1.5256008761772684e-05,6.0,0.0,337000000.0,odom,base_footprint,-4.000012279855572,-4.00000079183393,-0.0010028607943363,-0.0015124343466886,0.0036310712862902,0.3826631519270888,0.9238795592613178,"(1e-05, 0.0, 0.0, 0.0, 0.0, 0.0, 0.0, 1e-05, 0.0, 0.0, 0.0, 0.0, 0.0, 0.0, 1000000000000.0, 0.0, 0.0, 0.0, 0.0, 0.0, 0.0, 1000000000000.0, 0.0, 0.0, 0.0, 0.0, 0.0, 0.0, 1000000000000.0, 0.0, 0.0, 0.0, 0.0, 0.0, 0.0, 0.001)",0.0002241801632907,0.0005326335039521,0.0,0.0,0.0,-0.000674302474783,"(0.0, 0.0, 0.0, 0.0, 0.0, 0.0, 0.0, 0.0, 0.0, 0.0, 0.0, 0.0, 0.0, 0.0, 0.0, 0.0, 0.0, 0.0, 0.0, 0.0, 0.0, 0.0, 0.0, 0.0, 0.0, 0.0, 0.0, 0.0, 0.0, 0.0, 0.0, 0.0, 0.0, 0.0, 0.0, 0.0)",,,,,,,5.0,0.0,310000000.0,base_footprint,-0.0013265577773764,0.0030402401961508,0.3826692167365162,0.9238794660269672,0.0,0.0,0.0,0.0,0.0,0.0,0.0,0.0,0.0,-0.0676361886440923,-0.0006174271402002,5.565267554230884e-05,0.0,0.0,0.0,0.0,0.0,0.0,0.0,0.0,0.0,-1.807776832379637e-06,-0.0002676683445875,0.0001525518217861,0.0,0.0,0.0,0.0,0.0,0.0,0.0,0.0,0.0
0.376,6.84391549654606e-07,6.659985452017736e-08,-8.709969833819999e-06,3.806181602646848e-05,-0.000430928379171509,-0.004395285897549003,-0.026698702114893207,8.962523351471713e-07,8.962046274194419e-07,-1.434991502641125e-05,7.0,0.0,370000000.0,odom,base_footprint,-4.000011857995234,-3.999999248741131,-0.0010024793134461,-0.0014842669728931,0.0035647217419768,0.3826580377305207,0.9238819815705268,"(1e-05, 0.0, 0.0, 0.0, 0.0, 0.0, 0.0, 1e-05, 0.0, 0.0, 0.0, 0.0, 0.0, 0.0, 1000000000000.0, 0.0, 0.0, 0.0, 0.0, 0.0, 0.0, 1000000000000.0, 0.0, 0.0, 0.0, 0.0, 0.0, 0.0, 1000000000000.0, 0.0, 0.0, 0.0, 0.0, 0.0, 0.0, 0.001)",1.0666562398138458e-06,1.7777504619011562e-06,0.0,0.0,0.0,2.7169263568051475e-05,"(0.0, 0.0, 0.0, 0.0, 0.0, 0.0, 0.0, 0.0, 0.0, 0.0, 0.0, 0.0, 0.0, 0.0, 0.0, 0.0, 0.0, 0.0, 0.0, 0.0, 0.0, 0.0, 0.0, 0.0, 0.0, 0.0, 0.0, 0.0, 0.0, 0.0, 0.0, 0.0, 0.0, 0.0, 0.0, 0.0)",,,,,,,6.0,0.0,344000000.0,base_footprint,-0.0014833677886876,0.0035599433474294,0.3826618502736513,0.9238804223320852,0.0,0.0,0.0,0.0,0.0,0.0,0.0,0.0,0.0,0.0282423770182193,-0.0004850040901536,-0.0001241370872233,0.0,0.0,0.0,0.0,0.0,0.0,0.0,0.0,0.0,0.0008451303116111,0.0028285042082335,0.1503855813017483,0.0,0.0,0.0,0.0,0.0,0.0,0.0,0.0,0.0
0.41000000000000003,-3.2579445274905083e-07,2.46083614818815e-07,6.162917278285107e-06,-7.732195222608095e-06,1.7256458060416453e-05,-0.0013751955330053023,0.013459004121078842,-1.8207343937572626e-07,-1.8206123957638601e-07,5.74640053411868e-07,8.0,0.0,403000000.0,odom,base_footprint,-4.000012108763949,-3.999999056893948,-0.0010024031687074,-0.0014840288546295,0.0035641120845411,0.3826602455613148,0.9238810698517216,"(1e-05, 0.0, 0.0, 0.0, 0.0, 0.0, 0.0, 1e-05, 0.0, 0.0, 0.0, 0.0, 0.0, 0.0, 1000000000000.0, 0.0, 0.0, 0.0, 0.0, 0.0, 0.0, 1000000000000.0, 0.0, 0.0, 0.0, 0.0, 0.0, 0.0, 1000000000000.0, 0.0, 0.0, 0.0, 0.0, 0.0, 0.0, 0.001)",-2.086865212303624e-06,1.6747155428305393e-05,0.0,0.0,0.0,0.0002540641425756,"(0.0, 0.0, 0.0, 0.0, 0.0, 0.0, 0.0, 0.0, 0.0, 0.0, 0.0, 0.0, 0.0, 0.0, 0.0, 0.0, 0.0, 0.0, 0.0, 0.0, 0.0, 0.0, 0.0, 0.0, 0.0, 0.0, 0.0, 0.0, 0.0, 0.0, 0.0, 0.0, 0.0, 0.0, 0.0, 0.0)",,,,,,,7.0,0.0,378000000.0,base_footprint,-0.0014840718546073,0.0035643742813406,0.3826581371962969,0.9238819420273202,0.0,0.0,0.0,0.0,0.0,0.0,0.0,0.0,0.0,-0.0002086623269023,2.83612814650678e-05,8.415185868514842e-05,0.0,0.0,0.0,0.0,0.0,0.0,0.0,0.0,0.0,-0.0002281246215455,-0.0009482241119148,-0.0188100627142237,0.0,0.0,0.0,0.0,0.0,0.0,0.0,0.0,0.0
0.444,-5.141639549677279e-07,3.874009690818525e-07,9.690425956665472e-06,-7.353267750657666e-06,0.0001517079031899777,1.137920336187476e-05,0.004037580934821659,-1.7315017859753883e-07,-1.7313955089504302e-07,5.051873176226258e-06,8.0,0.0,403000000.0,odom,base_footprint,-4.000012108763949,-3.999999056893948,-0.0010024031687074,-0.0014840288546295,0.0035641120845411,0.3826602455613148,0.9238810698517216,"(1e-05, 0.0, 0.0, 0.0, 0.0, 0.0, 0.0, 1e-05, 0.0, 0.0, 0.0, 0.0, 0.0, 0.0, 1000000000000.0, 0.0, 0.0, 0.0, 0.0, 0.0, 0.0, 1000000000000.0, 0.0, 0.0, 0.0, 0.0, 0.0, 0.0, 1000000000000.0, 0.0, 0.0, 0.0, 0.0, 0.0, 0.0, 0.001)",-2.086865212303624e-06,1.6747155428305393e-05,0.0,0.0,0.0,0.0002540641425756,"(0.0, 0.0, 0.0, 0.0, 0.0, 0.0, 0.0, 0.0, 0.0, 0.0, 0.0, 0.0, 0.0, 0.0, 0.0, 0.0, 0.0, 0.0, 0.0, 0.0, 0.0, 0.0, 0.0, 0.0, 0.0, 0.0, 0.0, 0.0, 0.0, 0.0, 0.0, 0.0, 0.0, 0.0, 0.0, 0.0)",,,,,,,8.0,0.0,412000000.0,base_footprint,-0.0014840340918503,0.0035640862107294,0.3826611712045126,0.923880686552483,0.0,0.0,0.0,0.0,0.0,0.0,0.0,0.0,0.0,0.0001945074398151,3.355979659443098e-05,0.0002769417652322,0.0,0.0,0.0,0.0,0.0,0.0,0.0,0.0,0.0,-0.0003770414162658,-3.905290837145391e-05,0.0004148651991301,0.0,0.0,0.0,0.0,0.0,0.0,0.0,0.0,0.0
0.47800000000000004,-5.600901475943942e-07,4.217626510261141e-07,1.0549067354426178e-05,-5.5187560094234356e-06,0.00019172566393378383,5.509044267970661e-05,0.0012017345568710548,-1.299514933046281e-07,-1.2994500315692537e-07,6.384464608995002e-06,9.0,0.0,437000000.0,odom,base_footprint,-4.000012605790277,-3.999998682360951,-0.0010023894471001,-0.0014840353965743,0.0035640031431719,0.3826645739547598,0.9238792774819444,"(1e-05, 0.0, 0.0, 0.0, 0.0, 0.0, 0.0, 1e-05, 0.0, 0.0, 0.0, 0.0, 0.0, 0.0, 1000000000000.0, 0.0, 0.0, 0.0, 0.0, 0.0, 0.0, 1000000000000.0, 0.0, 0.0, 0.0, 0.0, 0.0, 0.0, 1000000000000.0, 0.0, 0.0, 0.0, 0.0, 0.0, 0.0, 0.001)",-2.635574544510261e-06,2.087866583548684e-05,0.0,0.0,0.0,0.0003164885179871,"(0.0, 0.0, 0.0, 0.0, 0.0, 0.0, 0.0, 0.0, 0.0, 0.0, 0.0, 0.0, 0.0, 0.0, 0.0, 0.0, 0.0, 0.0, 0.0, 0.0, 0.0, 0.0, 0.0, 0.0, 0.0, 0.0, 0.0, 0.0, 0.0, 0.0, 0.0, 0.0, 0.0, 0.0, 0.0, 0.0)",,,,,,,9.0,0.0,446000000.0,base_footprint,-0.0014840389151252,0.0035639896516426,0.3826656891758397,0.9238788156104896,0.0,0.0,0.0,0.0,0.0,0.0,0.0,0.0,0.0,0.0001801306654534,3.4451880094336173e-05,0.0003209406442996,0.0,0.0,0.0,0.0,0.0,0.0,0.0,0.0,0.0,-8.56312413548535e-05,-1.192006580604338e-05,-1.942715906080705e-05,0.0,0.0,0.0,0.0,0.0,0.0,0.0,0.0,0.0
0.512,-5.714875577211842e-07,4.3028955776236444e-07,1.0762150354004518e-05,-4.0251358084864714e-06,0.00021198209038490983,4.4853459487596516e-05,0.0006083010946284084,-9.478021720697221e-08,-9.477675773377253e-08,7.059003609817498e-06,9.0,0.0,437000000.0,odom,base_footprint,-4.000012605790277,-3.999998682360951,-0.0010023894471001,-0.0014840353965743,0.0035640031431719,0.3826645739547598,0.9238792774819444,"(1e-05, 0.0, 0.0, 0.0, 0.0, 0.0, 0.0, 1e-05, 0.0, 0.0, 0.0, 0.0, 0.0, 0.0, 1000000000000.0, 0.0, 0.0, 0.0, 0.0, 0.0, 0.0, 1000000000000.0, 0.0, 0.0, 0.0, 0.0, 0.0, 0.0, 1000000000000.0, 0.0, 0.0, 0.0, 0.0, 0.0, 0.0, 0.001)",-2.635574544510261e-06,2.087866583548684e-05,0.0,0.0,0.0,0.0003164885179871,"(0.0, 0.0, 0.0, 0.0, 0.0, 0.0, 0.0, 0.0, 0.0, 0.0, 0.0, 0.0, 0.0, 0.0, 0.0, 0.0, 0.0, 0.0, 0.0, 0.0, 0.0, 0.0, 0.0, 0.0, 0.0, 0.0, 0.0, 0.0, 0.0, 0.0, 0.0, 0.0, 0.0, 0.0, 0.0, 0.0)",,,,,,,10.0,0.0,480000000.0,base_footprint,-0.0014840598882844,0.0035639589806861,0.3826705725698054,0.9238767930042022,0.0,0.0,0.0,0.0,0.0,0.0,0.0,0.0,0.0,0.0001784790569881,3.4782396490375695e-05,0.0003318806144166,0.0,0.0,0.0,0.0,0.0,0.0,0.0,0.0,0.0,-2.130942912159799e-05,-2.8702244415747865e-06,-2.710987959552464e-06,0.0,0.0,0.0,0.0,0.0,0.0,0.0,0.0,0.0
0.546,-5.743372302191574e-07,4.324081359641241e-07,1.0815301611954986e-05,-2.7866479518513504e-06,0.00023026667826435808,3.719182752658021e-05,0.000549086723106554,-6.561695454588095e-08,-6.561552583612636e-08,7.667880386203124e-06,11.0,0.0,503000000.0,odom,base_footprint,-4.00001369839418,-3.999997859627467,-0.0010023850718194,-0.0014840765468513,0.0035639476453397,0.3826740798511341,0.9238753402943886,"(1e-05, 0.0, 0.0, 0.0, 0.0, 0.0, 0.0, 1e-05, 0.0, 0.0, 0.0, 0.0, 0.0, 0.0, 1000000000000.0, 0.0, 0.0, 0.0, 0.0, 0.0, 0.0, 1000000000000.0, 0.0, 0.0, 0.0, 0.0, 0.0, 0.0, 1000000000000.0, 0.0, 0.0, 0.0, 0.0, 0.0, 0.0, 0.001)",-2.8025575794491287e-06,2.212443444554811e-05,0.0,0.0,0.0,0.0003352985100043,"(0.0, 0.0, 0.0, 0.0, 0.0, 0.0, 0.0, 0.0, 0.0, 0.0, 0.0, 0.0, 0.0, 0.0, 0.0, 0.0, 0.0, 0.0, 0.0, 0.0, 0.0, 0.0, 0.0, 0.0, 0.0, 0.0, 0.0, 0.0, 0.0, 0.0, 0.0, 0.0, 0.0, 0.0, 0.0, 0.0)",,,,,,,11.0,0.0,514000000.0,base_footprint,-0.0014840836038237,0.0035639438683631,0.382675546608437,0.9238747327575824,0.0,0.0,0.0,0.0,0.0,0.0,0.0,0.0,0.0,0.0001780409467353,3.488984400049869e-05,0.0003346044188225,0.0,0.0,0.0,0.0,0.0,0.0,0.0,0.0,0.0,-5.3085131194388375e-06,-7.039573796895488e-07,-6.519675870621432e-07,0.0,0.0,0.0,0.0,0.0,0.0,0.0,0.0,0.0
0.5800000000000001,-5.75068074937235e-07,4.329379201806205e-07,1.0828806983442796e-05,-1.5382832932747976e-06,0.0002301734616605293,3.7488428185482064e-05,-2.799297412275873e-06,-3.622154390281137e-08,-3.6221310598068984e-08,7.664776273295627e-06,13.0,0.0,570000000.0,odom,base_footprint,-4.000014830417739,-3.9999970073570736,-0.0010023850349193,-0.0014841237323156,0.0035639259996525,0.3826839269674619,0.9238712615126518,"(1e-05, 0.0, 0.0, 0.0, 0.0, 0.0, 0.0, 1e-05, 0.0, 0.0, 0.0, 0.0, 0.0, 0.0, 1000000000000.0, 0.0, 0.0, 0.0, 0.0, 0.0, 0.0, 1000000000000.0, 0.0, 0.0, 0.0, 0.0, 0.0, 0.0, 1000000000000.0, 0.0, 0.0, 0.0, 0.0, 0.0, 0.0, 0.001)",-2.814414606392589e-06,2.2209788623392504e-05,0.0,0.0,0.0,0.0003365873893248,"(0.0, 0.0, 0.0, 0.0, 0.0, 0.0, 0.0, 0.0, 0.0, 0.0, 0.0, 0.0, 0.0, 0.0, 0.0, 0.0, 0.0, 0.0, 0.0, 0.0, 0.0, 0.0, 0.0, 0.0, 0.0, 0.0, 0.0, 0.0, 0.0, 0.0, 0.0, 0.0, 0.0, 0.0, 0.0, 0.0)",,,,,,,12.0,0.0,548000000.0,base_footprint,-0.001484107621423,0.0035639327871907,0.3826805432601883,0.9238726630968924,0.0,0.0,0.0,0.0,0.0,0.0,0.0,0.0,0.0,0.0001779336521543,3.4944795256625705e-05,0.0003352911603116,0.0,0.0,0.0,0.0,0.0,0.0,0.0,0.0,0.0,-1.3371120646953554e-06,-1.930313384593466e-07,-1.6523613114860696e-07,0.0,0.0,0.0,0.0,0.0,0.0,0.0,0.0,0.0
0.614,-5.752734519859359e-07,4.3307369601564005e-07,1.0832480740630148e-05,-4.810855162567297e-07,0.0002332951963071507,3.174768099153357e-05,9.374578518382566e-05,-1.1327904135122145e-08,-1.1328006000867166e-08,7.76873003702812e-06,13.0,0.0,570000000.0,odom,base_footprint,-4.000014830417739,-3.9999970073570736,-0.0010023850349193,-0.0014841237323156,0.0035639259996525,0.3826839269674619,0.9238712615126518,"(1e-05, 0.0, 0.0, 0.0, 0.0, 0.0, 0.0, 1e-05, 0.0, 0.0, 0.0, 0.0, 0.0, 0.0, 1000000000000.0, 0.0, 0.0, 0.0, 0.0, 0.0, 0.0, 1000000000000.0, 0.0, 0.0, 0.0, 0.0, 0.0, 0.0, 1000000000000.0, 0.0, 0.0, 0.0, 0.0, 0.0, 0.0, 0.001)",-2.814414606392589e-06,2.2209788623392504e-05,0.0,0.0,0.0,0.0003365873893248,"(0.0, 0.0, 0.0, 0.0, 0.0, 0.0, 0.0, 0.0, 0.0, 0.0, 0.0, 0.0, 0.0, 0.0, 0.0, 0.0, 0.0, 0.0, 0.0, 0.0, 0.0, 0.0, 0.0, 0.0, 0.0, 0.0, 0.0, 0.0, 0.0, 0.0, 0.0, 0.0, 0.0, 0.0, 0.0, 0.0)",,,,,,,13.0,0.0,582000000.0,base_footprint,-0.0014841313806017,0.0035639228456136,0.3826855456598801,0.9238705910196492,0.0,0.0,0.0,0.0,0.0,0.0,0.0,0.0,0.0,0.0001779081692977,3.4984641652664415e-05,0.0003354727631432,0.0,0.0,0.0,0.0,0.0,0.0,0.0,0.0,0.0,-3.522331123383948e-07,-6.630183919235405e-08,-4.537499543387609e-08,0.0,0.0,0.0,0.0,0.0,0.0,0.0,0.0,0.0
0.648,-5.753484773052264e-07,4.331117486877645e-07,1.0833716255653771e-05,5.769662495765534e-07,0.00024046172680056307,3.1773326301299784e-05,0.0002152111259282995,1.358545744559464e-08,1.3585793941604198e-08,8.00737550245875e-06,15.0,0.0,637000000.0,odom,base_footprint,-4.000015964068504,-3.9999961539373095,-0.0010023852549559,-0.0014841697150683,0.0035639072681092,0.3826937877898874,0.9238671769211578,"(1e-05, 0.0, 0.0, 0.0, 0.0, 0.0, 0.0, 1e-05, 0.0, 0.0, 0.0, 0.0, 0.0, 0.0, 1000000000000.0, 0.0, 0.0, 0.0, 0.0, 0.0, 0.0, 1000000000000.0, 0.0, 0.0, 0.0, 0.0, 0.0, 0.0, 1000000000000.0, 0.0, 0.0, 0.0, 0.0, 0.0, 0.0, 0.001)",-2.816262156968988e-06,2.2217031446380518e-05,0.0,0.0,0.0,0.0003366980611968,"(0.0, 0.0, 0.0, 0.0, 0.0, 0.0, 0.0, 0.0, 0.0, 0.0, 0.0, 0.0, 0.0, 0.0, 0.0, 0.0, 0.0, 0.0, 0.0, 0.0, 0.0, 0.0, 0.0, 0.0, 0.0, 0.0, 0.0, 0.0, 0.0, 0.0, 0.0, 0.0, 0.0, 0.0, 0.0, 0.0)",,,,,,,14.0,0.0,616000000.0,base_footprint,-0.0014841547738949,0.0035639133144627,0.3826905496253066,0.9238685182611078,0.0,0.0,0.0,0.0,0.0,0.0,0.0,0.0,0.0,0.000177902974733,3.501884461993061e-05,0.0003355291216897,0.0,0.0,0.0,0.0,0.0,0.0,0.0,0.0,0.0,-1.0797558361329109e-07,-3.4834677125645354e-08,-1.6139549064062127e-08,0.0,0.0,0.0,0.0,0.0,0.0,0.0,0.0,0.0
0.682,-5.753911382910815e-07,4.331255545331203e-07,1.08343468461225e-05,1.6277954297792925e-06,0.00023049069898609226,3.155643183792009e-05,-0.0002994302646988231,3.8328363481038776e-08,3.8329913942810405e-08,7.675340276236874e-06,15.0,0.0,637000000.0,odom,base_footprint,-4.000015964068504,-3.9999961539373095,-0.0010023852549559,-0.0014841697150683,0.0035639072681092,0.3826937877898874,0.9238671769211578,"(1e-05, 0.0, 0.0, 0.0, 0.0, 0.0, 0.0, 1e-05, 0.0, 0.0, 0.0, 0.0, 0.0, 0.0, 1000000000000.0, 0.0, 0.0, 0.0, 0.0, 0.0, 0.0, 1000000000000.0, 0.0, 0.0, 0.0, 0.0, 0.0, 0.0, 1000000000000.0, 0.0, 0.0, 0.0, 0.0, 0.0, 0.0, 0.001)",-2.816262156968988e-06,2.2217031446380518e-05,0.0,0.0,0.0,0.0003366980611968,"(0.0, 0.0, 0.0, 0.0, 0.0, 0.0, 0.0, 0.0, 0.0, 0.0, 0.0, 0.0, 0.0, 0.0, 0.0, 0.0, 0.0, 0.0, 0.0, 0.0, 0.0, 0.0, 0.0, 0.0, 0.0, 0.0, 0.0, 0.0, 0.0, 0.0, 0.0, 0.0, 0.0, 0.0, 0.0, 0.0)",,,,,,,15.0,0.0,650000000.0,base_footprint,-0.0014841778027199,0.0035639040010162,0.3826955541193828,0.9238664452515744,0.0,0.0,0.0,0.0,0.0,0.0,0.0,0.0,0.0,0.0001779028177256,3.504992734682647e-05,0.0003355544386251,0.0,0.0,0.0,0.0,0.0,0.0,0.0,0.0,0.0,-4.737611825770752e-08,-2.6997677653310488e-08,-9.325693844293522e-09,0.0,0.0,0.0,0.0,0.0,0.0,0.0,0.0,0.0
0.7160000000000001,-5.754257390577777e-07,4.331333238738466e-07,1.0834827217087728e-05,2.7624285771846716e-06,0.00022457997123845712,3.4073067489651024e-05,-0.0001774993317608148,6.5044146447797e-08,6.50477633352804e-08,7.478513042240623e-06,16.0,0.0,670000000.0,odom,base_footprint,-4.000016522524974,-3.99999573355384,-0.0010023853613958,-0.0014841918553442,0.0035638983299643,0.3826986452718516,0.9238651647888452,"(1e-05, 0.0, 0.0, 0.0, 0.0, 0.0, 0.0, 1e-05, 0.0, 0.0, 0.0, 0.0, 0.0, 0.0, 1000000000000.0, 0.0, 0.0, 0.0, 0.0, 0.0, 0.0, 1000000000000.0, 0.0, 0.0, 0.0, 0.0, 0.0, 0.0, 1000000000000.0, 0.0, 0.0, 0.0, 0.0, 0.0, 0.0, 0.001)",-2.816865835008033e-06,2.221823590807865e-05,0.0,0.0,0.0,0.0003367169523607,"(0.0, 0.0, 0.0, 0.0, 0.0, 0.0, 0.0, 0.0, 0.0, 0.0, 0.0, 0.0, 0.0, 0.0, 0.0, 0.0, 0.0, 0.0, 0.0, 0.0, 0.0, 0.0, 0.0, 0.0, 0.0, 0.0, 0.0, 0.0, 0.0, 0.0, 0.0, 0.0, 0.0, 0.0, 0.0, 0.0)",,,,,,,16.0,0.0,684000000.0,base_footprint,-0.0014842004928955,0.003563894846698,0.3827005588848955,0.9238643720977704,0.0,0.0,0.0,0.0,0.0,0.0,0.0,0.0,0.0,0.0001779039149181,3.50786757125357e-05,0.0003355720711929,0.0,0.0,0.0,0.0,0.0,0.0,0.0,0.0,0.0,-3.231953880663647e-08,-2.502426584363901e-08,-8.031582139696862e-09,0.0,0.0,0.0,0.0,0.0,0.0,0.0,0.0,0.0
0.75,-5.754583076722497e-07,4.331395890844192e-07,1.0835270113029871e-05,4.175227657036038e-06,0.00022178737936542808,4.242639879433532e-05,-8.386161780868003e-05,9.83091845193379e-08,9.831611252559043e-08,7.385519732868756e-06,18.0,0.0,737000000.0,odom,base_footprint,-4.00001765646235,-3.999994880024558,-0.00100238556063,-0.0014842359063063,0.0035638805784063,0.3827085080498789,0.9238610792025136,"(1e-05, 0.0, 0.0, 0.0, 0.0, 0.0, 0.0, 1e-05, 0.0, 0.0, 0.0, 0.0, 0.0, 0.0, 1000000000000.0, 0.0, 0.0, 0.0, 0.0, 0.0, 0.0, 1000000000000.0, 0.0, 0.0, 0.0, 0.0, 0.0, 0.0, 1000000000000.0, 0.0, 0.0, 0.0, 0.0, 0.0, 0.0, 0.001)",-2.818031442065654e-06,2.222021308420946e-05,0.0,0.0,0.0,0.0003367483537874,"(0.0, 0.0, 0.0, 0.0, 0.0, 0.0, 0.0, 0.0, 0.0, 0.0, 0.0, 0.0, 0.0, 0.0, 0.0, 0.0, 0.0, 0.0, 0.0, 0.0, 0.0, 0.0, 0.0, 0.0, 0.0, 0.0, 0.0, 0.0, 0.0, 0.0, 0.0, 0.0, 0.0, 0.0, 0.0, 0.0)",,,,,,,17.0,0.0,718000000.0,base_footprint,-0.0014842228739223,0.0035638858271909,0.3827055638580578,0.92386229882616,0.0,0.0,0.0,0.0,0.0,0.0,0.0,0.0,0.0,0.0001779053288367,3.510542928414988e-05,0.0003355878151037,0.0,0.0,0.0,0.0,0.0,0.0,0.0,0.0,0.0,-2.8568679021640417e-08,-2.4509424251472188e-08,-8.069117058942321e-09,0.0,0.0,0.0,0.0,0.0,0.0,0.0,0.0,0.0
0.784,-5.754903433796699e-07,4.331454608319518e-07,1.0835703552314335e-05,5.524031653274776e-06,0.00020243897535298427,4.050462451167382e-05,-0.0005810331535268411,1.3006697012777023e-07,1.3007797372280388e-07,6.741217879254377e-06,19.0,0.0,770000000.0,odom,base_footprint,-4.000018215015103,-3.9999944596207433,-0.00100238565084,-0.0014842572115884,0.0035638720020677,0.382713366108894,0.9238590667404212,"(1e-05, 0.0, 0.0, 0.0, 0.0, 0.0, 0.0, 1e-05, 0.0, 0.0, 0.0, 0.0, 0.0, 0.0, 1000000000000.0, 0.0, 0.0, 0.0, 0.0, 0.0, 0.0, 1000000000000.0, 0.0, 0.0, 0.0, 0.0, 0.0, 0.0, 1000000000000.0, 0.0, 0.0, 0.0, 0.0, 0.0, 0.0, 0.001)",-2.818598927404473e-06,2.222114537698484e-05,0.0,0.0,0.0,0.0003367632406217,"(0.0, 0.0, 0.0, 0.0, 0.0, 0.0, 0.0, 0.0, 0.0, 0.0, 0.0, 0.0, 0.0, 0.0, 0.0, 0.0, 0.0, 0.0, 0.0, 0.0, 0.0, 0.0, 0.0, 0.0, 0.0, 0.0, 0.0, 0.0, 0.0, 0.0, 0.0, 0.0, 0.0, 0.0, 0.0, 0.0)",,,,,,,18.0,0.0,752000000.0,base_footprint,-0.0014842449740754,0.0035638769275877,0.3827105690230228,0.9238602254433168,0.0,0.0,0.0,0.0,0.0,0.0,0.0,0.0,0.0,0.0001779068249549,3.5130403591415995e-05,0.0003356030985551,0.0,0.0,0.0,0.0,0.0,0.0,0.0,0.0,0.0,-2.7608458985623193e-08,-2.435681929589592e-08,-8.404854964414116e-09,0.0,0.0,0.0,0.0,0.0,0.0,0.0,0.0,0.0
0.8180000000000001,-5.755222165504392e-07,4.3315122910669857e-07,1.083613452967924e-05,7.172561929698206e-06,0.00018635981525940296,4.95054137064093e-05,-0.00048285766046790693,1.6888160985903533e-07,1.6889808386115266e-07,6.205781848138119e-06,20.0,0.0,803000000.0,odom,base_footprint,-4.000018773597921,-3.999994039211474,-0.0010023857363786,-0.0014842782895334,0.0035638635220822,0.3827182243442421,0.9238570541753448,"(1e-05, 0.0, 0.0, 0.0, 0.0, 0.0, 0.0, 1e-05, 0.0, 0.0, 0.0, 0.0, 0.0, 0.0, 1000000000000.0, 0.0, 0.0, 0.0, 0.0, 0.0, 0.0, 1000000000000.0, 0.0, 0.0, 0.0, 0.0, 0.0, 0.0, 1000000000000.0, 0.0, 0.0, 0.0, 0.0, 0.0, 0.0, 0.001)",-2.819164187883566e-06,2.222207459696956e-05,0.0,0.0,0.0,0.0003367780840788,"(0.0, 0.0, 0.0, 0.0, 0.0, 0.0, 0.0, 0.0, 0.0, 0.0, 0.0, 0.0, 0.0, 0.0, 0.0, 0.0, 0.0, 0.0, 0.0, 0.0, 0.0, 0.0, 0.0, 0.0, 0.0, 0.0, 0.0, 0.0, 0.0, 0.0, 0.0, 0.0, 0.0, 0.0, 0.0, 0.0)",,,,,,,19.0,0.0,786000000.0,base_footprint,-0.0014842668193732,0.0035638681361334,0.3827155743758648,0.9238581519508658,0.0,0.0,0.0,0.0,0.0,0.0,0.0,0.0,0.0,0.0001779083466582,3.5153771647980614e-05,0.0003356182822072,0.0,0.0,0.0,0.0,0.0,0.0,0.0,0.0,0.0,-2.7357095939800196e-08,-2.4298360408356863e-08,-8.782165562406905e-09,0.0,0.0,0.0,0.0,0.0,0.0,0.0,0.0,0.0
0.8520000000000001,-5.755540311014329e-07,4.331569556370596e-07,1.0836564723670783e-05,9.301877999779266e-06,0.0001720498724461149,6.394342552795976e-05,-0.00042972801241105264,2.190161299759184e-07,2.190401087268153e-07,5.729260752455627e-06,20.0,0.0,803000000.0,odom,base_footprint,-4.000018773597921,-3.999994039211474,-0.0010023857363786,-0.0014842782895334,0.0035638635220822,0.3827182243442421,0.9238570541753448,"(1e-05, 0.0, 0.0, 0.0, 0.0, 0.0, 0.0, 1e-05, 0.0, 0.0, 0.0, 0.0, 0.0, 0.0, 1000000000000.0, 0.0, 0.0, 0.0, 0.0, 0.0, 0.0, 1000000000000.0, 0.0, 0.0, 0.0, 0.0, 0.0, 0.0, 1000000000000.0, 0.0, 0.0, 0.0, 0.0, 0.0, 0.0, 0.001)",-2.819164187883566e-06,2.222207459696956e-05,0.0,0.0,0.0,0.0003367780840788,"(0.0, 0.0, 0.0, 0.0, 0.0, 0.0, 0.0, 0.0, 0.0, 0.0, 0.0, 0.0, 0.0, 0.0, 0.0, 0.0, 0.0, 0.0, 0.0, 0.0, 0.0, 0.0, 0.0, 0.0, 0.0, 0.0, 0.0, 0.0, 0.0, 0.0, 0.0, 0.0, 0.0, 0.0, 0.0, 0.0)",,,,,,,20.0,0.0,820000000.0,base_footprint,-0.0014842884335148,0.0035638594426057,0.382720579915619,0.9238560783492048,0.0,0.0,0.0,0.0,0.0,0.0,0.0,0.0,0.0,0.000177909877734,3.5175684669234015e-05,0.0003356334503485,0.0,0.0,0.0,0.0,0.0,0.0,0.0,0.0,0.0,-2.7275258038026423e-08,-2.426465393246716e-08,-9.145760743486893e-09,0.0,0.0,0.0,0.0,0.0,0.0,0.0,0.0,0.0
0.886,-5.755858083489329e-07,4.3316266618020904e-07,1.0836994570162519e-05,-0.00015251198052393242,0.0021894549477755065,-0.004859275030742093,0.06058273499487662,-3.590809319982877e-06,-3.5914848723267523e-06,7.290884976092437e-05,21.0,0.0,837000000.0,odom,base_footprint,-4.0000193491388565,-3.9999936060568726,-0.0010023858200608,-0.0014842997901422,0.0035638548766302,0.3827232299828236,0.9238549805159174,"(1e-05, 0.0, 0.0, 0.0, 0.0, 0.0, 0.0, 1e-05, 0.0, 0.0, 0.0, 0.0, 0.0, 0.0, 1000000000000.0, 0.0, 0.0, 0.0, 0.0, 0.0, 0.0, 1000000000000.0, 0.0, 0.0, 0.0, 0.0, 0.0, 0.0, 1000000000000.0, 0.0, 0.0, 0.0, 0.0, 0.0, 0.0, 0.001)",-2.819745136457493e-06,2.2223030310774988e-05,0.0,0.0,0.0,0.0003367933694335,"(0.0, 0.0, 0.0, 0.0, 0.0, 0.0, 0.0, 0.0, 0.0, 0.0, 0.0, 0.0, 0.0, 0.0, 0.0, 0.0, 0.0, 0.0, 0.0, 0.0, 0.0, 0.0, 0.0, 0.0, 0.0, 0.0, 0.0, 0.0, 0.0, 0.0, 0.0, 0.0, 0.0, 0.0, 0.0, 0.0)",,,,,,,21.0,0.0,854000000.0,base_footprint,-0.0014843098380218,0.0035638508378421,0.3827255856420277,0.923854004638437,0.0,0.0,0.0,0.0,0.0,0.0,0.0,0.0,0.0,0.0001779114150533,3.519627759904773e-05,0.0003356486239171,0.0,0.0,0.0,0.0,0.0,0.0,0.0,0.0,0.0,-2.7238984982806788e-08,-2.4238858952746865e-08,-9.477930814289404e-09,0.0,0.0,0.0,0.0,0.0,0.0,0.0,0.0,0.0
0.92,-5.756175491811177e-07,4.3316836073614695e-07,1.0837424187948308e-05,9.91918757911263e-06,0.0001617421180071511,0.004877812855947299,-0.060892277170220874,2.3353258184748732e-07,2.3359480575422246e-07,5.386012529638132e-06,22.0,0.0,870000000.0,odom,base_footprint,-4.000019907782521,-3.999993185636647,-0.0010023858973556,-0.0014843204678374,0.0035638465661271,0.3827280885751973,0.92385296774215,"(1e-05, 0.0, 0.0, 0.0, 0.0, 0.0, 0.0, 1e-05, 0.0, 0.0, 0.0, 0.0, 0.0, 0.0, 1000000000000.0, 0.0, 0.0, 0.0, 0.0, 0.0, 0.0, 1000000000000.0, 0.0, 0.0, 0.0, 0.0, 0.0, 0.0, 1000000000000.0, 0.0, 0.0, 0.0, 0.0, 0.0, 0.0, 0.001)",-2.8203103906074816e-06,2.222395657386257e-05,0.0,0.0,0.0,0.0003368082051313,"(0.0, 0.0, 0.0, 0.0, 0.0, 0.0, 0.0, 0.0, 0.0, 0.0, 0.0, 0.0, 0.0, 0.0, 0.0, 0.0, 0.0, 0.0, 0.0, 0.0, 0.0, 0.0, 0.0, 0.0, 0.0, 0.0, 0.0, 0.0, 0.0, 0.0, 0.0, 0.0, 0.0, 0.0, 0.0, 0.0)",,,,,,,23.0,0.0,922000000.0,base_footprint,-0.0014843520944327,0.0035638338622379,0.382735597654527,0.9238498568896866,0.0,0.0,0.0,0.0,0.0,0.0,0.0,0.0,0.0,0.0001779145027847,3.523398410140076e-05,0.0003356789991293,0.0,0.0,0.0,0.0,0.0,0.0,0.0,0.0,0.0,-2.7194422535446677e-08,-2.4197394627122748e-08,-1.005640868318652e-08,0.0,0.0,0.0,0.0,0.0,0.0,0.0,0.0,0.0
0.9540000000000001,-5.756492749142694e-07,4.331740384166949e-07,1.0837853683054455e-05,8.497214048459442e-06,0.00019056203978885122,-4.270190782742309e-05,0.000865463116567571,2.000531471117341e-07,2.0010879815966335e-07,6.345715924968746e-06,24.0,0.0,937000000.0,odom,base_footprint,-4.0000210420904505,-3.999992332039681,-0.0010023860438072,-0.0014843619415434,0.0035638299084282,0.3827379535306154,0.9238488808854004,"(1e-05, 0.0, 0.0, 0.0, 0.0, 0.0, 0.0, 1e-05, 0.0, 0.0, 0.0, 0.0, 0.0, 0.0, 1000000000000.0, 0.0, 0.0, 0.0, 0.0, 0.0, 0.0, 1000000000000.0, 0.0, 0.0, 0.0, 0.0, 0.0, 0.0, 1000000000000.0, 0.0, 0.0, 0.0, 0.0, 0.0, 0.0, 0.001)",-2.821452709345052e-06,2.2225836577562e-05,0.0,0.0,0.0,0.0003368383390039,"(0.0, 0.0, 0.0, 0.0, 0.0, 0.0, 0.0, 0.0, 0.0, 0.0, 0.0, 0.0, 0.0, 0.0, 0.0, 0.0, 0.0, 0.0, 0.0, 0.0, 0.0, 0.0, 0.0, 0.0, 0.0, 0.0, 0.0, 0.0, 0.0, 0.0, 0.0, 0.0, 0.0, 0.0, 0.0, 0.0)",,,,,,,23.0,0.0,922000000.0,base_footprint,-0.0014843520944327,0.0035638338622379,0.382735597654527,0.9238498568896866,0.0,0.0,0.0,0.0,0.0,0.0,0.0,0.0,0.0,0.0001779145027847,3.523398410140076e-05,0.0003356789991293,0.0,0.0,0.0,0.0,0.0,0.0,0.0,0.0,0.0,-2.7194422535446677e-08,-2.4197394627122748e-08,-1.005640868318652e-08,0.0,0.0,0.0,0.0,0.0,0.0,0.0,0.0,0.0
0.9880000000000001,-5.756809748902469e-07,4.3317970899181546e-07,1.0838283045933041e-05,6.75300879579733e-06,0.00020562442498125023,-5.2378536115979314e-05,0.00045232387965162197,1.5898760937951426e-07,1.5903393488440427e-07,6.847293351875634e-06,24.0,0.0,937000000.0,odom,base_footprint,-4.0000210420904505,-3.999992332039681,-0.0010023860438072,-0.0014843619415434,0.0035638299084282,0.3827379535306154,0.9238488808854004,"(1e-05, 0.0, 0.0, 0.0, 0.0, 0.0, 0.0, 1e-05, 0.0, 0.0, 0.0, 0.0, 0.0, 0.0, 1000000000000.0, 0.0, 0.0, 0.0, 0.0, 0.0, 0.0, 1000000000000.0, 0.0, 0.0, 0.0, 0.0, 0.0, 0.0, 1000000000000.0, 0.0, 0.0, 0.0, 0.0, 0.0, 0.0, 0.001)",-2.821452709345052e-06,2.2225836577562e-05,0.0,0.0,0.0,0.0003368383390039,"(0.0, 0.0, 0.0, 0.0, 0.0, 0.0, 0.0, 0.0, 0.0, 0.0, 0.0, 0.0, 0.0, 0.0, 0.0, 0.0, 0.0, 0.0, 0.0, 0.0, 0.0, 0.0, 0.0, 0.0, 0.0, 0.0, 0.0, 0.0, 0.0, 0.0, 0.0, 0.0, 0.0, 0.0, 0.0, 0.0)",,,,,,,24.0,0.0,956000000.0,base_footprint,-0.0014843729801273,0.0035638254770708,0.3827406039405873,0.9238477828517097,0.0,0.0,0.0,0.0,0.0,0.0,0.0,0.0,0.0,0.0001779160523402,3.525130956942062e-05,0.0003356942007462,0.0,0.0,0.0,0.0,0.0,0.0,0.0,0.0,0.0,-2.7177384511004183e-08,-2.4179984311668814e-08,-1.0307744596506523e-08,0.0,0.0,0.0,0.0,0.0,0.0,0.0,0.0,0.0
1.022,-5.75712652661764e-07,4.33185368908795e-07,1.0838712299343634e-05,5.502361522364863e-06,0.00022295005971345738,-3.755697517815217e-05,0.0005202893312975117,1.295424138435632e-07,1.2958200898563653e-07,7.424236988458131e-06,26.0,1.0,3000000.0,odom,base_footprint,-4.000022159588808,-3.9999914911614254,-0.0010023861763418,-0.0014844022276508,0.0035638137399658,0.3827476719561248,0.9238448546124074,"(1e-05, 0.0, 0.0, 0.0, 0.0, 0.0, 0.0, 1e-05, 0.0, 0.0, 0.0, 0.0, 0.0, 0.0, 1000000000000.0, 0.0, 0.0, 0.0, 0.0, 0.0, 0.0, 1000000000000.0, 0.0, 0.0, 0.0, 0.0, 0.0, 0.0, 1000000000000.0, 0.0, 0.0, 0.0, 0.0, 0.0, 0.0, 0.001)",-2.82257574739014e-06,2.2227684546990452e-05,0.0,0.0,0.0,0.0003368680391672,"(0.0, 0.0, 0.0, 0.0, 0.0, 0.0, 0.0, 0.0, 0.0, 0.0, 0.0, 0.0, 0.0, 0.0, 0.0, 0.0, 0.0, 0.0, 0.0, 0.0, 0.0, 0.0, 0.0, 0.0, 0.0, 0.0, 0.0, 0.0, 0.0, 0.0, 0.0, 0.0, 0.0, 0.0, 0.0, 0.0)",,,,,,,25.0,0.0,990000000.0,base_footprint,-0.0014843937240839,0.0035638171518813,0.382745610413185,0.9238457087046614,0.0,0.0,0.0,0.0,0.0,0.0,0.0,0.0,0.0,0.0001779176047577,3.526774188924201e-05,0.0003357094126408,0.0,0.0,0.0,0.0,0.0,0.0,0.0,0.0,0.0,-2.7165516284584327e-08,-2.4165018991130924e-08,-1.053480075451244e-08,0.0,0.0,0.0,0.0,0.0,0.0,0.0,0.0,0.0
1.056,-5.75744313557891e-07,4.331910230526148e-07,1.0839141457053005e-05,4.596576933815315e-06,0.00024465187972190294,-2.7200738394881308e-05,0.0006517063065599267,1.082166323784842e-07,1.0825139479362239e-07,8.146907594739368e-06,27.0,1.0,35000000.0,odom,base_footprint,-4.00002273531636,-3.9999910579733946,-0.0010023862407485,-0.0014844227937359,0.0035638054900258,0.3827526786920603,0.9238427803113748,"(1e-05, 0.0, 0.0, 0.0, 0.0, 0.0, 0.0, 1e-05, 0.0, 0.0, 0.0, 0.0, 0.0, 0.0, 1000000000000.0, 0.0, 0.0, 0.0, 0.0, 0.0, 0.0, 1000000000000.0, 0.0, 0.0, 0.0, 0.0, 0.0, 0.0, 1000000000000.0, 0.0, 0.0, 0.0, 0.0, 0.0, 0.0, 0.001)",-2.8231526875461613e-06,2.2228636488718283e-05,0.0,0.0,0.0,0.0003368833451787,"(0.0, 0.0, 0.0, 0.0, 0.0, 0.0, 0.0, 0.0, 0.0, 0.0, 0.0, 0.0, 0.0, 0.0, 0.0, 0.0, 0.0, 0.0, 0.0, 0.0, 0.0, 0.0, 0.0, 0.0, 0.0, 0.0, 0.0, 0.0, 0.0, 0.0, 0.0, 0.0, 0.0, 0.0, 0.0, 0.0)",,,,,,,26.0,1.0,24000000.0,base_footprint,-0.0014844143395317,0.0035638088810601,0.3827506170723181,0.92384363444854,0.0,0.0,0.0,0.0,0.0,0.0,0.0,0.0,0.0,0.0001779191606607,3.528336332269127e-05,0.0003357246311777,0.0,0.0,0.0,0.0,0.0,0.0,0.0,0.0,0.0,-2.714947830373432e-08,-2.415082125174093e-08,-1.0740705060909278e-08,0.0,0.0,0.0,0.0,0.0,0.0,0.0,0.0,0.0
1.09,-5.757759611313418e-07,4.331966669823828e-07,1.0839570513065944e-05,3.626316278031505e-06,0.0002492009856472407,-2.913695663014445e-05,0.00013660978754767992,8.537320561416573e-08,8.540203449203477e-08,8.298392822053115e-06,27.0,1.0,35000000.0,odom,base_footprint,-4.00002273531636,-3.9999910579733946,-0.0010023862407485,-0.0014844227937359,0.0035638054900258,0.3827526786920603,0.9238427803113748,"(1e-05, 0.0, 0.0, 0.0, 0.0, 0.0, 0.0, 1e-05, 0.0, 0.0, 0.0, 0.0, 0.0, 0.0, 1000000000000.0, 0.0, 0.0, 0.0, 0.0, 0.0, 0.0, 1000000000000.0, 0.0, 0.0, 0.0, 0.0, 0.0, 0.0, 1000000000000.0, 0.0, 0.0, 0.0, 0.0, 0.0, 0.0, 0.001)",-2.8231526875461613e-06,2.2228636488718283e-05,0.0,0.0,0.0,0.0003368833451787,"(0.0, 0.0, 0.0, 0.0, 0.0, 0.0, 0.0, 0.0, 0.0, 0.0, 0.0, 0.0, 0.0, 0.0, 0.0, 0.0, 0.0, 0.0, 0.0, 0.0, 0.0, 0.0, 0.0, 0.0, 0.0, 0.0, 0.0, 0.0, 0.0, 0.0, 0.0, 0.0, 0.0, 0.0, 0.0, 0.0)",,,,,,,27.0,1.0,58000000.0,base_footprint,-0.0014844348384678,0.0035638006595237,0.38275562391799,0.92384156008334,0.0,0.0,0.0,0.0,0.0,0.0,0.0,0.0,0.0,0.000177920719076,3.52982500027938e-05,0.0003357398587296,0.0,0.0,0.0,0.0,0.0,0.0,0.0,0.0,0.0,-2.7140714689247385e-08,-2.413900825282615e-08,-1.0928282547899315e-08,0.0,0.0,0.0,0.0,0.0,0.0,0.0,0.0,0.0
1.124,-5.758075909412241e-07,4.3320230425081263e-07,1.0839999463829741e-05,2.9737415482252535e-06,0.00025848956130101384,-1.9596838732920458e-05,0.000278936205819014,7.000925523450036e-08,7.003407999473847e-08,8.607702391323761e-06,29.0,1.0,103000000.0,odom,base_footprint,-4.000023852995491,-3.999990217062863,-0.0010023863593664,-0.0014844624060775,0.0035637896065785,0.3827623981825576,0.9238387534156284,"(1e-05, 0.0, 0.0, 0.0, 0.0, 0.0, 0.0, 1e-05, 0.0, 0.0, 0.0, 0.0, 0.0, 0.0, 1000000000000.0, 0.0, 0.0, 0.0, 0.0, 0.0, 0.0, 1000000000000.0, 0.0, 0.0, 0.0, 0.0, 0.0, 0.0, 1000000000000.0, 0.0, 0.0, 0.0, 0.0, 0.0, 0.0, 0.001)",-2.8242739744027286e-06,2.223048284798164e-05,0.0,0.0,0.0,0.0003369130645356,"(0.0, 0.0, 0.0, 0.0, 0.0, 0.0, 0.0, 0.0, 0.0, 0.0, 0.0, 0.0, 0.0, 0.0, 0.0, 0.0, 0.0, 0.0, 0.0, 0.0, 0.0, 0.0, 0.0, 0.0, 0.0, 0.0, 0.0, 0.0, 0.0, 0.0, 0.0, 0.0, 0.0, 0.0, 0.0, 0.0)",,,,,,,28.0,1.0,92000000.0,base_footprint,-0.0014844552317789,0.0035637924826606,0.3827606309501919,0.923839485609062,0.0,0.0,0.0,0.0,0.0,0.0,0.0,0.0,0.0,0.0001779222798732,3.531246941930556e-05,0.000335755090338,0.0,0.0,0.0,0.0,0.0,0.0,0.0,0.0,0.0,-2.712469785624604e-08,-2.4127141453000172e-08,-1.1097798682556566e-08,0.0,0.0,0.0,0.0,0.0,0.0,0.0,0.0,0.0
1.158,-5.758392109811439e-07,4.3320793574608274e-07,1.084042834087473e-05,2.524020943310761e-06,0.0002741162343612047,-1.3505123270705484e-05,0.000469269461266992,5.9421189100667904e-08,5.9443313676338016e-08,9.128070604228117e-06,30.0,1.0,137000000.0,odom,base_footprint,-4.000024428816104,-3.99998978385824,-0.0010023864175688,-0.0014844826720241,0.0035637814835664,0.3827674054671161,0.9238366787937716,"(1e-05, 0.0, 0.0, 0.0, 0.0, 0.0, 0.0, 1e-05, 0.0, 0.0, 0.0, 0.0, 0.0, 0.0, 1000000000000.0, 0.0, 0.0, 0.0, 0.0, 0.0, 0.0, 1000000000000.0, 0.0, 0.0, 0.0, 0.0, 0.0, 0.0, 1000000000000.0, 0.0, 0.0, 0.0, 0.0, 0.0, 0.0, 0.001)",-2.824849672769853e-06,2.2231433716313655e-05,0.0,0.0,0.0,0.0003369283791776,"(0.0, 0.0, 0.0, 0.0, 0.0, 0.0, 0.0, 0.0, 0.0, 0.0, 0.0, 0.0, 0.0, 0.0, 0.0, 0.0, 0.0, 0.0, 0.0, 0.0, 0.0, 0.0, 0.0, 0.0, 0.0, 0.0, 0.0, 0.0, 0.0, 0.0, 0.0, 0.0, 0.0, 0.0, 0.0, 0.0)",,,,,,,29.0,1.0,126000000.0,base_footprint,-0.0014844755293383,0.0035637843462837,0.3827656381689154,0.923837411025706,0.0,0.0,0.0,0.0,0.0,0.0,0.0,0.0,0.0,0.0001779238432866,3.532608475862263e-05,0.0003357703303644,0.0,0.0,0.0,0.0,0.0,0.0,0.0,0.0,0.0,-2.7119364389168857e-08,-2.411798174990677e-08,-1.125138953924171e-08,0.0,0.0,0.0,0.0,0.0,0.0,0.0,0.0,0.0
1.192,-5.758708159220305e-07,4.3321355880365786e-07,1.0840857137650596e-05,2.034648881932434e-06,0.00027214436521064183,-1.4695857699048856e-05,-5.9215289806692283e-05,4.789982279953635e-08,4.791852922285168e-08,9.062407361514374e-06,31.0,1.0,170000000.0,odom,base_footprint,-4.000024987731048,-3.999989363389548,-0.0010023864723985,-0.0014845022616647,0.0035637736333896,0.3827722656569575,0.9238346650858934,"(1e-05, 0.0, 0.0, 0.0, 0.0, 0.0, 0.0, 1e-05, 0.0, 0.0, 0.0, 0.0, 0.0, 0.0, 1000000000000.0, 0.0, 0.0, 0.0, 0.0, 0.0, 0.0, 1000000000000.0, 0.0, 0.0, 0.0, 0.0, 0.0, 0.0, 1000000000000.0, 0.0, 0.0, 0.0, 0.0, 0.0, 0.0, 0.001)",-2.825408478143784e-06,2.2232356151750825e-05,0.0,0.0,0.0,0.000336943243715,"(0.0, 0.0, 0.0, 0.0, 0.0, 0.0, 0.0, 0.0, 0.0, 0.0, 0.0, 0.0, 0.0, 0.0, 0.0, 0.0, 0.0, 0.0, 0.0, 0.0, 0.0, 0.0, 0.0, 0.0, 0.0, 0.0, 0.0, 0.0, 0.0, 0.0, 0.0, 0.0, 0.0, 0.0, 0.0, 0.0)",,,,,,,30.0,1.0,160000000.0,base_footprint,-0.0014844957401013,0.0035637762466,0.3827706455741573,0.9238353363332692,0.0,0.0,0.0,0.0,0.0,0.0,0.0,0.0,0.0,0.000177925408621,3.533915073119705e-05,0.0003357855743811,0.0,0.0,0.0,0.0,0.0,0.0,0.0,0.0,0.0,-2.7107339171726806e-08,-2.410882046508009e-08,-1.1391568329082211e-08,0.0,0.0,0.0,0.0,0.0,0.0,0.0,0.0,0.0
1.226,-5.759024128693113e-07,4.332191783085193e-07,1.0841285901452835e-05,1.7090473573423938e-06,0.0002770060655170046,-9.777823561262465e-06,0.0001459970061970796,4.023412466898539e-08,4.02505734347072e-08,9.224301981716253e-06,32.0,1.0,203000000.0,odom,base_footprint,-4.000025546675763,-3.999988942915557,-0.001002386525741,-0.0014845217795197,0.0035637658135475,0.382777126022513,0.92383265127525,"(1e-05, 0.0, 0.0, 0.0, 0.0, 0.0, 0.0, 1e-05, 0.0, 0.0, 0.0, 0.0, 0.0, 0.0, 1000000000000.0, 0.0, 0.0, 0.0, 0.0, 0.0, 0.0, 1000000000000.0, 0.0, 0.0, 0.0, 0.0, 0.0, 0.0, 1000000000000.0, 0.0, 0.0, 0.0, 0.0, 0.0, 0.0, 0.001)",-2.825967023954521e-06,2.2233278517829285e-05,0.0,0.0,0.0,0.0003369581131376,"(0.0, 0.0, 0.0, 0.0, 0.0, 0.0, 0.0, 0.0, 0.0, 0.0, 0.0, 0.0, 0.0, 0.0, 0.0, 0.0, 0.0, 0.0, 0.0, 0.0, 0.0, 0.0, 0.0, 0.0, 0.0, 0.0, 0.0, 0.0, 0.0, 0.0, 0.0, 0.0, 0.0, 0.0, 0.0, 0.0)",,,,,,,31.0,1.0,194000000.0,base_footprint,-0.0014845158721958,0.0035637681801634,0.3827756531659121,0.923833261531751,0.0,0.0,0.0,0.0,0.0,0.0,0.0,0.0,0.0,0.0001779269755071,3.535171920266074e-05,0.0003358008239097,0.0,0.0,0.0,0.0,0.0,0.0,0.0,0.0,0.0,-2.710010161157837e-08,-2.410114653122982e-08,-1.1518779936572808e-08,0.0,0.0,0.0,0.0,0.0,0.0,0.0,0.0,0.0
1.26,-5.759340027111648e-07,4.332247902638642e-07,1.0841714620291045e-05,1.4877365146441284e-06,0.0002895555633548987,-6.645971252200162e-06,0.00037686179693375703,3.5023729015248796e-08,3.50387086854604e-08,9.642200259718127e-06,33.0,1.0,236000000.0,odom,base_footprint,-4.000026122589327,-3.999988509694397,-0.0010023865792865,-0.0014845418206476,0.0035637577855413,0.3827821338556566,0.9238305763325542,"(1e-05, 0.0, 0.0, 0.0, 0.0, 0.0, 0.0, 1e-05, 0.0, 0.0, 0.0, 0.0, 0.0, 0.0, 1000000000000.0, 0.0, 0.0, 0.0, 0.0, 0.0, 0.0, 1000000000000.0, 0.0, 0.0, 0.0, 0.0, 0.0, 0.0, 1000000000000.0, 0.0, 0.0, 0.0, 0.0, 0.0, 0.0, 0.001)",-2.8265436892153576e-06,2.223422836632094e-05,0.0,0.0,0.0,0.0003369734345255,"(0.0, 0.0, 0.0, 0.0, 0.0, 0.0, 0.0, 0.0, 0.0, 0.0, 0.0, 0.0, 0.0, 0.0, 0.0, 0.0, 0.0, 0.0, 0.0, 0.0, 0.0, 0.0, 0.0, 0.0, 0.0, 0.0, 0.0, 0.0, 0.0, 0.0, 0.0, 0.0, 0.0, 0.0, 0.0, 0.0)",,,,,,,32.0,1.0,228000000.0,base_footprint,-0.0014845359329927,0.00356376014385,0.3827806609441931,0.9238311866211422,0.0,0.0,0.0,0.0,0.0,0.0,0.0,0.0,0.0,0.0001779285441892,3.536383647220817e-05,0.0003358160790944,0.0,0.0,0.0,0.0,0.0,0.0,0.0,0.0,0.0,-2.7094766186707013e-08,-2.4094540757696777e-08,-1.1633725718610585e-08,0.0,0.0,0.0,0.0,0.0,0.0,0.0,0.0,0.0
1.294,-5.759655818948772e-07,4.332303986664954e-07,1.0842143307598917e-05,1.229774599067568e-06,0.00028436401324994357,-7.74660407136818e-06,-0.0001559024055542077,2.895061062685575e-08,2.896354635310508e-08,9.469321641223121e-06,34.0,1.0,270000000.0,odom,base_footprint,-4.000026681594463,-3.999988089209671,-0.0010023866300105,-0.0014845612122517,0.0035637500190263,0.3827869945779718,0.9238285623132536,"(1e-05, 0.0, 0.0, 0.0, 0.0, 0.0, 0.0, 1e-05, 0.0, 0.0, 0.0, 0.0, 0.0, 0.0, 1000000000000.0, 0.0, 0.0, 0.0, 0.0, 0.0, 0.0, 1000000000000.0, 0.0, 0.0, 0.0, 0.0, 0.0, 0.0, 1000000000000.0, 0.0, 0.0, 0.0, 0.0, 0.0, 0.0, 0.001)",-2.8271006697607967e-06,2.2235149464180232e-05,0.0,0.0,0.0,0.0003369883075324,"(0.0, 0.0, 0.0, 0.0, 0.0, 0.0, 0.0, 0.0, 0.0, 0.0, 0.0, 0.0, 0.0, 0.0, 0.0, 0.0, 0.0, 0.0, 0.0, 0.0, 0.0, 0.0, 0.0, 0.0, 0.0, 0.0, 0.0, 0.0, 0.0, 0.0, 0.0, 0.0, 0.0, 0.0, 0.0, 0.0)",,,,,,,33.0,1.0,262000000.0,base_footprint,-0.0014845559291784,0.0035637521348248,0.3827856689090045,0.9238291116014372,0.0,0.0,0.0,0.0,0.0,0.0,0.0,0.0,0.0,0.0001779301148373,3.537554403899098e-05,0.0003358313404851,0.0,0.0,0.0,0.0,0.0,0.0,0.0,0.0,0.0,-2.7091963800745108e-08,-2.4088945981468872e-08,-1.1738048779342611e-08,0.0,0.0,0.0,0.0,0.0,0.0,0.0,0.0,0.0
1.328,-5.759972161456517e-07,4.3323609100198723e-07,1.0842573457514604e-05,1.0578800315044926e-06,0.0002870881070737615,-5.1619990259181795e-06,8.180461933387145e-05,2.490373550949888e-08,2.4915337127515407e-08,9.560033965556259e-06,34.0,1.0,270000000.0,odom,base_footprint,-4.000026681594463,-3.999988089209671,-0.0010023866300105,-0.0014845612122517,0.0035637500190263,0.3827869945779718,0.9238285623132536,"(1e-05, 0.0, 0.0, 0.0, 0.0, 0.0, 0.0, 1e-05, 0.0, 0.0, 0.0, 0.0, 0.0, 0.0, 1000000000000.0, 0.0, 0.0, 0.0, 0.0, 0.0, 0.0, 1000000000000.0, 0.0, 0.0, 0.0, 0.0, 0.0, 0.0, 1000000000000.0, 0.0, 0.0, 0.0, 0.0, 0.0, 0.0, 0.001)",-2.8271006697607967e-06,2.2235149464180232e-05,0.0,0.0,0.0,0.0003369883075324,"(0.0, 0.0, 0.0, 0.0, 0.0, 0.0, 0.0, 0.0, 0.0, 0.0, 0.0, 0.0, 0.0, 0.0, 0.0, 0.0, 0.0, 0.0, 0.0, 0.0, 0.0, 0.0, 0.0, 0.0, 0.0, 0.0, 0.0, 0.0, 0.0, 0.0, 0.0, 0.0, 0.0, 0.0, 0.0, 0.0)",,,,,,,34.0,1.0,296000000.0,base_footprint,-0.0014845758668211,0.0035637441505186,0.3827906770603494,0.9238270364726312,0.0,0.0,0.0,0.0,0.0,0.0,0.0,0.0,0.0,0.0001779316861306,3.538687995418915e-05,0.0003358466028101,0.0,0.0,0.0,0.0,0.0,0.0,0.0,0.0,0.0,-2.7080244085479693e-08,-2.4082763655752875e-08,-1.1833957047561982e-08,0.0,0.0,0.0,0.0,0.0,0.0,0.0,0.0,0.0
1.362,-5.760287962175425e-07,4.332418153119022e-07,1.0843003410587748e-05,9.42242903175675e-07,0.0002981791616752811,-3.4725864363008275e-06,0.00033306470274833673,2.2181285756944105e-08,2.2192051604127156e-08,9.929366083786861e-06,36.0,1.0,337000000.0,odom,base_footprint,-4.00002781663587,-3.9999872354818713,-0.001002386729813,-0.0014846004256766,0.0035637343201132,0.382796863858841,0.92382447292714,"(1e-05, 0.0, 0.0, 0.0, 0.0, 0.0, 0.0, 1e-05, 0.0, 0.0, 0.0, 0.0, 0.0, 0.0, 1000000000000.0, 0.0, 0.0, 0.0, 0.0, 0.0, 0.0, 1000000000000.0, 0.0, 0.0, 0.0, 0.0, 0.0, 0.0, 1000000000000.0, 0.0, 0.0, 0.0, 0.0, 0.0, 0.0, 0.001)",-2.828111949715068e-06,2.2237055358705227e-05,0.0,0.0,0.0,0.000337018718812,"(0.0, 0.0, 0.0, 0.0, 0.0, 0.0, 0.0, 0.0, 0.0, 0.0, 0.0, 0.0, 0.0, 0.0, 0.0, 0.0, 0.0, 0.0, 0.0, 0.0, 0.0, 0.0, 0.0, 0.0, 0.0, 0.0, 0.0, 0.0, 0.0, 0.0, 0.0, 0.0, 0.0, 0.0, 0.0, 0.0)",,,,,,,35.0,1.0,330000000.0,base_footprint,-0.0014845957535325,0.0035637361900878,0.3827956853989995,0.9238249612343924,0.0,0.0,0.0,0.0,0.0,0.0,0.0,0.0,0.0,0.0001779322716592,3.539678298897196e-05,0.000335862059398,0.0,0.0,0.0,0.0,0.0,0.0,0.0,0.0,0.0,-2.789279913255265e-08,-2.115770175827559e-08,-6.7889980770402305e-09,0.0,0.0,0.0,0.0,0.0,0.0,0.0,0.0,0.0
1.396,-5.760603238869066e-07,4.332474996537883e-07,1.0843432377560802e-05,7.958338696891846e-07,0.00029137376287089,-4.39666767226698e-06,-0.00020436633046219584,1.8734495165959506e-08,1.8743956068178342e-08,9.702746303600637e-06,36.0,1.0,337000000.0,odom,base_footprint,-4.00002781663587,-3.9999872354818713,-0.001002386729813,-0.0014846004256766,0.0035637343201132,0.382796863858841,0.92382447292714,"(1e-05, 0.0, 0.0, 0.0, 0.0, 0.0, 0.0, 1e-05, 0.0, 0.0, 0.0, 0.0, 0.0, 0.0, 1000000000000.0, 0.0, 0.0, 0.0, 0.0, 0.0, 0.0, 1000000000000.0, 0.0, 0.0, 0.0, 0.0, 0.0, 0.0, 1000000000000.0, 0.0, 0.0, 0.0, 0.0, 0.0, 0.0, 0.001)",-2.828111949715068e-06,2.2237055358705227e-05,0.0,0.0,0.0,0.000337018718812,"(0.0, 0.0, 0.0, 0.0, 0.0, 0.0, 0.0, 0.0, 0.0, 0.0, 0.0, 0.0, 0.0, 0.0, 0.0, 0.0, 0.0, 0.0, 0.0, 0.0, 0.0, 0.0, 0.0, 0.0, 0.0, 0.0, 0.0, 0.0, 0.0, 0.0, 0.0, 0.0, 0.0, 0.0, 0.0, 0.0)",,,,,,,36.0,1.0,364000000.0,base_footprint,-0.0014846155925172,0.0035637282501273,0.3828006939247547,0.9238228858868068,0.0,0.0,0.0,0.0,0.0,0.0,0.0,0.0,0.0,0.0001779329703184,3.540643572068667e-05,0.0003358774623523,0.0,0.0,0.0,0.0,0.0,0.0,0.0,0.0,0.0,-2.779919765460812e-08,-2.101837610955401e-08,-6.557747069479352e-09,0.0,0.0,0.0,0.0,0.0,0.0,0.0,0.0,0.0
1.4300000000000002,-5.760918382335944e-07,4.332531760020686e-07,1.08438611904349e-05,6.982854469324712e-07,0.0002930249399526464,-2.929382064766165e-06,4.958489735004219e-05,1.6437975904492377e-08,1.6446597122130473e-08,9.757730500423125e-06,38.0,1.0,403000000.0,odom,base_footprint,-4.000028934856217,-3.999986394474616,-0.0010023868245368,-0.0014846388771058,0.0035637189323679,0.3828065865470367,0.9238204441616248,"(1e-05, 0.0, 0.0, 0.0, 0.0, 0.0, 0.0, 1e-05, 0.0, 0.0, 0.0, 0.0, 0.0, 0.0, 1000000000000.0, 0.0, 0.0, 0.0, 0.0, 0.0, 0.0, 1000000000000.0, 0.0, 0.0, 0.0, 0.0, 0.0, 0.0, 1000000000000.0, 0.0, 0.0, 0.0, 0.0, 0.0, 0.0, 0.001)",-2.829026945495041e-06,2.2238947209086292e-05,0.0,0.0,0.0,0.000337048702386,"(0.0, 0.0, 0.0, 0.0, 0.0, 0.0, 0.0, 0.0, 0.0, 0.0, 0.0, 0.0, 0.0, 0.0, 0.0, 0.0, 0.0, 0.0, 0.0, 0.0, 0.0, 0.0, 0.0, 0.0, 0.0, 0.0, 0.0, 0.0, 0.0, 0.0, 0.0, 0.0, 0.0, 0.0, 0.0, 0.0)",,,,,,,37.0,1.0,398000000.0,base_footprint,-0.0014846353879889,0.0035637203285266,0.3828057026372229,0.9238208104300352,0.0,0.0,0.0,0.0,0.0,0.0,0.0,0.0,0.0,0.0001779336713869,3.541581218474659e-05,0.0003358928612412,0.0,0.0,0.0,0.0,0.0,0.0,0.0,0.0,0.0,-2.7780869269769687e-08,-2.1014449880806232e-08,-6.629601565695483e-09,0.0,0.0,0.0,0.0,0.0,0.0,0.0,0.0,0.0
1.464,-5.761233454748549e-07,4.3325884613309995e-07,1.0844289939582195e-05,6.336874614954442e-07,0.00030338946546531505,-1.9398794425533645e-06,0.00031124701239245215,1.4917159987730984e-08,1.4925280005863373e-08,1.0102869199994992e-05,39.0,1.0,437000000.0,odom,base_footprint,-4.000029510955469,-3.999985961220108,-0.001002386872108,-0.0014846586266155,0.0035637110301391,0.3828115954791035,0.9238183685764207,"(1e-05, 0.0, 0.0, 0.0, 0.0, 0.0, 0.0, 1e-05, 0.0, 0.0, 0.0, 0.0, 0.0, 0.0, 1000000000000.0, 0.0, 0.0, 0.0, 0.0, 0.0, 0.0, 1000000000000.0, 0.0, 0.0, 0.0, 0.0, 0.0, 0.0, 1000000000000.0, 0.0, 0.0, 0.0, 0.0, 0.0, 0.0, 0.001)",-2.829498782101076e-06,2.223992227714012e-05,0.0,0.0,0.0,0.0003370641475925,"(0.0, 0.0, 0.0, 0.0, 0.0, 0.0, 0.0, 0.0, 0.0, 0.0, 0.0, 0.0, 0.0, 0.0, 0.0, 0.0, 0.0, 0.0, 0.0, 0.0, 0.0, 0.0, 0.0, 0.0, 0.0, 0.0, 0.0, 0.0, 0.0, 0.0, 0.0, 0.0, 0.0, 0.0, 0.0, 0.0)",,,,,,,38.0,1.0,432000000.0,base_footprint,-0.0014846551440553,0.0035637124235362,0.3828107115363523,0.9238187348640952,0.0,0.0,0.0,0.0,0.0,0.0,0.0,0.0,0.0,0.0001779343742467,3.542493692623604e-05,0.0003359082602407,0.0,0.0,0.0,0.0,0.0,0.0,0.0,0.0,0.0,-2.7771576267929448e-08,-2.1011823174164922e-08,-6.695437118598028e-09,0.0,0.0,0.0,0.0,0.0,0.0,0.0,0.0,0.0
1.498,-5.76154845610688e-07,4.3326451715230974e-07,1.0844718671521036e-05,5.446098211261482e-07,0.0002957143512013509,-2.675004215294174e-06,-0.0002304839118307547,1.2820122290318687e-08,1.282735671060794e-08,9.847287895004986e-06,40.0,1.0,470000000.0,odom,base_footprint,-4.000030070140753,-3.999985540702952,-0.0010023869175784,-0.0014846777616959,0.0035637033744618,0.3828164572681319,0.9238163539334424,"(1e-05, 0.0, 0.0, 0.0, 0.0, 0.0, 0.0, 1e-05, 0.0, 0.0, 0.0, 0.0, 0.0, 0.0, 1000000000000.0, 0.0, 0.0, 0.0, 0.0, 0.0, 0.0, 1000000000000.0, 0.0, 0.0, 0.0, 0.0, 0.0, 0.0, 1000000000000.0, 0.0, 0.0, 0.0, 0.0, 0.0, 0.0, 0.001)",-2.8299560112138925e-06,2.224086764059692e-05,0.0,0.0,0.0,0.0003370791386126,"(0.0, 0.0, 0.0, 0.0, 0.0, 0.0, 0.0, 0.0, 0.0, 0.0, 0.0, 0.0, 0.0, 0.0, 0.0, 0.0, 0.0, 0.0, 0.0, 0.0, 0.0, 0.0, 0.0, 0.0, 0.0, 0.0, 0.0, 0.0, 0.0, 0.0, 0.0, 0.0, 0.0, 0.0, 0.0, 0.0)",0.0,0.0,0.0,0.0,0.0,0.0,39.0,1.0,466000000.0,base_footprint,-0.0014846748644405,0.0035637045335715,0.3828157206221291,0.9238166591889888,0.0,0.0,0.0,0.0,0.0,0.0,0.0,0.0,0.0,0.0001779350782036,3.543383449904284e-05,0.0003359236625286,0.0,0.0,0.0,0.0,0.0,0.0,0.0,0.0,0.0,-2.7769319739200105e-08,-2.101073619088945e-08,-6.756387272972692e-09,0.0,0.0,0.0,0.0,0.0,0.0,0.0,0.0,0.0
1.532,-5.761863741682305e-07,4.332702010501066e-07,1.0845147870641725e-05,4.85511632387344e-07,0.00029678606487353645,-1.7747203825466708e-06,3.2183593759325344e-05,1.1428837344468221e-08,1.1435512283548157e-08,9.882975960288766e-06,41.0,1.0,503000000.0,odom,base_footprint,-4.000030629355714,-3.999985120180458,-0.0010023869624206,-0.0014846968667915,0.0035636957314022,0.3828213192329956,0.9238143391876188,"(1e-05, 0.0, 0.0, 0.0, 0.0, 0.0, 0.0, 1e-05, 0.0, 0.0, 0.0, 0.0, 0.0, 0.0, 1000000000000.0, 0.0, 0.0, 0.0, 0.0, 0.0, 0.0, 1000000000000.0, 0.0, 0.0, 0.0, 0.0, 0.0, 0.0, 1000000000000.0, 0.0, 0.0, 0.0, 0.0, 0.0, 0.0, 0.001)",-2.830413998836706e-06,2.2241811975425928e-05,0.0,0.0,0.0,0.000337094132619,"(0.0, 0.0, 0.0, 0.0, 0.0, 0.0, 0.0, 0.0, 0.0, 0.0, 0.0, 0.0, 0.0, 0.0, 0.0, 0.0, 0.0, 0.0, 0.0, 0.0, 0.0, 0.0, 0.0, 0.0, 0.0, 0.0, 0.0, 0.0, 0.0, 0.0, 0.0, 0.0, 0.0, 0.0, 0.0, 0.0)",0.0,0.0,0.0,0.0,0.0,0.0,40.0,1.0,500000000.0,base_footprint,-0.0014846945525243,0.0035636966572021,0.382820729894556,0.9238145834047112,0.0,0.0,0.0,0.0,0.0,0.0,0.0,0.0,0.0,0.0001779357832296,3.5442525592990555e-05,0.0003359390663809,0.0,0.0,0.0,0.0,0.0,0.0,0.0,0.0,0.0,-2.776448042809849e-08,-2.1009283359740392e-08,-6.8109496462144065e-09,0.0,0.0,0.0,0.0,0.0,0.0,0.0,0.0,0.0
1.566,-5.762180395052496e-07,4.332759888647786e-07,1.0845579709539699e-05,4.4724899663069025e-07,0.00030676289789403124,-1.1490281008004142e-06,0.0002996045952100537,1.052803743009185e-08,1.053439798272595e-08,1.0215204499871242e-05,41.0,1.0,503000000.0,odom,base_footprint,-4.000030629355714,-3.999985120180458,-0.0010023869624206,-0.0014846968667915,0.0035636957314022,0.3828213192329956,0.9238143391876188,"(1e-05, 0.0, 0.0, 0.0, 0.0, 0.0, 0.0, 1e-05, 0.0, 0.0, 0.0, 0.0, 0.0, 0.0, 1000000000000.0, 0.0, 0.0, 0.0, 0.0, 0.0, 0.0, 1000000000000.0, 0.0, 0.0, 0.0, 0.0, 0.0, 0.0, 1000000000000.0, 0.0, 0.0, 0.0, 0.0, 0.0, 0.0, 0.001)",-2.830413998836706e-06,2.2241811975425928e-05,0.0,0.0,0.0,0.000337094132619,"(0.0, 0.0, 0.0, 0.0, 0.0, 0.0, 0.0, 0.0, 0.0, 0.0, 0.0, 0.0, 0.0, 0.0, 0.0, 0.0, 0.0, 0.0, 0.0, 0.0, 0.0, 0.0, 0.0, 0.0, 0.0, 0.0, 0.0, 0.0, 0.0, 0.0, 0.0, 0.0, 0.0, 0.0, 0.0, 0.0)",0.0,0.0,0.0,0.0,0.0,0.0,41.0,1.0,534000000.0,base_footprint,-0.0014847142113747,0.0035636887931426,0.3828257393539301,0.923812507511136,0.0,0.0,0.0,0.0,0.0,0.0,0.0,0.0,0.0,0.0001779364895906,3.5451054259963686e-05,0.0003359546307463,0.0,0.0,0.0,0.0,0.0,0.0,0.0,0.0,0.0,-2.8066312666212173e-08,-2.1085333586276508e-08,-6.922221855842005e-09,0.0,0.0,0.0,0.0,0.0,0.0,0.0,0.0,0.0
1.6,-5.762496027017505e-07,4.33281697187482e-07,1.0846009668830092e-05,3.8977840302246307e-07,0.00029858255713879526,-1.725843651898714e-06,-0.0002456558785356149,9.175113330326034e-09,9.180841574543567e-09,9.942799152721883e-06,43.0,1.0,570000000.0,odom,base_footprint,-4.000031764823083,-3.999984266375761,-0.0010023870517987,-0.0014847355749098,0.0035636802479823,0.3828311910381033,0.9238102483257642,"(1e-05, 0.0, 0.0, 0.0, 0.0, 0.0, 0.0, 1e-05, 0.0, 0.0, 0.0, 0.0, 0.0, 0.0, 1000000000000.0, 0.0, 0.0, 0.0, 0.0, 0.0, 0.0, 1000000000000.0, 0.0, 0.0, 0.0, 0.0, 0.0, 0.0, 1000000000000.0, 0.0, 0.0, 0.0, 0.0, 0.0, 0.0, 0.001)",-2.831349191087516e-06,2.2243757706291587e-05,0.0,0.0,0.0,0.0003371249851958,"(0.0, 0.0, 0.0, 0.0, 0.0, 0.0, 0.0, 0.0, 0.0, 0.0, 0.0, 0.0, 0.0, 0.0, 0.0, 0.0, 0.0, 0.0, 0.0, 0.0, 0.0, 0.0, 0.0, 0.0, 0.0, 0.0, 0.0, 0.0, 0.0, 0.0, 0.0, 0.0, 0.0, 0.0, 0.0, 0.0)",0.2084210515022277,2.224181116616819e-05,0.0,0.0,0.0,-0.0242782905697822,42.0,1.0,568000000.0,base_footprint,-0.0014847338438182,0.0035636809403728,0.382830749001392,0.923810431507786,0.0,0.0,0.0,0.0,0.0,0.0,0.0,0.0,0.0,0.0001779372071394,3.545944219863193e-05,0.0003359702724546,0.0,0.0,0.0,0.0,0.0,0.0,0.0,0.0,0.0,-2.8206437913463662e-08,-2.114509568597591e-08,-7.016884505914816e-09,0.0,0.0,0.0,0.0,0.0,0.0,0.0,0.0,0.0
1.634,0.00024322989507385984,0.00024507423369346526,-0.0002291504148609347,3.51952635536074e-07,0.00029931830399971795,-1.1359089335251963e-06,2.2094500328008647e-05,8.284638465961372e-09,8.289975817848495e-09,9.967299523190609e-06,43.0,1.0,570000000.0,odom,base_footprint,-4.000031764823083,-3.999984266375761,-0.0010023870517987,-0.0014847355749098,0.0035636802479823,0.3828311910381033,0.9238102483257642,"(1e-05, 0.0, 0.0, 0.0, 0.0, 0.0, 0.0, 1e-05, 0.0, 0.0, 0.0, 0.0, 0.0, 0.0, 1000000000000.0, 0.0, 0.0, 0.0, 0.0, 0.0, 0.0, 1000000000000.0, 0.0, 0.0, 0.0, 0.0, 0.0, 0.0, 1000000000000.0, 0.0, 0.0, 0.0, 0.0, 0.0, 0.0, 0.001)",-2.831349191087516e-06,2.2243757706291587e-05,0.0,0.0,0.0,0.0003371249851958,"(0.0, 0.0, 0.0, 0.0, 0.0, 0.0, 0.0, 0.0, 0.0, 0.0, 0.0, 0.0, 0.0, 0.0, 0.0, 0.0, 0.0, 0.0, 0.0, 0.0, 0.0, 0.0, 0.0, 0.0, 0.0, 0.0, 0.0, 0.0, 0.0, 0.0, 0.0, 0.0, 0.0, 0.0, 0.0, 0.0)",0.2084210515022277,2.224181116616819e-05,0.0,0.0,0.0,-0.0242782905697822,43.0,1.0,602000000.0,base_footprint,-0.0014847534523459,0.0035636730977076,0.3828357588360715,0.923808355395018,0.0,0.0,0.0,0.0,0.0,0.0,0.0,0.0,0.0,0.0001779379299773,3.5467675252506374e-05,0.0003359858859112,0.0,0.0,0.0,0.0,0.0,0.0,0.0,0.0,0.0,-2.8145393166083472e-08,-2.1136800757981235e-08,-7.049639299006944e-09,0.0,0.0,0.0,0.0,0.0,0.0,0.0,0.0,0.0
1.6680000000000001,0.0008518236978329874,0.0008526317139541106,-0.0008181089085887995,0.03403703242911816,-0.00018939361241957913,1.0221225368313098,-0.014676033526105015,0.0008011986932941406,0.0008017177976928005,-6.306807293571986e-06,45.0,1.0,637000000.0,odom,base_footprint,-3.9997204543402094,-3.9996701003029735,-0.0010021332701741,-0.0014828498105082,0.0035594552456092,0.3826995897765562,0.9238647928239552,"(1e-05, 0.0, 0.0, 0.0, 0.0, 0.0, 0.0, 1e-05, 0.0, 0.0, 0.0, 0.0, 0.0, 0.0, 1000000000000.0, 0.0, 0.0, 0.0, 0.0, 0.0, 0.0, 1000000000000.0, 0.0, 0.0, 0.0, 0.0, 0.0, 0.0, 1000000000000.0, 0.0, 0.0, 0.0, 0.0, 0.0, 0.0, 0.001)",0.0254127616600028,2.9453605814419928e-05,0.0,0.0,0.0,-0.0170074029422536,"(0.0, 0.0, 0.0, 0.0, 0.0, 0.0, 0.0, 0.0, 0.0, 0.0, 0.0, 0.0, 0.0, 0.0, 0.0, 0.0, 0.0, 0.0, 0.0, 0.0, 0.0, 0.0, 0.0, 0.0, 0.0, 0.0, 0.0, 0.0, 0.0, 0.0, 0.0, 0.0, 0.0, 0.0, 0.0, 0.0)",0.2084210515022277,2.224181116616819e-05,0.0,0.0,0.0,-0.0242782905697822,44.0,1.0,636000000.0,base_footprint,-0.0014828757145605,0.0035593551508842,0.3827150701154433,0.9238583804767138,0.0,0.0,0.0,0.0,0.0,0.0,0.0,0.0,0.0,2.135855973194392e-05,-4.471809818083866e-05,-0.0160067657994199,0.0,0.0,0.0,0.0,0.0,0.0,0.0,0.0,0.0,-0.0002859247569504,0.7032199176521527,-0.0039324760467524,0.0,0.0,0.0,0.0,0.0,0.0,0.0,0.0,0.0
1.702,0.001466024170344138,0.0014633013215390456,-0.0014109417150753865,0.0667239805785267,4.361172276056963e-05,0.981590034516773,0.00699715721261708,0.0015706215283751784,0.0015716315196858243,1.4522703679269687e-06,46.0,1.0,670000000.0,odom,base_footprint,-3.99883245026864,-3.9987814738742817,-0.0010022003563654,-0.0014815708899865,0.0035605285867944,0.3823053795486763,0.9240279889440705,"(1e-05, 0.0, 0.0, 0.0, 0.0, 0.0, 0.0, 1e-05, 0.0, 0.0, 0.0, 0.0, 0.0, 0.0, 1000000000000.0, 0.0, 0.0, 0.0, 0.0, 0.0, 0.0, 1000000000000.0, 0.0, 0.0, 0.0, 0.0, 0.0, 0.0, 1000000000000.0, 0.0, 0.0, 0.0, 0.0, 0.0, 0.0, 0.001)",0.0501407351194894,3.408039618114575e-05,0.0,0.0,0.0,-0.033912933428906,"(0.0, 0.0, 0.0, 0.0, 0.0, 0.0, 0.0, 0.0, 0.0, 0.0, 0.0, 0.0, 0.0, 0.0, 0.0, 0.0, 0.0, 0.0, 0.0, 0.0, 0.0, 0.0, 0.0, 0.0, 0.0, 0.0, 0.0, 0.0, 0.0, 0.0, 0.0, 0.0, 0.0, 0.0, 0.0, 0.0)",0.2084210515022277,2.945360574813094e-05,0.0,0.0,0.0,-0.0252125244587659,45.0,1.0,670000000.0,base_footprint,-0.0014816167182469,0.0035604729039569,0.3823210471496288,0.9240215066496082,0.0,0.0,0.0,0.0,0.0,0.0,0.0,0.0,0.0,-7.461393463661085e-05,-0.0001414209189035,-0.0334107792086422,0.0,0.0,0.0,0.0,0.0,0.0,0.0,0.0,0.0,0.0015928190972685,0.7493588989428722,-0.0041151618808823,0.0,0.0,0.0,0.0,0.0,0.0,0.0,0.0,0.0
1.7360000000000002,0.002078523103483665,0.002067010677544001,-0.0020027385058227765,0.10008738440508916,4.357702513484575e-05,1.0019040188156894,-1.0419707424588173e-06,0.002355962143804179,0.0023574839943756045,1.4511149369903636e-06,47.0,1.0,703000000.0,odom,base_footprint,-3.99736572627808,-3.9973178052140255,-0.0010023043394008,-0.0014794254378633,0.0035622783591994,0.3816529655014833,0.924297644375008,"(1e-05, 0.0, 0.0, 0.0, 0.0, 0.0, 0.0, 1e-05, 0.0, 0.0, 0.0, 0.0, 0.0, 0.0, 1000000000000.0, 0.0, 0.0, 0.0, 0.0, 0.0, 0.0, 1000000000000.0, 0.0, 0.0, 0.0, 0.0, 0.0, 0.0, 1000000000000.0, 0.0, 0.0, 0.0, 0.0, 0.0, 0.0, 0.001)",0.0748246873328467,3.734147672847937e-05,0.0,0.0,0.0,-0.0508457732405574,"(0.0, 0.0, 0.0, 0.0, 0.0, 0.0, 0.0, 0.0, 0.0, 0.0, 0.0, 0.0, 0.0, 0.0, 0.0, 0.0, 0.0, 0.0, 0.0, 0.0, 0.0, 0.0, 0.0, 0.0, 0.0, 0.0, 0.0, 0.0, 0.0, 0.0, 0.0, 0.0, 0.0, 0.0, 0.0, 0.0)",0.2084210515022277,2.945360574813094e-05,0.0,0.0,0.0,-0.0252125244587659,46.0,1.0,704000000.0,base_footprint,-0.0014794254378633,0.0035622783591994,0.3816529655014834,0.9242976443750082,0.0,0.0,0.0,0.0,0.0,0.0,0.0,0.0,0.0,-0.00017047079199,-0.0002376664298156,-0.0508450599335634,0.0,0.0,0.0,0.0,0.0,0.0,0.0,0.0,0.0,0.0053050652041691,0.7481833036318022,-0.0041210355368662,0.0,0.0,0.0,0.0,0.0,0.0,0.0,0.0,0.0
1.77,0.00267781129388478,0.0026502415664304557,-0.002585431602364907,0.13715415623530117,4.451887140280191e-05,1.1131162711775378,2.828367171039519e-05,0.0032284740736115217,0.0032305690070556876,1.4824784177133038e-06,48.0,1.0,737000000.0,odom,base_footprint,-3.995251423935129,-3.995215735783704,-0.0010024554459414,-0.0014763340174888,0.0035648642031753,0.3807112036699192,0.924685942134562,"(1e-05, 0.0, 0.0, 0.0, 0.0, 0.0, 0.0, 1e-05, 0.0, 0.0, 0.0, 0.0, 0.0, 0.0, 1000000000000.0, 0.0, 0.0, 0.0, 0.0, 0.0, 0.0, 1000000000000.0, 0.0, 0.0, 0.0, 0.0, 0.0, 0.0, 1000000000000.0, 0.0, 0.0, 0.0, 0.0, 0.0, 0.0, 0.001)",0.0998604371590611,3.952518423821355e-05,0.0,0.0,0.0,-0.0681516125028082,"(0.0, 0.0, 0.0, 0.0, 0.0, 0.0, 0.0, 0.0, 0.0, 0.0, 0.0, 0.0, 0.0, 0.0, 0.0, 0.0, 0.0, 0.0, 0.0, 0.0, 0.0, 0.0, 0.0, 0.0, 0.0, 0.0, 0.0, 0.0, 0.0, 0.0, 0.0, 0.0, 0.0, 0.0, 0.0, 0.0)",0.2084210515022277,2.945360574813094e-05,0.0,0.0,0.0,-0.0252125244587659,47.0,1.0,738000000.0,base_footprint,-0.0014763340174888,0.0035648642031753,0.3807112036699193,0.9246859421345622,0.0,0.0,0.0,0.0,0.0,0.0,0.0,0.0,0.0,-0.0002666062135368,-0.0003320974255877,-0.0681503755918126,0.0,0.0,0.0,0.0,0.0,0.0,0.0,0.0,0.0,0.0106837460263149,0.736276781269794,-0.0040773341586618,0.0,0.0,0.0,0.0,0.0,0.0,0.0,0.0,0.0
1.804,0.0032418645158482917,0.003189455612881531,-0.003144445048495425,0.20017667209244436,3.8671732497456214e-05,1.0018937034675162,-9.455536614610324e-05,0.004711949075603281,0.004715032819522002,1.287768692165292e-06,48.0,1.0,737000000.0,odom,base_footprint,-3.995251423935129,-3.995215735783704,-0.0010024554459414,-0.0014763340174888,0.0035648642031753,0.3807112036699192,0.924685942134562,"(1e-05, 0.0, 0.0, 0.0, 0.0, 0.0, 0.0, 1e-05, 0.0, 0.0, 0.0, 0.0, 0.0, 0.0, 1000000000000.0, 0.0, 0.0, 0.0, 0.0, 0.0, 0.0, 1000000000000.0, 0.0, 0.0, 0.0, 0.0, 0.0, 0.0, 1000000000000.0, 0.0, 0.0, 0.0, 0.0, 0.0, 0.0, 0.001)",0.0998604371590611,3.952518423821355e-05,0.0,0.0,0.0,-0.0681516125028082,"(0.0, 0.0, 0.0, 0.0, 0.0, 0.0, 0.0, 0.0, 0.0, 0.0, 0.0, 0.0, 0.0, 0.0, 0.0, 0.0, 0.0, 0.0, 0.0, 0.0, 0.0, 0.0, 0.0, 0.0, 0.0, 0.0, 0.0, 0.0, 0.0, 0.0, 0.0, 0.0, 0.0, 0.0, 0.0, 0.0)",0.2199999988079071,3.952518454752863e-05,0.0,0.0,0.0,0.0056945476680994,48.0,1.0,772000000.0,base_footprint,-0.0014716385959632,0.0035664010407214,0.3794998907352671,0.9251837374248316,0.0,0.0,0.0,0.0,0.0,0.0,0.0,0.0,0.0,0.0036474381019106,-0.0005595572004688,-0.0851108778334151,0.0,0.0,0.0,0.0,0.0,0.0,0.0,0.0,0.0,0.0177231583159079,0.7053617800702785,-0.0010257781230527,0.0,0.0,0.0,0.0,0.0,0.0,0.0,0.0,0.0
1.838,0.003738350806950397,0.0036523640962982107,-0.0036540440848739086,0.22462405786769277,0.005809596546659181,0.7341557289864387,0.17330104547032205,0.00528689969054908,0.005291390095968949,0.00019345956500375073,50.0,1.0,803000000.0,odom,base_footprint,-3.989472979655608,-3.98951618168556,-0.001002881406996,-0.0014678739100828,0.0035723142187817,0.3781233340624306,0.925747172912139,"(1e-05, 0.0, 0.0, 0.0, 0.0, 0.0, 0.0, 1e-05, 0.0, 0.0, 0.0, 0.0, 0.0, 0.0, 1000000000000.0, 0.0, 0.0, 0.0, 0.0, 0.0, 0.0, 1000000000000.0, 0.0, 0.0, 0.0, 0.0, 0.0, 0.0, 1000000000000.0, 0.0, 0.0, 0.0, 0.0, 0.0, 0.0, 0.001)",0.1441238890047088,2.8473595797162687e-05,0.0,0.0,0.0,-0.0999507787034326,"(0.0, 0.0, 0.0, 0.0, 0.0, 0.0, 0.0, 0.0, 0.0, 0.0, 0.0, 0.0, 0.0, 0.0, 0.0, 0.0, 0.0, 0.0, 0.0, 0.0, 0.0, 0.0, 0.0, 0.0, 0.0, 0.0, 0.0, 0.0, 0.0, 0.0, 0.0, 0.0, 0.0, 0.0, 0.0, 0.0)",0.2199999988079071,3.952518454752863e-05,0.0,0.0,0.0,0.0056945476680994,49.0,1.0,806000000.0,base_footprint,-0.0014669900589985,0.0035710773634026,0.3780301303694435,0.9257852428503562,0.0,0.0,0.0,0.0,0.0,0.0,0.0,0.0,0.0,0.0005879286215319,-0.0005515007415132,-0.1009323199984536,0.0,0.0,0.0,0.0,0.0,0.0,0.0,0.0,0.0,0.0245504399183286,0.6306420370093222,-0.0049201421280308,0.0,0.0,0.0,0.0,0.0,0.0,0.0,0.0,0.0
1.872,0.004129161029313266,0.004002713097756239,-0.004097033619617552,0.21801460260356034,0.005667842290669135,-0.19848214006403675,-0.004256884564265645,0.005130353679586698,0.005136673979466092,0.00018873914827928221,52.0,1.0,869000000.0,odom,base_footprint,-3.981731255624817,-3.981982545031861,-0.0010033678976345,-0.0014558575238665,0.0035823712792537,0.3745912213395447,0.9271820015456704,"(1e-05, 0.0, 0.0, 0.0, 0.0, 0.0, 0.0, 1e-05, 0.0, 0.0, 0.0, 0.0, 0.0, 0.0, 1000000000000.0, 0.0, 0.0, 0.0, 0.0, 0.0, 0.0, 1000000000000.0, 0.0, 0.0, 0.0, 0.0, 0.0, 0.0, 1000000000000.0, 0.0, 0.0, 0.0, 0.0, 0.0, 0.0, 0.001)",0.1745662885443487,8.583688036606363e-06,0.0,0.0,0.0,-0.1258513900422073,"(0.0, 0.0, 0.0, 0.0, 0.0, 0.0, 0.0, 0.0, 0.0, 0.0, 0.0, 0.0, 0.0, 0.0, 0.0, 0.0, 0.0, 0.0, 0.0, 0.0, 0.0, 0.0, 0.0, 0.0, 0.0, 0.0, 0.0, 0.0, 0.0, 0.0, 0.0, 0.0, 0.0, 0.0, 0.0, 0.0)",0.2199999988079071,3.952518454752863e-05,0.0,0.0,0.0,0.0056945476680994,50.0,1.0,840000000.0,base_footprint,-0.00146188122152,0.0035775544309205,0.376325076721938,0.9264796277510994,0.0,0.0,0.0,0.0,0.0,0.0,0.0,0.0,0.0,-0.0005670236901016,-0.0005715767944052,-0.1148864051627463,0.0,0.0,0.0,0.0,0.0,0.0,0.0,0.0,0.0,0.030036451912755,0.5200706001298946,-0.004543711789039,0.0,0.0,0.0,0.0,0.0,0.0,0.0,0.0,0.0
1.9060000000000001,0.004383027038554754,0.004208036068237497,-0.004472096096837407,0.21801488338002065,0.0056556862892654615,8.43172553465798e-06,-0.0003650450871973973,0.005129391742649483,0.005137647765072343,0.0001883343534325399,52.0,1.0,869000000.0,odom,base_footprint,-3.981731255624817,-3.981982545031861,-0.0010033678976345,-0.0014558575238665,0.0035823712792537,0.3745912213395447,0.9271820015456704,"(1e-05, 0.0, 0.0, 0.0, 0.0, 0.0, 0.0, 1e-05, 0.0, 0.0, 0.0, 0.0, 0.0, 0.0, 1000000000000.0, 0.0, 0.0, 0.0, 0.0, 0.0, 0.0, 1000000000000.0, 0.0, 0.0, 0.0, 0.0, 0.0, 0.0, 1000000000000.0, 0.0, 0.0, 0.0, 0.0, 0.0, 0.0, 0.001)",0.1745662885443487,8.583688036606363e-06,0.0,0.0,0.0,-0.1258513900422073,"(0.0, 0.0, 0.0, 0.0, 0.0, 0.0, 0.0, 0.0, 0.0, 0.0, 0.0, 0.0, 0.0, 0.0, 0.0, 0.0, 0.0, 0.0, 0.0, 0.0, 0.0, 0.0, 0.0, 0.0, 0.0, 0.0, 0.0, 0.0, 0.0, 0.0, 0.0, 0.0, 0.0, 0.0, 0.0, 0.0)",0.2199999988079071,1.7622800442040898e-05,0.0,0.0,0.0,-0.0074577927589416,51.0,1.0,874000000.0,base_footprint,-0.0014552327319248,0.0035828507847172,0.374415285021131,0.9272530613702472,0.0,0.0,0.0,0.0,0.0,0.0,0.0,0.0,0.0,-0.0006332055544426,-0.0006225700794319,-0.1268156842666637,0.0,0.0,0.0,0.0,0.0,0.0,0.0,0.0,0.0,0.033116594955768,0.3641125765987661,-0.0021189962146928,0.0,0.0,0.0,0.0,0.0,0.0,0.0,0.0,0.0
1.94,0.004475115740908642,0.00425051934716425,-0.004763913620853266,0.22461840723072163,-0.007614957901889072,0.19830401954057,-0.39851784357821424,0.005284930227749925,0.005293091244651838,-0.0002535780981329061,53.0,1.0,903000000.0,odom,base_footprint,-3.977484528808224,-3.977903368174108,-0.0010032885352662,-0.0014475766689726,0.0035859146896887,0.3725848158701774,0.9279900865422064,"(1e-05, 0.0, 0.0, 0.0, 0.0, 0.0, 0.0, 1e-05, 0.0, 0.0, 0.0, 0.0, 0.0, 0.0, 1000000000000.0, 0.0, 0.0, 0.0, 0.0, 0.0, 0.0, 1000000000000.0, 0.0, 0.0, 0.0, 0.0, 0.0, 0.0, 1000000000000.0, 0.0, 0.0, 0.0, 0.0, 0.0, 0.0, 0.001)",0.1810742687942628,-0.0001658107953091,0.0,0.0,0.0,-0.1357013407610717,"(0.0, 0.0, 0.0, 0.0, 0.0, 0.0, 0.0, 0.0, 0.0, 0.0, 0.0, 0.0, 0.0, 0.0, 0.0, 0.0, 0.0, 0.0, 0.0, 0.0, 0.0, 0.0, 0.0, 0.0, 0.0, 0.0, 0.0, 0.0, 0.0, 0.0, 0.0, 0.0, 0.0, 0.0, 0.0, 0.0)",0.2199999988079071,1.7622800442040898e-05,0.0,0.0,0.0,-0.0074577927589416,52.0,1.0,908000000.0,base_footprint,-0.0014463742449358,0.0035861277507738,0.3723317177544444,0.9280916655391984,0.0,0.0,0.0,0.0,0.0,0.0,0.0,0.0,0.0,-0.0004134911416248,-0.0006324680909012,-0.1367516980076706,0.0,0.0,0.0,0.0,0.0,0.0,0.0,0.0,0.0,0.0370011083050838,0.1751377012715144,-0.000587048058307,0.0,0.0,0.0,0.0,0.0,0.0,0.0,0.0,0.0
1.9740000000000002,0.004471987076851924,0.004234711450910034,-0.004922888777841639,0.2180076923996546,-0.007260207663565071,-0.19851996489690804,0.010653160310030064,0.005130662350055431,0.005136040411596134,-0.00024176491519671688,54.0,1.0,937000000.0,odom,base_footprint,-3.9730096253358633,-3.973651403505607,-0.001002177397293,-0.0014361379020828,0.0035812076071318,0.370378955401742,0.9288727264030928,"(1e-05, 0.0, 0.0, 0.0, 0.0, 0.0, 0.0, 1e-05, 0.0, 0.0, 0.0, 0.0, 0.0, 0.0, 1000000000000.0, 0.0, 0.0, 0.0, 0.0, 0.0, 0.0, 1000000000000.0, 0.0, 0.0, 0.0, 0.0, 0.0, 0.0, 1000000000000.0, 0.0, 0.0, 0.0, 0.0, 0.0, 0.0, 0.001)",0.180907322460526,6.149866635470069e-05,0.0,0.0,0.0,-0.1425098825529053,"(0.0, 0.0, 0.0, 0.0, 0.0, 0.0, 0.0, 0.0, 0.0, 0.0, 0.0, 0.0, 0.0, 0.0, 0.0, 0.0, 0.0, 0.0, 0.0, 0.0, 0.0, 0.0, 0.0, 0.0, 0.0, 0.0, 0.0, 0.0, 0.0, 0.0, 0.0, 0.0, 0.0, 0.0, 0.0, 0.0)",0.2199999988079071,1.7622800442040898e-05,0.0,0.0,0.0,-0.0074577927589416,53.0,1.0,942000000.0,base_footprint,-0.0014367776740993,0.0035796328089593,0.3701152157741331,0.9289778517011776,0.0,0.0,0.0,0.0,0.0,0.0,0.0,0.0,0.0,0.0017803548128586,-0.0036585210863962,-0.1417934361356239,0.0,0.0,0.0,0.0,0.0,0.0,0.0,0.0,0.0,0.0152045247237601,-0.0181358148709989,0.0068134269790982,0.0,0.0,0.0,0.0,0.0,0.0,0.0,0.0,0.0
2.008,0.004612649445943973,0.00431427233322168,-0.005180013412448337,0.2180180279312537,-0.00738070868344391,0.0003103763242972456,-0.0036186492456107638,0.005132157515246555,0.005135032985929657,-0.0002457775991586822,54.0,1.0,937000000.0,odom,base_footprint,-3.9730096253358633,-3.973651403505607,-0.001002177397293,-0.0014361379020828,0.0035812076071318,0.370378955401742,0.9288727264030928,"(1e-05, 0.0, 0.0, 0.0, 0.0, 0.0, 0.0, 1e-05, 0.0, 0.0, 0.0, 0.0, 0.0, 0.0, 1000000000000.0, 0.0, 0.0, 0.0, 0.0, 0.0, 0.0, 1000000000000.0, 0.0, 0.0, 0.0, 0.0, 0.0, 0.0, 1000000000000.0, 0.0, 0.0, 0.0, 0.0, 0.0, 0.0, 0.001)",0.180907322460526,6.149866635470069e-05,0.0,0.0,0.0,-0.1425098825529053,"(0.0, 0.0, 0.0, 0.0, 0.0, 0.0, 0.0, 0.0, 0.0, 0.0, 0.0, 0.0, 0.0, 0.0, 0.0, 0.0, 0.0, 0.0, 0.0, 0.0, 0.0, 0.0, 0.0, 0.0, 0.0, 0.0, 0.0, 0.0, 0.0, 0.0, 0.0, 0.0, 0.0, 0.0, 0.0, 0.0)",0.2084210515022277,0.0,0.0,0.0,0.0,0.0037858395371586,54.0,1.0,976000000.0,base_footprint,-0.0014254476485221,0.0035785689157005,0.3678212088126527,0.9298885526186008,0.0,0.0,0.0,0.0,0.0,0.0,0.0,0.0,0.0,-0.000711723386991,-0.0008307614830288,-0.1486281859473686,0.0,0.0,0.0,0.0,0.0,0.0,0.0,0.0,0.0,0.0272082833111959,0.0533957035927725,-0.0079333172546207,0.0,0.0,0.0,0.0,0.0,0.0,0.0,0.0,0.0
2.042,0.004865652717941593,0.004498428133016041,-0.004901536481637491,0.2124908605486723,0.021180265063720494,-0.1659810024799214,0.8576868993142462,0.005000897511435065,0.0050059992943502826,0.0007053028266218926,56.0,2.0,3000000.0,odom,base_footprint,-3.964217307988552,-3.965369809288835,-0.0010016636084814,-0.0014191415034295,0.0035829507203208,0.3658407334447929,0.9306694935658444,"(1e-05, 0.0, 0.0, 0.0, 0.0, 0.0, 0.0, 1e-05, 0.0, 0.0, 0.0, 0.0, 0.0, 0.0, 1000000000000.0, 0.0, 0.0, 0.0, 0.0, 0.0, 0.0, 1000000000000.0, 0.0, 0.0, 0.0, 0.0, 0.0, 0.0, 1000000000000.0, 0.0, 0.0, 0.0, 0.0, 0.0, 0.0, 0.001)",0.18866477260463,0.0001386293215267,0.0,0.0,0.0,-0.1555368960060132,"(0.0, 0.0, 0.0, 0.0, 0.0, 0.0, 0.0, 0.0, 0.0, 0.0, 0.0, 0.0, 0.0, 0.0, 0.0, 0.0, 0.0, 0.0, 0.0, 0.0, 0.0, 0.0, 0.0, 0.0, 0.0, 0.0, 0.0, 0.0, 0.0, 0.0, 0.0, 0.0, 0.0, 0.0, 0.0, 0.0)",0.2084210515022277,0.0,0.0,0.0,0.0,0.0037858395371586,55.0,2.0,10000000.0,base_footprint,-0.0014131849852278,0.0035818526537907,0.3654035574262491,0.9308412396644264,0.0,0.0,0.0,0.0,0.0,0.0,0.0,0.0,0.0,0.0020228388072095,0.0004531025781989,-0.1570444219955295,0.0,0.0,0.0,0.0,0.0,0.0,0.0,0.0,0.0,0.0461518149604502,0.2290093140471471,0.0028484011648327,0.0,0.0,0.0,0.0,0.0,0.0,0.0,0.0,0.0
2.076,0.005105613178064239,0.004684270864948825,-0.0017433503607633405,0.20618808706274983,0.008067074490946685,-0.18927247705472913,-0.39378950668990415,0.004850198014438052,0.004859876970223247,0.0002686335805485246,58.0,2.0,70000000.0,odom,base_footprint,-3.954456445106873,-3.9563717292274982,-0.0010026295805876,-0.0014135061824687,0.0035922255618452,0.3624540552992926,0.9319936457470526,"(1e-05, 0.0, 0.0, 0.0, 0.0, 0.0, 0.0, 1e-05, 0.0, 0.0, 0.0, 0.0, 0.0, 0.0, 1000000000000.0, 0.0, 0.0, 0.0, 0.0, 0.0, 0.0, 1000000000000.0, 0.0, 0.0, 0.0, 0.0, 0.0, 0.0, 1000000000000.0, 0.0, 0.0, 0.0, 0.0, 0.0, 0.0, 0.001)",0.2069337784980413,-2.9431944236602003e-05,0.0,0.0,0.0,-0.0067955805836635,"(0.0, 0.0, 0.0, 0.0, 0.0, 0.0, 0.0, 0.0, 0.0, 0.0, 0.0, 0.0, 0.0, 0.0, 0.0, 0.0, 0.0, 0.0, 0.0, 0.0, 0.0, 0.0, 0.0, 0.0, 0.0, 0.0, 0.0, 0.0, 0.0, 0.0, 0.0, 0.0, 0.0, 0.0, 0.0, 0.0)",0.2084210515022277,0.0,0.0,0.0,0.0,0.0037858395371586,56.0,2.0,44000000.0,base_footprint,-0.0014197785328258,0.0035933145614964,0.3631676701726188,0.9317157912479384,0.0,0.0,0.0,0.0,0.0,0.0,0.0,0.0,0.0,-0.0010441280257676,-0.0008817519971907,-0.1059736948649706,0.0,0.0,0.0,0.0,0.0,0.0,0.0,0.0,0.0,0.0537444466856771,0.2670037144526169,-0.0067836923097094,0.0,0.0,0.0,0.0,0.0,0.0,0.0,0.0,0.0
2.11,0.00522386926658891,0.004788607520487265,0.00013795787466686085,0.2060745255049445,0.004108599047070371,-0.003410256991150569,-0.11887313645274214,0.004846541921714248,0.004858182936902512,0.00013681634826744337,58.0,2.0,70000000.0,odom,base_footprint,-3.954456445106873,-3.9563717292274982,-0.0010026295805876,-0.0014135061824687,0.0035922255618452,0.3624540552992926,0.9319936457470526,"(1e-05, 0.0, 0.0, 0.0, 0.0, 0.0, 0.0, 1e-05, 0.0, 0.0, 0.0, 0.0, 0.0, 0.0, 1000000000000.0, 0.0, 0.0, 0.0, 0.0, 0.0, 0.0, 1000000000000.0, 0.0, 0.0, 0.0, 0.0, 0.0, 0.0, 1000000000000.0, 0.0, 0.0, 0.0, 0.0, 0.0, 0.0, 0.001)",0.2069337784980413,-2.9431944236602003e-05,0.0,0.0,0.0,-0.0067955805836635,"(0.0, 0.0, 0.0, 0.0, 0.0, 0.0, 0.0, 0.0, 0.0, 0.0, 0.0, 0.0, 0.0, 0.0, 0.0, 0.0, 0.0, 0.0, 0.0, 0.0, 0.0, 0.0, 0.0, 0.0, 0.0, 0.0, 0.0, 0.0, 0.0, 0.0, 0.0, 0.0, 0.0, 0.0, 0.0, 0.0)",0.2199999988079071,9.00871746125631e-05,0.0,0.0,0.0,0.0386579185724258,57.0,2.0,78000000.0,base_footprint,-0.0014131373763566,0.003599579380532,0.3624595227163242,0.9319914916260198,0.0,0.0,0.0,0.0,0.0,0.0,0.0,0.0,0.0,-0.0022003677025641,0.0009582497803002,0.0046440749692886,0.0,0.0,0.0,0.0,0.0,0.0,0.0,0.0,0.0,0.0322611343204887,0.2391908638726984,-0.0035494389612047,0.0,0.0,0.0,0.0,0.0,0.0,0.0,0.0,0.0
2.144,0.005463092302722128,0.005011988200579243,0.0009265491508618773,0.22439982241797432,0.04071015212705856,0.5503092166075018,1.0991457381377832,0.005273573891869831,0.005294136060646094,0.0013556480658310501,59.0,2.0,103000000.0,odom,base_footprint,-3.949398394582741,-3.9517354335364985,-0.0010029563149551,-0.0014111365615484,0.003597434620844,0.3625112182641293,0.9319713964443384,"(1e-05, 0.0, 0.0, 0.0, 0.0, 0.0, 0.0, 1e-05, 0.0, 0.0, 0.0, 0.0, 0.0, 0.0, 1000000000000.0, 0.0, 0.0, 0.0, 0.0, 0.0, 0.0, 1000000000000.0, 0.0, 0.0, 0.0, 0.0, 0.0, 0.0, 1000000000000.0, 0.0, 0.0, 0.0, 0.0, 0.0, 0.0, 0.001)",0.2080370989790746,2.344468229360797e-05,0.0,0.0,0.0,0.0042279621719648,"(0.0, 0.0, 0.0, 0.0, 0.0, 0.0, 0.0, 0.0, 0.0, 0.0, 0.0, 0.0, 0.0, 0.0, 0.0, 0.0, 0.0, 0.0, 0.0, 0.0, 0.0, 0.0, 0.0, 0.0, 0.0, 0.0, 0.0, 0.0, 0.0, 0.0, 0.0, 0.0, 0.0, 0.0, 0.0, 0.0)",0.2199999988079071,9.00871746125631e-05,0.0,0.0,0.0,0.0386579185724258,58.0,2.0,112000000.0,base_footprint,-0.0014063369422532,0.0035869946942392,0.3625209337524808,0.93196766482357,0.0,0.0,0.0,0.0,0.0,0.0,0.0,0.0,0.0,-0.0011267647681997,0.0002346128187665,0.0012342484144125,0.0,0.0,0.0,0.0,0.0,0.0,0.0,0.0,0.0,0.0116739189865565,0.1495619601364727,0.0013171054329364,0.0,0.0,0.0,0.0,0.0,0.0,0.0,0.0,0.0
2.178,0.005496309351378237,0.005054964701550979,0.0013186108859017942,0.21793554038496937,0.038507316226142806,-0.19412258357372214,-0.06615122825572828,0.0051148720653470476,0.005148378854213368,0.0012822936303305557,59.0,2.0,103000000.0,odom,base_footprint,-3.949398394582741,-3.9517354335364985,-0.0010029563149551,-0.0014111365615484,0.003597434620844,0.3625112182641293,0.9319713964443384,"(1e-05, 0.0, 0.0, 0.0, 0.0, 0.0, 0.0, 1e-05, 0.0, 0.0, 0.0, 0.0, 0.0, 0.0, 1000000000000.0, 0.0, 0.0, 0.0, 0.0, 0.0, 0.0, 1000000000000.0, 0.0, 0.0, 0.0, 0.0, 0.0, 0.0, 1000000000000.0, 0.0, 0.0, 0.0, 0.0, 0.0, 0.0, 0.001)",0.2080370989790746,2.344468229360797e-05,0.0,0.0,0.0,0.0042279621719648,"(0.0, 0.0, 0.0, 0.0, 0.0, 0.0, 0.0, 0.0, 0.0, 0.0, 0.0, 0.0, 0.0, 0.0, 0.0, 0.0, 0.0, 0.0, 0.0, 0.0, 0.0, 0.0, 0.0, 0.0, 0.0, 0.0, 0.0, 0.0, 0.0, 0.0, 0.0, 0.0, 0.0, 0.0, 0.0, 0.0)",0.2199999988079071,9.00871746125631e-05,0.0,0.0,0.0,0.0386579185724258,59.0,2.0,146000000.0,base_footprint,-0.001411406603711,0.0035944244746083,0.3629875609225441,0.9317859832920852,0.0,0.0,0.0,0.0,0.0,0.0,0.0,0.0,0.0,0.0004246935623278,0.0002529923460245,0.0388893529585649,0.0,0.0,0.0,0.0,0.0,0.0,0.0,0.0,0.0,0.00842156079267,0.190516375693352,2.2110607652576792e-05,0.0,0.0,0.0,0.0,0.0,0.0,0.0,0.0,0.0
2.212,0.005469011172154481,0.005043561838957711,0.0013129734088659362,0.2181181235186628,0.03826908734363551,0.005482976987790732,-0.007154020495714608,0.005112566226024705,0.005159231838989215,0.0012743606085430625,61.0,2.0,170000000.0,odom,base_footprint,-3.938639599397651,-3.941856976365018,-0.001002511457025,-0.0014127283744873,0.0035933662872255,0.3634394304474375,0.93160982836878,"(1e-05, 0.0, 0.0, 0.0, 0.0, 0.0, 0.0, 1e-05, 0.0, 0.0, 0.0, 0.0, 0.0, 0.0, 1000000000000.0, 0.0, 0.0, 0.0, 0.0, 0.0, 0.0, 1000000000000.0, 0.0, 0.0, 0.0, 0.0, 0.0, 0.0, 1000000000000.0, 0.0, 0.0, 0.0, 0.0, 0.0, 0.0, 0.001)",0.2196895403443486,1.1339963112741436e-05,0.0,0.0,0.0,0.0387179186195481,"(0.0, 0.0, 0.0, 0.0, 0.0, 0.0, 0.0, 0.0, 0.0, 0.0, 0.0, 0.0, 0.0, 0.0, 0.0, 0.0, 0.0, 0.0, 0.0, 0.0, 0.0, 0.0, 0.0, 0.0, 0.0, 0.0, 0.0, 0.0, 0.0, 0.0, 0.0, 0.0, 0.0, 0.0, 0.0, 0.0)",0.2084210515022277,0.0,0.0,0.0,0.0,0.0306599456816911,60.0,2.0,180000000.0,base_footprint,-0.001413304678218,0.0035932029258973,0.3636015886128896,0.931546550753532,0.0,0.0,0.0,0.0,0.0,0.0,0.0,0.0,0.0,0.000399480411242,0.000248584598075,0.0386501348267592,0.0,0.0,0.0,0.0,0.0,0.0,0.0,0.0,0.0,-0.0079185073833179,0.0063096852868646,-9.096177866381584e-05,0.0,0.0,0.0,0.0,0.0,0.0,0.0,0.0,0.0
2.246,0.005028605373452066,0.0046469956788408595,0.0007612581912317395,0.201041286009974,0.008231911843437778,-0.5128179432038678,-0.90201728228822,0.004708611887844331,0.004758954171861204,0.00027412266438647803,63.0,2.0,237000000.0,odom,base_footprint,-3.928185747246349,-3.932211006749905,-0.0010030556428512,-0.0014182635379656,0.0035957438304333,0.3645068763597803,0.9311926740698074,"(1e-05, 0.0, 0.0, 0.0, 0.0, 0.0, 0.0, 1e-05, 0.0, 0.0, 0.0, 0.0, 0.0, 0.0, 1000000000000.0, 0.0, 0.0, 0.0, 0.0, 0.0, 0.0, 1000000000000.0, 0.0, 0.0, 0.0, 0.0, 0.0, 0.0, 1000000000000.0, 0.0, 0.0, 0.0, 0.0, 0.0, 0.0, 0.001)",0.1968797021068579,-7.166194779972823e-06,0.0,0.0,0.0,0.0088889024130139,"(0.0, 0.0, 0.0, 0.0, 0.0, 0.0, 0.0, 0.0, 0.0, 0.0, 0.0, 0.0, 0.0, 0.0, 0.0, 0.0, 0.0, 0.0, 0.0, 0.0, 0.0, 0.0, 0.0, 0.0, 0.0, 0.0, 0.0, 0.0, 0.0, 0.0, 0.0, 0.0, 0.0, 0.0, 0.0, 0.0)",0.2084210515022277,0.0,0.0,0.0,0.0,0.0306599456816911,61.0,2.0,214000000.0,base_footprint,-0.001416922214399,0.0035961857165852,0.3642134937573389,0.9313074630565372,0.0,0.0,0.0,0.0,0.0,0.0,0.0,0.0,0.0,0.0018476257870013,0.0001625463252816,0.0391574470123119,0.0,0.0,0.0,0.0,0.0,0.0,0.0,0.0,0.0,-0.030876001121679,-0.2686070436103538,0.0031028697273523,0.0,0.0,0.0,0.0,0.0,0.0,0.0,0.0,0.0
2.2800000000000002,0.005187371047497447,0.004800452257898158,0.000806196845123397,0.20672521427534296,0.03005891502138371,0.17068853649756616,0.6554655608992772,0.004838614863634477,0.004896587059068902,0.0010009618702120776,63.0,2.0,237000000.0,odom,base_footprint,-3.928185747246349,-3.932211006749905,-0.0010030556428512,-0.0014182635379656,0.0035957438304333,0.3645068763597803,0.9311926740698074,"(1e-05, 0.0, 0.0, 0.0, 0.0, 0.0, 0.0, 1e-05, 0.0, 0.0, 0.0, 0.0, 0.0, 0.0, 1000000000000.0, 0.0, 0.0, 0.0, 0.0, 0.0, 0.0, 1000000000000.0, 0.0, 0.0, 0.0, 0.0, 0.0, 0.0, 1000000000000.0, 0.0, 0.0, 0.0, 0.0, 0.0, 0.0, 0.001)",0.1968797021068579,-7.166194779972823e-06,0.0,0.0,0.0,0.0088889024130139,"(0.0, 0.0, 0.0, 0.0, 0.0, 0.0, 0.0, 0.0, 0.0, 0.0, 0.0, 0.0, 0.0, 0.0, 0.0, 0.0, 0.0, 0.0, 0.0, 0.0, 0.0, 0.0, 0.0, 0.0, 0.0, 0.0, 0.0, 0.0, 0.0, 0.0, 0.0, 0.0, 0.0, 0.0, 0.0, 0.0)",0.2084210515022277,0.0,0.0,0.0,0.0,0.0306599456816911,62.0,2.0,248000000.0,base_footprint,-0.001416320331711,0.0035905822490789,0.3645354239008401,0.9311815217653674,0.0,0.0,0.0,0.0,0.0,0.0,0.0,0.0,0.0,-0.0001514293816505,4.877808680314357e-05,0.0039617889162783,0.0,0.0,0.0,0.0,0.0,0.0,0.0,0.0,0.0,-0.0183474278919942,-0.1969926204373072,-0.0005657669117615,0.0,0.0,0.0,0.0,0.0,0.0,0.0,0.0,0.0
2.314,0.0052055722785619984,0.004825362909235853,0.001152744524578364,0.20709992802326796,0.029433165244939732,0.011252665102852805,-0.018791284577897204,0.004842523980420569,0.0049102618440841584,0.0009801244026564932,65.0,2.0,303000000.0,odom,base_footprint,-3.918148023698148,-3.922918506700717,-0.0010040029335205,-0.0014242161765123,0.0036010052634488,0.3652394149255727,0.9309055667221036,"(1e-05, 0.0, 0.0, 0.0, 0.0, 0.0, 0.0, 1e-05, 0.0, 0.0, 0.0, 0.0, 0.0, 0.0, 1000000000000.0, 0.0, 0.0, 0.0, 0.0, 0.0, 0.0, 1000000000000.0, 0.0, 0.0, 0.0, 0.0, 0.0, 0.0, 1000000000000.0, 0.0, 0.0, 0.0, 0.0, 0.0, 0.0, 0.001)",0.2088277427696014,-2.0902671130237915e-05,0.0,0.0,0.0,0.0297210103841659,"(0.0, 0.0, 0.0, 0.0, 0.0, 0.0, 0.0, 0.0, 0.0, 0.0, 0.0, 0.0, 0.0, 0.0, 0.0, 0.0, 0.0, 0.0, 0.0, 0.0, 0.0, 0.0, 0.0, 0.0, 0.0, 0.0, 0.0, 0.0, 0.0, 0.0, 0.0, 0.0, 0.0, 0.0, 0.0, 0.0)",0.2084210515022277,8.51950426294934e-06,0.0,0.0,0.0,0.0466757677495479,63.0,2.0,282000000.0,base_footprint,-0.0014214222018048,0.0035987776594678,0.3649346656019595,0.9310250899950376,0.0,0.0,0.0,0.0,0.0,0.0,0.0,0.0,0.0,0.000115788392013,0.0001829529879845,0.0298866431354807,0.0,0.0,0.0,0.0,0.0,0.0,0.0,0.0,0.0,0.0059105275217921,0.1447802475253422,-0.0011522648394149,0.0,0.0,0.0,0.0,0.0,0.0,0.0,0.0,0.0
2.348,0.005200029030406839,0.004830986150033301,0.0015573331144622669,0.21335329484053653,0.046253782038842194,0.1877887933113684,0.5051236274445183,0.00498236468357692,0.005064809269725543,0.0015402509418934451,65.0,2.0,303000000.0,odom,base_footprint,-3.918148023698148,-3.922918506700717,-0.0010040029335205,-0.0014242161765123,0.0036010052634488,0.3652394149255727,0.9309055667221036,"(1e-05, 0.0, 0.0, 0.0, 0.0, 0.0, 0.0, 1e-05, 0.0, 0.0, 0.0, 0.0, 0.0, 0.0, 1000000000000.0, 0.0, 0.0, 0.0, 0.0, 0.0, 0.0, 1000000000000.0, 0.0, 0.0, 0.0, 0.0, 0.0, 0.0, 1000000000000.0, 0.0, 0.0, 0.0, 0.0, 0.0, 0.0, 0.001)",0.2088277427696014,-2.0902671130237915e-05,0.0,0.0,0.0,0.0297210103841659,"(0.0, 0.0, 0.0, 0.0, 0.0, 0.0, 0.0, 0.0, 0.0, 0.0, 0.0, 0.0, 0.0, 0.0, 0.0, 0.0, 0.0, 0.0, 0.0, 0.0, 0.0, 0.0, 0.0, 0.0, 0.0, 0.0, 0.0, 0.0, 0.0, 0.0, 0.0, 0.0, 0.0, 0.0, 0.0, 0.0)",0.2084210515022277,8.51950426294934e-06,0.0,0.0,0.0,0.0466757677495479,64.0,2.0,316000000.0,base_footprint,-0.0014262665087063,0.0036016758926371,0.3654868224943334,0.9308084530544436,0.0,0.0,0.0,0.0,0.0,0.0,0.0,0.0,0.0,3.7386803309069896e-05,0.0003611080039881,0.0465572153844224,0.0,0.0,0.0,0.0,0.0,0.0,0.0,0.0,0.0,-0.0054641601888947,-0.0010279388698252,-0.0004004821609033,0.0,0.0,0.0,0.0,0.0,0.0,0.0,0.0,0.0
2.382,0.005193108020760118,0.0048370156018360255,0.001554125073680579,0.20695262066590078,0.04525142643167116,-0.1922124376767491,-0.030100768984115074,0.004825401347804644,0.004920220728647668,0.0015068725001746498,66.0,2.0,337000000.0,odom,base_footprint,-3.912946662431895,-3.918089851656503,-0.001004424076224,-0.0014281753105879,0.0036028540698922,0.3659560695136448,0.9306240567189084,"(1e-05, 0.0, 0.0, 0.0, 0.0, 0.0, 0.0, 1e-05, 0.0, 0.0, 0.0, 0.0, 0.0, 0.0, 1000000000000.0, 0.0, 0.0, 0.0, 0.0, 0.0, 0.0, 1000000000000.0, 0.0, 0.0, 0.0, 0.0, 0.0, 0.0, 1000000000000.0, 0.0, 0.0, 0.0, 0.0, 0.0, 0.0, 0.001)",0.2088038015792548,-8.448094546238683e-05,0.0,0.0,0.0,0.0455761604703476,"(0.0, 0.0, 0.0, 0.0, 0.0, 0.0, 0.0, 0.0, 0.0, 0.0, 0.0, 0.0, 0.0, 0.0, 0.0, 0.0, 0.0, 0.0, 0.0, 0.0, 0.0, 0.0, 0.0, 0.0, 0.0, 0.0, 0.0, 0.0, 0.0, 0.0, 0.0, 0.0, 0.0, 0.0, 0.0, 0.0)",0.2199999988079071,0.0,0.0,0.0,0.0,0.0701915547251701,65.0,2.0,350000000.0,base_footprint,-0.0014295071324879,0.0036032819021178,0.3662105035780983,0.930523959894622,0.0,0.0,0.0,0.0,0.0,0.0,0.0,0.0,0.0,0.0002158277305513,0.0002552067942275,0.0455876890893781,0.0,0.0,0.0,0.0,0.0,0.0,0.0,0.0,0.0,-0.0080879410214652,0.0039830123406392,0.000266836040778,0.0,0.0,0.0,0.0,0.0,0.0,0.0,0.0,0.0
2.416,0.005181749475691166,0.004837486515352651,0.0014811800376560713,0.20676336919864421,0.045451003268689276,-0.005683227244941987,0.005993298408952386,0.004813559475766864,0.004922996368864304,0.001513518408847353,67.0,2.0,370000000.0,odom,base_footprint,-3.907903431872989,-3.913396073367742,-0.0010046289872421,-0.0014314215666066,0.0036032937835635,0.3666568924009084,0.9303481555638816,"(1e-05, 0.0, 0.0, 0.0, 0.0, 0.0, 0.0, 1e-05, 0.0, 0.0, 0.0, 0.0, 0.0, 0.0, 1000000000000.0, 0.0, 0.0, 0.0, 0.0, 0.0, 0.0, 1000000000000.0, 0.0, 0.0, 0.0, 0.0, 0.0, 0.0, 1000000000000.0, 0.0, 0.0, 0.0, 0.0, 0.0, 0.0, 0.001)",0.2087136103133654,-0.0001411898206654,0.0,0.0,0.0,0.0457582540583932,"(0.0, 0.0, 0.0, 0.0, 0.0, 0.0, 0.0, 0.0, 0.0, 0.0, 0.0, 0.0, 0.0, 0.0, 0.0, 0.0, 0.0, 0.0, 0.0, 0.0, 0.0, 0.0, 0.0, 0.0, 0.0, 0.0, 0.0, 0.0, 0.0, 0.0, 0.0, 0.0, 0.0, 0.0, 0.0, 0.0)",0.2199999988079071,0.0,0.0,0.0,0.0,0.0701915547251701,66.0,2.0,384000000.0,base_footprint,-0.0014321131660662,0.003602266851193,0.3669336116781428,0.9302390538706952,0.0,0.0,0.0,0.0,0.0,0.0,0.0,0.0,0.0,0.0005464412410151,0.0002537002466498,0.0457295124110622,0.0,0.0,0.0,0.0,0.0,0.0,0.0,0.0,0.0,-0.0078739719952752,-0.0048627767486205,0.0006905761919506,0.0,0.0,0.0,0.0,0.0,0.0,0.0,0.0,0.0
2.45,0.005144943125032775,0.004824137969569708,0.0013107272585527463,0.2245843043149748,0.07146592353820465,0.5351632167066244,0.7812288369223834,0.00521802011129769,0.005357476573533283,0.002379815253822215,67.0,2.0,370000000.0,odom,base_footprint,-3.907903431872989,-3.913396073367742,-0.0010046289872421,-0.0014314215666066,0.0036032937835635,0.3666568924009084,0.9303481555638816,"(1e-05, 0.0, 0.0, 0.0, 0.0, 0.0, 0.0, 1e-05, 0.0, 0.0, 0.0, 0.0, 0.0, 0.0, 1000000000000.0, 0.0, 0.0, 0.0, 0.0, 0.0, 0.0, 1000000000000.0, 0.0, 0.0, 0.0, 0.0, 0.0, 0.0, 1000000000000.0, 0.0, 0.0, 0.0, 0.0, 0.0, 0.0, 0.001)",0.2087136103133654,-0.0001411898206654,0.0,0.0,0.0,0.0457582540583932,"(0.0, 0.0, 0.0, 0.0, 0.0, 0.0, 0.0, 0.0, 0.0, 0.0, 0.0, 0.0, 0.0, 0.0, 0.0, 0.0, 0.0, 0.0, 0.0, 0.0, 0.0, 0.0, 0.0, 0.0, 0.0, 0.0, 0.0, 0.0, 0.0, 0.0, 0.0, 0.0, 0.0, 0.0, 0.0, 0.0)",0.2199999988079071,0.0,0.0,0.0,0.0,0.0701915547251701,67.0,2.0,418000000.0,base_footprint,-0.0014287638174772,0.003588384116944,0.3676127453434035,0.9299709412634726,0.0,0.0,0.0,0.0,0.0,0.0,0.0,0.0,0.0,0.0003267351337326,0.0002968955030135,0.0349424338814328,0.0,0.0,0.0,0.0,0.0,0.0,0.0,0.0,0.0,-0.0051124145636776,-0.01390907352458,0.0009947684664336,0.0,0.0,0.0,0.0,0.0,0.0,0.0,0.0,0.0
2.484,0.005184083863727373,0.0048845087182316504,0.0018561867967347156,0.2179119760138343,0.0707767949851744,-0.20037021925346865,-0.02069455114204936,0.0050506688608639595,0.005210283979482466,0.002356867273006308,69.0,2.0,437000000.0,odom,base_footprint,-3.8977082121423616,-3.903873277683886,-0.0010021659002551,-0.0014280896299602,0.0035841083911876,0.3679394711621142,0.9298417393771872,"(1e-05, 0.0, 0.0, 0.0, 0.0, 0.0, 0.0, 1e-05, 0.0, 0.0, 0.0, 0.0, 0.0, 0.0, 1000000000000.0, 0.0, 0.0, 0.0, 0.0, 0.0, 0.0, 1000000000000.0, 0.0, 0.0, 0.0, 0.0, 0.0, 0.0, 1000000000000.0, 0.0, 0.0, 0.0, 0.0, 0.0, 0.0, 0.001)",0.2070438029401865,0.0001810816405883,0.0,0.0,0.0,0.0413395443473266,"(0.0, 0.0, 0.0, 0.0, 0.0, 0.0, 0.0, 0.0, 0.0, 0.0, 0.0, 0.0, 0.0, 0.0, 0.0, 0.0, 0.0, 0.0, 0.0, 0.0, 0.0, 0.0, 0.0, 0.0, 0.0, 0.0, 0.0, 0.0, 0.0, 0.0, 0.0, 0.0, 0.0, 0.0, 0.0, 0.0)",0.2084210515022277,0.0001810816465876,0.0,0.0,0.0,0.049544658511877,68.0,2.0,452000000.0,base_footprint,-0.0014293745086536,0.0035778914822437,0.3682342171947868,0.9297250759595538,0.0,0.0,0.0,0.0,0.0,0.0,0.0,0.0,0.0,0.0004828589710284,0.0001125752554947,0.048432007361393,0.0,0.0,0.0,0.0,0.0,0.0,0.0,0.0,0.0,-0.0268537852340741,-0.0172653137596814,-0.0021984030184601,0.0,0.0,0.0,0.0,0.0,0.0,0.0,0.0,0.0
2.518,0.005294115321937465,0.005003161351969876,0.0022559381669853278,0.21773186191775465,0.07184308860289565,-0.0054088317141037,0.03202082936099835,0.005034117779217125,0.005217946230137772,0.0023923748504764255,71.0,2.0,503000000.0,odom,base_footprint,-3.887585508398564,-3.894332125406524,-0.0010026855030502,-0.0014369778993781,0.0035841531153331,0.3696676166119123,0.9291560375789584,"(1e-05, 0.0, 0.0, 0.0, 0.0, 0.0, 0.0, 1e-05, 0.0, 0.0, 0.0, 0.0, 0.0, 0.0, 1000000000000.0, 0.0, 0.0, 0.0, 0.0, 0.0, 0.0, 1000000000000.0, 0.0, 0.0, 0.0, 0.0, 0.0, 0.0, 1000000000000.0, 0.0, 0.0, 0.0, 0.0, 0.0, 0.0, 0.001)",0.217509398429047,-8.640124176632902e-05,0.0,0.0,0.0,0.071861591973256,"(0.0, 0.0, 0.0, 0.0, 0.0, 0.0, 0.0, 0.0, 0.0, 0.0, 0.0, 0.0, 0.0, 0.0, 0.0, 0.0, 0.0, 0.0, 0.0, 0.0, 0.0, 0.0, 0.0, 0.0, 0.0, 0.0, 0.0, 0.0, 0.0, 0.0, 0.0, 0.0, 0.0, 0.0, 0.0, 0.0)",0.2084210515022277,0.0001810816465876,0.0,0.0,0.0,0.049544658511877,69.0,2.0,486000000.0,base_footprint,-0.0014309657763488,0.0035794505734732,0.3691093490065778,0.929377979267036,0.0,0.0,0.0,0.0,0.0,0.0,0.0,0.0,0.0,-0.0004021620797602,5.190137314209532e-06,0.0617700110293485,0.0,0.0,0.0,0.0,0.0,0.0,0.0,0.0,0.0,0.0049595373546557,0.1581484821912688,-0.0002354200786854,0.0,0.0,0.0,0.0,0.0,0.0,0.0,0.0,0.0
2.552,0.005112699089034223,0.004851015908628131,0.0017643072376050117,0.21247398496756012,0.05157459676592864,-0.1578942027085444,-0.6086634185275378,0.004902078619040509,0.00510202581352145,0.001717434072305424,71.0,2.0,503000000.0,odom,base_footprint,-3.887585508398564,-3.894332125406524,-0.0010026855030502,-0.0014369778993781,0.0035841531153331,0.3696676166119123,0.9291560375789584,"(1e-05, 0.0, 0.0, 0.0, 0.0, 0.0, 0.0, 1e-05, 0.0, 0.0, 0.0, 0.0, 0.0, 0.0, 1000000000000.0, 0.0, 0.0, 0.0, 0.0, 0.0, 0.0, 1000000000000.0, 0.0, 0.0, 0.0, 0.0, 0.0, 0.0, 1000000000000.0, 0.0, 0.0, 0.0, 0.0, 0.0, 0.0, 0.001)",0.217509398429047,-8.640124176632902e-05,0.0,0.0,0.0,0.071861591973256,"(0.0, 0.0, 0.0, 0.0, 0.0, 0.0, 0.0, 0.0, 0.0, 0.0, 0.0, 0.0, 0.0, 0.0, 0.0, 0.0, 0.0, 0.0, 0.0, 0.0, 0.0, 0.0, 0.0, 0.0, 0.0, 0.0, 0.0, 0.0, 0.0, 0.0, 0.0, 0.0, 0.0, 0.0, 0.0, 0.0)",0.2084210515022277,0.0001810816465876,0.0,0.0,0.0,0.049544658511877,70.0,2.0,520000000.0,base_footprint,-0.0014386654535298,0.003590375549372,0.3701551453820803,0.9289618979227826,0.0,0.0,0.0,0.0,0.0,0.0,0.0,0.0,0.0,-0.0009581083848647,0.0017939984112272,0.0582522372331923,0.0,0.0,0.0,0.0,0.0,0.0,0.0,0.0,0.0,-0.0231005319794785,-0.1489615987987959,0.0015122239349951,0.0,0.0,0.0,0.0,0.0,0.0,0.0,0.0,0.0
2.5860000000000003,0.0051091808309178255,0.00486507194877861,0.0017373198089988273,0.20600967932328101,0.05057201201438446,-0.19412329262099415,-0.030107650196521975,0.004744517769071147,0.004954878230816416,0.0016840480000790026,72.0,2.0,537000000.0,odom,base_footprint,-3.8824119720902632,-3.889430710388979,-0.0010037483086068,-0.0014426276241488,0.0035921459990348,0.3705886556898063,0.9287890307204762,"(1e-05, 0.0, 0.0, 0.0, 0.0, 0.0, 0.0, 1e-05, 0.0, 0.0, 0.0, 0.0, 0.0, 0.0, 1000000000000.0, 0.0, 0.0, 0.0, 0.0, 0.0, 0.0, 1000000000000.0, 0.0, 0.0, 0.0, 0.0, 0.0, 0.0, 1000000000000.0, 0.0, 0.0, 0.0, 0.0, 0.0, 0.0, 0.001)",0.2074572835556045,-1.1134609983670662e-05,0.0,0.0,0.0,0.0504778830740953,"(0.0, 0.0, 0.0, 0.0, 0.0, 0.0, 0.0, 0.0, 0.0, 0.0, 0.0, 0.0, 0.0, 0.0, 0.0, 0.0, 0.0, 0.0, 0.0, 0.0, 0.0, 0.0, 0.0, 0.0, 0.0, 0.0, 0.0, 0.0, 0.0, 0.0, 0.0, 0.0, 0.0, 0.0, 0.0, 0.0)",0.2199999988079071,0.0,0.0,0.0,0.0,-0.0890093073248863,71.0,2.0,554000000.0,base_footprint,-0.0014436650465619,0.0035893776242896,0.3709669211552333,0.9286380218406474,0.0,0.0,0.0,0.0,0.0,0.0,0.0,0.0,0.0,0.0005105338623603,0.000120782644778,0.0510789151895021,0.0,0.0,0.0,0.0,0.0,0.0,0.0,0.0,0.0,-0.0102618447748661,-0.0097833201005253,0.0005268933276235,0.0,0.0,0.0,0.0,0.0,0.0,0.0,0.0,0.0
2.62,0.005149786588371175,0.004919293308856432,0.0010911724549907964,0.2061516721924068,0.050527412533357734,0.004264050123897261,-0.001339323754556298,0.004739434900328384,0.004966278347147082,0.0016825628373608127,73.0,2.0,570000000.0,odom,base_footprint,-3.8774511744606377,-3.8847133758014327,-0.0010032904700818,-0.0014449979205402,0.0035870215514115,0.371370318608284,0.928476780385046,"(1e-05, 0.0, 0.0, 0.0, 0.0, 0.0, 0.0, 1e-05, 0.0, 0.0, 0.0, 0.0, 0.0, 0.0, 1000000000000.0, 0.0, 0.0, 0.0, 0.0, 0.0, 0.0, 1000000000000.0, 0.0, 0.0, 0.0, 0.0, 0.0, 0.0, 1000000000000.0, 0.0, 0.0, 0.0, 0.0, 0.0, 0.0, 0.001)",0.2075013452718165,1.1805752657731428e-05,0.0,0.0,0.0,0.0511760899134205,"(0.0, 0.0, 0.0, 0.0, 0.0, 0.0, 0.0, 0.0, 0.0, 0.0, 0.0, 0.0, 0.0, 0.0, 0.0, 0.0, 0.0, 0.0, 0.0, 0.0, 0.0, 0.0, 0.0, 0.0, 0.0, 0.0, 0.0, 0.0, 0.0, 0.0, 0.0, 0.0, 0.0, 0.0, 0.0, 0.0)",0.2199999988079071,0.0,0.0,0.0,0.0,-0.0890093073248863,72.0,2.0,588000000.0,base_footprint,-0.0014452840217278,0.0035845457935489,0.3717733802861153,0.9283154721839908,0.0,0.0,0.0,0.0,0.0,0.0,0.0,0.0,0.0,0.000679256174037,0.0003466560288693,0.0509901917783783,0.0,0.0,0.0,0.0,0.0,0.0,0.0,0.0,0.0,-0.0102338198411041,0.0050256512753225,0.0004728861369344,0.0,0.0,0.0,0.0,0.0,0.0,0.0,0.0,0.0
2.654,0.0054047207225509375,0.005157347886285635,-0.0026510165005044777,0.22439665048239413,-0.09171232372420915,0.5478972459455655,-4.271463551278284,0.005162591962482317,0.005402267027692356,-0.003054020380016165,75.0,2.0,637000000.0,odom,base_footprint,-3.867200831039941,-3.874925607059907,-0.0010027002256804,-0.0014434774571715,0.0035834356731275,0.371659833787446,0.9283609445203386,"(1e-05, 0.0, 0.0, 0.0, 0.0, 0.0, 0.0, 1e-05, 0.0, 0.0, 0.0, 0.0, 0.0, 0.0, 1000000000000.0, 0.0, 0.0, 0.0, 0.0, 0.0, 0.0, 1000000000000.0, 0.0, 0.0, 0.0, 0.0, 0.0, 0.0, 1000000000000.0, 0.0, 0.0, 0.0, 0.0, 0.0, 0.0, 0.001)",0.2208003525780361,0.0001572697105187,0.0,0.0,0.0,-0.0884529109900165,"(0.0, 0.0, 0.0, 0.0, 0.0, 0.0, 0.0, 0.0, 0.0, 0.0, 0.0, 0.0, 0.0, 0.0, 0.0, 0.0, 0.0, 0.0, 0.0, 0.0, 0.0, 0.0, 0.0, 0.0, 0.0, 0.0, 0.0, 0.0, 0.0, 0.0, 0.0, 0.0, 0.0, 0.0, 0.0, 0.0)",0.2199999988079071,0.0,0.0,0.0,0.0,-0.0890093073248863,73.0,2.0,622000000.0,base_footprint,-0.0014409552894204,0.0035768657635777,0.3722010091310398,0.9281441366948342,0.0,0.0,0.0,0.0,0.0,0.0,0.0,0.0,0.0,0.0001809698072851,-0.0002487489265305,-0.0365438696090091,0.0,0.0,0.0,0.0,0.0,0.0,0.0,0.0,0.0,0.0035493683166713,0.2426739588464939,-0.0015608146428864,0.0,0.0,0.0,0.0,0.0,0.0,0.0,0.0,0.0
2.688,0.005449417988556249,0.005167716236707864,-0.0030195106102991476,0.21799687481397598,-0.0877166275574799,-0.19218545550805255,0.1199908758777552,0.0050310119284660395,0.0052331882180892105,-0.002920963697664081,75.0,2.0,637000000.0,odom,base_footprint,-3.867200831039941,-3.874925607059907,-0.0010027002256804,-0.0014434774571715,0.0035834356731275,0.371659833787446,0.9283609445203386,"(1e-05, 0.0, 0.0, 0.0, 0.0, 0.0, 0.0, 1e-05, 0.0, 0.0, 0.0, 0.0, 0.0, 0.0, 1000000000000.0, 0.0, 0.0, 0.0, 0.0, 0.0, 0.0, 1000000000000.0, 0.0, 0.0, 0.0, 0.0, 0.0, 0.0, 1000000000000.0, 0.0, 0.0, 0.0, 0.0, 0.0, 0.0, 0.001)",0.2208003525780361,0.0001572697105187,0.0,0.0,0.0,-0.0884529109900165,"(0.0, 0.0, 0.0, 0.0, 0.0, 0.0, 0.0, 0.0, 0.0, 0.0, 0.0, 0.0, 0.0, 0.0, 0.0, 0.0, 0.0, 0.0, 0.0, 0.0, 0.0, 0.0, 0.0, 0.0, 0.0, 0.0, 0.0, 0.0, 0.0, 0.0, 0.0, 0.0, 0.0, 0.0, 0.0, 0.0)",0.2199999988079071,0.0001572697074152,0.0,0.0,0.0,-0.0146067645400762,74.0,2.0,656000000.0,base_footprint,-0.0014396921783555,0.0035834738156669,0.3709196589541488,0.9286569294433664,0.0,0.0,0.0,0.0,0.0,0.0,0.0,0.0,0.0,-0.0001633477457839,-0.0004208458804098,-0.0885627312746753,0.0,0.0,0.0,0.0,0.0,0.0,0.0,0.0,0.0,0.0254235458130446,0.1451136365694104,-0.0008614278961112,0.0,0.0,0.0,0.0,0.0,0.0,0.0,0.0,0.0
2.722,0.005460940225423094,0.005149315842263302,-0.0018476963583824446,0.21817067489233807,-0.08818113223601892,0.005219221572435324,-0.013949089445616248,0.005050339961582806,0.005222591907201505,-0.0029364317034594302,77.0,2.0,703000000.0,odom,base_footprint,-3.8566222649252415,-3.864893503876707,-0.0010027190999289,-0.0014323514254586,0.0035876809571299,0.3689363614164858,0.9294466300651738,"(1e-05, 0.0, 0.0, 0.0, 0.0, 0.0, 0.0, 1e-05, 0.0, 0.0, 0.0, 0.0, 0.0, 0.0, 1000000000000.0, 0.0, 0.0, 0.0, 0.0, 0.0, 0.0, 1000000000000.0, 0.0, 0.0, 0.0, 0.0, 0.0, 0.0, 1000000000000.0, 0.0, 0.0, 0.0, 0.0, 0.0, 0.0, 0.001)",0.2210791591003673,5.513503994128421e-05,0.0,0.0,0.0,-0.0893040836512537,"(0.0, 0.0, 0.0, 0.0, 0.0, 0.0, 0.0, 0.0, 0.0, 0.0, 0.0, 0.0, 0.0, 0.0, 0.0, 0.0, 0.0, 0.0, 0.0, 0.0, 0.0, 0.0, 0.0, 0.0, 0.0, 0.0, 0.0, 0.0, 0.0, 0.0, 0.0, 0.0, 0.0, 0.0, 0.0, 0.0)",0.2199999988079071,0.0001572697074152,0.0,0.0,0.0,-0.0146067645400762,75.0,2.0,690000000.0,base_footprint,-0.0014343133986395,0.0035861677850313,0.3695167053810546,0.9292160602303552,0.0,0.0,0.0,0.0,0.0,0.0,0.0,0.0,0.0,-0.0003681556776359,-0.0004358484836798,-0.0890871292410996,0.0,0.0,0.0,0.0,0.0,0.0,0.0,0.0,0.0,0.0197607664962735,0.0045848362935306,-0.0004586008434285,0.0,0.0,0.0,0.0,0.0,0.0,0.0,0.0,0.0
2.7560000000000002,0.005461475897614587,0.005140425020257133,-0.0005200586885988346,0.22497469258904035,-0.016297693858226582,0.20432485575682505,2.1586618131469173,0.00521720560341416,0.005376401479021234,-0.0005427132054789453,78.0,2.0,737000000.0,odom,base_footprint,-3.8511636044717945,-3.859753038461359,-0.0010030530484498,-0.0014322837261223,0.0035904022392471,0.3686284365101945,0.9295687889398708,"(1e-05, 0.0, 0.0, 0.0, 0.0, 0.0, 0.0, 1e-05, 0.0, 0.0, 0.0, 0.0, 0.0, 0.0, 1000000000000.0, 0.0, 0.0, 0.0, 0.0, 0.0, 0.0, 1000000000000.0, 0.0, 0.0, 0.0, 0.0, 0.0, 0.0, 1000000000000.0, 0.0, 0.0, 0.0, 0.0, 0.0, 0.0, 0.001)",0.220601430761865,3.0482796029795978e-05,0.0,0.0,0.0,-0.0153243467483227,"(0.0, 0.0, 0.0, 0.0, 0.0, 0.0, 0.0, 0.0, 0.0, 0.0, 0.0, 0.0, 0.0, 0.0, 0.0, 0.0, 0.0, 0.0, 0.0, 0.0, 0.0, 0.0, 0.0, 0.0, 0.0, 0.0, 0.0, 0.0, 0.0, 0.0, 0.0, 0.0, 0.0, 0.0, 0.0, 0.0)",0.2199999988079071,0.0001572697074152,0.0,0.0,0.0,-0.0146067645400762,76.0,2.0,724000000.0,base_footprint,-0.001432033940366,0.0035889066130066,0.3687271649446435,0.9295296374295992,0.0,0.0,0.0,0.0,0.0,0.0,0.0,0.0,0.0,0.0001528025581858,2.5570246505792897e-05,-0.0148267285548247,0.0,0.0,0.0,0.0,0.0,0.0,0.0,0.0,0.0,0.0121922353450518,-0.0150063921953356,0.0001454313644788,0.0,0.0,0.0,0.0,0.0,0.0,0.0,0.0,0.0
2.79,0.00546828102485275,0.005140942843359753,-0.000534294116425138,0.21851611972391172,-0.015313699600338402,-0.19395113709094985,0.02954937711375915,0.005070177907401086,0.00521938790528433,-0.0005099461966912688,78.0,2.0,737000000.0,odom,base_footprint,-3.8511636044717945,-3.859753038461359,-0.0010030530484498,-0.0014322837261223,0.0035904022392471,0.3686284365101945,0.9295687889398708,"(1e-05, 0.0, 0.0, 0.0, 0.0, 0.0, 0.0, 1e-05, 0.0, 0.0, 0.0, 0.0, 0.0, 0.0, 1000000000000.0, 0.0, 0.0, 0.0, 0.0, 0.0, 0.0, 1000000000000.0, 0.0, 0.0, 0.0, 0.0, 0.0, 0.0, 1000000000000.0, 0.0, 0.0, 0.0, 0.0, 0.0, 0.0, 0.001)",0.220601430761865,3.0482796029795978e-05,0.0,0.0,0.0,-0.0153243467483227,"(0.0, 0.0, 0.0, 0.0, 0.0, 0.0, 0.0, 0.0, 0.0, 0.0, 0.0, 0.0, 0.0, 0.0, 0.0, 0.0, 0.0, 0.0, 0.0, 0.0, 0.0, 0.0, 0.0, 0.0, 0.0, 0.0, 0.0, 0.0, 0.0, 0.0, 0.0, 0.0, 0.0, 0.0, 0.0, 0.0)",0.2199999988079071,3.04827954096254e-05,0.0,0.0,0.0,0.0257013030350208,77.0,2.0,758000000.0,base_footprint,-0.0014329617309249,0.0035930116452228,0.3684847045323735,0.9296257630970028,0.0,0.0,0.0,0.0,0.0,0.0,0.0,0.0,0.0,-0.0001767883214729,-6.419531858464379e-05,-0.0155738956369809,0.0,0.0,0.0,0.0,0.0,0.0,0.0,0.0,0.0,0.0028239780463425,0.0053346000265394,-0.0006659579798778,0.0,0.0,0.0,0.0,0.0,0.0,0.0,0.0,0.0
2.824,0.005467538959677221,0.005134949512031195,0.0002230891093655263,0.21862371694215316,-0.0155636097676245,0.0032311476949381302,-0.007504809828411326,0.005075358434114975,0.00521934933873089,-0.0005182682052618959,79.0,2.0,770000000.0,odom,base_footprint,-3.845859646374307,-3.8547633230531777,-0.0010037001022678,-0.0014336064954709,0.0035950788913692,0.3683900343641167,0.929663273858544,"(1e-05, 0.0, 0.0, 0.0, 0.0, 0.0, 0.0, 1e-05, 0.0, 0.0, 0.0, 0.0, 0.0, 0.0, 1000000000000.0, 0.0, 0.0, 0.0, 0.0, 0.0, 0.0, 1000000000000.0, 0.0, 0.0, 0.0, 0.0, 0.0, 0.0, 1000000000000.0, 0.0, 0.0, 0.0, 0.0, 0.0, 0.0, 0.001)",0.2207598089359684,1.5462945456720667e-05,0.0,0.0,0.0,-0.015736416748501,"(0.0, 0.0, 0.0, 0.0, 0.0, 0.0, 0.0, 0.0, 0.0, 0.0, 0.0, 0.0, 0.0, 0.0, 0.0, 0.0, 0.0, 0.0, 0.0, 0.0, 0.0, 0.0, 0.0, 0.0, 0.0, 0.0, 0.0, 0.0, 0.0, 0.0, 0.0, 0.0, 0.0, 0.0, 0.0, 0.0)",0.2199999988079071,3.04827954096254e-05,0.0,0.0,0.0,0.0257013030350208,78.0,2.0,792000000.0,base_footprint,-0.0014339912791992,0.0035979699727804,0.3682360864262327,0.9297242510199346,0.0,0.0,0.0,0.0,0.0,0.0,0.0,0.0,0.0,-0.0001206047382882,-5.692156916982793e-05,-0.015850528190364,0.0,0.0,0.0,0.0,0.0,0.0,0.0,0.0,0.0,0.0044859324725709,0.0030279844639603,-0.0001611011053321,0.0,0.0,0.0,0.0,0.0,0.0,0.0,0.0,0.0
2.858,0.005459645421602044,0.005132213536907848,0.0008242288643883766,0.22516547898274547,0.023970411142264662,0.1964493105282977,1.1872078351318065,0.0052264731434073525,0.005376256709495712,0.0007982146910374134,81.0,2.0,837000000.0,odom,base_footprint,-3.835086315832508,-3.844641907381438,-0.0010045329568069,-0.0014368829421267,0.0036006136500367,0.3685110849865445,0.9296152705236684,"(1e-05, 0.0, 0.0, 0.0, 0.0, 0.0, 0.0, 1e-05, 0.0, 0.0, 0.0, 0.0, 0.0, 0.0, 1000000000000.0, 0.0, 0.0, 0.0, 0.0, 0.0, 0.0, 1000000000000.0, 0.0, 0.0, 0.0, 0.0, 0.0, 0.0, 1000000000000.0, 0.0, 0.0, 0.0, 0.0, 0.0, 0.0, 0.001)",0.2204217318814278,-7.535302198671823e-05,0.0,0.0,0.0,0.0245781813223297,"(0.0, 0.0, 0.0, 0.0, 0.0, 0.0, 0.0, 0.0, 0.0, 0.0, 0.0, 0.0, 0.0, 0.0, 0.0, 0.0, 0.0, 0.0, 0.0, 0.0, 0.0, 0.0, 0.0, 0.0, 0.0, 0.0, 0.0, 0.0, 0.0, 0.0, 0.0, 0.0, 0.0, 0.0, 0.0, 0.0)",0.2199999988079071,3.04827954096254e-05,0.0,0.0,0.0,0.0257013030350208,79.0,2.0,826000000.0,base_footprint,-0.0014356783785527,0.0035999594383924,0.3683761729649494,0.929668744398419,0.0,0.0,0.0,0.0,0.0,0.0,0.0,0.0,0.0,0.0002040287634515,0.000213738728953,0.0233267116722671,0.0,0.0,0.0,0.0,0.0,0.0,0.0,0.0,0.0,-0.0008792926791748,-0.0086632013035619,0.0002547711537059,0.0,0.0,0.0,0.0,0.0,0.0,0.0,0.0,0.0
2.892,0.00544755857738588,0.005125209707157907,0.0007810374011817389,0.21833841168302884,0.024297616557662233,-0.2050170360275265,0.009825988450377509,0.005063813985470357,0.005217318691613423,0.0008091106313701525,81.0,2.0,837000000.0,odom,base_footprint,-3.835086315832508,-3.844641907381438,-0.0010045329568069,-0.0014368829421267,0.0036006136500367,0.3685110849865445,0.9296152705236684,"(1e-05, 0.0, 0.0, 0.0, 0.0, 0.0, 0.0, 1e-05, 0.0, 0.0, 0.0, 0.0, 0.0, 0.0, 1000000000000.0, 0.0, 0.0, 0.0, 0.0, 0.0, 0.0, 1000000000000.0, 0.0, 0.0, 0.0, 0.0, 0.0, 0.0, 1000000000000.0, 0.0, 0.0, 0.0, 0.0, 0.0, 0.0, 0.001)",0.2204217318814278,-7.535302198671823e-05,0.0,0.0,0.0,0.0245781813223297,"(0.0, 0.0, 0.0, 0.0, 0.0, 0.0, 0.0, 0.0, 0.0, 0.0, 0.0, 0.0, 0.0, 0.0, 0.0, 0.0, 0.0, 0.0, 0.0, 0.0, 0.0, 0.0, 0.0, 0.0, 0.0, 0.0, 0.0, 0.0, 0.0, 0.0, 0.0, 0.0, 0.0, 0.0, 0.0, 0.0)",0.2199999988079071,0.0,0.0,0.0,0.0,0.0327833108603954,80.0,2.0,860000000.0,base_footprint,-0.0014378399604636,0.0036001857330324,0.368760169376252,0.9295164919249866,0.0,0.0,0.0,0.0,0.0,0.0,0.0,0.0,0.0,0.0003786076617534,0.0001120563960853,0.0242489001573967,0.0,0.0,0.0,0.0,0.0,0.0,0.0,0.0,0.0,-0.0037063147743581,-0.0075060328697356,0.0003624602572802,0.0,0.0,0.0,0.0,0.0,0.0,0.0,0.0,0.0
2.926,0.005391958765963878,0.005088068427867576,0.0005781902383026338,0.21808867716920885,0.024788959248677796,-0.007499534949549189,0.014755035766233122,0.00505376112995447,0.005215483277031981,0.0008254723429809707,83.0,2.0,903000000.0,odom,base_footprint,-3.82451550651397,-3.8346966177656014,-0.0010033326129446,-0.001436444804186,0.0035912676459133,0.3691870129365239,0.92934707666298,"(1e-05, 0.0, 0.0, 0.0, 0.0, 0.0, 0.0, 1e-05, 0.0, 0.0, 0.0, 0.0, 0.0, 0.0, 1000000000000.0, 0.0, 0.0, 0.0, 0.0, 0.0, 0.0, 1000000000000.0, 0.0, 0.0, 0.0, 0.0, 0.0, 0.0, 1000000000000.0, 0.0, 0.0, 0.0, 0.0, 0.0, 0.0, 0.001)",0.2184651010386364,-7.206816385946224e-05,0.0,0.0,0.0,0.0121938556558395,"(0.0, 0.0, 0.0, 0.0, 0.0, 0.0, 0.0, 0.0, 0.0, 0.0, 0.0, 0.0, 0.0, 0.0, 0.0, 0.0, 0.0, 0.0, 0.0, 0.0, 0.0, 0.0, 0.0, 0.0, 0.0, 0.0, 0.0, 0.0, 0.0, 0.0, 0.0, 0.0, 0.0, 0.0, 0.0, 0.0)",0.2199999988079071,0.0,0.0,0.0,0.0,0.0327833108603954,81.0,2.0,894000000.0,base_footprint,-0.0014374369541949,0.003593713102614,0.3691177500228332,0.929374577669962,0.0,0.0,0.0,0.0,0.0,0.0,0.0,0.0,0.0,0.0007815182396352,4.87773938993713e-05,0.018175764244751,0.0,0.0,0.0,0.0,0.0,0.0,0.0,0.0,0.0,-0.004294081607839,-0.026673846367371,0.0010557548499129,0.0,0.0,0.0,0.0,0.0,0.0,0.0,0.0,0.0
2.96,0.005391102792027258,0.00509764635467036,0.001152522250690735,0.22433819323979376,0.03267147900978842,0.18767315527282008,0.23671230513845723,0.005193445732674975,0.00536990837384218,0.0010879602510259546,84.0,2.0,937000000.0,odom,base_footprint,-3.819141823964981,-3.829620019557894,-0.0010038832333779,-0.0014391715584656,0.003594462341857,0.3695545557778181,0.9292009679986122,"(1e-05, 0.0, 0.0, 0.0, 0.0, 0.0, 0.0, 1e-05, 0.0, 0.0, 0.0, 0.0, 0.0, 0.0, 1000000000000.0, 0.0, 0.0, 0.0, 0.0, 0.0, 0.0, 1000000000000.0, 0.0, 0.0, 0.0, 0.0, 0.0, 0.0, 1000000000000.0, 0.0, 0.0, 0.0, 0.0, 0.0, 0.0, 0.001)",0.2175414328038359,2.775889962791656e-05,0.0,0.0,0.0,0.034311694828793,"(0.0, 0.0, 0.0, 0.0, 0.0, 0.0, 0.0, 0.0, 0.0, 0.0, 0.0, 0.0, 0.0, 0.0, 0.0, 0.0, 0.0, 0.0, 0.0, 0.0, 0.0, 0.0, 0.0, 0.0, 0.0, 0.0, 0.0, 0.0, 0.0, 0.0, 0.0, 0.0, 0.0, 0.0, 0.0, 0.0)",0.2199999988079071,0.0,0.0,0.0,0.0,0.0327833108603954,82.0,2.0,928000000.0,base_footprint,-0.0014364548926648,0.0035930279311675,0.369398299855341,0.9292631074198582,0.0,0.0,0.0,0.0,0.0,0.0,0.0,0.0,0.0,-0.0001311480953306,-0.0002927418810392,0.0314030325983883,0.0,0.0,0.0,0.0,0.0,0.0,0.0,0.0,0.0,-0.0167047638748695,-0.0685452596232732,-0.0011659889119916,0.0,0.0,0.0,0.0,0.0,0.0,0.0,0.0,0.0
2.994,0.00540574451878717,0.005124181493859403,0.001136113158716645,0.21736531703383508,0.03272438964007095,-0.2093956818606211,0.0015889078162920074,0.005026354909328057,0.005208476953918605,0.0010897221750143626,84.0,2.0,937000000.0,odom,base_footprint,-3.819141823964981,-3.829620019557894,-0.0010038832333779,-0.0014391715584656,0.003594462341857,0.3695545557778181,0.9292009679986122,"(1e-05, 0.0, 0.0, 0.0, 0.0, 0.0, 0.0, 1e-05, 0.0, 0.0, 0.0, 0.0, 0.0, 0.0, 1000000000000.0, 0.0, 0.0, 0.0, 0.0, 0.0, 0.0, 1000000000000.0, 0.0, 0.0, 0.0, 0.0, 0.0, 0.0, 1000000000000.0, 0.0, 0.0, 0.0, 0.0, 0.0, 0.0, 0.001)",0.2175414328038359,2.775889962791656e-05,0.0,0.0,0.0,0.034311694828793,"(0.0, 0.0, 0.0, 0.0, 0.0, 0.0, 0.0, 0.0, 0.0, 0.0, 0.0, 0.0, 0.0, 0.0, 0.0, 0.0, 0.0, 0.0, 0.0, 0.0, 0.0, 0.0, 0.0, 0.0, 0.0, 0.0, 0.0, 0.0, 0.0, 0.0, 0.0, 0.0, 0.0, 0.0, 0.0, 0.0)",0.2084210515022277,2.7758898795582357e-05,0.0,0.0,0.0,0.0261065680533647,83.0,2.0,962000000.0,base_footprint,-0.0014432405537311,0.0035981509785761,0.3699326053079091,0.9290505034153644,0.0,0.0,0.0,0.0,0.0,0.0,0.0,0.0,0.0,0.0007576873806309,-6.947919511977315e-06,0.0301593135490394,0.0,0.0,0.0,0.0,0.0,0.0,0.0,0.0,0.0,-0.0066993214296067,0.0706685376257246,0.0011285200537239,0.0,0.0,0.0,0.0,0.0,0.0,0.0,0.0,0.0
3.028,0.0052410950689187885,0.004977812647305679,0.0009755583977213434,0.2173664956731104,0.033496269482942195,3.5394572832363195e-05,0.02317957486099844,0.0050206363360004395,0.0052140439751191155,0.0011154257737819753,86.0,3.0,3000000.0,odom,base_footprint,-3.808650539129769,-3.819680139716085,-0.0010038241472062,-0.0014436530393605,0.0035919137426345,0.3705901440287819,0.9287884361738652,"(1e-05, 0.0, 0.0, 0.0, 0.0, 0.0, 0.0, 1e-05, 0.0, 0.0, 0.0, 0.0, 0.0, 0.0, 1000000000000.0, 0.0, 0.0, 0.0, 0.0, 0.0, 0.0, 1000000000000.0, 0.0, 0.0, 0.0, 0.0, 0.0, 0.0, 1000000000000.0, 0.0, 0.0, 0.0, 0.0, 0.0, 0.0, 0.001)",0.2190767169080375,3.5553479305561186e-05,0.0,0.0,0.0,0.03400751463279,"(0.0, 0.0, 0.0, 0.0, 0.0, 0.0, 0.0, 0.0, 0.0, 0.0, 0.0, 0.0, 0.0, 0.0, 0.0, 0.0, 0.0, 0.0, 0.0, 0.0, 0.0, 0.0, 0.0, 0.0, 0.0, 0.0, 0.0, 0.0, 0.0, 0.0, 0.0, 0.0, 0.0, 0.0, 0.0, 0.0)",0.2084210515022277,2.7758898795582357e-05,0.0,0.0,0.0,0.0261065680533647,84.0,2.0,996000000.0,base_footprint,-0.0014434004736117,0.0035927989431983,0.3704639071964085,0.9288387921784907,0.0,0.0,0.0,0.0,0.0,0.0,0.0,0.0,0.0,0.0004973644854026,0.0001682557081498,0.0339303058712361,0.0,0.0,0.0,0.0,0.0,0.0,0.0,0.0,0.0,-0.0031897402346198,-0.0089645106732189,-0.0004705848660477,0.0,0.0,0.0,0.0,0.0,0.0,0.0,0.0,0.0
3.062,0.004902740555765117,0.004661791529804837,0.000553805469377333,0.18960338941981164,0.0011537179895981897,-0.833726914513476,-0.971247792592913,0.004376751847911032,0.004550606952147769,3.8418809053619723e-05,86.0,3.0,3000000.0,odom,base_footprint,-3.808650539129769,-3.819680139716085,-0.0010038241472062,-0.0014436530393605,0.0035919137426345,0.3705901440287819,0.9287884361738652,"(1e-05, 0.0, 0.0, 0.0, 0.0, 0.0, 0.0, 1e-05, 0.0, 0.0, 0.0, 0.0, 0.0, 0.0, 1000000000000.0, 0.0, 0.0, 0.0, 0.0, 0.0, 0.0, 1000000000000.0, 0.0, 0.0, 0.0, 0.0, 0.0, 0.0, 1000000000000.0, 0.0, 0.0, 0.0, 0.0, 0.0, 0.0, 0.001)",0.2190767169080375,3.5553479305561186e-05,0.0,0.0,0.0,0.03400751463279,"(0.0, 0.0, 0.0, 0.0, 0.0, 0.0, 0.0, 0.0, 0.0, 0.0, 0.0, 0.0, 0.0, 0.0, 0.0, 0.0, 0.0, 0.0, 0.0, 0.0, 0.0, 0.0, 0.0, 0.0, 0.0, 0.0, 0.0, 0.0, 0.0, 0.0, 0.0, 0.0, 0.0, 0.0, 0.0, 0.0)",0.2084210515022277,2.7758898795582357e-05,0.0,0.0,0.0,0.0261065680533647,85.0,3.0,30000000.0,base_footprint,-0.0014448263058797,0.0035927899886714,0.3709032314903764,0.9286634466840178,0.0,0.0,0.0,0.0,0.0,0.0,0.0,0.0,0.0,0.0001563139257593,5.672459712135277e-05,0.0189014843135545,0.0,0.0,0.0,0.0,0.0,0.0,0.0,0.0,0.0,-0.0347008387304583,-0.5747599400396277,0.0030677423091179,0.0,0.0,0.0,0.0,0.0,0.0,0.0,0.0,0.0
3.096,0.005116694176523051,0.004873494089928876,0.0009068981031362665,0.20630485629772513,0.027086396185731356,0.501545551889294,0.7787591049889839,0.00475995500859922,0.004953691722227497,0.0009019769929848543,88.0,3.0,70000000.0,odom,base_footprint,-3.798742443103177,-3.8102603677788256,-0.0010032618057805,-0.0014449542097011,0.003587869519021,0.3712483633568381,0.9285255473084818,"(1e-05, 0.0, 0.0, 0.0, 0.0, 0.0, 0.0, 1e-05, 0.0, 0.0, 0.0, 0.0, 0.0, 0.0, 1000000000000.0, 0.0, 0.0, 0.0, 0.0, 0.0, 0.0, 1000000000000.0, 0.0, 0.0, 0.0, 0.0, 0.0, 0.0, 1000000000000.0, 0.0, 0.0, 0.0, 0.0, 0.0, 0.0, 0.001)",0.2080121694452654,6.999804016261102e-05,0.0,0.0,0.0,0.0269576712931854,"(0.0, 0.0, 0.0, 0.0, 0.0, 0.0, 0.0, 0.0, 0.0, 0.0, 0.0, 0.0, 0.0, 0.0, 0.0, 0.0, 0.0, 0.0, 0.0, 0.0, 0.0, 0.0, 0.0, 0.0, 0.0, 0.0, 0.0, 0.0, 0.0, 0.0, 0.0, 0.0, 0.0, 0.0, 0.0, 0.0)",0.2199999988079071,3.555347939254716e-05,0.0,0.0,0.0,0.0422126315534114,86.0,3.0,64000000.0,base_footprint,-0.0014416101331986,0.0035782333372325,0.3711632510300818,0.9285596152596712,0.0,0.0,0.0,0.0,0.0,0.0,0.0,0.0,0.0,-0.0029749504927401,-0.0005505194850257,0.0230962731653996,0.0,0.0,0.0,0.0,0.0,0.0,0.0,0.0,0.0,0.0077885864554801,0.2241501933524215,-0.007140187016465,0.0,0.0,0.0,0.0,0.0,0.0,0.0,0.0,0.0
3.13,0.005269667951433021,0.005028130458754276,0.0010525235543613622,0.20627058934363396,0.026932395117228253,-0.0010290376603955614,-0.0046246567118049045,0.004754707789995867,0.004957147372574039,0.0008968487574037008,89.0,3.0,103000000.0,odom,base_footprint,-3.793774768040912,-3.805526957563852,-0.0010026213107959,-0.0014434894564972,0.0035822610687559,0.3716640311195139,0.9283592686647864,"(1e-05, 0.0, 0.0, 0.0, 0.0, 0.0, 0.0, 1e-05, 0.0, 0.0, 0.0, 0.0, 0.0, 0.0, 1000000000000.0, 0.0, 0.0, 0.0, 0.0, 0.0, 0.0, 1000000000000.0, 0.0, 0.0, 0.0, 0.0, 0.0, 0.0, 1000000000000.0, 0.0, 0.0, 0.0, 0.0, 0.0, 0.0, 0.001)",0.2080062344914562,1.847371810682896e-05,0.0,0.0,0.0,0.0270140506160167,"(0.0, 0.0, 0.0, 0.0, 0.0, 0.0, 0.0, 0.0, 0.0, 0.0, 0.0, 0.0, 0.0, 0.0, 0.0, 0.0, 0.0, 0.0, 0.0, 0.0, 0.0, 0.0, 0.0, 0.0, 0.0, 0.0, 0.0, 0.0, 0.0, 0.0, 0.0, 0.0, 0.0, 0.0, 0.0, 0.0)",0.2199999988079071,3.555347939254716e-05,0.0,0.0,0.0,0.0422126315534114,87.0,3.0,98000000.0,base_footprint,-0.0014434136547673,0.0035826234759923,0.3715887433595048,0.9283894049236852,0.0,0.0,0.0,0.0,0.0,0.0,0.0,0.0,0.0,0.0003660459343511,0.0002102657552173,0.0270814501479804,0.0,0.0,0.0,0.0,0.0,0.0,0.0,0.0,0.0,-0.0043051112308682,0.025668512127921,0.0061347590186035,0.0,0.0,0.0,0.0,0.0,0.0,0.0,0.0,0.0
3.164,0.005399046849955624,0.0051644942787572035,0.0014405524196251516,0.22467862009840572,0.04331195744394827,0.5527937163595124,0.4918787485501507,0.005172709192758191,0.005405587105363701,0.0014422881828834776,90.0,3.0,137000000.0,odom,base_footprint,-3.788437722651514,-3.800432014879666,-0.0010024905178546,-0.0014447598721365,0.0035807389718058,0.3722073354732634,0.9281415788537982,"(1e-05, 0.0, 0.0, 0.0, 0.0, 0.0, 0.0, 1e-05, 0.0, 0.0, 0.0, 0.0, 0.0, 0.0, 1000000000000.0, 0.0, 0.0, 0.0, 0.0, 0.0, 0.0, 1000000000000.0, 0.0, 0.0, 0.0, 0.0, 0.0, 0.0, 1000000000000.0, 0.0, 0.0, 0.0, 0.0, 0.0, 0.0, 0.001)",0.219834874682703,-1.650661644869711e-06,0.0,0.0,0.0,0.0418702146640322,"(0.0, 0.0, 0.0, 0.0, 0.0, 0.0, 0.0, 0.0, 0.0, 0.0, 0.0, 0.0, 0.0, 0.0, 0.0, 0.0, 0.0, 0.0, 0.0, 0.0, 0.0, 0.0, 0.0, 0.0, 0.0, 0.0, 0.0, 0.0, 0.0, 0.0, 0.0, 0.0, 0.0, 0.0, 0.0, 0.0)",0.2199999988079071,3.555347939254716e-05,0.0,0.0,0.0,0.0422126315534114,88.0,3.0,132000000.0,base_footprint,-0.0014445567698293,0.0035810884605881,0.3720908646246407,0.9281882769805184,0.0,0.0,0.0,0.0,0.0,0.0,0.0,0.0,0.0,0.0010540955424531,0.0003325969706341,0.0417488453571447,0.0,0.0,0.0,0.0,0.0,0.0,0.0,0.0,0.0,0.0094549457885572,0.349945777563511,-0.0012574836941533,0.0,0.0,0.0,0.0,0.0,0.0,0.0,0.0,0.0
3.198,0.005394766980082011,0.005175269263089977,0.001436090565594683,0.2181093198392238,0.04217345006185135,-0.19727628405951728,-0.03418941087378139,0.005013992096403535,0.00525467693795346,0.0014043758870596502,91.0,3.0,170000000.0,odom,base_footprint,-3.7831993625896194,-3.7954180104739663,-0.0010025561202987,-0.0014472050571519,0.0035803529889963,0.3728582822726572,0.9278802659883872,"(1e-05, 0.0, 0.0, 0.0, 0.0, 0.0, 0.0, 1e-05, 0.0, 0.0, 0.0, 0.0, 0.0, 0.0, 1000000000000.0, 0.0, 0.0, 0.0, 0.0, 0.0, 0.0, 1000000000000.0, 0.0, 0.0, 0.0, 0.0, 0.0, 0.0, 1000000000000.0, 0.0, 0.0, 0.0, 0.0, 0.0, 0.0, 0.001)",0.2198267515891042,7.374955476591172e-06,0.0,0.0,0.0,0.0423710806785508,"(0.0, 0.0, 0.0, 0.0, 0.0, 0.0, 0.0, 0.0, 0.0, 0.0, 0.0, 0.0, 0.0, 0.0, 0.0, 0.0, 0.0, 0.0, 0.0, 0.0, 0.0, 0.0, 0.0, 0.0, 0.0, 0.0, 0.0, 0.0, 0.0, 0.0, 0.0, 0.0, 0.0, 0.0, 0.0, 0.0)",0.2084210515022277,0.0,0.0,0.0,0.0,-0.0483861900866031,89.0,3.0,166000000.0,base_footprint,-0.0014467832480319,0.0035803161794181,0.3727599636055346,0.9279197689924972,0.0,0.0,0.0,0.0,0.0,0.0,0.0,0.0,0.0,0.0003643444542849,0.0002793800158783,0.0424271169206888,0.0,0.0,0.0,0.0,0.0,0.0,0.0,0.0,0.0,-0.0091862081218533,-0.0017875572717975,-0.0008371439823413,0.0,0.0,0.0,0.0,0.0,0.0,0.0,0.0,0.0
3.232,0.005239859074932962,0.005037736582961916,-4.429980746922802e-05,0.21828046010237465,0.041833170691780656,0.005139347241767222,-0.010218599701822678,0.005010565906419816,0.005265813524604776,0.001393044584036296,91.0,3.0,170000000.0,odom,base_footprint,-3.7831993625896194,-3.7954180104739663,-0.0010025561202987,-0.0014472050571519,0.0035803529889963,0.3728582822726572,0.9278802659883872,"(1e-05, 0.0, 0.0, 0.0, 0.0, 0.0, 0.0, 1e-05, 0.0, 0.0, 0.0, 0.0, 0.0, 0.0, 1000000000000.0, 0.0, 0.0, 0.0, 0.0, 0.0, 0.0, 1000000000000.0, 0.0, 0.0, 0.0, 0.0, 0.0, 0.0, 1000000000000.0, 0.0, 0.0, 0.0, 0.0, 0.0, 0.0, 0.001)",0.2198267515891042,7.374955476591172e-06,0.0,0.0,0.0,0.0423710806785508,"(0.0, 0.0, 0.0, 0.0, 0.0, 0.0, 0.0, 0.0, 0.0, 0.0, 0.0, 0.0, 0.0, 0.0, 0.0, 0.0, 0.0, 0.0, 0.0, 0.0, 0.0, 0.0, 0.0, 0.0, 0.0, 0.0, 0.0, 0.0, 0.0, 0.0, 0.0, 0.0, 0.0, 0.0, 0.0, 0.0)",0.2084210515022277,0.0,0.0,0.0,0.0,-0.0483861900866031,90.0,3.0,200000000.0,base_footprint,-0.0014499502456475,0.0035811446329448,0.3734257834915365,0.9276520130259706,0.0,0.0,0.0,0.0,0.0,0.0,0.0,0.0,0.0,0.0002820076596264,0.0002728456882785,0.0420299311627298,0.0,0.0,0.0,0.0,0.0,0.0,0.0,0.0,0.0,-0.0089124096237907,0.0060439907145451,-0.0001686731983159,0.0,0.0,0.0,0.0,0.0,0.0,0.0,0.0,0.0
3.266,0.005138944964845127,0.004929060253040962,-0.0016739573139281652,0.21329933409349552,-0.051933508287180616,-0.14958336363000366,-2.815816185554392,0.004897090638348438,0.0051448247831951035,-0.0017293858259631147,93.0,3.0,237000000.0,odom,base_footprint,-3.7727698213174574,-3.785399302332308,-0.0010033877745912,-0.0014511478501964,0.0035852775666131,0.3732298072786327,0.9277308612488008,"(1e-05, 0.0, 0.0, 0.0, 0.0, 0.0, 0.0, 1e-05, 0.0, 0.0, 0.0, 0.0, 0.0, 0.0, 1000000000000.0, 0.0, 0.0, 0.0, 0.0, 0.0, 0.0, 1000000000000.0, 0.0, 0.0, 0.0, 0.0, 0.0, 0.0, 1000000000000.0, 0.0, 0.0, 0.0, 0.0, 0.0, 0.0, 0.001)",0.2093600428214602,4.384586948644187e-05,0.0,0.0,0.0,-0.0490920314027879,"(0.0, 0.0, 0.0, 0.0, 0.0, 0.0, 0.0, 0.0, 0.0, 0.0, 0.0, 0.0, 0.0, 0.0, 0.0, 0.0, 0.0, 0.0, 0.0, 0.0, 0.0, 0.0, 0.0, 0.0, 0.0, 0.0, 0.0, 0.0, 0.0, 0.0, 0.0, 0.0, 0.0, 0.0, 0.0, 0.0)",0.2084210515022277,0.0,0.0,0.0,0.0,-0.0483861900866031,91.0,3.0,234000000.0,base_footprint,-0.0014515453904911,0.0035852178592587,0.3733208449603845,0.9276942308470748,0.0,0.0,0.0,0.0,0.0,0.0,0.0,0.0,0.0,0.0007054012726046,-0.0003108334085073,-0.0489575384025471,0.0,0.0,0.0,0.0,0.0,0.0,0.0,0.0,0.0,-0.0128715238963403,-0.3120563276265498,0.0027577821155123,0.0,0.0,0.0,0.0,0.0,0.0,0.0,0.0,0.0
3.3,0.005150020299997671,0.004921630037382663,-0.0016892312114354935,0.20710641694493284,-0.04878908451691502,-0.18597348794482527,0.09442714024821605,0.004763279774848745,0.004987469241200276,-0.0016246765144132703,94.0,3.0,270000000.0,odom,base_footprint,-3.767779943179632,-3.7806161264974594,-0.0010040412174063,-0.0014507030820616,0.0035910343995021,0.3724748367799716,0.9280342105214888,"(1e-05, 0.0, 0.0, 0.0, 0.0, 0.0, 0.0, 1e-05, 0.0, 0.0, 0.0, 0.0, 0.0, 0.0, 1000000000000.0, 0.0, 0.0, 0.0, 0.0, 0.0, 0.0, 1000000000000.0, 0.0, 0.0, 0.0, 0.0, 0.0, 0.0, 1000000000000.0, 0.0, 0.0, 0.0, 0.0, 0.0, 0.0, 0.001)",0.2095237123815423,1.2560796236724124e-05,0.0,0.0,0.0,-0.0495213535574841,"(0.0, 0.0, 0.0, 0.0, 0.0, 0.0, 0.0, 0.0, 0.0, 0.0, 0.0, 0.0, 0.0, 0.0, 0.0, 0.0, 0.0, 0.0, 0.0, 0.0, 0.0, 0.0, 0.0, 0.0, 0.0, 0.0, 0.0, 0.0, 0.0, 0.0, 0.0, 0.0, 0.0, 0.0, 0.0, 0.0)",0.2199999988079071,4.3845870095537975e-05,0.0,0.0,0.0,-0.0901176780462265,92.0,3.0,268000000.0,base_footprint,-0.0014508544999075,0.003590636326871,0.3725437516655745,0.9280065492478634,0.0,0.0,0.0,0.0,0.0,0.0,0.0,0.0,0.0,-0.000400421562423,-0.0002751685005769,-0.0494803337142344,0.0,0.0,0.0,0.0,0.0,0.0,0.0,0.0,0.0,0.0117955361808533,0.0037943410254774,-0.0016853784237728,0.0,0.0,0.0,0.0,0.0,0.0,0.0,0.0,0.0
3.334,0.005270126885696058,0.0050195934612675686,-0.0021680940606052523,0.2071532601838482,-0.04916843280825303,0.0014067038713318492,-0.011391840580721044,0.004772487148271324,0.004980820033005963,-0.0016373088125148261,95.0,3.0,303000000.0,odom,base_footprint,-3.76278030602776,-3.775840454296066,-0.0010043760565163,-0.0014484618376382,0.0035947264226254,0.3717129414166208,0.9283396302451252,"(1e-05, 0.0, 0.0, 0.0, 0.0, 0.0, 0.0, 1e-05, 0.0, 0.0, 0.0, 0.0, 0.0, 0.0, 1000000000000.0, 0.0, 0.0, 0.0, 0.0, 0.0, 0.0, 1000000000000.0, 0.0, 0.0, 0.0, 0.0, 0.0, 0.0, 1000000000000.0, 0.0, 0.0, 0.0, 0.0, 0.0, 0.0, 0.001)",0.2094992536115536,2.379990074324878e-07,0.0,0.0,0.0,-0.0499909662279549,"(0.0, 0.0, 0.0, 0.0, 0.0, 0.0, 0.0, 0.0, 0.0, 0.0, 0.0, 0.0, 0.0, 0.0, 0.0, 0.0, 0.0, 0.0, 0.0, 0.0, 0.0, 0.0, 0.0, 0.0, 0.0, 0.0, 0.0, 0.0, 0.0, 0.0, 0.0, 0.0, 0.0, 0.0, 0.0, 0.0)",0.2199999988079071,4.3845870095537975e-05,0.0,0.0,0.0,-0.0901176780462265,93.0,3.0,302000000.0,base_footprint,-0.0014485784309397,0.0035945108486216,0.3717593435082917,0.9283210498672174,0.0,0.0,0.0,0.0,0.0,0.0,0.0,0.0,0.0,-0.0003132285826504,-0.000257824473717,-0.0499770684477165,0.0,0.0,0.0,0.0,0.0,0.0,0.0,0.0,0.0,0.0109030587626704,-0.0008034750918442,9.764357052049637e-05,0.0,0.0,0.0,0.0,0.0,0.0,0.0,0.0,0.0
3.368,0.005455901648154349,0.005164403274214191,-0.0031157915999263652,0.22461930804505417,-0.09201351793184696,0.5245059417779573,-1.2866391929007186,0.005187557310215686,0.005388595073217684,-0.003064050147130504,96.0,3.0,337000000.0,odom,base_footprint,-3.757480605861921,-3.770795305599613,-0.0010033544146412,-0.0014420014714795,0.0035881284384829,0.3706462201873072,0.92876607680671,"(1e-05, 0.0, 0.0, 0.0, 0.0, 0.0, 0.0, 1e-05, 0.0, 0.0, 0.0, 0.0, 0.0, 0.0, 1000000000000.0, 0.0, 0.0, 0.0, 0.0, 0.0, 0.0, 1000000000000.0, 0.0, 0.0, 0.0, 0.0, 0.0, 0.0, 1000000000000.0, 0.0, 0.0, 0.0, 0.0, 0.0, 0.0, 0.001)",0.2195885275339356,4.555238096462522e-06,0.0,0.0,0.0,-0.0837545922618148,"(0.0, 0.0, 0.0, 0.0, 0.0, 0.0, 0.0, 0.0, 0.0, 0.0, 0.0, 0.0, 0.0, 0.0, 0.0, 0.0, 0.0, 0.0, 0.0, 0.0, 0.0, 0.0, 0.0, 0.0, 0.0, 0.0, 0.0, 0.0, 0.0, 0.0, 0.0, 0.0, 0.0, 0.0, 0.0, 0.0)",0.2199999988079071,4.3845870095537975e-05,0.0,0.0,0.0,-0.0901176780462265,94.0,3.0,336000000.0,base_footprint,-0.0014420979956176,0.0035884327315948,0.3707235754895053,0.9287352012711584,0.0,0.0,0.0,0.0,0.0,0.0,0.0,0.0,0.0,-0.0002268314005514,-0.0004873754729041,-0.08190153445268,0.0,0.0,0.0,0.0,0.0,0.0,0.0,0.0,0.0,0.0279173289668788,0.282722068254814,-0.0007142889012788,0.0,0.0,0.0,0.0,0.0,0.0,0.0,0.0,0.0
3.402,0.005447180111210592,0.005124180435089443,-0.0033341815901130056,0.21810318102370566,-0.0901224076255437,-0.19567949013058608,0.05679009928838624,0.005052912194990159,0.005216974648021853,-0.0030010761739306057,97.0,3.0,371000000.0,odom,base_footprint,-3.752177645361697,-3.765779859432544,-0.0010042604628218,-0.0014398935330744,0.0035972683973952,0.3692208612429397,0.9293336010226428,"(1e-05, 0.0, 0.0, 0.0, 0.0, 0.0, 0.0, 1e-05, 0.0, 0.0, 0.0, 0.0, 0.0, 0.0, 1000000000000.0, 0.0, 0.0, 0.0, 0.0, 0.0, 0.0, 1000000000000.0, 0.0, 0.0, 0.0, 0.0, 0.0, 0.0, 1000000000000.0, 0.0, 0.0, 0.0, 0.0, 0.0, 0.0, 0.001)",0.2211294909025611,-0.0002059825604627,0.0,0.0,0.0,-0.0940042613336279,"(0.0, 0.0, 0.0, 0.0, 0.0, 0.0, 0.0, 0.0, 0.0, 0.0, 0.0, 0.0, 0.0, 0.0, 0.0, 0.0, 0.0, 0.0, 0.0, 0.0, 0.0, 0.0, 0.0, 0.0, 0.0, 0.0, 0.0, 0.0, 0.0, 0.0, 0.0, 0.0, 0.0, 0.0, 0.0, 0.0)",0.2199999988079071,4.555238319881028e-06,0.0,0.0,0.0,0.0393223315477371,95.0,3.0,370000000.0,base_footprint,-0.0014400209699503,0.003597199991343,0.3692645363399299,0.9293162479444148,0.0,0.0,0.0,0.0,0.0,0.0,0.0,0.0,0.0,-0.0005548063722736,-0.0005700396915695,-0.0940183095144076,0.0,0.0,0.0,0.0,0.0,0.0,0.0,0.0,0.0,0.0300784286333343,0.0580951417552728,-0.0014240576643139,0.0,0.0,0.0,0.0,0.0,0.0,0.0,0.0,0.0
