Time,delta_position_x,delta_position_y,delta_yaw,linear_velocity_x,angular_velocity_yaw,linear_acceleration_x,angular_acceleration_yaw,kinematic_delta_x,kinematic_delta_y,kinematic_delta_yaw,header.seq_x,header.stamp.secs_x,header.stamp.nsecs_x,header.frame_id_x,child_frame_id,pose.pose.position.x,pose.pose.position.y,pose.pose.position.z,pose.pose.orientation.x,pose.pose.orientation.y,pose.pose.orientation.z,pose.pose.orientation.w,pose.covariance,twist.twist.linear.x,twist.twist.linear.y,twist.twist.linear.z,twist.twist.angular.x,twist.twist.angular.y,twist.twist.angular.z,twist.covariance,linear.x,linear.y,linear.z,angular.x,angular.y,angular.z,header.seq_y,header.stamp.secs_y,header.stamp.nsecs_y,header.frame_id_y,orientation.x,orientation.y,orientation.z,orientation.w,orientation_covariance_0,orientation_covariance_1,orientation_covariance_2,orientation_covariance_3,orientation_covariance_4,orientation_covariance_5,orientation_covariance_6,orientation_covariance_7,orientation_covariance_8,angular_velocity.x,angular_velocity.y,angular_velocity.z,angular_velocity_covariance_0,angular_velocity_covariance_1,angular_velocity_covariance_2,angular_velocity_covariance_3,angular_velocity_covariance_4,angular_velocity_covariance_5,angular_velocity_covariance_6,angular_velocity_covariance_7,angular_velocity_covariance_8,linear_acceleration.x,linear_acceleration.y,linear_acceleration.z,linear_acceleration_covariance_0,linear_acceleration_covariance_1,linear_acceleration_covariance_2,linear_acceleration_covariance_3,linear_acceleration_covariance_4,linear_acceleration_covariance_5,linear_acceleration_covariance_6,linear_acceleration_covariance_7,linear_acceleration_covariance_8
0.42100000000000004,-1.921401638124015e-07,-6.821073085540822e-07,-2.7898589647357137e-06,4.407929328609462e-05,-0.0004056380875627815,-0.0032508063042035905,-0.016933721813207594,1.467840466358153e-06,-1.3008028975292374e-11,-1.3507748315840626e-05,7.0,0.0,404000000.0,odom,base_footprint,1.0820039758068292e-05,1.9176857321287835e-06,-0.0010024691737758,0.0033406519422093,0.0019365571017334,-0.8660135872728946,0.5000055564190515,"(1e-05, 0.0, 0.0, 0.0, 0.0, 0.0, 0.0, 1e-05, 0.0, 0.0, 0.0, 0.0, 0.0, 0.0, 1000000000000.0, 0.0, 0.0, 0.0, 0.0, 0.0, 0.0, 1000000000000.0, 0.0, 0.0, 0.0, 0.0, 0.0, 0.0, 1000000000000.0, 0.0, 0.0, 0.0, 0.0, 0.0, 0.0, 0.001)",1.2407089520306794e-06,1.0130821146532488e-06,0.0,0.0,0.0,1.7478612059129824e-05,"(0.0, 0.0, 0.0, 0.0, 0.0, 0.0, 0.0, 0.0, 0.0, 0.0, 0.0, 0.0, 0.0, 0.0, 0.0, 0.0, 0.0, 0.0, 0.0, 0.0, 0.0, 0.0, 0.0, 0.0, 0.0, 0.0, 0.0, 0.0, 0.0, 0.0, 0.0, 0.0, 0.0, 0.0, 0.0, 0.0)",,,,,,,5,0,421000000,base_footprint,0.0033401260097947,0.0019362729157509,-0.8660132805538331,0.5000060922727066,0.0,0.0,0.0,0.0,0.0,0.0,0.0,0.0,0.0,0.0002465687778812,0.0001833955530342,0.0001681544316181,0.0,0.0,0.0,0.0,0.0,0.0,0.0,0.0,0.0,0.002948261160529,-0.0036507261259542,0.0043054511073119,0.0,0.0,0.0,0.0,0.0,0.0,0.0,0.0,0.0
0.455,4.774529617332536e-07,-1.944468101351337e-07,7.830568451883124e-06,-5.755891315513507e-06,2.700419769864861e-05,-0.0014965520901383822,0.012992260818661564,-1.9167118078454972e-07,2.906932042479353e-12,8.992397833649988e-07,8.0,0.0,437000000.0,odom,base_footprint,1.1097737584240056e-05,1.8004377150427492e-06,-0.0010023906303077,0.0033400307957464,0.0019362768877769,-0.8660124333443674,0.5000075602619075,"(1e-05, 0.0, 0.0, 0.0, 0.0, 0.0, 0.0, 1e-05, 0.0, 0.0, 0.0, 0.0, 0.0, 0.0, 1000000000000.0, 0.0, 0.0, 0.0, 0.0, 0.0, 0.0, 1000000000000.0, 0.0, 0.0, 0.0, 0.0, 0.0, 0.0, 1000000000000.0, 0.0, 0.0, 0.0, 0.0, 0.0, 0.0, 0.001)",-2.093710729734887e-06,1.656771332478682e-05,0.0,0.0,0.0,0.000253318125961,"(0.0, 0.0, 0.0, 0.0, 0.0, 0.0, 0.0, 0.0, 0.0, 0.0, 0.0, 0.0, 0.0, 0.0, 0.0, 0.0, 0.0, 0.0, 0.0, 0.0, 0.0, 0.0, 0.0, 0.0, 0.0, 0.0, 0.0, 0.0, 0.0, 0.0, 0.0, 0.0, 0.0, 0.0, 0.0, 0.0)",,,,,,,6,0,455000000,base_footprint,0.0033399505519107,0.0019362838474718,-0.8660113232124647,0.500009483513032,0.0,0.0,0.0,0.0,0.0,0.0,0.0,0.0,0.0,0.0001402210836814,0.0001156995088998,0.0002983146644302,0.0,0.0,0.0,0.0,0.0,0.0,0.0,0.0,0.0,-0.0001988887897988,-0.0001620229071107,-0.0001555910891249,0.0,0.0,0.0,0.0,0.0,0.0,0.0,0.0,0.0
0.48900000000000005,6.222996353079223e-07,-2.509226367055674e-07,1.0156310815467862e-05,-4.854616487639648e-06,0.000187293085464189,2.7065310146362127e-05,0.00481348011307929,-1.616587290272652e-07,1.874956348411751e-12,6.236859745957494e-06,9.0,0.0,471000000.0,odom,base_footprint,1.167252044402588e-05,1.5680044193160103e-06,-0.0010023765499162,0.0033398943083595,0.0019362968387333,-0.8660100851020245,0.5000116282269299,"(1e-05, 0.0, 0.0, 0.0, 0.0, 0.0, 0.0, 1e-05, 0.0, 0.0, 0.0, 0.0, 0.0, 0.0, 1000000000000.0, 0.0, 0.0, 0.0, 0.0, 0.0, 0.0, 1000000000000.0, 0.0, 0.0, 0.0, 0.0, 0.0, 0.0, 1000000000000.0, 0.0, 0.0, 0.0, 0.0, 0.0, 0.0, 0.001)",-2.7267063220125085e-06,2.084865833782971e-05,0.0,0.0,0.0,0.0003181364353708,"(0.0, 0.0, 0.0, 0.0, 0.0, 0.0, 0.0, 0.0, 0.0, 0.0, 0.0, 0.0, 0.0, 0.0, 0.0, 0.0, 0.0, 0.0, 0.0, 0.0, 0.0, 0.0, 0.0, 0.0, 0.0, 0.0, 0.0, 0.0, 0.0, 0.0, 0.0, 0.0, 0.0, 0.0, 0.0, 0.0)",,,,,,,7,0,489000000,base_footprint,0.0033398588714833,0.0019363167791858,-0.866008784179908,0.5000138815505895,0.0,0.0,0.0,0.0,0.0,0.0,0.0,0.0,0.0,0.0001371934731867,0.0001147946242206,0.0003297968793748,0.0,0.0,0.0,0.0,0.0,0.0,0.0,0.0,0.0,-4.839669044528422e-05,-3.849864007389098e-05,-7.177540303756435e-06,0.0,0.0,0.0,0.0,0.0,0.0,0.0,0.0,0.0
0.523,6.571364090670294e-07,-2.644529146925492e-07,1.0715201992361758e-05,-3.3996601295720576e-06,0.00022733883651379505,4.369238312515287e-05,0.0012025751065947762,-1.1320868231323169e-07,5.314692275626511e-13,7.570383255909376e-06,10.0,0.0,504000000.0,odom,base_footprint,1.22988153505579e-05,1.3158002801954077e-06,-0.0010023734530011,0.0033398353263844,0.0019363383465034,-0.8660075312084038,0.5000160517264682,"(1e-05, 0.0, 0.0, 0.0, 0.0, 0.0, 0.0, 1e-05, 0.0, 0.0, 0.0, 0.0, 0.0, 0.0, 1000000000000.0, 0.0, 0.0, 0.0, 0.0, 0.0, 0.0, 1000000000000.0, 0.0, 0.0, 0.0, 0.0, 0.0, 0.0, 1000000000000.0, 0.0, 0.0, 0.0, 0.0, 0.0, 0.0, 0.001)",-2.878784002370748e-06,2.1856182036416877e-05,0.0,0.0,0.0,0.0003333840411808,"(0.0, 0.0, 0.0, 0.0, 0.0, 0.0, 0.0, 0.0, 0.0, 0.0, 0.0, 0.0, 0.0, 0.0, 0.0, 0.0, 0.0, 0.0, 0.0, 0.0, 0.0, 0.0, 0.0, 0.0, 0.0, 0.0, 0.0, 0.0, 0.0, 0.0, 0.0, 0.0, 0.0, 0.0, 0.0, 0.0)",,,,,,,8,0,523000000,base_footprint,0.0033398145272628,0.0019363636863548,-0.8660061052609693,0.5000185214422808,0.0,0.0,0.0,0.0,0.0,0.0,0.0,0.0,0.0,0.0001358005290095,0.000114387870216,0.0003374094380831,0.0,0.0,0.0,0.0,0.0,0.0,0.0,0.0,0.0,-1.1695941864417909e-05,-9.333998703922725e-06,-2.410213614933779e-06,0.0,0.0,0.0,0.0,0.0,0.0,0.0,0.0,0.0
0.557,6.655990551283734e-07,-2.677341054439438e-07,1.0850905117099074e-05,-2.426573014720736e-06,0.0002437071930234233,2.9221835280820466e-05,0.0004915422375263737,-8.080488138957833e-08,-2.5439826481607806e-13,8.115449527679997e-06,11.0,0.0,537000000.0,odom,base_footprint,1.2941805607400488e-05,1.0571149987544971e-06,-0.0010023732079047,0.0033397996981339,0.0019363849188126,-0.8660049102764733,0.5000205911044665,"(1e-05, 0.0, 0.0, 0.0, 0.0, 0.0, 0.0, 1e-05, 0.0, 0.0, 0.0, 0.0, 0.0, 0.0, 1000000000000.0, 0.0, 0.0, 0.0, 0.0, 0.0, 0.0, 1000000000000.0, 0.0, 0.0, 0.0, 0.0, 0.0, 0.0, 1000000000000.0, 0.0, 0.0, 0.0, 0.0, 0.0, 0.0, 0.001)",-2.917370904116987e-06,2.211165699416898e-05,0.0,0.0,0.0,0.0003372481310606,"(0.0, 0.0, 0.0, 0.0, 0.0, 0.0, 0.0, 0.0, 0.0, 0.0, 0.0, 0.0, 0.0, 0.0, 0.0, 0.0, 0.0, 0.0, 0.0, 0.0, 0.0, 0.0, 0.0, 0.0, 0.0, 0.0, 0.0, 0.0, 0.0, 0.0, 0.0, 0.0, 0.0, 0.0, 0.0, 0.0)",,,,,,,9,0,557000000,base_footprint,0.0033397827469786,0.0019364114773923,-0.8660033923631082,0.5000232200382118,0.0,0.0,0.0,0.0,0.0,0.0,0.0,0.0,0.0,0.0001353961729693,0.0001144320747789,0.0003392649870171,0.0,0.0,0.0,0.0,0.0,0.0,0.0,0.0,0.0,-2.849387027846388e-06,-2.2831560131986305e-06,-5.312981045973113e-07,0.0,0.0,0.0,0.0,0.0,0.0,0.0,0.0,0.0
0.5910000000000001,6.676736217475586e-07,-2.6853203982527354e-07,1.0884105150488209e-05,-1.6714997107837948e-06,0.0002590612413719599,2.2674873992100338e-05,0.00046108253298908714,-5.566094036523477e-08,-6.411812274047798e-13,8.626739337686266e-06,12.0,0.0,571000000.0,odom,base_footprint,1.3608672120508144e-05,7.888919457961323e-07,-0.0010023736457974,0.003339770271936,0.0019364320136246,-0.8660021922904086,0.5000252984737806,"(1e-05, 0.0, 0.0, 0.0, 0.0, 0.0, 0.0, 1e-05, 0.0, 0.0, 0.0, 0.0, 0.0, 0.0, 1000000000000.0, 0.0, 0.0, 0.0, 0.0, 0.0, 0.0, 1000000000000.0, 0.0, 0.0, 0.0, 0.0, 0.0, 0.0, 1000000000000.0, 0.0, 0.0, 0.0, 0.0, 0.0, 0.0, 0.001)",-2.927445217199524e-06,2.217790907110248e-05,0.0,0.0,0.0,0.0003382480503792,"(0.0, 0.0, 0.0, 0.0, 0.0, 0.0, 0.0, 0.0, 0.0, 0.0, 0.0, 0.0, 0.0, 0.0, 0.0, 0.0, 0.0, 0.0, 0.0, 0.0, 0.0, 0.0, 0.0, 0.0, 0.0, 0.0, 0.0, 0.0, 0.0, 0.0, 0.0, 0.0, 0.0, 0.0, 0.0, 0.0)",,,,,,,10,0,591000000,base_footprint,0.0033397552425698,0.0019364573865197,-0.8660006711374559,0.5000279329769346,0.0,0.0,0.0,0.0,0.0,0.0,0.0,0.0,0.0,0.0001352262298122,0.0001145659355137,0.0003397258291407,0.0,0.0,0.0,0.0,0.0,0.0,0.0,0.0,0.0,-7.058475253655422e-07,-5.751131429807808e-07,-9.544228050903247e-08,0.0,0.0,0.0,0.0,0.0,0.0,0.0,0.0,0.0
0.625,6.682008859408041e-07,-2.6872844414082756e-07,1.0892480024171649e-05,-9.209784545450562e-07,0.00025554170412077685,2.253817586302518e-05,-0.00010569180934483643,-3.0668582530070314e-08,-6.160564147154732e-13,8.50953874722187e-06,12.0,0.0,571000000.0,odom,base_footprint,1.3608672120508144e-05,7.888919457961323e-07,-0.0010023736457974,0.003339770271936,0.0019364320136246,-0.8660021922904086,0.5000252984737806,"(1e-05, 0.0, 0.0, 0.0, 0.0, 0.0, 0.0, 1e-05, 0.0, 0.0, 0.0, 0.0, 0.0, 0.0, 1000000000000.0, 0.0, 0.0, 0.0, 0.0, 0.0, 0.0, 1000000000000.0, 0.0, 0.0, 0.0, 0.0, 0.0, 0.0, 1000000000000.0, 0.0, 0.0, 0.0, 0.0, 0.0, 0.0, 0.001)",-2.927445217199524e-06,2.217790907110248e-05,0.0,0.0,0.0,0.0003382480503792,"(0.0, 0.0, 0.0, 0.0, 0.0, 0.0, 0.0, 0.0, 0.0, 0.0, 0.0, 0.0, 0.0, 0.0, 0.0, 0.0, 0.0, 0.0, 0.0, 0.0, 0.0, 0.0, 0.0, 0.0, 0.0, 0.0, 0.0, 0.0, 0.0, 0.0, 0.0, 0.0, 0.0, 0.0, 0.0, 0.0)",,,,,,,11,0,625000000,base_footprint,0.0033397298919952,0.0019365009390439,-0.8659979477960678,0.5000326495153701,0.0,0.0,0.0,0.0,0.0,0.0,0.0,0.0,0.0,0.0001351197009581,0.0001147106455807,0.0003398489166435,0.0,0.0,0.0,0.0,0.0,0.0,0.0,0.0,0.0,-1.8652235420807814e-07,-1.6127336593916664e-07,6.951546727950033e-09,0.0,0.0,0.0,0.0,0.0,0.0,0.0,0.0,0.0
0.659,6.683531640228768e-07,-2.6877901430260106e-07,1.0894841039998937e-05,-2.8293632836032055e-07,0.0002574315293879504,1.916042420975182e-05,5.675150952473081e-05,-9.421779730508812e-09,-2.6973198031006633e-13,8.572469928618749e-06,14.0,0.0,637000000.0,odom,base_footprint,1.4905637828175644e-05,2.672917422887229e-07,-0.0010023747397573,0.003339720622023,0.0019365169762502,-0.8659969063262766,0.5000344532144618,"(1e-05, 0.0, 0.0, 0.0, 0.0, 0.0, 0.0, 1e-05, 0.0, 0.0, 0.0, 0.0, 0.0, 0.0, 1000000000000.0, 0.0, 0.0, 0.0, 0.0, 0.0, 0.0, 1000000000000.0, 0.0, 0.0, 0.0, 0.0, 0.0, 0.0, 1000000000000.0, 0.0, 0.0, 0.0, 0.0, 0.0, 0.0, 0.001)",-2.930879765182901e-06,2.219957659765319e-05,0.0,0.0,0.0,0.0003385710131488,"(0.0, 0.0, 0.0, 0.0, 0.0, 0.0, 0.0, 0.0, 0.0, 0.0, 0.0, 0.0, 0.0, 0.0, 0.0, 0.0, 0.0, 0.0, 0.0, 0.0, 0.0, 0.0, 0.0, 0.0, 0.0, 0.0, 0.0, 0.0, 0.0, 0.0, 0.0, 0.0, 0.0, 0.0, 0.0, 0.0)",,,,,,,11,0,625000000,base_footprint,0.0033397298919952,0.0019365009390439,-0.8659979477960678,0.5000326495153701,0.0,0.0,0.0,0.0,0.0,0.0,0.0,0.0,0.0,0.0001351197009581,0.0001147106455807,0.0003398489166435,0.0,0.0,0.0,0.0,0.0,0.0,0.0,0.0,0.0,-1.8652235420807814e-07,-1.6127336593916664e-07,6.951546727950033e-09,0.0,0.0,0.0,0.0,0.0,0.0,0.0,0.0,0.0
0.6930000000000001,6.684143906000688e-07,-2.6879412120530896e-07,1.089574403323468e-05,3.592876726306042e-07,0.00026538123186295036,1.9286006035763504e-05,0.00023872980405405337,1.1964279490222393e-08,4.4666692774324787e-13,8.837195021036248e-06,14.0,0.0,637000000.0,odom,base_footprint,1.4905637828175644e-05,2.672917422887229e-07,-0.0010023747397573,0.003339720622023,0.0019365169762502,-0.8659969063262766,0.5000344532144618,"(1e-05, 0.0, 0.0, 0.0, 0.0, 0.0, 0.0, 1e-05, 0.0, 0.0, 0.0, 0.0, 0.0, 0.0, 1000000000000.0, 0.0, 0.0, 0.0, 0.0, 0.0, 0.0, 1000000000000.0, 0.0, 0.0, 0.0, 0.0, 0.0, 0.0, 1000000000000.0, 0.0, 0.0, 0.0, 0.0, 0.0, 0.0, 0.001)",-2.930879765182901e-06,2.219957659765319e-05,0.0,0.0,0.0,0.0003385710131488,"(0.0, 0.0, 0.0, 0.0, 0.0, 0.0, 0.0, 0.0, 0.0, 0.0, 0.0, 0.0, 0.0, 0.0, 0.0, 0.0, 0.0, 0.0, 0.0, 0.0, 0.0, 0.0, 0.0, 0.0, 0.0, 0.0, 0.0, 0.0, 0.0, 0.0, 0.0, 0.0, 0.0, 0.0, 0.0, 0.0)",,,,,,,13,0,693000000,base_footprint,0.0033396835549798,0.0019365813339354,-0.8659924996439283,0.5000420849558069,0.0,0.0,0.0,0.0,0.0,0.0,0.0,0.0,0.0,0.0001349594410661,0.0001149745527165,0.000339911691386,0.0,0.0,0.0,0.0,0.0,0.0,0.0,0.0,0.0,-2.9835969225089976e-08,-3.641441029834873e-08,3.1059418674587575e-08,0.0,0.0,0.0,0.0,0.0,0.0,0.0,0.0,0.0
0.7270000000000001,6.684533498959276e-07,-2.688005065407118e-07,1.0896292464313007e-05,9.982758761621793e-07,0.0002560079862256756,1.9188834940888136e-05,-0.00028147884796620885,3.324258664090706e-08,1.5296414720272778e-12,8.525065941314999e-06,16.0,0.0,704000000.0,odom,base_footprint,1.6222789617693478e-05,-2.623861520517461e-07,-0.0010023757295444,0.0033396758860972,0.0019365946763715,-0.8659915381221746,0.50004375015275,"(1e-05, 0.0, 0.0, 0.0, 0.0, 0.0, 0.0, 1e-05, 0.0, 0.0, 0.0, 0.0, 0.0, 0.0, 1000000000000.0, 0.0, 0.0, 0.0, 0.0, 0.0, 0.0, 1000000000000.0, 0.0, 0.0, 0.0, 0.0, 0.0, 0.0, 1000000000000.0, 0.0, 0.0, 0.0, 0.0, 0.0, 0.0, 0.001)",-2.93157202619398e-06,2.220300017147311e-05,0.0,0.0,0.0,0.0003386186078897,"(0.0, 0.0, 0.0, 0.0, 0.0, 0.0, 0.0, 0.0, 0.0, 0.0, 0.0, 0.0, 0.0, 0.0, 0.0, 0.0, 0.0, 0.0, 0.0, 0.0, 0.0, 0.0, 0.0, 0.0, 0.0, 0.0, 0.0, 0.0, 0.0, 0.0, 0.0, 0.0, 0.0, 0.0, 0.0, 0.0)",,,,,,,14,0,727000000,base_footprint,0.0033396621801769,0.0019366185390476,-0.8659897752858677,0.5000468030749612,0.0,0.0,0.0,0.0,0.0,0.0,0.0,0.0,0.0,0.0001348918477383,0.0001150902689017,0.0003399283775115,0.0,0.0,0.0,0.0,0.0,0.0,0.0,0.0,0.0,-2.2222443055218952e-08,-3.0351206678526216e-08,2.9085590586139985e-08,0.0,0.0,0.0,0.0,0.0,0.0,0.0,0.0,0.0
0.761,6.684867199101448e-07,-2.688046584751503e-07,1.0896753695810446e-05,1.6898591129279185e-06,0.00025267474565641914,2.0768265368340514e-05,-0.00010009731439208611,5.6272308376811125e-08,3.065944461318201e-12,8.414069030358758e-06,17.0,0.0,737000000.0,odom,base_footprint,1.6871593836230957e-05,-5.232822499305623e-07,-0.0010023761586087,0.0033396554913603,0.0019366301920829,-0.8659888938461485,0.5000483295640754,"(1e-05, 0.0, 0.0, 0.0, 0.0, 0.0, 0.0, 1e-05, 0.0, 0.0, 0.0, 0.0, 0.0, 0.0, 1000000000000.0, 0.0, 0.0, 0.0, 0.0, 0.0, 0.0, 1000000000000.0, 0.0, 0.0, 0.0, 0.0, 0.0, 0.0, 1000000000000.0, 0.0, 0.0, 0.0, 0.0, 0.0, 0.0, 0.001)",-2.9318297504037647e-06,2.2204119753953257e-05,0.0,0.0,0.0,0.0003386337540613,"(0.0, 0.0, 0.0, 0.0, 0.0, 0.0, 0.0, 0.0, 0.0, 0.0, 0.0, 0.0, 0.0, 0.0, 0.0, 0.0, 0.0, 0.0, 0.0, 0.0, 0.0, 0.0, 0.0, 0.0, 0.0, 0.0, 0.0, 0.0, 0.0, 0.0, 0.0, 0.0, 0.0, 0.0, 0.0, 0.0)",,,,,,,15,0,761000000,base_footprint,0.0033396418404687,0.001936653989081,-0.8659870507906653,0.500051521372138,0.0,0.0,0.0,0.0,0.0,0.0,0.0,0.0,0.0,0.0001348303835962,0.0001151959206995,0.0003399439020118,0.0,0.0,0.0,0.0,0.0,0.0,0.0,0.0,0.0,-2.0217111632339858e-08,-2.8757690405058367e-08,2.6283543680679722e-08,0.0,0.0,0.0,0.0,0.0,0.0,0.0,0.0,0.0
0.795,6.685185579887593e-07,-2.6880815932233196e-07,1.0897192597614236e-05,2.5574216711801925e-06,0.00025473927509695946,2.6052929677245463e-05,6.199788109730683e-05,8.516214148140257e-08,5.359469042012491e-12,8.482817860728751e-06,17.0,0.0,737000000.0,odom,base_footprint,1.6871593836230957e-05,-5.232822499305623e-07,-0.0010023761586087,0.0033396554913603,0.0019366301920829,-0.8659888938461485,0.5000483295640754,"(1e-05, 0.0, 0.0, 0.0, 0.0, 0.0, 0.0, 1e-05, 0.0, 0.0, 0.0, 0.0, 0.0, 0.0, 1000000000000.0, 0.0, 0.0, 0.0, 0.0, 0.0, 0.0, 1000000000000.0, 0.0, 0.0, 0.0, 0.0, 0.0, 0.0, 1000000000000.0, 0.0, 0.0, 0.0, 0.0, 0.0, 0.0, 0.001)",-2.9318297504037647e-06,2.2204119753953257e-05,0.0,0.0,0.0,0.0003386337540613,"(0.0, 0.0, 0.0, 0.0, 0.0, 0.0, 0.0, 0.0, 0.0, 0.0, 0.0, 0.0, 0.0, 0.0, 0.0, 0.0, 0.0, 0.0, 0.0, 0.0, 0.0, 0.0, 0.0, 0.0, 0.0, 0.0, 0.0, 0.0, 0.0, 0.0, 0.0, 0.0, 0.0, 0.0, 0.0, 0.0)",,,,,,,16,0,795000000,base_footprint,0.0033396224382661,0.0019366878465203,-0.8659843261635449,0.5000562398383067,0.0,0.0,0.0,0.0,0.0,0.0,0.0,0.0,0.0,0.0001347743546827,0.0001152923838763,0.0003399591453561,0.0,0.0,0.0,0.0,0.0,0.0,0.0,0.0,0.0,-1.958494430405022e-08,-2.8258622565381112e-08,2.3496672429961795e-08,0.0,0.0,0.0,0.0,0.0,0.0,0.0,0.0,0.0
0.8290000000000001,6.685498633298911e-07,-2.688114023327928e-07,1.0897624994399281e-05,3.4059758822882797e-06,0.00023944506032060807,2.5482108441684297e-05,-0.0004592857290195611,1.1341899659273137e-07,8.07097272516944e-12,7.97352050867625e-06,19.0,0.0,804000000.0,odom,base_footprint,1.8188956618034064e-05,-1.0529911117773685e-06,-0.0010023769253074,0.0033396168972034,0.001936697523373,-0.8659835247777451,0.5000576276542491,"(1e-05, 0.0, 0.0, 0.0, 0.0, 0.0, 0.0, 1e-05, 0.0, 0.0, 0.0, 0.0, 0.0, 0.0, 1000000000000.0, 0.0, 0.0, 0.0, 0.0, 0.0, 0.0, 1000000000000.0, 0.0, 0.0, 0.0, 0.0, 0.0, 0.0, 1000000000000.0, 0.0, 0.0, 0.0, 0.0, 0.0, 0.0, 0.001)",-2.932331317794484e-06,2.2206265883969048e-05,0.0,0.0,0.0,0.0003386630556505,"(0.0, 0.0, 0.0, 0.0, 0.0, 0.0, 0.0, 0.0, 0.0, 0.0, 0.0, 0.0, 0.0, 0.0, 0.0, 0.0, 0.0, 0.0, 0.0, 0.0, 0.0, 0.0, 0.0, 0.0, 0.0, 0.0, 0.0, 0.0, 0.0, 0.0, 0.0, 0.0, 0.0, 0.0, 0.0, 0.0)",,,,,,,17,0,829000000,base_footprint,0.0033396038861302,0.0019367202591732,-0.865981601405804,0.5000609584712256,0.0,0.0,0.0,0.0,0.0,0.0,0.0,0.0,0.0,0.0001347232263303,0.000115380497447,0.0003399743206713,0.0,0.0,0.0,0.0,0.0,0.0,0.0,0.0,0.0,-1.9298667792732222e-08,-2.8035222934266664e-08,2.090896654037073e-08,0.0,0.0,0.0,0.0,0.0,0.0,0.0,0.0,0.0
0.8630000000000001,6.685808930611929e-07,-2.688144919234419e-07,1.0898054819463711e-05,4.487809120815301e-06,0.0002290316439007318,3.248748464045109e-05,-0.00031271520780409243,1.4944404325690948e-07,1.1800226277441754e-11,7.62675374189437e-06,20.0,0.0,837000000.0,odom,base_footprint,1.8837851688005124e-05,-1.3138971476050858e-06,-0.0010023772574944,0.0033395991073932,0.0019367286144076,-0.8659808801245888,0.5000622075489395,"(1e-05, 0.0, 0.0, 0.0, 0.0, 0.0, 0.0, 1e-05, 0.0, 0.0, 0.0, 0.0, 0.0, 0.0, 1000000000000.0, 0.0, 0.0, 0.0, 0.0, 0.0, 0.0, 1000000000000.0, 0.0, 0.0, 0.0, 0.0, 0.0, 0.0, 1000000000000.0, 0.0, 0.0, 0.0, 0.0, 0.0, 0.0, 0.001)",-2.9325724787220905e-06,2.220730466600985e-05,0.0,0.0,0.0,0.0003386774117457,"(0.0, 0.0, 0.0, 0.0, 0.0, 0.0, 0.0, 0.0, 0.0, 0.0, 0.0, 0.0, 0.0, 0.0, 0.0, 0.0, 0.0, 0.0, 0.0, 0.0, 0.0, 0.0, 0.0, 0.0, 0.0, 0.0, 0.0, 0.0, 0.0, 0.0, 0.0, 0.0, 0.0, 0.0, 0.0, 0.0)",,,,,,,18,0,863000000,base_footprint,0.0033395861050047,0.0019367513612222,-0.8659788765177857,0.5000656772703022,0.0,0.0,0.0,0.0,0.0,0.0,0.0,0.0,0.0,0.0001346765361813,0.0001154610333752,0.0003399894796892,0.0,0.0,0.0,0.0,0.0,0.0,0.0,0.0,0.0,-1.9108593767719706e-08,-2.788846708113769e-08,1.8546799051054073e-08,0.0,0.0,0.0,0.0,0.0,0.0,0.0,0.0,0.0
0.897,6.686117232160282e-07,-2.688174617132208e-07,1.0898483120858062e-05,5.975051066788296e-06,0.0002218424868452139,4.466192029948934e-05,-0.00021589060226780474,1.9896919977978175e-07,1.7204448409332072e-11,7.387354811945624e-06,21.0,0.0,871000000.0,odom,base_footprint,1.9506440759760584e-05,-1.582712436507764e-06,-0.0010023775721598,0.0033395815180793,0.0019367593903942,-0.8659781552021072,0.5000669263919612,"(1e-05, 0.0, 0.0, 0.0, 0.0, 0.0, 0.0, 1e-05, 0.0, 0.0, 0.0, 0.0, 0.0, 0.0, 1000000000000.0, 0.0, 0.0, 0.0, 0.0, 0.0, 0.0, 1000000000000.0, 0.0, 0.0, 0.0, 0.0, 0.0, 0.0, 1000000000000.0, 0.0, 0.0, 0.0, 0.0, 0.0, 0.0, 0.001)",-2.932828061316798e-06,2.22083673160738e-05,0.0,0.0,0.0,0.0003386922241556,"(0.0, 0.0, 0.0, 0.0, 0.0, 0.0, 0.0, 0.0, 0.0, 0.0, 0.0, 0.0, 0.0, 0.0, 0.0, 0.0, 0.0, 0.0, 0.0, 0.0, 0.0, 0.0, 0.0, 0.0, 0.0, 0.0, 0.0, 0.0, 0.0, 0.0, 0.0, 0.0, 0.0, 0.0, 0.0, 0.0)",,,,,,,19,0,897000000,base_footprint,0.0033395690232372,0.0019367812744151,-0.8659761514995985,0.5000703962353488,0.0,0.0,0.0,0.0,0.0,0.0,0.0,0.0,0.0,0.0001346338705619,0.0001155346946233,0.0003400046349639,0.0,0.0,0.0,0.0,0.0,0.0,0.0,0.0,0.0,-1.8952983288166305e-08,-2.7769110808977783e-08,1.6400329648085472e-08,0.0,0.0,0.0,0.0,0.0,0.0,0.0,0.0,0.0
0.931,6.686423846998003e-07,-2.688203274273974e-07,1.0898910232981509e-05,7.345200839414433e-06,0.0001982844548493246,4.114563881760169e-05,-0.000707448408284964,2.4459518688374644e-07,2.2860599402562734e-11,6.602872346482509e-06,22.0,0.0,904000000.0,odom,base_footprint,2.015539488714121e-05,-1.8436242069075869e-06,-0.0010023778532319,0.0033395650984686,0.0019367881522178,-0.8659755102999372,0.5000715066041757,"(1e-05, 0.0, 0.0, 0.0, 0.0, 0.0, 0.0, 1e-05, 0.0, 0.0, 0.0, 0.0, 0.0, 0.0, 1000000000000.0, 0.0, 0.0, 0.0, 0.0, 0.0, 0.0, 1000000000000.0, 0.0, 0.0, 0.0, 0.0, 0.0, 0.0, 1000000000000.0, 0.0, 0.0, 0.0, 0.0, 0.0, 0.0, 0.001)",-2.933067952637836e-06,2.2209393767103197e-05,0.0,0.0,0.0,0.0003387066268675,"(0.0, 0.0, 0.0, 0.0, 0.0, 0.0, 0.0, 0.0, 0.0, 0.0, 0.0, 0.0, 0.0, 0.0, 0.0, 0.0, 0.0, 0.0, 0.0, 0.0, 0.0, 0.0, 0.0, 0.0, 0.0, 0.0, 0.0, 0.0, 0.0, 0.0, 0.0, 0.0, 0.0, 0.0, 0.0, 0.0)",,,,,,,20,0,931000000,base_footprint,0.0033395525758442,0.0019368101092004,-0.8659734263512923,0.5000751153662791,0.0,0.0,0.0,0.0,0.0,0.0,0.0,0.0,0.0,0.000134594855419,0.0001156021195657,0.0003400197894747,0.0,0.0,0.0,0.0,0.0,0.0,0.0,0.0,0.0,-1.8815724078093724e-08,-2.7664299054422613e-08,1.445238089481488e-08,0.0,0.0,0.0,0.0,0.0,0.0,0.0,0.0,0.0
0.9650000000000001,6.686728962050082e-07,-2.688230997076324e-07,1.0899336316594345e-05,9.084717337864827e-06,0.0001784808867788285,5.223773268619802e-05,-0.0005947017438587414,3.025210858458202e-07,3.0172287557407074e-11,5.943413529734989e-06,22.0,0.0,904000000.0,odom,base_footprint,2.015539488714121e-05,-1.8436242069075869e-06,-0.0010023778532319,0.0033395650984686,0.0019367881522178,-0.8659755102999372,0.5000715066041757,"(1e-05, 0.0, 0.0, 0.0, 0.0, 0.0, 0.0, 1e-05, 0.0, 0.0, 0.0, 0.0, 0.0, 0.0, 1000000000000.0, 0.0, 0.0, 0.0, 0.0, 0.0, 0.0, 1000000000000.0, 0.0, 0.0, 0.0, 0.0, 0.0, 0.0, 1000000000000.0, 0.0, 0.0, 0.0, 0.0, 0.0, 0.0, 0.001)",-2.933067952637836e-06,2.2209393767103197e-05,0.0,0.0,0.0,0.0003387066268675,"(0.0, 0.0, 0.0, 0.0, 0.0, 0.0, 0.0, 0.0, 0.0, 0.0, 0.0, 0.0, 0.0, 0.0, 0.0, 0.0, 0.0, 0.0, 0.0, 0.0, 0.0, 0.0, 0.0, 0.0, 0.0, 0.0, 0.0, 0.0, 0.0, 0.0, 0.0, 0.0, 0.0, 0.0, 0.0, 0.0)",,,,,,,21,0,965000000,base_footprint,0.0033395367038791,0.0019368379657729,-0.8659707010728994,0.5000798346630356,0.0,0.0,0.0,0.0,0.0,0.0,0.0,0.0,0.0,0.0001345591518715,0.0001156638872396,0.0003400349440312,0.0,0.0,0.0,0.0,0.0,0.0,0.0,0.0,0.0,-1.869220092815924e-08,-2.7570342747093797e-08,1.2684521124005869e-08,0.0,0.0,0.0,0.0,0.0,0.0,0.0,0.0,0.0
0.9990000000000001,6.687032725943495e-07,-2.6882578741185825e-07,1.0899761480942518e-05,-0.0001500476987255856,0.0021782420234641893,-0.004778751233136649,0.060052886987548376,-4.996588318214045e-06,-6.944037353197703e-10,7.253545938135751e-05,24.0,0.0,971000000.0,odom,base_footprint,2.147305702494915e-05,-2.373362315053352e-06,-0.0010023783589363,0.0033395335025785,0.0019368435879736,-0.8659701399700256,0.5000808063035367,"(1e-05, 0.0, 0.0, 0.0, 0.0, 0.0, 0.0, 1e-05, 0.0, 0.0, 0.0, 0.0, 0.0, 0.0, 1000000000000.0, 0.0, 0.0, 0.0, 0.0, 0.0, 0.0, 1000000000000.0, 0.0, 0.0, 0.0, 0.0, 0.0, 0.0, 1000000000000.0, 0.0, 0.0, 0.0, 0.0, 0.0, 0.0, 0.001)",-2.933561314401388e-06,2.2211460951060943e-05,0.0,0.0,0.0,0.0003387359435189,"(0.0, 0.0, 0.0, 0.0, 0.0, 0.0, 0.0, 0.0, 0.0, 0.0, 0.0, 0.0, 0.0, 0.0, 0.0, 0.0, 0.0, 0.0, 0.0, 0.0, 0.0, 0.0, 0.0, 0.0, 0.0, 0.0, 0.0, 0.0, 0.0, 0.0, 0.0, 0.0, 0.0, 0.0, 0.0, 0.0)",,,,,,,21,0,965000000,base_footprint,0.0033395367038791,0.0019368379657729,-0.8659707010728994,0.5000798346630356,0.0,0.0,0.0,0.0,0.0,0.0,0.0,0.0,0.0,0.0001345591518715,0.0001156638872396,0.0003400349440312,0.0,0.0,0.0,0.0,0.0,0.0,0.0,0.0,0.0,-1.869220092815924e-08,-2.7570342747093797e-08,1.2684521124005869e-08,0.0,0.0,0.0,0.0,0.0,0.0,0.0,0.0,0.0
1.033,6.687335267793609e-07,-2.688283983519682e-07,1.0900185814843866e-05,1.0648814842540563e-05,0.00016211767140844615,0.004825721128171956,-0.0605442748365088,3.5460552864213335e-07,6.309942717274936e-11,5.398518457901257e-06,24.0,0.0,971000000.0,odom,base_footprint,2.147305702494915e-05,-2.373362315053352e-06,-0.0010023783589363,0.0033395335025785,0.0019368435879736,-0.8659701399700256,0.5000808063035367,"(1e-05, 0.0, 0.0, 0.0, 0.0, 0.0, 0.0, 1e-05, 0.0, 0.0, 0.0, 0.0, 0.0, 0.0, 1000000000000.0, 0.0, 0.0, 0.0, 0.0, 0.0, 0.0, 1000000000000.0, 0.0, 0.0, 0.0, 0.0, 0.0, 0.0, 1000000000000.0, 0.0, 0.0, 0.0, 0.0, 0.0, 0.0, 0.001)",-2.933561314401388e-06,2.2211460951060943e-05,0.0,0.0,0.0,0.0003387359435189,"(0.0, 0.0, 0.0, 0.0, 0.0, 0.0, 0.0, 0.0, 0.0, 0.0, 0.0, 0.0, 0.0, 0.0, 0.0, 0.0, 0.0, 0.0, 0.0, 0.0, 0.0, 0.0, 0.0, 0.0, 0.0, 0.0, 0.0, 0.0, 0.0, 0.0, 0.0, 0.0, 0.0, 0.0, 0.0, 0.0)",,,,,,,23,1,33000000,base_footprint,0.0033395064773084,0.0019368910994055,-0.8659652501259532,0.5000892737538495,0.0,0.0,0.0,0.0,0.0,0.0,0.0,0.0,0.0,0.0001344964779805,0.0001157725037937,0.0003400652540596,0.0,0.0,0.0,0.0,0.0,0.0,0.0,0.0,0.0,-1.8478894908160664e-08,-2.74090096821542e-08,9.625824801658836e-09,0.0,0.0,0.0,0.0,0.0,0.0,0.0,0.0,0.0
1.067,6.687636702720907e-07,-2.68830939554026e-07,1.0900609396902185e-05,8.899241291292798e-06,0.00018526578363643043,-5.253974628371667e-05,0.000695138505344873,2.9634472999795947e-07,5.444637620206181e-11,6.169350595093134e-06,26.0,1.0,37000000.0,odom,base_footprint,2.2771167810730145e-05,-2.8952040361657216e-06,-0.0010023787843786,0.0033395043267999,0.0019368948838315,-0.8659648493005023,0.5000899678308081,"(1e-05, 0.0, 0.0, 0.0, 0.0, 0.0, 0.0, 1e-05, 0.0, 0.0, 0.0, 0.0, 0.0, 0.0, 1000000000000.0, 0.0, 0.0, 0.0, 0.0, 0.0, 0.0, 1000000000000.0, 0.0, 0.0, 0.0, 0.0, 0.0, 0.0, 1000000000000.0, 0.0, 0.0, 0.0, 0.0, 0.0, 0.0, 0.001)",-2.934043488416481e-06,2.2213482500614257e-05,0.0,0.0,0.0,0.0003387649081867,"(0.0, 0.0, 0.0, 0.0, 0.0, 0.0, 0.0, 0.0, 0.0, 0.0, 0.0, 0.0, 0.0, 0.0, 0.0, 0.0, 0.0, 0.0, 0.0, 0.0, 0.0, 0.0, 0.0, 0.0, 0.0, 0.0, 0.0, 0.0, 0.0, 0.0, 0.0, 0.0, 0.0, 0.0, 0.0, 0.0)",,,,,,,24,1,67000000,base_footprint,0.003339492030192,0.0019369165337138,-0.8659625244574415,0.50009399354783,0.0,0.0,0.0,0.0,0.0,0.0,0.0,0.0,0.0,0.0001344689758915,0.0001158202616702,0.0003400804096197,0.0,0.0,0.0,0.0,0.0,0.0,0.0,0.0,0.0,-1.8386925627555504e-08,-2.7339874585638333e-08,8.305973822096496e-09,0.0,0.0,0.0,0.0,0.0,0.0,0.0,0.0,0.0
1.101,6.687937135194978e-07,-2.688334173970436e-07,1.090103229950401e-05,7.520845343545017e-06,0.00021265668934892967,-4.1393271704137537e-05,0.0008225497210960733,2.504441454022482e-07,4.767252385432879e-11,7.0814677553193584e-06,26.0,1.0,37000000.0,odom,base_footprint,2.2771167810730145e-05,-2.8952040361657216e-06,-0.0010023787843786,0.0033395043267999,0.0019368948838315,-0.8659648493005023,0.5000899678308081,"(1e-05, 0.0, 0.0, 0.0, 0.0, 0.0, 0.0, 1e-05, 0.0, 0.0, 0.0, 0.0, 0.0, 0.0, 1000000000000.0, 0.0, 0.0, 0.0, 0.0, 0.0, 0.0, 1000000000000.0, 0.0, 0.0, 0.0, 0.0, 0.0, 0.0, 1000000000000.0, 0.0, 0.0, 0.0, 0.0, 0.0, 0.0, 0.001)",-2.934043488416481e-06,2.2213482500614257e-05,0.0,0.0,0.0,0.0003387649081867,"(0.0, 0.0, 0.0, 0.0, 0.0, 0.0, 0.0, 0.0, 0.0, 0.0, 0.0, 0.0, 0.0, 0.0, 0.0, 0.0, 0.0, 0.0, 0.0, 0.0, 0.0, 0.0, 0.0, 0.0, 0.0, 0.0, 0.0, 0.0, 0.0, 0.0, 0.0, 0.0, 0.0, 0.0, 0.0, 0.0)",,,,,,,25,1,101000000,base_footprint,0.0033394779726027,0.0019369413057997,-0.8659597986589271,0.5000987135074825,0.0,0.0,0.0,0.0,0.0,0.0,0.0,0.0,0.0,0.000134443716553,0.0001158641889999,0.0003400955656055,0.0,0.0,0.0,0.0,0.0,0.0,0.0,0.0,0.0,-1.8303443818664948e-08,-2.7277383648130662e-08,7.108263871807901e-09,0.0,0.0,0.0,0.0,0.0,0.0,0.0,0.0,0.0
1.135,6.688236661106864e-07,-2.6883583771793174e-07,1.0901454587486372e-05,5.933799395036062e-06,0.00022448361865168954,-4.765903749276142e-05,0.00035516304212492104,1.9759551599542375e-07,3.9050856481485705e-11,7.475304501101262e-06,28.0,1.0,104000000.0,odom,base_footprint,2.408906306815414e-05,-3.4249622102560523e-06,-0.0010023791552902,0.0033394763426615,0.0019369441795427,-0.8659594779682028,0.5000992688077439,"(1e-05, 0.0, 0.0, 0.0, 0.0, 0.0, 0.0, 1e-05, 0.0, 0.0, 0.0, 0.0, 0.0, 0.0, 1000000000000.0, 0.0, 0.0, 0.0, 0.0, 0.0, 0.0, 1000000000000.0, 0.0, 0.0, 0.0, 0.0, 0.0, 0.0, 1000000000000.0, 0.0, 0.0, 0.0, 0.0, 0.0, 0.0, 0.001)",-2.9345341377886445e-06,2.2215521099409035e-05,0.0,0.0,0.0,0.0003387943842107,"(0.0, 0.0, 0.0, 0.0, 0.0, 0.0, 0.0, 0.0, 0.0, 0.0, 0.0, 0.0, 0.0, 0.0, 0.0, 0.0, 0.0, 0.0, 0.0, 0.0, 0.0, 0.0, 0.0, 0.0, 0.0, 0.0, 0.0, 0.0, 0.0, 0.0, 0.0, 0.0, 0.0, 0.0, 0.0, 0.0)",,,,,,,26,1,135000000,base_footprint,0.0033394642683289,0.0019369654772138,-0.8659570727304248,0.5001034336327783,0.0,0.0,0.0,0.0,0.0,0.0,0.0,0.0,0.0,0.0001344204917064,0.0001159046413933,0.000340110722027,0.0,0.0,0.0,0.0,0.0,0.0,0.0,0.0,0.0,-1.8227668640852538e-08,-2.7220924730447943e-08,6.0218622999308204e-09,0.0,0.0,0.0,0.0,0.0,0.0,0.0,0.0,0.0
1.169,6.688535364447572e-07,-2.688382057052484e-07,1.0901876319024952e-05,4.828037255918899e-06,0.00023918737992837804,-3.3206070243758645e-05,0.0004415543926933482,1.6077363723185908e-07,3.301493319853337e-11,7.96493975161499e-06,29.0,1.0,137000000.0,odom,base_footprint,2.47382184381602e-05,-3.6858913505487256e-06,-0.0010023793187324,0.0033394630749692,0.0019369675830542,-0.8659568322010812,0.5001038501223739,"(1e-05, 0.0, 0.0, 0.0, 0.0, 0.0, 0.0, 1e-05, 0.0, 0.0, 0.0, 0.0, 0.0, 0.0, 1000000000000.0, 0.0, 0.0, 0.0, 0.0, 0.0, 0.0, 1000000000000.0, 0.0, 0.0, 0.0, 0.0, 0.0, 0.0, 1000000000000.0, 0.0, 0.0, 0.0, 0.0, 0.0, 0.0, 0.001)",-2.934776893606202e-06,2.2216520572078674e-05,0.0,0.0,0.0,0.0003388089252502,"(0.0, 0.0, 0.0, 0.0, 0.0, 0.0, 0.0, 0.0, 0.0, 0.0, 0.0, 0.0, 0.0, 0.0, 0.0, 0.0, 0.0, 0.0, 0.0, 0.0, 0.0, 0.0, 0.0, 0.0, 0.0, 0.0, 0.0, 0.0, 0.0, 0.0, 0.0, 0.0, 0.0, 0.0, 0.0, 0.0)",0.0,0.0,0.0,0.0,0.0,0.0,27,1,169000000,base_footprint,0.0033394508845211,0.0019369891037918,-0.8659543466719467,0.5001081539236922,0.0,0.0,0.0,0.0,0.0,0.0,0.0,0.0,0.0,0.000134399112526,0.0001159419417467,0.0003401258789074,0.0,0.0,0.0,0.0,0.0,0.0,0.0,0.0,0.0,-1.8158914551963292e-08,-2.7169934637679887e-08,5.0361489421679445e-09,0.0,0.0,0.0,0.0,0.0,0.0,0.0,0.0,0.0
1.203,6.688833324589374e-07,-2.6884052619193313e-07,1.0902297547410456e-05,4.046062733067559e-06,0.0002588610857813627,-2.3482718403944145e-05,0.0005908019775671065,1.3473388593588308e-07,2.878494390677849e-11,8.620074156519377e-06,30.0,1.0,171000000.0,odom,base_footprint,2.5407074606545628e-05,-3.954729762848264e-06,-0.0010023794754505,0.0033394497179649,0.0019369911640619,-0.8659541061311354,0.5001085704279001,"(1e-05, 0.0, 0.0, 0.0, 0.0, 0.0, 0.0, 1e-05, 0.0, 0.0, 0.0, 0.0, 0.0, 0.0, 1000000000000.0, 0.0, 0.0, 0.0, 0.0, 0.0, 0.0, 1000000000000.0, 0.0, 0.0, 0.0, 0.0, 0.0, 0.0, 1000000000000.0, 0.0, 0.0, 0.0, 0.0, 0.0, 0.0, 0.001)",-2.9350231609059017e-06,2.2217548175173583e-05,0.0,0.0,0.0,0.0003388239209447,"(0.0, 0.0, 0.0, 0.0, 0.0, 0.0, 0.0, 0.0, 0.0, 0.0, 0.0, 0.0, 0.0, 0.0, 0.0, 0.0, 0.0, 0.0, 0.0, 0.0, 0.0, 0.0, 0.0, 0.0, 0.0, 0.0, 0.0, 0.0, 0.0, 0.0, 0.0, 0.0, 0.0, 0.0, 0.0, 0.0)",0.0,0.0,0.0,0.0,0.0,0.0,28,1,203000000,base_footprint,0.0033394377913802,0.0019370122361844,-0.8659516204835042,0.5001128743802019,0.0,0.0,0.0,0.0,0.0,0.0,0.0,0.0,0.0,0.0001343794076167,0.0001159763827959,0.0003401410362638,0.0,0.0,0.0,0.0,0.0,0.0,0.0,0.0,0.0,-1.8096523052391056e-08,-2.7123902916648177e-08,4.141975083025399e-09,0.0,0.0,0.0,0.0,0.0,0.0,0.0,0.0,0.0
1.237,6.689130611354892e-07,-2.68842803484437e-07,1.090271832104861e-05,3.2126482448648897e-06,0.00026089187712128404,-2.502746210818826e-05,6.0984724922563314e-05,1.0698118391038013e-07,2.3781574412545873e-11,8.68769950813876e-06,30.0,1.0,171000000.0,odom,base_footprint,2.5407074606545628e-05,-3.954729762848264e-06,-0.0010023794754505,0.0033394497179649,0.0019369911640619,-0.8659541061311354,0.5001085704279001,"(1e-05, 0.0, 0.0, 0.0, 0.0, 0.0, 0.0, 1e-05, 0.0, 0.0, 0.0, 0.0, 0.0, 0.0, 1000000000000.0, 0.0, 0.0, 0.0, 0.0, 0.0, 0.0, 1000000000000.0, 0.0, 0.0, 0.0, 0.0, 0.0, 0.0, 1000000000000.0, 0.0, 0.0, 0.0, 0.0, 0.0, 0.0, 0.001)",-2.9350231609059017e-06,2.2217548175173583e-05,0.0,0.0,0.0,0.0003388239209447,"(0.0, 0.0, 0.0, 0.0, 0.0, 0.0, 0.0, 0.0, 0.0, 0.0, 0.0, 0.0, 0.0, 0.0, 0.0, 0.0, 0.0, 0.0, 0.0, 0.0, 0.0, 0.0, 0.0, 0.0, 0.0, 0.0, 0.0, 0.0, 0.0, 0.0, 0.0, 0.0, 0.0, 0.0, 0.0, 0.0)",0.0,0.0,0.0,0.0,0.0,0.0,29,1,237000000,base_footprint,0.0033394249618734,0.0019370349203394,-0.8659488941651059,0.5001175950022874,0.0,0.0,0.0,0.0,0.0,0.0,0.0,0.0,0.0,0.000134361221638,0.0001160082301146,0.0003401561941736,0.0,0.0,0.0,0.0,0.0,0.0,0.0,0.0,0.0,-1.8040001018741062e-08,-2.7082427382372587e-08,3.3306992897873902e-09,0.0,0.0,0.0,0.0,0.0,0.0,0.0,0.0,0.0
1.271,6.689427289596727e-07,-2.6884504155180733e-07,1.0903138684348335e-05,2.6567794889414316e-06,0.00026847234187471833,-1.6692755433136878e-05,0.0002276415841872157,8.847075461874762e-08,2.0446541852382907e-11,8.940128984428121e-06,32.0,1.0,237000000.0,odom,base_footprint,2.6705527443050305e-05,-4.476599137649001e-06,-0.0010023797498447,0.0033394245882689,0.0019370355811717,-0.8659488139773034,0.5001177338466197,"(1e-05, 0.0, 0.0, 0.0, 0.0, 0.0, 0.0, 1e-05, 0.0, 0.0, 0.0, 0.0, 0.0, 0.0, 1000000000000.0, 0.0, 0.0, 0.0, 0.0, 0.0, 0.0, 1000000000000.0, 0.0, 0.0, 0.0, 0.0, 0.0, 0.0, 1000000000000.0, 0.0, 0.0, 0.0, 0.0, 0.0, 0.0, 0.001)",-2.9355023221442707e-06,2.2219536196491435e-05,0.0,0.0,0.0,0.0003388530664421,"(0.0, 0.0, 0.0, 0.0, 0.0, 0.0, 0.0, 0.0, 0.0, 0.0, 0.0, 0.0, 0.0, 0.0, 0.0, 0.0, 0.0, 0.0, 0.0, 0.0, 0.0, 0.0, 0.0, 0.0, 0.0, 0.0, 0.0, 0.0, 0.0, 0.0, 0.0, 0.0, 0.0, 0.0, 0.0, 0.0)",0.2084210515022277,2.2219535821932368e-05,0.0,0.0,0.0,-0.2047893553972244,30,1,271000000,base_footprint,0.0033394123714779,0.0019370571979381,-0.8659461677167593,0.5001223157899309,0.0,0.0,0.0,0.0,0.0,0.0,0.0,0.0,0.0,0.0001343444135292,0.0001160377245527,0.0003401713526303,0.0,0.0,0.0,0.0,0.0,0.0,0.0,0.0,0.0,-1.7988686738994433e-08,-2.7044994352223365e-08,2.5946964140291803e-09,0.0,0.0,0.0,0.0,0.0,0.0,0.0,0.0,0.0
1.305,-0.00020808048178374089,-0.0003639588671284421,-0.0005656600710217674,0.03370931457865915,-0.0003909696324553117,1.0122233479079537,-0.02023802282012136,0.0011225201435373978,2.677138851615309e-07,-1.301928876076188e-05,32.0,1.0,237000000.0,odom,base_footprint,2.6705527443050305e-05,-4.476599137649001e-06,-0.0010023797498447,0.0033394245882689,0.0019370355811717,-0.8659488139773034,0.5001177338466197,"(1e-05, 0.0, 0.0, 0.0, 0.0, 0.0, 0.0, 1e-05, 0.0, 0.0, 0.0, 0.0, 0.0, 0.0, 1000000000000.0, 0.0, 0.0, 0.0, 0.0, 0.0, 0.0, 1000000000000.0, 0.0, 0.0, 0.0, 0.0, 0.0, 0.0, 1000000000000.0, 0.0, 0.0, 0.0, 0.0, 0.0, 0.0, 0.001)",-2.9355023221442707e-06,2.2219536196491435e-05,0.0,0.0,0.0,0.0003388530664421,"(0.0, 0.0, 0.0, 0.0, 0.0, 0.0, 0.0, 0.0, 0.0, 0.0, 0.0, 0.0, 0.0, 0.0, 0.0, 0.0, 0.0, 0.0, 0.0, 0.0, 0.0, 0.0, 0.0, 0.0, 0.0, 0.0, 0.0, 0.0, 0.0, 0.0, 0.0, 0.0, 0.0, 0.0, 0.0, 0.0)",0.2084210515022277,2.2219535821932368e-05,0.0,0.0,0.0,-0.2047893553972244,31,1,305000000,base_footprint,0.0033361306474197,0.0019344373242499,-0.8660875956937669,0.4998773897366553,0.0,0.0,0.0,0.0,0.0,0.0,0.0,0.0,0.0,0.0001901718839028,0.000302504262401,-0.0331879145931881,0.0,0.0,0.0,0.0,0.0,0.0,0.0,0.0,0.0,-0.3646800691837172,0.631662805000417,0.0027138116082804,0.0,0.0,0.0,0.0,0.0,0.0,0.0,0.0,0.0
1.339,-0.0006446607889150001,-0.0011160846185949,-0.0017438932847522182,0.06705426616983491,4.62236484800802e-05,1.0013498976329056,0.013128927355417173,0.0022329070029722784,5.197171889976878e-07,1.539247494386671e-06,34.0,1.0,304000000.0,odom,base_footprint,-0.0001807256859747,-0.0003686964041323,-0.0010021927656137,0.0033361306474197,0.0019344373242499,-0.8660875956937669,0.4998773897366553,"(1e-05, 0.0, 0.0, 0.0, 0.0, 0.0, 0.0, 1e-05, 0.0, 0.0, 0.0, 0.0, 0.0, 0.0, 1000000000000.0, 0.0, 0.0, 0.0, 0.0, 0.0, 0.0, 1000000000000.0, 0.0, 0.0, 0.0, 0.0, 0.0, 0.0, 1000000000000.0, 0.0, 0.0, 0.0, 0.0, 0.0, 0.0, 0.001)",0.0247960056331538,3.523191752411586e-05,0.0,0.0,0.0,-0.0331896812097351,"(0.0, 0.0, 0.0, 0.0, 0.0, 0.0, 0.0, 0.0, 0.0, 0.0, 0.0, 0.0, 0.0, 0.0, 0.0, 0.0, 0.0, 0.0, 0.0, 0.0, 0.0, 0.0, 0.0, 0.0, 0.0, 0.0, 0.0, 0.0, 0.0, 0.0, 0.0, 0.0, 0.0, 0.0, 0.0, 0.0)",0.2084210515022277,2.2219535821932368e-05,0.0,0.0,0.0,-0.2047893553972244,32,1,339000000,base_footprint,0.0033365559128714,0.0019309072994386,-0.8665231373227125,0.4991220206282679,0.0,0.0,0.0,0.0,0.0,0.0,0.0,0.0,0.0,0.0038596105903148,0.0024884008218603,-0.067939349426325,0.0,0.0,0.0,0.0,0.0,0.0,0.0,0.0,0.0,-0.3746541474089508,0.6570149695242798,0.0058565428072216,0.0,0.0,0.0,0.0,0.0,0.0,0.0,0.0,0.0
1.373,-0.0010850435176320999,-0.0018671984700467,-0.0029215236133559586,0.10312031068916469,4.775419991474937e-05,1.0830643999798732,4.596250554562066e-05,0.0034339062516793553,8.046272080140236e-07,1.5902148571611542e-06,36.0,1.0,371000000.0,odom,base_footprint,-0.0018721127055676,-0.003286264843619,-0.0010023811006519,0.0033417213516651,0.001927653405959,-0.8672257598413344,0.4979001893134552,"(1e-05, 0.0, 0.0, 0.0, 0.0, 0.0, 0.0, 1e-05, 0.0, 0.0, 0.0, 0.0, 0.0, 0.0, 1000000000000.0, 0.0, 0.0, 0.0, 0.0, 0.0, 0.0, 1000000000000.0, 0.0, 0.0, 0.0, 0.0, 0.0, 0.0, 1000000000000.0, 0.0, 0.0, 0.0, 0.0, 0.0, 0.0, 0.001)",0.0752386444942025,5.390492877595243e-05,0.0,0.0,0.0,-0.1014117626782775,"(0.0, 0.0, 0.0, 0.0, 0.0, 0.0, 0.0, 0.0, 0.0, 0.0, 0.0, 0.0, 0.0, 0.0, 0.0, 0.0, 0.0, 0.0, 0.0, 0.0, 0.0, 0.0, 0.0, 0.0, 0.0, 0.0, 0.0, 0.0, 0.0, 0.0, 0.0, 0.0, 0.0, 0.0, 0.0, 0.0)",0.2084210515022277,4.470124986255541e-05,0.0,0.0,0.0,-0.2062736451625823,33,1,373000000,base_footprint,0.0033400553977814,0.0019265070606862,-0.8672513080293682,0.4978557033135554,0.0,0.0,0.0,0.0,0.0,0.0,0.0,0.0,0.0,0.0040813898728109,0.0027364150846876,-0.1025646720870268,0.0,0.0,0.0,0.0,0.0,0.0,0.0,0.0,0.0,-0.3660423380027802,0.6570172437238536,0.0030221520752026,0.0,0.0,0.0,0.0,0.0,0.0,0.0,0.0,0.0
1.407,-0.0015282071995522,-0.0026078393036552,-0.0040968916020731605,0.13378084366432114,4.6091026892006874e-05,0.9207367259806739,-4.994513581809298e-05,0.004454901970086643,1.0508260985106315e-06,1.534831195503829e-06,36.0,1.0,371000000.0,odom,base_footprint,-0.0018721127055676,-0.003286264843619,-0.0010023811006519,0.0033417213516651,0.001927653405959,-0.8672257598413344,0.4979001893134552,"(1e-05, 0.0, 0.0, 0.0, 0.0, 0.0, 0.0, 1e-05, 0.0, 0.0, 0.0, 0.0, 0.0, 0.0, 1000000000000.0, 0.0, 0.0, 0.0, 0.0, 0.0, 0.0, 1000000000000.0, 0.0, 0.0, 0.0, 0.0, 0.0, 0.0, 1000000000000.0, 0.0, 0.0, 0.0, 0.0, 0.0, 0.0, 0.001)",0.0752386444942025,5.390492877595243e-05,0.0,0.0,0.0,-0.1014117626782775,"(0.0, 0.0, 0.0, 0.0, 0.0, 0.0, 0.0, 0.0, 0.0, 0.0, 0.0, 0.0, 0.0, 0.0, 0.0, 0.0, 0.0, 0.0, 0.0, 0.0, 0.0, 0.0, 0.0, 0.0, 0.0, 0.0, 0.0, 0.0, 0.0, 0.0, 0.0, 0.0, 0.0, 0.0, 0.0, 0.0)",0.2084210515022277,4.470124986255541e-05,0.0,0.0,0.0,-0.2062736451625823,34,1,407000000,base_footprint,0.0033442171256262,0.0019198810176108,-0.868269317024314,0.4960781424159162,0.0,0.0,0.0,0.0,0.0,0.0,0.0,0.0,0.0,0.0023612773861796,0.0019414304104082,-0.1372193477512868,0.0,0.0,0.0,0.0,0.0,0.0,0.0,0.0,0.0,-0.3483605831545331,0.6481125321213969,0.0028532639468518,0.0,0.0,0.0,0.0,0.0,0.0,0.0,0.0,0.0
1.441,-0.0019667312197567005,-0.0033196451883627,-0.005256418166255105,0.16714391147188515,4.474212769632175e-05,1.0018939281550754,-4.0507483353907596e-05,0.0055658920951788555,1.3213045747219768e-06,1.4899128522875145e-06,37.0,1.0,404000000.0,odom,base_footprint,-0.0033363949035197,-0.0057861293868057,-0.0010025344368637,0.0033465210927345,0.0019217494583911,-0.8682015158835121,0.4961967709418984,"(1e-05, 0.0, 0.0, 0.0, 0.0, 0.0, 0.0, 1e-05, 0.0, 0.0, 0.0, 0.0, 0.0, 0.0, 1000000000000.0, 0.0, 0.0, 0.0, 0.0, 0.0, 0.0, 1000000000000.0, 0.0, 0.0, 0.0, 0.0, 0.0, 0.0, 1000000000000.0, 0.0, 0.0, 0.0, 0.0, 0.0, 0.0, 0.001)",0.0996522780101654,6.075932850288512e-05,0.0,0.0,0.0,-0.1348598127689156,"(0.0, 0.0, 0.0, 0.0, 0.0, 0.0, 0.0, 0.0, 0.0, 0.0, 0.0, 0.0, 0.0, 0.0, 0.0, 0.0, 0.0, 0.0, 0.0, 0.0, 0.0, 0.0, 0.0, 0.0, 0.0, 0.0, 0.0, 0.0, 0.0, 0.0, 0.0, 0.0, 0.0, 0.0, 0.0, 0.0)",0.2084210515022277,4.470124986255541e-05,0.0,0.0,0.0,-0.2062736451625823,35,1,441000000,base_footprint,0.0033511000377543,0.0019121570334114,-0.8695701066145526,0.4937944344222323,0.0,0.0,0.0,0.0,0.0,0.0,0.0,0.0,0.0,0.0008625084081394,0.0013217646745613,-0.1709890195821807,0.0,0.0,0.0,0.0,0.0,0.0,0.0,0.0,0.0,-0.3194433124834256,0.624693748298801,0.0008709807800974,0.0,0.0,0.0,0.0,0.0,0.0,0.0,0.0,0.0
1.475,-0.0023858608613665996,-0.0039734503406567995,-0.006361190285386619,0.20109601554257908,-0.06428960049381849,1.0195827048256436,-1.9319622408863306,0.0066964937194385725,-5.573383781479265e-06,-0.0021408436964441557,38.0,1.0,437000000.0,odom,base_footprint,-0.0052144613744352,-0.0089590080139418,-0.0010027341919239,0.0033527632356849,0.0019142016975162,-0.869444244362708,0.4940159924082485,"(1e-05, 0.0, 0.0, 0.0, 0.0, 0.0, 0.0, 1e-05, 0.0, 0.0, 0.0, 0.0, 0.0, 0.0, 1000000000000.0, 0.0, 0.0, 0.0, 0.0, 0.0, 0.0, 1000000000000.0, 0.0, 0.0, 0.0, 0.0, 0.0, 0.0, 1000000000000.0, 0.0, 0.0, 0.0, 0.0, 0.0, 0.0, 0.001)",0.1229931052409567,6.453067856282413e-05,0.0,0.0,0.0,-0.1676326271511728,"(0.0, 0.0, 0.0, 0.0, 0.0, 0.0, 0.0, 0.0, 0.0, 0.0, 0.0, 0.0, 0.0, 0.0, 0.0, 0.0, 0.0, 0.0, 0.0, 0.0, 0.0, 0.0, 0.0, 0.0, 0.0, 0.0, 0.0, 0.0, 0.0, 0.0, 0.0, 0.0, 0.0, 0.0, 0.0, 0.0)",0.2199999988079071,6.453067908296362e-05,0.0,0.0,0.0,-0.3399403095245361,36,1,475000000,base_footprint,0.0033594268216327,0.001902882542444,-0.8711362566502783,0.4910261863065965,0.0,0.0,0.0,0.0,0.0,0.0,0.0,0.0,0.0,0.0009901892663759,0.0014777623875836,-0.2019116431995768,0.0,0.0,0.0,0.0,0.0,0.0,0.0,0.0,0.0,-0.2734737691640032,0.5728492658576202,0.0025379578092458,0.0,0.0,0.0,0.0,0.0,0.0,0.0,0.0,0.0
1.509,-0.0027612269273372993,-0.0045271693685878,-0.007263855688375731,0.21801433169764167,-0.3368385602037205,0.5080575421940717,-8.184653444741802,0.0072596344021535,-5.452862992204898e-05,-0.011216724054783894,38.0,1.0,437000000.0,odom,base_footprint,-0.0052144613744352,-0.0089590080139418,-0.0010027341919239,0.0033527632356849,0.0019142016975162,-0.869444244362708,0.4940159924082485,"(1e-05, 0.0, 0.0, 0.0, 0.0, 0.0, 0.0, 1e-05, 0.0, 0.0, 0.0, 0.0, 0.0, 0.0, 1000000000000.0, 0.0, 0.0, 0.0, 0.0, 0.0, 0.0, 1000000000000.0, 0.0, 0.0, 0.0, 0.0, 0.0, 0.0, 1000000000000.0, 0.0, 0.0, 0.0, 0.0, 0.0, 0.0, 0.001)",0.1229931052409567,6.453067856282413e-05,0.0,0.0,0.0,-0.1676326271511728,"(0.0, 0.0, 0.0, 0.0, 0.0, 0.0, 0.0, 0.0, 0.0, 0.0, 0.0, 0.0, 0.0, 0.0, 0.0, 0.0, 0.0, 0.0, 0.0, 0.0, 0.0, 0.0, 0.0, 0.0, 0.0, 0.0, 0.0, 0.0, 0.0, 0.0, 0.0, 0.0, 0.0, 0.0, 0.0, 0.0)",0.2199999988079071,6.453067908296362e-05,0.0,0.0,0.0,-0.3399403095245361,37,1,509000000,base_footprint,0.0033701235551036,0.0018935138957389,-0.872913861784926,0.4878590439625742,0.0,0.0,0.0,0.0,0.0,0.0,0.0,0.0,0.0,0.0009595194895271,0.0015036651157124,-0.2219235108876666,0.0,0.0,0.0,0.0,0.0,0.0,0.0,0.0,0.0,-0.2058745153444582,0.4769685126446454,0.0015603274841036,0.0,0.0,0.0,0.0,0.0,0.0,0.0,0.0,0.0
1.5430000000000001,-0.0030624406935302,-0.004936688323813401,-0.007615014544414044,0.21801416981064858,-0.3368413244378319,-4.861471263922262e-06,-8.301003337493626e-05,0.007258560705344261,-0.00013595304114391671,-0.011216816103779803,40.0,1.0,504000000.0,odom,base_footprint,-0.0102102321430504,-0.0172230034703072,-0.0010032538933954,0.0033690567046772,0.0018947913829012,-0.8726977290361994,0.4882455662446882,"(1e-05, 0.0, 0.0, 0.0, 0.0, 0.0, 0.0, 1e-05, 0.0, 0.0, 0.0, 0.0, 0.0, 0.0, 1000000000000.0, 0.0, 0.0, 0.0, 0.0, 0.0, 0.0, 1000000000000.0, 0.0, 0.0, 0.0, 0.0, 0.0, 0.0, 1000000000000.0, 0.0, 0.0, 0.0, 0.0, 0.0, 0.0, 0.001)",0.1623216579167268,5.3036223329694376e-05,0.0,0.0,0.0,-0.2204972606857625,"(0.0, 0.0, 0.0, 0.0, 0.0, 0.0, 0.0, 0.0, 0.0, 0.0, 0.0, 0.0, 0.0, 0.0, 0.0, 0.0, 0.0, 0.0, 0.0, 0.0, 0.0, 0.0, 0.0, 0.0, 0.0, 0.0, 0.0, 0.0, 0.0, 0.0, 0.0, 0.0, 0.0, 0.0, 0.0, 0.0)",0.2199999988079071,6.453067908296362e-05,0.0,0.0,0.0,-0.3399403095245361,38,1,543000000,base_footprint,0.0033792527376914,0.0018824819751863,-0.8747650468482586,0.4845318872118861,0.0,0.0,0.0,0.0,0.0,0.0,0.0,0.0,0.0,0.0010118008772246,0.0014295124065459,-0.2222671813053655,0.0,0.0,0.0,0.0,0.0,0.0,0.0,0.0,0.0,-0.1216355063978119,0.3369439832239776,0.0016401360316962,0.0,0.0,0.0,0.0,0.0,0.0,0.0,0.0,0.0
1.577,-0.003261283242998101,-0.005165245946776399,-0.007222828926928049,0.22462080057871062,-0.34705764323522265,0.19839732036222318,-0.30679636028200497,0.007476439564948389,-0.00022521923695424694,-0.011557019519732915,42.0,1.0,571000000.0,odom,base_footprint,-0.0163891970369045,-0.0271153015773777,-0.0010033423504509,0.0033842906238475,0.0018716098639537,-0.8762670018372303,0.481810320712085,"(1e-05, 0.0, 0.0, 0.0, 0.0, 0.0, 0.0, 1e-05, 0.0, 0.0, 0.0, 0.0, 0.0, 0.0, 1000000000000.0, 0.0, 0.0, 0.0, 0.0, 0.0, 0.0, 1000000000000.0, 0.0, 0.0, 0.0, 0.0, 0.0, 0.0, 1000000000000.0, 0.0, 0.0, 0.0, 0.0, 0.0, 0.0, 0.001)",0.1814273264576998,-4.522624367288286e-05,0.0,0.0,0.0,-0.2041056668453141,"(0.0, 0.0, 0.0, 0.0, 0.0, 0.0, 0.0, 0.0, 0.0, 0.0, 0.0, 0.0, 0.0, 0.0, 0.0, 0.0, 0.0, 0.0, 0.0, 0.0, 0.0, 0.0, 0.0, 0.0, 0.0, 0.0, 0.0, 0.0, 0.0, 0.0, 0.0, 0.0, 0.0, 0.0, 0.0, 0.0)",0.2199999988079071,3.3874515793286264e-05,0.0,0.0,0.0,-0.2482429295778274,39,1,577000000,base_footprint,0.0033839352972547,0.0018671705977426,-0.876509198505505,0.4813695956238827,0.0,0.0,0.0,0.0,0.0,0.0,0.0,0.0,0.0,0.0014149786196212,0.0022424037422423,-0.1991058548472368,0.0,0.0,0.0,0.0,0.0,0.0,0.0,0.0,0.0,-0.0362003880028222,0.1633898075502999,0.0027531333483237,0.0,0.0,0.0,0.0,0.0,0.0,0.0,0.0,0.0
1.611,-0.003330946737494799,-0.005217340837004897,-0.006359331135047164,0.2180112453014571,-0.24595153276226822,-0.1984851434610665,3.0362195337223548,0.007253950527994964,-0.0002902282871641349,-0.008190186040983533,42.0,1.0,571000000.0,odom,base_footprint,-0.0163891970369045,-0.0271153015773777,-0.0010033423504509,0.0033842906238475,0.0018716098639537,-0.8762670018372303,0.481810320712085,"(1e-05, 0.0, 0.0, 0.0, 0.0, 0.0, 0.0, 1e-05, 0.0, 0.0, 0.0, 0.0, 0.0, 0.0, 1000000000000.0, 0.0, 0.0, 0.0, 0.0, 0.0, 0.0, 1000000000000.0, 0.0, 0.0, 0.0, 0.0, 0.0, 0.0, 1000000000000.0, 0.0, 0.0, 0.0, 0.0, 0.0, 0.0, 0.001)",0.1814273264576998,-4.522624367288286e-05,0.0,0.0,0.0,-0.2041056668453141,"(0.0, 0.0, 0.0, 0.0, 0.0, 0.0, 0.0, 0.0, 0.0, 0.0, 0.0, 0.0, 0.0, 0.0, 0.0, 0.0, 0.0, 0.0, 0.0, 0.0, 0.0, 0.0, 0.0, 0.0, 0.0, 0.0, 0.0, 0.0, 0.0, 0.0, 0.0, 0.0, 0.0, 0.0, 0.0, 0.0)",0.2199999988079071,3.3874515793286264e-05,0.0,0.0,0.0,-0.2482429295778274,40,1,611000000,base_footprint,0.0033829057009702,0.0018463503940835,-0.8780354065706161,0.4785801623005424,0.0,0.0,0.0,0.0,0.0,0.0,0.0,0.0,0.0,0.0010163378986905,0.0006576691704471,-0.1915274750221881,0.0,0.0,0.0,0.0,0.0,0.0,0.0,0.0,0.0,0.0080865994667361,0.0173026279945291,-0.0023070419688437,0.0,0.0,0.0,0.0,0.0,0.0,0.0,0.0,0.0
1.645,-0.0033806069401747,-0.005228328692847402,-0.007783544835215926,0.2180153815013387,-0.2460354973834503,0.00012421020665463032,-0.002521460095557655,0.007251467310461515,-0.00034964586350733805,-0.008192982062868896,44.0,1.0,637000000.0,odom,base_footprint,-0.0228823035091024,-0.0372466792293308,-0.0010012615437845,0.0033801942801204,0.0018451937506729,-0.8794582594080675,0.4759604390131423,"(1e-05, 0.0, 0.0, 0.0, 0.0, 0.0, 0.0, 1e-05, 0.0, 0.0, 0.0, 0.0, 0.0, 0.0, 1000000000000.0, 0.0, 0.0, 0.0, 0.0, 0.0, 0.0, 1000000000000.0, 0.0, 0.0, 0.0, 0.0, 0.0, 0.0, 1000000000000.0, 0.0, 0.0, 0.0, 0.0, 0.0, 0.0, 0.001)",0.1837729331548648,0.0002840745585132,0.0,0.0,0.0,-0.250762757283155,"(0.0, 0.0, 0.0, 0.0, 0.0, 0.0, 0.0, 0.0, 0.0, 0.0, 0.0, 0.0, 0.0, 0.0, 0.0, 0.0, 0.0, 0.0, 0.0, 0.0, 0.0, 0.0, 0.0, 0.0, 0.0, 0.0, 0.0, 0.0, 0.0, 0.0, 0.0, 0.0, 0.0, 0.0, 0.0, 0.0)",0.2199999988079071,3.3874515793286264e-05,0.0,0.0,0.0,-0.2482429295778274,41,1,645000000,base_footprint,0.0033821951866532,0.001841870153726,-0.8798912661743848,0.4751594763656662,0.0,0.0,0.0,0.0,0.0,0.0,0.0,0.0,0.0,0.001262475603628,0.001805579111815,-0.2672589526856245,0.0,0.0,0.0,0.0,0.0,0.0,0.0,0.0,0.0,0.0185407924729774,0.0936401253773765,0.0011627127223073,0.0,0.0,0.0,0.0,0.0,0.0,0.0,0.0,0.0
1.679,-0.0035395685913777,-0.005350241483451104,-0.010562683227206549,0.22462350511460405,-0.2534475987564558,0.19844215054850894,-0.2225856268169817,0.007468006323596026,-0.0004223644616444516,-0.008439805038589978,44.0,1.0,637000000.0,odom,base_footprint,-0.0228823035091024,-0.0372466792293308,-0.0010012615437845,0.0033801942801204,0.0018451937506729,-0.8794582594080675,0.4759604390131423,"(1e-05, 0.0, 0.0, 0.0, 0.0, 0.0, 0.0, 1e-05, 0.0, 0.0, 0.0, 0.0, 0.0, 0.0, 1000000000000.0, 0.0, 0.0, 0.0, 0.0, 0.0, 0.0, 1000000000000.0, 0.0, 0.0, 0.0, 0.0, 0.0, 0.0, 1000000000000.0, 0.0, 0.0, 0.0, 0.0, 0.0, 0.0, 0.001)",0.1837729331548648,0.0002840745585132,0.0,0.0,0.0,-0.250762757283155,"(0.0, 0.0, 0.0, 0.0, 0.0, 0.0, 0.0, 0.0, 0.0, 0.0, 0.0, 0.0, 0.0, 0.0, 0.0, 0.0, 0.0, 0.0, 0.0, 0.0, 0.0, 0.0, 0.0, 0.0, 0.0, 0.0, 0.0, 0.0, 0.0, 0.0, 0.0, 0.0, 0.0, 0.0, 0.0, 0.0)",0.2084210515022277,0.0004713326634373,0.0,0.0,0.0,-0.2257886976003646,42,1,679000000,base_footprint,0.0033929860305958,0.0018249573020428,-0.8823884573221099,0.4705058634718051,0.0,0.0,0.0,0.0,0.0,0.0,0.0,0.0,0.0,0.0022345859426182,0.0024656374447712,-0.352648906814393,0.0,0.0,0.0,0.0,0.0,0.0,0.0,0.0,0.0,-0.0382358943315142,0.2505057055536784,0.0022154010257964,0.0,0.0,0.0,0.0,0.0,0.0,0.0,0.0,0.0
1.713,-0.0037825280490729023,-0.0055693826101849975,-0.012573488984791046,0.20634482558071937,-0.22126478946355463,-0.5489092953118522,0.9664507295165511,0.006857023131933085,-0.0004422058305951628,-0.00736811748913637,45.0,1.0,671000000.0,odom,base_footprint,-0.0263797303406979,-0.0425588121109322,-0.0010016733210615,0.0033911611817229,0.0018295224536787,-0.8818198242362267,0.4715707268877292,"(1e-05, 0.0, 0.0, 0.0, 0.0, 0.0, 0.0, 1e-05, 0.0, 0.0, 0.0, 0.0, 0.0, 0.0, 1000000000000.0, 0.0, 0.0, 0.0, 0.0, 0.0, 0.0, 1000000000000.0, 0.0, 0.0, 0.0, 0.0, 0.0, 0.0, 1000000000000.0, 0.0, 0.0, 0.0, 0.0, 0.0, 0.0, 0.001)",0.1910177277016642,0.0002253671373164,0.0,0.0,0.0,-0.3346246326731326,"(0.0, 0.0, 0.0, 0.0, 0.0, 0.0, 0.0, 0.0, 0.0, 0.0, 0.0, 0.0, 0.0, 0.0, 0.0, 0.0, 0.0, 0.0, 0.0, 0.0, 0.0, 0.0, 0.0, 0.0, 0.0, 0.0, 0.0, 0.0, 0.0, 0.0, 0.0, 0.0, 0.0, 0.0, 0.0, 0.0)",0.2084210515022277,0.0004713326634373,0.0,0.0,0.0,-0.2257886976003646,43,1,713000000,base_footprint,0.0034090415758071,0.0018088938169347,-0.8853289235596363,0.464949248249128,0.0,0.0,0.0,0.0,0.0,0.0,0.0,0.0,0.0,0.0018015809347277,0.0024141703908822,-0.348207889084118,0.0,0.0,0.0,0.0,0.0,0.0,0.0,0.0,0.0,-0.0162739751708118,0.2460454317634826,0.0012077660218607,0.0,0.0,0.0,0.0,0.0,0.0,0.0,0.0,0.0
1.7469999999999999,-0.003977931473982295,-0.005709408474807297,-0.010217290698222746,0.20627223965689667,-0.2203535091936134,-0.00217975747215312,0.027365773872108784,0.006851175523051565,-0.0004924394566911206,-0.007337771856147327,46.0,1.0,704000000.0,odom,base_footprint,-0.0300015724725366,-0.0479240753253758,-0.0010024570002244,0.0034057924117776,0.001814125449321,-0.8846649975471788,0.4662112736107445,"(1e-05, 0.0, 0.0, 0.0, 0.0, 0.0, 0.0, 1e-05, 0.0, 0.0, 0.0, 0.0, 0.0, 0.0, 1000000000000.0, 0.0, 0.0, 0.0, 0.0, 0.0, 0.0, 1000000000000.0, 0.0, 0.0, 0.0, 0.0, 0.0, 0.0, 1000000000000.0, 0.0, 0.0, 0.0, 0.0, 0.0, 0.0, 0.001)",0.1999144615939766,0.0001734805824278,0.0,0.0,0.0,-0.3662220595740904,"(0.0, 0.0, 0.0, 0.0, 0.0, 0.0, 0.0, 0.0, 0.0, 0.0, 0.0, 0.0, 0.0, 0.0, 0.0, 0.0, 0.0, 0.0, 0.0, 0.0, 0.0, 0.0, 0.0, 0.0, 0.0, 0.0, 0.0, 0.0, 0.0, 0.0, 0.0, 0.0, 0.0, 0.0, 0.0, 0.0)",0.2084210515022277,0.0004713326634373,0.0,0.0,0.0,-0.2257886976003646,43,1,713000000,base_footprint,0.0034090415758071,0.0018088938169347,-0.8853289235596363,0.464949248249128,0.0,0.0,0.0,0.0,0.0,0.0,0.0,0.0,0.0,0.0018015809347277,0.0024141703908822,-0.348207889084118,0.0,0.0,0.0,0.0,0.0,0.0,0.0,0.0,0.0,-0.0162739751708118,0.2460454317634826,0.0012077660218607,0.0,0.0,0.0,0.0,0.0,0.0,0.0,0.0,0.0
1.7810000000000001,-0.004107826117679,-0.005785173607045703,-0.00776588471374584,0.2124098316951408,-0.23092950261523856,0.18431207322054435,-0.3175974000488035,0.007051020079913425,-0.0005600874941179376,-0.007689952437087445,46.0,1.0,704000000.0,odom,base_footprint,-0.0300015724725366,-0.0479240753253758,-0.0010024570002244,0.0034057924117776,0.001814125449321,-0.8846649975471788,0.4662112736107445,"(1e-05, 0.0, 0.0, 0.0, 0.0, 0.0, 0.0, 1e-05, 0.0, 0.0, 0.0, 0.0, 0.0, 0.0, 1000000000000.0, 0.0, 0.0, 0.0, 0.0, 0.0, 0.0, 1000000000000.0, 0.0, 0.0, 0.0, 0.0, 0.0, 0.0, 1000000000000.0, 0.0, 0.0, 0.0, 0.0, 0.0, 0.0, 0.001)",0.1999144615939766,0.0001734805824278,0.0,0.0,0.0,-0.3662220595740904,"(0.0, 0.0, 0.0, 0.0, 0.0, 0.0, 0.0, 0.0, 0.0, 0.0, 0.0, 0.0, 0.0, 0.0, 0.0, 0.0, 0.0, 0.0, 0.0, 0.0, 0.0, 0.0, 0.0, 0.0, 0.0, 0.0, 0.0, 0.0, 0.0, 0.0, 0.0, 0.0, 0.0, 0.0, 0.0, 0.0)",0.1852631568908691,0.0001272220542887,0.0,0.0,0.0,-0.1890163123607635,45,1,781000000,base_footprint,0.0034411191273437,0.0017780464265015,-0.8894736750597255,0.4569699975116557,0.0,0.0,0.0,0.0,0.0,0.0,0.0,0.0,0.0,0.0049134753218176,0.0022455546574695,-0.2170174596480855,0.0,0.0,0.0,0.0,0.0,0.0,0.0,0.0,0.0,0.1047442981486592,-0.1596803090565159,0.0006501726820247,0.0,0.0,0.0,0.0,0.0,0.0,0.0,0.0,0.0
1.815,-0.003762319117044402,-0.005220244557968004,-0.006178903752644515,0.17258001116507266,-0.02426775798546042,-1.1960907066086528,6.206058397290635,0.005726883655837914,-0.00047940232780018053,-0.000808116340915832,48.0,1.0,771000000.0,odom,base_footprint,-0.0379205896689536,-0.0592370561306672,-0.0010028014622384,0.0034296536516365,0.001778191060608,-0.8890172200190365,0.4578574647442211,"(1e-05, 0.0, 0.0, 0.0, 0.0, 0.0, 0.0, 1e-05, 0.0, 0.0, 0.0, 0.0, 0.0, 0.0, 1000000000000.0, 0.0, 0.0, 0.0, 0.0, 0.0, 0.0, 1000000000000.0, 0.0, 0.0, 0.0, 0.0, 0.0, 0.0, 1000000000000.0, 0.0, 0.0, 0.0, 0.0, 0.0, 0.0, 0.001)",0.2101261029745399,0.0001508643954817,0.0,0.0,0.0,-0.2277956421405468,"(0.0, 0.0, 0.0, 0.0, 0.0, 0.0, 0.0, 0.0, 0.0, 0.0, 0.0, 0.0, 0.0, 0.0, 0.0, 0.0, 0.0, 0.0, 0.0, 0.0, 0.0, 0.0, 0.0, 0.0, 0.0, 0.0, 0.0, 0.0, 0.0, 0.0, 0.0, 0.0, 0.0, 0.0, 0.0, 0.0)",0.1852631568908691,0.0001272220542887,0.0,0.0,0.0,-0.1890163123607635,46,1,815000000,base_footprint,0.0034318118301851,0.0017633193407975,-0.8908812611491859,0.4542198717644362,0.0,0.0,0.0,0.0,0.0,0.0,0.0,0.0,0.0,-0.0020902844557802,0.000736625638172,-0.1897842485179935,0.0,0.0,0.0,0.0,0.0,0.0,0.0,0.0,0.0,0.1768051548660454,-0.4247623786630288,-0.0065575806828458,0.0,0.0,0.0,0.0,0.0,0.0,0.0,0.0,0.0
1.8490000000000002,-0.003747373703704898,-0.0051335050854211944,-0.006499996693451136,0.18341714847871546,-0.1886770476340748,0.32543955896825233,-4.937215905363796,0.0060846479371504955,-0.0005310821056013758,-0.006282945686214692,50.0,1.0,837000000.0,odom,base_footprint,-0.0452888919049598,-0.0694373006973124,-0.0010026524616231,0.0034394443553097,0.0017566165091694,-0.8918778308329981,0.4522599024782013,"(1e-05, 0.0, 0.0, 0.0, 0.0, 0.0, 0.0, 1e-05, 0.0, 0.0, 0.0, 0.0, 0.0, 0.0, 1000000000000.0, 0.0, 0.0, 0.0, 0.0, 0.0, 0.0, 1000000000000.0, 0.0, 0.0, 0.0, 0.0, 0.0, 0.0, 1000000000000.0, 0.0, 0.0, 0.0, 0.0, 0.0, 0.0, 0.001)",0.1869469651575931,8.738831082837073e-05,0.0,0.0,0.0,-0.1911538178044759,"(0.0, 0.0, 0.0, 0.0, 0.0, 0.0, 0.0, 0.0, 0.0, 0.0, 0.0, 0.0, 0.0, 0.0, 0.0, 0.0, 0.0, 0.0, 0.0, 0.0, 0.0, 0.0, 0.0, 0.0, 0.0, 0.0, 0.0, 0.0, 0.0, 0.0, 0.0, 0.0, 0.0, 0.0, 0.0, 0.0)",0.1852631568908691,0.0001272220542887,0.0,0.0,0.0,-0.1890163123607635,47,1,849000000,base_footprint,0.003441171747131,0.001753182016978,-0.8923527558813357,0.4513221064393006,0.0,0.0,0.0,0.0,0.0,0.0,0.0,0.0,0.0,0.0010449828136377,0.0011527048059963,-0.1911938808003079,0.0,0.0,0.0,0.0,0.0,0.0,0.0,0.0,0.0,0.0292691601295612,0.0277003595139504,0.0034014088616673,0.0,0.0,0.0,0.0,0.0,0.0,0.0,0.0,0.0
1.883,-0.0038118917158197,-0.0051498170861699055,-0.0065434160266715224,0.18918039984726628,-0.19518826726262323,0.17307061166819296,-0.19553212097743003,0.0062722071421945705,-0.0005878691182638467,-0.006499769299845354,50.0,1.0,837000000.0,odom,base_footprint,-0.0452888919049598,-0.0694373006973124,-0.0010026524616231,0.0034394443553097,0.0017566165091694,-0.8918778308329981,0.4522599024782013,"(1e-05, 0.0, 0.0, 0.0, 0.0, 0.0, 0.0, 1e-05, 0.0, 0.0, 0.0, 0.0, 0.0, 0.0, 1000000000000.0, 0.0, 0.0, 0.0, 0.0, 0.0, 0.0, 1000000000000.0, 0.0, 0.0, 0.0, 0.0, 0.0, 0.0, 1000000000000.0, 0.0, 0.0, 0.0, 0.0, 0.0, 0.0, 0.001)",0.1869469651575931,8.738831082837073e-05,0.0,0.0,0.0,-0.1911538178044759,"(0.0, 0.0, 0.0, 0.0, 0.0, 0.0, 0.0, 0.0, 0.0, 0.0, 0.0, 0.0, 0.0, 0.0, 0.0, 0.0, 0.0, 0.0, 0.0, 0.0, 0.0, 0.0, 0.0, 0.0, 0.0, 0.0, 0.0, 0.0, 0.0, 0.0, 0.0, 0.0, 0.0, 0.0, 0.0, 0.0)",0.2199999988079071,8.738831093069166e-05,0.0,0.0,0.0,-0.1665384322404861,48,1,883000000,base_footprint,0.0034438224160086,0.0017410123047995,-0.8938245813785506,0.4484001858683606,0.0,0.0,0.0,0.0,0.0,0.0,0.0,0.0,0.0,0.0007583704056652,0.0020317838897623,-0.1932026014421319,0.0,0.0,0.0,0.0,0.0,0.0,0.0,0.0,0.0,-0.0308142756938901,0.2273750893147753,0.0026243805752008,0.0,0.0,0.0,0.0,0.0,0.0,0.0,0.0,0.0
1.917,-0.004128605153716505,-0.005510743148064698,-0.0038769693839197927,0.20565490109470314,-0.01633740909664985,0.49472976719029577,5.3708966416208215,0.006816132135855493,-0.0006630737820076802,-0.00054403572291844,52.0,1.0,904000000.0,odom,base_footprint,-0.0529454405132645,-0.0797592406382855,-0.0010026957469746,0.00344791890223,0.0017371922114416,-0.8944876809461547,0.4470759249322584,"(1e-05, 0.0, 0.0, 0.0, 0.0, 0.0, 0.0, 1e-05, 0.0, 0.0, 0.0, 0.0, 0.0, 0.0, 1000000000000.0, 0.0, 0.0, 0.0, 0.0, 0.0, 0.0, 1000000000000.0, 0.0, 0.0, 0.0, 0.0, 0.0, 0.0, 1000000000000.0, 0.0, 0.0, 0.0, 0.0, 0.0, 0.0, 0.001)",0.2036048997392232,2.5987156346996e-05,0.0,0.0,0.0,-0.0765529288164713,"(0.0, 0.0, 0.0, 0.0, 0.0, 0.0, 0.0, 0.0, 0.0, 0.0, 0.0, 0.0, 0.0, 0.0, 0.0, 0.0, 0.0, 0.0, 0.0, 0.0, 0.0, 0.0, 0.0, 0.0, 0.0, 0.0, 0.0, 0.0, 0.0, 0.0, 0.0, 0.0, 0.0, 0.0, 0.0, 0.0)",0.2199999988079071,8.738831093069166e-05,0.0,0.0,0.0,-0.1665384322404861,49,1,917000000,base_footprint,0.0034471969658543,0.0017350441589073,-0.8946921161426864,0.4466666808336694,0.0,0.0,0.0,0.0,0.0,0.0,0.0,0.0,0.0,0.000663488895172,0.0004972640324939,-0.0751301142304077,0.0,0.0,0.0,0.0,0.0,0.0,0.0,0.0,0.0,-0.1176264016171872,0.4955954964167233,0.0013421230248591,0.0,0.0,0.0,0.0,0.0,0.0,0.0,0.0,0.0
1.951,-0.004485033387081595,-0.005944035917027496,-0.004683642382478759,0.21799359024390616,-0.16517765361717174,0.3705312056817725,-4.469677012628284,0.007222913815291057,-0.0007246879340001917,-0.005500415865451819,53.0,1.0,937000000.0,odom,base_footprint,-0.0571889875673941,-0.0853982351195059,-0.0010027456654656,0.0034513443226105,0.0017314265773485,-0.8952448615762194,0.4455577720181188,"(1e-05, 0.0, 0.0, 0.0, 0.0, 0.0, 0.0, 1e-05, 0.0, 0.0, 0.0, 0.0, 0.0, 0.0, 1000000000000.0, 0.0, 0.0, 0.0, 0.0, 0.0, 0.0, 1000000000000.0, 0.0, 0.0, 0.0, 0.0, 0.0, 0.0, 1000000000000.0, 0.0, 0.0, 0.0, 0.0, 0.0, 0.0, 0.001)",0.2212208080147309,0.0001078793373543,0.0,0.0,0.0,-0.1623024126639911,"(0.0, 0.0, 0.0, 0.0, 0.0, 0.0, 0.0, 0.0, 0.0, 0.0, 0.0, 0.0, 0.0, 0.0, 0.0, 0.0, 0.0, 0.0, 0.0, 0.0, 0.0, 0.0, 0.0, 0.0, 0.0, 0.0, 0.0, 0.0, 0.0, 0.0, 0.0, 0.0, 0.0, 0.0, 0.0, 0.0)",0.2199999988079071,8.738831093069166e-05,0.0,0.0,0.0,-0.1665384322404861,50,1,951000000,base_footprint,0.0034590300733846,0.0017321225839792,-0.8957356412729615,0.4445702372129989,0.0,0.0,0.0,0.0,0.0,0.0,0.0,0.0,0.0,0.000358384186157,0.0005195296553718,-0.1694445478654532,0.0,0.0,0.0,0.0,0.0,0.0,0.0,0.0,0.0,-0.0541737531266069,0.2947823955474244,-0.0001916150210923,0.0,0.0,0.0,0.0,0.0,0.0,0.0,0.0,0.0
1.985,-0.004578170945685599,-0.005996850058892597,-0.005186313462955726,0.22508333077635653,-0.1720275868637748,0.21290512109460577,-0.2057037010991914,0.00745350310781058,-0.0007901163460874204,-0.005728518642563702,53.0,1.0,937000000.0,odom,base_footprint,-0.0571889875673941,-0.0853982351195059,-0.0010027456654656,0.0034513443226105,0.0017314265773485,-0.8952448615762194,0.4455577720181188,"(1e-05, 0.0, 0.0, 0.0, 0.0, 0.0, 0.0, 1e-05, 0.0, 0.0, 0.0, 0.0, 0.0, 0.0, 1000000000000.0, 0.0, 0.0, 0.0, 0.0, 0.0, 0.0, 1000000000000.0, 0.0, 0.0, 0.0, 0.0, 0.0, 0.0, 1000000000000.0, 0.0, 0.0, 0.0, 0.0, 0.0, 0.0, 0.001)",0.2212208080147309,0.0001078793373543,0.0,0.0,0.0,-0.1623024126639911,"(0.0, 0.0, 0.0, 0.0, 0.0, 0.0, 0.0, 0.0, 0.0, 0.0, 0.0, 0.0, 0.0, 0.0, 0.0, 0.0, 0.0, 0.0, 0.0, 0.0, 0.0, 0.0, 0.0, 0.0, 0.0, 0.0, 0.0, 0.0, 0.0, 0.0, 0.0, 0.0, 0.0, 0.0, 0.0, 0.0)",0.2199999988079071,0.0001078793357009,0.0,0.0,0.0,-0.121276780962944,51,1,985000000,base_footprint,0.003468955347985,0.0017297402503536,-0.8968854354214322,0.4422459610628093,0.0,0.0,0.0,0.0,0.0,0.0,0.0,0.0,0.0,0.0009402654234443,0.0017817240705788,-0.1182334175188489,0.0,0.0,0.0,0.0,0.0,0.0,0.0,0.0,0.0,0.0409949828900984,-0.0117817374892089,0.0030545795824083,0.0,0.0,0.0,0.0,0.0,0.0,0.0,0.0,0.0
2.019,-0.004597563961023607,-0.005966566469320103,-0.004096117213156614,0.2185459480704851,-0.12180023642181928,-0.19631779897511786,1.5083288421007666,0.007233186673010064,-0.0008025644103353206,-0.004055947872846582,55.0,2.0,4000000.0,odom,base_footprint,-0.0662104489855361,-0.0972095218705858,-0.0010044191711184,0.0034706317646653,0.0017232114222911,-0.8974195740633701,0.4411610741503237,"(1e-05, 0.0, 0.0, 0.0, 0.0, 0.0, 0.0, 1e-05, 0.0, 0.0, 0.0, 0.0, 0.0, 0.0, 1000000000000.0, 0.0, 0.0, 0.0, 0.0, 0.0, 0.0, 1000000000000.0, 0.0, 0.0, 0.0, 0.0, 0.0, 0.0, 1000000000000.0, 0.0, 0.0, 0.0, 0.0, 0.0, 0.0, 0.001)",0.2215950000922002,5.458217487851191e-05,0.0,0.0,0.0,-0.1207782879604252,"(0.0, 0.0, 0.0, 0.0, 0.0, 0.0, 0.0, 0.0, 0.0, 0.0, 0.0, 0.0, 0.0, 0.0, 0.0, 0.0, 0.0, 0.0, 0.0, 0.0, 0.0, 0.0, 0.0, 0.0, 0.0, 0.0, 0.0, 0.0, 0.0, 0.0, 0.0, 0.0, 0.0, 0.0, 0.0, 0.0)",0.2199999988079071,0.0001078793357009,0.0,0.0,0.0,-0.121276780962944,52,2,19000000,base_footprint,0.0034731717476067,0.0017209039107185,-0.8977893031324148,0.4404081547255397,0.0,0.0,0.0,0.0,0.0,0.0,0.0,0.0,0.0,0.0006423661497743,0.0007935117639472,-0.118962322241402,0.0,0.0,0.0,0.0,0.0,0.0,0.0,0.0,0.0,0.0257473896001865,0.0092885681324238,-0.0014493463746581,0.0,0.0,0.0,0.0,0.0,0.0,0.0,0.0,0.0
2.053,-0.004613557582104397,-0.005942575442879697,-0.003976000358923759,0.21843136083555784,-0.11861096593359134,-0.003441058105924066,0.09577388853537351,0.0072261256836558775,-0.0008310752938888868,-0.0039497451655885925,55.0,2.0,4000000.0,odom,base_footprint,-0.0662104489855361,-0.0972095218705858,-0.0010044191711184,0.0034706317646653,0.0017232114222911,-0.8974195740633701,0.4411610741503237,"(1e-05, 0.0, 0.0, 0.0, 0.0, 0.0, 0.0, 1e-05, 0.0, 0.0, 0.0, 0.0, 0.0, 0.0, 1000000000000.0, 0.0, 0.0, 0.0, 0.0, 0.0, 0.0, 1000000000000.0, 0.0, 0.0, 0.0, 0.0, 0.0, 0.0, 1000000000000.0, 0.0, 0.0, 0.0, 0.0, 0.0, 0.0, 0.001)",0.2215950000922002,5.458217487851191e-05,0.0,0.0,0.0,-0.1207782879604252,"(0.0, 0.0, 0.0, 0.0, 0.0, 0.0, 0.0, 0.0, 0.0, 0.0, 0.0, 0.0, 0.0, 0.0, 0.0, 0.0, 0.0, 0.0, 0.0, 0.0, 0.0, 0.0, 0.0, 0.0, 0.0, 0.0, 0.0, 0.0, 0.0, 0.0, 0.0, 0.0, 0.0, 0.0, 0.0, 0.0)",0.2199999988079071,0.0001078793357009,0.0,0.0,0.0,-0.121276780962944,53,2,53000000,base_footprint,0.0034778380067401,0.0017046251943729,-0.8986630856918868,0.4386224541795394,0.0,0.0,0.0,0.0,0.0,0.0,0.0,0.0,0.0,0.0004639722712715,0.001223129584907,-0.1132902535780022,0.0,0.0,0.0,0.0,0.0,0.0,0.0,0.0,0.0,0.0231516936514829,-0.0112825205171067,0.0001765413596209,0.0,0.0,0.0,0.0,0.0,0.0,0.0,0.0,0.0
2.087,-0.004613907919022803,-0.005893696574788998,-0.0035013539274260097,0.2248704340343849,-0.12044689879009768,0.193365561526338,-0.055133118814004095,0.007435677971644538,-0.0008851775610009063,-0.004010881729710253,57.0,2.0,71000000.0,odom,base_footprint,-0.0752980567950225,-0.1089048452509072,-0.0010040705571912,0.0034813025910765,0.0016996045472408,-0.8991102468409363,0.4377051015264537,"(1e-05, 0.0, 0.0, 0.0, 0.0, 0.0, 0.0, 1e-05, 0.0, 0.0, 0.0, 0.0, 0.0, 0.0, 1000000000000.0, 0.0, 0.0, 0.0, 0.0, 0.0, 0.0, 1000000000000.0, 0.0, 0.0, 0.0, 0.0, 0.0, 0.0, 1000000000000.0, 0.0, 0.0, 0.0, 0.0, 0.0, 0.0, 0.001)",0.2197990220202267,5.91758204948889e-05,0.0,0.0,0.0,-0.101689507910973,"(0.0, 0.0, 0.0, 0.0, 0.0, 0.0, 0.0, 0.0, 0.0, 0.0, 0.0, 0.0, 0.0, 0.0, 0.0, 0.0, 0.0, 0.0, 0.0, 0.0, 0.0, 0.0, 0.0, 0.0, 0.0, 0.0, 0.0, 0.0, 0.0, 0.0, 0.0, 0.0, 0.0, 0.0, 0.0, 0.0)",0.2199999988079071,5.458217492559925e-05,0.0,0.0,0.0,-0.1125731542706489,54,2,87000000,base_footprint,0.003483779514133,0.0017001664124806,-0.8994295823059925,0.437048508963633,0.0,0.0,0.0,0.0,0.0,0.0,0.0,0.0,0.0,-3.989149279744761e-05,0.0002621978511855,-0.099592716700301,0.0,0.0,0.0,0.0,0.0,0.0,0.0,0.0,0.0,0.0327304040272466,-0.0141141845874593,-0.0011563912066742,0.0,0.0,0.0,0.0,0.0,0.0,0.0,0.0,0.0
2.121,-0.004642006800448392,-0.005887136912448812,-0.003581396818637117,0.21789697685832707,-0.1065721202051401,-0.20941312841014484,0.41666001756629345,0.007201797647245669,-0.0008849555357982948,-0.003548851602831166,58.0,2.0,104000000.0,odom,base_footprint,-0.0797905921382802,-0.114620366586783,-0.001004603751476,0.00348603738664,0.0016980254409324,-0.8998466572744311,0.4361891305901299,"(1e-05, 0.0, 0.0, 0.0, 0.0, 0.0, 0.0, 1e-05, 0.0, 0.0, 0.0, 0.0, 0.0, 0.0, 1000000000000.0, 0.0, 0.0, 0.0, 0.0, 0.0, 0.0, 1000000000000.0, 0.0, 0.0, 0.0, 0.0, 0.0, 0.0, 1000000000000.0, 0.0, 0.0, 0.0, 0.0, 0.0, 0.0, 0.001)",0.2206686798212075,0.00014310928615,0.0,0.0,0.0,-0.1059426711494247,"(0.0, 0.0, 0.0, 0.0, 0.0, 0.0, 0.0, 0.0, 0.0, 0.0, 0.0, 0.0, 0.0, 0.0, 0.0, 0.0, 0.0, 0.0, 0.0, 0.0, 0.0, 0.0, 0.0, 0.0, 0.0, 0.0, 0.0, 0.0, 0.0, 0.0, 0.0, 0.0, 0.0, 0.0, 0.0, 0.0)",0.2199999988079071,5.458217492559925e-05,0.0,0.0,0.0,-0.1125731542706489,55,2,121000000,base_footprint,0.0034855888945609,0.001694469909432,-0.9002107632017387,0.4354372070201712,0.0,0.0,0.0,0.0,0.0,0.0,0.0,0.0,0.0,0.0007345832429941,0.00042134896305,-0.1059757499078725,0.0,0.0,0.0,0.0,0.0,0.0,0.0,0.0,0.0,0.02155366701302,0.006551813457524,0.0013031103452145,0.0,0.0,0.0,0.0,0.0,0.0,0.0,0.0,0.0
2.155,-0.004649703025945709,-0.005854530493225596,-0.003990834159929513,0.2177570004790977,-0.10701436861633352,-0.00420349487175244,-0.013280733068871436,0.00719398062821677,-0.0009099760813474966,-0.0035635784749239066,58.0,2.0,104000000.0,odom,base_footprint,-0.0797905921382802,-0.114620366586783,-0.001004603751476,0.00348603738664,0.0016980254409324,-0.8998466572744311,0.4361891305901299,"(1e-05, 0.0, 0.0, 0.0, 0.0, 0.0, 0.0, 1e-05, 0.0, 0.0, 0.0, 0.0, 0.0, 0.0, 1000000000000.0, 0.0, 0.0, 0.0, 0.0, 0.0, 0.0, 1000000000000.0, 0.0, 0.0, 0.0, 0.0, 0.0, 0.0, 1000000000000.0, 0.0, 0.0, 0.0, 0.0, 0.0, 0.0, 0.001)",0.2206686798212075,0.00014310928615,0.0,0.0,0.0,-0.1059426711494247,"(0.0, 0.0, 0.0, 0.0, 0.0, 0.0, 0.0, 0.0, 0.0, 0.0, 0.0, 0.0, 0.0, 0.0, 0.0, 0.0, 0.0, 0.0, 0.0, 0.0, 0.0, 0.0, 0.0, 0.0, 0.0, 0.0, 0.0, 0.0, 0.0, 0.0, 0.0, 0.0, 0.0, 0.0, 0.0, 0.0)",0.2199999988079071,5.458217492559925e-05,0.0,0.0,0.0,-0.1125731542706489,56,2,155000000,base_footprint,0.0034820895025111,0.0016900296380682,-0.9010778582476344,0.4336400722123996,0.0,0.0,0.0,0.0,0.0,0.0,0.0,0.0,0.0,0.0006241844114993,0.000926686923734,-0.1316641110946391,0.0,0.0,0.0,0.0,0.0,0.0,0.0,0.0,0.0,0.03017045192757,-0.0287297265944353,-0.0001620613375216,0.0,0.0,0.0,0.0,0.0,0.0,0.0,0.0,0.0
2.189,-0.004594781930190195,-0.0057346170369167865,-0.003924568225261104,0.2242170456308936,-0.11136821088265575,0.19399534990378015,-0.1307460140036704,0.0074039432581524765,-0.0009638992344302745,-0.003708561422392437,59.0,2.0,137000000.0,odom,base_footprint,-0.0843019364986259,-0.1203201469451792,-0.0010041157811297,0.0034835613584617,0.0016934261472427,-0.900622221498677,0.4345855626351773,"(1e-05, 0.0, 0.0, 0.0, 0.0, 0.0, 0.0, 1e-05, 0.0, 0.0, 0.0, 0.0, 0.0, 0.0, 1000000000000.0, 0.0, 0.0, 0.0, 0.0, 0.0, 0.0, 1000000000000.0, 0.0, 0.0, 0.0, 0.0, 0.0, 0.0, 1000000000000.0, 0.0, 0.0, 0.0, 0.0, 0.0, 0.0, 0.001)",0.220081610442495,0.0001315508085524,0.0,0.0,0.0,-0.1159241811057901,"(0.0, 0.0, 0.0, 0.0, 0.0, 0.0, 0.0, 0.0, 0.0, 0.0, 0.0, 0.0, 0.0, 0.0, 0.0, 0.0, 0.0, 0.0, 0.0, 0.0, 0.0, 0.0, 0.0, 0.0, 0.0, 0.0, 0.0, 0.0, 0.0, 0.0, 0.0, 0.0, 0.0, 0.0, 0.0, 0.0)",0.2084210515022277,0.0001431092823622,0.0,0.0,0.0,-0.114147812128067,57,2,189000000,base_footprint,0.0034889570036641,0.0016803764897722,-0.9019270477905408,0.431871050173219,0.0,0.0,0.0,0.0,0.0,0.0,0.0,0.0,0.0,-0.0007601773595233,0.0004192561942855,-0.0593145309315032,0.0,0.0,0.0,0.0,0.0,0.0,0.0,0.0,0.0,0.0913051139532488,-0.2926194228229867,-0.0018719296248451,0.0,0.0,0.0,0.0,0.0,0.0,0.0,0.0,0.0
2.223,-0.004319088835585808,-0.0053611151238678045,-0.001374880214013885,0.19465358611523037,-0.019103627541862612,-0.8877915770469434,2.770708208432226,0.006425889308112941,-0.0008507690018155935,-0.000636150797144025,61.0,2.0,204000000.0,odom,base_footprint,-0.0932593701365035,-0.1315089600387374,-0.0010034004459634,0.0034877762064478,0.0016784391586517,-0.9020086574839892,0.43170059078377,"(1e-05, 0.0, 0.0, 0.0, 0.0, 0.0, 0.0, 1e-05, 0.0, 0.0, 0.0, 0.0, 0.0, 0.0, 1000000000000.0, 0.0, 0.0, 0.0, 0.0, 0.0, 0.0, 1000000000000.0, 0.0, 0.0, 0.0, 0.0, 0.0, 0.0, 1000000000000.0, 0.0, 0.0, 0.0, 0.0, 0.0, 0.0, 0.001)",0.1985006710512804,4.82366414857327e-05,0.0,0.0,0.0,0.0026972656853546,"(0.0, 0.0, 0.0, 0.0, 0.0, 0.0, 0.0, 0.0, 0.0, 0.0, 0.0, 0.0, 0.0, 0.0, 0.0, 0.0, 0.0, 0.0, 0.0, 0.0, 0.0, 0.0, 0.0, 0.0, 0.0, 0.0, 0.0, 0.0, 0.0, 0.0, 0.0, 0.0, 0.0, 0.0, 0.0, 0.0)",0.2084210515022277,0.0001431092823622,0.0,0.0,0.0,-0.114147812128067,58,2,223000000,base_footprint,0.0034764345662536,0.0016699518307898,-0.9022237775321552,0.4312509488907791,0.0,0.0,0.0,0.0,0.0,0.0,0.0,0.0,0.0,0.0002401343658018,0.0008966177628071,-0.0939379447638586,0.0,0.0,0.0,0.0,0.0,0.0,0.0,0.0,0.0,0.0281199966407596,-0.0872687145215747,-0.0003037962151616,0.0,0.0,0.0,0.0,0.0,0.0,0.0,0.0,0.0
2.257,-0.0044654786382929,-0.005514704424006117,-0.00390800141396852,0.206170648267304,-0.11498217043867238,0.34585772228449324,-2.8792355224267197,0.00680405693657686,-0.0009162984094999431,-0.003828906275607791,61.0,2.0,204000000.0,odom,base_footprint,-0.0932593701365035,-0.1315089600387374,-0.0010034004459634,0.0034877762064478,0.0016784391586517,-0.9020086574839892,0.43170059078377,"(1e-05, 0.0, 0.0, 0.0, 0.0, 0.0, 0.0, 1e-05, 0.0, 0.0, 0.0, 0.0, 0.0, 0.0, 1000000000000.0, 0.0, 0.0, 0.0, 0.0, 0.0, 0.0, 1000000000000.0, 0.0, 0.0, 0.0, 0.0, 0.0, 0.0, 1000000000000.0, 0.0, 0.0, 0.0, 0.0, 0.0, 0.0, 0.001)",0.1985006710512804,4.82366414857327e-05,0.0,0.0,0.0,0.0026972656853546,"(0.0, 0.0, 0.0, 0.0, 0.0, 0.0, 0.0, 0.0, 0.0, 0.0, 0.0, 0.0, 0.0, 0.0, 0.0, 0.0, 0.0, 0.0, 0.0, 0.0, 0.0, 0.0, 0.0, 0.0, 0.0, 0.0, 0.0, 0.0, 0.0, 0.0, 0.0, 0.0, 0.0, 0.0, 0.0, 0.0)",0.2084210515022277,0.0001431092823622,0.0,0.0,0.0,-0.114147812128067,59,2,257000000,base_footprint,0.0034890904901002,0.0016662705550288,-0.903064686998076,0.4294871603285206,0.0,0.0,0.0,0.0,0.0,0.0,0.0,0.0,0.0,0.0007218981826704,0.000857067427511,-0.116661220899109,0.0,0.0,0.0,0.0,0.0,0.0,0.0,0.0,0.0,0.0015784832458574,0.1075634004453184,0.001621577738118,0.0,0.0,0.0,0.0,0.0,0.0,0.0,0.0,0.0
2.291,-0.004481676907812898,-0.005492675357198079,-0.0023240040336607315,0.21242284388213536,-0.11907558582928299,0.18775362206700805,-0.12292538710542349,0.007006659602827566,-0.0009713981228268188,-0.003965217008115124,63.0,2.0,271000000.0,odom,base_footprint,-0.1019864343618622,-0.1422846868288215,-0.0010030428335951,0.0034895814710082,0.001663207513862,-0.903440610500672,0.4286958360657311,"(1e-05, 0.0, 0.0, 0.0, 0.0, 0.0, 0.0, 1e-05, 0.0, 0.0, 0.0, 0.0, 0.0, 0.0, 1000000000000.0, 0.0, 0.0, 0.0, 0.0, 0.0, 0.0, 1000000000000.0, 0.0, 0.0, 0.0, 0.0, 0.0, 0.0, 1000000000000.0, 0.0, 0.0, 0.0, 0.0, 0.0, 0.0, 0.001)",0.2091989584040048,8.58229715350739e-05,0.0,0.0,0.0,-0.1169656854237753,"(0.0, 0.0, 0.0, 0.0, 0.0, 0.0, 0.0, 0.0, 0.0, 0.0, 0.0, 0.0, 0.0, 0.0, 0.0, 0.0, 0.0, 0.0, 0.0, 0.0, 0.0, 0.0, 0.0, 0.0, 0.0, 0.0, 0.0, 0.0, 0.0, 0.0, 0.0, 0.0, 0.0, 0.0, 0.0, 0.0)",0.2199999988079071,4.823664130526595e-05,0.0,0.0,0.0,-0.103969395160675,60,2,291000000,base_footprint,0.0034903266822387,0.0016625792594839,-0.9035631427660048,0.4284375105948097,0.0,0.0,0.0,0.0,0.0,0.0,0.0,0.0,0.0,0.0008534197606144,0.0001922702566005,-0.0084787661455947,0.0,0.0,0.0,0.0,0.0,0.0,0.0,0.0,0.0,0.0229593564413017,-0.0222388149808186,0.0011018896949029,0.0,0.0,0.0,0.0,0.0,0.0,0.0,0.0,0.0
2.325,-0.004563729876318895,-0.005581004077917617,-0.0010629280690026555,0.2062659842603849,-0.009284558713656715,-0.18489067933184597,3.297027841310098,0.006801551712064676,-0.0009577821806994235,-0.00030917580516476865,63.0,2.0,271000000.0,odom,base_footprint,-0.1019864343618622,-0.1422846868288215,-0.0010030428335951,0.0034895814710082,0.001663207513862,-0.903440610500672,0.4286958360657311,"(1e-05, 0.0, 0.0, 0.0, 0.0, 0.0, 0.0, 1e-05, 0.0, 0.0, 0.0, 0.0, 0.0, 0.0, 1000000000000.0, 0.0, 0.0, 0.0, 0.0, 0.0, 0.0, 1000000000000.0, 0.0, 0.0, 0.0, 0.0, 0.0, 0.0, 1000000000000.0, 0.0, 0.0, 0.0, 0.0, 0.0, 0.0, 0.001)",0.2091989584040048,8.58229715350739e-05,0.0,0.0,0.0,-0.1169656854237753,"(0.0, 0.0, 0.0, 0.0, 0.0, 0.0, 0.0, 0.0, 0.0, 0.0, 0.0, 0.0, 0.0, 0.0, 0.0, 0.0, 0.0, 0.0, 0.0, 0.0, 0.0, 0.0, 0.0, 0.0, 0.0, 0.0, 0.0, 0.0, 0.0, 0.0, 0.0, 0.0, 0.0, 0.0, 0.0, 0.0)",0.2199999988079071,4.823664130526595e-05,0.0,0.0,0.0,-0.103969395160675,61,2,325000000,base_footprint,0.0034841425763128,0.0016593134775062,-0.9037907358000375,0.4279572564068961,0.0,0.0,0.0,0.0,0.0,0.0,0.0,0.0,0.0,0.000951928978209,0.0005549453109436,-0.0970484545500166,0.0,0.0,0.0,0.0,0.0,0.0,0.0,0.0,0.0,-0.0644932068071312,0.3338561738062759,0.0007588426836723,0.0,0.0,0.0,0.0,0.0,0.0,0.0,0.0,0.0
2.359,-0.0047710761833840015,-0.005806699929592596,-0.0036446063029416105,0.21783461464288803,-0.10569860813674557,0.34740631779288694,-2.8953167994921576,0.007181070094903059,-0.001025249628997052,-0.0035197636509536278,65.0,2.0,337000000.0,odom,base_footprint,-0.1108708843090843,-0.1531471850075881,-0.0010028230814874,0.0034891386698532,0.0016594775473013,-0.9040866351977608,0.4273317541470605,"(1e-05, 0.0, 0.0, 0.0, 0.0, 0.0, 0.0, 1e-05, 0.0, 0.0, 0.0, 0.0, 0.0, 0.0, 1000000000000.0, 0.0, 0.0, 0.0, 0.0, 0.0, 0.0, 1000000000000.0, 0.0, 0.0, 0.0, 0.0, 0.0, 0.0, 1000000000000.0, 0.0, 0.0, 0.0, 0.0, 0.0, 0.0, 0.001)",0.2211326240909136,0.0001142686634583,0.0,0.0,0.0,-0.1079880236715593,"(0.0, 0.0, 0.0, 0.0, 0.0, 0.0, 0.0, 0.0, 0.0, 0.0, 0.0, 0.0, 0.0, 0.0, 0.0, 0.0, 0.0, 0.0, 0.0, 0.0, 0.0, 0.0, 0.0, 0.0, 0.0, 0.0, 0.0, 0.0, 0.0, 0.0, 0.0, 0.0, 0.0, 0.0, 0.0, 0.0)",0.2199999988079071,4.823664130526595e-05,0.0,0.0,0.0,-0.103969395160675,62,2,359000000,base_footprint,0.0034909510952576,0.0016571217846328,-0.904569080828452,0.4263095650076489,0.0,0.0,0.0,0.0,0.0,0.0,0.0,0.0,0.0,0.0006438815268751,0.0005891697481487,-0.1077418011003429,0.0,0.0,0.0,0.0,0.0,0.0,0.0,0.0,0.0,0.0161141665232787,0.0441624015187055,-1.6758378232887574e-05,0.0,0.0,0.0,0.0,0.0,0.0,0.0,0.0,0.0
2.393,-0.004794659596588299,-0.005791594513368692,-0.0032492365133265366,0.22477124631569542,-0.10987340980405913,0.2083072574416634,-0.12536941943884555,0.0074058958866258075,-0.0010844859115950892,-0.0036587845464751694,65.0,2.0,337000000.0,odom,base_footprint,-0.1108708843090843,-0.1531471850075881,-0.0010028230814874,0.0034891386698532,0.0016594775473013,-0.9040866351977608,0.4273317541470605,"(1e-05, 0.0, 0.0, 0.0, 0.0, 0.0, 0.0, 1e-05, 0.0, 0.0, 0.0, 0.0, 0.0, 0.0, 1000000000000.0, 0.0, 0.0, 0.0, 0.0, 0.0, 0.0, 1000000000000.0, 0.0, 0.0, 0.0, 0.0, 0.0, 0.0, 1000000000000.0, 0.0, 0.0, 0.0, 0.0, 0.0, 0.0, 0.001)",0.2211326240909136,0.0001142686634583,0.0,0.0,0.0,-0.1079880236715593,"(0.0, 0.0, 0.0, 0.0, 0.0, 0.0, 0.0, 0.0, 0.0, 0.0, 0.0, 0.0, 0.0, 0.0, 0.0, 0.0, 0.0, 0.0, 0.0, 0.0, 0.0, 0.0, 0.0, 0.0, 0.0, 0.0, 0.0, 0.0, 0.0, 0.0, 0.0, 0.0, 0.0, 0.0, 0.0, 0.0)",0.2199999988079071,0.0001142686669481,0.0,0.0,0.0,-0.0833726376295089,63,2,393000000,base_footprint,0.0034948919323295,0.0016547201435284,-0.905260464209751,0.4248394279847081,0.0,0.0,0.0,0.0,0.0,0.0,0.0,0.0,0.0,0.0003210866957357,0.0004066462627267,-0.0872066227038768,0.0,0.0,0.0,0.0,0.0,0.0,0.0,0.0,0.0,0.0213834085861694,0.003446840713531,-0.0001840648673753,0.0,0.0,0.0,0.0,0.0,0.0,0.0,0.0,0.0
2.427,-0.0048137263868766045,-0.005778654463104105,-0.0029605980531286487,0.21833207710669494,-0.08687481112745904,-0.19336844471472905,0.6906486089069096,0.007190246396480068,-0.0010769781149781133,-0.0028929312105443862,67.0,2.0,404000000.0,odom,base_footprint,-0.1203128575970576,-0.1645648624974036,-0.0010035178176885,0.003496513217027,0.0016543644235924,-0.9054826744695254,0.4243656014678765,"(1e-05, 0.0, 0.0, 0.0, 0.0, 0.0, 0.0, 1e-05, 0.0, 0.0, 0.0, 0.0, 0.0, 0.0, 1000000000000.0, 0.0, 0.0, 0.0, 0.0, 0.0, 0.0, 1000000000000.0, 0.0, 0.0, 0.0, 0.0, 0.0, 0.0, 1000000000000.0, 0.0, 0.0, 0.0, 0.0, 0.0, 0.0, 0.001)",0.2212013844152528,5.229231182367344e-05,0.0,0.0,0.0,-0.0872738746650046,"(0.0, 0.0, 0.0, 0.0, 0.0, 0.0, 0.0, 0.0, 0.0, 0.0, 0.0, 0.0, 0.0, 0.0, 0.0, 0.0, 0.0, 0.0, 0.0, 0.0, 0.0, 0.0, 0.0, 0.0, 0.0, 0.0, 0.0, 0.0, 0.0, 0.0, 0.0, 0.0, 0.0, 0.0, 0.0, 0.0)",0.2199999988079071,0.0001142686669481,0.0,0.0,0.0,-0.0833726376295089,64,2,427000000,base_footprint,0.0034994573448997,0.0016525868284754,-0.9058883471990352,0.4234989081025659,0.0,0.0,0.0,0.0,0.0,0.0,0.0,0.0,0.0,0.0004797529025407,0.00038750884948,-0.0867298371639122,0.0,0.0,0.0,0.0,0.0,0.0,0.0,0.0,0.0,0.0186818161630443,0.0070177486792533,0.0001362672910086,0.0,0.0,0.0,0.0,0.0,0.0,0.0,0.0,0.0
2.461,-0.0048317168369300945,-0.005765017631918001,-0.002911653875326881,0.2184419621346581,-0.08594144507304377,0.0032998506895844915,0.028029010643101166,0.007190735028984773,-0.0010982152302306026,-0.002861850120932358,68.0,2.0,437000000.0,odom,base_footprint,-0.1249914209697697,-0.1701694948511272,-0.0010038952068665,0.0035008747804919,0.0016515192991604,-0.9060895356560706,0.423068280227131,"(1e-05, 0.0, 0.0, 0.0, 0.0, 0.0, 0.0, 1e-05, 0.0, 0.0, 0.0, 0.0, 0.0, 0.0, 1000000000000.0, 0.0, 0.0, 0.0, 0.0, 0.0, 0.0, 1000000000000.0, 0.0, 0.0, 0.0, 0.0, 0.0, 0.0, 1000000000000.0, 0.0, 0.0, 0.0, 0.0, 0.0, 0.0, 0.001)",0.2212647789332331,3.073534655986809e-05,0.0,0.0,0.0,-0.0861742613423461,"(0.0, 0.0, 0.0, 0.0, 0.0, 0.0, 0.0, 0.0, 0.0, 0.0, 0.0, 0.0, 0.0, 0.0, 0.0, 0.0, 0.0, 0.0, 0.0, 0.0, 0.0, 0.0, 0.0, 0.0, 0.0, 0.0, 0.0, 0.0, 0.0, 0.0, 0.0, 0.0, 0.0, 0.0, 0.0, 0.0)",0.2199999988079071,0.0001142686669481,0.0,0.0,0.0,-0.0833726376295089,65,2,461000000,base_footprint,0.0035039695650024,0.0016490759674579,-0.9065039181362904,0.4221796408512553,0.0,0.0,0.0,0.0,0.0,0.0,0.0,0.0,0.0,0.0004451916434036,0.0004169240940429,-0.0843834329402506,0.0,0.0,0.0,0.0,0.0,0.0,0.0,0.0,0.0,0.0189076378786643,0.0018557487406464,7.402578438851853e-05,0.0,0.0,0.0,0.0,0.0,0.0,0.0,0.0,0.0
2.495,-0.004760539906231792,-0.0056450150136486965,-0.0040713046911280415,0.2250724642638517,-0.08671391824721353,0.19911417805386133,-0.02319739261771044,0.007405716260547014,-0.001152844054190266,-0.0028875734776322107,68.0,2.0,437000000.0,odom,base_footprint,-0.1249914209697697,-0.1701694948511272,-0.0010038952068665,0.0035008747804919,0.0016515192991604,-0.9060895356560706,0.423068280227131,"(1e-05, 0.0, 0.0, 0.0, 0.0, 0.0, 0.0, 1e-05, 0.0, 0.0, 0.0, 0.0, 0.0, 0.0, 1000000000000.0, 0.0, 0.0, 0.0, 0.0, 0.0, 0.0, 1000000000000.0, 0.0, 0.0, 0.0, 0.0, 0.0, 0.0, 1000000000000.0, 0.0, 0.0, 0.0, 0.0, 0.0, 0.0, 0.001)",0.2212647789332331,3.073534655986809e-05,0.0,0.0,0.0,-0.0861742613423461,"(0.0, 0.0, 0.0, 0.0, 0.0, 0.0, 0.0, 0.0, 0.0, 0.0, 0.0, 0.0, 0.0, 0.0, 0.0, 0.0, 0.0, 0.0, 0.0, 0.0, 0.0, 0.0, 0.0, 0.0, 0.0, 0.0, 0.0, 0.0, 0.0, 0.0, 0.0, 0.0, 0.0, 0.0, 0.0, 0.0)",0.2084210515022277,3.073534753639251e-05,0.0,0.0,0.0,-0.0779691338539123,66,2,495000000,base_footprint,0.0035024838050697,0.001625883684837,-0.9073615099005272,0.4203334146370882,0.0,0.0,0.0,0.0,0.0,0.0,0.0,0.0,0.0,-0.0001352231273149,0.0014547962571065,-0.163308254908322,0.0,0.0,0.0,0.0,0.0,0.0,0.0,0.0,0.0,0.0718195527774767,-0.2853403719974005,-0.0021816909561005,0.0,0.0,0.0,0.0,0.0,0.0,0.0,0.0,0.0
2.529,-0.00464693671388311,-0.005463317941350299,-0.004038022266279029,0.1946947753113379,0.0016818544301213734,-0.912242911486901,2.654527708028075,0.006404761894040135,-0.0010063155520297765,5.600575252304174e-05,70.0,2.0,504000000.0,odom,base_footprint,-0.1343844441208619,-0.1813191202497839,-0.0010017011772514,0.0035019848755255,0.0016170219634289,-0.9076884681774944,0.4196269367896855,"(1e-05, 0.0, 0.0, 0.0, 0.0, 0.0, 0.0, 1e-05, 0.0, 0.0, 0.0, 0.0, 0.0, 0.0, 1000000000000.0, 0.0, 0.0, 0.0, 0.0, 0.0, 0.0, 1000000000000.0, 0.0, 0.0, 0.0, 0.0, 0.0, 0.0, 1000000000000.0, 0.0, 0.0, 0.0, 0.0, 0.0, 0.0, 0.001)",0.2101601117690461,0.0001747316512091,0.0,0.0,0.0,-0.1500825162445843,"(0.0, 0.0, 0.0, 0.0, 0.0, 0.0, 0.0, 0.0, 0.0, 0.0, 0.0, 0.0, 0.0, 0.0, 0.0, 0.0, 0.0, 0.0, 0.0, 0.0, 0.0, 0.0, 0.0, 0.0, 0.0, 0.0, 0.0, 0.0, 0.0, 0.0, 0.0, 0.0, 0.0, 0.0, 0.0, 0.0)",0.2084210515022277,3.073534753639251e-05,0.0,0.0,0.0,-0.0779691338539123,67,2,529000000,base_footprint,0.0035202214463626,0.0016353950400298,-0.9082082324641528,0.4185005854337257,0.0,0.0,0.0,0.0,0.0,0.0,0.0,0.0,0.0,0.0004015641449328,0.000524487413651,-0.0912793682927491,0.0,0.0,0.0,0.0,0.0,0.0,0.0,0.0,0.0,0.0286494502141198,-0.0054864565631319,0.0006302113760166,0.0,0.0,0.0,0.0,0.0,0.0,0.0,0.0,0.0
2.563,-0.004639148214989092,-0.0054119912501281175,-0.002634130044830485,0.20676534995370133,-0.07499852509956871,0.36247971898989306,-2.302714099990693,0.006800529210509289,-0.0010770066068104525,-0.0024974508858156383,70.0,2.0,504000000.0,odom,base_footprint,-0.1343844441208619,-0.1813191202497839,-0.0010017011772514,0.0035019848755255,0.0016170219634289,-0.9076884681774944,0.4196269367896855,"(1e-05, 0.0, 0.0, 0.0, 0.0, 0.0, 0.0, 1e-05, 0.0, 0.0, 0.0, 0.0, 0.0, 0.0, 1000000000000.0, 0.0, 0.0, 0.0, 0.0, 0.0, 0.0, 1000000000000.0, 0.0, 0.0, 0.0, 0.0, 0.0, 0.0, 1000000000000.0, 0.0, 0.0, 0.0, 0.0, 0.0, 0.0, 0.001)",0.2101601117690461,0.0001747316512091,0.0,0.0,0.0,-0.1500825162445843,"(0.0, 0.0, 0.0, 0.0, 0.0, 0.0, 0.0, 0.0, 0.0, 0.0, 0.0, 0.0, 0.0, 0.0, 0.0, 0.0, 0.0, 0.0, 0.0, 0.0, 0.0, 0.0, 0.0, 0.0, 0.0, 0.0, 0.0, 0.0, 0.0, 0.0, 0.0, 0.0, 0.0, 0.0, 0.0, 0.0)",0.2199999988079071,0.0,0.0,0.0,0.0,-0.0956827476620674,68,2,563000000,base_footprint,0.0035182030907524,0.0016221113191734,-0.9087586731157916,0.417304043880126,0.0,0.0,0.0,0.0,0.0,0.0,0.0,0.0,0.0,0.0002765830138847,0.0004889843623073,-0.0611346560699747,0.0,0.0,0.0,0.0,0.0,0.0,0.0,0.0,0.0,0.0286971960292578,-0.07948054184092,-0.0003120801809526,0.0,0.0,0.0,0.0,0.0,0.0,0.0,0.0,0.0
2.597,-0.004674640733006302,-0.005431599057482084,-0.002114954408827696,0.21291557743554693,-0.0743453321923794,0.1846915159713393,0.019615402618297497,0.007000031361946304,-0.0011264517014957216,-0.0024756995620062346,72.0,2.0,571000000.0,odom,base_footprint,-0.1435302025101952,-0.1920085599429732,-0.0010044255235902,0.0035196226332269,0.0016229691749295,-0.9088778707033182,0.4170443554028508,"(1e-05, 0.0, 0.0, 0.0, 0.0, 0.0, 0.0, 1e-05, 0.0, 0.0, 0.0, 0.0, 0.0, 0.0, 1000000000000.0, 0.0, 0.0, 0.0, 0.0, 0.0, 0.0, 1000000000000.0, 0.0, 0.0, 0.0, 0.0, 0.0, 0.0, 1000000000000.0, 0.0, 0.0, 0.0, 0.0, 0.0, 0.0, 0.001)",0.2084653465410652,-7.011605562833034e-05,0.0,0.0,0.0,-0.0667609128233078,"(0.0, 0.0, 0.0, 0.0, 0.0, 0.0, 0.0, 0.0, 0.0, 0.0, 0.0, 0.0, 0.0, 0.0, 0.0, 0.0, 0.0, 0.0, 0.0, 0.0, 0.0, 0.0, 0.0, 0.0, 0.0, 0.0, 0.0, 0.0, 0.0, 0.0, 0.0, 0.0, 0.0, 0.0, 0.0, 0.0)",0.2199999988079071,0.0,0.0,0.0,0.0,-0.0956827476620674,69,2,597000000,base_footprint,0.0035079910863662,0.0016068817898844,-0.909199518279992,0.4163428249518443,0.0,0.0,0.0,0.0,0.0,0.0,0.0,0.0,0.0,0.0004553584196342,0.000633376722606,-0.066772324084686,0.0,0.0,0.0,0.0,0.0,0.0,0.0,0.0,0.0,-0.0151892004549302,0.1916455951617615,0.0021376253251508,0.0,0.0,0.0,0.0,0.0,0.0,0.0,0.0,0.0
2.6310000000000002,-0.004852209195191498,-0.0056077298176303025,-0.0031607720939659245,0.21800620494750994,-0.09469715967575754,0.15287169705594636,-0.6111659904918357,0.007164120274578725,-0.0011735524551994907,-0.003153415417202726,73.0,2.0,604000000.0,odom,base_footprint,-0.1481107285337156,-0.1973261018082966,-0.0010017625385821,0.0035077800244327,0.0016027712052542,-0.9093219606770326,0.4160753518705969,"(1e-05, 0.0, 0.0, 0.0, 0.0, 0.0, 0.0, 1e-05, 0.0, 0.0, 0.0, 0.0, 0.0, 0.0, 1000000000000.0, 0.0, 0.0, 0.0, 0.0, 0.0, 0.0, 1000000000000.0, 0.0, 0.0, 0.0, 0.0, 0.0, 0.0, 1000000000000.0, 0.0, 0.0, 0.0, 0.0, 0.0, 0.0, 0.001)",0.2166592020181166,5.457702951817967e-05,0.0,0.0,0.0,-0.0794898371154002,"(0.0, 0.0, 0.0, 0.0, 0.0, 0.0, 0.0, 0.0, 0.0, 0.0, 0.0, 0.0, 0.0, 0.0, 0.0, 0.0, 0.0, 0.0, 0.0, 0.0, 0.0, 0.0, 0.0, 0.0, 0.0, 0.0, 0.0, 0.0, 0.0, 0.0, 0.0, 0.0, 0.0, 0.0, 0.0, 0.0)",0.2199999988079071,0.0,0.0,0.0,0.0,-0.0956827476620674,70,2,631000000,base_footprint,0.0035148376381859,0.0016147569487462,-0.9098563148351128,0.4149054408308498,0.0,0.0,0.0,0.0,0.0,0.0,0.0,0.0,0.0,0.0013276616083863,0.0003671695388229,-0.1033284368058843,0.0,0.0,0.0,0.0,0.0,0.0,0.0,0.0,0.0,-0.0066193653348036,0.1478756220208415,0.0013596399837739,0.0,0.0,0.0,0.0,0.0,0.0,0.0,0.0,0.0
2.665,-0.004887479962343594,-0.0056144702468040875,-0.0039088995219325184,0.2176654773492411,-0.09043741906128894,-0.01023206000807316,0.1279201385726306,0.007149277756535373,-0.0011937615410356646,-0.003011566054740922,73.0,2.0,604000000.0,odom,base_footprint,-0.1481107285337156,-0.1973261018082966,-0.0010017625385821,0.0035077800244327,0.0016027712052542,-0.9093219606770326,0.4160753518705969,"(1e-05, 0.0, 0.0, 0.0, 0.0, 0.0, 0.0, 1e-05, 0.0, 0.0, 0.0, 0.0, 0.0, 0.0, 1000000000000.0, 0.0, 0.0, 0.0, 0.0, 0.0, 0.0, 1000000000000.0, 0.0, 0.0, 0.0, 0.0, 0.0, 0.0, 1000000000000.0, 0.0, 0.0, 0.0, 0.0, 0.0, 0.0, 0.001)",0.2166592020181166,5.457702951817967e-05,0.0,0.0,0.0,-0.0794898371154002,"(0.0, 0.0, 0.0, 0.0, 0.0, 0.0, 0.0, 0.0, 0.0, 0.0, 0.0, 0.0, 0.0, 0.0, 0.0, 0.0, 0.0, 0.0, 0.0, 0.0, 0.0, 0.0, 0.0, 0.0, 0.0, 0.0, 0.0, 0.0, 0.0, 0.0, 0.0, 0.0, 0.0, 0.0, 0.0, 0.0)",0.2199999988079071,5.457703082356602e-05,0.0,0.0,0.0,-0.0548744574189186,71,2,665000000,base_footprint,0.0035182354533277,0.001606442249532,-0.9106654919691688,0.4131263766683815,0.0,0.0,0.0,0.0,0.0,0.0,0.0,0.0,0.0,0.0004718076593743,0.0008798753851457,-0.1263696359565773,0.0,0.0,0.0,0.0,0.0,0.0,0.0,0.0,0.0,0.0370542622795965,-0.0375221026994477,-0.0005527597489475,0.0,0.0,0.0,0.0,0.0,0.0,0.0,0.0,0.0
2.699,-0.004881109712962101,-0.00556045718453041,-0.003426643575338506,0.2242883200469609,-0.0948440579973585,0.19888416509669032,-0.13233149958166845,0.007362976646585936,-0.0012528039631755636,-0.0031583071313120385,74.0,2.0,637000000.0,odom,base_footprint,-0.1528420894207571,-0.2027883177117453,-0.0010033399047467,0.0035142250904689,0.0016142213771978,-0.9100084237164344,0.4145717227169376,"(1e-05, 0.0, 0.0, 0.0, 0.0, 0.0, 0.0, 1e-05, 0.0, 0.0, 0.0, 0.0, 0.0, 0.0, 1000000000000.0, 0.0, 0.0, 0.0, 0.0, 0.0, 0.0, 1000000000000.0, 0.0, 0.0, 0.0, 0.0, 0.0, 0.0, 1000000000000.0, 0.0, 0.0, 0.0, 0.0, 0.0, 0.0, 0.001)",0.2194977581232072,0.0002338519362951,0.0,0.0,0.0,-0.1061139184802757,"(0.0, 0.0, 0.0, 0.0, 0.0, 0.0, 0.0, 0.0, 0.0, 0.0, 0.0, 0.0, 0.0, 0.0, 0.0, 0.0, 0.0, 0.0, 0.0, 0.0, 0.0, 0.0, 0.0, 0.0, 0.0, 0.0, 0.0, 0.0, 0.0, 0.0, 0.0, 0.0, 0.0, 0.0, 0.0, 0.0)",0.2199999988079071,5.457703082356602e-05,0.0,0.0,0.0,-0.0548744574189186,72,2,699000000,base_footprint,0.0035116007906138,0.0016015839803577,-0.9113719939862144,0.4115655381178471,0.0,0.0,0.0,0.0,0.0,0.0,0.0,0.0,0.0,0.0004741311424188,0.0004659007644166,-0.0821731387783666,0.0,0.0,0.0,0.0,0.0,0.0,0.0,0.0,0.0,0.0192472031961899,0.0040195001393383,-8.621949210885094e-05,0.0,0.0,0.0,0.0,0.0,0.0,0.0,0.0,0.0
2.733,-0.004942622952188114,-0.005595904829620413,-0.002200603395973832,0.21775336297061762,-0.05415716522236444,-0.1962449572475457,1.2218286118616832,0.007145408438938112,-0.0012340327018840963,-0.001803433601904736,76.0,2.0,704000000.0,odom,base_footprint,-0.1624707357573756,-0.2137859885271497,-0.0010025835567843,0.0035137902299803,0.0016001115337413,-0.9114682170453414,0.4113523820734309,"(1e-05, 0.0, 0.0, 0.0, 0.0, 0.0, 0.0, 1e-05, 0.0, 0.0, 0.0, 0.0, 0.0, 0.0, 1000000000000.0, 0.0, 0.0, 0.0, 0.0, 0.0, 0.0, 1000000000000.0, 0.0, 0.0, 0.0, 0.0, 0.0, 0.0, 1000000000000.0, 0.0, 0.0, 0.0, 0.0, 0.0, 0.0, 0.001)",0.218769980353625,4.4119120053448535e-05,0.0,0.0,0.0,-0.0750283597749381,"(0.0, 0.0, 0.0, 0.0, 0.0, 0.0, 0.0, 0.0, 0.0, 0.0, 0.0, 0.0, 0.0, 0.0, 0.0, 0.0, 0.0, 0.0, 0.0, 0.0, 0.0, 0.0, 0.0, 0.0, 0.0, 0.0, 0.0, 0.0, 0.0, 0.0, 0.0, 0.0, 0.0, 0.0, 0.0, 0.0)",0.2199999988079071,5.457703082356602e-05,0.0,0.0,0.0,-0.0548744574189186,73,2,733000000,base_footprint,0.00352205377383,0.0015937378741895,-0.9118242777721848,0.4105624697924008,0.0,0.0,0.0,0.0,0.0,0.0,0.0,0.0,0.0,0.0006663974942676,0.0004087274611424,-0.0598719228461978,0.0,0.0,0.0,0.0,0.0,0.0,0.0,0.0,0.0,0.0076051665014136,0.0547645507070418,0.0004387943535508,0.0,0.0,0.0,0.0,0.0,0.0,0.0,0.0,0.0
2.767,-0.004968390714520904,-0.005602224628474178,-0.0019953391940137344,0.21766943915500941,-0.05631573690488543,-0.002520234702949117,-0.06482197244807775,0.0071403734108662,-0.0012466930001074918,-0.0018753140389326849,76.0,2.0,704000000.0,odom,base_footprint,-0.1624707357573756,-0.2137859885271497,-0.0010025835567843,0.0035137902299803,0.0016001115337413,-0.9114682170453414,0.4113523820734309,"(1e-05, 0.0, 0.0, 0.0, 0.0, 0.0, 0.0, 1e-05, 0.0, 0.0, 0.0, 0.0, 0.0, 0.0, 1000000000000.0, 0.0, 0.0, 0.0, 0.0, 0.0, 0.0, 1000000000000.0, 0.0, 0.0, 0.0, 0.0, 0.0, 0.0, 1000000000000.0, 0.0, 0.0, 0.0, 0.0, 0.0, 0.0, 0.001)",0.218769980353625,4.4119120053448535e-05,0.0,0.0,0.0,-0.0750283597749381,"(0.0, 0.0, 0.0, 0.0, 0.0, 0.0, 0.0, 0.0, 0.0, 0.0, 0.0, 0.0, 0.0, 0.0, 0.0, 0.0, 0.0, 0.0, 0.0, 0.0, 0.0, 0.0, 0.0, 0.0, 0.0, 0.0, 0.0, 0.0, 0.0, 0.0, 0.0, 0.0, 0.0, 0.0, 0.0, 0.0)",0.2199999988079071,4.126411658944562e-05,0.0,0.0,0.0,-0.0838081464171409,74,2,767000000,base_footprint,0.0035231159607604,0.0015900192108119,-0.9122334315503652,0.4096525672502027,0.0,0.0,0.0,0.0,0.0,0.0,0.0,0.0,0.0,0.0005109981882667,0.0004094478539939,-0.058741413029294,0.0,0.0,0.0,0.0,0.0,0.0,0.0,0.0,0.0,0.0125098958535411,0.01033458253252,-2.4833262390486343e-05,0.0,0.0,0.0,0.0,0.0,0.0,0.0,0.0,0.0
2.801,-0.004989971996855802,-0.0056013270390250225,-0.002817571085892201,0.224368102570886,-0.05947568235513739,0.20116106353983712,-0.09489325676432306,0.007357623374925513,-0.0012992466724903542,-0.001980540222426075,78.0,2.0,771000000.0,odom,base_footprint,-0.1722466742620428,-0.2248239041620291,-0.0010029874387016,0.0035231108724213,0.0015896469864411,-0.912293565820578,0.409518632634235,"(1e-05, 0.0, 0.0, 0.0, 0.0, 0.0, 0.0, 1e-05, 0.0, 0.0, 0.0, 0.0, 0.0, 0.0, 1000000000000.0, 0.0, 0.0, 0.0, 0.0, 0.0, 0.0, 1000000000000.0, 0.0, 0.0, 0.0, 0.0, 0.0, 0.0, 1000000000000.0, 0.0, 0.0, 0.0, 0.0, 0.0, 0.0, 0.001)",0.2203696231330266,5.7934804192194544e-05,0.0,0.0,0.0,-0.0588225364809672,"(0.0, 0.0, 0.0, 0.0, 0.0, 0.0, 0.0, 0.0, 0.0, 0.0, 0.0, 0.0, 0.0, 0.0, 0.0, 0.0, 0.0, 0.0, 0.0, 0.0, 0.0, 0.0, 0.0, 0.0, 0.0, 0.0, 0.0, 0.0, 0.0, 0.0, 0.0, 0.0, 0.0, 0.0, 0.0, 0.0)",0.2199999988079071,4.126411658944562e-05,0.0,0.0,0.0,-0.0838081464171409,75,2,801000000,base_footprint,0.0035239189471294,0.0015865732196984,-0.912809638033208,0.408367027922623,0.0,0.0,0.0,0.0,0.0,0.0,0.0,0.0,0.0,0.0005438604633467,0.0004812335964595,-0.0880667568608529,0.0,0.0,0.0,0.0,0.0,0.0,0.0,0.0,0.0,0.0167619134253049,0.0149517280421996,8.90707705130447e-05,0.0,0.0,0.0,0.0,0.0,0.0,0.0,0.0,0.0
2.835,-0.005012316452952192,-0.00559231030490509,-0.0029970966471886125,0.21791057670265385,-0.08636800415838718,-0.19391969574270704,-0.8075772313288224,0.007142777511965991,-0.0012792014400410184,-0.002876054538474293,78.0,2.0,771000000.0,odom,base_footprint,-0.1722466742620428,-0.2248239041620291,-0.0010029874387016,0.0035231108724213,0.0015896469864411,-0.912293565820578,0.409518632634235,"(1e-05, 0.0, 0.0, 0.0, 0.0, 0.0, 0.0, 1e-05, 0.0, 0.0, 0.0, 0.0, 0.0, 0.0, 1000000000000.0, 0.0, 0.0, 0.0, 0.0, 0.0, 0.0, 1000000000000.0, 0.0, 0.0, 0.0, 0.0, 0.0, 0.0, 1000000000000.0, 0.0, 0.0, 0.0, 0.0, 0.0, 0.0, 0.001)",0.2203696231330266,5.7934804192194544e-05,0.0,0.0,0.0,-0.0588225364809672,"(0.0, 0.0, 0.0, 0.0, 0.0, 0.0, 0.0, 0.0, 0.0, 0.0, 0.0, 0.0, 0.0, 0.0, 0.0, 0.0, 0.0, 0.0, 0.0, 0.0, 0.0, 0.0, 0.0, 0.0, 0.0, 0.0, 0.0, 0.0, 0.0, 0.0, 0.0, 0.0, 0.0, 0.0, 0.0, 0.0)",0.2199999988079071,4.126411658944562e-05,0.0,0.0,0.0,-0.0838081464171409,76,2,835000000,base_footprint,0.0035257746084578,0.0015837141105404,-0.9134205649545482,0.4069986883039561,0.0,0.0,0.0,0.0,0.0,0.0,0.0,0.0,0.0,0.0005743686336786,0.0004133145511608,-0.088353182859265,0.0,0.0,0.0,0.0,0.0,0.0,0.0,0.0,0.0,0.0186975621578038,0.007623660734037,4.590240670434161e-05,0.0,0.0,0.0,0.0,0.0,0.0,0.0,0.0,0.0
2.869,-0.0050330666320718975,-0.005581524434521007,-0.003001192682792641,0.21809701913799018,-0.08734992092350845,0.005598871932021964,-0.029486989943581714,0.007145155724386717,-0.0013009679900331445,-0.002908752366752832,80.0,2.0,837000000.0,odom,base_footprint,-0.181960290125334,-0.2356869593166826,-0.0010030958453791,0.0035260214706184,0.001583518735146,-0.91347444491982,0.4068777434554894,"(1e-05, 0.0, 0.0, 0.0, 0.0, 0.0, 0.0, 1e-05, 0.0, 0.0, 0.0, 0.0, 0.0, 0.0, 1000000000000.0, 0.0, 0.0, 0.0, 0.0, 0.0, 0.0, 1000000000000.0, 0.0, 0.0, 0.0, 0.0, 0.0, 0.0, 1000000000000.0, 0.0, 0.0, 0.0, 0.0, 0.0, 0.0, 0.001)",0.2209897832624512,5.567146237067666e-05,0.0,0.0,0.0,-0.0883700074046333,"(0.0, 0.0, 0.0, 0.0, 0.0, 0.0, 0.0, 0.0, 0.0, 0.0, 0.0, 0.0, 0.0, 0.0, 0.0, 0.0, 0.0, 0.0, 0.0, 0.0, 0.0, 0.0, 0.0, 0.0, 0.0, 0.0, 0.0, 0.0, 0.0, 0.0, 0.0, 0.0, 0.0, 0.0, 0.0, 0.0)",0.2199999988079071,5.5671462177997455e-05,0.0,0.0,0.0,0.0,77,2,869000000,base_footprint,0.0035293062928177,0.0015818095164534,-0.9140302642889024,0.40562756050311,0.0,0.0,0.0,0.0,0.0,0.0,0.0,0.0,0.0,0.000487768444326,0.0002980434235938,-0.0882707204594837,0.0,0.0,0.0,0.0,0.0,0.0,0.0,0.0,0.0,0.0192144583353426,0.0065895757133588,-0.0001943795449646,0.0,0.0,0.0,0.0,0.0,0.0,0.0,0.0,0.0
2.903,-0.005035196050814705,-0.005559356169452495,-0.0006181087607091129,0.22487511707231353,-0.09007414968970111,0.20354648451421475,-0.08180867165743723,0.0073632205060418605,-0.0013631575985431996,-0.002999469184667047,81.0,2.0,871000000.0,odom,base_footprint,-0.1869951594053868,-0.2412674765320578,-0.0010034767424104,0.0035296514554887,0.0015816212777906,-0.9140839033150276,0.4055066679292706,"(1e-05, 0.0, 0.0, 0.0, 0.0, 0.0, 0.0, 1e-05, 0.0, 0.0, 0.0, 0.0, 0.0, 0.0, 1000000000000.0, 0.0, 0.0, 0.0, 0.0, 0.0, 0.0, 1000000000000.0, 0.0, 0.0, 0.0, 0.0, 0.0, 0.0, 1000000000000.0, 0.0, 0.0, 0.0, 0.0, 0.0, 0.0, 0.001)",0.2211426759824529,4.566453055175612e-05,0.0,0.0,0.0,-0.0882423994122479,"(0.0, 0.0, 0.0, 0.0, 0.0, 0.0, 0.0, 0.0, 0.0, 0.0, 0.0, 0.0, 0.0, 0.0, 0.0, 0.0, 0.0, 0.0, 0.0, 0.0, 0.0, 0.0, 0.0, 0.0, 0.0, 0.0, 0.0, 0.0, 0.0, 0.0, 0.0, 0.0, 0.0, 0.0, 0.0, 0.0)",0.2199999988079071,5.5671462177997455e-05,0.0,0.0,0.0,0.0,78,2,903000000,base_footprint,0.0035310068893371,0.0015832861728381,-0.914155571061786,0.4053450592913923,0.0,0.0,0.0,0.0,0.0,0.0,0.0,0.0,0.0,0.0001585460919549,-0.0001325176867079,-0.0036043944737328,0.0,0.0,0.0,0.0,0.0,0.0,0.0,0.0,0.0,0.0070056826844783,-0.0185735162660317,4.605213570725077e-05,0.0,0.0,0.0,0.0,0.0,0.0,0.0,0.0,0.0
2.9370000000000003,-0.005031849252328191,-0.005553966136270405,-7.284867746459867e-05,0.21840352471996247,-0.0021283314256878346,0.0005125541235300705,0.06643064657477994,0.007149086063103059,-0.00133593858274158,-7.08734364754049e-05,82.0,2.0,904000000.0,odom,base_footprint,-0.1918813080588658,-0.2466616813234918,-0.0010037833378977,0.0035311045279983,0.0015833859053477,-0.9141569619729448,0.4053419211804809,"(1e-05, 0.0, 0.0, 0.0, 0.0, 0.0, 0.0, 1e-05, 0.0, 0.0, 0.0, 0.0, 0.0, 0.0, 1000000000000.0, 0.0, 0.0, 0.0, 0.0, 0.0, 0.0, 1000000000000.0, 0.0, 0.0, 0.0, 0.0, 0.0, 0.0, 1000000000000.0, 0.0, 0.0, 0.0, 0.0, 0.0, 0.0, 0.001)",0.2204702353757333,5.236544278239275e-06,0.0,0.0,0.0,-0.0034412009289753,"(0.0, 0.0, 0.0, 0.0, 0.0, 0.0, 0.0, 0.0, 0.0, 0.0, 0.0, 0.0, 0.0, 0.0, 0.0, 0.0, 0.0, 0.0, 0.0, 0.0, 0.0, 0.0, 0.0, 0.0, 0.0, 0.0, 0.0, 0.0, 0.0, 0.0, 0.0, 0.0, 0.0, 0.0, 0.0, 0.0)",0.2199999988079071,5.5671462177997455e-05,0.0,0.0,0.0,0.0,79,2,937000000,base_footprint,0.0035328619350851,0.001584546519518,-0.9141703262026843,0.4053117599938999,0.0,0.0,0.0,0.0,0.0,0.0,0.0,0.0,0.0,5.213182461731143e-05,-8.233784220451504e-05,-0.000734302148139,0.0,0.0,0.0,0.0,0.0,0.0,0.0,0.0,0.0,0.0009635599012575,-0.0025955756441576,-5.742052546339924e-05,0.0,0.0,0.0,0.0,0.0,0.0,0.0,0.0,0.0
2.971,-0.005029220227529607,-0.005550141289855315,4.13680561353047e-05,0.21840352471996247,-0.0021283314256878346,0.0005125541235300705,0.06643064657477994,0.007149086063103059,-0.00133593858274158,-7.08734364754049e-05,83.0,2.0,937000000.0,odom,base_footprint,-0.1967651028979387,-0.2520521791696666,-0.0010040674249934,0.0035329179579616,0.0015845677920215,-0.9141704529051556,0.4053114736481034,"(1e-05, 0.0, 0.0, 0.0, 0.0, 0.0, 0.0, 1e-05, 0.0, 0.0, 0.0, 0.0, 0.0, 0.0, 1000000000000.0, 0.0, 0.0, 0.0, 0.0, 0.0, 0.0, 1000000000000.0, 0.0, 0.0, 0.0, 0.0, 0.0, 0.0, 1000000000000.0, 0.0, 0.0, 0.0, 0.0, 0.0, 0.0, 0.001)",0.2203835804107808,-1.412889310145604e-06,0.0,0.0,0.0,-0.0006339310647883,"(0.0, 0.0, 0.0, 0.0, 0.0, 0.0, 0.0, 0.0, 0.0, 0.0, 0.0, 0.0, 0.0, 0.0, 0.0, 0.0, 0.0, 0.0, 0.0, 0.0, 0.0, 0.0, 0.0, 0.0, 0.0, 0.0, 0.0, 0.0, 0.0, 0.0, 0.0, 0.0, 0.0, 0.0, 0.0, 0.0)",0.2199999988079071,4.56645320809912e-05,0.0,0.0,0.0,-0.0308064986020326,80,2,971000000,base_footprint,0.0035334530022654,0.0015823199999834,-0.9141619475393894,0.4053306608736737,0.0,0.0,0.0,0.0,0.0,0.0,0.0,0.0,0.0,0.0004039662889023,0.0004760433280717,0.0031024621950712,0.0,0.0,0.0,0.0,0.0,0.0,0.0,0.0,0.0,-0.0022669618988912,-0.005694879372378,0.0009069088144768,0.0,0.0,0.0,0.0,0.0,0.0,0.0,0.0,0.0
3.005,-0.004994253414203287,-0.005517073574651976,-0.00027343045521011083,0.2182676378150065,-0.027030228447589132,-0.20067832984088266,-0.8327458423327889,0.007144019971678021,-0.0013384092566363424,-0.0009001066073047181,83.0,2.0,937000000.0,odom,base_footprint,-0.1967651028979387,-0.2520521791696666,-0.0010040674249934,0.0035329179579616,0.0015845677920215,-0.9141704529051556,0.4053114736481034,"(1e-05, 0.0, 0.0, 0.0, 0.0, 0.0, 0.0, 1e-05, 0.0, 0.0, 0.0, 0.0, 0.0, 0.0, 1000000000000.0, 0.0, 0.0, 0.0, 0.0, 0.0, 0.0, 1000000000000.0, 0.0, 0.0, 0.0, 0.0, 0.0, 0.0, 1000000000000.0, 0.0, 0.0, 0.0, 0.0, 0.0, 0.0, 0.001)",0.2203835804107808,-1.412889310145604e-06,0.0,0.0,0.0,-0.0006339310647883,"(0.0, 0.0, 0.0, 0.0, 0.0, 0.0, 0.0, 0.0, 0.0, 0.0, 0.0, 0.0, 0.0, 0.0, 0.0, 0.0, 0.0, 0.0, 0.0, 0.0, 0.0, 0.0, 0.0, 0.0, 0.0, 0.0, 0.0, 0.0, 0.0, 0.0, 0.0, 0.0, 0.0, 0.0, 0.0, 0.0)",0.2199999988079071,4.56645320809912e-05,0.0,0.0,0.0,-0.0308064986020326,81,3,5000000,base_footprint,0.0035358667441145,0.0015721309640352,-0.914217376082478,0.405205645715196,0.0,0.0,0.0,0.0,0.0,0.0,0.0,0.0,0.0,-0.0004797927770881,-0.0001403225899953,0.0016392062152408,0.0,0.0,0.0,0.0,0.0,0.0,0.0,0.0,0.0,0.0097595771654629,-0.0659170748633281,-0.002460855649216,0.0,0.0,0.0,0.0,0.0,0.0,0.0,0.0,0.0
3.039,-0.00498925336705891,-0.0055049928063715114,-0.00018479593217213264,0.21800546292162132,-0.024197710205150522,-0.007873119921476735,0.08506060788103934,0.00713429607696511,-0.0013428872698298864,-0.0008057837498315124,85.0,3.0,4000000.0,odom,base_footprint,-0.2066406086824938,-0.2629560868924144,-0.0010035025188734,0.0035358667441145,0.0015721309640352,-0.914217376082478,0.405205645715196,"(1e-05, 0.0, 0.0, 0.0, 0.0, 0.0, 0.0, 1e-05, 0.0, 0.0, 0.0, 0.0, 0.0, 0.0, 1000000000000.0, 0.0, 0.0, 0.0, 0.0, 0.0, 0.0, 1000000000000.0, 0.0, 0.0, 0.0, 0.0, 0.0, 0.0, 1000000000000.0, 0.0, 0.0, 0.0, 0.0, 0.0, 0.0, 0.001)",0.2179394028044091,3.703312060233943e-05,0.0,0.0,0.0,0.0016424532006669,"(0.0, 0.0, 0.0, 0.0, 0.0, 0.0, 0.0, 0.0, 0.0, 0.0, 0.0, 0.0, 0.0, 0.0, 0.0, 0.0, 0.0, 0.0, 0.0, 0.0, 0.0, 0.0, 0.0, 0.0, 0.0, 0.0, 0.0, 0.0, 0.0, 0.0, 0.0, 0.0, 0.0, 0.0, 0.0, 0.0)",0.2199999988079071,4.56645320809912e-05,0.0,0.0,0.0,-0.0308064986020326,82,3,39000000,base_footprint,0.0035395552156076,0.0015738289572046,-0.9142547973256916,0.4051211672799239,0.0,0.0,0.0,0.0,0.0,0.0,0.0,0.0,0.0,-0.0005190778661798,-0.0005522898043832,-0.0193161991204678,0.0,0.0,0.0,0.0,0.0,0.0,0.0,0.0,0.0,-0.0025891365513369,0.0507984316631251,-0.00040990677581,0.0,0.0,0.0,0.0,0.0,0.0,0.0,0.0,0.0
3.073,-0.005026755717459114,-0.0055408148180272065,-0.0008142982704519852,0.2244500209496315,-0.024271662897226733,0.19353027111141724,-0.002220801563850179,0.007344078068148307,-0.0013885122002949,-0.0008082463744776503,87.0,3.0,71000000.0,odom,base_footprint,-0.2165089641042082,-0.2738393747455041,-0.0010042367361846,0.0035419725748335,0.0015720857601829,-0.9144161355447972,0.4047568579183815,"(1e-05, 0.0, 0.0, 0.0, 0.0, 0.0, 0.0, 1e-05, 0.0, 0.0, 0.0, 0.0, 0.0, 0.0, 1000000000000.0, 0.0, 0.0, 0.0, 0.0, 0.0, 0.0, 1000000000000.0, 0.0, 0.0, 0.0, 0.0, 0.0, 0.0, 1000000000000.0, 0.0, 0.0, 0.0, 0.0, 0.0, 0.0, 0.001)",0.2199026420926082,9.540742951716363e-06,0.0,0.0,0.0,-0.0242502176987374,"(0.0, 0.0, 0.0, 0.0, 0.0, 0.0, 0.0, 0.0, 0.0, 0.0, 0.0, 0.0, 0.0, 0.0, 0.0, 0.0, 0.0, 0.0, 0.0, 0.0, 0.0, 0.0, 0.0, 0.0, 0.0, 0.0, 0.0, 0.0, 0.0, 0.0, 0.0, 0.0, 0.0, 0.0, 0.0, 0.0)",0.2199999988079071,3.703312177094631e-05,0.0,0.0,0.0,0.042668092995882,83,3,73000000,base_footprint,0.0035428625302573,0.0015730032819903,-0.9144196575590864,0.4047488896282359,0.0,0.0,0.0,0.0,0.0,0.0,0.0,0.0,0.0,-0.0020555440993928,-0.0011179181856257,-0.0174028703480317,0.0,0.0,0.0,0.0,0.0,0.0,0.0,0.0,0.0,0.0060689991034052,-0.0018872949332598,-0.0066157202898264,0.0,0.0,0.0,0.0,0.0,0.0,0.0,0.0,0.0
3.107,-0.004998721825424685,-0.005511323634913801,0.0013267607664153578,0.2177160759772449,0.04571624293169273,-0.20222056974133953,2.101738913781365,0.007124221136186046,-0.0013443103585539294,0.001522350889625368,87.0,3.0,71000000.0,odom,base_footprint,-0.2165089641042082,-0.2738393747455041,-0.0010042367361846,0.0035419725748335,0.0015720857601829,-0.9144161355447972,0.4047568579183815,"(1e-05, 0.0, 0.0, 0.0, 0.0, 0.0, 0.0, 1e-05, 0.0, 0.0, 0.0, 0.0, 0.0, 0.0, 1000000000000.0, 0.0, 0.0, 0.0, 0.0, 0.0, 0.0, 1000000000000.0, 0.0, 0.0, 0.0, 0.0, 0.0, 0.0, 1000000000000.0, 0.0, 0.0, 0.0, 0.0, 0.0, 0.0, 0.001)",0.2199026420926082,9.540742951716363e-06,0.0,0.0,0.0,-0.0242502176987374,"(0.0, 0.0, 0.0, 0.0, 0.0, 0.0, 0.0, 0.0, 0.0, 0.0, 0.0, 0.0, 0.0, 0.0, 0.0, 0.0, 0.0, 0.0, 0.0, 0.0, 0.0, 0.0, 0.0, 0.0, 0.0, 0.0, 0.0, 0.0, 0.0, 0.0, 0.0, 0.0, 0.0, 0.0, 0.0, 0.0)",0.2199999988079071,3.703312177094631e-05,0.0,0.0,0.0,0.042668092995882,84,3,107000000,base_footprint,0.0035296267480291,0.0015749026059683,-0.9141509868768732,0.405355442308155,0.0,0.0,0.0,0.0,0.0,0.0,0.0,0.0,0.0,-0.0006946941689299,-0.0001674236011733,0.0479657589755585,0.0,0.0,0.0,0.0,0.0,0.0,0.0,0.0,0.0,-0.0130834998345502,-0.0087811305181436,0.0076716999903662,0.0,0.0,0.0,0.0,0.0,0.0,0.0,0.0,0.0
3.141,-0.004985501686771504,-0.005517441925485256,0.0012646781925464976,0.21773079566992048,0.04570385650609482,0.0004420328130804784,-0.0003719647326698876,0.007126740920850405,-0.001333554865340789,0.0015219384216529576,88.0,3.0,104000000.0,odom,base_footprint,-0.2213610602879981,-0.2791879208858963,-0.0010029640245334,0.0035291742912129,0.0015747066702552,-0.9141704359157814,0.4053115830139511,"(1e-05, 0.0, 0.0, 0.0, 0.0, 0.0, 0.0, 1e-05, 0.0, 0.0, 0.0, 0.0, 0.0, 0.0, 1000000000000.0, 0.0, 0.0, 0.0, 0.0, 0.0, 0.0, 1000000000000.0, 0.0, 0.0, 0.0, 0.0, 0.0, 0.0, 1000000000000.0, 0.0, 0.0, 0.0, 0.0, 0.0, 0.0, 0.001)",0.2193264974396794,0.000136742525424,0.0,0.0,0.0,0.0483923710630707,"(0.0, 0.0, 0.0, 0.0, 0.0, 0.0, 0.0, 0.0, 0.0, 0.0, 0.0, 0.0, 0.0, 0.0, 0.0, 0.0, 0.0, 0.0, 0.0, 0.0, 0.0, 0.0, 0.0, 0.0, 0.0, 0.0, 0.0, 0.0, 0.0, 0.0, 0.0, 0.0, 0.0, 0.0, 0.0, 0.0)",0.2199999988079071,3.703312177094631e-05,0.0,0.0,0.0,0.042668092995882,85,3,141000000,base_footprint,0.003529436128943,0.00157740194642,-0.9138944791780712,0.4059334130267591,0.0,0.0,0.0,0.0,0.0,0.0,0.0,0.0,0.0,-7.893081223265823e-05,0.0005814318520856,0.0227165012545404,0.0,0.0,0.0,0.0,0.0,0.0,0.0,0.0,0.0,0.0010442360001474,-0.0463147353652438,0.0006711297696894,0.0,0.0,0.0,0.0,0.0,0.0,0.0,0.0,0.0
3.175,-0.004964766503610801,-0.005501016553365101,0.0009237794447374271,0.22422601832189817,0.043612953803846895,0.19505173129062128,-0.06278987093837612,0.0073413761183591724,-0.0013624207033712601,0.0014523113616681017,88.0,3.0,104000000.0,odom,base_footprint,-0.2213610602879981,-0.2791879208858963,-0.0010029640245334,0.0035291742912129,0.0015747066702552,-0.9141704359157814,0.4053115830139511,"(1e-05, 0.0, 0.0, 0.0, 0.0, 0.0, 0.0, 1e-05, 0.0, 0.0, 0.0, 0.0, 0.0, 0.0, 1000000000000.0, 0.0, 0.0, 0.0, 0.0, 0.0, 0.0, 1000000000000.0, 0.0, 0.0, 0.0, 0.0, 0.0, 0.0, 1000000000000.0, 0.0, 0.0, 0.0, 0.0, 0.0, 0.0, 0.001)",0.2193264974396794,0.000136742525424,0.0,0.0,0.0,0.0483923710630707,"(0.0, 0.0, 0.0, 0.0, 0.0, 0.0, 0.0, 0.0, 0.0, 0.0, 0.0, 0.0, 0.0, 0.0, 0.0, 0.0, 0.0, 0.0, 0.0, 0.0, 0.0, 0.0, 0.0, 0.0, 0.0, 0.0, 0.0, 0.0, 0.0, 0.0, 0.0, 0.0, 0.0, 0.0, 0.0, 0.0)",0.2084210515022277,0.0001367425284115,0.0,0.0,0.0,0.0237769857048988,86,3,175000000,base_footprint,0.0035405307709579,0.0015787872001098,-0.9137068552766926,0.4063554536279953,0.0,0.0,0.0,0.0,0.0,0.0,0.0,0.0,0.0,-0.0087322857123602,-0.0005871679647401,0.0477590253412175,0.0,0.0,0.0,0.0,0.0,0.0,0.0,0.0,0.0,-0.0022033061193133,-0.0447518329513704,-0.0087369637053867,0.0,0.0,0.0,0.0,0.0,0.0,0.0,0.0,0.0
3.209,-0.004771364757158697,-0.0053014307753362355,0.0013481898688141314,0.20647403830248945,0.022559259207880458,-0.533092493075337,-0.632243080959953,0.0067615377324980125,-0.0012471090166266598,0.0007512233316224193,90.0,3.0,171000000.0,odom,base_footprint,-0.2311697121140501,-0.2900481654324464,-0.001002958800375,0.0035283508682512,0.0015767469936717,-0.9137330443634194,0.4062966751616678,"(1e-05, 0.0, 0.0, 0.0, 0.0, 0.0, 0.0, 1e-05, 0.0, 0.0, 0.0, 0.0, 0.0, 0.0, 1000000000000.0, 0.0, 0.0, 0.0, 0.0, 0.0, 0.0, 1000000000000.0, 0.0, 0.0, 0.0, 0.0, 0.0, 0.0, 1000000000000.0, 0.0, 0.0, 0.0, 0.0, 0.0, 0.0, 0.001)",0.2186739691256553,4.30837036460574e-05,0.0,0.0,0.0,0.0336115459552087,"(0.0, 0.0, 0.0, 0.0, 0.0, 0.0, 0.0, 0.0, 0.0, 0.0, 0.0, 0.0, 0.0, 0.0, 0.0, 0.0, 0.0, 0.0, 0.0, 0.0, 0.0, 0.0, 0.0, 0.0, 0.0, 0.0, 0.0, 0.0, 0.0, 0.0, 0.0, 0.0, 0.0, 0.0, 0.0, 0.0)",0.2084210515022277,0.0001367425284115,0.0,0.0,0.0,0.0237769857048988,87,3,209000000,base_footprint,0.0035278535244991,0.0015790398370318,-0.9134327617599174,0.4069713142548907,0.0,0.0,0.0,0.0,0.0,0.0,0.0,0.0,0.0,-0.001377245221538,0.0006623140118341,0.0212232369112717,0.0,0.0,0.0,0.0,0.0,0.0,0.0,0.0,0.0,0.0207059064279542,-0.2445572080755489,0.0055784566818898,0.0,0.0,0.0,0.0,0.0,0.0,0.0,0.0,0.0
3.243,-0.004726976111976311,-0.0052601453860565694,0.0006868686464134299,0.2062465252605145,0.01999101665951009,-0.006832223482730811,-0.07712440085196301,0.006754968111959499,-0.0012409495107050415,0.000665700854761686,92.0,3.0,237000000.0,odom,base_footprint,-0.2404088883287087,-0.3003193008880874,-0.0010029085677878,0.0035265265216435,0.0015806107008855,-0.9133131065210506,0.4072397754853675,"(1e-05, 0.0, 0.0, 0.0, 0.0, 0.0, 0.0, 1e-05, 0.0, 0.0, 0.0, 0.0, 0.0, 0.0, 1000000000000.0, 0.0, 0.0, 0.0, 0.0, 0.0, 0.0, 1000000000000.0, 0.0, 0.0, 0.0, 0.0, 0.0, 0.0, 1000000000000.0, 0.0, 0.0, 0.0, 0.0, 0.0, 0.0, 0.001)",0.2080393728005959,3.189986001116141e-05,0.0,0.0,0.0,0.0197625319879074,"(0.0, 0.0, 0.0, 0.0, 0.0, 0.0, 0.0, 0.0, 0.0, 0.0, 0.0, 0.0, 0.0, 0.0, 0.0, 0.0, 0.0, 0.0, 0.0, 0.0, 0.0, 0.0, 0.0, 0.0, 0.0, 0.0, 0.0, 0.0, 0.0, 0.0, 0.0, 0.0, 0.0, 0.0, 0.0, 0.0)",0.2084210515022277,0.0001367425284115,0.0,0.0,0.0,0.0237769857048988,88,3,243000000,base_footprint,0.0035262545090882,0.001580933047988,-0.9132929407399714,0.4072849992012598,0.0,0.0,0.0,0.0,0.0,0.0,0.0,0.0,0.0,5.618974686503042e-05,-3.639350111720409e-05,0.0197071094039588,0.0,0.0,0.0,0.0,0.0,0.0,0.0,0.0,0.0,-0.007982642831838,0.0035810816470397,0.0016920932632419,0.0,0.0,0.0,0.0,0.0,0.0,0.0,0.0,0.0
3.277,-0.004733916489302187,-0.005274846859432913,0.0006381822412011573,0.21265405593891915,0.020119522380237287,0.1924183386908298,0.0038590306524683977,0.006965679943582918,-0.0012748508309357615,0.0006699800952619017,92.0,3.0,237000000.0,odom,base_footprint,-0.2404088883287087,-0.3003193008880874,-0.0010029085677878,0.0035265265216435,0.0015806107008855,-0.9133131065210506,0.4072397754853675,"(1e-05, 0.0, 0.0, 0.0, 0.0, 0.0, 0.0, 1e-05, 0.0, 0.0, 0.0, 0.0, 0.0, 0.0, 1000000000000.0, 0.0, 0.0, 0.0, 0.0, 0.0, 0.0, 1000000000000.0, 0.0, 0.0, 0.0, 0.0, 0.0, 0.0, 1000000000000.0, 0.0, 0.0, 0.0, 0.0, 0.0, 0.0, 0.001)",0.2080393728005959,3.189986001116141e-05,0.0,0.0,0.0,0.0197625319879074,"(0.0, 0.0, 0.0, 0.0, 0.0, 0.0, 0.0, 0.0, 0.0, 0.0, 0.0, 0.0, 0.0, 0.0, 0.0, 0.0, 0.0, 0.0, 0.0, 0.0, 0.0, 0.0, 0.0, 0.0, 0.0, 0.0, 0.0, 0.0, 0.0, 0.0, 0.0, 0.0, 0.0, 0.0, 0.0, 0.0)",0.2199999988079071,3.189986091456376e-05,0.0,0.0,0.0,-0.0376733690500259,89,3,277000000,base_footprint,0.0035157698597651,0.0015823599207794,-0.9131629580736668,0.4075764314843599,0.0,0.0,0.0,0.0,0.0,0.0,0.0,0.0,0.0,0.0023125240717616,0.0001940578579522,0.009423926004931,0.0,0.0,0.0,0.0,0.0,0.0,0.0,0.0,0.0,-0.0144351101346689,0.1043074454032103,0.0037743154317103,0.0,0.0,0.0,0.0,0.0,0.0,0.0,0.0,0.0
3.311,-0.00496703565081652,-0.00553548344628102,-0.0009851982207038645,0.21792685196612438,-0.039943039198280995,0.1583422230391962,-1.8036805278834318,0.007137963251726404,-0.0013088169559822963,-0.0013301032053027572,93.0,3.0,271000000.0,odom,base_footprint,-0.2451354298250318,-0.305585249305997,-0.0010029132183959,0.0035252040195437,0.0015830419605343,-0.9131769927390035,0.4075449016328403,"(1e-05, 0.0, 0.0, 0.0, 0.0, 0.0, 0.0, 1e-05, 0.0, 0.0, 0.0, 0.0, 0.0, 0.0, 1000000000000.0, 0.0, 0.0, 0.0, 0.0, 0.0, 0.0, 1000000000000.0, 0.0, 0.0, 0.0, 0.0, 0.0, 0.0, 1000000000000.0, 0.0, 0.0, 0.0, 0.0, 0.0, 0.0, 0.001)",0.2082071110833339,1.806450469733767e-05,0.0,0.0,0.0,0.0194217014198512,"(0.0, 0.0, 0.0, 0.0, 0.0, 0.0, 0.0, 0.0, 0.0, 0.0, 0.0, 0.0, 0.0, 0.0, 0.0, 0.0, 0.0, 0.0, 0.0, 0.0, 0.0, 0.0, 0.0, 0.0, 0.0, 0.0, 0.0, 0.0, 0.0, 0.0, 0.0, 0.0, 0.0, 0.0, 0.0, 0.0)",0.2199999988079071,3.189986091456376e-05,0.0,0.0,0.0,-0.0376733690500259,90,3,311000000,base_footprint,0.0035254345861031,0.0015842719641407,-0.9133635856266056,0.4071265427906081,0.0,0.0,0.0,0.0,0.0,0.0,0.0,0.0,0.0,0.0003879230281099,0.0001280536421397,-0.0423203453570711,0.0,0.0,0.0,0.0,0.0,0.0,0.0,0.0,0.0,-0.0227578659587808,0.2615848995298875,-0.0019147079084224,0.0,0.0,0.0,0.0,0.0,0.0,0.0,0.0,0.0
3.345,-0.0050180013481000985,-0.005575994832454911,-0.0014333416698990578,0.21821669599017635,-0.041757456138160905,0.00870402474630529,-0.05448699519158886,0.007145667355397594,-0.001320279245954385,-0.0013905232894007582,95.0,3.0,337000000.0,odom,base_footprint,-0.2547888496208794,-0.3163318438703505,-0.0010033309876209,0.0035270554131575,0.0015849184801602,-0.9135952294613486,0.4066064493081601,"(1e-05, 0.0, 0.0, 0.0, 0.0, 0.0, 0.0, 1e-05, 0.0, 0.0, 0.0, 0.0, 0.0, 0.0, 1000000000000.0, 0.0, 0.0, 0.0, 0.0, 0.0, 0.0, 1000000000000.0, 0.0, 0.0, 0.0, 0.0, 0.0, 0.0, 1000000000000.0, 0.0, 0.0, 0.0, 0.0, 0.0, 0.0, 0.001)",0.2206850370306355,3.507366044519511e-05,0.0,0.0,0.0,-0.0421999956510659,"(0.0, 0.0, 0.0, 0.0, 0.0, 0.0, 0.0, 0.0, 0.0, 0.0, 0.0, 0.0, 0.0, 0.0, 0.0, 0.0, 0.0, 0.0, 0.0, 0.0, 0.0, 0.0, 0.0, 0.0, 0.0, 0.0, 0.0, 0.0, 0.0, 0.0, 0.0, 0.0, 0.0, 0.0, 0.0, 0.0)",0.2199999988079071,3.189986091456376e-05,0.0,0.0,0.0,-0.0376733690500259,91,3,345000000,base_footprint,0.0035276081544338,0.0015850587027684,-0.9136551145125668,0.406471862857254,0.0,0.0,0.0,0.0,0.0,0.0,0.0,0.0,0.0,0.0002594403158409,3.075091136785815e-05,-0.042146949576482,0.0,0.0,0.0,0.0,0.0,0.0,0.0,0.0,0.0,0.0089922425675332,0.0053810322807913,-0.0002676563648107,0.0,0.0,0.0,0.0,0.0,0.0,0.0,0.0,0.0
3.379,-0.005029876085422269,-0.005573778840408883,-0.0011045756784069383,0.2249704963935507,-0.04271713189800445,0.20281682893016112,-0.028819091887193463,0.007364903790277948,-0.0013715019494504076,-0.0014224804922035482,95.0,3.0,337000000.0,odom,base_footprint,-0.2547888496208794,-0.3163318438703505,-0.0010033309876209,0.0035270554131575,0.0015849184801602,-0.9135952294613486,0.4066064493081601,"(1e-05, 0.0, 0.0, 0.0, 0.0, 0.0, 0.0, 1e-05, 0.0, 0.0, 0.0, 0.0, 0.0, 0.0, 1000000000000.0, 0.0, 0.0, 0.0, 0.0, 0.0, 0.0, 1000000000000.0, 0.0, 0.0, 0.0, 0.0, 0.0, 0.0, 1000000000000.0, 0.0, 0.0, 0.0, 0.0, 0.0, 0.0, 0.001)",0.2206850370306355,3.507366044519511e-05,0.0,0.0,0.0,-0.0421999956510659,"(0.0, 0.0, 0.0, 0.0, 0.0, 0.0, 0.0, 0.0, 0.0, 0.0, 0.0, 0.0, 0.0, 0.0, 0.0, 0.0, 0.0, 0.0, 0.0, 0.0, 0.0, 0.0, 0.0, 0.0, 0.0, 0.0, 0.0, 0.0, 0.0, 0.0, 0.0, 0.0, 0.0, 0.0, 0.0, 0.0)",0.2199999988079071,3.507365909172222e-05,0.0,0.0,0.0,0.0480564273893833,92,3,379000000,base_footprint,0.0035236810187008,0.0015775097226399,-0.9138794931934808,0.4059671994823969,0.0,0.0,0.0,0.0,0.0,0.0,0.0,0.0,0.0,-0.0002924492183096,-0.0019352107870383,0.0308355112628194,0.0,0.0,0.0,0.0,0.0,0.0,0.0,0.0,0.0,0.0093469940187983,0.0076932212119166,-0.0012239685271011,0.0,0.0,0.0,0.0,0.0,0.0,0.0,0.0,0.0
3.4130000000000003,-0.00501443982073152,-0.005555255941126103,0.0015307690009858101,0.21835777168603415,0.04488514102226645,-0.1985803215470438,2.6306988864946215,0.007148469694091174,-0.0013309303234839743,0.001494675196041473,97.0,3.0,404000000.0,odom,base_footprint,-0.2646881915122804,-0.3273006139782871,-0.0010036656605636,0.003528601226386,0.0015870024442814,-0.913642155595024,0.4065009740656286,"(1e-05, 0.0, 0.0, 0.0, 0.0, 0.0, 0.0, 1e-05, 0.0, 0.0, 0.0, 0.0, 0.0, 0.0, 1000000000000.0, 0.0, 0.0, 0.0, 0.0, 0.0, 0.0, 1000000000000.0, 0.0, 0.0, 0.0, 0.0, 0.0, 0.0, 1000000000000.0, 0.0, 0.0, 0.0, 0.0, 0.0, 0.0, 0.001)",0.2201434886190355,-5.140094914649063e-05,0.0,0.0,0.0,0.0448887333316087,"(0.0, 0.0, 0.0, 0.0, 0.0, 0.0, 0.0, 0.0, 0.0, 0.0, 0.0, 0.0, 0.0, 0.0, 0.0, 0.0, 0.0, 0.0, 0.0, 0.0, 0.0, 0.0, 0.0, 0.0, 0.0, 0.0, 0.0, 0.0, 0.0, 0.0, 0.0, 0.0, 0.0, 0.0, 0.0, 0.0)",0.2199999988079071,3.507365909172222e-05,0.0,0.0,0.0,0.0480564273893833,93,3,413000000,base_footprint,0.003528889718533,0.0015882331304884,-0.9135684647781662,0.4066665521231642,0.0,0.0,0.0,0.0,0.0,0.0,0.0,0.0,0.0,-0.0001791515802623,-0.0004221305746369,0.0455697717568636,0.0,0.0,0.0,0.0,0.0,0.0,0.0,0.0,0.0,-0.0077737908450544,-0.0249692626100371,0.0011451164357162,0.0,0.0,0.0,0.0,0.0,0.0,0.0,0.0,0.0
3.447,-0.005002745524452401,-0.005562998432761979,0.0016085647402350745,0.21834696163605283,0.047749748154014546,-0.0003246261255653039,0.08602423819063353,0.007150159896712027,-0.0013198377936154758,0.0015900666135286845,97.0,3.0,404000000.0,odom,base_footprint,-0.2646881915122804,-0.3273006139782871,-0.0010036656605636,0.003528601226386,0.0015870024442814,-0.913642155595024,0.4065009740656286,"(1e-05, 0.0, 0.0, 0.0, 0.0, 0.0, 0.0, 1e-05, 0.0, 0.0, 0.0, 0.0, 0.0, 0.0, 1000000000000.0, 0.0, 0.0, 0.0, 0.0, 0.0, 0.0, 1000000000000.0, 0.0, 0.0, 0.0, 0.0, 0.0, 0.0, 1000000000000.0, 0.0, 0.0, 0.0, 0.0, 0.0, 0.0, 0.001)",0.2201434886190355,-5.140094914649063e-05,0.0,0.0,0.0,0.0448887333316087,"(0.0, 0.0, 0.0, 0.0, 0.0, 0.0, 0.0, 0.0, 0.0, 0.0, 0.0, 0.0, 0.0, 0.0, 0.0, 0.0, 0.0, 0.0, 0.0, 0.0, 0.0, 0.0, 0.0, 0.0, 0.0, 0.0, 0.0, 0.0, 0.0, 0.0, 0.0, 0.0, 0.0, 0.0, 0.0, 0.0)",0.2199999988079071,3.507365909172222e-05,0.0,0.0,0.0,0.0480564273893833,94,3,447000000,base_footprint,0.0035298299019093,0.0015911713345109,-0.9132410885665926,0.4074011814272917,0.0,0.0,0.0,0.0,0.0,0.0,0.0,0.0,0.0,-0.0001204584023269,0.0001707120645317,0.0490009432792848,0.0,0.0,0.0,0.0,0.0,0.0,0.0,0.0,0.0,-0.0154692977493387,-0.0066216774037678,0.0002017757542402,0.0,0.0,0.0,0.0,0.0,0.0,0.0,0.0,0.0
3.481,-0.004970097177984911,-0.005550316290025004,0.0015696772671001111,0.22489058081035054,0.05160205567871183,0.1965050803092407,0.1156849106515701,0.007366680862593591,-0.0013472076917909596,0.0017183484541011041,98.0,3.0,437000000.0,odom,base_footprint,-0.2695478014020926,-0.332698089364434,-0.001003973668817,0.0035292154873344,0.0015912734563992,-0.913330393780417,0.4072009384612706,"(1e-05, 0.0, 0.0, 0.0, 0.0, 0.0, 0.0, 1e-05, 0.0, 0.0, 0.0, 0.0, 0.0, 0.0, 1000000000000.0, 0.0, 0.0, 0.0, 0.0, 0.0, 0.0, 1000000000000.0, 0.0, 0.0, 0.0, 0.0, 0.0, 0.0, 1000000000000.0, 0.0, 0.0, 0.0, 0.0, 0.0, 0.0, 0.001)",0.2200150951435405,4.007569444705594e-05,0.0,0.0,0.0,0.048256559742565,"(0.0, 0.0, 0.0, 0.0, 0.0, 0.0, 0.0, 0.0, 0.0, 0.0, 0.0, 0.0, 0.0, 0.0, 0.0, 0.0, 0.0, 0.0, 0.0, 0.0, 0.0, 0.0, 0.0, 0.0, 0.0, 0.0, 0.0, 0.0, 0.0, 0.0, 0.0, 0.0, 0.0, 0.0, 0.0, 0.0)",0.2199999988079071,4.007569441455416e-05,0.0,0.0,0.0,-0.0748203620314598,95,3,481000000,base_footprint,0.0035222123112872,0.0015855200806954,-0.91292110394286,0.4081177993205613,0.0,0.0,0.0,0.0,0.0,0.0,0.0,0.0,0.0,0.0010299482320665,-0.0005905583050502,0.0069653936793107,0.0,0.0,0.0,0.0,0.0,0.0,0.0,0.0,0.0,0.0049314832553604,-0.1073734519634355,0.0008929783950167,0.0,0.0,0.0,0.0,0.0,0.0,0.0,0.0,0.0
3.515,-0.0049012242390706895,-0.005478765782569006,-0.000633767201347446,0.21812202287877458,-0.06983901682968575,-0.20325999794522412,-3.6468790543062335,0.00714456719107414,-0.0013088299669946082,-0.002325639260428536,100.0,3.0,504000000.0,odom,base_footprint,-0.2792935535928426,-0.3435833919009119,-0.0010028573517732,0.003529275180827,0.0015761078034833,-0.91299006804118,0.4079634735598908,"(1e-05, 0.0, 0.0, 0.0, 0.0, 0.0, 0.0, 1e-05, 0.0, 0.0, 0.0, 0.0, 0.0, 0.0, 1000000000000.0, 0.0, 0.0, 0.0, 0.0, 0.0, 0.0, 1000000000000.0, 0.0, 0.0, 0.0, 0.0, 0.0, 0.0, 1000000000000.0, 0.0, 0.0, 0.0, 0.0, 0.0, 0.0, 0.001)",0.2165309163461556,0.0001292246842361,0.0,0.0,0.0,-0.0230259968564411,"(0.0, 0.0, 0.0, 0.0, 0.0, 0.0, 0.0, 0.0, 0.0, 0.0, 0.0, 0.0, 0.0, 0.0, 0.0, 0.0, 0.0, 0.0, 0.0, 0.0, 0.0, 0.0, 0.0, 0.0, 0.0, 0.0, 0.0, 0.0, 0.0, 0.0, 0.0, 0.0, 0.0, 0.0, 0.0, 0.0)",0.2199999988079071,4.007569441455416e-05,0.0,0.0,0.0,-0.0748203620314598,96,3,515000000,base_footprint,0.0035300060822412,0.0015756295440234,-0.9130503904302776,0.407828445530369,0.0,0.0,0.0,0.0,0.0,0.0,0.0,0.0,0.0,-7.163142030839264e-06,-0.0010209199837811,-0.0351290951122872,0.0,0.0,0.0,0.0,0.0,0.0,0.0,0.0,0.0,0.0001213290299835,0.0363172189832187,-0.0046361346053804,0.0,0.0,0.0,0.0,0.0,0.0,0.0,0.0,0.0
