Time,delta_position_x,delta_position_y,delta_yaw,linear_velocity_x,angular_velocity_yaw,linear_acceleration_x,angular_acceleration_yaw,kinematic_delta_x,kinematic_delta_y,kinematic_delta_yaw,header.seq_x,header.stamp.secs_x,header.stamp.nsecs_x,header.frame_id_x,child_frame_id,pose.pose.position.x,pose.pose.position.y,pose.pose.position.z,pose.pose.orientation.x,pose.pose.orientation.y,pose.pose.orientation.z,pose.pose.orientation.w,pose.covariance,twist.twist.linear.x,twist.twist.linear.y,twist.twist.linear.z,twist.twist.angular.x,twist.twist.angular.y,twist.twist.angular.z,twist.covariance,linear.x,linear.y,linear.z,angular.x,angular.y,angular.z,header.seq_y,header.stamp.secs_y,header.stamp.nsecs_y,header.frame_id_y,orientation.x,orientation.y,orientation.z,orientation.w,orientation_covariance_0,orientation_covariance_1,orientation_covariance_2,orientation_covariance_3,orientation_covariance_4,orientation_covariance_5,orientation_covariance_6,orientation_covariance_7,orientation_covariance_8,angular_velocity.x,angular_velocity.y,angular_velocity.z,angular_velocity_covariance_0,angular_velocity_covariance_1,angular_velocity_covariance_2,angular_velocity_covariance_3,angular_velocity_covariance_4,angular_velocity_covariance_5,angular_velocity_covariance_6,angular_velocity_covariance_7,angular_velocity_covariance_8,linear_acceleration.x,linear_acceleration.y,linear_acceleration.z,linear_acceleration_covariance_0,linear_acceleration_covariance_1,linear_acceleration_covariance_2,linear_acceleration_covariance_3,linear_acceleration_covariance_4,linear_acceleration_covariance_5,linear_acceleration_covariance_6,linear_acceleration_covariance_7,linear_acceleration_covariance_8
0.234,-6.019595146788959e-07,-5.971826366746313e-10,9.956700560653148e-08,-4.555180749356103e-06,4.020671740490534e-06,4.386200722038047e-05,-8.779137634137175e-05,-1.5168751895354578e-07,-6.125565498643003e-14,1.3388836895833477e-07,4,0,230000000,odom,base_footprint,0.4999815325607135,0.4999999539117108,-0.0007561784702265,-3.760865744108385e-05,0.0019907383208004,-1.6333279161581453e-07,0.9999980177712856,"(1e-05, 0.0, 0.0, 0.0, 0.0, 0.0, 0.0, 1e-05, 0.0, 0.0, 0.0, 0.0, 0.0, 0.0, 1000000000000.0, 0.0, 0.0, 0.0, 0.0, 0.0, 0.0, 1000000000000.0, 0.0, 0.0, 0.0, 0.0, 0.0, 0.0, 1000000000000.0, 0.0, 0.0, 0.0, 0.0, 0.0, 0.0, 0.001)",-2.081911253178639e-05,-1.7026593226374025e-08,0.0,0.0,0.0,4.583645800306169e-06,"(0.0, 0.0, 0.0, 0.0, 0.0, 0.0, 0.0, 0.0, 0.0, 0.0, 0.0, 0.0, 0.0, 0.0, 0.0, 0.0, 0.0, 0.0, 0.0, 0.0, 0.0, 0.0, 0.0, 0.0, 0.0, 0.0, 0.0, 0.0, 0.0, 0.0, 0.0, 0.0, 0.0, 0.0, 0.0, 0.0)",,,,,,,4,0,234000000,base_footprint,-3.827186554302629e-05,0.0020924667193367,-1.5361462603705707e-07,0.9999978100567368,0.0,0.0,0.0,0.0,0.0,0.0,0.0,0.0,0.0,-0.0004332762532964,0.0676932648647149,1.308894257934304e-06,0.0,0.0,0.0,0.0,0.0,0.0,0.0,0.0,0.0,-0.0002945773939488,3.7145786725512586e-07,0.0001534104479964,0.0,0.0,0.0,0.0,0.0,0.0,0.0,0.0,0.0
0.268,-9.429515351877527e-07,-3.825568750670527e-10,1.029041214293589e-07,-4.0718697231607435e-06,8.63415594276306e-06,1.4513844630491282e-05,0.00013854306913731312,-1.3559326178122678e-07,-8.324944377115208e-14,2.8751739289400996e-07,5,0,262000000,odom,base_footprint,0.4999806513752391,0.4999999535340601,-0.0009039535231998,-4.490701041017242e-05,0.0031091933386415,-4.868939297319618e-08,0.999995165438384,"(1e-05, 0.0, 0.0, 0.0, 0.0, 0.0, 0.0, 1e-05, 0.0, 0.0, 0.0, 0.0, 0.0, 0.0, 1000000000000.0, 0.0, 0.0, 0.0, 0.0, 0.0, 0.0, 1000000000000.0, 0.0, 0.0, 0.0, 0.0, 0.0, 0.0, 1000000000000.0, 0.0, 0.0, 0.0, 0.0, 0.0, 0.0, 0.001)",-3.0513584199194043e-05,-1.6318490565615963e-08,0.0,0.0,0.0,5.568926880474474e-06,"(0.0, 0.0, 0.0, 0.0, 0.0, 0.0, 0.0, 0.0, 0.0, 0.0, 0.0, 0.0, 0.0, 0.0, 0.0, 0.0, 0.0, 0.0, 0.0, 0.0, 0.0, 0.0, 0.0, 0.0, 0.0, 0.0, 0.0, 0.0, 0.0, 0.0, 0.0, 0.0, 0.0, 0.0, 0.0, 0.0)",,,,,,,4,0,234000000,base_footprint,-3.827186554302629e-05,0.0020924667193367,-1.5361462603705707e-07,0.9999978100567368,0.0,0.0,0.0,0.0,0.0,0.0,0.0,0.0,0.0,-0.0004332762532964,0.0676932648647149,1.308894257934304e-06,0.0,0.0,0.0,0.0,0.0,0.0,0.0,0.0,0.0,-0.0002945773939488,3.7145786725512586e-07,0.0001534104479964,0.0,0.0,0.0,0.0,0.0,0.0,0.0,0.0,0.0
0.30200000000000005,5.140933867497921e-08,3.7223823456944416e-07,-2.4274219462307958e-06,9.32986445202334e-06,-8.276266872831894e-05,0.0004024544797352577,-0.0027446493895219816,3.1068448625221925e-07,-1.9265236602339343e-13,-2.755996868653021e-06,6,0,297000000,odom,base_footprint,0.4999804307750101,0.5000002985200425,-0.001001957033055,-7.113239889344686e-06,0.0039714714814925,-1.1140777665881118e-06,0.9999921136501188,"(1e-05, 0.0, 0.0, 0.0, 0.0, 0.0, 0.0, 1e-05, 0.0, 0.0, 0.0, 0.0, 0.0, 0.0, 1000000000000.0, 0.0, 0.0, 0.0, 0.0, 0.0, 0.0, 1000000000000.0, 0.0, 0.0, 0.0, 0.0, 0.0, 0.0, 1000000000000.0, 0.0, 0.0, 0.0, 0.0, 0.0, 0.0, 0.001)",3.793445279482949e-05,1.339613218470221e-05,0.0,0.0,0.0,-0.000143564734219,"(0.0, 0.0, 0.0, 0.0, 0.0, 0.0, 0.0, 0.0, 0.0, 0.0, 0.0, 0.0, 0.0, 0.0, 0.0, 0.0, 0.0, 0.0, 0.0, 0.0, 0.0, 0.0, 0.0, 0.0, 0.0, 0.0, 0.0, 0.0, 0.0, 0.0, 0.0, 0.0, 0.0, 0.0, 0.0, 0.0)",,,,,,,5,0,268000000,base_footprint,-4.579212181337732e-05,0.003244680506566,-3.3662415172665784e-08,0.9999947349618852,0.0,0.0,0.0,0.0,0.0,0.0,0.0,0.0,0.0,-0.0004337098765973,0.0676168944945793,2.3062636106390984e-06,0.0,0.0,0.0,0.0,0.0,0.0,0.0,0.0,0.0,-0.0002927440709186,1.990336562556495e-08,0.0001536029948348,0.0,0.0,0.0,0.0,0.0,0.0,0.0,0.0,0.0
0.336,1.1680569578231825e-07,5.845565587137003e-09,-1.3241226228327088e-06,1.1023749613368268e-05,-1.1178698141830708e-05,5.0867422262610436e-05,0.002149668786381028,3.670908621242853e-07,-8.018565419589328e-13,-3.7225064812296264e-07,7,0,330000000,odom,base_footprint,0.4999806879811526,0.5000003284913497,-0.0010014952212294,-7.0233989743352e-06,0.0038545502465461,-2.055444501331411e-06,0.9999925711668282,"(1e-05, 0.0, 0.0, 0.0, 0.0, 0.0, 0.0, 1e-05, 0.0, 0.0, 0.0, 0.0, 0.0, 0.0, 1000000000000.0, 0.0, 0.0, 0.0, 0.0, 0.0, 0.0, 1000000000000.0, 0.0, 0.0, 0.0, 0.0, 0.0, 0.0, 1000000000000.0, 0.0, 0.0, 0.0, 0.0, 0.0, 0.0, 0.001)",-3.119871970905888e-07,7.114811895906376e-07,0.0,0.0,0.0,1.208145405845305e-05,"(0.0, 0.0, 0.0, 0.0, 0.0, 0.0, 0.0, 0.0, 0.0, 0.0, 0.0, 0.0, 0.0, 0.0, 0.0, 0.0, 0.0, 0.0, 0.0, 0.0, 0.0, 0.0, 0.0, 0.0, 0.0, 0.0, 0.0, 0.0, 0.0, 0.0, 0.0, 0.0, 0.0, 0.0, 0.0, 0.0)",,,,,,,7,0,336000000,base_footprint,-7.057291156999567e-06,0.0038527849612281,-2.0307829138607683e-06,0.9999925779695134,0.0,0.0,0.0,0.0,0.0,0.0,0.0,0.0,0.0,8.29856349025921e-05,-0.0009473791606858,8.245726688234476e-06,0.0,0.0,0.0,0.0,0.0,0.0,0.0,0.0,0.0,-0.0010156342995788,-0.0001352898951087,0.0005787438525587,0.0,0.0,0.0,0.0,0.0,0.0,0.0,0.0,0.0
0.37,-3.346136145943035e-09,1.5499543093433488e-08,2.4697197250731927e-07,3.270241046128665e-07,2.9723678773551897e-06,-0.00032122298825091293,0.00042495693751308993,1.0889902683579099e-08,-2.5260268951723887e-14,9.897985031592782e-08,8,0,362000000,odom,base_footprint,0.4999806882011159,0.5000003439625945,-0.0010013918253185,-7.053464925244144e-06,0.0038530863132512,-1.9319533454785337e-06,0.9999925768086376,"(1e-05, 0.0, 0.0, 0.0, 0.0, 0.0, 0.0, 1e-05, 0.0, 0.0, 0.0, 0.0, 0.0, 0.0, 1000000000000.0, 0.0, 0.0, 0.0, 0.0, 0.0, 0.0, 1000000000000.0, 0.0, 0.0, 0.0, 0.0, 0.0, 0.0, 1000000000000.0, 0.0, 0.0, 0.0, 0.0, 0.0, 0.0, 0.001)",1.1952355556592326e-07,5.782442484821266e-07,0.0,0.0,0.0,8.522469092439982e-06,"(0.0, 0.0, 0.0, 0.0, 0.0, 0.0, 0.0, 0.0, 0.0, 0.0, 0.0, 0.0, 0.0, 0.0, 0.0, 0.0, 0.0, 0.0, 0.0, 0.0, 0.0, 0.0, 0.0, 0.0, 0.0, 0.0, 0.0, 0.0, 0.0, 0.0, 0.0, 0.0, 0.0, 0.0, 0.0, 0.0)",,,,,,,8,0,370000000,base_footprint,-7.053733845715356e-06,0.0038531028882236,-1.9073111330768348e-06,0.9999925767448176,0.0,0.0,0.0,0.0,0.0,0.0,0.0,0.0,0.0,3.866839576023495e-05,-0.0001628327198367,8.496683491365376e-06,0.0,0.0,0.0,0.0,0.0,0.0,0.0,0.0,0.0,-2.9773520059378623e-05,-1.4380218815779913e-06,-0.0008730068280594,0.0,0.0,0.0,0.0,0.0,0.0,0.0,0.0,0.0
0.404,-3.1879767159459504e-09,1.8709651827819584e-08,2.955264873680498e-07,-6.872089428042157e-08,7.344636686622562e-06,-1.1884234200999641e-05,0.00013129936364166282,-2.2884057795327474e-09,4.919720251509902e-15,2.4457640166453134e-07,9,0,397000000,odom,base_footprint,0.499980685020804,0.5000003623987531,-0.0010013929455286,-7.054305345407204e-06,0.0038531015917944,-1.7862559232414449e-06,0.9999925767500324,"(1e-05, 0.0, 0.0, 0.0, 0.0, 0.0, 0.0, 1e-05, 0.0, 0.0, 0.0, 0.0, 0.0, 0.0, 1000000000000.0, 0.0, 0.0, 0.0, 0.0, 0.0, 0.0, 1000000000000.0, 0.0, 0.0, 0.0, 0.0, 0.0, 0.0, 1000000000000.0, 0.0, 0.0, 0.0, 0.0, 0.0, 0.0, 0.001)",7.876866956640603e-08,6.37233915151366e-07,0.0,0.0,0.0,9.419481950788496e-06,"(0.0, 0.0, 0.0, 0.0, 0.0, 0.0, 0.0, 0.0, 0.0, 0.0, 0.0, 0.0, 0.0, 0.0, 0.0, 0.0, 0.0, 0.0, 0.0, 0.0, 0.0, 0.0, 0.0, 0.0, 0.0, 0.0, 0.0, 0.0, 0.0, 0.0, 0.0, 0.0, 0.0, 0.0, 0.0, 0.0)",,,,,,,9,0,404000000,base_footprint,-7.054421027038306e-06,0.0038531014847047,-1.7595485421686891e-06,0.9999925767504916,0.0,0.0,0.0,0.0,0.0,0.0,0.0,0.0,0.0,3.889463714517588e-05,-0.0001807775677428,9.168645058976316e-06,0.0,0.0,0.0,0.0,0.0,0.0,0.0,0.0,0.0,4.813945007660852e-07,1.3166552401088203e-06,1.950955051832132e-05,0.0,0.0,0.0,0.0,0.0,0.0,0.0,0.0,0.0
0.438,-3.2905211333478235e-09,1.9374305493258248e-08,3.055770106627261e-07,-6.027458556292078e-08,7.790783877885536e-06,2.5364290442945315e-07,1.3397813551440676e-05,-2.0071436992416467e-09,3.8076852107825416e-15,2.594331031335884e-07,9,0,397000000,odom,base_footprint,0.499980685020804,0.5000003623987531,-0.0010013929455286,-7.054305345407204e-06,0.0038531015917944,-1.7862559232414449e-06,0.9999925767500324,"(1e-05, 0.0, 0.0, 0.0, 0.0, 0.0, 0.0, 1e-05, 0.0, 0.0, 0.0, 0.0, 0.0, 0.0, 1000000000000.0, 0.0, 0.0, 0.0, 0.0, 0.0, 0.0, 1000000000000.0, 0.0, 0.0, 0.0, 0.0, 0.0, 0.0, 1000000000000.0, 0.0, 0.0, 0.0, 0.0, 0.0, 0.0, 0.001)",7.876866956640603e-08,6.37233915151366e-07,0.0,0.0,0.0,9.419481950788496e-06,"(0.0, 0.0, 0.0, 0.0, 0.0, 0.0, 0.0, 0.0, 0.0, 0.0, 0.0, 0.0, 0.0, 0.0, 0.0, 0.0, 0.0, 0.0, 0.0, 0.0, 0.0, 0.0, 0.0, 0.0, 0.0, 0.0, 0.0, 0.0, 0.0, 0.0, 0.0, 0.0, 0.0, 0.0, 0.0, 0.0)",,,,,,,10,0,438000000,base_footprint,-7.055063515525271e-06,0.0038531013137667,-1.6067609650091295e-06,0.999992576751403,0.0,0.0,0.0,0.0,0.0,0.0,0.0,0.0,0.0,3.88919492707797e-05,-0.0001803974455091,9.265816161241662e-06,0.0,0.0,0.0,0.0,0.0,0.0,0.0,0.0,0.0,-4.2922451795514346e-08,1.8885090881824766e-07,-4.241242200841858e-07,0.0,0.0,0.0,0.0,0.0,0.0,0.0,0.0,0.0
0.47200000000000003,-3.3051937853301183e-09,1.9469512446690374e-08,3.070167328547426e-07,-4.963198352803622e-08,7.969990940988487e-06,3.1959765870524197e-07,5.381593486575096e-06,-1.6527450514813936e-09,2.701204380100569e-15,2.6540069833491664e-07,10,0,430000000,odom,base_footprint,0.4999806818343936,0.5000003811558003,-0.0010013929198507,-7.054932399082135e-06,0.0038531013333578,-1.6383206694472666e-06,0.9999925767512772,"(1e-05, 0.0, 0.0, 0.0, 0.0, 0.0, 0.0, 1e-05, 0.0, 0.0, 0.0, 0.0, 0.0, 0.0, 1000000000000.0, 0.0, 0.0, 0.0, 0.0, 0.0, 0.0, 1000000000000.0, 0.0, 0.0, 0.0, 0.0, 0.0, 0.0, 1000000000000.0, 0.0, 0.0, 0.0, 0.0, 0.0, 0.0, 0.001)",7.81399713343635e-08,6.461816416205699e-07,0.0,0.0,0.0,9.554641482887744e-06,"(0.0, 0.0, 0.0, 0.0, 0.0, 0.0, 0.0, 0.0, 0.0, 0.0, 0.0, 0.0, 0.0, 0.0, 0.0, 0.0, 0.0, 0.0, 0.0, 0.0, 0.0, 0.0, 0.0, 0.0, 0.0, 0.0, 0.0, 0.0, 0.0, 0.0, 0.0, 0.0, 0.0, 0.0, 0.0, 0.0)",,,,,,,11,0,472000000,base_footprint,-7.055697511467173e-06,0.003853101304499,-1.4532535743636184e-06,0.999992576751669,0.0,0.0,0.0,0.0,0.0,0.0,0.0,0.0,0.0,3.889251028348942e-05,-0.0001804030336857,9.279786483819982e-06,0.0,0.0,0.0,0.0,0.0,0.0,0.0,0.0,0.0,-3.897124186626432e-09,2.7187219028473864e-08,5.024709158884904e-09,0.0,0.0,0.0,0.0,0.0,0.0,0.0,0.0,0.0
0.506,-3.307316587264353e-09,1.9483467283976097e-08,3.0722777602681893e-07,-4.1776302057345474e-08,8.302143061111076e-06,2.3590635047119352e-07,9.974538141819499e-06,-1.391150858508306e-09,1.8972199954308448e-15,2.7646136393499885e-07,10,0,430000000,odom,base_footprint,0.4999806818343936,0.5000003811558003,-0.0010013929198507,-7.054932399082135e-06,0.0038531013333578,-1.6383206694472666e-06,0.9999925767512772,"(1e-05, 0.0, 0.0, 0.0, 0.0, 0.0, 0.0, 1e-05, 0.0, 0.0, 0.0, 0.0, 0.0, 0.0, 1000000000000.0, 0.0, 0.0, 0.0, 0.0, 0.0, 0.0, 1000000000000.0, 0.0, 0.0, 0.0, 0.0, 0.0, 0.0, 1000000000000.0, 0.0, 0.0, 0.0, 0.0, 0.0, 0.0, 0.001)",7.81399713343635e-08,6.461816416205699e-07,0.0,0.0,0.0,9.554641482887744e-06,"(0.0, 0.0, 0.0, 0.0, 0.0, 0.0, 0.0, 0.0, 0.0, 0.0, 0.0, 0.0, 0.0, 0.0, 0.0, 0.0, 0.0, 0.0, 0.0, 0.0, 0.0, 0.0, 0.0, 0.0, 0.0, 0.0, 0.0, 0.0, 0.0, 0.0, 0.0, 0.0, 0.0, 0.0, 0.0, 0.0)",,,,,,,12,0,506000000,base_footprint,-7.056327757320231e-06,0.0038531013019342,-1.2996406788841262e-06,0.999992576751886,0.0,0.0,0.0,0.0,0.0,0.0,0.0,0.0,0.0,3.8892793712360505e-05,-0.0001804026776974,9.281705356456262e-06,0.0,0.0,0.0,0.0,0.0,0.0,0.0,0.0,0.0,-5.83386116299249e-10,3.738427569533012e-09,-5.118054401895578e-10,0.0,0.0,0.0,0.0,0.0,0.0,0.0,0.0,0.0
0.54,-3.3076418270994168e-09,1.948555528041851e-08,3.072593758926073e-07,-3.272336095787947e-08,8.114188393765558e-06,2.718600930770572e-07,-5.644284304670235e-06,-1.0896879198967346e-09,1.188294164483236e-15,2.702024735123931e-07,12,0,497000000,odom,base_footprint,0.4999806753205736,0.5000004195266121,-0.0010013929181559,-7.056179715662144e-06,0.0038531013022739,-1.3357873986300792e-06,0.999992576751838,"(1e-05, 0.0, 0.0, 0.0, 0.0, 0.0, 0.0, 1e-05, 0.0, 0.0, 0.0, 0.0, 0.0, 0.0, 1000000000000.0, 0.0, 0.0, 0.0, 0.0, 0.0, 0.0, 1000000000000.0, 0.0, 0.0, 0.0, 0.0, 0.0, 0.0, 1000000000000.0, 0.0, 0.0, 0.0, 0.0, 0.0, 0.0, 0.001)",7.788540134960259e-08,6.477548521798461e-07,0.0,0.0,0.0,9.578429284367618e-06,"(0.0, 0.0, 0.0, 0.0, 0.0, 0.0, 0.0, 0.0, 0.0, 0.0, 0.0, 0.0, 0.0, 0.0, 0.0, 0.0, 0.0, 0.0, 0.0, 0.0, 0.0, 0.0, 0.0, 0.0, 0.0, 0.0, 0.0, 0.0, 0.0, 0.0, 0.0, 0.0, 0.0, 0.0, 0.0, 0.0)",,,,,,,12,0,506000000,base_footprint,-7.056327757320231e-06,0.0038531013019342,-1.2996406788841262e-06,0.999992576751886,0.0,0.0,0.0,0.0,0.0,0.0,0.0,0.0,0.0,3.8892793712360505e-05,-0.0001804026776974,9.281705356456262e-06,0.0,0.0,0.0,0.0,0.0,0.0,0.0,0.0,0.0,-5.83386116299249e-10,3.738427569533012e-09,-5.118054401895578e-10,0.0,0.0,0.0,0.0,0.0,0.0,0.0,0.0,0.0
0.5740000000000001,-3.3077027783434687e-09,1.9485908886451853e-08,3.0726474763803575e-07,-2.5852301600760764e-08,8.15046529366802e-06,2.063381188323935e-07,1.089396393467355e-06,-8.608816433050418e-10,7.057075413845259e-16,2.714104942791451e-07,14,0,563000000,odom,base_footprint,0.4999806688998424,0.5000004573515895,-0.0010013929195644,-7.057397064729639e-06,0.0038531013005282,-1.0375664344088666e-06,0.99999257675219,"(1e-05, 0.0, 0.0, 0.0, 0.0, 0.0, 0.0, 1e-05, 0.0, 0.0, 0.0, 0.0, 0.0, 0.0, 1000000000000.0, 0.0, 0.0, 0.0, 0.0, 0.0, 0.0, 1000000000000.0, 0.0, 0.0, 0.0, 0.0, 0.0, 0.0, 1000000000000.0, 0.0, 0.0, 0.0, 0.0, 0.0, 0.0, 0.001)",7.788223938455214e-08,6.477750856214702e-07,0.0,0.0,0.0,9.578733780644525e-06,"(0.0, 0.0, 0.0, 0.0, 0.0, 0.0, 0.0, 0.0, 0.0, 0.0, 0.0, 0.0, 0.0, 0.0, 0.0, 0.0, 0.0, 0.0, 0.0, 0.0, 0.0, 0.0, 0.0, 0.0, 0.0, 0.0, 0.0, 0.0, 0.0, 0.0, 0.0, 0.0, 0.0, 0.0, 0.0, 0.0)",,,,,,,13,0,540000000,base_footprint,-7.056955408725804e-06,0.0038531013010255,-1.1460119938085977e-06,0.9999925767520728,0.0,0.0,0.0,0.0,0.0,0.0,0.0,0.0,0.0,3.8893039966365465e-05,-0.0001804026255518,9.281878260755406e-06,0.0,0.0,0.0,0.0,0.0,0.0,0.0,0.0,0.0,-5.914965560362193e-11,3.4136593164052637e-10,-3.425675443629616e-11,0.0,0.0,0.0,0.0,0.0,0.0,0.0,0.0,0.0
0.608,-3.3077250938262637e-09,1.9486008695501766e-08,3.072662880832e-07,-1.99884730189028e-08,8.419199150657166e-06,1.7609094840414304e-07,8.070085795469827e-06,-6.656161515293629e-10,3.6190084966831635e-16,2.8035933171688365e-07,15,0,597000000,odom,base_footprint,0.4999806655921228,0.5000004768375761,-0.0010013929202537,-7.058020903928615e-06,0.0038531012998523,-8.839344809756432e-07,0.999992576752336,"(1e-05, 0.0, 0.0, 0.0, 0.0, 0.0, 0.0, 1e-05, 0.0, 0.0, 0.0, 0.0, 0.0, 0.0, 1000000000000.0, 0.0, 0.0, 0.0, 0.0, 0.0, 0.0, 1000000000000.0, 0.0, 0.0, 0.0, 0.0, 0.0, 0.0, 1000000000000.0, 0.0, 0.0, 0.0, 0.0, 0.0, 0.0, 0.001)",7.788303228038358e-08,6.477695933276973e-07,0.0,0.0,0.0,9.578650188437934e-06,"(0.0, 0.0, 0.0, 0.0, 0.0, 0.0, 0.0, 0.0, 0.0, 0.0, 0.0, 0.0, 0.0, 0.0, 0.0, 0.0, 0.0, 0.0, 0.0, 0.0, 0.0, 0.0, 0.0, 0.0, 0.0, 0.0, 0.0, 0.0, 0.0, 0.0, 0.0, 0.0, 0.0, 0.0, 0.0, 0.0)",,,,,,,15,0,608000000,base_footprint,-7.05820399370592e-06,0.0038531012996536,-8.387485077077567e-07,0.9999925767523742,0.0,0.0,0.0,0.0,0.0,0.0,0.0,0.0,0.0,3.8893502164679205e-05,-0.0001804025723447,9.281728698256307e-06,0.0,0.0,0.0,0.0,0.0,0.0,0.0,0.0,0.0,1.7452689332628818e-11,-1.5991405752989723e-10,1.6349131139201872e-11,0.0,0.0,0.0,0.0,0.0,0.0,0.0,0.0,0.0
0.642,-3.3077419137050867e-09,1.9486071312080355e-08,3.072672653616456e-07,-1.3197030055343765e-08,8.178460301881531e-06,2.0394723614291394e-07,-7.229394858127159e-06,-4.3946110084293033e-10,1.1734272937151846e-16,2.72342728052655e-07,15,0,597000000,odom,base_footprint,0.4999806655921228,0.5000004768375761,-0.0010013929202537,-7.058020903928615e-06,0.0038531012998523,-8.839344809756432e-07,0.999992576752336,"(1e-05, 0.0, 0.0, 0.0, 0.0, 0.0, 0.0, 1e-05, 0.0, 0.0, 0.0, 0.0, 0.0, 0.0, 1000000000000.0, 0.0, 0.0, 0.0, 0.0, 0.0, 0.0, 1000000000000.0, 0.0, 0.0, 0.0, 0.0, 0.0, 0.0, 1000000000000.0, 0.0, 0.0, 0.0, 0.0, 0.0, 0.0, 0.001)",7.788303228038358e-08,6.477695933276973e-07,0.0,0.0,0.0,9.578650188437934e-06,"(0.0, 0.0, 0.0, 0.0, 0.0, 0.0, 0.0, 0.0, 0.0, 0.0, 0.0, 0.0, 0.0, 0.0, 0.0, 0.0, 0.0, 0.0, 0.0, 0.0, 0.0, 0.0, 0.0, 0.0, 0.0, 0.0, 0.0, 0.0, 0.0, 0.0, 0.0, 0.0, 0.0, 0.0, 0.0, 0.0)",,,,,,,16,0,642000000,base_footprint,-7.058825230519691e-06,0.0038531012989737,-6.851159027001232e-07,0.9999925767524894,0.0,0.0,0.0,0.0,0.0,0.0,0.0,0.0,0.0,3.8893723507707455e-05,-0.0001804025473887,9.281655485314203e-06,0.0,0.0,0.0,0.0,0.0,0.0,0.0,0.0,0.0,1.4169381732056724e-11,-1.3845563711526536e-10,1.504526833603705e-11,0.0,0.0,0.0,0.0,0.0,0.0,0.0,0.0,0.0
0.676,-3.307757567849734e-09,1.948612704527619e-08,3.0726813750593616e-07,-7.0798857067254436e-09,8.171644652735348e-06,1.8369802848703667e-07,-2.0467414853403853e-07,-2.3576019403395656e-10,-1.1542722363518373e-18,2.721157669360871e-07,17,0,663000000,odom,base_footprint,0.4999806591712067,0.5000005146634976,-0.0010013929214769,-7.059226206309536e-06,0.0038531012985291,-5.857063408427946e-07,0.9999925767525516,"(1e-05, 0.0, 0.0, 0.0, 0.0, 0.0, 0.0, 1e-05, 0.0, 0.0, 0.0, 0.0, 0.0, 0.0, 1000000000000.0, 0.0, 0.0, 0.0, 0.0, 0.0, 0.0, 1000000000000.0, 0.0, 0.0, 0.0, 0.0, 0.0, 0.0, 1000000000000.0, 0.0, 0.0, 0.0, 0.0, 0.0, 0.0, 0.001)",7.788429105564508e-08,6.477607716886931e-07,0.0,0.0,0.0,9.578516057283634e-06,"(0.0, 0.0, 0.0, 0.0, 0.0, 0.0, 0.0, 0.0, 0.0, 0.0, 0.0, 0.0, 0.0, 0.0, 0.0, 0.0, 0.0, 0.0, 0.0, 0.0, 0.0, 0.0, 0.0, 0.0, 0.0, 0.0, 0.0, 0.0, 0.0, 0.0, 0.0, 0.0, 0.0, 0.0, 0.0, 0.0)",,,,,,,16,0,642000000,base_footprint,-7.058825230519691e-06,0.0038531012989737,-6.851159027001232e-07,0.9999925767524894,0.0,0.0,0.0,0.0,0.0,0.0,0.0,0.0,0.0,3.8893723507707455e-05,-0.0001804025473887,9.281655485314203e-06,0.0,0.0,0.0,0.0,0.0,0.0,0.0,0.0,0.0,1.4169381732056724e-11,-1.3845563711526536e-10,1.504526833603705e-11,0.0,0.0,0.0,0.0,0.0,0.0,0.0,0.0,0.0
0.7100000000000001,-3.3077729999497762e-09,1.94861815572267e-08,3.07268992471396e-07,-6.244405593195368e-10,8.397432862185871e-06,1.93857211633811e-07,6.780426710225933e-06,-2.079387062533969e-11,-5.828536152390819e-18,2.7963451431078956e-07,18,0,697000000,odom,base_footprint,0.4999806558634391,0.50000053414966,-0.0010013929220516,-7.059844436076903e-06,0.0038531012978347,-4.320730341839646e-07,0.999992576752628,"(1e-05, 0.0, 0.0, 0.0, 0.0, 0.0, 0.0, 1e-05, 0.0, 0.0, 0.0, 0.0, 0.0, 0.0, 1000000000000.0, 0.0, 0.0, 0.0, 0.0, 0.0, 0.0, 1000000000000.0, 0.0, 0.0, 0.0, 0.0, 0.0, 0.0, 1000000000000.0, 0.0, 0.0, 0.0, 0.0, 0.0, 0.0, 0.001)",7.788471933942361e-08,6.477576724562326e-07,0.0,0.0,0.0,9.578468962290408e-06,"(0.0, 0.0, 0.0, 0.0, 0.0, 0.0, 0.0, 0.0, 0.0, 0.0, 0.0, 0.0, 0.0, 0.0, 0.0, 0.0, 0.0, 0.0, 0.0, 0.0, 0.0, 0.0, 0.0, 0.0, 0.0, 0.0, 0.0, 0.0, 0.0, 0.0, 0.0, 0.0, 0.0, 0.0, 0.0, 0.0)",,,,,,,17,0,676000000,base_footprint,-7.05944460315071e-06,0.0038531012982851,-5.314828688130389e-07,0.9999925767525812,0.0,0.0,0.0,0.0,0.0,0.0,0.0,0.0,0.0,3.88939391329624e-05,-0.00018040252213,9.28159736513266e-06,0.0,0.0,0.0,0.0,0.0,0.0,0.0,0.0,0.0,9.730959940804002e-12,-1.0938478867002251e-10,1.336404925200584e-11,0.0,0.0,0.0,0.0,0.0,0.0,0.0,0.0,0.0
0.744,-3.3077887096055747e-09,1.9486235292021092e-08,3.07269842302675e-07,6.411003259796797e-09,8.113584141381694e-06,2.1127458916265262e-07,-8.523985609735062e-06,2.1348640855119974e-10,1.186919540482385e-16,2.7018235190801043e-07,18,0,697000000,odom,base_footprint,0.4999806558634391,0.50000053414966,-0.0010013929220516,-7.059844436076903e-06,0.0038531012978347,-4.320730341839646e-07,0.999992576752628,"(1e-05, 0.0, 0.0, 0.0, 0.0, 0.0, 0.0, 1e-05, 0.0, 0.0, 0.0, 0.0, 0.0, 0.0, 1000000000000.0, 0.0, 0.0, 0.0, 0.0, 0.0, 0.0, 1000000000000.0, 0.0, 0.0, 0.0, 0.0, 0.0, 0.0, 1000000000000.0, 0.0, 0.0, 0.0, 0.0, 0.0, 0.0, 0.001)",7.788471933942361e-08,6.477576724562326e-07,0.0,0.0,0.0,9.578468962290408e-06,"(0.0, 0.0, 0.0, 0.0, 0.0, 0.0, 0.0, 0.0, 0.0, 0.0, 0.0, 0.0, 0.0, 0.0, 0.0, 0.0, 0.0, 0.0, 0.0, 0.0, 0.0, 0.0, 0.0, 0.0, 0.0, 0.0, 0.0, 0.0, 0.0, 0.0, 0.0, 0.0, 0.0, 0.0, 0.0, 0.0)",,,,,,,18,0,710000000,base_footprint,-7.060062229678081e-06,0.0038531012975876,-3.77849414180759e-07,0.9999925767526496,0.0,0.0,0.0,0.0,0.0,0.0,0.0,0.0,0.0,3.889414940141074e-05,-0.0001804024964344,9.281554171100776e-06,0.0,0.0,0.0,0.0,0.0,0.0,0.0,0.0,0.0,5.334989243724284e-12,-8.062099113861466e-11,1.1412352287462223e-11,0.0,0.0,0.0,0.0,0.0,0.0,0.0,0.0,0.0
0.778,-3.307803919661012e-09,1.9486288471703972e-08,3.0727068238948736e-07,1.4181087535489864e-08,8.059408372905762e-06,2.3333586413492692e-07,-1.6268999542321972e-06,4.722302149316506e-10,3.895307610719289e-16,2.683782988177619e-07,19,0,729000000,odom,base_footprint,0.499980652652944,0.5000005530627515,-0.0010013929225764,-7.060442881246742e-06,0.0038531012971526,-2.8295795357638133e-07,0.9999925767526796,"(1e-05, 0.0, 0.0, 0.0, 0.0, 0.0, 0.0, 1e-05, 0.0, 0.0, 0.0, 0.0, 0.0, 0.0, 1000000000000.0, 0.0, 0.0, 0.0, 0.0, 0.0, 0.0, 1000000000000.0, 0.0, 0.0, 0.0, 0.0, 0.0, 0.0, 1000000000000.0, 0.0, 0.0, 0.0, 0.0, 0.0, 0.0, 0.001)",7.788499765093247e-08,6.477555668963401e-07,0.0,0.0,0.0,9.578436988567087e-06,"(0.0, 0.0, 0.0, 0.0, 0.0, 0.0, 0.0, 0.0, 0.0, 0.0, 0.0, 0.0, 0.0, 0.0, 0.0, 0.0, 0.0, 0.0, 0.0, 0.0, 0.0, 0.0, 0.0, 0.0, 0.0, 0.0, 0.0, 0.0, 0.0, 0.0, 0.0, 0.0, 0.0, 0.0, 0.0, 0.0)",,,,,,,20,0,778000000,base_footprint,-7.061292680816366e-06,0.0038531012961681,-7.058125357234966e-08,0.999992576752715,0.0,0.0,0.0,0.0,0.0,0.0,0.0,0.0,0.0,3.889455518452858e-05,-0.0001804024439099,9.2815089947649e-06,0.0,0.0,0.0,0.0,0.0,0.0,0.0,0.0,0.0,-2.5810975670002242e-12,-2.8814231954115547e-11,7.969829862129195e-12,0.0,0.0,0.0,0.0,0.0,0.0,0.0,0.0,0.0
0.812,-3.307819296249903e-09,1.9486341318319944e-08,3.0727151707905784e-07,2.4056735182487984e-08,8.224344491222455e-06,2.9656599540534893e-07,4.953036586086894e-06,8.01089281576366e-10,8.781168510623181e-16,2.738706715577078e-07,20,0,755000000,odom,base_footprint,0.4999806494424343,0.5000005719758934,-0.0010013929230706,-7.061039847119336e-06,0.0038531012964629,-1.338424807444519e-07,0.9999925767527093,"(1e-05, 0.0, 0.0, 0.0, 0.0, 0.0, 0.0, 1e-05, 0.0, 0.0, 0.0, 0.0, 0.0, 0.0, 1000000000000.0, 0.0, 0.0, 0.0, 0.0, 0.0, 0.0, 1000000000000.0, 0.0, 0.0, 0.0, 0.0, 0.0, 0.0, 1000000000000.0, 0.0, 0.0, 0.0, 0.0, 0.0, 0.0, 0.001)",7.788515106465261e-08,6.477542812132873e-07,0.0,0.0,0.0,9.578417493441387e-06,"(0.0, 0.0, 0.0, 0.0, 0.0, 0.0, 0.0, 0.0, 0.0, 0.0, 0.0, 0.0, 0.0, 0.0, 0.0, 0.0, 0.0, 0.0, 0.0, 0.0, 0.0, 0.0, 0.0, 0.0, 0.0, 0.0, 0.0, 0.0, 0.0, 0.0, 0.0, 0.0, 0.0, 0.0, 0.0, 0.0)",,,,,,,21,0,812000000,base_footprint,-7.0619057060532185e-06,0.0038531012954473,8.305344560613276e-08,0.9999925767527126,0.0,0.0,0.0,0.0,0.0,0.0,0.0,0.0,0.0,3.88947513550149e-05,-0.0001804024170328,9.28150546919764e-06,0.0,0.0,0.0,0.0,0.0,0.0,0.0,0.0,0.0,-6.348126915069321e-12,-4.170621693943417e-12,6.380928781184151e-12,0.0,0.0,0.0,0.0,0.0,0.0,0.0,0.0,0.0
0.8460000000000001,-3.307834617327643e-09,1.94863934988021e-08,3.072723438694033e-07,3.43219033174231e-08,7.87799641737801e-06,3.082633073554089e-07,-1.0400843058391766e-05,1.1429193804691222e-09,1.559411912688481e-15,2.6233728069868776e-07,21,0,797000000,odom,base_footprint,0.4999806461346213,0.5000005914622131,-0.0010013929235498,-7.061653451666047e-06,0.003853101295745,1.979204914753501e-08,0.9999925767527164,"(1e-05, 0.0, 0.0, 0.0, 0.0, 0.0, 0.0, 1e-05, 0.0, 0.0, 0.0, 0.0, 0.0, 0.0, 1000000000000.0, 0.0, 0.0, 0.0, 0.0, 0.0, 0.0, 1000000000000.0, 0.0, 0.0, 0.0, 0.0, 0.0, 0.0, 1000000000000.0, 0.0, 0.0, 0.0, 0.0, 0.0, 0.0, 0.001)",7.788518316269396e-08,6.477537835537894e-07,0.0,0.0,0.0,9.578409994642202e-06,"(0.0, 0.0, 0.0, 0.0, 0.0, 0.0, 0.0, 0.0, 0.0, 0.0, 0.0, 0.0, 0.0, 0.0, 0.0, 0.0, 0.0, 0.0, 0.0, 0.0, 0.0, 0.0, 0.0, 0.0, 0.0, 0.0, 0.0, 0.0, 0.0, 0.0, 0.0, 0.0, 0.0, 0.0, 0.0, 0.0)",,,,,,,21,0,812000000,base_footprint,-7.0619057060532185e-06,0.0038531012954473,8.305344560613276e-08,0.9999925767527126,0.0,0.0,0.0,0.0,0.0,0.0,0.0,0.0,0.0,3.88947513550149e-05,-0.0001804024170328,9.28150546919764e-06,0.0,0.0,0.0,0.0,0.0,0.0,0.0,0.0,0.0,-6.348126915069321e-12,-4.170621693943417e-12,6.380928781184151e-12,0.0,0.0,0.0,0.0,0.0,0.0,0.0,0.0,0.0
0.88,-3.307849771871929e-09,1.948644534621735e-08,3.072731635788354e-07,4.7588220891430655e-08,7.740314809021523e-06,3.983879151353619e-07,-4.134582833528116e-06,1.5846877556825457e-09,2.5733118767126064e-15,2.577524831404167e-07,22,0,828000000,odom,base_footprint,0.4999806429240823,0.5000006103754558,-0.0010013929239876,-7.062247688303528e-06,0.0038531012950415,1.6890830872736696e-07,0.999992576752701,"(1e-05, 0.0, 0.0, 0.0, 0.0, 0.0, 0.0, 1e-05, 0.0, 0.0, 0.0, 0.0, 0.0, 0.0, 1000000000000.0, 0.0, 0.0, 0.0, 0.0, 0.0, 0.0, 1000000000000.0, 0.0, 0.0, 0.0, 0.0, 0.0, 0.0, 1000000000000.0, 0.0, 0.0, 0.0, 0.0, 0.0, 0.0, 0.001)",7.788510269999799e-08,6.477540336732e-07,0.0,0.0,0.0,9.578413874927914e-06,"(0.0, 0.0, 0.0, 0.0, 0.0, 0.0, 0.0, 0.0, 0.0, 0.0, 0.0, 0.0, 0.0, 0.0, 0.0, 0.0, 0.0, 0.0, 0.0, 0.0, 0.0, 0.0, 0.0, 0.0, 0.0, 0.0, 0.0, 0.0, 0.0, 0.0, 0.0, 0.0, 0.0, 0.0, 0.0, 0.0)",,,,,,,22,0,846000000,base_footprint,-7.062517387949936e-06,0.0038531012947196,2.366885529944675e-07,0.9999925767526866,0.0,0.0,0.0,0.0,0.0,0.0,0.0,0.0,0.0,3.889494333178698e-05,-0.0001804023898374,9.281513050040909e-06,0.0,0.0,0.0,0.0,0.0,0.0,0.0,0.0,0.0,-9.618215135143024e-12,1.7224035191771523e-11,4.948131961456302e-12,0.0,0.0,0.0,0.0,0.0,0.0,0.0,0.0,0.0
0.914,-3.3078650374385177e-09,1.9486496305454182e-08,3.0727397353401296e-07,6.642344708297088e-08,7.783319043329238e-06,5.656224081543611e-07,1.291418447679115e-06,2.211900787859004e-09,4.164143489822398e-15,2.591845241428636e-07,24,0,896000000,odom,base_footprint,0.4999806364056711,0.5000006487752199,-0.0010013929248005,-7.063450495364567e-06,0.0038531012935945,4.716606754739563e-07,0.9999925767526012,"(1e-05, 0.0, 0.0, 0.0, 0.0, 0.0, 0.0, 1e-05, 0.0, 0.0, 0.0, 0.0, 0.0, 0.0, 1000000000000.0, 0.0, 0.0, 0.0, 0.0, 0.0, 0.0, 1000000000000.0, 0.0, 0.0, 0.0, 0.0, 0.0, 0.0, 1000000000000.0, 0.0, 0.0, 0.0, 0.0, 0.0, 0.0, 0.001)",7.788462669363105e-08,6.477565935236324e-07,0.0,0.0,0.0,9.578452985466373e-06,"(0.0, 0.0, 0.0, 0.0, 0.0, 0.0, 0.0, 0.0, 0.0, 0.0, 0.0, 0.0, 0.0, 0.0, 0.0, 0.0, 0.0, 0.0, 0.0, 0.0, 0.0, 0.0, 0.0, 0.0, 0.0, 0.0, 0.0, 0.0, 0.0, 0.0, 0.0, 0.0, 0.0, 0.0, 0.0, 0.0)",,,,,,,24,0,914000000,base_footprint,-7.063737057177669e-06,0.0038531012932455,5.439599781950918e-07,0.9999925767525636,0.0,0.0,0.0,0.0,0.0,0.0,0.0,0.0,0.0,3.8895316035426384e-05,-0.0001804023346023,9.281560017021706e-06,0.0,0.0,0.0,0.0,0.0,0.0,0.0,0.0,0.0,-1.5774521790862198e-11,5.750865143647968e-11,2.1956914232645936e-12,0.0,0.0,0.0,0.0,0.0,0.0,0.0,0.0,0.0
0.9480000000000001,-3.3078800809605013e-09,1.948654715366871e-08,3.072747828282591e-07,8.595048916837177e-08,7.308052665524757e-06,5.863976602222487e-07,-1.4272263597732143e-05,2.862151289300261e-09,6.108254611895875e-15,2.4335815376197443e-07,25,0,925000000,odom,base_footprint,0.4999806331950887,0.5000006676886093,-0.0010013929251665,-7.064041261630495e-06,0.0038531012928733,6.207780845798437e-07,0.9999925767525182,"(1e-05, 0.0, 0.0, 0.0, 0.0, 0.0, 0.0, 1e-05, 0.0, 0.0, 0.0, 0.0, 0.0, 0.0, 1000000000000.0, 0.0, 0.0, 0.0, 0.0, 0.0, 0.0, 1000000000000.0, 0.0, 0.0, 0.0, 0.0, 0.0, 0.0, 1000000000000.0, 0.0, 0.0, 0.0, 0.0, 0.0, 0.0, 0.001)",7.788424872044689e-08,6.477587970965867e-07,0.0,0.0,0.0,9.578486596681274e-06,"(0.0, 0.0, 0.0, 0.0, 0.0, 0.0, 0.0, 0.0, 0.0, 0.0, 0.0, 0.0, 0.0, 0.0, 0.0, 0.0, 0.0, 0.0, 0.0, 0.0, 0.0, 0.0, 0.0, 0.0, 0.0, 0.0, 0.0, 0.0, 0.0, 0.0, 0.0, 0.0, 0.0, 0.0, 0.0, 0.0)",,,,,,,25,0,948000000,base_footprint,-7.0643451989885486e-06,0.0038531012924997,6.975962913951323e-07,0.9999925767524668,0.0,0.0,0.0,0.0,0.0,0.0,0.0,0.0,0.0,3.889549726991064e-05,-0.0001804023065288,9.28159840912561e-06,0.0,0.0,0.0,0.0,0.0,0.0,0.0,0.0,0.0,-1.8691917911248937e-11,7.661355529815463e-11,1.1052240220242698e-12,0.0,0.0,0.0,0.0,0.0,0.0,0.0,0.0,0.0
0.9820000000000001,-3.3078950689713338e-09,1.948659722472712e-08,3.072755834217092e-07,1.130741331198451e-07,6.988371996201153e-06,8.145238423865863e-07,-9.60002009980794e-06,3.765368632880242e-09,8.92978998626351e-15,2.327127874734984e-07,26,0,962000000,odom,base_footprint,0.4999806299844921,0.5000006866020467,-0.0010013929255118,-7.064631021652076e-06,0.003853101292147,7.698958705402503e-07,0.9999925767524132,"(1e-05, 0.0, 0.0, 0.0, 0.0, 0.0, 0.0, 1e-05, 0.0, 0.0, 0.0, 0.0, 0.0, 0.0, 1000000000000.0, 0.0, 0.0, 0.0, 0.0, 0.0, 0.0, 1000000000000.0, 0.0, 0.0, 0.0, 0.0, 0.0, 0.0, 1000000000000.0, 0.0, 0.0, 0.0, 0.0, 0.0, 0.0, 0.001)",7.78837866985749e-08,6.477615522247447e-07,0.0,0.0,0.0,9.578528604432657e-06,"(0.0, 0.0, 0.0, 0.0, 0.0, 0.0, 0.0, 0.0, 0.0, 0.0, 0.0, 0.0, 0.0, 0.0, 0.0, 0.0, 0.0, 0.0, 0.0, 0.0, 0.0, 0.0, 0.0, 0.0, 0.0, 0.0, 0.0, 0.0, 0.0, 0.0, 0.0, 0.0, 0.0, 0.0, 0.0, 0.0)",,,,,,,26,0,982000000,base_footprint,-7.064952310162448e-06,0.0038531012917487,8.512330009117526e-07,0.9999925767523464,0.0,0.0,0.0,0.0,0.0,0.0,0.0,0.0,0.0,3.8895675243611e-05,-0.0001804022782362,9.281645349713137e-06,0.0,0.0,0.0,0.0,0.0,0.0,0.0,0.0,0.0,-2.1208388289265203e-11,9.307870785810794e-11,-1.810898069446665e-15,0.0,0.0,0.0,0.0,0.0,0.0,0.0,0.0,0.0
1.016,-3.3079099459598638e-09,1.948664674067402e-08,3.072763716630644e-07,1.5274966436863193e-07,6.765072195128943e-06,1.1914573948584634e-06,-6.705699731898199e-06,5.086563823458217e-09,1.323334761759598e-14,2.2527690409779383e-07,27,0,995000000,odom,base_footprint,0.49998062667659,0.5000007060886672,-0.0010013929258473,-7.065237674502145e-06,0.0038531012913936,9.23532763868511e-07,0.9999925767522816,"(1e-05, 0.0, 0.0, 0.0, 0.0, 0.0, 0.0, 1e-05, 0.0, 0.0, 0.0, 0.0, 0.0, 0.0, 1000000000000.0, 0.0, 0.0, 0.0, 0.0, 0.0, 0.0, 1000000000000.0, 0.0, 0.0, 0.0, 0.0, 0.0, 0.0, 1000000000000.0, 0.0, 0.0, 0.0, 0.0, 0.0, 0.0, 0.001)",7.7883220194836e-08,6.477649860881954e-07,0.0,0.0,0.0,9.578580929820672e-06,"(0.0, 0.0, 0.0, 0.0, 0.0, 0.0, 0.0, 0.0, 0.0, 0.0, 0.0, 0.0, 0.0, 0.0, 0.0, 0.0, 0.0, 0.0, 0.0, 0.0, 0.0, 0.0, 0.0, 0.0, 0.0, 0.0, 0.0, 0.0, 0.0, 0.0, 0.0, 0.0, 0.0, 0.0, 0.0, 0.0)",,,,,,,27,1,16000000,base_footprint,-7.065558461328157e-06,0.0038531012909927,1.0048701008411826e-06,0.9999925767522024,0.0,0.0,0.0,0.0,0.0,0.0,0.0,0.0,0.0,3.889585176758072e-05,-0.000180402249717,9.281701351518569e-06,0.0,0.0,0.0,0.0,0.0,0.0,0.0,0.0,0.0,-2.3876653804293348e-11,1.1062120240240703e-10,-7.751767894218514e-13,0.0,0.0,0.0,0.0,0.0,0.0,0.0,0.0,0.0
1.05,-3.307924878459545e-09,1.9486696256620917e-08,3.0727715993650107e-07,1.923627382708135e-07,6.030444171050523e-06,1.1895817988643112e-06,-2.2060901623976565e-05,6.405679184392726e-09,1.8026012237360126e-14,2.0081379089598245e-07,28,1,30000000,odom,base_footprint,0.4999806234659649,0.5000007250021992,-0.0010013929261543,-7.065825589370483e-06,0.0038531012906576,1.072651298716759e-06,0.9999925767521316,"(1e-05, 0.0, 0.0, 0.0, 0.0, 0.0, 0.0, 1e-05, 0.0, 0.0, 0.0, 0.0, 0.0, 0.0, 1000000000000.0, 0.0, 0.0, 0.0, 0.0, 0.0, 0.0, 1000000000000.0, 0.0, 0.0, 0.0, 0.0, 0.0, 0.0, 1000000000000.0, 0.0, 0.0, 0.0, 0.0, 0.0, 0.0, 0.001)",7.788259037940308e-08,6.477688450769458e-07,0.0,0.0,0.0,9.5786397094987e-06,"(0.0, 0.0, 0.0, 0.0, 0.0, 0.0, 0.0, 0.0, 0.0, 0.0, 0.0, 0.0, 0.0, 0.0, 0.0, 0.0, 0.0, 0.0, 0.0, 0.0, 0.0, 0.0, 0.0, 0.0, 0.0, 0.0, 0.0, 0.0, 0.0, 0.0, 0.0, 0.0, 0.0, 0.0, 0.0, 0.0)",,,,,,,28,1,50000000,base_footprint,-7.06616370628042e-06,0.003853101290232,1.158507591406739e-06,0.999992576752035,0.0,0.0,0.0,0.0,0.0,0.0,0.0,0.0,0.0,3.889602559925359e-05,-0.000180402220883,9.281765185330017e-06,0.0,0.0,0.0,0.0,0.0,0.0,0.0,0.0,0.0,-2.618668256131836e-11,1.2571870631973358e-10,-1.7949904305685097e-12,0.0,0.0,0.0,0.0,0.0,0.0,0.0,0.0,0.0
1.084,-3.307939810959226e-09,1.9486745772567815e-08,3.0727794585295195e-07,2.4474683137011476e-07,5.389499487836765e-06,1.5730958888679057e-06,-1.9247588084497228e-05,8.150069484588038e-09,2.448260077265635e-14,1.794703329449643e-07,29,1,63000000,odom,base_footprint,0.4999806202553257,0.5000007439157775,-0.0010013929264443,-7.066412674831029e-06,0.0038531012899175,1.2217702006573308e-06,0.9999925767519592,"(1e-05, 0.0, 0.0, 0.0, 0.0, 0.0, 0.0, 1e-05, 0.0, 0.0, 0.0, 0.0, 0.0, 0.0, 1000000000000.0, 0.0, 0.0, 0.0, 0.0, 0.0, 0.0, 1000000000000.0, 0.0, 0.0, 0.0, 0.0, 0.0, 0.0, 1000000000000.0, 0.0, 0.0, 0.0, 0.0, 0.0, 0.0, 0.001)",7.788188647854674e-08,6.477731906306249e-07,0.0,0.0,0.0,9.578705892815045e-06,"(0.0, 0.0, 0.0, 0.0, 0.0, 0.0, 0.0, 0.0, 0.0, 0.0, 0.0, 0.0, 0.0, 0.0, 0.0, 0.0, 0.0, 0.0, 0.0, 0.0, 0.0, 0.0, 0.0, 0.0, 0.0, 0.0, 0.0, 0.0, 0.0, 0.0, 0.0, 0.0, 0.0, 0.0, 0.0, 0.0)",,,,,,,29,1,84000000,base_footprint,-7.066768102164145e-06,0.0038531012894668,1.31214547165014e-06,0.999992576751844,0.0,0.0,0.0,0.0,0.0,0.0,0.0,0.0,0.0,3.889619678750914e-05,-0.0001804021919047,9.281836038054298e-06,0.0,0.0,0.0,0.0,0.0,0.0,0.0,0.0,0.0,-2.8251373897884616e-11,1.3923983210727e-10,-2.6498138232111567e-12,0.0,0.0,0.0,0.0,0.0,0.0,0.0,0.0,0.0
1.118,-3.307954687947756e-09,1.9486793956247084e-08,3.0727873552832923e-07,3.142872318751772e-07,4.789330266208793e-06,2.0883003154673406e-06,-1.8023099748587753e-05,1.046576482139067e-08,3.3214810071750436e-14,1.5948469786475284e-07,29,1,63000000,odom,base_footprint,0.4999806202553257,0.5000007439157775,-0.0010013929264443,-7.066412674831029e-06,0.0038531012899175,1.2217702006573308e-06,0.9999925767519592,"(1e-05, 0.0, 0.0, 0.0, 0.0, 0.0, 0.0, 1e-05, 0.0, 0.0, 0.0, 0.0, 0.0, 0.0, 1000000000000.0, 0.0, 0.0, 0.0, 0.0, 0.0, 0.0, 1000000000000.0, 0.0, 0.0, 0.0, 0.0, 0.0, 0.0, 1000000000000.0, 0.0, 0.0, 0.0, 0.0, 0.0, 0.0, 0.001)",7.788188647854674e-08,6.477731906306249e-07,0.0,0.0,0.0,9.578705892815045e-06,"(0.0, 0.0, 0.0, 0.0, 0.0, 0.0, 0.0, 0.0, 0.0, 0.0, 0.0, 0.0, 0.0, 0.0, 0.0, 0.0, 0.0, 0.0, 0.0, 0.0, 0.0, 0.0, 0.0, 0.0, 0.0, 0.0, 0.0, 0.0, 0.0, 0.0, 0.0, 0.0, 0.0, 0.0, 0.0, 0.0)",,,,,,,30,1,118000000,base_footprint,-7.067371703028204e-06,0.0038531012886975,1.4657837436590628e-06,0.9999925767516292,0.0,0.0,0.0,0.0,0.0,0.0,0.0,0.0,0.0,3.889636556884461e-05,-0.0001804021627417,9.281914806470694e-06,0.0,0.0,0.0,0.0,0.0,0.0,0.0,0.0,0.0,-3.058161551387017e-11,1.5451313653350822e-10,-3.5619728849460828e-12,0.0,0.0,0.0,0.0,0.0,0.0,0.0,0.0,0.0
1.152,-3.3079696204474374e-09,1.9486843472193982e-08,3.0727952070864713e-07,-3.823605373421955e-06,5.6268040038643046e-05,-0.00012426103919811206,0.0015459072003734008,-1.2732605893381469e-07,-5.33528490996244e-13,1.8737257332868136e-06,30,1,97000000,odom,base_footprint,0.4999806169473798,0.5000007634025434,-0.0010013929267262,-7.067016737025336e-06,0.0038531012891506,1.3754082411916286e-06,0.9999925767517585,"(1e-05, 0.0, 0.0, 0.0, 0.0, 0.0, 0.0, 1e-05, 0.0, 0.0, 0.0, 0.0, 0.0, 0.0, 1000000000000.0, 0.0, 0.0, 0.0, 0.0, 0.0, 0.0, 1000000000000.0, 0.0, 0.0, 0.0, 0.0, 0.0, 0.0, 1000000000000.0, 0.0, 0.0, 0.0, 0.0, 0.0, 0.0, 0.001)",7.788109581035108e-08,6.477780974315035e-07,0.0,0.0,0.0,9.578780622358148e-06,"(0.0, 0.0, 0.0, 0.0, 0.0, 0.0, 0.0, 0.0, 0.0, 0.0, 0.0, 0.0, 0.0, 0.0, 0.0, 0.0, 0.0, 0.0, 0.0, 0.0, 0.0, 0.0, 0.0, 0.0, 0.0, 0.0, 0.0, 0.0, 0.0, 0.0, 0.0, 0.0, 0.0, 0.0, 0.0, 0.0)",,,,,,,30,1,118000000,base_footprint,-7.067371703028204e-06,0.0038531012886975,1.4657837436590628e-06,0.9999925767516292,0.0,0.0,0.0,0.0,0.0,0.0,0.0,0.0,0.0,3.889636556884461e-05,-0.0001804021627417,9.281914806470694e-06,0.0,0.0,0.0,0.0,0.0,0.0,0.0,0.0,0.0,-3.058161551387017e-11,1.5451313653350822e-10,-3.5619728849460828e-12,0.0,0.0,0.0,0.0,0.0,0.0,0.0,0.0,0.0
1.186,-3.3079842753913624e-09,1.948689209996246e-08,3.072802719615625e-07,2.5078249863139385e-07,5.348431725032714e-06,0.00012235399015175221,-0.0015291173667750849,8.351057204311788e-09,4.3556278662955626e-14,1.781027764435894e-07,31,1,130000000,odom,base_footprint,0.4999806137367122,0.5000007823162154,-0.0010013929269844,-7.067602292154878e-06,0.0038531012884023,1.5245278929519e-06,0.9999925767515409,"(1e-05, 0.0, 0.0, 0.0, 0.0, 0.0, 0.0, 1e-05, 0.0, 0.0, 0.0, 0.0, 0.0, 0.0, 1000000000000.0, 0.0, 0.0, 0.0, 0.0, 0.0, 0.0, 1000000000000.0, 0.0, 0.0, 0.0, 0.0, 0.0, 0.0, 1000000000000.0, 0.0, 0.0, 0.0, 0.0, 0.0, 0.0, 0.001)",7.788026024055067e-08,6.477833071548525e-07,0.0,0.0,0.0,9.578859958029314e-06,"(0.0, 0.0, 0.0, 0.0, 0.0, 0.0, 0.0, 0.0, 0.0, 0.0, 0.0, 0.0, 0.0, 0.0, 0.0, 0.0, 0.0, 0.0, 0.0, 0.0, 0.0, 0.0, 0.0, 0.0, 0.0, 0.0, 0.0, 0.0, 0.0, 0.0, 0.0, 0.0, 0.0, 0.0, 0.0, 0.0)",,,,,,,32,1,186000000,base_footprint,-7.068576717959815e-06,0.0038531012871482,1.773061440031642e-06,0.9999925767511292,0.0,0.0,0.0,0.0,0.0,0.0,0.0,0.0,0.0,3.889669637122425e-05,-0.0001804021038126,9.28208868225309e-06,0.0,0.0,0.0,0.0,0.0,0.0,0.0,0.0,0.0,-3.385234158556767e-11,1.7589730353302778e-10,-5.002161416723864e-12,0.0,0.0,0.0,0.0,0.0,0.0,0.0,0.0,0.0
1.22,-3.307998819312985e-09,1.948694028364173e-08,3.0728104512375804e-07,2.0393128895278264e-07,6.200882131592246e-06,-1.406943233591928e-06,2.559911130809405e-05,6.790911922028342e-09,3.673149446770741e-14,2.064893749820218e-07,33,1,197000000,odom,base_footprint,0.4999806072180411,0.5000008207168432,-0.0010013929274662,-7.068789086504114e-06,0.0038531012868732,1.8272870738233225e-06,0.9999925767510308,"(1e-05, 0.0, 0.0, 0.0, 0.0, 0.0, 0.0, 1e-05, 0.0, 0.0, 0.0, 0.0, 0.0, 0.0, 1000000000000.0, 0.0, 0.0, 0.0, 0.0, 0.0, 0.0, 1000000000000.0, 0.0, 0.0, 0.0, 0.0, 0.0, 0.0, 1000000000000.0, 0.0, 0.0, 0.0, 0.0, 0.0, 0.0, 0.001)",7.787840245778165e-08,6.477949433788244e-07,0.0,0.0,0.0,9.579037159106156e-06,"(0.0, 0.0, 0.0, 0.0, 0.0, 0.0, 0.0, 0.0, 0.0, 0.0, 0.0, 0.0, 0.0, 0.0, 0.0, 0.0, 0.0, 0.0, 0.0, 0.0, 0.0, 0.0, 0.0, 0.0, 0.0, 0.0, 0.0, 0.0, 0.0, 0.0, 0.0, 0.0, 0.0, 0.0, 0.0, 0.0)",,,,,,,32,1,186000000,base_footprint,-7.068576717959815e-06,0.0038531012871482,1.773061440031642e-06,0.9999925767511292,0.0,0.0,0.0,0.0,0.0,0.0,0.0,0.0,0.0,3.889669637122425e-05,-0.0001804021038126,9.28208868225309e-06,0.0,0.0,0.0,0.0,0.0,0.0,0.0,0.0,0.0,-3.385234158556767e-11,1.7589730353302778e-10,-5.002161416723864e-12,0.0,0.0,0.0,0.0,0.0,0.0,0.0,0.0,0.0
1.254,-3.308013696301515e-09,1.9486987912209486e-08,3.0728181447423924e-07,1.541210291321175e-07,6.574784393597033e-06,-1.495803598218172e-06,1.1228296156299893e-05,5.132230270018404e-09,2.885130678480036e-14,2.189403203067812e-07,34,1,230000000,odom,base_footprint,0.4999806040073314,0.5000008396306534,-0.0010013929276842,-7.069372695638791e-06,0.003853101286115,1.9764078112227014e-06,0.999992576750746,"(1e-05, 0.0, 0.0, 0.0, 0.0, 0.0, 0.0, 1e-05, 0.0, 0.0, 0.0, 0.0, 0.0, 0.0, 1000000000000.0, 0.0, 0.0, 0.0, 0.0, 0.0, 0.0, 1000000000000.0, 0.0, 0.0, 0.0, 0.0, 0.0, 0.0, 1000000000000.0, 0.0, 0.0, 0.0, 0.0, 0.0, 0.0, 0.001)",7.787740013092895e-08,6.47801248535238e-07,0.0,0.0,0.0,9.57913316791431e-06,"(0.0, 0.0, 0.0, 0.0, 0.0, 0.0, 0.0, 0.0, 0.0, 0.0, 0.0, 0.0, 0.0, 0.0, 0.0, 0.0, 0.0, 0.0, 0.0, 0.0, 0.0, 0.0, 0.0, 0.0, 0.0, 0.0, 0.0, 0.0, 0.0, 0.0, 0.0, 0.0, 0.0, 0.0, 0.0, 0.0)",,,,,,,33,1,220000000,base_footprint,-7.069178223695521e-06,0.003853101286368,1.9267008587395708e-06,0.9999925767508436,0.0,0.0,0.0,0.0,0.0,0.0,0.0,0.0,0.0,3.889685866497765e-05,-0.0001804020740385,9.282184479841656e-06,0.0,0.0,0.0,0.0,0.0,0.0,0.0,0.0,0.0,-3.5600963355502936e-11,1.8731303976791728e-10,-5.831645770817398e-12,0.0,0.0,0.0,0.0,0.0,0.0,0.0,0.0,0.0
1.288,-3.308028295734289e-09,1.9487035540777242e-08,3.0728257927289037e-07,1.198570880983179e-07,7.010857356121519e-06,-1.02894717819218e-06,1.3095284159894477e-05,3.991241033605759e-09,2.333816337444933e-14,2.334615499588466e-07,35,1,258000000,odom,base_footprint,0.4999806007966079,0.5000008585445093,-0.0010013929278906,-7.069955740909888e-06,0.003853101285354,2.125528909227304e-06,0.9999925767504392,"(1e-05, 0.0, 0.0, 0.0, 0.0, 0.0, 0.0, 1e-05, 0.0, 0.0, 0.0, 0.0, 0.0, 0.0, 1000000000000.0, 0.0, 0.0, 0.0, 0.0, 0.0, 0.0, 1000000000000.0, 0.0, 0.0, 0.0, 0.0, 0.0, 0.0, 1000000000000.0, 0.0, 0.0, 0.0, 0.0, 0.0, 0.0, 0.001)",7.787635498533412e-08,6.47807834773085e-07,0.0,0.0,0.0,9.579233457795072e-06,"(0.0, 0.0, 0.0, 0.0, 0.0, 0.0, 0.0, 0.0, 0.0, 0.0, 0.0, 0.0, 0.0, 0.0, 0.0, 0.0, 0.0, 0.0, 0.0, 0.0, 0.0, 0.0, 0.0, 0.0, 0.0, 0.0, 0.0, 0.0, 0.0, 0.0, 0.0, 0.0, 0.0, 0.0, 0.0, 0.0)",,,,,,,34,1,254000000,base_footprint,-7.069779117949271e-06,0.0038531012855849,2.0803406597579886e-06,0.9999925767505344,0.0,0.0,0.0,0.0,0.0,0.0,0.0,0.0,0.0,3.889701904776813e-05,-0.0001804020441313,9.282285596631404e-06,0.0,0.0,0.0,0.0,0.0,0.0,0.0,0.0,0.0,-3.7167864558050195e-11,1.975637921586028e-10,-6.677809970653265e-12,0.0,0.0,0.0,0.0,0.0,0.0,0.0,0.0,0.0
1.322,-3.308043006189365e-09,1.9487083058322696e-08,3.0728334006995023e-07,9.569855958730883e-08,7.578145521013233e-06,-7.254813366669393e-07,1.7035680627378804e-05,3.1867620341982754e-09,1.9408094987781584e-14,2.523522458497407e-07,36,1,297000000,odom,base_footprint,0.4999805974885752,0.5000008780315588,-0.0010013929280917,-7.070555901109735e-06,0.003853101284567,2.2791692016388565e-06,0.9999925767500996,"(1e-05, 0.0, 0.0, 0.0, 0.0, 0.0, 0.0, 1e-05, 0.0, 0.0, 0.0, 0.0, 0.0, 0.0, 1000000000000.0, 0.0, 0.0, 0.0, 0.0, 0.0, 0.0, 1000000000000.0, 0.0, 0.0, 0.0, 0.0, 0.0, 0.0, 1000000000000.0, 0.0, 0.0, 0.0, 0.0, 0.0, 0.0, 0.001)",7.787522948957387e-08,6.478149395042963e-07,0.0,0.0,0.0,9.579341639231324e-06,"(0.0, 0.0, 0.0, 0.0, 0.0, 0.0, 0.0, 0.0, 0.0, 0.0, 0.0, 0.0, 0.0, 0.0, 0.0, 0.0, 0.0, 0.0, 0.0, 0.0, 0.0, 0.0, 0.0, 0.0, 0.0, 0.0, 0.0, 0.0, 0.0, 0.0, 0.0, 0.0, 0.0, 0.0, 0.0, 0.0)",,,,,,,36,1,322000000,base_footprint,-7.0709792248643215e-06,0.0038531012840098,2.387621400486897e-06,0.9999925767498457,0.0,0.0,0.0,0.0,0.0,0.0,0.0,0.0,0.0,3.889733480106645e-05,-0.0001804019840366,9.282502377575777e-06,0.0,0.0,0.0,0.0,0.0,0.0,0.0,0.0,0.0,-3.996966776277128e-11,2.1590432549252614e-10,-7.707837629688018e-12,0.0,0.0,0.0,0.0,0.0,0.0,0.0,0.0,0.0
1.356,-3.3080577721555926e-09,1.9487130464845848e-08,3.072841024290313e-07,7.215772552044383e-08,7.620987995326187e-06,-7.069319539599098e-07,1.2865607901787879e-06,2.4028522597824304e-09,1.5242274895779797e-14,2.5377890024436204e-07,37,1,330000000,odom,base_footprint,0.4999805942778237,0.5000008969455052,-0.0010013929282765,-7.071137906097146e-06,0.0038531012838006,2.428291023998051e-06,0.9999925767497474,"(1e-05, 0.0, 0.0, 0.0, 0.0, 0.0, 0.0, 1e-05, 0.0, 0.0, 0.0, 0.0, 0.0, 0.0, 1000000000000.0, 0.0, 0.0, 0.0, 0.0, 0.0, 0.0, 1000000000000.0, 0.0, 0.0, 0.0, 0.0, 0.0, 0.0, 1000000000000.0, 0.0, 0.0, 0.0, 0.0, 0.0, 0.0, 0.001)",7.787409382148816e-08,6.478221195222166e-07,0.0,0.0,0.0,9.579450965087062e-06,"(0.0, 0.0, 0.0, 0.0, 0.0, 0.0, 0.0, 0.0, 0.0, 0.0, 0.0, 0.0, 0.0, 0.0, 0.0, 0.0, 0.0, 0.0, 0.0, 0.0, 0.0, 0.0, 0.0, 0.0, 0.0, 0.0, 0.0, 0.0, 0.0, 0.0, 0.0, 0.0, 0.0, 0.0, 0.0, 0.0)",,,,,,,37,1,356000000,base_footprint,-7.071578507878842e-06,0.0038531012832183,2.5412623392487054e-06,0.9999925767494656,0.0,0.0,0.0,0.0,0.0,0.0,0.0,0.0,0.0,3.88974902881609e-05,-0.0001804019537696,9.282617404786784e-06,0.0,0.0,0.0,0.0,0.0,0.0,0.0,0.0,0.0,-4.126352252418529e-11,2.2437426025398684e-10,-8.334473606776206e-12,0.0,0.0,0.0,0.0,0.0,0.0,0.0,0.0,0.0
1.3900000000000001,-3.308072316077215e-09,1.9487177538302092e-08,3.072848596691635e-07,5.646367917766615e-08,7.823200267278131e-06,-4.7129268296629664e-07,6.07244059915749e-06,1.8802405165753146e-09,1.2410529042075801e-14,2.6051256890036176e-07,38,1,363000000,odom,base_footprint,0.4999805910670582,0.5000009158594961,-0.0010013929284517,-7.071719446174857e-06,0.0038531012830316,2.577413203249425e-06,0.9999925767493728,"(1e-05, 0.0, 0.0, 0.0, 0.0, 0.0, 0.0, 1e-05, 0.0, 0.0, 0.0, 0.0, 0.0, 0.0, 1000000000000.0, 0.0, 0.0, 0.0, 0.0, 0.0, 0.0, 1000000000000.0, 0.0, 0.0, 0.0, 0.0, 0.0, 0.0, 1000000000000.0, 0.0, 0.0, 0.0, 0.0, 0.0, 0.0, 0.001)",7.78729177732285e-08,6.47829565513413e-07,0.0,0.0,0.0,9.579564339201344e-06,"(0.0, 0.0, 0.0, 0.0, 0.0, 0.0, 0.0, 0.0, 0.0, 0.0, 0.0, 0.0, 0.0, 0.0, 0.0, 0.0, 0.0, 0.0, 0.0, 0.0, 0.0, 0.0, 0.0, 0.0, 0.0, 0.0, 0.0, 0.0, 0.0, 0.0, 0.0, 0.0, 0.0, 0.0, 0.0, 0.0)",,,,,,,38,1,390000000,base_footprint,-7.072177320618598e-06,0.0038531012824243,2.694903654810042e-06,0.9999925767490624,0.0,0.0,0.0,0.0,0.0,0.0,0.0,0.0,0.0,3.8897644340321255e-05,-0.0001804019233525,9.282736290495286e-06,0.0,0.0,0.0,0.0,0.0,0.0,0.0,0.0,0.0,-4.240059680174288e-11,2.31807780681535e-10,-8.750759061523438e-12,0.0,0.0,0.0,0.0,0.0,0.0,0.0,0.0,0.0
1.424,-3.308086915509989e-09,1.9487224611758336e-08,3.072856168875278e-07,4.547295885182944e-08,8.22486814141471e-06,-3.300516614365377e-07,1.2062098322419763e-05,1.5142495297302074e-09,1.039918195098349e-14,2.7388810910910986e-07,39,1,396000000,odom,base_footprint,0.4999805877589824,0.5000009353466848,-0.0010013929286228,-7.072318152644391e-06,0.0038531012822372,2.7310546073718743e-06,0.999992576748964,"(1e-05, 0.0, 0.0, 0.0, 0.0, 0.0, 0.0, 1e-05, 0.0, 0.0, 0.0, 0.0, 0.0, 0.0, 1000000000000.0, 0.0, 0.0, 0.0, 0.0, 0.0, 0.0, 1000000000000.0, 0.0, 0.0, 0.0, 0.0, 0.0, 0.0, 1000000000000.0, 0.0, 0.0, 0.0, 0.0, 0.0, 0.0, 0.001)",7.787166666651509e-08,6.478374952519838e-07,0.0,0.0,0.0,9.579685076597774e-06,"(0.0, 0.0, 0.0, 0.0, 0.0, 0.0, 0.0, 0.0, 0.0, 0.0, 0.0, 0.0, 0.0, 0.0, 0.0, 0.0, 0.0, 0.0, 0.0, 0.0, 0.0, 0.0, 0.0, 0.0, 0.0, 0.0, 0.0, 0.0, 0.0, 0.0, 0.0, 0.0, 0.0, 0.0, 0.0, 0.0)",,,,,,,39,1,424000000,base_footprint,-7.072775692884938e-06,0.003853101281628,2.848545347274848e-06,0.9999925767486352,0.0,0.0,0.0,0.0,0.0,0.0,0.0,0.0,0.0,3.889779699755758e-05,-0.0001804018928713,9.282859150536549e-06,0.0,0.0,0.0,0.0,0.0,0.0,0.0,0.0,0.0,-4.3570283296322125e-11,2.394675876013037e-10,-9.291097129175288e-12,0.0,0.0,0.0,0.0,0.0,0.0,0.0,0.0,0.0
1.458,-3.308101570453914e-09,1.948727124112537e-08,3.0728636903826853e-07,3.4508164574089576e-08,8.108536662930452e-06,-3.292731014336296e-07,-3.493437792320039e-06,1.1491218802878907e-09,8.204259390882335e-15,2.700142708755841e-07,40,1,430000000,odom,base_footprint,0.499980584548189,0.5000009542607657,-0.0010013929287802,-7.0728988351644885e-06,0.0038531012814638,2.88017750657861e-06,0.9999925767485444,"(1e-05, 0.0, 0.0, 0.0, 0.0, 0.0, 0.0, 1e-05, 0.0, 0.0, 0.0, 0.0, 0.0, 0.0, 1000000000000.0, 0.0, 0.0, 0.0, 0.0, 0.0, 0.0, 1000000000000.0, 0.0, 0.0, 0.0, 0.0, 0.0, 0.0, 1000000000000.0, 0.0, 0.0, 0.0, 0.0, 0.0, 0.0, 0.001)",7.787041887038149e-08,6.478454111782037e-07,0.0,0.0,0.0,9.579805604610784e-06,"(0.0, 0.0, 0.0, 0.0, 0.0, 0.0, 0.0, 0.0, 0.0, 0.0, 0.0, 0.0, 0.0, 0.0, 0.0, 0.0, 0.0, 0.0, 0.0, 0.0, 0.0, 0.0, 0.0, 0.0, 0.0, 0.0, 0.0, 0.0, 0.0, 0.0, 0.0, 0.0, 0.0, 0.0, 0.0, 0.0)",,,,,,,40,1,458000000,base_footprint,-7.073373652927014e-06,0.0038531012808295,3.002187414218214e-06,0.9999925767481846,0.0,0.0,0.0,0.0,0.0,0.0,0.0,0.0,0.0,3.889794840270276e-05,-0.0001804018623063,9.28298562989959e-06,0.0,0.0,0.0,0.0,0.0,0.0,0.0,0.0,0.0,-4.463455731098261e-11,2.4644483835321837e-10,-9.61036588859569e-12,0.0,0.0,0.0,0.0,0.0,0.0,0.0,0.0,0.0
1.492,-3.308116225397839e-09,1.948731809253701e-08,3.0728712249559144e-07,2.7023678310105513e-08,8.206872244349945e-06,-2.2475934726678867e-07,2.9530204630478325e-06,8.998884877017962e-10,6.669192874717595e-15,2.732888457368532e-07,41,1,463000000,odom,base_footprint,0.4999805813373819,0.5000009731748907,-0.0010013929289297,-7.0734791344365794e-06,0.0038531012806884,3.029300759447704e-06,0.9999925767481026,"(1e-05, 0.0, 0.0, 0.0, 0.0, 0.0, 0.0, 1e-05, 0.0, 0.0, 0.0, 0.0, 0.0, 0.0, 1000000000000.0, 0.0, 0.0, 0.0, 0.0, 0.0, 0.0, 1000000000000.0, 0.0, 0.0, 0.0, 0.0, 0.0, 0.0, 1000000000000.0, 0.0, 0.0, 0.0, 0.0, 0.0, 0.0, 0.001)",7.786913479355232e-08,6.478535661260803e-07,0.0,0.0,0.0,9.579929767549522e-06,"(0.0, 0.0, 0.0, 0.0, 0.0, 0.0, 0.0, 0.0, 0.0, 0.0, 0.0, 0.0, 0.0, 0.0, 0.0, 0.0, 0.0, 0.0, 0.0, 0.0, 0.0, 0.0, 0.0, 0.0, 0.0, 0.0, 0.0, 0.0, 0.0, 0.0, 0.0, 0.0, 0.0, 0.0, 0.0, 0.0)",,,,,,,41,1,492000000,base_footprint,-7.073971226668878e-06,0.003853101280029,3.155829856393302e-06,0.9999925767477104,0.0,0.0,0.0,0.0,0.0,0.0,0.0,0.0,0.0,3.889809863878627e-05,-0.0001804018315941,9.283115008444722e-06,0.0,0.0,0.0,0.0,0.0,0.0,0.0,0.0,0.0,-4.5491923789193656e-11,2.520259872848725e-10,-1.0170629277012929e-11,0.0,0.0,0.0,0.0,0.0,0.0,0.0,0.0,0.0
1.526,-3.3081307138083105e-09,1.948736461088174e-08,3.0728787141113555e-07,2.1593671275502418e-08,8.538319293335881e-06,-1.6306327431240523e-07,9.953364834412507e-06,7.19069253452964e-10,5.5296578219603915e-15,2.8432603246808487e-07,42,1,497000000,odom,base_footprint,0.4999805780292631,0.5000009926622169,-0.0010013929290759,-7.074076642632341e-06,0.0038531012798876,3.182943267252903e-06,0.9999925767476244,"(1e-05, 0.0, 0.0, 0.0, 0.0, 0.0, 0.0, 1e-05, 0.0, 0.0, 0.0, 0.0, 0.0, 0.0, 1000000000000.0, 0.0, 0.0, 0.0, 0.0, 0.0, 0.0, 1000000000000.0, 0.0, 0.0, 0.0, 0.0, 0.0, 0.0, 1000000000000.0, 0.0, 0.0, 0.0, 0.0, 0.0, 0.0, 0.001)",7.78677832327301e-08,6.478621554601346e-07,0.0,0.0,0.0,9.580060545815016e-06,"(0.0, 0.0, 0.0, 0.0, 0.0, 0.0, 0.0, 0.0, 0.0, 0.0, 0.0, 0.0, 0.0, 0.0, 0.0, 0.0, 0.0, 0.0, 0.0, 0.0, 0.0, 0.0, 0.0, 0.0, 0.0, 0.0, 0.0, 0.0, 0.0, 0.0, 0.0, 0.0, 0.0, 0.0, 0.0, 0.0)",,,,,,,42,1,526000000,base_footprint,-7.074568438746991e-06,0.0038531012792266,3.309472671624199e-06,0.9999925767472126,0.0,0.0,0.0,0.0,0.0,0.0,0.0,0.0,0.0,3.8898247805720685e-05,-0.0001804018007706,9.283247838426916e-06,0.0,0.0,0.0,0.0,0.0,0.0,0.0,0.0,0.0,-4.6508206977014565e-11,2.5868444370666256e-10,-1.0466973503273958e-11,0.0,0.0,0.0,0.0,0.0,0.0,0.0,0.0,0.0
1.56,-3.308145257729933e-09,1.948741101820417e-08,3.0728861888374633e-07,1.6064560292627424e-08,8.352559335869671e-06,-1.6603936885510491e-07,-5.57837710108738e-06,5.349498577274958e-10,4.264413551911518e-15,2.781402258844601e-07,42,1,497000000,odom,base_footprint,0.4999805780292631,0.5000009926622169,-0.0010013929290759,-7.074076642632341e-06,0.0038531012798876,3.182943267252903e-06,0.9999925767476244,"(1e-05, 0.0, 0.0, 0.0, 0.0, 0.0, 0.0, 1e-05, 0.0, 0.0, 0.0, 0.0, 0.0, 0.0, 1000000000000.0, 0.0, 0.0, 0.0, 0.0, 0.0, 0.0, 1000000000000.0, 0.0, 0.0, 0.0, 0.0, 0.0, 0.0, 1000000000000.0, 0.0, 0.0, 0.0, 0.0, 0.0, 0.0, 0.001)",7.78677832327301e-08,6.478621554601346e-07,0.0,0.0,0.0,9.580060545815016e-06,"(0.0, 0.0, 0.0, 0.0, 0.0, 0.0, 0.0, 0.0, 0.0, 0.0, 0.0, 0.0, 0.0, 0.0, 0.0, 0.0, 0.0, 0.0, 0.0, 0.0, 0.0, 0.0, 0.0, 0.0, 0.0, 0.0, 0.0, 0.0, 0.0, 0.0, 0.0, 0.0, 0.0, 0.0, 0.0, 0.0)",,,,,,,43,1,560000000,base_footprint,-7.075165312199723e-06,0.0038531012784224,3.46311585927822e-06,0.9999925767466912,0.0,0.0,0.0,0.0,0.0,0.0,0.0,0.0,0.0,3.889839583220078e-05,-0.0001804017700022,9.283383421043956e-06,0.0,0.0,0.0,0.0,0.0,0.0,0.0,0.0,0.0,-4.731503930917269e-11,2.639822518563086e-10,-1.0831004434971475e-11,0.0,0.0,0.0,0.0,0.0,0.0,0.0,0.0,0.0
1.594,-3.3081598016515557e-09,1.9487457203481995e-08,3.072893642124303e-07,1.2134099931045242e-08,8.405538179404052e-06,-1.1803184269015562e-07,1.590956262293698e-06,4.0406552769005443e-10,3.3336162688405616e-15,2.7990442137415495e-07,43,1,530000000,odom,base_footprint,0.499980574818428,0.5000010115764311,-0.0010013929292108,-7.074656234973256e-06,0.0038531012791085,3.332067234749735e-06,0.9999925767471376,"(1e-05, 0.0, 0.0, 0.0, 0.0, 0.0, 0.0, 1e-05, 0.0, 0.0, 0.0, 0.0, 0.0, 0.0, 1000000000000.0, 0.0, 0.0, 0.0, 0.0, 0.0, 0.0, 1000000000000.0, 0.0, 0.0, 0.0, 0.0, 0.0, 0.0, 1000000000000.0, 0.0, 0.0, 0.0, 0.0, 0.0, 0.0, 0.001)",7.7866440067321e-08,6.478706983517282e-07,0.0,0.0,0.0,9.58019061453164e-06,"(0.0, 0.0, 0.0, 0.0, 0.0, 0.0, 0.0, 0.0, 0.0, 0.0, 0.0, 0.0, 0.0, 0.0, 0.0, 0.0, 0.0, 0.0, 0.0, 0.0, 0.0, 0.0, 0.0, 0.0, 0.0, 0.0, 0.0, 0.0, 0.0, 0.0, 0.0, 0.0, 0.0, 0.0, 0.0, 0.0)",,,,,,,44,1,594000000,base_footprint,-7.075761868479881e-06,0.0038531012776165,3.616759418366084e-06,0.9999925767461462,0.0,0.0,0.0,0.0,0.0,0.0,0.0,0.0,0.0,3.889854297024225e-05,-0.000180401738977,9.283521754413112e-06,0.0,0.0,0.0,0.0,0.0,0.0,0.0,0.0,0.0,-4.8132603842713206e-11,2.69287533800316e-10,-1.1403602533918571e-11,0.0,0.0,0.0,0.0,0.0,0.0,0.0,0.0,0.0
1.6280000000000001,-3.3081744010843295e-09,1.9487503499782122e-08,3.0729011012232206e-07,9.116236814480802e-09,8.706327921866814e-06,-9.062652001695012e-08,9.032724998881768e-06,3.035706859111509e-10,2.5910833983901164e-15,2.89920719798165e-07,45,1,597000000,odom,base_footprint,0.4999805682994178,0.5000010499781515,-0.0010013929294648,-7.07583203167882e-06,0.0038531012775216,3.634835155428307e-06,0.9999925767460808,"(1e-05, 0.0, 0.0, 0.0, 0.0, 0.0, 0.0, 1e-05, 0.0, 0.0, 0.0, 0.0, 0.0, 0.0, 1000000000000.0, 0.0, 0.0, 0.0, 0.0, 0.0, 0.0, 1000000000000.0, 0.0, 0.0, 0.0, 0.0, 0.0, 0.0, 1000000000000.0, 0.0, 0.0, 0.0, 0.0, 0.0, 0.0, 0.001)",7.786363532040444e-08,6.478885529171692e-07,0.0,0.0,0.0,9.580462456469073e-06,"(0.0, 0.0, 0.0, 0.0, 0.0, 0.0, 0.0, 0.0, 0.0, 0.0, 0.0, 0.0, 0.0, 0.0, 0.0, 0.0, 0.0, 0.0, 0.0, 0.0, 0.0, 0.0, 0.0, 0.0, 0.0, 0.0, 0.0, 0.0, 0.0, 0.0, 0.0, 0.0, 0.0, 0.0, 0.0, 0.0)",,,,,,,45,1,628000000,base_footprint,-7.076358127955552e-06,0.0038531012768089,3.7704033492568654e-06,0.9999925767455776,0.0,0.0,0.0,0.0,0.0,0.0,0.0,0.0,0.0,3.889868918125196e-05,-0.0001804017079482,9.28366283299576e-06,0.0,0.0,0.0,0.0,0.0,0.0,0.0,0.0,0.0,-4.893766192956888e-11,2.7458054802713827e-10,-1.157795194735592e-11,0.0,0.0,0.0,0.0,0.0,0.0,0.0,0.0,0.0
1.662,-3.308188722961347e-09,1.948754946301534e-08,3.072908525532827e-07,6.117280335935825e-09,8.487803822650548e-06,-9.005875310945878e-08,-6.562285261749732e-06,2.0370543517873713e-10,1.7969846088619212e-15,2.8264386729426326e-07,46,1,630000000,odom,base_footprint,0.4999805650885413,0.5000010688924977,-0.001001392929581,-7.0764107255097855e-06,0.0038531012767377,3.783960184575379e-06,0.9999925767455264,"(1e-05, 0.0, 0.0, 0.0, 0.0, 0.0, 0.0, 1e-05, 0.0, 0.0, 0.0, 0.0, 0.0, 0.0, 1000000000000.0, 0.0, 0.0, 0.0, 0.0, 0.0, 0.0, 1000000000000.0, 0.0, 0.0, 0.0, 0.0, 0.0, 0.0, 1000000000000.0, 0.0, 0.0, 0.0, 0.0, 0.0, 0.0, 0.001)",7.786221473535727e-08,6.478976035597399e-07,0.0,0.0,0.0,9.580600253208502e-06,"(0.0, 0.0, 0.0, 0.0, 0.0, 0.0, 0.0, 0.0, 0.0, 0.0, 0.0, 0.0, 0.0, 0.0, 0.0, 0.0, 0.0, 0.0, 0.0, 0.0, 0.0, 0.0, 0.0, 0.0, 0.0, 0.0, 0.0, 0.0, 0.0, 0.0, 0.0, 0.0, 0.0, 0.0, 0.0, 0.0)",,,,,,,46,1,662000000,base_footprint,-7.07695410955609e-06,0.003853101276,3.924047650284073e-06,0.9999925767449854,0.0,0.0,0.0,0.0,0.0,0.0,0.0,0.0,0.0,3.889883445915604e-05,-0.00018040167688,9.283805846947273e-06,0.0,0.0,0.0,0.0,0.0,0.0,0.0,0.0,0.0,-4.950693946759672e-11,2.7829947545972387e-10,-1.1794245827999069e-11,0.0,0.0,0.0,0.0,0.0,0.0,0.0,0.0,0.0
1.6960000000000002,-3.3082032668829697e-09,1.9487595315226258e-08,3.072915912487144e-07,3.862785766926122e-09,8.5191289303235e-06,-6.770253960990098e-08,9.406939241126772e-07,1.2863076603330779e-10,1.1711667072012068e-15,2.836869933797726e-07,47,1,663000000,odom,base_footprint,0.4999805618776511,0.5000010878068872,-0.0010013929296918,-7.076989158991573e-06,0.0038531012759524,3.933085561748507e-06,0.9999925767449498,"(1e-05, 0.0, 0.0, 0.0, 0.0, 0.0, 0.0, 1e-05, 0.0, 0.0, 0.0, 0.0, 0.0, 0.0, 1000000000000.0, 0.0, 0.0, 0.0, 0.0, 0.0, 0.0, 1000000000000.0, 0.0, 0.0, 0.0, 0.0, 0.0, 0.0, 1000000000000.0, 0.0, 0.0, 0.0, 0.0, 0.0, 0.0, 0.001)",7.786077417978679e-08,6.479067858297201e-07,0.0,0.0,0.0,9.580740053934691e-06,"(0.0, 0.0, 0.0, 0.0, 0.0, 0.0, 0.0, 0.0, 0.0, 0.0, 0.0, 0.0, 0.0, 0.0, 0.0, 0.0, 0.0, 0.0, 0.0, 0.0, 0.0, 0.0, 0.0, 0.0, 0.0, 0.0, 0.0, 0.0, 0.0, 0.0, 0.0, 0.0, 0.0, 0.0, 0.0, 0.0)",,,,,,,46,1,662000000,base_footprint,-7.07695410955609e-06,0.003853101276,3.924047650284073e-06,0.9999925767449854,0.0,0.0,0.0,0.0,0.0,0.0,0.0,0.0,0.0,3.889883445915604e-05,-0.00018040167688,9.283805846947273e-06,0.0,0.0,0.0,0.0,0.0,0.0,0.0,0.0,0.0,-4.950693946759672e-11,2.7829947545972387e-10,-1.1794245827999069e-11,0.0,0.0,0.0,0.0,0.0,0.0,0.0,0.0,0.0
1.73,-3.30821769978229e-09,1.9487641278459478e-08,3.0729233411476443e-07,2.837034311179802e-10,8.56966932101484e-06,-5.1168642860312324e-08,-7.075095468652787e-06,9.447324255785854e-12,9.147464906807167e-17,2.853699883897942e-07,48,1,697000000,odom,base_footprint,0.4999805585694469,0.5000011072944854,-0.0010013929298007,-7.077584865549244e-06,0.003853101275142,4.086730252870834e-06,0.9999925767443328,"(1e-05, 0.0, 0.0, 0.0, 0.0, 0.0, 0.0, 1e-05, 0.0, 0.0, 0.0, 0.0, 0.0, 0.0, 1000000000000.0, 0.0, 0.0, 0.0, 0.0, 0.0, 0.0, 1000000000000.0, 0.0, 0.0, 0.0, 0.0, 0.0, 0.0, 1000000000000.0, 0.0, 0.0, 0.0, 0.0, 0.0, 0.0, 0.001)",7.785926724153303e-08,6.479163952229115e-07,0.0,0.0,0.0,9.58088635796874e-06,"(0.0, 0.0, 0.0, 0.0, 0.0, 0.0, 0.0, 0.0, 0.0, 0.0, 0.0, 0.0, 0.0, 0.0, 0.0, 0.0, 0.0, 0.0, 0.0, 0.0, 0.0, 0.0, 0.0, 0.0, 0.0, 0.0, 0.0, 0.0, 0.0, 0.0, 0.0, 0.0, 0.0, 0.0, 0.0, 0.0)",,,,,,,48,1,730000000,base_footprint,-7.078145308384531e-06,0.003853101274378,4.231337359496688e-06,0.9999925767437302,0.0,0.0,0.0,0.0,0.0,0.0,0.0,0.0,0.0,3.889912277535707e-05,-0.0001804016145089,9.284099251028777e-06,0.0,0.0,0.0,0.0,0.0,0.0,0.0,0.0,0.0,-5.0923298953067325e-11,2.8758062204671985e-10,-1.2287722515504757e-11,0.0,0.0,0.0,0.0,0.0,0.0,0.0,0.0,0.0
1.764,-3.3082322992150637e-09,1.9487687130670395e-08,3.072930747487285e-07,-1.1048648282560756e-09,8.589628237916432e-06,-4.1698746527749423e-08,5.993668739216656e-07,-3.6791998779099324e-11,-3.6675314971100654e-16,2.860346203226172e-07,49,1,730000000,odom,base_footprint,0.4999805553585291,0.5000011262089626,-0.0010013929299015,-7.078162818914787e-06,0.0038531012743541,4.2358563368588825e-06,0.9999925767437112,"(1e-05, 0.0, 0.0, 0.0, 0.0, 0.0, 0.0, 1e-05, 0.0, 0.0, 0.0, 0.0, 0.0, 0.0, 1000000000000.0, 0.0, 0.0, 0.0, 0.0, 0.0, 0.0, 1000000000000.0, 0.0, 0.0, 0.0, 0.0, 0.0, 0.0, 1000000000000.0, 0.0, 0.0, 0.0, 0.0, 0.0, 0.0, 0.001)",7.78577828982134e-08,6.479258653365218e-07,0.0,0.0,0.0,9.58103053848221e-06,"(0.0, 0.0, 0.0, 0.0, 0.0, 0.0, 0.0, 0.0, 0.0, 0.0, 0.0, 0.0, 0.0, 0.0, 0.0, 0.0, 0.0, 0.0, 0.0, 0.0, 0.0, 0.0, 0.0, 0.0, 0.0, 0.0, 0.0, 0.0, 0.0, 0.0, 0.0, 0.0, 0.0, 0.0, 0.0, 0.0)",,,,,,,49,1,764000000,base_footprint,-7.078740557800567e-06,0.003853101273565,4.3849827687753576e-06,0.9999925767430672,0.0,0.0,0.0,0.0,0.0,0.0,0.0,0.0,0.0,3.889926581836002e-05,-0.000180401583224,9.284248788147936e-06,0.0,0.0,0.0,0.0,0.0,0.0,0.0,0.0,0.0,-5.143072277761537e-11,2.9087451148978887e-10,-1.2709376890203309e-11,0.0,0.0,0.0,0.0,0.0,0.0,0.0,0.0,0.0
1.798,-3.308246732114384e-09,1.9487732760836707e-08,3.072938106647547e-07,-2.3904568014732863e-09,8.868132943200204e-06,-3.8606365562078394e-08,8.363504663176352e-06,-7.960221148487127e-11,-8.165801327666384e-16,2.9530882700856683e-07,50,1,763000000,odom,base_footprint,0.4999805521475976,0.5000011451234831,-0.0010013929299979,-7.078740557800568e-06,0.003853101273565,4.384982768775358e-06,0.9999925767430672,"(1e-05, 0.0, 0.0, 0.0, 0.0, 0.0, 0.0, 1e-05, 0.0, 0.0, 0.0, 0.0, 0.0, 0.0, 1000000000000.0, 0.0, 0.0, 0.0, 0.0, 0.0, 0.0, 1000000000000.0, 0.0, 0.0, 0.0, 0.0, 0.0, 0.0, 1000000000000.0, 0.0, 0.0, 0.0, 0.0, 0.0, 0.0, 0.001)",7.785628167062868e-08,6.479354455910936e-07,0.0,0.0,0.0,9.581176396649908e-06,"(0.0, 0.0, 0.0, 0.0, 0.0, 0.0, 0.0, 0.0, 0.0, 0.0, 0.0, 0.0, 0.0, 0.0, 0.0, 0.0, 0.0, 0.0, 0.0, 0.0, 0.0, 0.0, 0.0, 0.0, 0.0, 0.0, 0.0, 0.0, 0.0, 0.0, 0.0, 0.0, 0.0, 0.0, 0.0, 0.0)",,,,,,,49,1,764000000,base_footprint,-7.078740557800567e-06,0.003853101273565,4.3849827687753576e-06,0.9999925767430672,0.0,0.0,0.0,0.0,0.0,0.0,0.0,0.0,0.0,3.889926581836002e-05,-0.000180401583224,9.284248788147936e-06,0.0,0.0,0.0,0.0,0.0,0.0,0.0,0.0,0.0,-5.143072277761537e-11,2.9087451148978887e-10,-1.2709376890203309e-11,0.0,0.0,0.0,0.0,0.0,0.0,0.0,0.0,0.0
1.832,-3.3082611095025527e-09,1.948777839100302e-08,3.0729454844943036e-07,-3.373891116437105e-09,8.622820420652507e-06,-2.9532562010925487e-08,-7.366742418849757e-06,-1.1235057417110298e-10,-1.1853531056459265e-15,2.8713992000772853e-07,51,1,797000000,odom,base_footprint,0.4999805488393509,0.5000011646112159,-0.0010013929300928,-7.079335593637274e-06,0.003853101272751,4.538628545180786e-06,0.9999925767423804,"(1e-05, 0.0, 0.0, 0.0, 0.0, 0.0, 0.0, 1e-05, 0.0, 0.0, 0.0, 0.0, 0.0, 0.0, 1000000000000.0, 0.0, 0.0, 0.0, 0.0, 0.0, 0.0, 1000000000000.0, 0.0, 0.0, 0.0, 0.0, 0.0, 0.0, 1000000000000.0, 0.0, 0.0, 0.0, 0.0, 0.0, 0.0, 0.001)",7.785471853452156e-08,6.479454241592538e-07,0.0,0.0,0.0,9.581328318833124e-06,"(0.0, 0.0, 0.0, 0.0, 0.0, 0.0, 0.0, 0.0, 0.0, 0.0, 0.0, 0.0, 0.0, 0.0, 0.0, 0.0, 0.0, 0.0, 0.0, 0.0, 0.0, 0.0, 0.0, 0.0, 0.0, 0.0, 0.0, 0.0, 0.0, 0.0, 0.0, 0.0, 0.0, 0.0, 0.0, 0.0)",,,,,,,50,1,798000000,base_footprint,-7.079335593637274e-06,0.003853101272751,4.538628545180786e-06,0.9999925767423804,0.0,0.0,0.0,0.0,0.0,0.0,0.0,0.0,0.0,3.889940826122926e-05,-0.0001804015519014,9.28440004513007e-06,0.0,0.0,0.0,0.0,0.0,0.0,0.0,0.0,0.0,-5.1936919940139365e-11,2.9418979478610755e-10,-1.2896343560485848e-11,0.0,0.0,0.0,0.0,0.0,0.0,0.0,0.0,0.0
1.866,-3.308275597913024e-09,1.948782402116933e-08,3.0729528806426636e-07,-4.278706718259691e-09,8.636308745223886e-06,-2.7171639694371942e-08,4.050547919332825e-07,-1.4248093370967994e-10,-1.5441284141020919e-15,2.8758908121595544e-07,52,1,830000000,odom,base_footprint,0.4999805456283918,0.5000011835258237,-0.001001392930181,-7.079912937008061e-06,0.0038531012719598,4.687755680136078e-06,0.9999925767416916,"(1e-05, 0.0, 0.0, 0.0, 0.0, 0.0, 0.0, 1e-05, 0.0, 0.0, 0.0, 0.0, 0.0, 0.0, 1000000000000.0, 0.0, 0.0, 0.0, 0.0, 0.0, 0.0, 1000000000000.0, 0.0, 0.0, 0.0, 0.0, 0.0, 0.0, 1000000000000.0, 0.0, 0.0, 0.0, 0.0, 0.0, 0.0, 0.001)",7.785318112175009e-08,6.479552425144593e-07,0.0,0.0,0.0,9.58147779972766e-06,"(0.0, 0.0, 0.0, 0.0, 0.0, 0.0, 0.0, 0.0, 0.0, 0.0, 0.0, 0.0, 0.0, 0.0, 0.0, 0.0, 0.0, 0.0, 0.0, 0.0, 0.0, 0.0, 0.0, 0.0, 0.0, 0.0, 0.0, 0.0, 0.0, 0.0, 0.0, 0.0, 0.0, 0.0, 0.0, 0.0)",,,,,,,52,1,866000000,base_footprint,-7.080525078036593e-06,0.0038531012711195,4.845921203295884e-06,0.9999925767409366,0.0,0.0,0.0,0.0,0.0,0.0,0.0,0.0,0.0,3.889969126457501e-05,-0.0001804014890595,9.2847081685391e-06,0.0,0.0,0.0,0.0,0.0,0.0,0.0,0.0,0.0,-5.2956732867756256e-11,3.008461358857221e-10,-1.336766092368092e-11,0.0,0.0,0.0,0.0,0.0,0.0,0.0,0.0,0.0
1.9,-3.308289975301193e-09,1.9487869429291038e-08,3.072960217732296e-07,-5.237507084688832e-09,8.910531076752756e-06,-2.8792803796670898e-08,8.234904850716818e-06,-1.7440898590933518e-10,-1.9410227984950846e-15,2.967206848558668e-07,54,1,897000000,odom,base_footprint,0.4999805391091299,0.5000012219283413,-0.0010013929303489,-7.081084587025497e-06,0.0038531012703504,4.99053002125519e-06,0.9999925767402242,"(1e-05, 0.0, 0.0, 0.0, 0.0, 0.0, 0.0, 1e-05, 0.0, 0.0, 0.0, 0.0, 0.0, 0.0, 1000000000000.0, 0.0, 0.0, 0.0, 0.0, 0.0, 0.0, 1000000000000.0, 0.0, 0.0, 0.0, 0.0, 0.0, 0.0, 1000000000000.0, 0.0, 0.0, 0.0, 0.0, 0.0, 0.0, 0.001)",7.785001865793e-08,6.479754455422895e-07,0.0,0.0,0.0,9.581785384783687e-06,"(0.0, 0.0, 0.0, 0.0, 0.0, 0.0, 0.0, 0.0, 0.0, 0.0, 0.0, 0.0, 0.0, 0.0, 0.0, 0.0, 0.0, 0.0, 0.0, 0.0, 0.0, 0.0, 0.0, 0.0, 0.0, 0.0, 0.0, 0.0, 0.0, 0.0, 0.0, 0.0, 0.0, 0.0, 0.0, 0.0)",,,,,,,53,1,900000000,base_footprint,-7.081119551411583e-06,0.0038531012703023,4.9995680830633385e-06,0.999992576740179,0.0,0.0,0.0,0.0,0.0,0.0,0.0,0.0,0.0,3.889983192840378e-05,-0.0001804014576631,9.284864332342343e-06,0.0,0.0,0.0,0.0,0.0,0.0,0.0,0.0,0.0,-5.3381186013650245e-11,3.0364415514831483e-10,-1.3517647044134027e-11,0.0,0.0,0.0,0.0,0.0,0.0,0.0,0.0,0.0
1.9340000000000002,-3.308304408200513e-09,1.9487914837412745e-08,3.072967547087077e-07,-5.7917737872937346e-09,8.659285551867385e-06,-1.6644645723870953e-08,-7.5449106572183265e-06,-1.9286606710429991e-10,-2.2029943894997134e-15,2.8835420887718396e-07,54,1,897000000,odom,base_footprint,0.4999805391091299,0.5000012219283413,-0.0010013929303489,-7.081084587025497e-06,0.0038531012703504,4.99053002125519e-06,0.9999925767402242,"(1e-05, 0.0, 0.0, 0.0, 0.0, 0.0, 0.0, 1e-05, 0.0, 0.0, 0.0, 0.0, 0.0, 0.0, 1000000000000.0, 0.0, 0.0, 0.0, 0.0, 0.0, 0.0, 1000000000000.0, 0.0, 0.0, 0.0, 0.0, 0.0, 0.0, 1000000000000.0, 0.0, 0.0, 0.0, 0.0, 0.0, 0.0, 0.001)",7.785001865793e-08,6.479754455422895e-07,0.0,0.0,0.0,9.581785384783687e-06,"(0.0, 0.0, 0.0, 0.0, 0.0, 0.0, 0.0, 0.0, 0.0, 0.0, 0.0, 0.0, 0.0, 0.0, 0.0, 0.0, 0.0, 0.0, 0.0, 0.0, 0.0, 0.0, 0.0, 0.0, 0.0, 0.0, 0.0, 0.0, 0.0, 0.0, 0.0, 0.0, 0.0, 0.0, 0.0, 0.0)",,,,,,,54,1,934000000,base_footprint,-7.081713860752823e-06,0.0038531012694842,5.153215328658205e-06,0.999992576739398,0.0,0.0,0.0,0.0,0.0,0.0,0.0,0.0,0.0,3.889997205457096e-05,-0.0001804014260839,9.285022003469918e-06,0.0,0.0,0.0,0.0,0.0,0.0,0.0,0.0,0.0,-5.382926597777568e-11,3.065494712517396e-10,-1.3731419861280176e-11,0.0,0.0,0.0,0.0,0.0,0.0,0.0,0.0,0.0
1.968,-3.3083188966109844e-09,1.9487960245534452e-08,3.07297487988664e-07,-6.408515440036787e-09,8.668836636515286e-06,-1.8520770352644225e-08,2.868193587958098e-07,-2.1340356413859176e-10,-2.4990783963990798e-15,2.8867225999595907e-07,56,1,963000000,odom,base_footprint,0.4999805326871157,0.5000012597578594,-0.0010013929305013,-7.08223812330876e-06,0.0038531012687616,5.288786731823448e-06,0.9999925767386892,"(1e-05, 0.0, 0.0, 0.0, 0.0, 0.0, 0.0, 1e-05, 0.0, 0.0, 0.0, 0.0, 0.0, 0.0, 1000000000000.0, 0.0, 0.0, 0.0, 0.0, 0.0, 0.0, 1000000000000.0, 0.0, 0.0, 0.0, 0.0, 0.0, 0.0, 1000000000000.0, 0.0, 0.0, 0.0, 0.0, 0.0, 0.0, 0.001)",7.784685122676456e-08,6.479956896804442e-07,0.0,0.0,0.0,9.582093595024625e-06,"(0.0, 0.0, 0.0, 0.0, 0.0, 0.0, 0.0, 0.0, 0.0, 0.0, 0.0, 0.0, 0.0, 0.0, 0.0, 0.0, 0.0, 0.0, 0.0, 0.0, 0.0, 0.0, 0.0, 0.0, 0.0, 0.0, 0.0, 0.0, 0.0, 0.0, 0.0, 0.0, 0.0, 0.0, 0.0, 0.0)",,,,,,,55,1,968000000,base_footprint,-7.082308016320014e-06,0.0038531012686651,5.306862940292247e-06,0.9999925767385937,0.0,0.0,0.0,0.0,0.0,0.0,0.0,0.0,0.0,3.8900111812578575e-05,-0.0001804013945587,9.285181144412374e-06,0.0,0.0,0.0,0.0,0.0,0.0,0.0,0.0,0.0,-5.425965236681344e-11,3.0938840970521217e-10,-1.3835005860533417e-11,0.0,0.0,0.0,0.0,0.0,0.0,0.0,0.0,0.0
2.002,-3.308333218488002e-09,1.948800565365616e-08,3.072982212141746e-07,-7.17526826742984e-09,8.940511076216748e-06,-2.3025610432223815e-08,8.158391582626495e-06,-2.3893643328819806e-10,-2.868094866399623e-15,2.9771901883801774e-07,57,1,997000000,odom,base_footprint,0.4999805293787842,0.5000012792458596,-0.0010013929305753,-7.082832151615472e-06,0.0038531012679418,5.442434666296529e-06,0.999992576737864,"(1e-05, 0.0, 0.0, 0.0, 0.0, 0.0, 0.0, 1e-05, 0.0, 0.0, 0.0, 0.0, 0.0, 0.0, 1000000000000.0, 0.0, 0.0, 0.0, 0.0, 0.0, 0.0, 1000000000000.0, 0.0, 0.0, 0.0, 0.0, 0.0, 0.0, 1000000000000.0, 0.0, 0.0, 0.0, 0.0, 0.0, 0.0, 0.001)",7.784519810398217e-08,6.480062588955892e-07,0.0,0.0,0.0,9.582254505633528e-06,"(0.0, 0.0, 0.0, 0.0, 0.0, 0.0, 0.0, 0.0, 0.0, 0.0, 0.0, 0.0, 0.0, 0.0, 0.0, 0.0, 0.0, 0.0, 0.0, 0.0, 0.0, 0.0, 0.0, 0.0, 0.0, 0.0, 0.0, 0.0, 0.0, 0.0, 0.0, 0.0, 0.0, 0.0, 0.0, 0.0)",,,,,,,56,2,2000000,base_footprint,-7.08290202819945e-06,0.0038531012678453,5.460510917977101e-06,0.9999925767377652,0.0,0.0,0.0,0.0,0.0,0.0,0.0,0.0,0.0,3.89002510724856e-05,-0.0001804013629951,9.2853413066121e-06,0.0,0.0,0.0,0.0,0.0,0.0,0.0,0.0,0.0,-5.4560906502464255e-11,3.1135124519929074e-10,-1.4023966267585764e-11,0.0,0.0,0.0,0.0,0.0,0.0,0.0,0.0,0.0
2.036,-3.308347595876171e-09,1.948805072871096e-08,3.0729895250056435e-07,-7.459324649456274e-09,8.685424234177043e-06,-8.530221682475471e-09,-7.660265526717876e-06,-2.4839551080811063e-10,-3.0547139210586505e-15,2.8922462699809555e-07,57,1,997000000,odom,base_footprint,0.4999805293787842,0.5000012792458596,-0.0010013929305753,-7.082832151615472e-06,0.0038531012679418,5.442434666296529e-06,0.999992576737864,"(1e-05, 0.0, 0.0, 0.0, 0.0, 0.0, 0.0, 1e-05, 0.0, 0.0, 0.0, 0.0, 0.0, 0.0, 1000000000000.0, 0.0, 0.0, 0.0, 0.0, 0.0, 0.0, 1000000000000.0, 0.0, 0.0, 0.0, 0.0, 0.0, 0.0, 1000000000000.0, 0.0, 0.0, 0.0, 0.0, 0.0, 0.0, 0.001)",7.784519810398217e-08,6.480062588955892e-07,0.0,0.0,0.0,9.582254505633528e-06,"(0.0, 0.0, 0.0, 0.0, 0.0, 0.0, 0.0, 0.0, 0.0, 0.0, 0.0, 0.0, 0.0, 0.0, 0.0, 0.0, 0.0, 0.0, 0.0, 0.0, 0.0, 0.0, 0.0, 0.0, 0.0, 0.0, 0.0, 0.0, 0.0, 0.0, 0.0, 0.0, 0.0, 0.0, 0.0, 0.0)",,,,,,,57,2,36000000,base_footprint,-7.083495905542736e-06,0.0038531012670247,5.614159260778486e-06,0.9999925767369132,0.0,0.0,0.0,0.0,0.0,0.0,0.0,0.0,0.0,3.890038988850195e-05,-0.0001804013312959,9.285502712007117e-06,0.0,0.0,0.0,0.0,0.0,0.0,0.0,0.0,0.0,-5.493127991071184e-11,3.137464282797627e-10,-1.4275782237763783e-11,0.0,0.0,0.0,0.0,0.0,0.0,0.0,0.0,0.0
2.07,-3.30836197326434e-09,1.9488096025810364e-08,3.0729968081902004e-07,-7.895346198649333e-09,8.692446378304522e-06,-1.3093740216007796e-08,2.108751990234014e-07,-2.6291502839419655e-10,-3.309114510533618e-15,2.894584643975406e-07,58,2,30000000,odom,base_footprint,0.4999805261677427,0.5000012981607265,-0.0010013929306444,-7.083408578765456e-06,0.0038531012671454,5.591563893291645e-06,0.9999925767370402,"(1e-05, 0.0, 0.0, 0.0, 0.0, 0.0, 0.0, 1e-05, 0.0, 0.0, 0.0, 0.0, 0.0, 0.0, 1000000000000.0, 0.0, 0.0, 0.0, 0.0, 0.0, 0.0, 1000000000000.0, 0.0, 0.0, 0.0, 0.0, 0.0, 0.0, 1000000000000.0, 0.0, 0.0, 0.0, 0.0, 0.0, 0.0, 0.001)",7.784358367502958e-08,6.480165830817082e-07,0.0,0.0,0.0,9.58241168589329e-06,"(0.0, 0.0, 0.0, 0.0, 0.0, 0.0, 0.0, 0.0, 0.0, 0.0, 0.0, 0.0, 0.0, 0.0, 0.0, 0.0, 0.0, 0.0, 0.0, 0.0, 0.0, 0.0, 0.0, 0.0, 0.0, 0.0, 0.0, 0.0, 0.0, 0.0, 0.0, 0.0, 0.0, 0.0, 0.0, 0.0)",,,,,,,58,2,70000000,base_footprint,-7.0840896569182754e-06,0.0038531012662034,5.767807967245484e-06,0.9999925767360378,0.0,0.0,0.0,0.0,0.0,0.0,0.0,0.0,0.0,3.89005283129301e-05,-0.0001804012997107,9.285665145790272e-06,0.0,0.0,0.0,0.0,0.0,0.0,0.0,0.0,0.0,-5.5228779100972114e-11,3.1572743764113585e-10,-1.4244970846287811e-11,0.0,0.0,0.0,0.0,0.0,0.0,0.0,0.0,0.0
2.104,-3.30837640616366e-09,1.948814098984286e-08,3.0730041496531816e-07,-8.543722726292222e-09,8.962530377013826e-06,-1.947076659588253e-08,8.110630591870979e-06,-2.8450596676192976e-10,-3.664620944365373e-15,2.9845226155456044e-07,59,2,63000000,odom,base_footprint,0.4999805229566877,0.5000013170756361,-0.001001392930711,-7.0839848859968176e-06,0.0038531012663485,5.740693463099751e-06,0.999992576736194,"(1e-05, 0.0, 0.0, 0.0, 0.0, 0.0, 0.0, 1e-05, 0.0, 0.0, 0.0, 0.0, 0.0, 0.0, 1000000000000.0, 0.0, 0.0, 0.0, 0.0, 0.0, 0.0, 1000000000000.0, 0.0, 0.0, 0.0, 0.0, 0.0, 0.0, 1000000000000.0, 0.0, 0.0, 0.0, 0.0, 0.0, 0.0, 0.001)",7.784196102206712e-08,6.480269605572031e-07,0.0,0.0,0.0,9.582569678942742e-06,"(0.0, 0.0, 0.0, 0.0, 0.0, 0.0, 0.0, 0.0, 0.0, 0.0, 0.0, 0.0, 0.0, 0.0, 0.0, 0.0, 0.0, 0.0, 0.0, 0.0, 0.0, 0.0, 0.0, 0.0, 0.0, 0.0, 0.0, 0.0, 0.0, 0.0, 0.0, 0.0, 0.0, 0.0, 0.0, 0.0)",,,,,,,58,2,70000000,base_footprint,-7.0840896569182754e-06,0.0038531012662034,5.767807967245484e-06,0.9999925767360378,0.0,0.0,0.0,0.0,0.0,0.0,0.0,0.0,0.0,3.89005283129301e-05,-0.0001804012997107,9.285665145790272e-06,0.0,0.0,0.0,0.0,0.0,0.0,0.0,0.0,0.0,-5.5228779100972114e-11,3.1572743764113585e-10,-1.4244970846287811e-11,0.0,0.0,0.0,0.0,0.0,0.0,0.0,0.0,0.0
2.138,-3.308390783551829e-09,1.948818639796457e-08,3.073011442273262e-07,-8.649764228197956e-09,8.704835670099204e-06,-3.184429486658685e-09,-7.738579787225889e-06,-2.880371487739922e-10,-3.794894792275286e-15,2.898710278143035e-07,60,2,92000000,odom,base_footprint,0.4999805196483139,0.5000013365637692,-0.0010013929307771,-7.084578539874232e-06,0.0038531012655265,5.894342471255982e-06,0.9999925767352992,"(1e-05, 0.0, 0.0, 0.0, 0.0, 0.0, 0.0, 1e-05, 0.0, 0.0, 0.0, 0.0, 0.0, 0.0, 1000000000000.0, 0.0, 0.0, 0.0, 0.0, 0.0, 0.0, 1000000000000.0, 0.0, 0.0, 0.0, 0.0, 0.0, 0.0, 1000000000000.0, 0.0, 0.0, 0.0, 0.0, 0.0, 0.0, 0.001)",7.78402768453157e-08,6.480377336281202e-07,0.0,0.0,0.0,9.582733693527108e-06,"(0.0, 0.0, 0.0, 0.0, 0.0, 0.0, 0.0, 0.0, 0.0, 0.0, 0.0, 0.0, 0.0, 0.0, 0.0, 0.0, 0.0, 0.0, 0.0, 0.0, 0.0, 0.0, 0.0, 0.0, 0.0, 0.0, 0.0, 0.0, 0.0, 0.0, 0.0, 0.0, 0.0, 0.0, 0.0, 0.0)",,,,,,,60,2,138000000,base_footprint,-7.085276813729259e-06,0.0038531012645588,6.075106477598939e-06,0.9999925767342162,0.0,0.0,0.0,0.0,0.0,0.0,0.0,0.0,0.0,3.890080410639153e-05,-0.0001804012362879,9.285993036105638e-06,0.0,0.0,0.0,0.0,0.0,0.0,0.0,0.0,0.0,-5.5738427277301375e-11,3.1902903792746387e-10,-1.4616114461529264e-11,0.0,0.0,0.0,0.0,0.0,0.0,0.0,0.0,0.0
2.172,-3.308405216451149e-09,1.948823113995246e-08,3.073018688243579e-07,-8.967449085597404e-09,8.710159320528602e-06,-9.540085807791223e-09,1.5986938226420604e-07,-2.986160545233233e-10,-4.0209085429995335e-15,2.900483053736025e-07,61,2,130000000,odom,base_footprint,0.4999805164372313,0.5000013554787653,-0.0010013929308391,-7.085154626335928e-06,0.0038531012647282,6.043472740876551e-06,0.999992576734408,"(1e-05, 0.0, 0.0, 0.0, 0.0, 0.0, 0.0, 1e-05, 0.0, 0.0, 0.0, 0.0, 0.0, 0.0, 1000000000000.0, 0.0, 0.0, 0.0, 0.0, 0.0, 0.0, 1000000000000.0, 0.0, 0.0, 0.0, 0.0, 0.0, 0.0, 1000000000000.0, 0.0, 0.0, 0.0, 0.0, 0.0, 0.0, 0.001)",7.783863455137343e-08,6.480482401451745e-07,0.0,0.0,0.0,9.58289364999393e-06,"(0.0, 0.0, 0.0, 0.0, 0.0, 0.0, 0.0, 0.0, 0.0, 0.0, 0.0, 0.0, 0.0, 0.0, 0.0, 0.0, 0.0, 0.0, 0.0, 0.0, 0.0, 0.0, 0.0, 0.0, 0.0, 0.0, 0.0, 0.0, 0.0, 0.0, 0.0, 0.0, 0.0, 0.0, 0.0, 0.0)",,,,,,,60,2,138000000,base_footprint,-7.085276813729259e-06,0.0038531012645588,6.075106477598939e-06,0.9999925767342162,0.0,0.0,0.0,0.0,0.0,0.0,0.0,0.0,0.0,3.890080410639153e-05,-0.0001804012362879,9.285993036105638e-06,0.0,0.0,0.0,0.0,0.0,0.0,0.0,0.0,0.0,-5.5738427277301375e-11,3.1902903792746387e-10,-1.4616114461529264e-11,0.0,0.0,0.0,0.0,0.0,0.0,0.0,0.0,0.0
2.206,-3.308419593839318e-09,1.948827610398496e-08,3.073025997804573e-07,-9.539932367598394e-09,8.979210860834849e-06,-1.7191690150179884e-08,8.07962583502243e-06,-3.1767974781095456e-10,-4.370950548305392e-15,2.990077216658005e-07,62,2,161000000,odom,base_footprint,0.4999805132261353,0.5000013743938035,-0.001001392930899,-7.085730614558729e-06,0.0038531012639293,6.1926033498825965e-06,0.9999925767334946,"(1e-05, 0.0, 0.0, 0.0, 0.0, 0.0, 0.0, 1e-05, 0.0, 0.0, 0.0, 0.0, 0.0, 0.0, 1000000000000.0, 0.0, 0.0, 0.0, 0.0, 0.0, 0.0, 1000000000000.0, 0.0, 0.0, 0.0, 0.0, 0.0, 0.0, 1000000000000.0, 0.0, 0.0, 0.0, 0.0, 0.0, 0.0, 0.001)",7.78369810271875e-08,6.480588209916219e-07,0.0,0.0,0.0,9.58305473624276e-06,"(0.0, 0.0, 0.0, 0.0, 0.0, 0.0, 0.0, 0.0, 0.0, 0.0, 0.0, 0.0, 0.0, 0.0, 0.0, 0.0, 0.0, 0.0, 0.0, 0.0, 0.0, 0.0, 0.0, 0.0, 0.0, 0.0, 0.0, 0.0, 0.0, 0.0, 0.0, 0.0, 0.0, 0.0, 0.0, 0.0)",,,,,,,61,2,172000000,base_footprint,-7.085870233875196e-06,0.0038531012637355,6.228756276767542e-06,0.99999257673327,0.0,0.0,0.0,0.0,0.0,0.0,0.0,0.0,0.0,3.890094151780128e-05,-0.0001804012045733,9.286158393530295e-06,0.0,0.0,0.0,0.0,0.0,0.0,0.0,0.0,0.0,-5.609301331489922e-11,3.2136270203620883e-10,-1.471973916083473e-11,0.0,0.0,0.0,0.0,0.0,0.0,0.0,0.0,0.0
2.24,-3.308433804694033e-09,1.9488321068017456e-08,3.073033297824705e-07,-9.524228252913061e-09,8.719675214607324e-06,4.715950355955773e-10,-7.793863250075814e-06,-3.171568007906818e-10,-4.4572599047225065e-15,2.903651846464239e-07,63,2,197000000,odom,base_footprint,0.4999805099177191,0.500001393882069,-0.0010013929309587,-7.08632396023194e-06,0.0038531012631056,6.34625342829381e-06,0.9999925767325304,"(1e-05, 0.0, 0.0, 0.0, 0.0, 0.0, 0.0, 1e-05, 0.0, 0.0, 0.0, 0.0, 0.0, 0.0, 1000000000000.0, 0.0, 0.0, 0.0, 0.0, 0.0, 0.0, 1000000000000.0, 0.0, 0.0, 0.0, 0.0, 0.0, 0.0, 1000000000000.0, 0.0, 0.0, 0.0, 0.0, 0.0, 0.0, 0.001)",7.783527089473339e-08,6.480697643725816e-07,0.0,0.0,0.0,9.583221343048936e-06,"(0.0, 0.0, 0.0, 0.0, 0.0, 0.0, 0.0, 0.0, 0.0, 0.0, 0.0, 0.0, 0.0, 0.0, 0.0, 0.0, 0.0, 0.0, 0.0, 0.0, 0.0, 0.0, 0.0, 0.0, 0.0, 0.0, 0.0, 0.0, 0.0, 0.0, 0.0, 0.0, 0.0, 0.0, 0.0, 0.0)",,,,,,,63,2,240000000,base_footprint,-7.087056790357441e-06,0.0038531012620872,6.536056969943432e-06,0.9999925767313064,0.0,0.0,0.0,0.0,0.0,0.0,0.0,0.0,0.0,3.890121549103617e-05,-0.0001804011410565,9.286491692259593e-06,0.0,0.0,0.0,0.0,0.0,0.0,0.0,0.0,0.0,-5.6568911168303553e-11,3.244746462423989e-10,-1.488625121675892e-11,0.0,0.0,0.0,0.0,0.0,0.0,0.0,0.0,0.0
2.274,-3.308448404126807e-09,1.9488366254094558e-08,3.0730405828589793e-07,-9.761594335659968e-09,8.723815324283854e-06,-7.128110593000199e-09,1.2432761791380388e-07,-3.250610913440334e-10,-4.662827742664983e-15,2.9050305029865234e-07,64,2,230000000,odom,base_footprint,0.4999805067065956,0.5000014127971932,-0.0010013929310148,-7.086899766532681e-06,0.0038531012623055,6.495384735442918e-06,0.9999925767315718,"(1e-05, 0.0, 0.0, 0.0, 0.0, 0.0, 0.0, 1e-05, 0.0, 0.0, 0.0, 0.0, 0.0, 0.0, 1000000000000.0, 0.0, 0.0, 0.0, 0.0, 0.0, 0.0, 1000000000000.0, 0.0, 0.0, 0.0, 0.0, 0.0, 0.0, 1000000000000.0, 0.0, 0.0, 0.0, 0.0, 0.0, 0.0, 0.001)",7.783360311512665e-08,6.480804384558553e-07,0.0,0.0,0.0,9.583383848694705e-06,"(0.0, 0.0, 0.0, 0.0, 0.0, 0.0, 0.0, 0.0, 0.0, 0.0, 0.0, 0.0, 0.0, 0.0, 0.0, 0.0, 0.0, 0.0, 0.0, 0.0, 0.0, 0.0, 0.0, 0.0, 0.0, 0.0, 0.0, 0.0, 0.0, 0.0, 0.0, 0.0, 0.0, 0.0, 0.0, 0.0)",,,,,,,64,2,274000000,base_footprint,-7.08764993885108e-06,0.0038531012612623,6.689707862771253e-06,0.9999925767302894,0.0,0.0,0.0,0.0,0.0,0.0,0.0,0.0,0.0,3.890135207019849e-05,-0.0001804011092668,9.286659359907076e-06,0.0,0.0,0.0,0.0,0.0,0.0,0.0,0.0,0.0,-5.677399149340616e-11,3.258147012428458e-10,-1.4919272519903105e-11,0.0,0.0,0.0,0.0,0.0,0.0,0.0,0.0,0.0
2.308,-3.308462614981522e-09,1.948841099608245e-08,3.073047837840371e-07,-1.0283801478046376e-08,8.992175073121144e-06,-1.5681896167760008e-08,8.058851316435144e-06,-3.4245058918224845e-10,-5.01338783230621e-15,2.9943942993493414e-07,66,2,297000000,odom,base_footprint,0.4999805001870001,0.5000014512007579,-0.0010013929311236,-7.0880685840012616e-06,0.0038531012606797,6.798167534511146e-06,0.9999925767295572,"(1e-05, 0.0, 0.0, 0.0, 0.0, 0.0, 0.0, 1e-05, 0.0, 0.0, 0.0, 0.0, 0.0, 0.0, 1000000000000.0, 0.0, 0.0, 0.0, 0.0, 0.0, 0.0, 1000000000000.0, 0.0, 0.0, 0.0, 0.0, 0.0, 0.0, 1000000000000.0, 0.0, 0.0, 0.0, 0.0, 0.0, 0.0, 0.001)",7.783019630930636e-08,6.481022461187757e-07,0.0,0.0,0.0,9.583715857734337e-06,"(0.0, 0.0, 0.0, 0.0, 0.0, 0.0, 0.0, 0.0, 0.0, 0.0, 0.0, 0.0, 0.0, 0.0, 0.0, 0.0, 0.0, 0.0, 0.0, 0.0, 0.0, 0.0, 0.0, 0.0, 0.0, 0.0, 0.0, 0.0, 0.0, 0.0, 0.0, 0.0, 0.0, 0.0, 0.0, 0.0)",,,,,,,64,2,274000000,base_footprint,-7.08764993885108e-06,0.0038531012612623,6.689707862771253e-06,0.9999925767302894,0.0,0.0,0.0,0.0,0.0,0.0,0.0,0.0,0.0,3.890135207019849e-05,-0.0001804011092668,9.286659359907076e-06,0.0,0.0,0.0,0.0,0.0,0.0,0.0,0.0,0.0,-5.677399149340616e-11,3.258147012428458e-10,-1.4919272519903105e-11,0.0,0.0,0.0,0.0,0.0,0.0,0.0,0.0,0.0
2.342,-3.308476992369691e-09,1.9488455849092645e-08,3.07305513263326e-07,-1.0182174943039613e-08,8.731296711665266e-06,3.0518478981009965e-09,-7.834185028705053e-06,-3.390664255654064e-10,-5.063605388700484e-15,2.9075218049845337e-07,66,2,297000000,odom,base_footprint,0.4999805001870001,0.5000014512007579,-0.0010013929311236,-7.0880685840012616e-06,0.0038531012606797,6.798167534511146e-06,0.9999925767295572,"(1e-05, 0.0, 0.0, 0.0, 0.0, 0.0, 0.0, 1e-05, 0.0, 0.0, 0.0, 0.0, 0.0, 0.0, 1000000000000.0, 0.0, 0.0, 0.0, 0.0, 0.0, 0.0, 1000000000000.0, 0.0, 0.0, 0.0, 0.0, 0.0, 0.0, 1000000000000.0, 0.0, 0.0, 0.0, 0.0, 0.0, 0.0, 0.001)",7.783019630930636e-08,6.481022461187757e-07,0.0,0.0,0.0,9.583715857734337e-06,"(0.0, 0.0, 0.0, 0.0, 0.0, 0.0, 0.0, 0.0, 0.0, 0.0, 0.0, 0.0, 0.0, 0.0, 0.0, 0.0, 0.0, 0.0, 0.0, 0.0, 0.0, 0.0, 0.0, 0.0, 0.0, 0.0, 0.0, 0.0, 0.0, 0.0, 0.0, 0.0, 0.0, 0.0, 0.0, 0.0)",,,,,,,66,2,342000000,base_footprint,-7.088836003551236e-06,0.0038531012596109,6.997010737744878e-06,0.9999925767281844,0.0,0.0,0.0,0.0,0.0,0.0,0.0,0.0,0.0,3.890162448363435e-05,-0.0001804010455437,9.286997000820136e-06,0.0,0.0,0.0,0.0,0.0,0.0,0.0,0.0,0.0,-5.724584741733437e-11,3.288939026761526e-10,-1.5196983206281358e-11,0.0,0.0,0.0,0.0,0.0,0.0,0.0,0.0,0.0
2.376,-3.308491425269011e-09,1.9488500924147445e-08,3.073062387836829e-07,-1.0363369021794644e-08,8.734585811388596e-06,-5.441263626277219e-09,9.87717634633798e-08,-3.451001883857618e-10,-5.254254901567028e-15,2.908617075192403e-07,68,2,363000000,odom,base_footprint,0.4999804937646574,0.5000014890313054,-0.0010013929312247,-7.08921966919097e-06,0.0038531012590764,7.096432567145898e-06,0.9999925767274832,"(1e-05, 0.0, 0.0, 0.0, 0.0, 0.0, 0.0, 1e-05, 0.0, 0.0, 0.0, 0.0, 0.0, 0.0, 1000000000000.0, 0.0, 0.0, 0.0, 0.0, 0.0, 0.0, 1000000000000.0, 0.0, 0.0, 0.0, 0.0, 0.0, 0.0, 1000000000000.0, 0.0, 0.0, 0.0, 0.0, 0.0, 0.0, 0.001)",7.782681535254774e-08,6.481238919267356e-07,0.0,0.0,0.0,9.584045400320347e-06,"(0.0, 0.0, 0.0, 0.0, 0.0, 0.0, 0.0, 0.0, 0.0, 0.0, 0.0, 0.0, 0.0, 0.0, 0.0, 0.0, 0.0, 0.0, 0.0, 0.0, 0.0, 0.0, 0.0, 0.0, 0.0, 0.0, 0.0, 0.0, 0.0, 0.0, 0.0, 0.0, 0.0, 0.0, 0.0, 0.0)",,,,,,,67,2,376000000,base_footprint,-7.089428929636792e-06,0.0038531012587847,7.150662719939852e-06,0.9999925767270964,0.0,0.0,0.0,0.0,0.0,0.0,0.0,0.0,0.0,3.890176034571027e-05,-0.000180401013714,9.287166378133138e-06,0.0,0.0,0.0,0.0,0.0,0.0,0.0,0.0,0.0,-5.727854514858218e-11,3.2910491720162765e-10,-1.5217673886256793e-11,0.0,0.0,0.0,0.0,0.0,0.0,0.0,0.0,0.0
2.41,-3.3085056916348776e-09,1.9488545666135337e-08,3.0730696834350434e-07,-1.0851341246984354e-08,9.002469709135708e-06,-1.4653820576267552e-08,8.04456149390726e-06,-3.6134966348105207e-10,-5.6084038705211194e-15,2.9978224131421913e-07,69,2,397000000,odom,base_footprint,0.4999804904561568,0.5000015085198353,-0.0010013929312747,-7.089812552848226e-06,0.0038531012582497,7.25008478500408e-06,0.9999925767263798,"(1e-05, 0.0, 0.0, 0.0, 0.0, 0.0, 0.0, 1e-05, 0.0, 0.0, 0.0, 0.0, 0.0, 0.0, 1000000000000.0, 0.0, 0.0, 0.0, 0.0, 0.0, 0.0, 1000000000000.0, 0.0, 0.0, 0.0, 0.0, 0.0, 0.0, 1000000000000.0, 0.0, 0.0, 0.0, 0.0, 0.0, 0.0, 0.001)",7.78250648238884e-08,6.481351006801151e-07,0.0,0.0,0.0,9.584216046390476e-06,"(0.0, 0.0, 0.0, 0.0, 0.0, 0.0, 0.0, 0.0, 0.0, 0.0, 0.0, 0.0, 0.0, 0.0, 0.0, 0.0, 0.0, 0.0, 0.0, 0.0, 0.0, 0.0, 0.0, 0.0, 0.0, 0.0, 0.0, 0.0, 0.0, 0.0, 0.0, 0.0, 0.0, 0.0, 0.0, 0.0)",,,,,,,68,2,410000000,base_footprint,-7.090021790832471e-06,0.0038531012579578,7.304315066656411e-06,0.9999925767259848,0.0,0.0,0.0,0.0,0.0,0.0,0.0,0.0,0.0,3.890189601800672e-05,-0.0001804009818425,9.287336781712125e-06,0.0,0.0,0.0,0.0,0.0,0.0,0.0,0.0,0.0,-5.758111397943586e-11,3.3108989726390926e-10,-1.5237972720449614e-11,0.0,0.0,0.0,0.0,0.0,0.0,0.0,0.0,0.0
2.444,-3.3085200690230465e-09,1.9488590630167835e-08,3.0730769385089315e-07,-1.06874267994087e-08,8.74058488199822e-06,4.922355783052655e-09,-7.864409223347985e-06,-3.558913123757938e-10,-5.628777530188712e-15,2.9106147657054077e-07,69,2,397000000,odom,base_footprint,0.4999804904561568,0.5000015085198353,-0.0010013929312747,-7.089812552848226e-06,0.0038531012582497,7.25008478500408e-06,0.9999925767263798,"(1e-05, 0.0, 0.0, 0.0, 0.0, 0.0, 0.0, 1e-05, 0.0, 0.0, 0.0, 0.0, 0.0, 0.0, 1000000000000.0, 0.0, 0.0, 0.0, 0.0, 0.0, 0.0, 1000000000000.0, 0.0, 0.0, 0.0, 0.0, 0.0, 0.0, 1000000000000.0, 0.0, 0.0, 0.0, 0.0, 0.0, 0.0, 0.001)",7.78250648238884e-08,6.481351006801151e-07,0.0,0.0,0.0,9.584216046390476e-06,"(0.0, 0.0, 0.0, 0.0, 0.0, 0.0, 0.0, 0.0, 0.0, 0.0, 0.0, 0.0, 0.0, 0.0, 0.0, 0.0, 0.0, 0.0, 0.0, 0.0, 0.0, 0.0, 0.0, 0.0, 0.0, 0.0, 0.0, 0.0, 0.0, 0.0, 0.0, 0.0, 0.0, 0.0, 0.0, 0.0)",,,,,,,69,2,444000000,base_footprint,-7.0906145915406565e-06,0.0038531012571307,7.457967775885345e-06,0.9999925767248496,0.0,0.0,0.0,0.0,0.0,0.0,0.0,0.0,0.0,3.890203147469114e-05,-0.0001804009499095,9.287507558866958e-06,0.0,0.0,0.0,0.0,0.0,0.0,0.0,0.0,0.0,-5.7694685003594016e-11,3.3180565761599963e-10,-1.5514667092724077e-11,0.0,0.0,0.0,0.0,0.0,0.0,0.0,0.0,0.0
2.478,-3.308534390900064e-09,1.9488635261133425e-08,3.073084145714345e-07,-1.0828308340074636e-08,8.743245606991966e-06,-4.230676896874945e-09,7.990165146384602e-08,-3.605826676777104e-10,-5.807939382146677e-15,2.911500787128325e-07,70,2,430000000,odom,base_footprint,0.4999804872449512,0.5000015274352161,-0.001001392931322,-7.090387939348487e-06,0.003853101257447,7.399218167749543e-06,0.9999925767252864,"(1e-05, 0.0, 0.0, 0.0, 0.0, 0.0, 0.0, 1e-05, 0.0, 0.0, 0.0, 0.0, 0.0, 0.0, 1000000000000.0, 0.0, 0.0, 0.0, 0.0, 0.0, 0.0, 1000000000000.0, 0.0, 0.0, 0.0, 0.0, 0.0, 0.0, 1000000000000.0, 0.0, 0.0, 0.0, 0.0, 0.0, 0.0, 0.001)",7.782336068210007e-08,6.481460137400996e-07,0.0,0.0,0.0,9.58438218890113e-06,"(0.0, 0.0, 0.0, 0.0, 0.0, 0.0, 0.0, 0.0, 0.0, 0.0, 0.0, 0.0, 0.0, 0.0, 0.0, 0.0, 0.0, 0.0, 0.0, 0.0, 0.0, 0.0, 0.0, 0.0, 0.0, 0.0, 0.0, 0.0, 0.0, 0.0, 0.0, 0.0, 0.0, 0.0, 0.0, 0.0)",,,,,,,70,2,478000000,base_footprint,-7.091207335588587e-06,0.0038531012563032,7.6116208452480276e-06,0.9999925767236908,0.0,0.0,0.0,0.0,0.0,0.0,0.0,0.0,0.0,3.890216683579234e-05,-0.0001804009180161,9.287678588037208e-06,0.0,0.0,0.0,0.0,0.0,0.0,0.0,0.0,0.0,-5.7764695126994686e-11,3.322924330061505e-10,-1.519849453318235e-11,0.0,0.0,0.0,0.0,0.0,0.0,0.0,0.0,0.0
2.512,-3.308548712777082e-09,1.9488679892099015e-08,3.073091448302005e-07,-1.1292433054704756e-08,9.010795015545895e-06,-1.3937679118021628e-08,8.034516773391264e-06,-3.7603802067108015e-10,-6.16796885813638e-15,3.0005947401767837e-07,72,2,497000000,odom,base_footprint,0.4999804807251894,0.5000015658393003,-0.0010013929314145,-7.091555983572791e-06,0.0038531012558162,7.702005173811412e-06,0.999992576722998,"(1e-05, 0.0, 0.0, 0.0, 0.0, 0.0, 0.0, 1e-05, 0.0, 0.0, 0.0, 0.0, 0.0, 0.0, 1000000000000.0, 0.0, 0.0, 0.0, 0.0, 0.0, 0.0, 1000000000000.0, 0.0, 0.0, 0.0, 0.0, 0.0, 0.0, 1000000000000.0, 0.0, 0.0, 0.0, 0.0, 0.0, 0.0, 0.001)",7.781988771436938e-08,6.48168255654746e-07,0.0,0.0,0.0,9.584720807125455e-06,"(0.0, 0.0, 0.0, 0.0, 0.0, 0.0, 0.0, 0.0, 0.0, 0.0, 0.0, 0.0, 0.0, 0.0, 0.0, 0.0, 0.0, 0.0, 0.0, 0.0, 0.0, 0.0, 0.0, 0.0, 0.0, 0.0, 0.0, 0.0, 0.0, 0.0, 0.0, 0.0, 0.0, 0.0, 0.0, 0.0)",,,,,,,71,2,512000000,base_footprint,-7.091800026673814e-06,0.0038531012554752,7.765274279527707e-06,0.9999925767225084,0.0,0.0,0.0,0.0,0.0,0.0,0.0,0.0,0.0,3.890230195601237e-05,-0.000180400886069,9.287850589580969e-06,0.0,0.0,0.0,0.0,0.0,0.0,0.0,0.0,0.0,-5.805547973734489e-11,3.341697034932035e-10,-1.5649495515181328e-11,0.0,0.0,0.0,0.0,0.0,0.0,0.0,0.0,0.0
2.5460000000000003,-3.308563201187553e-09,1.9488725078176117e-08,3.073098723459416e-07,-1.1082321646961271e-08,8.748137855260061e-06,6.309651884188734e-09,-7.887602410986015e-06,-3.690413107923569e-10,-6.162375786743521e-15,2.9131299058016005e-07,72,2,497000000,odom,base_footprint,0.4999804807251894,0.5000015658393003,-0.0010013929314145,-7.091555983572791e-06,0.0038531012558162,7.702005173811412e-06,0.999992576722998,"(1e-05, 0.0, 0.0, 0.0, 0.0, 0.0, 0.0, 1e-05, 0.0, 0.0, 0.0, 0.0, 0.0, 0.0, 1000000000000.0, 0.0, 0.0, 0.0, 0.0, 0.0, 0.0, 1000000000000.0, 0.0, 0.0, 0.0, 0.0, 0.0, 0.0, 1000000000000.0, 0.0, 0.0, 0.0, 0.0, 0.0, 0.0, 0.001)",7.781988771436938e-08,6.48168255654746e-07,0.0,0.0,0.0,9.584720807125455e-06,"(0.0, 0.0, 0.0, 0.0, 0.0, 0.0, 0.0, 0.0, 0.0, 0.0, 0.0, 0.0, 0.0, 0.0, 0.0, 0.0, 0.0, 0.0, 0.0, 0.0, 0.0, 0.0, 0.0, 0.0, 0.0, 0.0, 0.0, 0.0, 0.0, 0.0, 0.0, 0.0, 0.0, 0.0, 0.0, 0.0)",,,,,,,72,2,546000000,base_footprint,-7.092392668262262e-06,0.0038531012546469,7.918928077366256e-06,0.9999925767213026,0.0,0.0,0.0,0.0,0.0,0.0,0.0,0.0,0.0,3.890243690183656e-05,-0.0001804008541976,9.288022686281696e-06,0.0,0.0,0.0,0.0,0.0,0.0,0.0,0.0,0.0,-5.8079186798118646e-11,3.343472848094016e-10,-1.5439730648900142e-11,0.0,0.0,0.0,0.0,0.0,0.0,0.0,0.0,0.0
2.58,-3.3085774120422684e-09,1.9488769598119404e-08,3.073105967556571e-07,-1.119362924673173e-08,8.750324362991733e-06,-3.342570563677416e-09,6.566089284300815e-08,-3.7274785386237244e-10,-6.332923004542094e-15,2.9138580128762473e-07,74,2,563000000,odom,base_footprint,0.4999804743026828,0.5000016036703598,-0.0010013929315015,-7.092706400736512e-06,0.0038531012542084,8.000274351985755e-06,0.9999925767206546,"(1e-05, 0.0, 0.0, 0.0, 0.0, 0.0, 0.0, 1e-05, 0.0, 0.0, 0.0, 0.0, 0.0, 0.0, 1000000000000.0, 0.0, 0.0, 0.0, 0.0, 0.0, 0.0, 1000000000000.0, 0.0, 0.0, 0.0, 0.0, 0.0, 0.0, 1000000000000.0, 0.0, 0.0, 0.0, 0.0, 0.0, 0.0, 0.001)",7.781644628198369e-08,6.481902987075959e-07,0.0,0.0,0.0,9.585056395649436e-06,"(0.0, 0.0, 0.0, 0.0, 0.0, 0.0, 0.0, 0.0, 0.0, 0.0, 0.0, 0.0, 0.0, 0.0, 0.0, 0.0, 0.0, 0.0, 0.0, 0.0, 0.0, 0.0, 0.0, 0.0, 0.0, 0.0, 0.0, 0.0, 0.0, 0.0, 0.0, 0.0, 0.0, 0.0, 0.0, 0.0)",,,,,,,72,2,546000000,base_footprint,-7.092392668262262e-06,0.0038531012546469,7.918928077366256e-06,0.9999925767213026,0.0,0.0,0.0,0.0,0.0,0.0,0.0,0.0,0.0,3.890243690183656e-05,-0.0001804008541976,9.288022686281696e-06,0.0,0.0,0.0,0.0,0.0,0.0,0.0,0.0,0.0,-5.8079186798118646e-11,3.343472848094016e-10,-1.5439730648900142e-11,0.0,0.0,0.0,0.0,0.0,0.0,0.0,0.0,0.0
2.614,-3.3085919004527398e-09,1.9488814340107297e-08,3.0731132196611677e-07,-1.1640786792957561e-08,9.017634550490283e-06,-1.3428154541316266e-08,8.027332957914408e-06,-3.8763820014757276e-10,-6.700534030212569e-15,3.0028723053132646e-07,75,2,597000000,odom,base_footprint,0.4999804709940977,0.5000016231591532,-0.0010013929315449,-7.093298972798818e-06,0.0038531012533796,8.15392870411004e-06,0.9999925767194124,"(1e-05, 0.0, 0.0, 0.0, 0.0, 0.0, 0.0, 1e-05, 0.0, 0.0, 0.0, 0.0, 0.0, 0.0, 1000000000000.0, 0.0, 0.0, 0.0, 0.0, 0.0, 0.0, 1000000000000.0, 0.0, 0.0, 0.0, 0.0, 0.0, 0.0, 1000000000000.0, 0.0, 0.0, 0.0, 0.0, 0.0, 0.0, 0.001)",7.781466816798978e-08,6.482016888974411e-07,0.0,0.0,0.0,9.58522980197996e-06,"(0.0, 0.0, 0.0, 0.0, 0.0, 0.0, 0.0, 0.0, 0.0, 0.0, 0.0, 0.0, 0.0, 0.0, 0.0, 0.0, 0.0, 0.0, 0.0, 0.0, 0.0, 0.0, 0.0, 0.0, 0.0, 0.0, 0.0, 0.0, 0.0, 0.0, 0.0, 0.0, 0.0, 0.0, 0.0, 0.0)",,,,,,,74,2,614000000,base_footprint,-7.093577815620725e-06,0.0038531012529895,8.226236759510196e-06,0.9999925767188198,0.0,0.0,0.0,0.0,0.0,0.0,0.0,0.0,0.0,3.890270645052464e-05,-0.0001804007902258,9.288368158355855e-06,0.0,0.0,0.0,0.0,0.0,0.0,0.0,0.0,0.0,-5.831252873133758e-11,3.3584812588959445e-10,-1.5628824697293002e-11,0.0,0.0,0.0,0.0,0.0,0.0,0.0,0.0,0.0
2.648,-3.308606111307455e-09,1.9488859304139794e-08,3.073120463213104e-07,-1.1395736326552412e-08,8.75437226314494e-06,7.358872865019491e-09,-7.905774394755062e-06,-3.794780196155397e-10,-6.671760557008942e-15,2.915205963627265e-07,75,2,597000000,odom,base_footprint,0.4999804709940977,0.5000016231591532,-0.0010013929315449,-7.093298972798818e-06,0.0038531012533796,8.15392870411004e-06,0.9999925767194124,"(1e-05, 0.0, 0.0, 0.0, 0.0, 0.0, 0.0, 1e-05, 0.0, 0.0, 0.0, 0.0, 0.0, 0.0, 1000000000000.0, 0.0, 0.0, 0.0, 0.0, 0.0, 0.0, 1000000000000.0, 0.0, 0.0, 0.0, 0.0, 0.0, 0.0, 1000000000000.0, 0.0, 0.0, 0.0, 0.0, 0.0, 0.0, 0.001)",7.781466816798978e-08,6.482016888974411e-07,0.0,0.0,0.0,9.58522980197996e-06,"(0.0, 0.0, 0.0, 0.0, 0.0, 0.0, 0.0, 0.0, 0.0, 0.0, 0.0, 0.0, 0.0, 0.0, 0.0, 0.0, 0.0, 0.0, 0.0, 0.0, 0.0, 0.0, 0.0, 0.0, 0.0, 0.0, 0.0, 0.0, 0.0, 0.0, 0.0, 0.0, 0.0, 0.0, 0.0, 0.0)",,,,,,,75,2,648000000,base_footprint,-7.094170327196237e-06,0.0038531012521603,8.379891643810688e-06,0.9999925767175428,0.0,0.0,0.0,0.0,0.0,0.0,0.0,0.0,0.0,3.89028410446944e-05,-0.0001804007583012,9.288541486738328e-06,0.0,0.0,0.0,0.0,0.0,0.0,0.0,0.0,0.0,-5.844406573992533e-11,3.367248584679734e-10,-1.5639619948910166e-11,0.0,0.0,0.0,0.0,0.0,0.0,0.0,0.0,0.0
2.682,-3.308620488695624e-09,1.948890382408308e-08,3.073127712963492e-07,-1.1484907919584903e-08,8.756193646029295e-06,-2.6778256165913127e-09,5.4696182713372955e-08,-3.8244743366108943e-10,-6.835569874647831e-15,2.9158124841277556e-07,76,2,630000000,odom,base_footprint,0.4999804677828102,0.5000016420747896,-0.0010013929315862,-7.093874076288197e-06,0.0038531012525749,8.303064156784037e-06,0.999992576718184,"(1e-05, 0.0, 0.0, 0.0, 0.0, 0.0, 0.0, 1e-05, 0.0, 0.0, 0.0, 0.0, 0.0, 0.0, 1000000000000.0, 0.0, 0.0, 0.0, 0.0, 0.0, 0.0, 1000000000000.0, 0.0, 0.0, 0.0, 0.0, 0.0, 0.0, 1000000000000.0, 0.0, 0.0, 0.0, 0.0, 0.0, 0.0, 0.001)",7.781293881843609e-08,6.482127669646559e-07,0.0,0.0,0.0,9.585398457402133e-06,"(0.0, 0.0, 0.0, 0.0, 0.0, 0.0, 0.0, 0.0, 0.0, 0.0, 0.0, 0.0, 0.0, 0.0, 0.0, 0.0, 0.0, 0.0, 0.0, 0.0, 0.0, 0.0, 0.0, 0.0, 0.0, 0.0, 0.0, 0.0, 0.0, 0.0, 0.0, 0.0, 0.0, 0.0, 0.0, 0.0)",,,,,,,76,2,682000000,base_footprint,-7.094762800918363e-06,0.0038531012513309,8.533546890444575e-06,0.9999925767162424,0.0,0.0,0.0,0.0,0.0,0.0,0.0,0.0,0.0,3.890297550770363e-05,-0.0001804007263108,9.288715048142558e-06,0.0,0.0,0.0,0.0,0.0,0.0,0.0,0.0,0.0,-5.85149130795387e-11,3.3717184489001226e-10,-1.572298553610852e-11,0.0,0.0,0.0,0.0,0.0,0.0,0.0,0.0,0.0
2.716,-3.3086348105726415e-09,1.948894845504867e-08,3.0731349433721873e-07,-1.1919805042903586e-08,9.02333008112399e-06,-1.305997367323374e-08,8.02211516800887e-06,-3.969295078631739e-10,-7.211726409129927e-15,3.004768917014289e-07,78,2,697000000,odom,base_footprint,0.4999804612628821,0.5000016804793928,-0.0010013929316676,-7.095041599785879e-06,0.0038531012509404,8.605855366247096e-06,0.9999925767156224,"(1e-05, 0.0, 0.0, 0.0, 0.0, 0.0, 0.0, 1e-05, 0.0, 0.0, 0.0, 0.0, 0.0, 0.0, 1000000000000.0, 0.0, 0.0, 0.0, 0.0, 0.0, 0.0, 1000000000000.0, 0.0, 0.0, 0.0, 0.0, 0.0, 0.0, 1000000000000.0, 0.0, 0.0, 0.0, 0.0, 0.0, 0.0, 0.001)",7.780941913998743e-08,6.482353154242099e-07,0.0,0.0,0.0,9.585741740914858e-06,"(0.0, 0.0, 0.0, 0.0, 0.0, 0.0, 0.0, 0.0, 0.0, 0.0, 0.0, 0.0, 0.0, 0.0, 0.0, 0.0, 0.0, 0.0, 0.0, 0.0, 0.0, 0.0, 0.0, 0.0, 0.0, 0.0, 0.0, 0.0, 0.0, 0.0, 0.0, 0.0, 0.0, 0.0, 0.0, 0.0)",,,,,,,77,2,716000000,base_footprint,-7.0953552394086974e-06,0.003853101250501,8.687202498454887e-06,0.9999925767149184,0.0,0.0,0.0,0.0,0.0,0.0,0.0,0.0,0.0,3.890310981987889e-05,-0.0001804006943112,9.288889136457448e-06,0.0,0.0,0.0,0.0,0.0,0.0,0.0,0.0,0.0,-5.867121653168946e-11,3.3818825157548506e-10,-1.5853632815268726e-11,0.0,0.0,0.0,0.0,0.0,0.0,0.0,0.0,0.0
2.75,-3.3086491879608104e-09,1.948899308601426e-08,3.0731421966103856e-07,-1.1647849771791344e-08,8.759585935481682e-06,8.166824958325589e-09,-7.920244613883139e-06,-3.878733973345241e-10,-7.162233055088077e-15,2.9169421165154004e-07,78,2,697000000,odom,base_footprint,0.4999804612628821,0.5000016804793928,-0.0010013929316676,-7.095041599785879e-06,0.0038531012509404,8.605855366247096e-06,0.9999925767156224,"(1e-05, 0.0, 0.0, 0.0, 0.0, 0.0, 0.0, 1e-05, 0.0, 0.0, 0.0, 0.0, 0.0, 0.0, 1000000000000.0, 0.0, 0.0, 0.0, 0.0, 0.0, 0.0, 1000000000000.0, 0.0, 0.0, 0.0, 0.0, 0.0, 0.0, 1000000000000.0, 0.0, 0.0, 0.0, 0.0, 0.0, 0.0, 0.001)",7.780941913998743e-08,6.482353154242099e-07,0.0,0.0,0.0,9.585741740914858e-06,"(0.0, 0.0, 0.0, 0.0, 0.0, 0.0, 0.0, 0.0, 0.0, 0.0, 0.0, 0.0, 0.0, 0.0, 0.0, 0.0, 0.0, 0.0, 0.0, 0.0, 0.0, 0.0, 0.0, 0.0, 0.0, 0.0, 0.0, 0.0, 0.0, 0.0, 0.0, 0.0, 0.0, 0.0, 0.0, 0.0)",,,,,,,78,2,750000000,base_footprint,-7.095947644858571e-06,0.003853101249671,8.84085846899152e-06,0.9999925767135708,0.0,0.0,0.0,0.0,0.0,0.0,0.0,0.0,0.0,3.890324404640639e-05,-0.0001804006623963,9.289063250040715e-06,0.0,0.0,0.0,0.0,0.0,0.0,0.0,0.0,0.0,-5.867424078313511e-11,3.382340007229749e-10,-1.563204806885747e-11,0.0,0.0,0.0,0.0,0.0,0.0,0.0,0.0,0.0
2.784,-3.3086633988155256e-09,1.9489037828002154e-08,3.073149438350416e-07,-1.1720179621605226e-08,8.761121178385417e-06,-2.17206756197843e-09,4.61033905025676e-08,-3.9028198133079976e-10,-7.320400082819292e-15,2.9174533524023445e-07,80,2,763000000,odom,base_footprint,0.4999804548402118,0.5000017183109626,-0.001001392931745,-7.096191567480658e-06,0.0038531012493291,8.90412867930822e-06,0.9999925767130092,"(1e-05, 0.0, 0.0, 0.0, 0.0, 0.0, 0.0, 1e-05, 0.0, 0.0, 0.0, 0.0, 0.0, 0.0, 1000000000000.0, 0.0, 0.0, 0.0, 0.0, 0.0, 0.0, 1000000000000.0, 0.0, 0.0, 0.0, 0.0, 0.0, 0.0, 1000000000000.0, 0.0, 0.0, 0.0, 0.0, 0.0, 0.0, 0.001)",7.780593911417033e-08,6.482576122471648e-07,0.0,0.0,0.0,9.586081191879554e-06,"(0.0, 0.0, 0.0, 0.0, 0.0, 0.0, 0.0, 0.0, 0.0, 0.0, 0.0, 0.0, 0.0, 0.0, 0.0, 0.0, 0.0, 0.0, 0.0, 0.0, 0.0, 0.0, 0.0, 0.0, 0.0, 0.0, 0.0, 0.0, 0.0, 0.0, 0.0, 0.0, 0.0, 0.0, 0.0, 0.0)",,,,,,,79,2,784000000,base_footprint,-7.096540019565811e-06,0.0038531012488407,8.994514801488424e-06,0.9999925767121994,0.0,0.0,0.0,0.0,0.0,0.0,0.0,0.0,0.0,3.8903378187172086e-05,-0.000180400630304,9.289237847812562e-06,0.0,0.0,0.0,0.0,0.0,0.0,0.0,0.0,0.0,-5.882496167581064e-11,3.3917050177455257e-10,-1.601989490758263e-11,0.0,0.0,0.0,0.0,0.0,0.0,0.0,0.0,0.0
2.818,-3.3086777762036945e-09,1.948908234794544e-08,3.0731566717140705e-07,-1.2146068575334909e-08,9.028130191383172e-06,-1.2789458069960451e-08,8.018288678611262e-06,-4.044640834852373e-10,-7.706325426391832e-15,3.0063673537305966e-07,81,2,797000000,odom,base_footprint,0.4999804515315424,0.5000017378000189,-0.0010013929317839,-7.096783930069307e-06,0.0038531012484988,9.05778516138116e-06,0.999992576711628,"(1e-05, 0.0, 0.0, 0.0, 0.0, 0.0, 0.0, 1e-05, 0.0, 0.0, 0.0, 0.0, 0.0, 0.0, 1000000000000.0, 0.0, 0.0, 0.0, 0.0, 0.0, 0.0, 1000000000000.0, 0.0, 0.0, 0.0, 0.0, 0.0, 0.0, 1000000000000.0, 0.0, 0.0, 0.0, 0.0, 0.0, 0.0, 0.001)",7.780414397418297e-08,6.48269113587266e-07,0.0,0.0,0.0,9.586256291192215e-06,"(0.0, 0.0, 0.0, 0.0, 0.0, 0.0, 0.0, 0.0, 0.0, 0.0, 0.0, 0.0, 0.0, 0.0, 0.0, 0.0, 0.0, 0.0, 0.0, 0.0, 0.0, 0.0, 0.0, 0.0, 0.0, 0.0, 0.0, 0.0, 0.0, 0.0, 0.0, 0.0, 0.0, 0.0, 0.0, 0.0)",,,,,,,80,2,818000000,base_footprint,-7.097132365503671e-06,0.0038531012480102,9.148171495534395e-06,0.9999925767108048,0.0,0.0,0.0,0.0,0.0,0.0,0.0,0.0,0.0,3.890351224295268e-05,-0.0001804005983149,9.289412607004946e-06,0.0,0.0,0.0,0.0,0.0,0.0,0.0,0.0,0.0,-5.886802793971337e-11,3.39480612273946e-10,-1.5853328016026157e-11,0.0,0.0,0.0,0.0,0.0,0.0,0.0,0.0,0.0
2.8520000000000003,-3.3086922091030146e-09,1.948912697891103e-08,3.0731639125027824e-07,-1.185309160132573e-08,8.76399598988538e-06,8.798107327602956e-09,-7.931958002936707e-06,-3.947079502502572e-10,-7.637332041420505e-15,2.918410664631832e-07,81,2,797000000,odom,base_footprint,0.4999804515315424,0.5000017378000189,-0.0010013929317839,-7.096783930069307e-06,0.0038531012484988,9.05778516138116e-06,0.999992576711628,"(1e-05, 0.0, 0.0, 0.0, 0.0, 0.0, 0.0, 1e-05, 0.0, 0.0, 0.0, 0.0, 0.0, 0.0, 1000000000000.0, 0.0, 0.0, 0.0, 0.0, 0.0, 0.0, 1000000000000.0, 0.0, 0.0, 0.0, 0.0, 0.0, 0.0, 1000000000000.0, 0.0, 0.0, 0.0, 0.0, 0.0, 0.0, 0.001)",7.780414397418297e-08,6.48269113587266e-07,0.0,0.0,0.0,9.586256291192215e-06,"(0.0, 0.0, 0.0, 0.0, 0.0, 0.0, 0.0, 0.0, 0.0, 0.0, 0.0, 0.0, 0.0, 0.0, 0.0, 0.0, 0.0, 0.0, 0.0, 0.0, 0.0, 0.0, 0.0, 0.0, 0.0, 0.0, 0.0, 0.0, 0.0, 0.0, 0.0, 0.0, 0.0, 0.0, 0.0, 0.0)",,,,,,,81,2,852000000,base_footprint,-7.097724684611216e-06,0.0038531012471794,9.301828551508135e-06,0.999992576709386,0.0,0.0,0.0,0.0,0.0,0.0,0.0,0.0,0.0,3.890364619054321e-05,-0.0001804005663577,9.289587679709325e-06,0.0,0.0,0.0,0.0,0.0,0.0,0.0,0.0,0.0,-5.895899590564357e-11,3.4008437309813184e-10,-1.5810635274684092e-11,0.0,0.0,0.0,0.0,0.0,0.0,0.0,0.0,0.0
2.886,-3.30870641995773e-09,1.948917160987662e-08,3.0731711319669305e-07,-1.1912412437856948e-08,8.765303751092013e-06,-1.781406502438975e-09,3.927210830729193e-08,-3.9668333410412073e-10,-7.791193370436802e-15,2.9188461491136404e-07,82,2,830000000,odom,base_footprint,0.4999804483201732,0.50000175671591,-0.0010013929318211,-7.097358843486979e-06,0.0038531012476926,9.206922680081717e-06,0.999992576710265,"(1e-05, 0.0, 0.0, 0.0, 0.0, 0.0, 0.0, 1e-05, 0.0, 0.0, 0.0, 0.0, 0.0, 0.0, 1000000000000.0, 0.0, 0.0, 0.0, 0.0, 0.0, 0.0, 1000000000000.0, 0.0, 0.0, 0.0, 0.0, 0.0, 0.0, 1000000000000.0, 0.0, 0.0, 0.0, 0.0, 0.0, 0.0, 0.001)",7.780239631766662e-08,6.482803119570177e-07,0.0,0.0,0.0,9.586426775578874e-06,"(0.0, 0.0, 0.0, 0.0, 0.0, 0.0, 0.0, 0.0, 0.0, 0.0, 0.0, 0.0, 0.0, 0.0, 0.0, 0.0, 0.0, 0.0, 0.0, 0.0, 0.0, 0.0, 0.0, 0.0, 0.0, 0.0, 0.0, 0.0, 0.0, 0.0, 0.0, 0.0, 0.0, 0.0, 0.0, 0.0)",,,,,,,82,2,886000000,base_footprint,-7.098316978626712e-06,0.0038531012463485,9.455485968350144e-06,0.999992576707944,0.0,0.0,0.0,0.0,0.0,0.0,0.0,0.0,0.0,3.890378006539599e-05,-0.0001804005343114,9.289762848275007e-06,0.0,0.0,0.0,0.0,0.0,0.0,0.0,0.0,0.0,-5.899049274930587e-11,3.4026809303526804e-10,-1.5915810064047952e-11,0.0,0.0,0.0,0.0,0.0,0.0,0.0,0.0,0.0
2.92,-3.3087207973458987e-09,1.948921624084221e-08,3.0731783606093593e-07,-1.2331601925783049e-08,9.032218447643266e-06,-1.2588272910693714e-08,8.015456352890485e-06,-4.1064234404695175e-10,-8.187165955246338e-15,3.007728743065208e-07,84,2,897000000,odom,base_footprint,0.499980441800079,0.5000017951210307,-0.001001392931895,-7.098526017933856e-06,0.0038531012460552,9.509718083733133e-06,0.9999925767074294,"(1e-05, 0.0, 0.0, 0.0, 0.0, 0.0, 0.0, 1e-05, 0.0, 0.0, 0.0, 0.0, 0.0, 0.0, 1000000000000.0, 0.0, 0.0, 0.0, 0.0, 0.0, 0.0, 1000000000000.0, 0.0, 0.0, 0.0, 0.0, 0.0, 0.0, 1000000000000.0, 0.0, 0.0, 0.0, 0.0, 0.0, 0.0, 0.001)",7.779884616812249e-08,6.483030606208607e-07,0.0,0.0,0.0,9.586773106894623e-06,"(0.0, 0.0, 0.0, 0.0, 0.0, 0.0, 0.0, 0.0, 0.0, 0.0, 0.0, 0.0, 0.0, 0.0, 0.0, 0.0, 0.0, 0.0, 0.0, 0.0, 0.0, 0.0, 0.0, 0.0, 0.0, 0.0, 0.0, 0.0, 0.0, 0.0, 0.0, 0.0, 0.0, 0.0, 0.0, 0.0)",,,,,,,83,2,920000000,base_footprint,-7.098909249261562e-06,0.0038531012455173,9.609143746525914e-06,0.9999925767064782,0.0,0.0,0.0,0.0,0.0,0.0,0.0,0.0,0.0,3.890391390175189e-05,-0.00018040050223,9.289938268092997e-06,0.0,0.0,0.0,0.0,0.0,0.0,0.0,0.0,0.0,-5.906699736818604e-11,3.4075407495083155e-10,-1.6083694137412847e-11,0.0,0.0,0.0,0.0,0.0,0.0,0.0,0.0,0.0
2.954,-3.308735008200614e-09,1.94892607607855e-08,3.073185592434836e-07,-1.2021970686216288e-08,8.767764252364213e-06,9.29823542242525e-09,-7.941567425797388e-06,-4.0033162376905294e-10,-8.100402758841693e-15,2.919665496037283e-07,85,2,928000000,odom,base_footprint,0.4999804385886688,0.5000018140370492,-0.0010013929319306,-7.099100861429593e-06,0.0038531012452483,9.658856634453584e-06,0.9999925767059992,"(1e-05, 0.0, 0.0, 0.0, 0.0, 0.0, 0.0, 1e-05, 0.0, 0.0, 0.0, 0.0, 0.0, 0.0, 1000000000000.0, 0.0, 0.0, 0.0, 0.0, 0.0, 0.0, 1000000000000.0, 0.0, 0.0, 0.0, 0.0, 0.0, 0.0, 1000000000000.0, 0.0, 0.0, 0.0, 0.0, 0.0, 0.0, 0.001)",7.779709314722748e-08,6.483142944664296e-07,0.0,0.0,0.0,9.586944132731449e-06,"(0.0, 0.0, 0.0, 0.0, 0.0, 0.0, 0.0, 0.0, 0.0, 0.0, 0.0, 0.0, 0.0, 0.0, 0.0, 0.0, 0.0, 0.0, 0.0, 0.0, 0.0, 0.0, 0.0, 0.0, 0.0, 0.0, 0.0, 0.0, 0.0, 0.0, 0.0, 0.0, 0.0, 0.0, 0.0, 0.0)",,,,,,,83,2,920000000,base_footprint,-7.098909249261562e-06,0.0038531012455173,9.609143746525914e-06,0.9999925767064782,0.0,0.0,0.0,0.0,0.0,0.0,0.0,0.0,0.0,3.890391390175189e-05,-0.00018040050223,9.289938268092997e-06,0.0,0.0,0.0,0.0,0.0,0.0,0.0,0.0,0.0,-5.906699736818604e-11,3.4075407495083155e-10,-1.6083694137412847e-11,0.0,0.0,0.0,0.0,0.0,0.0,0.0,0.0,0.0
2.988,-3.3087494966110853e-09,1.9489305391751088e-08,3.073192836642443e-07,-1.207110303605319e-08,8.768888821270719e-06,-1.4754459410481218e-09,3.377083803320493e-08,-4.0196773101589735e-10,-8.250756559589615e-15,2.92003997748315e-07,86,2,963000000,odom,base_footprint,0.4999804353772451,0.5000018329531098,-0.0010013929319659,-7.099675684972321e-06,0.0038531012444413,9.807995525608988e-06,0.9999925767045464,"(1e-05, 0.0, 0.0, 0.0, 0.0, 0.0, 0.0, 1e-05, 0.0, 0.0, 0.0, 0.0, 0.0, 0.0, 1000000000000.0, 0.0, 0.0, 0.0, 0.0, 0.0, 0.0, 1000000000000.0, 0.0, 0.0, 0.0, 0.0, 0.0, 0.0, 1000000000000.0, 0.0, 0.0, 0.0, 0.0, 0.0, 0.0, 0.001)",7.779533943385198e-08,6.483255327361056e-07,0.0,0.0,0.0,9.587115226564064e-06,"(0.0, 0.0, 0.0, 0.0, 0.0, 0.0, 0.0, 0.0, 0.0, 0.0, 0.0, 0.0, 0.0, 0.0, 0.0, 0.0, 0.0, 0.0, 0.0, 0.0, 0.0, 0.0, 0.0, 0.0, 0.0, 0.0, 0.0, 0.0, 0.0, 0.0, 0.0, 0.0, 0.0, 0.0, 0.0, 0.0)",,,,,,,84,2,954000000,base_footprint,-7.099501498088196e-06,0.0038531012446859,9.762801886200644e-06,0.9999925767049888,0.0,0.0,0.0,0.0,0.0,0.0,0.0,0.0,0.0,3.890404756411756e-05,-0.0001804004701807,9.290113984455811e-06,0.0,0.0,0.0,0.0,0.0,0.0,0.0,0.0,0.0,-5.915248142107332e-11,3.4132236461536547e-10,-1.600734519383416e-11,0.0,0.0,0.0,0.0,0.0,0.0,0.0,0.0,0.0
3.022,-3.308763596443498e-09,1.9489349911694376e-08,3.073200046758194e-07,-1.2485257472531158e-08,9.035733285213369e-06,-1.2437070164503534e-08,8.013347265545044e-06,-4.1575907374515464e-10,-8.656893525627773e-15,3.008899183976052e-07,87,2,997000000,odom,base_footprint,0.4999804320684916,0.5000018524424283,-0.0010013929320017,-7.100267907765831e-06,0.0038531012436097,9.96165413347217e-06,0.9999925767030264,"(1e-05, 0.0, 0.0, 0.0, 0.0, 0.0, 0.0, 1e-05, 0.0, 0.0, 0.0, 0.0, 0.0, 0.0, 1000000000000.0, 0.0, 0.0, 0.0, 0.0, 0.0, 0.0, 1000000000000.0, 0.0, 0.0, 0.0, 0.0, 0.0, 0.0, 1000000000000.0, 0.0, 0.0, 0.0, 0.0, 0.0, 0.0, 0.001)",7.779353121630084e-08,6.483371202519463e-07,0.0,0.0,0.0,9.587291636872382e-06,"(0.0, 0.0, 0.0, 0.0, 0.0, 0.0, 0.0, 0.0, 0.0, 0.0, 0.0, 0.0, 0.0, 0.0, 0.0, 0.0, 0.0, 0.0, 0.0, 0.0, 0.0, 0.0, 0.0, 0.0, 0.0, 0.0, 0.0, 0.0, 0.0, 0.0, 0.0, 0.0, 0.0, 0.0, 0.0, 0.0)",,,,,,,86,3,22000000,base_footprint,-7.100685936117712e-06,0.0038531012430225,1.0070119250222058e-05,0.9999925767019392,0.0,0.0,0.0,0.0,0.0,0.0,0.0,0.0,0.0,3.890431486428542e-05,-0.0001804004061485,9.290465899332029e-06,0.0,0.0,0.0,0.0,0.0,0.0,0.0,0.0,0.0,-5.926745186771029e-11,3.4207939807388956e-10,-1.6064097077985813e-11,0.0,0.0,0.0,0.0,0.0,0.0,0.0,0.0,0.0
3.056,-3.3087780848539694e-09,1.9489394653682268e-08,3.0732073144279026e-07,-1.216225590709356e-08,8.771013590100026e-06,9.699746709837766e-09,-7.949540393794067e-06,-4.050031216158988e-10,-8.553361355841343e-15,2.920747525503309e-07,88,3,30000000,odom,base_footprint,0.4999804288570405,0.5000018713585743,-0.0010013929320361,-7.100842694457226e-06,0.0038531012428023,1.0110793715869966e-05,0.9999925767015287,"(1e-05, 0.0, 0.0, 0.0, 0.0, 0.0, 0.0, 1e-05, 0.0, 0.0, 0.0, 0.0, 0.0, 0.0, 1000000000000.0, 0.0, 0.0, 0.0, 0.0, 0.0, 0.0, 1000000000000.0, 0.0, 0.0, 0.0, 0.0, 0.0, 0.0, 1000000000000.0, 0.0, 0.0, 0.0, 0.0, 0.0, 0.0, 0.001)",7.779177290308127e-08,6.483483885184381e-07,0.0,0.0,0.0,9.587463186287527e-06,"(0.0, 0.0, 0.0, 0.0, 0.0, 0.0, 0.0, 0.0, 0.0, 0.0, 0.0, 0.0, 0.0, 0.0, 0.0, 0.0, 0.0, 0.0, 0.0, 0.0, 0.0, 0.0, 0.0, 0.0, 0.0, 0.0, 0.0, 0.0, 0.0, 0.0, 0.0, 0.0, 0.0, 0.0, 0.0, 0.0)",,,,,,,87,3,56000000,base_footprint,-7.101278127931132e-06,0.0038531012421905,1.0223778475751874e-05,0.9999925767003792,0.0,0.0,0.0,0.0,0.0,0.0,0.0,0.0,0.0,3.890444841958443e-05,-0.0001804003740599,9.290642044613044e-06,0.0,0.0,0.0,0.0,0.0,0.0,0.0,0.0,0.0,-5.928088836536686e-11,3.421510189614234e-10,-1.6069816547208202e-11,0.0,0.0,0.0,0.0,0.0,0.0,0.0,0.0,0.0
3.09,-3.308792406730987e-09,1.948943939567016e-08,3.073214549293854e-07,-1.2203320556272136e-08,8.77198872698818e-06,-1.2331726480052554e-09,2.9283390034678462e-08,-4.0637057443071273e-10,-8.700522911088141e-15,2.9210722460870644e-07,89,3,63000000,odom,base_footprint,0.4999804256455761,0.5000018902747622,-0.0010013929320701,-7.101417464721375e-06,0.0038531012419947,1.025993364030516e-05,0.9999925767000089,"(1e-05, 0.0, 0.0, 0.0, 0.0, 0.0, 0.0, 1e-05, 0.0, 0.0, 0.0, 0.0, 0.0, 0.0, 1000000000000.0, 0.0, 0.0, 0.0, 0.0, 0.0, 0.0, 1000000000000.0, 0.0, 0.0, 0.0, 0.0, 0.0, 0.0, 1000000000000.0, 0.0, 0.0, 0.0, 0.0, 0.0, 0.0, 0.001)",7.77900132616782e-08,6.48359666022919e-07,0.0,0.0,0.0,9.58763487627038e-06,"(0.0, 0.0, 0.0, 0.0, 0.0, 0.0, 0.0, 0.0, 0.0, 0.0, 0.0, 0.0, 0.0, 0.0, 0.0, 0.0, 0.0, 0.0, 0.0, 0.0, 0.0, 0.0, 0.0, 0.0, 0.0, 0.0, 0.0, 0.0, 0.0, 0.0, 0.0, 0.0, 0.0, 0.0, 0.0, 0.0)",,,,,,,87,3,56000000,base_footprint,-7.101278127931132e-06,0.0038531012421905,1.0223778475751874e-05,0.9999925767003792,0.0,0.0,0.0,0.0,0.0,0.0,0.0,0.0,0.0,3.890444841958443e-05,-0.0001804003740599,9.290642044613044e-06,0.0,0.0,0.0,0.0,0.0,0.0,0.0,0.0,0.0,-5.928088836536686e-11,3.421510189614234e-10,-1.6069816547208202e-11,0.0,0.0,0.0,0.0,0.0,0.0,0.0,0.0,0.0
3.124,-3.3088067286080047e-09,1.9489483693568843e-08,3.0732217731795487e-07,-1.2613652384847502e-08,9.038780765399531e-06,-1.2322277134395378e-08,8.011772925265776e-06,-4.2003462431646067e-10,-9.118060334292229e-15,3.009913994878044e-07,89,3,63000000,odom,base_footprint,0.4999804256455761,0.5000018902747622,-0.0010013929320701,-7.101417464721375e-06,0.0038531012419947,1.025993364030516e-05,0.9999925767000089,"(1e-05, 0.0, 0.0, 0.0, 0.0, 0.0, 0.0, 1e-05, 0.0, 0.0, 0.0, 0.0, 0.0, 0.0, 1000000000000.0, 0.0, 0.0, 0.0, 0.0, 0.0, 0.0, 1000000000000.0, 0.0, 0.0, 0.0, 0.0, 0.0, 0.0, 1000000000000.0, 0.0, 0.0, 0.0, 0.0, 0.0, 0.0, 0.001)",7.77900132616782e-08,6.48359666022919e-07,0.0,0.0,0.0,9.58763487627038e-06,"(0.0, 0.0, 0.0, 0.0, 0.0, 0.0, 0.0, 0.0, 0.0, 0.0, 0.0, 0.0, 0.0, 0.0, 0.0, 0.0, 0.0, 0.0, 0.0, 0.0, 0.0, 0.0, 0.0, 0.0, 0.0, 0.0, 0.0, 0.0, 0.0, 0.0, 0.0, 0.0, 0.0, 0.0, 0.0, 0.0)",,,,,,,88,3,90000000,base_footprint,-7.101870303196384e-06,0.0038531012413583,1.0377438062952927e-05,0.9999925766987954,0.0,0.0,0.0,0.0,0.0,0.0,0.0,0.0,0.0,3.890458192044071e-05,-0.0001804003419938,9.290818413014614e-06,0.0,0.0,0.0,0.0,0.0,0.0,0.0,0.0,0.0,-5.934563128916829e-11,3.425819594418351e-10,-1.608479604657123e-11,0.0,0.0,0.0,0.0,0.0,0.0,0.0,0.0,0.0
3.158,-3.308820994973871e-09,1.948952821351213e-08,3.073228968382811e-07,-1.2279816282942064e-08,8.773838226020584e-06,1.0025108165328455e-08,-7.956232413782201e-06,-4.0891788212296994e-10,-8.997793932058131e-15,2.9216881292648547e-07,91,3,130000000,odom,base_footprint,0.4999804191252883,0.5000019286804852,-0.0010013929321382,-7.102584376680707e-06,0.0038531012403547,1.0562733927312904e-05,0.999992576696854,"(1e-05, 0.0, 0.0, 0.0, 0.0, 0.0, 0.0, 1e-05, 0.0, 0.0, 0.0, 0.0, 0.0, 0.0, 1000000000000.0, 0.0, 0.0, 0.0, 0.0, 0.0, 0.0, 1000000000000.0, 0.0, 0.0, 0.0, 0.0, 0.0, 0.0, 1000000000000.0, 0.0, 0.0, 0.0, 0.0, 0.0, 0.0, 0.001)",7.77864389548306e-08,6.483825728501535e-07,0.0,0.0,0.0,9.5879836146538e-06,"(0.0, 0.0, 0.0, 0.0, 0.0, 0.0, 0.0, 0.0, 0.0, 0.0, 0.0, 0.0, 0.0, 0.0, 0.0, 0.0, 0.0, 0.0, 0.0, 0.0, 0.0, 0.0, 0.0, 0.0, 0.0, 0.0, 0.0, 0.0, 0.0, 0.0, 0.0, 0.0, 0.0, 0.0, 0.0, 0.0)",,,,,,,90,3,158000000,base_footprint,-7.103054608936568e-06,0.0038531012396935,1.0684758319306342e-05,0.999992576695557,0.0,0.0,0.0,0.0,0.0,0.0,0.0,0.0,0.0,3.890484871145555e-05,-0.0001804002778963,9.291171560420636e-06,0.0,0.0,0.0,0.0,0.0,0.0,0.0,0.0,0.0,-5.94359184234845e-11,3.4317264380111566e-10,-1.612351267602493e-11,0.0,0.0,0.0,0.0,0.0,0.0,0.0,0.0,0.0
3.192,-3.30883537236204e-09,1.948957284447772e-08,3.073236202079281e-07,-1.2314415593345779e-08,8.774690154658328e-06,-1.0390183304418888e-09,2.5583442574900862e-08,-4.1007003915648633e-10,-9.142865929769622e-15,2.9219718215012233e-07,92,3,163000000,odom,base_footprint,0.4999804159137829,0.5000019475968003,-0.0010013929321713,-7.103159103913197e-06,0.0038531012395466,1.0711874882129926e-05,0.9999925766952668,"(1e-05, 0.0, 0.0, 0.0, 0.0, 0.0, 0.0, 1e-05, 0.0, 0.0, 0.0, 0.0, 0.0, 0.0, 1000000000000.0, 0.0, 0.0, 0.0, 0.0, 0.0, 0.0, 1000000000000.0, 0.0, 0.0, 0.0, 0.0, 0.0, 0.0, 1000000000000.0, 0.0, 0.0, 0.0, 0.0, 0.0, 0.0, 0.001)",7.77846756102371e-08,6.483938744469988e-07,0.0,0.0,0.0,9.58815567205308e-06,"(0.0, 0.0, 0.0, 0.0, 0.0, 0.0, 0.0, 0.0, 0.0, 0.0, 0.0, 0.0, 0.0, 0.0, 0.0, 0.0, 0.0, 0.0, 0.0, 0.0, 0.0, 0.0, 0.0, 0.0, 0.0, 0.0, 0.0, 0.0, 0.0, 0.0, 0.0, 0.0, 0.0, 0.0, 0.0, 0.0)",,,,,,,91,3,192000000,base_footprint,-7.103646741433966e-06,0.0038531012388608,1.0838418988957018e-05,0.9999925766939024,0.0,0.0,0.0,0.0,0.0,0.0,0.0,0.0,0.0,3.890498210906132e-05,-0.0001804002457783,9.291348088527122e-06,0.0,0.0,0.0,0.0,0.0,0.0,0.0,0.0,0.0,-5.939602368693535e-11,3.4288800197829785e-10,-1.6227965747475466e-11,0.0,0.0,0.0,0.0,0.0,0.0,0.0,0.0,0.0
3.226,-3.3088495832167553e-09,1.9489617253398706e-08,3.073243438735454e-07,-1.2721815112870916e-08,9.041442997696007e-06,-1.2234219805559659e-08,8.01059588701737e-06,-4.2363644315047836e-10,-9.571110999385967e-15,3.0108005182327703e-07,93,3,197000000,odom,base_footprint,0.4999804126049451,0.5000019670863809,-0.0010013929322051,-7.103751234104368e-06,0.0038531012387139,1.0865535615195703e-05,0.999992576693608,"(1e-05, 0.0, 0.0, 0.0, 0.0, 0.0, 0.0, 1e-05, 0.0, 0.0, 0.0, 0.0, 0.0, 0.0, 1000000000000.0, 0.0, 0.0, 0.0, 0.0, 0.0, 0.0, 1000000000000.0, 0.0, 0.0, 0.0, 0.0, 0.0, 0.0, 1000000000000.0, 0.0, 0.0, 0.0, 0.0, 0.0, 0.0, 0.001)",7.778285808576058e-08,6.484055233137085e-07,0.0,0.0,0.0,9.588333015737006e-06,"(0.0, 0.0, 0.0, 0.0, 0.0, 0.0, 0.0, 0.0, 0.0, 0.0, 0.0, 0.0, 0.0, 0.0, 0.0, 0.0, 0.0, 0.0, 0.0, 0.0, 0.0, 0.0, 0.0, 0.0, 0.0, 0.0, 0.0, 0.0, 0.0, 0.0, 0.0, 0.0, 0.0, 0.0, 0.0, 0.0)",,,,,,,92,3,226000000,base_footprint,-7.104238861535172e-06,0.0038531012380279,1.0992080020384422e-05,0.999992576692224,0.0,0.0,0.0,0.0,0.0,0.0,0.0,0.0,0.0,3.890511540029166e-05,-0.0001804002137574,9.2915251875209e-06,0.0,0.0,0.0,0.0,0.0,0.0,0.0,0.0,0.0,-5.955954671639769e-11,3.4399190567063485e-10,-1.6054597770784614e-11,0.0,0.0,0.0,0.0,0.0,0.0,0.0,0.0,0.0
3.26,-3.3088640161160754e-09,1.9489661995386598e-08,3.0732506668814194e-07,-1.2379104628255307e-08,8.776311775914024e-06,1.0291606144612885e-08,-7.961898552011482e-06,-4.1222418401291243e-10,-9.435682164781478e-15,2.92251182137937e-07,94,3,230000000,odom,base_footprint,0.4999804093934122,0.5000019860027812,-0.0010013929322376,-7.10432593702863e-06,0.0038531012379054,1.101467726166444e-05,0.9999925766919754,"(1e-05, 0.0, 0.0, 0.0, 0.0, 0.0, 0.0, 1e-05, 0.0, 0.0, 0.0, 0.0, 0.0, 0.0, 1000000000000.0, 0.0, 0.0, 0.0, 0.0, 0.0, 0.0, 1000000000000.0, 0.0, 0.0, 0.0, 0.0, 0.0, 0.0, 1000000000000.0, 0.0, 0.0, 0.0, 0.0, 0.0, 0.0, 0.001)",7.77810905973812e-08,6.484168517225052e-07,0.0,0.0,0.0,9.58850548042769e-06,"(0.0, 0.0, 0.0, 0.0, 0.0, 0.0, 0.0, 0.0, 0.0, 0.0, 0.0, 0.0, 0.0, 0.0, 0.0, 0.0, 0.0, 0.0, 0.0, 0.0, 0.0, 0.0, 0.0, 0.0, 0.0, 0.0, 0.0, 0.0, 0.0, 0.0, 0.0, 0.0, 0.0, 0.0, 0.0, 0.0)",,,,,,,93,3,260000000,base_footprint,-7.1048309701638175e-06,0.003853101237195,1.1145741413166611e-05,0.999992576690522,0.0,0.0,0.0,0.0,0.0,0.0,0.0,0.0,0.0,3.8905248637269466e-05,-0.0001804001816512,9.291702006934256e-06,0.0,0.0,0.0,0.0,0.0,0.0,0.0,0.0,0.0,-5.948149350325008e-11,3.434466207373189e-10,-1.6223236865309936e-11,0.0,0.0,0.0,0.0,0.0,0.0,0.0,0.0,0.0
3.294,-3.308878282481942e-09,1.9489706404307583e-08,3.0732579153963926e-07,-1.2408469527156182e-08,8.777061284977446e-06,-8.81828795822096e-10,2.250777968234824e-08,-4.13202035143275e-10,-9.578741541805444e-15,2.92276140789749e-07,95,3,263000000,odom,base_footprint,0.499980406181866,0.5000020049192235,-0.0010013929322698,-7.10490062926476e-06,0.003853101237097,1.1163819247727086e-05,0.9999925766903204,"(1e-05, 0.0, 0.0, 0.0, 0.0, 0.0, 0.0, 1e-05, 0.0, 0.0, 0.0, 0.0, 0.0, 0.0, 1000000000000.0, 0.0, 0.0, 0.0, 0.0, 0.0, 0.0, 1000000000000.0, 0.0, 0.0, 0.0, 0.0, 0.0, 0.0, 1000000000000.0, 0.0, 0.0, 0.0, 0.0, 0.0, 0.0, 0.001)",7.77793260193936e-08,6.484281615042519e-07,0.0,0.0,0.0,9.588677662484306e-06,"(0.0, 0.0, 0.0, 0.0, 0.0, 0.0, 0.0, 0.0, 0.0, 0.0, 0.0, 0.0, 0.0, 0.0, 0.0, 0.0, 0.0, 0.0, 0.0, 0.0, 0.0, 0.0, 0.0, 0.0, 0.0, 0.0, 0.0, 0.0, 0.0, 0.0, 0.0, 0.0, 0.0, 0.0, 0.0, 0.0)",,,,,,,94,3,294000000,base_footprint,-7.105423068003968e-06,0.0038531012363618,1.129940316832465e-05,0.9999925766887968,0.0,0.0,0.0,0.0,0.0,0.0,0.0,0.0,0.0,3.8905381867172894e-05,-0.0001804001495551,9.291879347812378e-06,0.0,0.0,0.0,0.0,0.0,0.0,0.0,0.0,0.0,-5.963436193411905e-11,3.444587346095502e-10,-1.6173857349746453e-11,0.0,0.0,0.0,0.0,0.0,0.0,0.0,0.0,0.0
3.328,-3.308892715381262e-09,1.9489751035273173e-08,3.0732651364277555e-07,-1.2813608752627293e-08,9.043785104184736e-06,-1.2166343107240547e-08,8.00972430051921e-06,-4.266931713448847e-10,-1.0018185425310487e-14,3.0115804396935173e-07,95,3,263000000,odom,base_footprint,0.499980406181866,0.5000020049192235,-0.0010013929322698,-7.10490062926476e-06,0.003853101237097,1.1163819247727086e-05,0.9999925766903204,"(1e-05, 0.0, 0.0, 0.0, 0.0, 0.0, 0.0, 1e-05, 0.0, 0.0, 0.0, 0.0, 0.0, 0.0, 1000000000000.0, 0.0, 0.0, 0.0, 0.0, 0.0, 0.0, 1000000000000.0, 0.0, 0.0, 0.0, 0.0, 0.0, 0.0, 1000000000000.0, 0.0, 0.0, 0.0, 0.0, 0.0, 0.0, 0.001)",7.77793260193936e-08,6.484281615042519e-07,0.0,0.0,0.0,9.588677662484306e-06,"(0.0, 0.0, 0.0, 0.0, 0.0, 0.0, 0.0, 0.0, 0.0, 0.0, 0.0, 0.0, 0.0, 0.0, 0.0, 0.0, 0.0, 0.0, 0.0, 0.0, 0.0, 0.0, 0.0, 0.0, 0.0, 0.0, 0.0, 0.0, 0.0, 0.0, 0.0, 0.0, 0.0, 0.0, 0.0, 0.0)",,,,,,,95,3,328000000,base_footprint,-7.106015156078964e-06,0.0038531012355286,1.1453065284488316e-05,0.9999925766870476,0.0,0.0,0.0,0.0,0.0,0.0,0.0,0.0,0.0,3.890551502268555e-05,-0.0001804001174446,9.292056341150866e-06,0.0,0.0,0.0,0.0,0.0,0.0,0.0,0.0,0.0,-5.953298834351396e-11,3.4378075734721254e-10,-1.6198921326295067e-11,0.0,0.0,0.0,0.0,0.0,0.0,0.0,0.0,0.0
3.362,-3.3089070372582796e-09,1.9489795666238763e-08,3.073272374517143e-07,-1.2463561114104223e-08,8.778492479979797e-06,1.0511941096788891e-08,-7.966745471619787e-06,-4.1503658498236863e-10,-9.86749168588561e-15,2.9232379958332727e-07,97,3,330000000,odom,base_footprint,0.4999803996614122,0.5000020433254626,-0.0010013929323346,-7.106067398676609e-06,0.003853101235455,1.1466623723947807e-05,0.999992576686892,"(1e-05, 0.0, 0.0, 0.0, 0.0, 0.0, 0.0, 1e-05, 0.0, 0.0, 0.0, 0.0, 0.0, 0.0, 1000000000000.0, 0.0, 0.0, 0.0, 0.0, 0.0, 0.0, 1000000000000.0, 0.0, 0.0, 0.0, 0.0, 0.0, 0.0, 1000000000000.0, 0.0, 0.0, 0.0, 0.0, 0.0, 0.0, 0.001)",7.777573610186974e-08,6.484511714395276e-07,0.0,0.0,0.0,9.589027968653592e-06,"(0.0, 0.0, 0.0, 0.0, 0.0, 0.0, 0.0, 0.0, 0.0, 0.0, 0.0, 0.0, 0.0, 0.0, 0.0, 0.0, 0.0, 0.0, 0.0, 0.0, 0.0, 0.0, 0.0, 0.0, 0.0, 0.0, 0.0, 0.0, 0.0, 0.0, 0.0, 0.0, 0.0, 0.0, 0.0, 0.0)",,,,,,,96,3,362000000,base_footprint,-7.106607234996912e-06,0.0038531012346951,1.160672776251284e-05,0.9999925766852747,0.0,0.0,0.0,0.0,0.0,0.0,0.0,0.0,0.0,3.890564822541693e-05,-0.0001804000853509,9.292233626729452e-06,0.0,0.0,0.0,0.0,0.0,0.0,0.0,0.0,0.0,-5.961942091681452e-11,3.4435001246136437e-10,-1.6271975196802862e-11,0.0,0.0,0.0,0.0,0.0,0.0,0.0,0.0,0.0
3.396,-3.308921248112995e-09,1.9489840075159748e-08,3.073279590624262e-07,-1.2488660236084212e-08,8.77915600126976e-06,-7.537273867864625e-10,1.9925564263155044e-08,-4.158723857411532e-10,-1.0009171693105812e-14,2.9234589484228303e-07,98,3,363000000,odom,base_footprint,0.499980396449825,0.5000020622420323,-0.0010013929323662,-7.106642062898167e-06,0.0038531012346461,1.1615766742993324e-05,0.99999257668517,"(1e-05, 0.0, 0.0, 0.0, 0.0, 0.0, 0.0, 1e-05, 0.0, 0.0, 0.0, 0.0, 0.0, 0.0, 1000000000000.0, 0.0, 0.0, 0.0, 0.0, 0.0, 0.0, 1000000000000.0, 0.0, 0.0, 0.0, 0.0, 0.0, 0.0, 1000000000000.0, 0.0, 0.0, 0.0, 0.0, 0.0, 0.0, 0.001)",7.777396819628249e-08,6.484625022497618e-07,0.0,0.0,0.0,9.589200471796663e-06,"(0.0, 0.0, 0.0, 0.0, 0.0, 0.0, 0.0, 0.0, 0.0, 0.0, 0.0, 0.0, 0.0, 0.0, 0.0, 0.0, 0.0, 0.0, 0.0, 0.0, 0.0, 0.0, 0.0, 0.0, 0.0, 0.0, 0.0, 0.0, 0.0, 0.0, 0.0, 0.0, 0.0, 0.0, 0.0, 0.0)",,,,,,,97,3,396000000,base_footprint,-7.107199305351877e-06,0.0038531012338615,1.1760390601301416e-05,0.9999925766834784,0.0,0.0,0.0,0.0,0.0,0.0,0.0,0.0,0.0,3.890578136467668e-05,-0.0001804000532831,9.292410910974246e-06,0.0,0.0,0.0,0.0,0.0,0.0,0.0,0.0,0.0,-5.961784361678862e-11,3.443450074133774e-10,-1.620595005170304e-11,0.0,0.0,0.0,0.0,0.0,0.0,0.0,0.0,0.0
