Time,linear_velocity_x,angular_velocity_yaw,linear_acceleration_x,angular_acceleration_yaw,kinematic_delta_x,kinematic_delta_y,kinematic_delta_yaw
0.101,-1.719066605822085e-06,3.1609339870289078e-06,8.661157617473568e-06,7.82394050078456e-05,-5.724491797387532e-08,-3.018961064166068e-15,1.0525910176806264e-07
0.134,-6.015785589794773e-06,6.944124572658213e-06,-0.0001290306001192999,0.00011360932689577492,-2.003256601401606e-07,-4.424283086274168e-14,2.3123934826951851e-07
0.168,-4.555180749356103e-06,4.020671740490534e-06,4.386200722038047e-05,-8.779137634137175e-05,-1.5168751895354578e-07,-6.125565498643003e-14,1.3388836895833477e-07
0.2,-4.0718697231607435e-06,8.63415594276306e-06,1.4513844630491282e-05,0.00013854306913731312,-1.3559326178122678e-07,-8.324944377115208e-14,2.8751739289400996e-07
0.23500000000000001,9.32986445202334e-06,-8.276266872831894e-05,0.0004024544797352577,-0.0027446493895219816,3.1068448625221925e-07,-1.9265236602339343e-13,-2.755996868653021e-06
0.268,1.1023749613368268e-05,-1.1178698141830708e-05,5.0867422262610436e-05,0.002149668786381028,3.670908621242853e-07,-8.018565419589328e-13,-3.7225064812296264e-07
0.30000000000000004,3.270241046128665e-07,2.9723678773551897e-06,-0.00032122298825091293,0.00042495693751308993,1.0889902683579099e-08,-2.5260268951723887e-14,9.897985031592782e-08
0.335,-6.872089428042157e-08,7.344636686622562e-06,-1.1884234200999641e-05,0.00013129936364166282,-2.2884057795327474e-09,4.919720251509902e-15,2.4457640166453134e-07
0.36700000000000005,-6.027458556292078e-08,7.790783877885536e-06,2.5364290442945315e-07,1.3397813551440676e-05,-2.0071436992416467e-09,3.8076852107825416e-15,2.594331031335884e-07
0.4,-4.963198352803622e-08,7.969990940988487e-06,3.1959765870524197e-07,5.381593486575096e-06,-1.6527450514813936e-09,2.701204380100569e-15,2.6540069833491664e-07
0.43500000000000005,-4.1776302057345474e-08,8.302143061111076e-06,2.3590635047119352e-07,9.974538141819499e-06,-1.391150858508306e-09,1.8972199954308448e-15,2.7646136393499885e-07
0.468,-3.272336095787947e-08,8.114188393765558e-06,2.718600930770572e-07,-5.644284304670235e-06,-1.0896879198967346e-09,1.188294164483236e-15,2.702024735123931e-07
0.5,-2.5852301600760764e-08,8.15046529366802e-06,2.063381188323935e-07,1.089396393467355e-06,-8.608816433050418e-10,7.057075413845259e-16,2.714104942791451e-07
0.532,-1.99884730189028e-08,8.419199150657166e-06,1.7609094840414304e-07,8.070085795469827e-06,-6.656161515293629e-10,3.6190084966831635e-16,2.8035933171688365e-07
0.5650000000000001,-1.3197030055343765e-08,8.178460301881531e-06,2.0394723614291394e-07,-7.229394858127159e-06,-4.3946110084293033e-10,1.1734272937151846e-16,2.72342728052655e-07
0.6010000000000001,-7.0798857067254436e-09,8.171644652735348e-06,1.8369802848703667e-07,-2.0467414853403853e-07,-2.3576019403395656e-10,-1.1542722363518373e-18,2.721157669360871e-07
0.634,-6.244405593195368e-10,8.397432862185871e-06,1.93857211633811e-07,6.780426710225933e-06,-2.079387062533969e-11,-5.828536152390819e-18,2.7963451431078956e-07
0.668,6.411003259796797e-09,8.113584141381694e-06,2.1127458916265262e-07,-8.523985609735062e-06,2.1348640855119974e-10,1.186919540482385e-16,2.7018235190801043e-07
0.7010000000000001,1.4181087535489864e-08,8.059408372905762e-06,2.3333586413492692e-07,-1.6268999542321972e-06,4.722302149316506e-10,3.895307610719289e-16,2.683782988177619e-07
0.7350000000000001,2.4056735182487984e-08,8.224344491222455e-06,2.9656599540534893e-07,4.953036586086894e-06,8.01089281576366e-10,8.781168510623181e-16,2.738706715577078e-07
0.768,3.43219033174231e-08,7.87799641737801e-06,3.082633073554089e-07,-1.0400843058391766e-05,1.1429193804691222e-09,1.559411912688481e-15,2.6233728069868776e-07
0.801,4.7588220891430655e-08,7.740314809021523e-06,3.983879151353619e-07,-4.134582833528116e-06,1.5846877556825457e-09,2.5733118767126064e-15,2.577524831404167e-07
0.8350000000000001,6.642344708297088e-08,7.783319043329238e-06,5.656224081543611e-07,1.291418447679115e-06,2.211900787859004e-09,4.164143489822398e-15,2.591845241428636e-07
0.8670000000000001,8.595048916837177e-08,7.308052665524757e-06,5.863976602222487e-07,-1.4272263597732143e-05,2.862151289300261e-09,6.108254611895875e-15,2.4335815376197443e-07
0.9,1.130741331198451e-07,6.988371996201153e-06,8.145238423865863e-07,-9.60002009980794e-06,3.765368632880242e-09,8.92978998626351e-15,2.327127874734984e-07
0.935,1.5274966436863193e-07,6.765072195128943e-06,1.1914573948584634e-06,-6.705699731898199e-06,5.086563823458217e-09,1.323334761759598e-14,2.2527690409779383e-07
0.9680000000000001,1.923627382708135e-07,6.030444171050523e-06,1.1895817988643112e-06,-2.2060901623976565e-05,6.405679184392726e-09,1.8026012237360126e-14,2.0081379089598245e-07
1.0,2.4474683137011476e-07,5.389499487836765e-06,1.5730958888679057e-06,-1.9247588084497228e-05,8.150069484588038e-09,2.448260077265635e-14,1.794703329449643e-07
1.034,3.142872318751772e-07,4.789330266208793e-06,2.0883003154673406e-06,-1.8023099748587753e-05,1.046576482139067e-08,3.3214810071750436e-14,1.5948469786475284e-07
1.068,-3.823605373421955e-06,5.6268040038643046e-05,-0.00012426103919811206,0.0015459072003734008,-1.2732605893381469e-07,-5.33528490996244e-13,1.8737257332868136e-06
1.101,2.5078249863139385e-07,5.348431725032714e-06,0.00012235399015175221,-0.0015291173667750849,8.351057204311788e-09,4.3556278662955626e-14,1.781027764435894e-07
1.135,2.0393128895278264e-07,6.200882131592246e-06,-1.406943233591928e-06,2.559911130809405e-05,6.790911922028342e-09,3.673149446770741e-14,2.064893749820218e-07
1.167,1.541210291321175e-07,6.574784393597033e-06,-1.495803598218172e-06,1.1228296156299893e-05,5.132230270018404e-09,2.885130678480036e-14,2.189403203067812e-07
1.2,1.198570880983179e-07,7.010857356121519e-06,-1.02894717819218e-06,1.3095284159894477e-05,3.991241033605759e-09,2.333816337444933e-14,2.334615499588466e-07
1.235,9.569855958730883e-08,7.578145521013233e-06,-7.254813366669393e-07,1.7035680627378804e-05,3.1867620341982754e-09,1.9408094987781584e-14,2.523522458497407e-07
1.268,7.215772552044383e-08,7.620987995326187e-06,-7.069319539599098e-07,1.2865607901787879e-06,2.4028522597824304e-09,1.5242274895779797e-14,2.5377890024436204e-07
1.3,5.646367917766615e-08,7.823200267278131e-06,-4.7129268296629664e-07,6.07244059915749e-06,1.8802405165753146e-09,1.2410529042075801e-14,2.6051256890036176e-07
1.335,4.547295885182944e-08,8.22486814141471e-06,-3.300516614365377e-07,1.2062098322419763e-05,1.5142495297302074e-09,1.039918195098349e-14,2.7388810910910986e-07
1.367,3.4508164574089576e-08,8.108536662930452e-06,-3.292731014336296e-07,-3.493437792320039e-06,1.1491218802878907e-09,8.204259390882335e-15,2.700142708755841e-07
1.401,2.7023678310105513e-08,8.206872244349945e-06,-2.2475934726678867e-07,2.9530204630478325e-06,8.998884877017962e-10,6.669192874717595e-15,2.732888457368532e-07
1.435,2.1593671275502418e-08,8.538319293335881e-06,-1.6306327431240523e-07,9.953364834412507e-06,7.19069253452964e-10,5.5296578219603915e-15,2.8432603246808487e-07
1.468,1.6064560292627424e-08,8.352559335869671e-06,-1.6603936885510491e-07,-5.57837710108738e-06,5.349498577274958e-10,4.264413551911518e-15,2.781402258844601e-07
1.5,1.2134099931045242e-08,8.405538179404052e-06,-1.1803184269015562e-07,1.590956262293698e-06,4.0406552769005443e-10,3.3336162688405616e-15,2.7990442137415495e-07
1.534,9.116236814480802e-09,8.706327921866814e-06,-9.062652001695012e-08,9.032724998881768e-06,3.035706859111509e-10,2.5910833983901164e-15,2.89920719798165e-07
1.568,6.117280335935825e-09,8.487803822650548e-06,-9.005875310945878e-08,-6.562285261749732e-06,2.0370543517873713e-10,1.7969846088619212e-15,2.8264386729426326e-07
1.601,3.862785766926122e-09,8.5191289303235e-06,-6.770253960990098e-08,9.406939241126772e-07,1.2863076603330779e-10,1.1711667072012068e-15,2.836869933797726e-07
1.634,1.987619238366381e-09,8.805270000120978e-06,-5.6311307163956186e-08,8.592824918843171e-06,6.618772063468053e-11,6.217166485686552e-16,2.932154910040286e-07
1.6680000000000001,2.837034311179802e-10,8.56966932101484e-06,-5.1168642860312324e-08,-7.075095468652787e-06,9.447324255785854e-12,9.147464906807167e-17,2.853699883897942e-07
1.7000000000000002,-1.1048648282560756e-09,8.589628237916432e-06,-4.1698746527749423e-08,5.993668739216656e-07,-3.6791998779099324e-11,-3.6675314971100654e-16,2.860346203226172e-07
1.735,-2.3904568014732863e-09,8.868132943200204e-06,-3.8606365562078394e-08,8.363504663176352e-06,-7.960221148487127e-11,-8.165801327666384e-16,2.9530882700856683e-07
1.767,-3.373891116437105e-09,8.622820420652507e-06,-2.9532562010925487e-08,-7.366742418849757e-06,-1.1235057417110298e-10,-1.1853531056459265e-15,2.8713992000772853e-07
1.8,-4.278706718259691e-09,8.636308745223886e-06,-2.7171639694371942e-08,4.050547919332825e-07,-1.4248093370967994e-10,-1.5441284141020919e-15,2.8758908121595544e-07
1.832,-5.237507084688832e-09,8.910531076752756e-06,-2.8792803796670898e-08,8.234904850716818e-06,-1.7440898590933518e-10,-1.9410227984950846e-15,2.967206848558668e-07
1.867,-5.7917737872937346e-09,8.659285551867385e-06,-1.6644645723870953e-08,-7.5449106572183265e-06,-1.9286606710429991e-10,-2.2029943894997134e-15,2.8835420887718396e-07
1.9,-6.408515440036787e-09,8.668836636515286e-06,-1.8520770352644225e-08,2.868193587958098e-07,-2.1340356413859176e-10,-2.4990783963990798e-15,2.8867225999595907e-07
1.935,-7.17526826742984e-09,8.940511076216748e-06,-2.3025610432223815e-08,8.158391582626495e-06,-2.3893643328819806e-10,-2.868094866399623e-15,2.9771901883801774e-07
1.968,-7.459324649456274e-09,8.685424234177043e-06,-8.530221682475471e-09,-7.660265526717876e-06,-2.4839551080811063e-10,-3.0547139210586505e-15,2.8922462699809555e-07
2.0,-7.895346198649333e-09,8.692446378304522e-06,-1.3093740216007796e-08,2.108751990234014e-07,-2.6291502839419655e-10,-3.309114510533618e-15,2.894584643975406e-07
2.035,-8.543722726292222e-09,8.962530377013826e-06,-1.947076659588253e-08,8.110630591870979e-06,-2.8450596676192976e-10,-3.664620944365373e-15,2.9845226155456044e-07
2.068,-8.649764228197956e-09,8.704835670099204e-06,-3.184429486658685e-09,-7.738579787225889e-06,-2.880371487739922e-10,-3.794894792275286e-15,2.898710278143035e-07
2.1,-8.967449085597404e-09,8.710159320528602e-06,-9.540085807791223e-09,1.5986938226420604e-07,-2.986160545233233e-10,-4.0209085429995335e-15,2.900483053736025e-07
2.134,-9.539932367598394e-09,8.979210860834849e-06,-1.7191690150179884e-08,8.07962583502243e-06,-3.1767974781095456e-10,-4.370950548305392e-15,2.990077216658005e-07
2.167,-9.524228252913061e-09,8.719675214607324e-06,4.715950355955773e-10,-7.793863250075814e-06,-3.171568007906818e-10,-4.4572599047225065e-15,2.903651846464239e-07
2.2,-9.761594335659968e-09,8.723815324283854e-06,-7.128110593000199e-09,1.2432761791380388e-07,-3.250610913440334e-10,-4.662827742664983e-15,2.9050305029865234e-07
2.235,-1.0283801478046376e-08,8.992175073121144e-06,-1.5681896167760008e-08,8.058851316435144e-06,-3.4245058918224845e-10,-5.01338783230621e-15,2.9943942993493414e-07
2.268,-1.0182174943039613e-08,8.731296711665266e-06,3.0518478981009965e-09,-7.834185028705053e-06,-3.390664255654064e-10,-5.063605388700484e-15,2.9075218049845337e-07
2.3,-1.0363369021794644e-08,8.734585811388596e-06,-5.441263626277219e-09,9.87717634633798e-08,-3.451001883857618e-10,-5.254254901567028e-15,2.908617075192403e-07
2.331,-1.0851341246984354e-08,9.002469709135708e-06,-1.4653820576267552e-08,8.04456149390726e-06,-3.6134966348105207e-10,-5.6084038705211194e-15,2.9978224131421913e-07
2.367,-1.06874267994087e-08,8.74058488199822e-06,4.922355783052655e-09,-7.864409223347985e-06,-3.558913123757938e-10,-5.628777530188712e-15,2.9106147657054077e-07
2.4,-1.0828308340074636e-08,8.743245606991966e-06,-4.230676896874945e-09,7.990165146384602e-08,-3.605826676777104e-10,-5.807939382146677e-15,2.911500787128325e-07
2.435,-1.1292433054704756e-08,9.010795015545895e-06,-1.3937679118021628e-08,8.034516773391264e-06,-3.7603802067108015e-10,-6.16796885813638e-15,3.0005947401767837e-07
2.467,-1.1082321646961271e-08,8.748137855260061e-06,6.309651884188734e-09,-7.887602410986015e-06,-3.690413107923569e-10,-6.162375786743521e-15,2.9131299058016005e-07
2.5,-1.119362924673173e-08,8.750324362991733e-06,-3.342570563677416e-09,6.566089284300815e-08,-3.7274785386237244e-10,-6.332923004542094e-15,2.9138580128762473e-07
2.534,-1.1640786792957561e-08,9.017634550490283e-06,-1.3428154541316266e-08,8.027332957914408e-06,-3.8763820014757276e-10,-6.700534030212569e-15,3.0028723053132646e-07
2.568,-1.1395736326552412e-08,8.75437226314494e-06,7.358872865019491e-09,-7.905774394755062e-06,-3.794780196155397e-10,-6.671760557008942e-15,2.915205963627265e-07
2.6,-1.1484907919584903e-08,8.756193646029295e-06,-2.6778256165913127e-09,5.4696182713372955e-08,-3.8244743366108943e-10,-6.835569874647831e-15,2.9158124841277556e-07
2.634,-1.1919805042903586e-08,9.02333008112399e-06,-1.305997367323374e-08,8.02211516800887e-06,-3.969295078631739e-10,-7.211726409129927e-15,3.004768917014289e-07
2.667,-1.1647849771791344e-08,8.759585935481682e-06,8.166824958325589e-09,-7.920244613883139e-06,-3.878733973345241e-10,-7.162233055088077e-15,2.9169421165154004e-07
2.7,-1.1720179621605226e-08,8.761121178385417e-06,-2.17206756197843e-09,4.61033905025676e-08,-3.9028198133079976e-10,-7.320400082819292e-15,2.9174533524023445e-07
2.734,-1.2146068575334909e-08,9.028130191383172e-06,-1.2789458069960451e-08,8.018288678611262e-06,-4.044640834852373e-10,-7.706325426391832e-15,3.0063673537305966e-07
2.768,-1.185309160132573e-08,8.76399598988538e-06,8.798107327602956e-09,-7.931958002936707e-06,-3.947079502502572e-10,-7.637332041420505e-15,2.918410664631832e-07
2.8,-1.1912412437856948e-08,8.765303751092013e-06,-1.781406502438975e-09,3.927210830729193e-08,-3.9668333410412073e-10,-7.791193370436802e-15,2.9188461491136404e-07
2.834,-1.2331601925783049e-08,9.032218447643266e-06,-1.2588272910693714e-08,8.015456352890485e-06,-4.1064234404695175e-10,-8.187165955246338e-15,3.007728743065208e-07
2.8680000000000003,-1.2021970686216288e-08,8.767764252364213e-06,9.29823542242525e-09,-7.941567425797388e-06,-4.0033162376905294e-10,-8.100402758841693e-15,2.919665496037283e-07
2.901,-1.207110303605319e-08,8.768888821270719e-06,-1.4754459410481218e-09,3.377083803320493e-08,-4.0196773101589735e-10,-8.250756559589615e-15,2.92003997748315e-07
2.935,-1.2485257472531158e-08,9.035733285213369e-06,-1.2437070164503534e-08,8.013347265545044e-06,-4.1575907374515464e-10,-8.656893525627773e-15,3.008899183976052e-07
2.968,-1.216225590709356e-08,8.771013590100026e-06,9.699746709837766e-09,-7.949540393794067e-06,-4.050031216158988e-10,-8.553361355841343e-15,2.920747525503309e-07
3.0,-1.2203320556272136e-08,8.77198872698818e-06,-1.2331726480052554e-09,2.9283390034678462e-08,-4.0637057443071273e-10,-8.700522911088141e-15,2.9210722460870644e-07
3.034,-1.2613652384847502e-08,9.038780765399531e-06,-1.2322277134395378e-08,8.011772925265776e-06,-4.2003462431646067e-10,-9.118060334292229e-15,3.009913994878044e-07
3.065,-1.2279816282942064e-08,8.773838226020584e-06,1.0025108165328455e-08,-7.956232413782201e-06,-4.0891788212296994e-10,-8.997793932058131e-15,2.9216881292648547e-07
3.1,-1.2314415593345779e-08,8.774690154658328e-06,-1.0390183304418888e-09,2.5583442574900862e-08,-4.1007003915648633e-10,-9.142865929769622e-15,2.9219718215012233e-07
3.134,-1.2721815112870916e-08,9.041442997696007e-06,-1.2234219805559659e-08,8.01059588701737e-06,-4.2363644315047836e-10,-9.571110999385967e-15,3.0108005182327703e-07
3.168,-1.2379104628255307e-08,8.776311775914024e-06,1.0291606144612885e-08,-7.961898552011482e-06,-4.1222418401291243e-10,-9.435682164781478e-15,2.92251182137937e-07
3.2,-1.2408469527156182e-08,8.777061284977446e-06,-8.81828795822096e-10,2.250777968234824e-08,-4.13202035143275e-10,-9.578741541805444e-15,2.92276140789749e-07
3.235,-1.2813608752627293e-08,9.043785104184736e-06,-1.2166343107240547e-08,8.00972430051921e-06,-4.266931713448847e-10,-1.0018185425310487e-14,3.0115804396935173e-07
3.268,-1.2463561114104223e-08,8.778492479979797e-06,1.0511941096788891e-08,-7.966745471619787e-06,-4.1503658498236863e-10,-9.86749168588561e-15,2.9232379958332727e-07
3.301,-1.2488660236084212e-08,8.77915600126976e-06,-7.537273867864625e-10,1.9925564263155044e-08,-4.158723857411532e-10,-1.0009171693105812e-14,2.9234589484228303e-07
3.335,-1.2892042628637938e-08,9.04585827814957e-06,-1.211358536197377e-08,8.00907738377806e-06,-4.29305019406225e-10,-1.0459475887678995e-14,3.012270806623807e-07
3.368,-1.253588568286059e-08,8.780426575006073e-06,1.069540377709755e-08,-7.970922016321233e-06,-4.174449931123153e-10,-1.0294740868467677e-14,2.9238820494770227e-07
3.401,-1.2557457936353628e-08,8.78101740469355e-06,-6.478154202113635e-10,1.774263325755655e-08,-4.181633491503837e-10,-1.0434808973712636e-14,2.924078795762952e-07
3.435,-1.2959480015643924e-08,9.047703942911735e-06,-1.207273511382269e-08,8.008604751296875e-06,-4.3155068438336904e-10,-1.0896720047526724e-14,3.0128854129896083e-07
3.467,-1.2598184597636276e-08,8.782151787571471e-06,1.0849712252481924e-08,-7.974539199407325e-06,-4.195195469643818e-10,-1.071750271653073e-14,2.9244565452613003e-07
3.501,-1.2616847866764613e-08,8.782680597800311e-06,-5.60458532382512e-10,1.5880187052248163e-08,-4.2014103382299904e-10,-1.085617904914229e-14,2.924632639067504e-07
3.535,-1.3017791729459822e-08,9.049356012784031e-06,-1.204035623709334e-08,8.008270720231826e-06,-4.3349246444294477e-10,-1.133040792835188e-14,3.0134355522570824e-07
3.567,-1.265215571950224e-08,8.78369853878707e-06,1.0980060359086533e-08,-7.977701921830667e-06,-4.2131678531222857e-10,-1.113668917248316e-14,2.924971613416094e-07
3.6,-1.266837781824162e-08,8.784174312861862e-06,-4.871501122936835e-10,1.4287509753513152e-08,-4.218569811967836e-10,-1.1274452864724338e-14,2.925130046183e-07
3.635,-1.306848551296513e-08,9.050842114316154e-06,-1.2015246087793113e-08,8.008042085714488e-06,-4.3518056742284983e-10,-1.1759959450236044e-14,3.0139304240672796e-07
3.668,-1.2699165522959602e-08,8.785092106230694e-06,1.1090690390556405e-08,-7.980480723287076e-06,-4.228822117567362e-10,-1.1553117824695392e-14,2.9254356713748215e-07
3.701,-1.2713333729107443e-08,8.785522017592459e-06,-4.254716560913285e-10,1.2910251104029362e-08,-4.2335401301787863e-10,-1.1689790656721848e-14,2.925578831858289e-07
3.7350000000000003,-1.3112770729099968e-08,9.052185066091965e-06,-1.1995105104880632e-08,8.007899354339532e-06,-4.366552651089611e-10,-1.2186932682393655e-14,3.0143776270086244e-07
3.768,-1.274029310478026e-08,8.786353152053011e-06,1.11855142438351e-08,-7.982940361530142e-06,-4.2425176022041157e-10,-1.1966698251522519e-14,2.925855599633653e-07
3.8,-1.2752725602254215e-08,8.78674323541402e-06,-3.733482724911447e-10,1.1714215045302332e-08,-4.2466576238260636e-10,-1.2102561245622218e-14,2.925985497392869e-07
3.835,-1.3151645058281098e-08,9.053403445343307e-06,-1.197956324405055e-08,8.007814111990598e-06,-4.3794978025918265e-10,-1.2611229208435128e-14,3.0147833472993214e-07
3.8680000000000003,-1.27764380056664e-08,8.78749897172839e-06,1.126747905749846e-08,-7.98511932777526e-06,-4.2545538540863163e-10,-1.2377772678839728e-14,2.9262371575855544e-07
3.901,-1.2787409849720318e-08,8.787854414630727e-06,-3.294848064239959e-10,1.0673961031127421e-08,-4.2582074781183355e-10,-1.2513264757801673e-14,2.9263555200720324e-07
3.934,-1.3185911661849757e-08,9.054513573848943e-06,-1.1967021385268412e-08,8.007782559105588e-06,-4.3909085814615966e-10,-1.3033478840797856e-14,3.0151530200916984e-07
3.967,-1.2808347935820083e-08,8.788544225701855e-06,1.1338250030921117e-08,-7.987067511924563e-06,-4.2651798607113387e-10,-1.2786962603275765e-14,2.926585227158718e-07
4.0,-1.281805320544108e-08,8.788869291501959e-06,-2.9144953816805915e-10,9.761735738844018e-09,-4.268411715455987e-10,-1.2921666023587985e-14,2.9266934740701527e-07
4.035,-1.3216237273741274e-08,9.05552879178869e-06,-1.1957479528534366e-08,8.007792801403314e-06,-4.401007010099474e-10,-1.3453623786280899e-14,3.015491087665634e-07
4.067,-1.2836623615915718e-08,8.789501142929995e-06,1.1399809544310998e-08,-7.988818284044865e-06,-4.274595662063573e-10,-1.3194344276727515e-14,2.9269038805956885e-07
4.101,-1.284525022885322e-08,8.789799423849479e-06,-2.5905744557063636e-10,8.957384969471805e-09,-4.2774683241315245e-10,-1.3328503841842332e-14,2.9270032081418767e-07
4.134,-1.3243175525170594e-08,9.05646042043679e-06,-1.194970859811935e-08,8.007837735354695e-06,-4.409977447699995e-10,-1.3872213802140097e-14,3.0158013200054515e-07
4.168,-1.2861779069211691e-08,8.790380461569917e-06,1.1453347025792891e-08,-7.990389155161358e-06,-4.2829724278881314e-10,-1.360013430435425e-14,2.9271966937027824e-07
4.201,-1.2869465213225235e-08,8.790655071234255e-06,-2.308151355418679e-10,8.246536466620247e-09,-4.285531913803498e-10,-1.373363942199856e-14,2.927288138721007e-07
4.234,-1.3267198630997526e-08,9.057318114232657e-06,-1.1943946479648361e-08,8.007899189141196e-06,-4.4179771418112673e-10,-1.4289454120298766e-14,3.016086932039475e-07
4.268,-1.2884230179251827e-08,8.79119073584002e-06,1.1500554106477428e-08,-7.991813164944077e-06,-4.2904486474052963e-10,-1.4004342165348787e-14,2.927466515034727e-07
4.301,-1.2891109201128479e-08,8.791444386294015e-06,-2.0657723353308107e-10,7.617130750609142e-09,-4.2927393616476916e-10,-1.4137580856873812e-14,2.927550980635907e-07
4.335,-1.3288684627156243e-08,9.058110262361613e-06,-1.1939201982815735e-08,8.007984266294236e-06,-4.4251319783997235e-10,-1.470533877888987e-14,3.0163507173664174e-07
4.368,-1.2904338258624295e-08,8.791939991852525e-06,1.1541932988947398e-08,-7.993101216489128e-06,-4.2971446377066247e-10,-1.4407452766475036e-14,2.927716017286891e-07
4.401,-1.2910506977806693e-08,8.792174839529449e-06,-1.8524682229425936e-10,7.052482790525157e-09,-4.299198821150685e-10,-1.4540137227198265e-14,2.927794221563307e-07
4.4350000000000005,-1.3307966220508661e-08,9.058844148286449e-06,-1.193571299405308e-08,8.00808735006005e-06,-4.4315527488500974e-10,-1.5119528069804272e-14,3.0165951013793877e-07
4.468,-1.2922397726445953e-08,8.792634605388551e-06,1.1578633455336586e-08,-7.994280567504427e-06,-4.3031584403582206e-10,-1.4809593913046863e-14,2.927947323594388e-07
4.5,-1.2927953402485289e-08,8.792852801220325e-06,-1.6683711829838754e-10,6.552427380604408e-09,-4.305008480434509e-10,-1.4941773044473157e-14,2.9280199828063686e-07
4.535,-1.3325329468485207e-08,9.059525680194435e-06,-1.1933215195192735e-08,8.00819456378707e-06,-4.4373347102868675e-10,-1.5533135563643283e-14,3.016822051504747e-07
4.568,-1.2938665594386288e-08,8.793280253588035e-06,1.1611527750718301e-08,-7.995358156348338e-06,-4.3085756402458444e-10,-1.521055742388556e-14,2.928162324444816e-07
4.601,-1.294368568283533e-08,8.793483513919524e-06,-1.5075340687813733e-10,6.10391385852454e-09,-4.3102473296534706e-10,-1.5342104668144292e-14,2.9282300101352016e-07
4.635,-1.3340990014411614e-08,9.060160502219298e-06,-1.1931061008296827e-08,8.00831796696017e-06,-4.442549671937483e-10,-1.5945593788977782e-14,3.0170334472390264e-07
4.668,-1.2953375989450517e-08,8.79388221751219e-06,1.1640060809642563e-08,-7.996344886099315e-06,-4.3134742016622577e-10,-1.5610463158880254e-14,2.92836277843156e-07
4.7010000000000005,-1.2957911100475972e-08,8.794072088153922e-06,-1.3618952028394567e-10,5.701821073006659e-09,-4.3149843935868774e-10,-1.574237318210032e-14,2.928426005355256e-07
4.734,-1.33551767042658e-08,9.060753279298053e-06,-1.1929898011706537e-08,8.008444178502447e-06,-4.447273839512345e-10,-1.6357029310155298e-14,3.017230842006252e-07
4.767,-1.2966692624539159e-08,8.794444942053744e-06,1.1666188580379597e-08,-7.997247364693971e-06,-4.31790864100364e-10,-1.6009536088603577e-14,2.928550165703897e-07
4.801,-1.2970816253757689e-08,8.794622594730439e-06,-1.2383270926515986e-10,5.334915216062597e-09,-4.3192818094853544e-10,-1.614153150006377e-14,2.9286093240452365e-07
4.834,-1.3368041377573138e-08,9.061308208661067e-06,-1.1928682396860324e-08,8.008576994913754e-06,-4.451557775573759e-10,-1.676782685865506e-14,3.0174156334841356e-07
4.868,-1.2978793774398246e-08,8.794971919927654e-06,1.1689117212459212e-08,-7.998086748751129e-06,-4.3219383237600195e-10,-1.640804058448975e-14,2.928725649335909e-07
4.901,-1.2982540187650788e-08,8.795138642661086e-06,-1.1250490247872765e-10,5.006688691628203e-09,-4.3231858793238765e-10,-1.6539636996692802e-14,2.9287811680061417e-07
4.934,-1.3379758262873172e-08,9.06182876758761e-06,-1.1928470727398917e-08,8.008712460255978e-06,-4.4554594982253153e-10,-1.7177927853565902e-14,3.0175889796066744e-07
4.9670000000000005,-1.2989805652375025e-08,8.795466700497014e-06,1.1710288603547941e-08,-7.998860873591456e-06,-4.3256052789761375e-10,-1.6806194515213012e-14,2.928890411265506e-07
5.001,-1.2993229082190475e-08,8.795623443707673e-06,-1.0280570016366242e-10,4.70700332308395e-09,-4.3267452810543187e-10,-1.6936937081269767e-14,2.9289426067546554e-07
5.034,-1.339042866392916e-08,9.062318288704486e-06,-1.1927915367528086e-08,8.00885420410849e-06,-4.459012741619812e-10,-1.758768975805201e-14,3.017751990138594e-07
5.067,-1.2999862932122836e-08,8.7959324193092e-06,1.1728700654844572e-08,-7.999575657516061e-06,-4.328954352978599e-10,-1.720309384732237e-14,2.929045495629964e-07
5.1,-1.3002981435099647e-08,8.796080035506204e-06,-9.364873804237488e-11,4.4329188289211455e-09,-4.329992814418587e-10,-1.7334125609739128e-14,2.929094651823566e-07
5.134,-1.3400185429641902e-08,9.062779380257974e-06,-1.1928047884151793e-08,8.00898933188499e-06,-4.462261744441729e-10,-1.799637700810584e-14,3.0179055336259056e-07
5.168,-1.30090515969146e-08,8.796371324240773e-06,1.17457607425616e-08,-8.000241922438462e-06,-4.332014178197254e-10,-1.7600081789295807e-14,2.929191650972178e-07
5.2,-1.3011910830472238e-08,8.796510783015963e-06,-8.586286959870964e-11,4.187951206885865e-09,-4.3329663029195787e-10,-1.773045315201859e-14,2.929238090744316e-07
5.235,-1.3409125392723302e-08,9.063214902656767e-06,-1.1928365232764692e-08,8.009132721946086e-06,-4.465238751983778e-10,-1.8404859774215994e-14,3.018050562584704e-07
5.268,-1.3017478811890005e-08,8.79678619055408e-06,1.1761158583582474e-08,-8.00086222530592e-06,-4.334820440623784e-10,-1.7996078543742e-14,2.929329801454509e-07
5.3,-1.302010174434419e-08,8.796918084979986e-06,-7.876674036588084e-11,3.9607935707518426e-09,-4.33569387707743e-10,-1.8126619499776794e-14,2.9293737222983357e-07
5.335,-1.3417322485164912e-08,9.063626902348382e-06,-1.1928550775397067e-08,8.009273794846708e-06,-4.4679683835993254e-10,-1.8812675953741795e-14,3.0181877584820115e-07
5.368,-1.3025217326168703e-08,8.797178881441915e-06,1.1774929699585844e-08,-8.001442069263259e-06,-4.33739736571488e-10,-1.8391775255291226e-14,2.929460567520158e-07
5.401,-1.3027632542059182e-08,8.797303888419885e-06,-7.252900572009998e-11,3.753963302387445e-09,-4.3382016325516674e-10,-1.8522176908039918e-14,2.929502194843822e-07
5.4350000000000005,-1.34248647136753e-08,9.064017337862376e-06,-1.1928894042526053e-08,8.009412896170905e-06,-4.47047994552215e-10,-1.922021322281249e-14,3.0183177735081716e-07
5.468,-1.3032335313229508e-08,8.797551163262319e-06,1.1787669683056813e-08,-8.001987225226937e-06,-4.3397676552388874e-10,-1.8787208560441023e-14,2.929584537366352e-07
5.5,-1.3034567491687477e-08,8.797669898488356e-06,-6.703238612518793e-11,3.5656224035320818e-09,-4.3405109706093925e-10,-1.8917323513779092e-14,2.929624076196623e-07
5.534,-1.3431810577880178e-08,9.064388118484705e-06,-1.1929221807588621e-08,8.009556156046498e-06,-4.472792918127802e-10,-1.962700439914436e-14,3.0184412434554067e-07
5.568,-1.3038906320369382e-08,8.79790506526589e-06,1.1798926651975846e-08,-8.00249409065508e-06,-4.341955800445797e-10,-1.918210105125467e-14,2.9297023867335416e-07
5.6,-1.3040955738619109e-08,8.798017964525547e-06,-6.154409158338365e-11,3.39036815786142e-09,-4.3426382566659227e-10,-1.9312406940796668e-14,2.9297399821870074e-07
5.635,-1.3438235027025615e-08,9.064740749662159e-06,-1.1930308961156337e-08,8.009693247345689e-06,-4.474932259515051e-10,-2.003360091461257e-14,3.018558669637499e-07
5.668,-1.304496852702366e-08,8.798241738569867e-06,1.1809804804863513e-08,-8.002973306074824e-06,-4.3439745150875943e-10,-1.9576790375998472e-14,2.929814498943766e-07
5.7010000000000005,-1.304686528378541e-08,8.798349329222917e-06,-5.6959662515009824e-11,3.2309505420332867e-09,-4.344606135031178e-10,-1.970665825428353e-14,2.9298503266312315e-07
5.735,-1.3444157734237188e-08,9.065076769313038e-06,-1.1930704217771106e-08,8.009833035739364e-06,-4.476904520834872e-10,-2.043998558937605e-14,3.0186705641812416e-07
5.768,-1.3050581400897047e-08,8.798562683389716e-06,1.181910910931353e-08,-8.00342600370336e-06,-4.3458436019099616e-10,-1.9970992130153858e-14,2.929921373568776e-07
5.799,-1.3052333373878191e-08,8.798665373592288e-06,-5.2611801235550697e-11,3.083789867019987e-09,-4.346427008853359e-10,-2.010091429143412e-14,2.929955569406232e-07
5.833,-1.3449656644143575e-08,9.065397400731987e-06,-1.1931629737699213e-08,8.00997078497595e-06,-4.4787356576484034e-10,-2.0845904872014326e-14,3.0187773344437517e-07
5.866,-1.3055773549549047e-08,8.798869172747768e-06,1.1828321158994827e-08,-8.003850690216765e-06,-4.347572587230176e-10,-2.036487476044355e-14,2.9300234345250074e-07
5.901,-1.3057413342346205e-08,8.79896725731984e-06,-4.9243026941671726e-11,2.945482644808462e-09,-4.348118638171148e-10,-2.0494889793529236e-14,2.9300560966875073e-07
5.9350000000000005,-1.3454755490984617e-08,9.06570384487607e-06,-1.1932196655808166e-08,8.010107734421288e-06,-4.480433573457781e-10,-2.1251687245785326e-14,3.018879380343731e-07
5.968,0.03369374746069963,7.964912739810916e-07,1.0118246521157692,-0.000248324701828678,0.0011220017891701572,5.340911418487859e-08,2.6523159423570353e-08
6.0,0.06705713780508218,1.7173050626763122e-06,1.001903613945422,2.76520657265832e-05,0.002233002686375492,1.0637680793119263e-07,5.71862585871212e-08
6.035,0.1031232060676779,1.7763791579696028e-06,1.0830651129908622,1.7739968556543723e-06,0.0034340027581473438,1.6378337422376446e-07,5.915342596038778e-08
6.068,0.13378380973461573,1.6981414727687372e-06,0.9207388488569919,-2.3494800360620288e-06,0.004455000859083219,2.1275261901496434e-07,5.6548111043198955e-08
6.101,0.16714704577378184,1.6488162657024173e-06,1.0018989801551381,-1.4812374494390355e-06,0.005565996617904939,2.6610781097401006e-07,5.49055816478905e-08
6.134,0.20370751129313444,-0.03172852160970501,1.097911877458036,-0.9528579707498711,0.006783459027645126,-3.259060805644762e-06,-0.001056559769603177
6.167,0.21801711843277818,-0.3008959791808727,0.42971793212143367,-8.083106833968998,0.007259808182107637,-4.369470113763305e-05,-0.010019836106723062
6.201,0.2180171107659558,-0.3008943107633555,-2.3023490604836262e-07,5.010262814407527e-05,0.007259005695137543,-0.0001164331729812658,-0.01001978054841974
6.235,0.22462372517647633,-0.3100158859026582,0.19839682914476026,-0.2739211753544363,0.007477367735386029,-0.0001960274712998901,-0.01032352900055852
6.268,0.18275994559571684,-0.04697168090195382,-1.2571705579807653,7.8992253753965285,0.0060827598023207976,-0.00019565216347280467,-0.0015641569740350624
6.3,0.20305862234655353,-0.3170500443471343,0.609569872397498,-8.110461364720134,0.006756883908894562,-0.00025833946730767434,-0.010557766476759572
6.334,0.2091948764199117,-0.3268680493244121,0.18427189409483963,-0.29483498430263677,0.006957815573765256,-0.0003407607221667449,-0.010884706042502924
6.367,0.19768334721187114,0.01716750101640453,-0.3456915678090255,10.33139790813263,0.00657322695152944,-0.00035591052124124995,0.0005716777838462709
6.4,0.21799404021002133,-0.2548085078163348,0.6099307206651708,-8.167447712694873,0.007246952456066241,-0.00042115427071371227,-0.00848512331028395
6.434,0.22457212687250405,-0.26278268271024613,0.19754014001449602,-0.2394647115288689,0.007461615531682196,-0.000498183853350102,-0.008750663334251197
6.468,0.21797394817560642,-0.3249391794686287,-0.19814350441134032,-1.8665614642156931,0.007237294301572643,-0.0005543922977468079,-0.010820474676305336
6.501,0.21800167562050698,-0.3251317994509284,0.0008326560030199999,-0.005784383852843573,0.0072317896882352585,-0.0006327729432532912,-0.010826888921715917
6.535,0.22464675140237972,-0.3351712327225814,0.19955182528146345,-0.30148448263222277,0.007444606108834465,-0.0007339498243727168,-0.011161202049661962
6.568,0.1848109940740941,0.030756305877432392,-1.1962689888374058,10.988814972973387,0.006121374790765211,-0.000634838652252701,0.0010241849857184988
6.601,0.2051284111560436,-0.31117351508598357,0.6101326451035888,-10.268162791694172,0.006790941420515179,-0.0007363417280985565,-0.010362078052363253
6.635,0.21142023572802565,-0.32106969676277874,0.18894368084030166,-0.29718263293679215,0.006990858553768716,-0.0008325635204879583,-0.010691620902200534
6.668,0.2180277918348231,-0.2511682990594157,0.19842510831223562,2.099141072173065,0.007200850987773129,-0.0009272344174472877,-0.008363904358678544
6.7,0.21809773337281305,-0.251111989425472,0.0021003464861846298,0.0016909799983078665,0.007195152253431765,-0.0009877385265630381,-0.008362029247868219
6.734,0.2246403861363492,-0.2579708299902205,0.19647605896504985,-0.205971188130584,0.007402106836448519,-0.0010801492567224884,-0.008590428638674343
6.767,0.15905825345677538,0.13001943651993353,-1.9694334138010157,11.651359354659279,0.0052394861782293295,-0.0007759731688284025,0.004329647236113787
6.8,0.18113829035708578,-0.011026915768982234,0.6630641711804927,-4.235626194862335,0.005968561199152833,-0.0008718690057939135,-0.0003671962951071084
6.834,0.19801988032548334,-0.15427545947474702,0.5069546537056323,-4.301758069242186,0.006522159554817949,-0.0009710782482871276,-0.005137372800509076
6.867,0.20690971699817648,-0.007515446576708025,0.2669620622430371,4.407207594535706,0.0068122125552132545,-0.001033029206453258,-0.00025026437100437727
6.9,0.21800916056719105,-0.14640023352921644,0.3333166236941313,-4.17071432289815,0.007174826178450166,-0.0011068343571499445,-0.0048751277765229075
6.9350000000000005,0.2246035790628306,-0.15068632626082365,0.19803058545464106,-0.12871149344165797,0.007386121471191172,-0.001176863842303692,-0.005017854664485428
6.968,0.21800139641759023,-0.23877499935583846,-0.19826374310031147,-2.645305498348793,0.007161438620708322,-0.0011887315646045096,-0.00795120747854942
7.0,0.21800277324229733,-0.23938618125468303,4.134608730046665e-05,-0.018353810776113227,0.007151792886349753,-0.0012457161004995017,-0.007971559835780946
7.034,0.22464868068699634,-0.24673403504620187,0.1995768001411113,-0.2206562700155807,0.007359185758430781,-0.0013432999502553317,-0.008216243367038523
7.068,0.21807819891745162,-0.19958178311675834,-0.19731176485119284,1.4159835414247304,0.007134065156846823,-0.0013570639873416693,-0.006646073377788053
7.101,0.2181033929939659,-0.1995390232667662,0.0007565788743025014,0.00128407957934341,0.007125712647854196,-0.0014046043684900252,-0.006644649474783315
7.135,0.22470499183914244,-0.2052297368151789,0.19824621156686345,-0.17089229875113182,0.007331475057596532,-0.001496562425889208,-0.006834150235945457
7.167,0.2180784988334712,-0.17547193701255875,-0.19899378395409165,0.8936276217003044,0.007105926076295201,-0.0014975019353421096,-0.005843215502518207
7.201,0.21802993772895085,-0.17469689852812648,-0.0014582914270372175,0.02327442896193026,0.0070954941822025785,-0.0015385633485682465,-0.005817406720986612
7.234,0.22459963707129155,-0.17936332751846776,0.1972882685387596,-0.14013300271295137,0.007299825507928916,-0.001627984628661169,-0.005972798806364977
7.268,0.2070080522371926,0.15114775139404368,-0.5282758208438123,9.925257625000341,0.006727369831348555,-0.0015036353089187876,0.005033220121421655
7.3,0.21800233304324285,-0.014314818272316527,0.33015858276427174,-4.9688459359267325,0.007088259794892893,-0.0015673507644241812,-0.0004766834484681404
7.334,0.2245773918746836,-0.014629359744578707,0.19744921415737968,-0.009445689857723137,0.007301266266131299,-0.0016181416607579436,-0.000487157679494471
7.367,0.21798056937979896,-0.05483747383367777,-0.1981027776241632,-1.2074508735465184,0.00708497381161039,-0.0015788052402466496,-0.0018260878786614699
7.401,0.21795845169318148,-0.055555304184504335,-0.0006641947933175154,-0.021556466991788734,0.007081341322048903,-0.0015916635070671989,-0.0018499916293439945
7.43,0.22457398573164472,-0.0576541810570313,0.19866468583973687,-0.06302933551132033,0.007293171824953329,-0.0016537241973959994,-0.0019198842291991425
7.459,0.19390796854924777,0.15064595586209148,-0.9209014168887971,6.255259366940623,0.006299472598405108,-0.0014181517925187254,0.005016510330207647
7.5,0.20490728341669037,-0.0567519239304912,0.330309755779057,-6.228164558335815,0.006659147120797339,-0.0014881883036687812,-0.0018898390668853572
7.534,0.2111857886551015,-0.05889396344448515,0.18854370085318659,-0.06432551093074924,0.006860222022291778,-0.0015469996813923335,-0.0019611689827013557
7.567,0.20699098438877553,0.17457248430103217,-0.12597009808786658,7.011004436802322,0.006726856294969842,-0.001503316133753033,0.005813263727224372
7.6,0.2180161660881245,-0.03301422517175499,0.33108653751798683,-6.233835119302918,0.007088877922714113,-0.0015666872867242962,-0.0010993736982194413
7.631,0.22463489690038085,-0.033863546763519686,0.1987606850527436,-0.02550515290584663,0.007302286414416977,-0.0016223823927919855,-0.0011276561072252056
7.664,0.2180400039179004,-0.02922504461354068,-0.1980448343087222,0.13929435885822844,0.007086245911588184,-0.0015821965080436184,-0.0009731939856309047
7.7,0.21802321487943238,-0.028874551310658338,-0.000504175329370078,0.010525324410881113,0.007084166530553606,-0.0015889283501762236,-0.0009615225586449228
7.73,0.22461506189369884,-0.029396709359407403,0.1979533637917856,-0.01568042188435632,0.007296761888025284,-0.001644049189275997,-0.0009789104216682666
7.767,0.21797909273711027,-0.024998729316644413,-0.1992783530507077,0.13207147275564535,0.007079740421914857,-0.0016018905080038856,-0.000832457686244259
7.799,0.21796746446023688,-0.025283695553124173,-0.000349197503705671,-0.008557544639031845,0.007078019226731954,-0.001607731349999012,-0.000841947061919035
7.834,0.22458611882107735,-0.02649512713380474,0.1987583892144285,-0.03637932674716411,0.007291514756103317,-0.0016628373998425004,-0.0008822877335556979
7.867,0.21800003927723968,-0.01673261734731319,-0.1977801664816115,0.2931684620568032,0.007076524699736183,-0.0016191677368910056,-0.0005571961576655293
7.901,0.2179754028934221,-0.017439841266041287,-0.0007398313458733745,-0.021237955517360265,0.007074802665971,-0.0016230103745770122,-0.0005807467141591749
7.9350000000000005,0.22459931324107485,-0.018296284269055472,0.19891622665623873,-0.02571900909952506,0.007288797816411078,-0.0016766681395611542,-0.0006092662661595472
7.9670000000000005,0.2180259087798146,-0.017916941943566893,-0.19739953337117888,0.011391661426083432,0.007074492100321283,-0.0016318625363286614,-0.0005966341667207776
7.9990000000000006,0.2180546728768835,0.00525615676789199,0.0008637866987656202,0.6958888501939604,0.007075081329395955,-0.0016335693277193773,0.00017503002037080328
8.021,0.22469487991153592,0.005391847162004946,0.19940561665622908,0.004074786609998671,0.007290830223720675,-0.0016820222672489888,0.0001795485104947647
8.066,0.21808806440879736,0.005504920716529563,-0.19840286795010692,0.003395602237976492,0.007076750391490766,-0.0016312810120445121,0.00018331385986043448
8.101,0.21807200483486217,-0.00021580369289862474,-0.0004822694875432391,-0.17179352580865426,0.007076372902285036,-0.0016305377239373164,-7.1862629735242045e-06
8.135,0.22465071136955067,0.00034697689579190493,0.1975587547954506,0.016900317978694582,0.007289853677548212,-0.0016797111940571974,1.1554330629870436e-05
8.168,0.21802449400962362,0.07450141129140442,-0.1989855063041156,2.226859891760135,0.0070768589969240426,-0.0016213485110144416,0.0024808969960037675
8.201,0.21798759379172966,0.0752180933543803,-0.0011081146514702476,0.021521983873149686,0.007079680290110977,-0.0016034306555540252,0.002504762508700864
8.234,0.224576425143649,0.0774234052902807,0.19786280336094125,0.06622558366067267,0.0072978432916334865,-0.0016333534365862603,0.0025781993961663478
8.268,0.21796722666596927,0.08478154978026059,-0.19847442875915133,0.220965299999396,0.007087325719075466,-0.0015661492866471543,0.002823225607682678
8.3,0.21797578338893084,0.08441892984755182,0.00025695864749466645,-0.010889487468731708,0.007091988144579478,-0.0015462374718133527,0.002811150363923476
8.334,0.2245913708473871,0.08676270512151571,0.19866629004373126,0.07038364186077734,0.007311741693327886,-0.001572332585611078,0.0028891980805464735
8.368,0.20492875590727053,0.02396375007815396,-0.5904689171206174,-1.885854505806659,0.006674246184048247,-0.0014223756601173512,0.000797992877602527
8.401,0.20488285148607976,0.02337464941020522,-0.001378511146869736,-0.017690710749211414,0.006673869919452977,-0.0014167972479590721,0.000778375825359834
8.432,0.21112962195117144,0.024001042519230097,0.18759070465740757,0.018810603874620878,0.006878502208161095,-0.001454569303738671,0.0007992347158903623
8.466,0.22006930046115364,0.16319634102783467,0.26845881411357964,4.1800389942523895,0.00717443481092104,-0.001493802797420669,0.005434438156226895
8.5,0.21800428096918004,0.011994295575701707,-0.06201259735656462,-4.540601965529518,0.0071114084124747935,-0.0014590503132949522,0.0003994100426708669
8.532,0.2246984429991059,0.011565735846621041,0.20102588678456065,-0.012869661533953929,0.007330364680327346,-0.001500977333551129,0.00038513900369248073
8.567,0.20486812907760016,0.02063367956813763,-0.5955049225677401,0.27231062226776537,0.006684170569478942,-0.0013649282245874255,0.0006871015296189831
8.596,0.20503800211224021,0.019330126756145205,0.005101292331533202,-0.039145730089862586,0.0066906204734995135,-0.001361608382709453,0.0006436932209796354
8.634,0.21121226248942496,0.020501581029750436,0.18541322454008236,0.0351788070151721,0.00689302220709107,-0.0013980390373400232,0.0006827026482906896
8.667,0.20496460332103608,0.02048680906843061,-0.18761739244411035,-0.0004436024420368184,0.006690050916900362,-0.0013521196849049153,0.0006822107419787393
8.701,0.21791857437447762,0.03328416313507031,0.3890081397429891,0.384304926926117,0.0071141528928085835,-0.0014312063443013326,0.0011083626323978414
8.734,0.22454268091164684,0.03543340692025788,0.1989221182333098,0.06454185541103813,0.007332085400025145,-0.0014663229216110383,0.0011799324504445875
8.768,0.20421461232402308,0.02918054181966723,-0.6104525101388516,-0.18777372674446385,0.006669735490555116,-0.0013264006169621942,0.0009717120425949189
8.801,0.20424326256993436,0.03030090355384798,0.0008603677450835589,0.03364449652194437,0.0066719817340036396,-0.0013199796440868407,0.0010090200883431377
8.834,0.21039760567909288,0.030552416916603348,0.18481510838313878,0.007552953836497574,0.006874398848431745,-0.0013527893210183665,0.0010173954833228916
8.868,0.21804779868790983,0.07423868568517004,0.22973552579029868,1.3118999630200208,0.00712679021462969,-0.0013895448173983386,0.002472148233316163
8.9,0.21800847496926534,0.07425283609717935,-0.001180892451786337,0.00042493729757676007,0.007128918023720685,-0.001371673009067154,0.002472619442036073
8.935,0.2246369042275086,0.07614726787049793,0.1990519296769745,0.056889843042599926,0.007349185098683509,-0.0013949788081904302,0.002535704020087581
8.968,0.20498240979196078,0.0654890322235088,-0.5902250581245589,-0.3200671365462201,0.006709155484100363,-0.0012571076004829135,0.002180784773042843
9.001,0.20502594655052134,0.06475086840779892,0.0013074101669837352,-0.022167081552849088,0.0067132913190498895,-0.001242819805731977,0.002156203917979704
9.034,0.2112539772750324,0.06683741807266085,0.18702794968501674,0.06265914909495263,0.006920008551458537,-0.0012654143607271678,0.002225686021819606
9.068,0.2179338873159635,0.05773071082914938,0.20059789912706014,-0.2734746919973413,0.007141513714743592,-0.0012906180496125741,0.0019224326706106746
9.1,0.21804679938443122,0.05705064909314552,0.003390752806838567,-0.0204222743544702,0.0071476685164977545,-0.0012776290898276225,0.001899786614801746
9.134,0.22465450664505723,0.059146330306289734,0.19842964746624656,0.06293336976409046,0.007366804864331437,-0.0013020964847484592,0.001969572799199448
9.167,0.21800385726720606,0.040742600713968076,-0.1997192005360713,-0.5526645523219716,0.007150810907897639,-0.0012516583193327548,0.001356728603775137
9.2,0.2179610949876227,0.040793925081006724,-0.001284152540040787,0.0015412722834428796,0.007151100556084646,-0.0012417057351680424,0.001358437705197524
9.234,0.2245560790001904,0.04168501298125722,0.1980475679449758,0.026759396403918854,0.0073692256654319735,-0.0012691580228243655,0.0013881109322758656
9.267,0.21796195379601463,0.034324078996405,-0.19802177790317613,-0.22104906861418078,0.0071543806494801035,-0.00122283577153862,0.0011429918305802867
9.301,0.21794735828180223,0.03376093840414298,-0.00043830373010213264,-0.01691112889675738,0.007155283114993479,-0.0012146433303018777,0.0011242392488579613
9.335,0.22454642652813392,0.034211637479674865,0.19817021760755826,0.013534506772729283,0.007373344240786369,-0.0012430766875416856,0.0011392475280731732
9.368,0.21797695003076953,0.04027337045660591,-0.1972815764974291,0.18203402333126253,0.007159115755570862,-0.0011978307655153666,0.001341103236204977
9.399000000000001,0.21801347005508792,0.04022159301622065,0.001096697426978761,-0.0015548780896474138,0.00716191442037459,-0.0011884338290985544,0.0013393790474401479
9.434,0.2246592865072872,0.04135513202407403,0.1995740676336119,0.03404021044604746,0.007381891291534559,-0.0012146361133645875,0.0013771258964016654
9.467,0.218082712835505,0.1125732961867995,-0.19749470485832393,2.138683608490254,0.007168791870466659,-0.001160709687332492,0.0037486907630204236
9.5,0.21811806423437252,0.11249386621264394,0.001061603569594936,-0.002385284509175788,0.0071742539024208535,-0.0011340212943415512,0.0037460457448810435
9.535,0.22472793301710697,0.116227797653088,0.1984945580400736,0.11213007328660816,0.0073960586839465214,-0.001140229277475627,0.0038703856618478305
9.567,0.2180990694018486,0.11315551007893196,-0.1990649734311827,-0.09226088811279384,0.007182069260826885,-0.001079173595026121,0.0037680784856284344
9.601,0.21806671411665574,0.1137027878184029,-0.0009716301859715688,0.016434766951079326,0.007185028153922401,-0.00105188183898541,0.003786302834352817
9.635,0.22461740233922353,0.1176062152154144,0.19671736404107495,0.11722004195229711,0.007404982813838005,-0.0010549692730490658,0.003916286966673299
9.667,0.20482613460672808,0.04920736545489113,-0.5943323643392028,-2.054019512328026,0.006755171705033375,-0.0009432569016903456,0.0016386052696478748
9.7,0.20488048097769795,0.10609053625270452,0.0016320231522485465,1.7082033272616635,0.006759378336109725,-0.0009260321128325865,0.003532814857215061
9.735,0.21106873474829885,0.10933617696682549,0.1858334465645914,0.09746668811174067,0.006966916882003735,-0.0009290188642217693,0.003640894692995289
9.768,0.2043560322097922,0.13640511532043897,-0.20158265881401327,0.8128810316400445,0.006748966995853886,-0.0008718659852061005,0.004542290340170618
9.8,0.20434124665761824,0.13596840269058239,-0.0004440105757946727,-0.013114493389086766,0.006752362965631746,-0.0008411895690353557,0.004527747809596394
9.834,0.2105655078205482,0.1400156410979493,0.1869147496375362,0.1215386909119197,0.006961950112236673,-0.0008348300992925017,0.004662520848561713
9.868,0.21800795656726812,0.08630718241576085,0.22349695936095873,-1.6128666270927463,0.0072112305245639035,-0.000837169806073495,0.0028740291744448368
9.901,0.21802747962471036,0.08591459574161445,0.0005862780012684361,-0.011789389614006177,0.007214247467571248,-0.000816561363121297,0.0028609560381957612
9.934,0.22467355935204425,0.08843234731822888,0.1995819737938104,0.07560815545388694,0.007436568810287421,-0.000819868434690421,0.002944797165697022
9.968,0.21810403108649093,0.09310655789613514,-0.1972831310976973,0.14036668402120908,0.007221493535493171,-0.000774070901123665,0.0031004483779413007
10.0,0.21813427602687516,0.09313442900802002,0.0009082564679948208,0.0008369703268731267,0.007224860883912967,-0.0007517782323512249,0.003101376485967067
10.035,0.2247470177143667,0.09626514581944438,0.19858083145620242,0.0940155198625935,0.007446287960887477,-0.0007510902547894231,0.003205629355787498
10.067,0.21810933725164286,0.08504680979225329,-0.19932974362534048,-0.33688696778351623,0.007228537430382264,-0.0007070890447358995,0.0028320587660820348
10.1,0.21806172405189683,0.08533347580698314,-0.0014298258181990142,0.008608589030926341,0.007228935798828824,-0.0006864302007599431,0.0028416047443725386
10.134,0.22460093488949542,0.08816572010659038,0.1963726978257835,0.08505238136958676,0.007447727483433592,-0.0006855029584808645,0.00293591847954946
10.168,0.21795483587774284,0.07773324416294136,-0.1995825529054831,-0.31328756587534584,0.007229154491763353,-0.0006452524869815791,0.0025885170306259478
10.201,0.21793964183832684,0.07788079977558873,-0.00045627745993977165,0.004431099478900028,0.007230297976620903,-0.0006264761154583435,0.002593430632527105
10.235,0.22450335862166484,0.07944622020956132,0.1971086121122523,0.04700962264181957,0.007449718643960156,-0.0006258314410686191,0.002645559132978392
10.267,0.21791337817957424,0.0748670510314303,-0.19789731057329155,-0.13751258793186238,0.007232579753753142,-0.0005888802403824378,0.0024930727993466295
10.3,0.21794638257293292,0.07478968763099172,0.0009911229236841473,-0.0023232252383958564,0.007235120305294412,-0.0005709428595007031,0.0024904965981120248
10.333,0.2245878975050372,0.0769841466415249,0.19944489285598407,0.06589966998598142,0.007457060119102816,-0.0005694988748466128,0.0025635720831627797
10.367,0.21801933526509323,0.07463953561209517,-0.19725412131963824,-0.0704087396225145,0.007240334873337813,-0.0005345658979824541,0.0024854965358827694
10.401,0.21805724277760077,0.08246983529200066,0.001138363738965168,0.23514413453169644,0.0072429671756410975,-0.0005157139318597355,0.0027462455152236225
10.416,0.22470344548350646,0.08491606139500314,0.19958566684401455,0.07346024333340773,0.007465178727775979,-0.0005106291940763214,0.002827704844453605
10.467,0.21813181391215614,0.08236136621641331,-0.1973462934339436,-0.07671757293062562,0.007248206248306529,-0.00047550983543665116,0.0027426334950065635
10.5,0.19164760998107794,0.03294009147787464,-0.7953214393717176,-1.4841223645206807,0.006368966242511599,-0.00040555031705853553,0.0010969050462132255
10.531,0.21121435166519786,0.06809410206550823,0.5875898403639617,1.05567599362263,0.007019962561539279,-0.0004351474214441744,0.002267533598781424
10.567,0.21791510068596034,0.07415024124523806,0.2012236943171916,0.1818660414333282,0.00724371268286956,-0.0004317978488074097,0.0024692030334664277
10.598,0.21802347089954063,0.07424522054671283,0.0032543607681768424,0.0028522312755186407,0.007248360298116452,-0.00041410473004272917,0.0024723658442055373
10.634,0.22460051102174275,0.07663827793188645,0.1975087123784419,0.07186358514034892,0.007468067137995788,-0.000407836831802687,0.002552054655131819
10.668,0.21794972829863252,0.07497460144823699,-0.19972320489820516,-0.049960254764247945,0.007247901679176812,-0.00037746508054228145,0.002496654228226292
10.701,0.2179022648169235,0.07458100408644289,-0.0014253297810511592,-0.01181974059441754,0.007247240559081931,-0.0003593376529694973,0.0024835474360785483
10.733,0.22450325953459832,0.07638894423203571,0.19822806959984404,0.05429249686464935,0.0074676908520345375,-0.0003514531697380309,0.0025437518429267895
10.767,0.18422168256461666,0.07414456338835669,-1.2096569660655154,-0.06739882413450508,0.006128501444561176,-0.00027303406704510765,0.002469013960832278
10.801,0.15085841928530278,0.07414472568985826,-1.001899798177594,4.873918966117249e-06,0.005019142736429693,-0.00021119484474864885,0.0024690193654722803
10.835,0.12142631450634975,0.0767719663519244,-0.8838469903589496,0.07889611597796219,0.0040403347118724686,-0.00015983936139574628,0.002556506479519083
10.867,0.11603088509028436,0.039293850095277756,-0.16202490738935085,-1.1254689566560554,0.003861096122877754,-0.0001452758497363249,0.0013084852081727495
10.901,0.11602846368637111,0.039260484574173,-7.271483222980533e-05,-0.0010019676007434546,0.0038612022517098862,-0.00014022275843120468,0.001307374136319961
10.934,0.11956503877042979,0.04039592414423049,0.10620345597773803,0.03409728438611079,0.0039790807387748844,-0.00013921953270387078,0.0013451842740028754
10.968,0.08416492243936013,0.07456038488807215,-1.0630665564885782,1.0259597820973472,0.0028011597565316872,-9.263890118802682e-05,0.002482860816772803
11.0,0.0507977757651699,0.07451432059615973,-1.0020164166423493,-0.001383312069442139,0.0016907747687239585,-5.17157513295242e-05,0.002481326875852119
11.035,0.018302961963949926,0.07677223084149179,-0.9758202342708701,0.06780511247243429,0.000609248563280567,-1.7099124542969684e-05,0.002556515287021677
11.068,-0.015929151651885253,0.07451402927754885,-1.0279913998749304,-0.06781386077906712,-0.0005302676271874841,1.354579131714484e-05,0.0024813171749423772
11.099,-0.0492925985992278,0.07451367855956766,-1.0019053137340102,-1.0532071507461146e-05,-0.00164100676488781,3.784558615758647e-05,0.002481305496033603
11.135,-0.08482041547425982,0.07677140038148872,-1.0669014076586192,0.06779945411174364,-0.002823923299397235,5.8009947671771175e-05,0.0025564876327035745
11.168,-0.11601941205665939,0.07451312400936011,-0.9369068042762632,-0.0678161072711294,-0.003862818139439162,6.961763564912674e-05,0.0024812870295116917
11.2,-0.14938274119903022,0.07451299395762497,-1.001901776047172,-3.905457511859138e-06,-0.0049738434316505585,7.729608339126513e-05,0.0024812826987889117
11.235,-0.18794340544503985,0.07677082874927169,-1.157977905285574,0.06780284659599761,-0.006257983200088435,8.148597084636178e-05,0.0025564685973507475
11.267,-0.15945608862382155,-0.3014473070245642,0.8554749796161651,-11.357901975190266,-0.0053091195992464235,8.899581957944394e-05,-0.010038195323917988
11.3,-0.1595103483764294,-0.3013506021538543,-0.001629422000236212,0.0029040501714683504,-0.005309765208225448,0.00014232428778985433,-0.01003497505172335
11.335,-0.16436793862901788,-0.31044521633239996,-0.145873581158813,-0.2731115368932636,-0.005469685040339558,0.00020238440901717137,-0.01033782570386892
11.368,-0.21803489622970185,0.33456953540268136,-1.6116203483688876,19.369812364416852,-0.007255666712910684,0.0002655493806328234,0.011141165528909291
11.401,-0.2180398500982121,0.3345061220015347,-0.0001487648201280988,-0.0019043063407412487,-0.00725833960788285,0.00018470984889620295,0.011139053862651106
11.434,-0.2246298319859509,0.3448596013370179,-0.19789735398614994,0.3109152953598557,-0.007479385477065907,0.00010569836257482451,0.011483824724522697
11.468,-0.14125524081009116,-0.5111915588527862,2.5037414767525443,-25.70724204774186,-0.004703070989036323,7.949155902720231e-05,-0.01702267890979778
11.501,-0.14123615501463482,-0.5109528273850888,0.000573147010700952,0.007169113144065251,-0.004700402006701989,0.0001594948056231226,-0.01701472915192346
11.534,-0.14547896895378182,-0.5259696572653753,-0.12741183000441422,-0.45095585226085305,-0.004838043484720775,0.0002478464457697705,-0.017514789586937
11.568,-0.16003620445453917,0.21594410199983344,-0.4371542192419625,22.27969247042669,-0.0053207366603238,0.0003001190203465113,0.007190938596594454
11.601,-0.11608591305158487,-0.33414310564461613,1.319828570659288,-16.519135364698187,-0.003859070259859008,0.00022529265976755413,-0.011126965417965718
11.635,-0.1195769785596566,-0.34393436614382816,-0.10483680204419595,-0.294031846823184,-0.003972249993086928,0.00027693120038717794,-0.01145301439258948
11.667,-0.19375943508704163,0.21631090008105106,-2.2277013972187696,16.82418216891529,-0.006435584082077184,0.00046240982185239993,0.007203152972699001
11.7,-0.20234416665690316,0.13836699533233143,-0.2577997468426886,-2.3406578002618503,-0.006723463015193355,0.0004432013383244699,0.004607620944566637
11.735,-0.20845507906170926,0.14281650010262303,-0.18351088302721025,0.13361876187061864,-0.006928576823359678,0.00042415346478699424,0.004755789453417348
11.765,-0.20941817949946587,0.2320227236286844,-0.02892193506776586,2.6788655713531937,-0.006963101178125943,0.0003826629840924825,0.007726356696835191
11.8,-0.21799920913417242,0.15419923138682912,-0.2576885776188154,-2.337041809064723,-0.0072508399936030915,0.00035172374611220535,0.00513483440518141
11.834,-0.22465082735455436,0.1590212368380461,-0.19974829490636434,0.14480496850501412,-0.007473866608840702,0.0003234830167296987,0.005295407186706935
11.868,-0.21807905179730264,0.12621535003581624,0.19735061733488643,-0.985161765832728,-0.007256644082179916,0.0002795603171116284,0.004202971156192681
11.9,-0.21811227047744125,0.12622139964617843,-0.0009975579621205291,0.00018166998084640933,-0.0072588605236442024,0.0002490956783472804,0.0042031726082177425
11.934,-0.2247417427228682,0.1301417809734336,-0.19908325061342202,0.11772916898664167,-0.007480518999625122,0.00022473881794586652,0.004333721306415339
11.967,-0.1963988384660594,0.21976222328628708,0.8511382659702341,2.691304573959564,-0.006538150448341216,0.00015830827841147534,0.00731808203543336
12.0,-0.20509672975251558,0.11378942971570123,-0.2611979365302155,-3.182366173290866,-0.006828528693487097,0.000127398531231609,0.0037891880095328513
12.035,-0.21125618756049946,0.11727178137084678,-0.18496870294245887,0.10457512477914545,-0.007034055357390589,0.00010416419131522634,0.003905150319649198
12.067,-0.18212870549761356,0.22232994594968553,0.8746991610476246,3.1548998372023647,-0.0060646179880193395,5.551162514870834e-05,0.007403587200124529
12.1,-0.1906556983453401,0.11618175057941442,-0.25606585128307924,-3.1876334946027356,-0.00634879153271835,2.2328052554062393e-05,0.0038688522942945005
12.134,-0.19638226725943925,0.11987636256794587,-0.17196903645943376,0.11094930896490844,-0.006539524598701785,-2.7039891694315996e-06,0.003991882873512598
12.168,-0.16817961175212812,0.22236975775868814,0.8469265918111449,3.0778797354577256,-0.0056002636753438514,-3.4228576610350516e-05,0.007404912933364316
12.2,-0.1765904301770103,0.11625877017660688,-0.25257712987634146,-3.1865161436060436,-0.00588005171866447,-6.909406345527615e-05,0.0038714170468810093
12.234,-0.18196323941644657,0.12010391527335314,-0.16134562280589435,0.11546982272511284,-0.0060586264422193385,-9.504029258652484e-05,0.0039994603786026595
12.268,-0.14802152398628607,0.21072315809619555,1.0192707336384534,2.7212985832685406,-0.004927999660896139,-0.00010445846493663561,0.007017081164603312
12.301,-0.15640456005525336,0.10443569570416776,-0.2517428248939125,-3.1918156874482815,-0.005206448690968761,-0.00013769658869441825,0.003477708666948787
12.334,-0.16117230977049127,0.10778724187366306,-0.1431756671242616,0.10064703211697608,-0.005364624126866878,-0.00016085097831113727,0.00358931515439298
12.368,-0.1521238021364458,0.08231687091052307,0.2717269559773413,-0.7648760048990988,-0.005062939558711078,-0.00016784674460823296,0.0027411518013204187
12.401,-0.15214467025445658,0.08244490258219,-0.0006266702105337849,0.003844794944952885,-0.0050631545130929425,-0.0001817601042970399,0.0027454152559869276
12.434,-0.15678000564547492,0.08503590024231719,-0.13919926099154195,0.07780773754135695,-0.005216869089426084,-0.00020184601263276885,0.0028316954780691628
12.468,-0.1315784568410463,0.21941395727306176,0.7568032674002589,4.035377088010347,-0.004377362010312732,-0.00019159163267442198,0.007306484777192957
12.501,-0.1357650798043561,0.09098695955932,-0.12572441331260642,-3.8566665980102632,-0.004515569215089785,-0.00022102824724030073,0.003029865753325356
12.534,-0.13990036618142127,0.09360316245659987,-0.12418277408604121,0.07856465156996616,-0.004652387445854591,-0.0002420604576302471,0.003116985309804776
12.567,-0.12718787629741474,-0.09843406045691434,0.38175645297316896,-5.766883570976402,-0.004229651030746358,-0.00021972464907849527,-0.003277854213215248
12.601,-0.13140177574499418,-0.22613464314082032,-0.1265435269543375,-3.8348523328500295,-0.004370939423655699,-0.00020338620414756456,-0.007530283616589317
12.635,-0.1354277568444797,-0.23309811594126323,-0.12090033331788332,-0.20911329731059772,-0.004506329791288398,-0.00017516670718695254,-0.007762167260844066
12.668,-0.12979629784559746,-0.3686706470525025,0.16911288284931628,-4.071247180517696,-0.004320393184682203,-0.00012460117585190374,-0.012276732546848334
12.701,-0.1297951871540075,-0.36866903550211994,3.3354101800317877e-05,4.8394906383943355e-05,-0.004321560282385367,-7.155231053088873e-05,-0.012276678882220594
12.735,-0.13372904668791644,-0.37984893411684084,-0.11813391993720505,-0.33573269113275994,-0.00445311027176534,-1.822542596560506e-05,-0.0126489695060908
12.768,-0.09346156060370238,-0.09802949800494906,1.2092338163427643,8.463046129486237,-0.0031122453529081897,1.2025645102163593e-05,-0.003264382283564804
12.8,-0.06009809545574685,-0.09802978954415426,1.0019058602989648,-8.75493108690298e-06,-0.0020012148448471543,1.4265591688419224e-05,-0.003264391991820337
12.835,-0.027885081519957958,-0.10100012518500824,0.9673577758495161,-0.08919926849411366,-0.0009285221519057054,9.696160118510959e-06,-0.0033633041686607747
12.867,0.0066288901682388345,-0.09802855305361467,1.036455606252156,0.08923640034214919,0.00022072105963241573,-3.0364349909092902e-06,-0.0032643508166853687
12.9,0.03999236304362924,-0.09802611711138795,1.0019060923540661,7.315141821988817e-05,0.0013315522050169693,-2.2665647924834113e-05,-0.003264269699809219
12.935,0.07523833722402365,-0.10099572964417003,1.058437663074907,-0.08917755353699935,0.0025049175012096395,-5.094212568651975e-05,-0.003363157797150862
12.968,0.039331720127775915,-0.09802623829237113,-1.078276789677109,0.08917391446843544,0.001309379500070005,-3.096966589993089e-05,-0.003264273735135959
13.001,0.005968215145804494,-0.0980263470263559,-1.0019070565156583,-3.2652848280600795e-06,0.00019866951044136632,-5.347892164388338e-06,-0.0032642773559776518
13.034,-0.0278702779282979,-0.10118552729176043,-1.016170963186258,-0.09487027824037625,-0.0009276558145262512,2.805057217729673e-05,-0.003369478058815623
13.068,-0.06075883485586763,-0.09802723201329049,-0.987644352179271,0.09484370205615456,-0.0020221299958805552,6.785943732362354e-05,-0.0032643068260425736
13.101,-0.09412221309685642,-0.0980298056309478,-1.0019032504801437,-7.728581553513191e-05,-0.003132145096935094,0.00011534685166167455,-0.003264392527510562
13.135,-0.12202685729931499,-0.21327133200299653,-0.8379773033771342,-3.4607064976591206,-0.004059903480385427,0.00017058911138179782,-0.007101935355699785
13.168,-0.12716506591347276,-0.34276010269991114,-0.15430055898371683,-3.888551672580018,-0.004229013469812504,0.0002169321687880006,-0.011413911419907042
13.2,-0.12716505517980983,-0.3427599922064969,3.223322201410009e-07,3.318120548093431e-06,-0.004226261653396886,0.0002651865451792814,-0.011413907740476348
13.235,-0.13101852221974997,-0.35314688581662856,-0.11571973092913314,-0.3119187270309812,-0.004350870078971411,0.0003236558440563891,-0.011759791297693733
13.268,-0.1297105435872672,-0.33222803263109896,0.039278637612095366,0.6281937893552434,-0.004303500601765673,0.0003695573093720102,-0.011063193486615596
13.301,-0.1296520979316647,-0.33257899765753746,0.0017551247928672452,-0.010539490283438405,-0.004297209226072869,0.00041698132991924543,-0.011074880621995999
13.335,-0.13359873365647842,-0.34245617646865595,-0.11851758933374512,-0.2966119763098646,-0.004422906940816997,0.0004794139615889765,-0.011403790676406244
13.367,-0.08474403414426877,-0.20699359732849212,1.4671080934597491,4.067945319524439,-0.0028026381768820976,0.0003297547056035977,-0.006892886791038788
13.4,-0.051380574787880176,-0.20699370076137,1.0019056863780358,-3.1060924286406172e-06,-0.0016978298925773311,0.00021163920367483222,-0.006892890235353622
13.434,-0.018903402700191994,-0.21326630482019035,0.9752904530837291,-0.18836648825286342,-0.0006240875796028126,8.223299243923196e-05,-0.007101767950512339
13.468,0.015346395871070005,-0.20699366502267072,1.0285224796174774,0.18836756148707595,0.0005061750779180037,-7.030298597504638e-05,-0.006892889045254935
13.501,0.04870986785937596,-0.20699355593241237,1.0019060657148935,3.2759837343688533e-06,0.0016050368759836324,-0.00023421235814524848,-0.006892885412549332
13.534,0.0842200559583276,-0.21326503385891218,1.0663720149835325,-0.18833267046546,0.0027722297837111487,-0.00042436482631981286,-0.007101725627501777
13.568,0.11543673650134646,-0.20699094485847871,0.9374378541447105,0.18841108109409815,0.00379561122349398,-0.0006082318836916807,-0.006892798463787342
13.601,0.13907955756316312,-0.32849772435851676,0.7099946264809807,-3.6488522372383794,0.004566268685656934,-0.0007735453668204557,-0.01093897422113861
13.634,0.15369028207241947,-0.46839917900590694,0.43876049577346393,-4.201244884306011,0.005034157255296006,-0.0009216782697639332,-0.015597692660896702
13.668,0.10539214169912155,-0.3284597920005234,-1.4503946058047423,4.202383994155662,0.00344347008629464,-0.0006777835664610174,-0.010937711073617429
13.701,0.07202441577122717,-0.32847713652705113,-1.0020338116484795,-0.000520856652484701,0.0023480416256136173,-0.00048890521134578,-0.010938288646350804
13.734,0.04017363411728009,-0.33842400805813505,-0.9564799295479605,-0.29870485078330095,0.0013065768284474671,-0.0002872259966905741,-0.011269519468335898
13.767,0.07268468672394768,-0.3284842011594257,0.9763078860861137,0.29849269966094066,0.0023580263703656943,-0.000545884339842699,-0.010938523898608877
13.8,0.1060462333479617,-0.32849708491675195,1.0018482469673882,-0.0003868996194060307,0.0034314192667979845,-0.0008340243563882044,-0.01093895292772784
13.834,0.13203346004068595,-0.4792144576911393,0.7803971979797069,-4.5260472304620825,0.004257933110176409,-0.00109576061852161,-0.01595784144111494
13.867,0.11650659331953492,-0.6935665135250226,-0.4662722739084392,-6.43699867369019,0.0037375698371668246,-0.0010400665977674424,-0.023095764900383255
13.901,0.11653080596206626,-0.6932624894147392,0.0007271063823226201,0.009129853161663884,0.0037133313711464632,-0.001126318831352896,-0.023085640897510817
13.935,0.12006160031121772,-0.71427468008954,0.10602986033487871,-0.6309967169609836,0.0037975935904149953,-0.001249777367291763,-0.023785346846981685
13.968,0.11921936554430562,-0.6446948485031269,-0.02529233534270572,2.0894844320244177,0.00374192671667594,-0.0013260157643581146,-0.021468338455154126
14.0,0.11920948734056003,-0.6442696126733091,-0.0002966427551229631,0.012769844739273088,0.0037123017056184893,-0.0014058942326409696,-0.021454178102021194
14.034,0.12282199736123128,-0.6635258972728427,0.1084837844045422,-0.5782668047908005,0.00379234946540893,-0.0015314307484942955,-0.022095412379185664
14.068,0.1618334698934384,-0.4652465482022641,1.1715156916578708,5.954334806924283,0.004958146033037854,-0.0021114250966366784,-0.015492710055135396
14.101,0.16885153714093598,-0.7945574298004779,0.21075277019512295,-9.889215663610026,0.005125718712070549,-0.002310963101999647,-0.026458762412355917
14.134,0.1876645223311624,-0.9898415921470654,0.5649545102170096,-5.864389259657279,0.005617910101795682,-0.0027364956424385098,-0.03296172501849728
14.167,0.20258106941829226,-0.7950028747693847,0.44794435697086665,5.851012533864283,0.005974095729651184,-0.003132947268248632,-0.026473595729820512
14.201,0.21801667610064773,-0.9745054611893509,0.46353173220286686,-5.390468060659645,0.0063270846171747915,-0.0035595401715470014,-0.03245103185760539
14.234,0.22467371665120436,-1.0046684417163154,0.19991112764434327,-0.9057952110199559,0.006395863544129252,-0.0038810523784564063,-0.033455459109153304
14.268,0.21801735791196433,-1.025105481133005,-0.19989065283003096,-0.6137249074080933,0.006075566228467657,-0.0039736202458404216,-0.03413601252172907
14.301,0.2179942740551187,-1.0248163489838273,-0.0006932089142831622,0.008682647122449982,0.005935801258929103,-0.004178189733528635,-0.034126384421161456
14.335,0.22453767214915457,-1.055088556444932,0.19649844126233837,-0.90907529913227,0.0059612835788278706,-0.0045126974925284325,-0.03513444892961624
14.367,0.21794069271555983,-1.02414468053645,-0.1981074904983407,0.9292455227772345,0.005631083298716063,-0.00457777398953975,-0.03410401786186379
14.401,0.18883813118361886,-0.7901341320589736,-0.8739507967549838,7.027343798122413,0.004757207492287134,-0.00411212054800682,-0.026311466597563823
14.435,0.21039663309932255,-1.051172240859454,0.6474024599310416,-7.838982246260668,0.005157264923556573,-0.004741788216134149,-0.03500403562061982
14.467,0.20423010960137358,-1.0201956606959464,-0.1851808858242933,0.9302276325377649,0.004844436310896426,-0.0047727058780349775,-0.03397251550117502
14.501,0.21803191481191692,-0.9275171975241434,0.4144686249412412,2.7831370321862745,0.005003937380088984,-0.005260298445089668,-0.03088632267755398
14.535,0.22467581737220196,-0.9563039157359557,0.19951659340195335,-0.8644660123667367,0.0049838770818458515,-0.0055796186663685165,-0.03184492039400733
14.567,0.2054172145510369,-0.7085240236742799,-0.5783364210560079,7.440837599449724,0.004413618126277781,-0.005225780728478436,-0.023593849988353524
14.601,0.20546329811213573,-0.708898636800173,0.00138389072368878,-0.011249643420211466,0.0042900337470195525,-0.005329672880859924,-0.02360632460544576
14.634,0.21167044520564818,-0.7301066063847323,0.1864008136189923,-0.6368759635002821,0.004286822096754842,-0.005594983027357119,-0.02431254999261159
14.668,0.21801474633878648,-0.5545423045917349,0.19051955354769676,5.272201255044967,0.004291092916463205,-0.005855855356876415,-0.018466258742904775
14.701,0.21798279649434302,-0.5538484076119997,-0.00095945478809198,0.020837747139195464,0.004181687500801539,-0.005933175145776639,-0.018443151973479593
14.734,0.2245666584441523,-0.5700727985854656,0.19771357206634482,-0.4872189481521273,0.004192855622992828,-0.006191914825220509,-0.018983424192896003
14.768,0.17597034898520017,-0.770249437415975,-1.4593486324009648,-6.0113104753906725,0.0031763929987587824,-0.004924027721657999,-0.02564930626595197
14.8,0.1978130517692477,-0.6253390876918667,0.6559370205419681,4.351662153877123,0.0034411297785064106,-0.005616754172099527,-0.020823791620139163
14.835,0.21130245181081989,-0.5496325292565426,0.4050870883355007,2.2734702232830073,0.0035577330577485065,-0.006070558401310605,-0.01830276322424287
14.867,0.1723822268036283,-0.556414768381249,-1.168775525741489,-0.2036708445857788,0.0028107370250386975,-0.00500501568192196,-0.018528611787095594
14.9,0.17971812431507433,-0.4644099301431296,0.2202972225659469,2.762908055198782,0.0028412549798535938,-0.00526708226202378,-0.015464850673766217
14.934,0.18519018192784906,-0.47869285891120367,0.16432605443767934,-0.4289167798220443,0.0028421808213938775,-0.005472753683075242,-0.015940472201743085
14.967,0.188983718137259,-0.4755702577032718,0.113920006288587,0.09377180804600123,0.0028113046800276984,-0.005630237434854072,-0.015836489581518953
15.0,0.18900669049537797,-0.4758579616748913,0.0006898606041730072,-0.008639758907491878,0.0027220963239456032,-0.005674753460341524,-0.01584607012377388
15.035,0.19467787845242984,-0.4903256595732695,0.1703059446562125,-0.43446540235369985,0.002709384272109026,-0.005889367838198578,-0.016327844463789876
15.068,0.15772338970430702,-0.5153230887337981,-1.109744406850535,-0.7506735483642206,0.002114879309733877,-0.0048075041942782365,-0.017160258854835478
15.099,0.17425182537533387,-0.43529230815045467,0.4963494195503559,2.4033267442445463,0.0022521584215802045,-0.005347634495902446,-0.014495233861410143
15.134,0.17947898402658743,-0.44834869541608285,0.15697173126887567,-0.39208370167051615,0.0022384308431878976,-0.005541580196641318,-0.014930011557355561
15.167,0.1607320460463099,-0.4037402102457655,-0.5629711105188452,1.339594149258779,0.0019340183525932183,-0.004990699597077117,-0.013444549001183992
15.199,0.16050895742111715,-0.40245932891908376,-0.006699358113896128,0.038464904705157614,0.0018642638391861536,-0.005009247935419722,-0.01340189565300549
15.234,0.16540023225740152,-0.4147796969437902,0.14688513021875002,-0.36998102176295583,0.0018506599155041735,-0.005187556452268549,-0.013812163908228215
15.268,0.15447874121815477,-0.3616612268347993,-0.32797270388128374,1.595149252522249,0.001665684907568623,-0.004866967404115305,-0.012043318853598817
15.299,0.15448184519000047,-0.3616725210633707,9.321236773848515e-05,-0.00033916602316620367,0.0016069824581256646,-0.004886772830967278,-0.012043694951410246
15.335,0.15919070145622177,-0.3727559859402157,0.1414070950817209,-0.3328367830884376,0.001594264925949936,-0.00505560020566701,-0.012412774331809184
15.368,0.14320576568312068,-0.3790832427487493,-0.48002810129432694,-0.19000771196797692,0.0013771358384236754,-0.004565543835080689,-0.012623471983533354
15.4,0.13699975565026745,-0.33725132953914205,-0.1863666676532502,1.2562136098981163,0.0012652718191905755,-0.004383098292883764,-0.011230469273653431
15.435,0.14117377594558952,-0.34765657770386665,0.12534595481447666,-0.3124699148565946,0.0012522307537595407,-0.004531212622921052,-0.01157696403753876
15.467,0.13239476749235835,-0.31322312110535905,-0.2636338874844198,1.034037735690919,0.0011275314916699482,-0.004262104606215256,-0.010430329932808458
15.501,0.13242044404774528,-0.3134043430662722,0.0007710677293373315,-0.0054421009283224025,0.0010832129441159886,-0.00427446515121503,-0.010436364624106865
15.535,0.13644812338390838,-0.32289379065169405,0.1209513314163094,-0.28496839595861445,0.001069435085981301,-0.004416052980490233,-0.010752363228701413
15.568,0.12450086136749142,-0.371524406344402,-0.35877663712963853,-1.4603788496308687,0.0009291427440710403,-0.004040394112365665,-0.012371762731268587
15.6,0.11369510633963982,-0.30474698540570283,-0.3244971479835314,2.0053279561170916,0.00080690286928329,-0.003699045409624373,-0.010148074614009905
15.635,0.11718052926511915,-0.3142743768938692,0.10466735511949951,-0.2861078524974892,0.000792301764178052,-0.0038208106566737063,-0.010465336750565846
15.667,0.11137589512153562,-0.2648993427350401,-0.17431333764515125,1.4827337585233962,0.0007180010647839226,-0.0036386413806659035,-0.008821148113076837
15.7,0.11134440410648705,-0.2646735187196889,-0.0009456761275846277,0.006781501962498675,0.0006856963278642347,-0.0036438002093448344,-0.008813628173365642
15.735,0.11468509777422753,-0.2725987858120808,0.10032113116337776,-0.2379960087805371,0.0006726675969455154,-0.0037592930479544736,-0.009077539567542292
15.768,0.12537814435358494,-0.33776490370846207,0.3211125098906128,-1.9569404773688068,0.0006935813648480172,-0.004117056723009335,-0.011247571293491788
15.801,0.12537824714265572,-0.3377646319888803,3.0867588823651817e-06,8.159747200576095e-06,0.0006472321301973013,-0.0041246006256888965,-0.011247562245229714
15.833,0.12911175790972967,-0.3472122594629183,0.11211744045267132,-0.28371253675789754,0.0006180216283181561,-0.004254746632141281,-0.01156216824011518
15.868,0.12655240739557183,-0.32328249525592767,-0.07685737279753282,0.7186115377474658,0.0005591770550179189,-0.0041769115871323126,-0.010765307092022393
15.901,0.12655926758263114,-0.32348024478021675,0.0002060116234026999,-0.0059384241528252675,0.0005141938832739871,-0.004182917555581479,-0.010771892151181219
15.935,0.13036931404295787,-0.3339907746769244,0.11441580961942138,-0.3156315284296589,0.0004824742116779477,-0.004314382233297789,-0.011121892796741584
15.968,0.12877400439347506,-0.2864455504538232,-0.0479071966811657,1.4277845112042402,0.00043252286135271134,-0.0042662892278339535,-0.009538636830112314
16.001,0.1287668761090793,-0.2868504969117926,-0.00021406259446702947,-0.012160554293375427,0.00039175873579748834,-0.004269986977435033,-0.009552121547162694
16.035,0.13268621147762277,-0.2956913633822635,0.1176977588151192,-0.2654914855997263,0.00036098789226451293,-0.004403661868650405,-0.009846522400629375
16.067,0.1080230977545586,-0.3633393487017807,-0.7406340457376629,-2.031471030616132,0.0002545325414157159,-0.0035881306085611625,-0.012099200311769299
16.101,0.11239555529373566,-0.27960045252075605,0.13130503120651832,2.5146815669977367,0.0002248559141844904,-0.0037359979656563314,-0.009310695068941176
16.135,0.11580950234020414,-0.28835786718524686,0.10252093232638085,-0.2629854253600845,0.00019527331600814962,-0.0038514945461277606,-0.009602316977268722
16.168,0.1250540052038162,-0.21011726659278604,0.27761269860696913,2.3495675853591838,0.00017633688838747854,-0.004160554710087996,-0.006996904977539776
16.201,0.1250802262730626,-0.21067539113330994,0.0007874194968882686,-0.016760496712429327,0.0001472139893828274,-0.004162560606443621,-0.007015490524739222
16.235,0.1288880740632442,-0.21709900162222523,0.11434978348893746,-0.19290121588334214,0.00012114188342382823,-0.004290253547207202,-0.007229396754020101
16.267,0.0939298750912266,-0.3876812824088051,-1.0497957649254535,-5.122591014612008,5.679675756996376e-05,-0.0031273274070042624,-0.012909786704213212
16.301,0.11106139393959036,-0.23571697393942703,0.5144600254763889,4.56349274682817,2.877223390577916e-05,-0.0036982230012969457,-0.007849375232182921
16.334,0.11444157200216089,-0.24296165015118512,0.10150684872584172,-0.21755784419693958,-7.246038103671428e-07,-0.003810893884839724,-0.008090622950034465
16.368,0.06023606163290318,-0.38768202781646466,-1.627793104181913,-4.345957287245631,-2.1442811970837462e-05,-0.002005732306349474,-0.012909811526288274
16.4,0.026872559493990884,-0.38768171825385683,-1.0019069711385074,9.2961744091691e-06,-2.1116646568765202e-05,-0.0008946008272972183,-0.012909801217853433
16.435,-0.00634730480839262,-0.39942944664664026,-0.9975935225940991,-0.3527846364199228,7.75648166683049e-06,0.00021122132303420514,-0.013301000573333123
16.468,-0.03985445259356864,-0.3876812309428205,-1.0062206542094898,0.35279927038497855,6.60789829851747e-05,0.0013254979862103596,-0.012909784990395924
16.501,-0.07321795602409287,-0.38768113818587124,-1.0019070099256524,2.785493970949206e-06,0.0001528217667147082,0.0024333468854669947,-0.012909781901589513
16.534,-0.1045872260611835,-0.3383839909188231,-0.9420201212339526,1.4803948128242685,0.0002602995855689641,0.0034729951887237766,-0.01126818689759681
16.567,-0.11360636475484487,-0.17757436020809875,-0.27084500581565685,4.8291180393610915,0.000315145406232571,0.0037699371805068457,-0.0059132261949296884
16.601,-0.10151050565973335,-0.7454683499532639,0.3632390118652107,-17.053873565920874,0.00033331802080278905,0.003363738890870212,-0.02482409605344369
16.635,-0.15368994301574948,-1.2838986696085117,-1.566950070751235,-16.169078668325756,0.0006763789787471945,0.005072589822975187,-0.042753825697963446
16.668,-0.14916955746473418,-1.2461361228599332,0.13574731384430344,1.1340104128702246,0.0008632434770400042,0.00489140052763016,-0.04149633289123578
16.701,-0.12447166157493308,-0.8144187321072526,0.741678555249282,12.964486208789209,0.0008599311402962357,0.004054591710483164,-0.027120143779171515
16.735,-0.1773342636111791,-1.3547809794223167,-1.5874655266139943,-16.227094513965888,0.0014328514472941594,0.005728243668189139,-0.04511420661476315
16.768,-0.17211865428729772,-1.3149359969681917,0.15662490462106232,1.1965460196433912,0.0016363986842104071,0.0054925067037168256,-0.04378736869904079
16.801,-0.09109616791345122,-0.8142708771421365,2.4331076989143092,15.03498858336502,0.0009686248456357632,0.002874602384742394,-0.027115220208833148
16.835,-0.059762063615438545,-0.8397034561146024,0.9409640930334137,-0.7637411102842603,0.0006871340592118594,0.001867617222434667,-0.02796212508861626
16.868,-0.02436948244343121,-0.8142684847800162,1.0628402754356554,0.7638129529905755,0.00030106040186418057,0.0007535652914504184,-0.027115140543174543
16.901,0.008994192649267076,-0.8142699575116846,1.0019121649458944,-4.422617622807507e-05,-0.00011861376769224343,-0.0002750081647531276,-0.0271151895851391
16.935,0.0433009024981793,-0.8389429990111122,1.030231526994361,-0.7409321771599884,-0.0006072660930666844,-0.0013077561360194962,-0.02793680186707004
16.968,0.0757211222735557,-0.8142654908416898,0.9735801734347265,0.7410663113940688,-0.0011244787918584442,-0.0022568091614384193,-0.027115040845028273
17.0,0.10340912770797633,-0.7433260361074555,0.8314716346672864,2.13031395598301,-0.0016150649509946836,-0.003041186772900803,-0.02475275700237827
17.035,0.13004559171458072,-0.4720644626037754,0.7998938140121435,8.145993198308712,-0.002108084149583328,-0.0037827216336444557,-0.015719746604705723
17.068,0.10340919311808025,-0.47738918233624045,-0.7998918497447587,-0.1599014934674194,-0.0017236376412400004,-0.002981056150794186,-0.01589705977179681
17.1,0.1262207560422168,-0.19224541634984676,0.6850319196437402,8.562875855447256,-0.0021443199626212765,-0.0036150119464587157,-0.006401772364449898
17.135,0.13004558666981916,-0.19807089206437545,0.11485977860667747,-0.17493921064650697,-0.0022334566280236994,-0.0037101199393680074,-0.006595760705743703
17.167,0.09782569704044189,-0.1260097178492485,-0.9675642531344526,2.1639992256794875,-0.0016951358002156038,-0.002781803168327589,-0.004196123604379975
17.201,0.10346604548166415,0.22053106216320478,0.16937983306973742,10.406630030404001,-0.0017882371650739834,-0.002945007426981189,0.00734368437003472
17.235,0.11285890349260101,0.306885997363149,0.2820678081362422,2.5932412972956214,-0.0019222887495586127,-0.0032293592949228377,0.010219303712192863
17.267,0.11421462599365959,0.2325736780037659,0.04071238741917637,-2.2316011819634554,-0.0019159512438735302,-0.0032854995475236227,0.007744703477525406
17.301,0.11419338531622966,0.23284256909441858,-0.0006378581810787812,0.0080748075271073,-0.0018900824656708302,-0.0032996340332122004,0.00775365755084414
17.335,0.11766127671631,0.23980517668563192,0.10414088288529562,0.20908731505145156,-0.0019206659500486032,-0.003415059164429749,0.007985512383631543
17.368,0.11732085434920073,0.12717129390493642,-0.010222893907185598,-3.3823988823031677,-0.0018942708195257092,-0.0034168230843549655,0.004234804087034383
17.4,0.11730974798970323,0.1273104357284289,-0.00033352430923417573,0.00417843313791225,-0.0018795984116087936,-0.003424494421892105,0.004239437509756683
17.434,0.12087226772039797,0.13107249581228547,0.10698257449533756,0.11297477729299014,-0.0019214811766034535,-0.003536790044169527,0.004364714110549107
17.467,0.12059502437193818,0.15598992162505557,-0.00832562607987343,0.7482710454285313,-0.001900185805795941,-0.0035377990653752828,0.005194464390114351
17.5,0.12057492105854153,0.1553014387596843,-0.0006037031050044861,-0.020675161122260206,-0.0018815102651647802,-0.0035470088143323164,0.005171537910697487
17.535,0.12425056143206953,0.15998708794380895,0.11037959079663645,0.14071018570944882,-0.0019196521656852524,-0.0036652643704366784,0.005327570028528838
17.567,0.13717400190781875,0.22026487276350515,0.3880913055780548,1.810143688279165,-0.0020936536880869854,-0.0040598249580908454,0.007334820263024722
17.601,0.1668651470459239,0.2662585771679993,0.8916259801232774,1.381192324459283,-0.002506731307077737,-0.00495903255384546,0.008866410619694377
17.635,0.18699720462066452,0.4616414295353308,0.6045662935357544,5.86735292394389,-0.0027415901295137785,-0.005590933290277721,0.015372659603526517
17.667,0.18602517806363003,0.3551179080692353,-0.029189986697732394,-3.198904548531396,-0.0026514638028009734,-0.005598467450563159,0.011825426338705538
17.7,0.2006746016839756,0.5363520519154336,0.4399226312416088,5.442466782168115,-0.002770291427629703,-0.0060810876168607315,0.01786052332878394
17.734,0.20683104022661913,0.5530020698788646,0.18487803431361943,0.5000005394423729,-0.0027411336901467147,-0.006318396845774839,0.01841496892696619
17.768,0.20329048994623716,0.4255881446341698,-0.10632283124270182,-3.826244001342186,-0.002592685856336891,-0.006253345976487818,0.014172085216317855
17.8,0.2180515975528373,0.6064435601030381,0.44327650470270646,5.431093557623674,-0.0026652596984189547,-0.006754142168659451,0.02019457055143117
17.835,0.2246357099713899,0.6251069021353638,0.19772109365022858,0.5604607216914614,-0.0026024900421049123,-0.007012912918124407,0.020816059841107615
17.867,0.203236105483285,0.5589379220188222,-0.6426307654085557,-1.987056459956204,-0.002229041795751496,-0.006390043593306162,0.01861263280322678
17.901,0.2179976803382522,0.7408743282099711,0.44329053618520137,5.463555741475943,-0.00224203309648524,-0.0069042292529868194,0.02467111512939204
17.935,0.2245325412297039,0.7640440137865302,0.19624206881236317,0.6957863536504225,-0.002130347827486047,-0.007166808137582233,0.025442665659091458
17.968,0.21793601426370401,0.8309184483558918,-0.19809390288287934,2.0082412783592067,-0.001882312658403394,-0.007008672929292393,0.0276695843302512
18.001,0.21792288239240928,0.8312772072683913,-0.00039435048933124226,0.010773540915900283,-0.0016875459302181527,-0.007057650920803665,0.02768153100203743
18.034,0.2245588318313887,0.8565238342365782,0.1992777609303126,0.758156966011619,-0.0015338977860001352,-0.007318537817473625,0.028522243680078056
18.068,0.20456483924601984,0.7751140057378053,-0.6004201977588244,-2.4447395945577437,-0.0012157199679766353,-0.00670245607065785,0.025811296391068918
18.101,0.2045802578593263,0.7754869854927423,0.00046302142061412744,0.011200593241351269,-0.0010423718772883007,-0.006732113026209455,0.025823716616908323
18.134,0.21080685983337472,0.7989509680970259,0.1869850442657184,0.7046241022307392,-0.0008918982235550647,-0.00696276982970549,0.026605067237630967
18.167,0.18842236690355899,0.5026380912749477,-0.6722069948893612,-8.898284589251597,-0.000662156530479494,-0.006239354002650454,0.016737848439455763
18.201,0.18981619745923298,0.7191151570970555,0.041856773443663405,6.500812787450684,-0.0005390579447478556,-0.006297699850991026,0.023946534731331952
18.234,0.19555706935325542,0.7403944741774461,0.17239855537604948,0.639018530942659,-0.0003975444435403757,-0.0064997392887913685,0.024655135990108958
18.267,0.18929232035448684,0.7179282487181474,-0.18813060056362108,-0.674661425204164,-0.00023194608057590854,-0.006299015174861155,0.023907010682314312
18.301,0.18927909487869773,0.7174854432734156,-0.0003971614351083529,-0.013297460802758348,-8.134430835966561e-05,-0.006302319008312772,0.02389226526100474
18.334,0.1950450426522478,0.7392564614731904,0.17315158479129364,0.653784330323567,7.370457912910567e-05,-0.006494417700561416,0.02461724016705724
18.368,0.15890875636462157,0.7263289482546478,-1.0851737623911784,-0.3882136101664436,0.00018913423179538484,-0.00528815142936158,0.024186753976879773
18.401,0.1585007557382427,0.7241897457803561,-0.012252271062428141,-0.06424031454329333,0.000315968230116359,-0.005268480945335332,0.02411551853448586
18.435,0.16334103946253456,0.7459242442941488,0.14535386559434982,0.6526876430568385,0.00045840259094593244,-0.005419765534312178,0.02483927733499516
18.467,0.13717652423962667,0.6335509888241014,-0.7857211778651016,-3.3745722363377593,0.0004894094591528518,-0.004541599915338756,0.02109724792784258
18.5,0.1368991729981321,0.6307641516548121,-0.008328866110948447,-0.0836888038825613,0.0005837160039025058,-0.00452113308756175,0.021004446250105245
18.535,0.14104695184068414,0.6501209563444613,0.12455792319976115,0.5812854261155909,0.0007005987546077483,-0.004644225068829432,0.021649027846270565
18.568,0.1522367545521816,0.6694405966031663,0.33603011145638045,0.5801693771382891,0.000866119451298105,-0.004994841349683427,0.02229237186688544
18.592,0.15203968669613901,0.6673212402422279,-0.005917953634912706,-0.06364433516331552,0.0009758016921886507,-0.004967889999332771,0.022221797300066192
18.634,0.15664808502801558,0.6873312873125619,0.1383903402965936,0.6009023144244424,0.0011205587051451617,-0.005094486575269426,0.022888131867508314
18.667,0.13418307116162023,0.6265127339624263,-0.6746250410328933,-1.8263829834875533,0.001055087333895574,-0.004341858829423218,0.0208628740409488
18.7,0.133956536611778,0.6242522215441467,-0.006802839334601434,-0.06788325580419295,0.001143338896572992,-0.004311655599424426,0.020787598977420087
18.735,0.13800654751839408,0.6430397376630291,0.12162194914763004,0.5641896732397119,0.0012713640827944036,-0.00441616705820427,0.021413223264178872
18.767,0.13163628822319842,0.585583642466586,-0.19129907793380366,-1.725408264157451,0.0012985932207384505,-0.0041866475034762545,0.019499935294137315
18.8,0.13155099548435273,0.5858877099223648,-0.0025613435088796895,0.00913115482819287,0.0013791073961170973,-0.00415782783377513,0.01951006074041475
18.834,0.13553782507915593,0.603830575978342,0.11972461245655266,0.5388248064858008,0.0015054749982396144,-0.004254847198177331,0.02010755818007879
18.868,0.11325627579259785,0.6066632704824695,-0.6691155941909332,0.08506590102484944,0.0013293816537636937,-0.0035293023355932457,0.020201886907066237
18.9,0.11056042376628206,0.5668081234800202,-0.08095651730678063,-1.1968512613348137,0.0013648043849488658,-0.0034192897639260056,0.018874710511884673
18.935,0.11388805318632503,0.5842323559611483,0.09992881141270182,0.5232502246585021,0.0014731207698731803,-0.0034946110969991282,0.01945493745350624
18.967,0.1313808733640519,0.6505462031551229,0.5253099152470534,1.9914068226418795,0.0017818966530538884,-0.003995569141450898,0.021663188565065595
19.0,0.12860547209677514,0.6113166933637727,-0.0833453834017047,-1.1780633570976036,0.0018260411326040493,-0.003873664881112267,0.020356845889013632
19.035,0.1325192028928538,0.6298632461933252,0.11752945333569523,0.556953538425001,0.0019636895395240515,-0.003951810071690661,0.02097444609823773
19.068,0.11276147008678811,0.6721546000906392,-0.593325309491462,1.2700106275469663,0.0017434106267393442,-0.003325602573099834,0.02238274818301829
19.1,0.10996876099517018,0.6335752589541471,-0.08386513788642419,-1.15853877286763,0.0017703385127370505,-0.0032055191895856896,0.0210980561231731
19.134,0.113318553971369,0.6528792988142856,0.10059438366963423,0.5797008967008561,0.001894591308334554,-0.0032633302598334153,0.021740880650515715
19.167,0.12349203230440335,0.6811504181257644,0.30550985985088136,0.8489825619062685,0.00214315502039283,-0.003509565042739267,0.022682308923587954
19.201,0.12353515264773697,0.6815848902250351,0.0012949052052137879,0.013047210188309963,0.0022230028592488123,-0.0034612467216700656,0.02269677684449367
19.235,0.12727356581860844,0.7020331486987293,0.1122646597859299,0.6140618160268542,0.0023718077398858957,-0.0035122829912945666,0.02337770385166769
19.268,0.1262717404054131,0.5235881987830988,-0.03008484724310279,-5.358707204673589,0.0024237773924167846,-0.003435929275793356,0.017435487019477194
19.301,0.12625471658200285,0.5234740851811877,-0.0005112259282360822,-0.003426834892226991,0.0024829718272200377,-0.003392696711644389,0.017431687036533552
19.334,0.13005730609227922,0.5389860789738155,0.11419187718547662,0.46582563941825217,0.002619173822475523,-0.00344908561943669,0.017948236429828058
19.368,0.09553165728832426,0.7473084075631284,-1.036806270389038,6.255925783462852,0.001977664211415764,-0.0024916625167876235,0.02488536997185218
19.401,0.10895002403888299,0.5978988245592243,0.402953956473235,-4.4867742643815065,0.002318543453721783,-0.0027904417593616754,0.01991003085782217
19.435,0.11225077961462498,0.615854727343803,0.09912178906132126,0.5392162998371982,0.0024463924544413217,-0.00282611953972593,0.020507962420548642
19.468,0.09592676310746025,0.5845200082422499,-0.49021070592086297,-0.9409825556021938,0.0021384793711193683,-0.002372873231121254,0.019464516274466923
19.5,0.10931072318546776,0.4347982305927351,0.4019207230632888,-4.4961494789644085,0.002482400494287656,-0.002662216947624175,0.01447878107873808
19.535,0.11267057174090897,0.44793459266339597,0.10089635301625241,0.39448534746729363,0.0025987526403543986,-0.002706141668555847,0.014916221935691087
19.568,0.11931623736271957,0.42941571621070135,0.19956953819251044,-0.5561224159968354,0.0027936049138723917,-0.002825254823313092,0.014299543349816356
19.6,0.11934667475598891,0.4291600535023762,0.0009140358339141715,-0.007677558808563547,0.0028344288295004227,-0.0027857426135781686,0.014291029781629128
19.635,0.12298285968968213,0.44216418278545055,0.10919474275355016,0.39051439288511625,0.002962121796964588,-0.0028279414666130286,0.014724067286755505
19.667,0.10240797913746252,0.8045083008372835,-0.6178642808474356,10.88120474630129,0.002514854571794867,-0.002303080003011818,0.026790126417881543
19.7,0.12455942750624827,0.6641305115491494,0.6652086597232955,-4.215549227871897,0.0031264394121905334,-0.0027256485967447294,0.022115546034586677
19.735,0.12975926735201618,0.6678516710049964,0.15615134671975708,0.1117465302056173,0.0033191199951077915,-0.0027665090320348694,0.022239460644466382
19.768,0.12136387984217538,0.40867851772725905,-0.2521137390342582,-7.782977575908029,0.003150292575813249,-0.0025314931528139114,0.013608994640317727
19.801,0.12284468945093414,0.3927182452369174,0.044468757019782736,-0.47928746217242196,0.0032226380993838353,-0.0025196075210293664,0.01307751756638935
19.835,0.12657534802815595,0.40455419986779384,0.11203178910576005,0.3554340729992926,0.003354673543303862,-0.002551818343226102,0.013471654855597537
19.868,0.12692391768088057,0.4813913508108085,0.010467557138877398,2.307421950240681,0.00340127929018671,-0.002508940151098036,0.016030331981999924
19.9,0.12694464190295282,0.48171270905193925,0.0006223490111786552,0.009650397631553162,0.0034416346469195083,-0.0024544787504343357,0.01604103321142958
19.935,0.1307540099084609,0.4962298017237081,0.11439543560084305,0.4359487288819481,0.00358560242879195,-0.0024700779189819637,0.016524452397399483
19.968,0.10966055488286575,0.636052360501809,-0.6334370878557101,4.198875638982009,0.003045662938077447,-0.0020145287091309673,0.021180543604710243
20.0,0.10962656239242376,0.635625978100183,-0.0010207955087684429,-0.012804276325107165,0.003086674556014682,-0.0019489905131683187,0.021166345070736094
20.034,0.11293658446381905,0.6547203934691547,0.0994000622040627,0.5734058669360875,0.0032222685026910406,-0.0019390600347911427,0.02180218910252285
20.067,0.12464825728665746,0.7083673379837736,0.35170188657172413,1.6110193547933611,0.0036040611938961877,-0.0020588774828997278,0.023588632354859664
20.1,0.12461247214220017,0.7080111899526911,-0.001074628962681377,-0.010695136068544324,0.0036505601953123377,-0.0019727528960728803,0.023576772625424614
20.134,0.1283891572106766,0.7294243690258795,0.11341396602031292,0.6430384106062583,0.0038087575498346044,-0.0019419478036477509,0.02428983148856179
20.167,0.08760716734395063,0.4089709440553524,-1.2246843803821608,-9.623225975090902,0.0026236224253875064,-0.0012756261468119651,0.013618732437043236
20.201,0.05424498431688895,0.40895258210335744,-1.0018673581700204,-0.0005514099698183066,0.001635111379157269,-0.0007676519361831525,0.013618120984041804
20.235,0.02185446072459228,0.4213483560340637,-0.972688396165065,0.37224546338457154,0.0006629731254981581,-0.00030013857504784396,0.014030900255934321
20.267,7.07851465530406e-08,0.24557641715529888,-0.6562879861695413,-5.278436602965909,2.15799980195552e-09,-9.482300536122088e-10,0.008177694691271453
20.3,-4.675272148443451e-06,0.24551660140498402,-0.0001425242430929877,-0.001796268778223923,-1.430405729932661e-07,6.146190058017943e-08,0.008175702826785968
20.334,-7.950371216064706e-06,0.2529172132205029,-9.835132335198965e-05,0.2222405950606277,-2.441016142449367e-07,1.0249464879085472e-07,0.008422143200242748
20.368,0.021214332990687784,0.16340997607614607,0.6373058066637792,-2.687905019350055,0.0006532285722059903,-0.00026896996808181895,0.005441552203335665
20.4,-3.4990955990545993e-07,-7.977153352293178e-06,-0.6370775645720027,-4.907446042927878,-1.078640616153395e-08,4.40707096647968e-09,-2.6563920663136287e-07
20.434,-1.525117046946428e-05,-0.00019603760606826438,-0.0004474853125993639,-0.005647461042521657,-4.701360284377867e-07,1.9208834824434691e-07,-6.5280522820732045e-06
20.468,-2.2380912020806745e-05,-0.0001424533296568687,-0.00021410635289316712,0.0016091374297716415,-6.899174644879005e-07,2.8189126411913113e-07,-4.743695877573729e-06
20.5,-2.9937599424594943e-05,0.0002566916988756341,-0.00022692754966330923,0.011986337193168252,-9.228617994019274e-07,3.7706722822775676e-07,8.547833572558616e-06
20.535,-2.4574820544886722e-05,0.00021282556541926502,0.00016104441080204865,-0.0013173013049960682,-7.575502372502299e-07,3.0951653943087685e-07,7.0870913284615256e-06
20.568,-1.916842348575981e-05,0.00017006871910751895,0.0001623542660398472,-0.0012839893787311132,-5.90892680424668e-07,2.4141993299013463e-07,5.663288346280382e-06
20.6,-1.96656844668201e-05,0.00017316670067049348,-1.4932762194002759e-05,9.303247936860472e-05,-6.062228407940322e-07,2.4767930554453384e-07,5.766451132327433e-06
20.635,-1.9909177027308863e-05,0.00017535296705764017,-7.3120889035664295e-06,6.56536452596602e-05,-6.137303021436699e-07,2.5074240928981194e-07,5.839253803019418e-06
20.667,-1.942617814261734e-05,0.00017104454812270946,1.4504471011757467e-05,-0.00012938194999791906,-5.988425467189679e-07,2.446559162435496e-07,5.695783452486226e-06
20.7,-1.9472068188654778e-05,0.00017146176979933626,-1.378079460583735e-06,1.2529179478282142e-05,-6.00258578177201e-07,2.452304386135106e-07,5.709676934317898e-06
20.734,-2.000139615157773e-05,0.0001761225766749163,-1.5895734622310824e-05,0.0001399641704378393,-6.165774423851011e-07,2.5189320523380523e-07,5.864881803274714e-06
20.767,-1.9422923734622994e-05,0.00017111598424099145,1.7371544052694724e-05,-0.0001503481211388847,-5.987464492573433e-07,2.446045885700923e-07,5.6981622752250156e-06
20.801,-1.9421558404351736e-05,0.00017117893686308567,4.1000909046811585e-08,1.89046913195851e-06,-5.987057544371372e-07,2.4458398200544354e-07,5.700258597540753e-06
20.835,-1.9995253876420765e-05,0.00017623855000395452,-1.722809225432521e-05,0.00015194033456062623,-6.16392443756117e-07,2.518052086400749e-07,5.868743715131686e-06
20.868,-1.9402867666665436e-05,0.0001710754209405252,1.778937566832819e-05,-0.00015504892082370353,-5.981324040039343e-07,2.443416828114214e-07,5.696811517319489e-06
20.9,-1.9400170459883192e-05,0.00017104674266755557,8.099720066800228e-08,-8.612093984869852e-07,-5.980506488373602e-07,2.4430431000272687e-07,5.6958565308296015e-06
20.934,-1.9982726351537442e-05,0.00017616470514979907,-1.7494170920548055e-05,0.00015369256703433914,-6.160106019074985e-07,2.516368139900879e-07,5.866284681488309e-06
20.968,-1.9387279914875403e-05,0.00017097787169256654,1.7881274374235402e-05,-0.00015576076448145718,-5.976560934254239e-07,2.441350712188112e-07,5.693563127362466e-06
21.001,-1.938621255262076e-05,0.00017090493095603274,3.205292055980992e-08,-2.19041250852271e-06,-5.976245792268945e-07,2.441182285566124e-07,5.691134200835891e-06
21.035,-1.996433049420752e-05,0.000176092990719609,-1.736089914674948e-05,0.0001557975904977858,-6.154478465679848e-07,2.513945438491184e-07,5.86389659096298e-06
21.067,-1.9375757147030412e-05,0.00017081777835658117,1.7674875290603805e-05,-0.00015841478567651143,-5.973050861885013e-07,2.439796692924162e-07,5.6882320192741535e-06
21.1,-1.936271653187612e-05,0.00017082505196172279,3.916100646935138e-07,2.1842658082913304e-07,-5.969044642366461e-07,2.438120663751036e-07,5.68847423032537e-06
21.135,-1.994467967021647e-05,0.00017594939000470624,-1.747637052073131e-05,0.00015388402531481854,-6.14846392532152e-07,2.51136498228985e-07,5.859114687156719e-06
21.168,-1.9353790236337558e-05,0.0001707189351166819,1.774442744381121e-05,-0.00015707071735808804,-5.966321023858327e-07,2.436927793834552e-07,5.684940539385509e-06
21.201,-1.9348277791062534e-05,0.0001706799977228322,1.6553889714785207e-07,-1.1692911065981701e-06,-5.964635514043173e-07,2.436199790696571e-07,5.683643924170313e-06
21.235,-1.9931937442042967e-05,0.00017577155177607852,-1.7527316846259248e-05,0.00015289952111850825,-6.144579032697348e-07,2.509654686806822e-07,5.853192674143415e-06
21.267,-1.9337346142923286e-05,0.00017057867740133002,1.7855594568158604e-05,-0.00015594217341587073,-5.96129362031698e-07,2.4347545897603e-07,5.68026995746429e-06
21.301,-1.9330942272176284e-05,0.0001705284657786825,1.9230843084090316e-07,-1.5078565359615941e-06,-5.959333266236501e-07,2.4339144364886303e-07,5.678597910430128e-06
21.334,-1.9908178934969357e-05,0.00017566037347427845,-1.7334434318110302e-05,0.00015411134221008852,-6.137297945439027e-07,2.5065576000796944e-07,5.849490436693473e-06
21.368,0.05491223984247956,0.1634653945662193,1.649614054697133,4.903595621403754,0.0016947111487074723,-0.0006867618633356244,0.005443397639055103
21.4,0.08827577979884522,0.16346569455168922,1.0019081067977675,9.00857266994837e-06,0.002730351809032417,-0.0010891779575581907,0.005443407628571251
21.435,0.12385323555804781,0.1825659944623117,1.0683920648409184,0.573582579898573,0.003839494735086298,-0.0015060489368211815,0.00607944761559498
21.467,0.12622089796207564,0.24132806737385132,0.07110097309392886,1.7646268141603487,0.003923623703578887,-0.001507183298054592,0.00803622464354925
21.5,0.12622085037085556,0.2413269290788075,-1.4291657680455083e-06,-3.418303434854597e-05,0.003935607430091074,-0.0014756033668249806,0.008036186738324291
21.535,0.13005743600029646,0.24878632663004915,0.11521278166489163,0.22400593246971895,0.00406750508257028,-0.001487312756349192,0.008284584676780638
21.568,0.086516223287829,0.17719301122055942,-1.3075439252993228,-2.1499494116963884,0.0027127204235006495,-0.0009701693457250163,0.005900527273644629
21.601,0.05312901957632489,0.17748835396091756,-1.0026187300751983,0.008869151362106302,0.0016693522501195193,-0.0005859263476636644,0.005910362186898555
21.635,0.020729419405674847,0.1825588186765443,-0.9729609660855868,0.15226620767647894,0.0006526920727244282,-0.00022470294610412277,0.006079208661928926
21.667,-2.7303725472661467e-05,0.00033855691157854225,-0.6233250189533786,-5.4720799328818535,-8.605910701857228e-07,2.9334828038980215e-07,1.1273945155565458e-05
21.701,-5.131145211450032e-05,0.0006394880753503819,-0.0007209527520071728,0.009036971885040228,-1.6173039331695092e-06,5.512583681449993e-07,2.1294952909167717e-05
21.734,-2.57426785537845e-05,0.00094294148642613,0.0007678310378593339,0.009112715047319765,-8.113999397311713e-07,2.76541969450883e-07,3.1399951497990135e-05
21.767,-8.015366415197338e-06,0.0011052030787527564,0.0005323517158734883,0.004872720490289079,-2.52644393545034e-07,8.609684585989451e-08,3.680326252246679e-05
21.801,-8.278540725569625e-06,0.0011050614941268513,-7.903132443612239e-06,-4.25179056772188e-06,-2.609429215539245e-07,8.891412286267499e-08,3.679854775442415e-05
21.834,-8.804465653841706e-06,0.0011384127945669243,-1.579354138955197e-05,0.001001540553755947,-2.775238181607432e-07,9.455235496338907e-08,3.790914605907858e-05
21.868,-8.803699111376566e-06,0.0011048080119626636,2.3019293247438484e-08,-0.0010091526307585796,-2.775031871230718e-07,9.453375838450612e-08,3.67901067983567e-05
21.9,-9.049580513982443e-06,0.0011046953828214151,-7.3838259040803736e-06,-3.382256493947706e-06,-2.852572394035648e-07,9.716352871348098e-08,3.678635624795313e-05
21.934,-9.572325983076101e-06,0.001138061023718238,-1.5698062134944706e-05,0.0010019711981027882,-3.0173884960234525e-07,1.0276487441140561e-07,3.789743208981733e-05
21.967,-9.523723971451626e-06,0.001104489412953627,1.459519868602868e-06,-0.001008156479417748,-3.002106344351786e-07,1.0223189224925066e-07,3.6779497451355784e-05
22.001,-9.745071304466777e-06,0.0011043994965989846,-6.64706705751205e-06,-2.700190830100053e-06,-3.071918806203395e-07,1.0459663521386595e-07,3.6776503236746194e-05
22.035,-1.0263315091650313e-05,0.00113778258365644,-1.556287649199808e-05,0.0010024951068304901,-3.235324853202695e-07,1.101470157381691e-07,3.788816003575945e-05
22.068,-1.0169632571330463e-05,0.0011042466000727143,2.8132888984940057e-06,-0.0010070865941058753,-3.2058338695341296e-07,1.0912963748996946e-07,3.677141178242139e-05
22.101,-1.0366847519286373e-05,0.0011041851869238737,-5.922370809486794e-06,-1.8442387039232555e-06,-3.2680440160093686e-07,1.1123392107406156e-07,3.6769366724564995e-05
22.135,-1.0879919281899527e-05,0.0011375824193028796,-1.5407560438833444e-05,0.0010029198912614387,-3.429828280116455e-07,1.1672626274094644e-07,3.788149456278589e-05
22.167,-1.0745689096574288e-05,0.0011040681450601852,4.030936496253413e-06,-0.0010064346619427754,-3.3875560582982583e-07,1.1527351780097992e-07,3.676546923050417e-05
22.201,-1.0921197141588411e-05,0.0011040224874723644,-5.270511862285979e-06,-1.371098733355378e-06,-3.44292767298863e-07,1.1714360853037204e-07,3.6763948832829736e-05
22.235,-1.1428199715406388e-05,0.001137439535051902,-1.5225302517056353e-05,0.0010035149423284543,-3.602806921030846e-07,1.2256840463884959e-07,3.787673651722834e-05
22.267,-1.1255769796574637e-05,0.00110395791136414,5.178075640593108e-06,-0.0010054541647976558,-3.5484924278203294e-07,1.2070583660459857e-07,3.676179844842587e-05
22.3,-1.1409799847990905e-05,0.0011039401963535006,-4.6255270695575966e-06,-5.319823014833962e-07,-3.5970968985890556e-07,1.223444172757235e-07,3.676120853857157e-05
22.334,-1.1909378577526821e-05,0.0011373837630002603,-1.5002364250327798e-05,0.0010043113107135028,-3.75464364205515e-07,1.2768726297555293e-07,3.787487930790867e-05
22.368,-1.170168550485668e-05,0.0011039309435827787,6.237029209313522e-06,-0.0010045891716961432,-3.689211519581207e-07,1.2544669941809463e-07,3.676090042130653e-05
22.399,-1.1835828260458795e-05,0.0011039385934635076,-4.028310979042478e-06,2.2972614801432966e-07,-3.7315495899912323e-07,1.2687104536921063e-07,3.6761155162334806e-05
22.434,-1.2328495711398244e-05,0.0011374072591882386,-1.4794818346530003e-05,0.0010050650367787093,-3.886925002679696e-07,1.3213755912598067e-07,3.7875661730968346e-05
22.467,-1.2090128100103233e-05,0.0011039770045556325,7.158186525375732e-06,-0.001003911550528712,-3.811820879011173e-07,1.295684954584551e-07,3.676243425170257e-05
22.501,-1.2207030818399697e-05,0.0011040065065860806,-3.51059214103497e-06,8.859468603051144e-07,-3.8487264971184067e-07,1.3080717932545203e-07,3.676341666931649e-05
22.534,-1.2693746774266606e-05,0.0011374990325839281,-1.4616094770778043e-05,0.001005781561496921,-4.0022328068018954e-07,1.3600775675676726e-07,3.7878717785044806e-05
22.567,-1.2428540448977624e-05,0.0011040869480133735,7.964153912582036e-06,-0.0010033659030196569,-3.918665155795325e-07,1.331515655946504e-07,3.676609536884534e-05
22.601,-1.2529694860671365e-05,0.0011041372774036786,-3.037670020833064e-06,1.5113931022552252e-06,-3.95060805668999e-07,1.3422074525940585e-07,3.67677713375425e-05
22.634,-1.3009800329565645e-05,0.0011376553845963463,-1.4417581648476858e-05,0.0010065497655455757,-4.10203714550659e-07,1.3934842562855072e-07,3.788392430705834e-05
22.667,-1.271967681836449e-05,0.0011042587984431559,8.712417753788448e-06,-0.0010029004850807936,-4.0106110050949565e-07,1.3622593190792133e-07,3.677181798815709e-05
22.7,-1.280619754416355e-05,0.0011043275081257442,-2.598219993965791e-06,2.0633538314801753e-06,-4.037942081417364e-07,1.371377079735763e-07,3.6774106020587285e-05
22.735,-1.328018608699306e-05,0.001137869572058907,-1.4233890175060375e-05,0.0010072691871820696,-4.187449235688577e-07,1.421978756248048e-07,3.789105674956161e-05
22.767,-1.296878410771528e-05,0.0011044834008178926,9.351410789122522e-06,-0.0010025877249553894,-4.08931119013203e-07,1.3884826487473207e-07,3.6779297247235826e-05
22.801,-1.3042871012254458e-05,0.001104567706441436,-2.2248319681434757e-06,2.5317004067093556e-06,-4.112723597981762e-07,1.3962633797495783e-07,3.678210462449983e-05
22.835,-1.351171273877749e-05,0.0011381325122070403,-1.4079331126817785e-05,0.00100795212509322,-4.2606144161032173e-07,1.446294656217961e-07,3.789981265649444e-05
22.867,-1.318217543802694e-05,0.0011047528345144678,9.896015037554082e-06,-0.0010023927235006745,-4.1567549376966256e-07,1.4108657319551337e-07,3.678826938933178e-05
22.9,-1.3245699791292048e-05,0.0011048504465630419,-1.9076382361894486e-06,2.9312927499714617e-06,-4.176838319155116e-07,1.417510970545825e-07,3.67915198705493e-05
22.934,-1.3710250254494415e-05,0.0011384371751565635,-1.3950464360431424e-05,0.0010086104682739223,-4.3233823339421984e-07,1.4670641437441457e-07,3.7909957932713566e-05
22.968,-0.013515974201219513,0.17791432736836388,-0.4054733919208714,5.308585291087306,-0.00042664059285734047,0.00014335607946404816,0.005924547101366518
23.001,-0.046937714671130046,0.17718957706017194,-1.003655869967283,-0.021764273519277486,-0.0014845373362419275,0.0004890723555599128,0.005900412916103726
23.035,-0.0823942370844305,0.18255834078269567,-1.0647604328318454,0.16122413581152353,-0.002611044978284409,0.0008428907378651283,0.006079192748063766
23.068,-0.11366471957773887,0.1771879338500274,-0.9390535283275786,-0.1612734814615096,-0.0036088962899763514,0.0011411911240218463,0.005900358197205913
23.1,-0.1470282607953627,0.17718928004279025,-1.0019081446733877,4.042620909449378e-05,-0.004676829485012615,0.0014485905988783905,0.005900403025424916
23.135,-0.18551767627406568,0.1825629633092294,-1.1558383026637535,0.16137186986303717,-0.005911983149757623,0.0017924263308842173,0.006079346678197339
23.167,-0.21801715861370827,-0.2302918641221303,-0.9759604306198975,-12.398042865806596,-0.006945977690991063,0.0021119469870249322,-0.0076687190752669394
23.2,-0.218017281669204,-0.2302920420827475,-3.695360232362047e-06,-5.34416267912181e-06,-0.0069295815835362295,0.0021651523584396946,-0.0076687250013554925
23.234,-0.2246238657352017,-0.23727179536903076,-0.19839591789782898,-0.20960220078928685,-0.007121985300271412,0.0022862756303683495,-0.007901150785788725
23.268,-0.1800629685992795,-0.002796603231886469,1.338165079156823,7.041297061175504,-0.005701768980199765,0.0018555344128356101,-9.312688762181943e-05
23.3,-0.21801697917143487,-0.4102578461772118,-1.1397600772419025,-12.23607336172148,-0.00688793085129432,0.002294054604567656,-0.013661586277701154
23.334,-0.22462350653588253,-0.4226894048368438,-0.19839421514857858,-0.37332007986882954,-0.007063190373780268,0.0024617597399373206,-0.0140755571810669
23.368,-0.21799083079641215,-0.4727064526960277,0.19917945163574707,-1.5020134492247408,-0.006818237133208201,0.0024909856887203813,-0.015741124874777725
23.4,-0.21797965401498187,-0.4728428290921696,0.00033563908199048714,-0.0040953872715299156,-0.006777829662562452,0.002597881543657276,-0.01574566620876925
23.435,-0.22460207019267392,-0.4869648183047554,-0.19887135668744885,-0.4240837601377112,-0.006940074369065571,0.002788065034023256,-0.016215928449548358
23.468,-0.18007812743575105,0.2661705163059534,1.3370553380457317,22.6166767150363,-0.005556097599531992,0.0022558314033655595,0.00886347819298825
23.501,-0.21802858668513966,-0.2035089161733883,-1.1396534309125708,-14.10448746184209,-0.0067298691565181165,0.002724219088318365,-0.00677684690857383
23.535,-0.22463552188661812,-0.20922317632145504,-0.19840646250686045,-0.1715994038458484,-0.006914352417512973,0.002854353359353138,-0.006967131771504454
23.567,-0.21804020294493615,-0.2711410882299802,0.19805762587633546,-1.8593967540097636,-0.00668896376691108,0.0028241340076739113,-0.00902899823805834
23.6,-0.21806915556017412,-0.2710728653378037,-0.0008694479050441571,0.002048735500794309,-0.006664080427427874,0.002884788158080614,-0.009026726415748865
23.635,-0.22468391787265785,-0.27953512541812575,-0.19864151088539728,-0.2541219243339948,-0.006838685646326856,0.003035113888172422,-0.009308519676423588
23.667,-0.1800241508543631,0.5027256843317316,1.3411341446935356,23.49131560810382,-0.00548833490884544,0.002411434906756054,0.016740765288246664
23.701,-0.21802101895837525,-0.03502118238292202,-1.141047090210575,-16.148554555995602,-0.006669350223791827,0.0028685907047238143,-0.0011662053733513032
23.735,-0.22464398329276555,-0.036253877367023984,-0.1988878178495586,-0.037017867390449426,-0.006868436832555395,0.002963884775951087,-0.0012072541163218988
23.767,-0.21795339796571164,-0.10418689095621032,0.2009184782899072,-2.0400304381137038,-0.006657128463279588,0.0028911844607905544,-0.003469423468841804
23.801,-0.21795227977313344,-0.10438304304436806,3.357935670263619e-05,-0.005890453097829912,-0.006647014042090738,0.002914270163558582,-0.003475955333377457
23.835,-0.22455683051659558,-0.10721830716964408,-0.1983348571610252,-0.08514306682510557,-0.006837815514055811,0.003026689914263174,-0.003570369628749148
23.868,-0.21797368985345028,-0.2107856562698869,0.19769191180616527,-3.1101306036108953,-0.006621698274511223,0.0029730564154028328,-0.0070191623537872345
23.901,-0.2179735429862672,-0.21080272199970518,4.410425918371379e-06,-0.0005124843789270848,-0.006600661652257641,0.003019461410142669,-0.007019730642590183
23.934,-0.2245650716790602,-0.21664493409971255,-0.19794380458837843,-0.1754418048050263,-0.006777953747390048,0.0031590880049582023,-0.007214276305520429
23.968,-0.2179577703215845,-0.2573487580175082,0.19841745818245338,-1.2223370545884569,-0.006554119917803446,0.003117958147805124,-0.008569713641983024
24.001,-0.21797900944752147,-0.2572388669165125,-0.0006378115896985445,0.0033000330629334796,-0.006527801441633722,0.0031743072597107693,-0.008566054268319866
24.034,-0.22462324703071945,-0.2650261779196095,-0.1995266541500897,-0.23385318327618573,-0.006698076485367873,0.003329432681232873,-0.008825371724722997
24.068,-0.18000811355736768,0.7224681504814753,1.3397937979985517,29.65448433636891,-0.005387743956511483,0.002627119530253055,0.02405818941103313
24.101,-0.1853224615421253,0.3718563676383189,-0.15959002957230128,-10.528882367662352,-0.0055952617550154935,0.0026032167285779126,0.01238281704235602
24.134,-0.2246612432790885,-0.03817595459922964,-1.1813447969058017,-12.313282950076532,-0.006800450707060658,0.0031180933873212373,-0.0012712592881543472
24.167,-0.21803378864879405,-0.09930902785386823,0.19902266157040419,-1.8358280256648223,-0.006592891995807099,0.003041209088139849,-0.0033069906275338123
24.201,-0.21803444755649642,-0.09985314366816304,-1.9787018089255322e-05,-0.016339814243087385,-0.006582790824573641,0.00306306392911269,-0.00332510968414983
24.235,-0.22461953883221572,-0.10332938030665538,-0.19775048876033918,-0.10439149064541549,-0.006770890440741065,0.0031784986847939022,-0.0034408683642116245
24.268,-0.2179882114703958,-0.22164685347892543,0.1991389598144122,-3.5530772724405417,-0.006554198510540055,0.0031201653344532444,-0.007380840220848218
24.3,-0.21794176707266938,-0.22229901571274327,0.0013947266584508693,-0.019584451466001136,-0.006529564779903673,0.0031678511897537042,-0.007402557223234352
24.334,-0.22454488169189082,-0.22858931906334556,-0.1982917303069503,-0.1888979985165854,-0.0067027022453221416,0.0033142411372942804,-0.007612024324809408
24.368,-0.1853690460309549,0.5668631286975941,1.1764515213494273,23.88746089372191,-0.0055485501083024176,0.0027047711908868882,0.018876542185629886
24.401,-0.19463301749767026,0.26561750397131334,-0.2781973413428039,-9.046415156945368,-0.005864714466547379,0.002758955253457792,0.008845062882244735
24.434,-0.22460018268516513,-0.027373222687335243,-0.8999148704953414,-8.798520320079536,-0.006780287837532149,0.003156884134299824,-0.0009115283154882637
24.467,-0.21797965437414682,-0.08731189091460669,0.19881466399454378,-1.799960006824968,-0.006574561148870686,0.0030763876184637254,-0.0029074859674564028
24.501,-0.2179966894520118,-0.08707724018942987,-0.0005115638998495738,0.007046568323627939,-0.006566114025703433,0.003095706297330025,-0.002899672098308015
24.535,-0.2246412921340549,-0.08964926907470992,-0.199537618079372,-0.0772381046630645,-0.006756834923340493,0.0032099600912346886,-0.0029853206601878407
24.568,-0.218063377181759,-0.17563886776404478,0.19753498355242938,-2.5822702309109564,-0.006545148016950154,0.0031449040182902495,-0.005848774296542692
24.601,-0.2180870024213354,-0.17559751912867827,-0.0007094666539463544,0.0012417007617569374,-0.006527351639683725,0.003183471475458625,-0.005847397386984987
24.635,-0.22468642378561757,-0.18129719705272015,-0.19818082175021481,-0.17116149922047702,-0.00670526373208836,0.003319707645326828,-0.0060371966618555815
24.667,-0.194600790107062,0.5188022654777927,0.9034724828395067,21.024007883799186,-0.005823426988124073,0.0028424861476459714,0.0172761154404105
24.7,-0.20532783372630345,0.23537093628026753,-0.3221334420192629,-8.51145132725301,-0.006181669897930996,0.0029218123319592394,0.007837852178132909
24.734,-0.22462367278191497,0.07909398723977297,-0.5794546262946403,-4.6930014726875235,-0.0067792554409255796,0.0031609475076494246,0.00263382977508444
24.767,-0.21795298880310643,0.013647355712803571,0.20032084020446078,-1.965364310119201,-0.006582660850385261,0.0030569162967966678,0.00045445694523635897
24.8,-0.2179698826147618,0.0137408775068963,-0.0005073216713324879,0.0028084622850669144,-0.006584564500371367,0.003054150905392099,0.00045757122097964684
24.834,-0.224558906142939,0.014398764846873073,-0.1978685744197356,0.019756376575879083,-0.006785083113472775,0.003143296361560024,0.0004794788694008734
24.868,-0.2053580900105966,0.08119309881250314,0.5766010850553271,2.0058358548237254,-0.006209492818187625,0.002864649837498735,0.002703730190456355
24.9,-0.21799876162979429,-0.13999449817276696,-0.3795997483242548,-6.6422701797378405,-0.00658872937523925,0.0030474316104469193,-0.0046618167891531405
24.934,-0.2246040556189095,-0.14404775080109497,-0.19835717685030685,-0.12171929814798821,-0.006773440670355646,0.0031718366717841486,-0.004796790101676463
24.968,-0.20545948617089665,0.23567529380293567,0.5749119954358213,11.403094432553472,-0.006200502414293755,0.0028920181474512683,0.007847987283637758
25.0,-0.2180375465499635,0.015275451713150647,-0.37771953090290794,-6.61861387657012,-0.006592874999290222,0.0030415523811979147,0.0005086725420479166
25.034,-0.2246603613719683,0.0162425558848108,-0.19888332798813219,0.029042167317121708,-0.006794774956806906,0.00313037317935802,0.0005408771109641997
25.067,-0.21806604539900606,-0.009173757933152633,0.19802750669556238,-0.763252667206109,-0.006595689775631283,0.0030377130441324074,-0.0003054861391739827
25.1,-0.21806409259523193,-0.009474784455896444,5.8642755979882764e-05,-0.009039835517832166,-0.006594687194839445,0.0030397336255164904,-0.0003155103223813516
25.134,-0.22465509703174996,-0.01021587610244895,-0.1979280611566975,-0.022255004400976185,-0.006792985070213391,0.0031338370576551528,-0.0003401886742115501
25.167,-0.21803746616429187,-0.11477403376300607,0.19872765367742012,-3.1398846144311445,-0.006586537236766298,0.0030552359918808603,-0.0038219753243081025
25.2,-0.2179961155740474,-0.1156723715989694,0.0012417594668005997,-0.02697711219109085,-0.006573519086421347,0.0030799012994950255,-0.0038518899742456814
25.235,-0.22456858031192073,-0.11958017209220036,-0.19737131344964917,-0.11735136616309184,-0.006759227369001484,0.0031992585827829273,-0.003982019730670272
25.267,-0.2179548528356342,-0.077364700203663,0.19861043472331902,1.2677318885446653,-0.006549948056760746,0.0031265339222128975,-0.002576244516781978
25.301,-0.21794700538513698,-0.0770289995687331,0.0002356591740909347,0.010081100148044884,-0.006541653658708482,0.0031432480615803415,-0.0025650656856388127
25.333,-0.22455504685948716,-0.07902092165156659,-0.19843968391441977,-0.05981747996496946,-0.00673155590580378,0.0032560507942300315,-0.0026313966909971677
25.367,-0.21795978608046987,0.044103243980745055,0.19805587924976836,3.6974223913607096,-0.006532010529910294,0.003164218174391071,0.0014686380245588105
25.4,-0.2179331122874972,0.04460601182997202,0.0008010148039839215,0.015098133610419449,-0.0065358770140768055,0.0031541808268083222,0.0014853801939380684
25.434,-0.22457640351119143,0.04603639658542571,-0.1994982349457725,0.042954497160771335,-0.006740008910903449,0.003240161923569413,0.0015330120062946762
