Time,linear_velocity_x,angular_velocity_yaw,linear_acceleration_x,angular_acceleration_yaw,kinematic_delta_x,kinematic_delta_y,kinematic_delta_yaw
0.163,-1.719066605822085e-06,3.1609339870289078e-06,8.661157617473568e-06,7.82394050078456e-05,-5.724491797387532e-08,-3.018961064166068e-15,1.0525910176806264e-07
0.197,-6.015785589794773e-06,6.944124572658213e-06,-0.0001290306001192999,0.00011360932689577492,-2.003256601401606e-07,-4.424283086274168e-14,2.3123934826951851e-07
0.231,-4.555180749356103e-06,4.020671740490534e-06,4.386200722038047e-05,-8.779137634137175e-05,-1.5168751895354578e-07,-6.125565498643003e-14,1.3388836895833477e-07
0.262,-4.0718697231607435e-06,8.63415594276306e-06,1.4513844630491282e-05,0.00013854306913731312,-1.3559326178122678e-07,-8.324944377115208e-14,2.8751739289400996e-07
0.29700000000000004,9.32986445202334e-06,-8.276266872831894e-05,0.0004024544797352577,-0.0027446493895219816,3.1068448625221925e-07,-1.9265236602339343e-13,-2.755996868653021e-06
0.33,1.1023749613368268e-05,-1.1178698141830708e-05,5.0867422262610436e-05,0.002149668786381028,3.670908621242853e-07,-8.018565419589328e-13,-3.7225064812296264e-07
0.36200000000000004,3.270241046128665e-07,2.9723678773551897e-06,-0.00032122298825091293,0.00042495693751308993,1.0889902683579099e-08,-2.5260268951723887e-14,9.897985031592782e-08
0.398,-6.872089428042157e-08,7.344636686622562e-06,-1.1884234200999641e-05,0.00013129936364166282,-2.2884057795327474e-09,4.919720251509902e-15,2.4457640166453134e-07
0.43000000000000005,-6.027458556292078e-08,7.790783877885536e-06,2.5364290442945315e-07,1.3397813551440676e-05,-2.0071436992416467e-09,3.8076852107825416e-15,2.594331031335884e-07
0.463,-4.963198352803622e-08,7.969990940988487e-06,3.1959765870524197e-07,5.381593486575096e-06,-1.6527450514813936e-09,2.701204380100569e-15,2.6540069833491664e-07
0.49700000000000005,-4.1776302057345474e-08,8.302143061111076e-06,2.3590635047119352e-07,9.974538141819499e-06,-1.391150858508306e-09,1.8972199954308448e-15,2.7646136393499885e-07
0.53,-3.272336095787947e-08,8.114188393765558e-06,2.718600930770572e-07,-5.644284304670235e-06,-1.0896879198967346e-09,1.188294164483236e-15,2.702024735123931e-07
0.5640000000000001,-2.5852301600760764e-08,8.15046529366802e-06,2.063381188323935e-07,1.089396393467355e-06,-8.608816433050418e-10,7.057075413845259e-16,2.714104942791451e-07
0.5980000000000001,-1.99884730189028e-08,8.419199150657166e-06,1.7609094840414304e-07,8.070085795469827e-06,-6.656161515293629e-10,3.6190084966831635e-16,2.8035933171688365e-07
0.625,-1.3197030055343765e-08,8.178460301881531e-06,2.0394723614291394e-07,-7.229394858127159e-06,-4.3946110084293033e-10,1.1734272937151846e-16,2.72342728052655e-07
0.664,-7.0798857067254436e-09,8.171644652735348e-06,1.8369802848703667e-07,-2.0467414853403853e-07,-2.3576019403395656e-10,-1.1542722363518373e-18,2.721157669360871e-07
0.6970000000000001,-6.244405593195368e-10,8.397432862185871e-06,1.93857211633811e-07,6.780426710225933e-06,-2.079387062533969e-11,-5.828536152390819e-18,2.7963451431078956e-07
0.7290000000000001,6.411003259796797e-09,8.113584141381694e-06,2.1127458916265262e-07,-8.523985609735062e-06,2.1348640855119974e-10,1.186919540482385e-16,2.7018235190801043e-07
0.755,1.4181087535489864e-08,8.059408372905762e-06,2.3333586413492692e-07,-1.6268999542321972e-06,4.722302149316506e-10,3.895307610719289e-16,2.683782988177619e-07
0.798,2.4056735182487984e-08,8.224344491222455e-06,2.9656599540534893e-07,4.953036586086894e-06,8.01089281576366e-10,8.781168510623181e-16,2.738706715577078e-07
0.8280000000000001,3.43219033174231e-08,7.87799641737801e-06,3.082633073554089e-07,-1.0400843058391766e-05,1.1429193804691222e-09,1.559411912688481e-15,2.6233728069868776e-07
0.8630000000000001,4.7588220891430655e-08,7.740314809021523e-06,3.983879151353619e-07,-4.134582833528116e-06,1.5846877556825457e-09,2.5733118767126064e-15,2.577524831404167e-07
0.896,6.642344708297088e-08,7.783319043329238e-06,5.656224081543611e-07,1.291418447679115e-06,2.211900787859004e-09,4.164143489822398e-15,2.591845241428636e-07
0.925,8.595048916837177e-08,7.308052665524757e-06,5.863976602222487e-07,-1.4272263597732143e-05,2.862151289300261e-09,6.108254611895875e-15,2.4335815376197443e-07
0.9620000000000001,1.130741331198451e-07,6.988371996201153e-06,8.145238423865863e-07,-9.60002009980794e-06,3.765368632880242e-09,8.92978998626351e-15,2.327127874734984e-07
0.9950000000000001,1.5274966436863193e-07,6.765072195128943e-06,1.1914573948584634e-06,-6.705699731898199e-06,5.086563823458217e-09,1.323334761759598e-14,2.2527690409779383e-07
1.031,1.923627382708135e-07,6.030444171050523e-06,1.1895817988643112e-06,-2.2060901623976565e-05,6.405679184392726e-09,1.8026012237360126e-14,2.0081379089598245e-07
1.063,2.4474683137011476e-07,5.389499487836765e-06,1.5730958888679057e-06,-1.9247588084497228e-05,8.150069484588038e-09,2.448260077265635e-14,1.794703329449643e-07
1.097,3.142872318751772e-07,4.789330266208793e-06,2.0883003154673406e-06,-1.8023099748587753e-05,1.046576482139067e-08,3.3214810071750436e-14,1.5948469786475284e-07
1.13,-3.823605373421955e-06,5.6268040038643046e-05,-0.00012426103919811206,0.0015459072003734008,-1.2732605893381469e-07,-5.33528490996244e-13,1.8737257332868136e-06
1.163,2.5078249863139385e-07,5.348431725032714e-06,0.00012235399015175221,-0.0015291173667750849,8.351057204311788e-09,4.3556278662955626e-14,1.781027764435894e-07
1.198,2.0393128895278264e-07,6.200882131592246e-06,-1.406943233591928e-06,2.559911130809405e-05,6.790911922028342e-09,3.673149446770741e-14,2.064893749820218e-07
1.23,1.541210291321175e-07,6.574784393597033e-06,-1.495803598218172e-06,1.1228296156299893e-05,5.132230270018404e-09,2.885130678480036e-14,2.189403203067812e-07
1.258,1.198570880983179e-07,7.010857356121519e-06,-1.02894717819218e-06,1.3095284159894477e-05,3.991241033605759e-09,2.333816337444933e-14,2.334615499588466e-07
1.298,9.569855958730883e-08,7.578145521013233e-06,-7.254813366669393e-07,1.7035680627378804e-05,3.1867620341982754e-09,1.9408094987781584e-14,2.523522458497407e-07
1.33,7.215772552044383e-08,7.620987995326187e-06,-7.069319539599098e-07,1.2865607901787879e-06,2.4028522597824304e-09,1.5242274895779797e-14,2.5377890024436204e-07
1.363,5.646367917766615e-08,7.823200267278131e-06,-4.7129268296629664e-07,6.07244059915749e-06,1.8802405165753146e-09,1.2410529042075801e-14,2.6051256890036176e-07
1.396,4.547295885182944e-08,8.22486814141471e-06,-3.300516614365377e-07,1.2062098322419763e-05,1.5142495297302074e-09,1.039918195098349e-14,2.7388810910910986e-07
1.431,3.4508164574089576e-08,8.108536662930452e-06,-3.292731014336296e-07,-3.493437792320039e-06,1.1491218802878907e-09,8.204259390882335e-15,2.700142708755841e-07
1.463,2.7023678310105513e-08,8.206872244349945e-06,-2.2475934726678867e-07,2.9530204630478325e-06,8.998884877017962e-10,6.669192874717595e-15,2.732888457368532e-07
1.497,2.1593671275502418e-08,8.538319293335881e-06,-1.6306327431240523e-07,9.953364834412507e-06,7.19069253452964e-10,5.5296578219603915e-15,2.8432603246808487e-07
1.53,1.6064560292627424e-08,8.352559335869671e-06,-1.6603936885510491e-07,-5.57837710108738e-06,5.349498577274958e-10,4.264413551911518e-15,2.781402258844601e-07
1.561,1.2134099931045242e-08,8.405538179404052e-06,-1.1803184269015562e-07,1.590956262293698e-06,4.0406552769005443e-10,3.3336162688405616e-15,2.7990442137415495e-07
1.598,9.116236814480802e-09,8.706327921866814e-06,-9.062652001695012e-08,9.032724998881768e-06,3.035706859111509e-10,2.5910833983901164e-15,2.89920719798165e-07
1.63,6.117280335935825e-09,8.487803822650548e-06,-9.005875310945878e-08,-6.562285261749732e-06,2.0370543517873713e-10,1.7969846088619212e-15,2.8264386729426326e-07
1.663,3.862785766926122e-09,8.5191289303235e-06,-6.770253960990098e-08,9.406939241126772e-07,1.2863076603330779e-10,1.1711667072012068e-15,2.836869933797726e-07
1.698,1.987619238366381e-09,8.805270000120978e-06,-5.6311307163956186e-08,8.592824918843171e-06,6.618772063468053e-11,6.217166485686552e-16,2.932154910040286e-07
1.73,2.837034311179802e-10,8.56966932101484e-06,-5.1168642860312324e-08,-7.075095468652787e-06,9.447324255785854e-12,9.147464906807167e-17,2.853699883897942e-07
1.764,-1.1048648282560756e-09,8.589628237916432e-06,-4.1698746527749423e-08,5.993668739216656e-07,-3.6791998779099324e-11,-3.6675314971100654e-16,2.860346203226172e-07
1.7970000000000002,-2.3904568014732863e-09,8.868132943200204e-06,-3.8606365562078394e-08,8.363504663176352e-06,-7.960221148487127e-11,-8.165801327666384e-16,2.9530882700856683e-07
1.83,-3.373891116437105e-09,8.622820420652507e-06,-2.9532562010925487e-08,-7.366742418849757e-06,-1.1235057417110298e-10,-1.1853531056459265e-15,2.8713992000772853e-07
1.863,-4.278706718259691e-09,8.636308745223886e-06,-2.7171639694371942e-08,4.050547919332825e-07,-1.4248093370967994e-10,-1.5441284141020919e-15,2.8758908121595544e-07
1.8980000000000001,-5.237507084688832e-09,8.910531076752756e-06,-2.8792803796670898e-08,8.234904850716818e-06,-1.7440898590933518e-10,-1.9410227984950846e-15,2.967206848558668e-07
1.9300000000000002,-5.7917737872937346e-09,8.659285551867385e-06,-1.6644645723870953e-08,-7.5449106572183265e-06,-1.9286606710429991e-10,-2.2029943894997134e-15,2.8835420887718396e-07
1.963,-6.408515440036787e-09,8.668836636515286e-06,-1.8520770352644225e-08,2.868193587958098e-07,-2.1340356413859176e-10,-2.4990783963990798e-15,2.8867225999595907e-07
1.9980000000000002,-7.17526826742984e-09,8.940511076216748e-06,-2.3025610432223815e-08,8.158391582626495e-06,-2.3893643328819806e-10,-2.868094866399623e-15,2.9771901883801774e-07
2.03,-7.459324649456274e-09,8.685424234177043e-06,-8.530221682475471e-09,-7.660265526717876e-06,-2.4839551080811063e-10,-3.0547139210586505e-15,2.8922462699809555e-07
2.063,-7.895346198649333e-09,8.692446378304522e-06,-1.3093740216007796e-08,2.108751990234014e-07,-2.6291502839419655e-10,-3.309114510533618e-15,2.894584643975406e-07
2.092,-8.543722726292222e-09,8.962530377013826e-06,-1.947076659588253e-08,8.110630591870979e-06,-2.8450596676192976e-10,-3.664620944365373e-15,2.9845226155456044e-07
2.1310000000000002,-8.649764228197956e-09,8.704835670099204e-06,-3.184429486658685e-09,-7.738579787225889e-06,-2.880371487739922e-10,-3.794894792275286e-15,2.898710278143035e-07
2.161,-8.967449085597404e-09,8.710159320528602e-06,-9.540085807791223e-09,1.5986938226420604e-07,-2.986160545233233e-10,-4.0209085429995335e-15,2.900483053736025e-07
2.197,-9.539932367598394e-09,8.979210860834849e-06,-1.7191690150179884e-08,8.07962583502243e-06,-3.1767974781095456e-10,-4.370950548305392e-15,2.990077216658005e-07
2.23,-9.524228252913061e-09,8.719675214607324e-06,4.715950355955773e-10,-7.793863250075814e-06,-3.171568007906818e-10,-4.4572599047225065e-15,2.903651846464239e-07
2.262,-9.761594335659968e-09,8.723815324283854e-06,-7.128110593000199e-09,1.2432761791380388e-07,-3.250610913440334e-10,-4.662827742664983e-15,2.9050305029865234e-07
2.298,-1.0283801478046376e-08,8.992175073121144e-06,-1.5681896167760008e-08,8.058851316435144e-06,-3.4245058918224845e-10,-5.01338783230621e-15,2.9943942993493414e-07
2.331,-1.0182174943039613e-08,8.731296711665266e-06,3.0518478981009965e-09,-7.834185028705053e-06,-3.390664255654064e-10,-5.063605388700484e-15,2.9075218049845337e-07
2.363,-1.0363369021794644e-08,8.734585811388596e-06,-5.441263626277219e-09,9.87717634633798e-08,-3.451001883857618e-10,-5.254254901567028e-15,2.908617075192403e-07
2.3970000000000002,-1.0851341246984354e-08,9.002469709135708e-06,-1.4653820576267552e-08,8.04456149390726e-06,-3.6134966348105207e-10,-5.6084038705211194e-15,2.9978224131421913e-07
2.43,-1.06874267994087e-08,8.74058488199822e-06,4.922355783052655e-09,-7.864409223347985e-06,-3.558913123757938e-10,-5.628777530188712e-15,2.9106147657054077e-07
2.464,-1.0828308340074636e-08,8.743245606991966e-06,-4.230676896874945e-09,7.990165146384602e-08,-3.605826676777104e-10,-5.807939382146677e-15,2.911500787128325e-07
2.498,-1.1292433054704756e-08,9.010795015545895e-06,-1.3937679118021628e-08,8.034516773391264e-06,-3.7603802067108015e-10,-6.16796885813638e-15,3.0005947401767837e-07
2.531,-1.1082321646961271e-08,8.748137855260061e-06,6.309651884188734e-09,-7.887602410986015e-06,-3.690413107923569e-10,-6.162375786743521e-15,2.9131299058016005e-07
2.564,-1.119362924673173e-08,8.750324362991733e-06,-3.342570563677416e-09,6.566089284300815e-08,-3.7274785386237244e-10,-6.332923004542094e-15,2.9138580128762473e-07
2.597,-1.1640786792957561e-08,9.017634550490283e-06,-1.3428154541316266e-08,8.027332957914408e-06,-3.8763820014757276e-10,-6.700534030212569e-15,3.0028723053132646e-07
2.63,-1.1395736326552412e-08,8.75437226314494e-06,7.358872865019491e-09,-7.905774394755062e-06,-3.794780196155397e-10,-6.671760557008942e-15,2.915205963627265e-07
2.664,-1.1484907919584903e-08,8.756193646029295e-06,-2.6778256165913127e-09,5.4696182713372955e-08,-3.8244743366108943e-10,-6.835569874647831e-15,2.9158124841277556e-07
2.697,-1.1919805042903586e-08,9.02333008112399e-06,-1.305997367323374e-08,8.02211516800887e-06,-3.969295078631739e-10,-7.211726409129927e-15,3.004768917014289e-07
2.73,-1.1647849771791344e-08,8.759585935481682e-06,8.166824958325589e-09,-7.920244613883139e-06,-3.878733973345241e-10,-7.162233055088077e-15,2.9169421165154004e-07
2.7640000000000002,-1.1720179621605226e-08,8.761121178385417e-06,-2.17206756197843e-09,4.61033905025676e-08,-3.9028198133079976e-10,-7.320400082819292e-15,2.9174533524023445e-07
2.797,-1.2146068575334909e-08,9.028130191383172e-06,-1.2789458069960451e-08,8.018288678611262e-06,-4.044640834852373e-10,-7.706325426391832e-15,3.0063673537305966e-07
2.831,-1.185309160132573e-08,8.76399598988538e-06,8.798107327602956e-09,-7.931958002936707e-06,-3.947079502502572e-10,-7.637332041420505e-15,2.918410664631832e-07
2.863,-1.1912412437856948e-08,8.765303751092013e-06,-1.781406502438975e-09,3.927210830729193e-08,-3.9668333410412073e-10,-7.791193370436802e-15,2.9188461491136404e-07
2.898,-1.2331601925783049e-08,9.032218447643266e-06,-1.2588272910693714e-08,8.015456352890485e-06,-4.1064234404695175e-10,-8.187165955246338e-15,3.007728743065208e-07
2.928,-1.2021970686216288e-08,8.767764252364213e-06,9.29823542242525e-09,-7.941567425797388e-06,-4.0033162376905294e-10,-8.100402758841693e-15,2.919665496037283e-07
2.963,-1.207110303605319e-08,8.768888821270719e-06,-1.4754459410481218e-09,3.377083803320493e-08,-4.0196773101589735e-10,-8.250756559589615e-15,2.92003997748315e-07
2.997,-1.2485257472531158e-08,9.035733285213369e-06,-1.2437070164503534e-08,8.013347265545044e-06,-4.1575907374515464e-10,-8.656893525627773e-15,3.008899183976052e-07
3.031,-1.216225590709356e-08,8.771013590100026e-06,9.699746709837766e-09,-7.949540393794067e-06,-4.050031216158988e-10,-8.553361355841343e-15,2.920747525503309e-07
3.063,-1.2203320556272136e-08,8.77198872698818e-06,-1.2331726480052554e-09,2.9283390034678462e-08,-4.0637057443071273e-10,-8.700522911088141e-15,2.9210722460870644e-07
3.097,-1.2613652384847502e-08,9.038780765399531e-06,-1.2322277134395378e-08,8.011772925265776e-06,-4.2003462431646067e-10,-9.118060334292229e-15,3.009913994878044e-07
3.1310000000000002,-1.2279816282942064e-08,8.773838226020584e-06,1.0025108165328455e-08,-7.956232413782201e-06,-4.0891788212296994e-10,-8.997793932058131e-15,2.9216881292648547e-07
3.163,-1.2314415593345779e-08,8.774690154658328e-06,-1.0390183304418888e-09,2.5583442574900862e-08,-4.1007003915648633e-10,-9.142865929769622e-15,2.9219718215012233e-07
3.198,-1.2721815112870916e-08,9.041442997696007e-06,-1.2234219805559659e-08,8.01059588701737e-06,-4.2363644315047836e-10,-9.571110999385967e-15,3.0108005182327703e-07
3.23,-1.2379104628255307e-08,8.776311775914024e-06,1.0291606144612885e-08,-7.961898552011482e-06,-4.1222418401291243e-10,-9.435682164781478e-15,2.92251182137937e-07
3.263,-1.2408469527156182e-08,8.777061284977446e-06,-8.81828795822096e-10,2.250777968234824e-08,-4.13202035143275e-10,-9.578741541805444e-15,2.92276140789749e-07
3.298,-1.2813608752627293e-08,9.043785104184736e-06,-1.2166343107240547e-08,8.00972430051921e-06,-4.266931713448847e-10,-1.0018185425310487e-14,3.0115804396935173e-07
3.331,-1.2463561114104223e-08,8.778492479979797e-06,1.0511941096788891e-08,-7.966745471619787e-06,-4.1503658498236863e-10,-9.86749168588561e-15,2.9232379958332727e-07
3.363,-1.2488660236084212e-08,8.77915600126976e-06,-7.537273867864625e-10,1.9925564263155044e-08,-4.158723857411532e-10,-1.0009171693105812e-14,2.9234589484228303e-07
3.3970000000000002,-1.2892042628637938e-08,9.04585827814957e-06,-1.211358536197377e-08,8.00907738377806e-06,-4.29305019406225e-10,-1.0459475887678995e-14,3.012270806623807e-07
3.431,-1.253588568286059e-08,8.780426575006073e-06,1.069540377709755e-08,-7.970922016321233e-06,-4.174449931123153e-10,-1.0294740868467677e-14,2.9238820494770227e-07
3.464,-1.2557457936353628e-08,8.78101740469355e-06,-6.478154202113635e-10,1.774263325755655e-08,-4.181633491503837e-10,-1.0434808973712636e-14,2.924078795762952e-07
3.497,-1.2959480015643924e-08,9.047703942911735e-06,-1.207273511382269e-08,8.008604751296875e-06,-4.3155068438336904e-10,-1.0896720047526724e-14,3.0128854129896083e-07
3.526,-1.2598184597636276e-08,8.782151787571471e-06,1.0849712252481924e-08,-7.974539199407325e-06,-4.195195469643818e-10,-1.071750271653073e-14,2.9244565452613003e-07
3.563,-1.2616847866764613e-08,8.782680597800311e-06,-5.60458532382512e-10,1.5880187052248163e-08,-4.2014103382299904e-10,-1.085617904914229e-14,2.924632639067504e-07
3.598,-1.3017791729459822e-08,9.049356012784031e-06,-1.204035623709334e-08,8.008270720231826e-06,-4.3349246444294477e-10,-1.133040792835188e-14,3.0134355522570824e-07
3.63,-1.265215571950224e-08,8.78369853878707e-06,1.0980060359086533e-08,-7.977701921830667e-06,-4.2131678531222857e-10,-1.113668917248316e-14,2.924971613416094e-07
3.6630000000000003,-1.266837781824162e-08,8.784174312861862e-06,-4.871501122936835e-10,1.4287509753513152e-08,-4.218569811967836e-10,-1.1274452864724338e-14,2.925130046183e-07
3.698,-1.306848551296513e-08,9.050842114316154e-06,-1.2015246087793113e-08,8.008042085714488e-06,-4.3518056742284983e-10,-1.1759959450236044e-14,3.0139304240672796e-07
3.731,-1.2699165522959602e-08,8.785092106230694e-06,1.1090690390556405e-08,-7.980480723287076e-06,-4.228822117567362e-10,-1.1553117824695392e-14,2.9254356713748215e-07
3.763,-1.2713333729107443e-08,8.785522017592459e-06,-4.254716560913285e-10,1.2910251104029362e-08,-4.2335401301787863e-10,-1.1689790656721848e-14,2.925578831858289e-07
3.797,-1.3112770729099968e-08,9.052185066091965e-06,-1.1995105104880632e-08,8.007899354339532e-06,-4.366552651089611e-10,-1.2186932682393655e-14,3.0143776270086244e-07
3.831,-1.274029310478026e-08,8.786353152053011e-06,1.11855142438351e-08,-7.982940361530142e-06,-4.2425176022041157e-10,-1.1966698251522519e-14,2.925855599633653e-07
3.861,-1.2752725602254215e-08,8.78674323541402e-06,-3.733482724911447e-10,1.1714215045302332e-08,-4.2466576238260636e-10,-1.2102561245622218e-14,2.925985497392869e-07
3.8970000000000002,-1.3151645058281098e-08,9.053403445343307e-06,-1.197956324405055e-08,8.007814111990598e-06,-4.3794978025918265e-10,-1.2611229208435128e-14,3.0147833472993214e-07
3.93,-1.27764380056664e-08,8.78749897172839e-06,1.126747905749846e-08,-7.98511932777526e-06,-4.2545538540863163e-10,-1.2377772678839728e-14,2.9262371575855544e-07
3.963,-1.2787409849720318e-08,8.787854414630727e-06,-3.294848064239959e-10,1.0673961031127421e-08,-4.2582074781183355e-10,-1.2513264757801673e-14,2.9263555200720324e-07
3.997,-1.3185911661849757e-08,9.054513573848943e-06,-1.1967021385268412e-08,8.007782559105588e-06,-4.3909085814615966e-10,-1.3033478840797856e-14,3.0151530200916984e-07
4.031,-1.2808347935820083e-08,8.788544225701855e-06,1.1338250030921117e-08,-7.987067511924563e-06,-4.2651798607113387e-10,-1.2786962603275765e-14,2.926585227158718e-07
4.063,-1.281805320544108e-08,8.788869291501959e-06,-2.9144953816805915e-10,9.761735738844018e-09,-4.268411715455987e-10,-1.2921666023587985e-14,2.9266934740701527e-07
4.097,-1.3216237273741274e-08,9.05552879178869e-06,-1.1957479528534366e-08,8.007792801403314e-06,-4.401007010099474e-10,-1.3453623786280899e-14,3.015491087665634e-07
4.123,-1.2836623615915718e-08,8.789501142929995e-06,1.1399809544310998e-08,-7.988818284044865e-06,-4.274595662063573e-10,-1.3194344276727515e-14,2.9269038805956885e-07
4.164,-1.284525022885322e-08,8.789799423849479e-06,-2.5905744557063636e-10,8.957384969471805e-09,-4.2774683241315245e-10,-1.3328503841842332e-14,2.9270032081418767e-07
4.197,-1.3243175525170594e-08,9.05646042043679e-06,-1.194970859811935e-08,8.007837735354695e-06,-4.409977447699995e-10,-1.3872213802140097e-14,3.0158013200054515e-07
4.23,-1.2861779069211691e-08,8.790380461569917e-06,1.1453347025792891e-08,-7.990389155161358e-06,-4.2829724278881314e-10,-1.360013430435425e-14,2.9271966937027824e-07
4.263,-1.2869465213225235e-08,8.790655071234255e-06,-2.308151355418679e-10,8.246536466620247e-09,-4.285531913803498e-10,-1.373363942199856e-14,2.927288138721007e-07
4.297,-1.3267198630997526e-08,9.057318114232657e-06,-1.1943946479648361e-08,8.007899189141196e-06,-4.4179771418112673e-10,-1.4289454120298766e-14,3.016086932039475e-07
4.331,-1.2884230179251827e-08,8.79119073584002e-06,1.1500554106477428e-08,-7.991813164944077e-06,-4.2904486474052963e-10,-1.4004342165348787e-14,2.927466515034727e-07
4.363,-1.2891109201128479e-08,8.791444386294015e-06,-2.0657723353308107e-10,7.617130750609142e-09,-4.2927393616476916e-10,-1.4137580856873812e-14,2.927550980635907e-07
4.397,-1.3288684627156243e-08,9.058110262361613e-06,-1.1939201982815735e-08,8.007984266294236e-06,-4.4251319783997235e-10,-1.470533877888987e-14,3.0163507173664174e-07
4.428,-1.2904338258624295e-08,8.791939991852525e-06,1.1541932988947398e-08,-7.993101216489128e-06,-4.2971446377066247e-10,-1.4407452766475036e-14,2.927716017286891e-07
4.463,-1.2910506977806693e-08,8.792174839529449e-06,-1.8524682229425936e-10,7.052482790525157e-09,-4.299198821150685e-10,-1.4540137227198265e-14,2.927794221563307e-07
4.497,-1.3307966220508661e-08,9.058844148286449e-06,-1.193571299405308e-08,8.00808735006005e-06,-4.4315527488500974e-10,-1.5119528069804272e-14,3.0165951013793877e-07
4.53,-1.2922397726445953e-08,8.792634605388551e-06,1.1578633455336586e-08,-7.994280567504427e-06,-4.3031584403582206e-10,-1.4809593913046863e-14,2.927947323594388e-07
4.561,-1.2927953402485289e-08,8.792852801220325e-06,-1.6683711829838754e-10,6.552427380604408e-09,-4.305008480434509e-10,-1.4941773044473157e-14,2.9280199828063686e-07
4.598,-1.3325329468485207e-08,9.059525680194435e-06,-1.1933215195192735e-08,8.00819456378707e-06,-4.4373347102868675e-10,-1.5533135563643283e-14,3.016822051504747e-07
4.63,-1.2938665594386288e-08,8.793280253588035e-06,1.1611527750718301e-08,-7.995358156348338e-06,-4.3085756402458444e-10,-1.521055742388556e-14,2.928162324444816e-07
4.663,-1.294368568283533e-08,8.793483513919524e-06,-1.5075340687813733e-10,6.10391385852454e-09,-4.3102473296534706e-10,-1.5342104668144292e-14,2.9282300101352016e-07
4.697,-1.3340990014411614e-08,9.060160502219298e-06,-1.1931061008296827e-08,8.00831796696017e-06,-4.442549671937483e-10,-1.5945593788977782e-14,3.0170334472390264e-07
4.73,-1.2953375989450517e-08,8.79388221751219e-06,1.1640060809642563e-08,-7.996344886099315e-06,-4.3134742016622577e-10,-1.5610463158880254e-14,2.92836277843156e-07
4.763,-1.2957911100475972e-08,8.794072088153922e-06,-1.3618952028394567e-10,5.701821073006659e-09,-4.3149843935868774e-10,-1.574237318210032e-14,2.928426005355256e-07
4.798,-1.33551767042658e-08,9.060753279298053e-06,-1.1929898011706537e-08,8.008444178502447e-06,-4.447273839512345e-10,-1.6357029310155298e-14,3.017230842006252e-07
4.831,-1.2966692624539159e-08,8.794444942053744e-06,1.1666188580379597e-08,-7.997247364693971e-06,-4.31790864100364e-10,-1.6009536088603577e-14,2.928550165703897e-07
4.863,-1.2970816253757689e-08,8.794622594730439e-06,-1.2383270926515986e-10,5.334915216062597e-09,-4.3192818094853544e-10,-1.614153150006377e-14,2.9286093240452365e-07
4.897,-1.3368041377573138e-08,9.061308208661067e-06,-1.1928682396860324e-08,8.008576994913754e-06,-4.451557775573759e-10,-1.676782685865506e-14,3.0174156334841356e-07
4.924,-1.2978793774398246e-08,8.794971919927654e-06,1.1689117212459212e-08,-7.998086748751129e-06,-4.3219383237600195e-10,-1.640804058448975e-14,2.928725649335909e-07
4.964,-1.2982540187650788e-08,8.795138642661086e-06,-1.1250490247872765e-10,5.006688691628203e-09,-4.3231858793238765e-10,-1.6539636996692802e-14,2.9287811680061417e-07
4.997,-1.3379758262873172e-08,9.06182876758761e-06,-1.1928470727398917e-08,8.008712460255978e-06,-4.4554594982253153e-10,-1.7177927853565902e-14,3.0175889796066744e-07
5.03,-1.2989805652375025e-08,8.795466700497014e-06,1.1710288603547941e-08,-7.998860873591456e-06,-4.3256052789761375e-10,-1.6806194515213012e-14,2.928890411265506e-07
5.058,-1.2993229082190475e-08,8.795623443707673e-06,-1.0280570016366242e-10,4.70700332308395e-09,-4.3267452810543187e-10,-1.6936937081269767e-14,2.9289426067546554e-07
5.097,-1.339042866392916e-08,9.062318288704486e-06,-1.1927915367528086e-08,8.00885420410849e-06,-4.459012741619812e-10,-1.758768975805201e-14,3.017751990138594e-07
5.131,-1.2999862932122836e-08,8.7959324193092e-06,1.1728700654844572e-08,-7.999575657516061e-06,-4.328954352978599e-10,-1.720309384732237e-14,2.929045495629964e-07
5.163,-1.3002981435099647e-08,8.796080035506204e-06,-9.364873804237488e-11,4.4329188289211455e-09,-4.329992814418587e-10,-1.7334125609739128e-14,2.929094651823566e-07
5.198,-1.3400185429641902e-08,9.062779380257974e-06,-1.1928047884151793e-08,8.00898933188499e-06,-4.462261744441729e-10,-1.799637700810584e-14,3.0179055336259056e-07
5.23,-1.30090515969146e-08,8.796371324240773e-06,1.17457607425616e-08,-8.000241922438462e-06,-4.332014178197254e-10,-1.7600081789295807e-14,2.929191650972178e-07
5.264,-1.3011910830472238e-08,8.796510783015963e-06,-8.586286959870964e-11,4.187951206885865e-09,-4.3329663029195787e-10,-1.773045315201859e-14,2.929238090744316e-07
5.297,-1.3409125392723302e-08,9.063214902656767e-06,-1.1928365232764692e-08,8.009132721946086e-06,-4.465238751983778e-10,-1.8404859774215994e-14,3.018050562584704e-07
5.329,-1.3017478811890005e-08,8.79678619055408e-06,1.1761158583582474e-08,-8.00086222530592e-06,-4.334820440623784e-10,-1.7996078543742e-14,2.929329801454509e-07
5.363,-1.302010174434419e-08,8.796918084979986e-06,-7.876674036588084e-11,3.9607935707518426e-09,-4.33569387707743e-10,-1.8126619499776794e-14,2.9293737222983357e-07
5.398,-1.3417322485164912e-08,9.063626902348382e-06,-1.1928550775397067e-08,8.009273794846708e-06,-4.4679683835993254e-10,-1.8812675953741795e-14,3.0181877584820115e-07
5.431,-1.3025217326168703e-08,8.797178881441915e-06,1.1774929699585844e-08,-8.001442069263259e-06,-4.33739736571488e-10,-1.8391775255291226e-14,2.929460567520158e-07
5.464,-1.3027632542059182e-08,8.797303888419885e-06,-7.252900572009998e-11,3.753963302387445e-09,-4.3382016325516674e-10,-1.8522176908039918e-14,2.929502194843822e-07
5.498,-1.34248647136753e-08,9.064017337862376e-06,-1.1928894042526053e-08,8.009412896170905e-06,-4.47047994552215e-10,-1.922021322281249e-14,3.0183177735081716e-07
5.53,-1.3032335313229508e-08,8.797551163262319e-06,1.1787669683056813e-08,-8.001987225226937e-06,-4.3397676552388874e-10,-1.8787208560441023e-14,2.929584537366352e-07
5.562,-1.3034567491687477e-08,8.797669898488356e-06,-6.703238612518793e-11,3.5656224035320818e-09,-4.3405109706093925e-10,-1.8917323513779092e-14,2.929624076196623e-07
5.597,-1.3431810577880178e-08,9.064388118484705e-06,-1.1929221807588621e-08,8.009556156046498e-06,-4.472792918127802e-10,-1.962700439914436e-14,3.0184412434554067e-07
5.631,-1.3038906320369382e-08,8.79790506526589e-06,1.1798926651975846e-08,-8.00249409065508e-06,-4.341955800445797e-10,-1.918210105125467e-14,2.9297023867335416e-07
5.663,-1.3040955738619109e-08,8.798017964525547e-06,-6.154409158338365e-11,3.39036815786142e-09,-4.3426382566659227e-10,-1.9312406940796668e-14,2.9297399821870074e-07
5.697,-1.3438235027025615e-08,9.064740749662159e-06,-1.1930308961156337e-08,8.009693247345689e-06,-4.474932259515051e-10,-2.003360091461257e-14,3.018558669637499e-07
5.73,-1.304496852702366e-08,8.798241738569867e-06,1.1809804804863513e-08,-8.002973306074824e-06,-4.3439745150875943e-10,-1.9576790375998472e-14,2.929814498943766e-07
5.763,-1.304686528378541e-08,8.798349329222917e-06,-5.6959662515009824e-11,3.2309505420332867e-09,-4.344606135031178e-10,-1.970665825428353e-14,2.9298503266312315e-07
5.797,-1.3444157734237188e-08,9.065076769313038e-06,-1.1930704217771106e-08,8.009833035739364e-06,-4.476904520834872e-10,-2.043998558937605e-14,3.0186705641812416e-07
5.831,-1.3050581400897047e-08,8.798562683389716e-06,1.181910910931353e-08,-8.00342600370336e-06,-4.3458436019099616e-10,-1.9970992130153858e-14,2.929921373568776e-07
5.861,-1.3052333373878191e-08,8.798665373592288e-06,-5.2611801235550697e-11,3.083789867019987e-09,-4.346427008853359e-10,-2.010091429143412e-14,2.929955569406232e-07
5.895,-1.3449656644143575e-08,9.065397400731987e-06,-1.1931629737699213e-08,8.00997078497595e-06,-4.4787356576484034e-10,-2.0845904872014326e-14,3.0187773344437517e-07
5.921,-1.3055773549549047e-08,8.798869172747768e-06,1.1828321158994827e-08,-8.003850690216765e-06,-4.347572587230176e-10,-2.036487476044355e-14,2.9300234345250074e-07
5.963,-1.3057413342346205e-08,8.79896725731984e-06,-4.9243026941671726e-11,2.945482644808462e-09,-4.348118638171148e-10,-2.0494889793529236e-14,2.9300560966875073e-07
5.997,-1.3454755490984617e-08,9.06570384487607e-06,-1.1932196655808166e-08,8.010107734421288e-06,-4.480433573457781e-10,-2.1251687245785326e-14,3.018879380343731e-07
6.029,-1.3060603540543217e-08,8.799162211261345e-06,1.1836394908150144e-08,-8.004253261703437e-06,-4.349180974046782e-10,-2.0758493581801046e-14,2.930121016350028e-07
6.062,-1.3062113463960844e-08,8.799256109515789e-06,-4.534304557438331e-11,2.8197674007060227e-09,-4.3496837784833636e-10,-2.088856274927115e-14,2.930152284468758e-07
6.097,-1.3459490000005748e-08,9.065997152815282e-06,-1.1933229310657781e-08,8.010241540525324e-06,-4.482010164769489e-10,-2.165718941233069e-14,3.018977051887489e-07
6.129,-1.3065091094595864e-08,8.799442893975121e-06,1.1843810973269774e-08,-8.004632397602431e-06,-4.3506753293585775e-10,-2.11520123896252e-14,2.9302144836937156e-07
6.163,-1.3066504247739663e-08,8.799532919313174e-06,-4.243703134531044e-11,2.703463605204756e-09,-4.3511459092927257e-10,-2.1281683912346438e-14,2.9302444621312873e-07
6.198,-1.3463899662171027e-08,9.066278324830933e-06,-1.193379622917009e-08,8.010372538070835e-06,-4.4834785820747525e-10,-2.206244306121673e-14,3.019070682168701e-07
6.231,-1.3069269756756769e-08,8.799711992004503e-06,1.185074791033809e-08,-8.004994979772675e-06,-4.3520668236669296e-10,-2.1545126222077317e-14,2.9303040933374996e-07
6.263,-1.3070585594592937e-08,8.79979850180191e-06,-3.951464973479118e-11,2.5978918140071077e-09,-4.352504997602553e-10,-2.1674884594997503e-14,2.9303329011000363e-07
6.297,-1.3468010094586325e-08,9.066548275731967e-06,-1.1934669669471091e-08,8.010503721623357e-06,-4.4848473558695577e-10,-2.2467461443494853e-14,3.0191605758187456e-07
6.325,-1.3073166729728644e-08,8.799970548986499e-06,1.185715810383426e-08,-8.00533713950356e-06,-4.353364515472027e-10,-2.1938181985952727e-14,2.9303901928125043e-07
6.364,-1.3074394617129754e-08,8.800053626858026e-06,-3.687349552884413e-11,2.4948309767915227e-09,-4.3537734019114147e-10,-2.2067869920914655e-14,2.930417857743723e-07
6.396,-1.3471845477469139e-08,9.066807735135182e-06,-1.1935461271452988e-08,8.010633882196891e-06,-4.486124538166625e-10,-2.2872093744537547e-14,3.019246975800016e-07
6.43,-1.3076810603611432e-08,8.800219132882847e-06,1.1862909124856064e-08,-8.005663731301363e-06,-4.3545779252766687e-10,-2.233103862042818e-14,2.930472971249988e-07
6.463,-1.3077956734229522e-08,8.80029903091225e-06,-3.4418336879582684e-11,2.3993402223373633e-09,-4.3549595867064356e-10,-2.2460493897420332e-14,2.9304995772937795e-07
6.498,-1.3475432567564675e-08,9.067057402927853e-06,-1.1936211211265865e-08,8.010761922390458e-06,-4.4873190389619175e-10,-2.3276856254419154e-14,3.0193301151749755e-07
6.531,-1.3080209009005988e-08,8.80045839774779e-06,1.1868575332092724e-08,-8.00597613153342e-06,-4.3557095940716887e-10,-2.2723356527042964e-14,2.9305526464500143e-07
6.563,-1.3081284234240886e-08,8.800535529053996e-06,-3.2289046093048013e-11,2.3162554416269005e-09,-4.356067644007448e-10,-2.2853250217559523e-14,2.930578331174981e-07
6.598,-1.3478793959460017e-08,9.067298032263527e-06,-1.193722898555949e-08,8.010885982268202e-06,-4.4884383822530655e-10,-2.368110604534117e-14,3.019410244743755e-07
6.631,-1.3083397918908925e-08,8.800689213175803e-06,1.1873754971504262e-08,-8.006270843475215e-06,-4.356771500864232e-10,-2.3116166512949814e-14,2.9306295079875425e-07
6.664,-1.3084405707216782e-08,8.80076364341205e-06,-3.026391314885727e-11,2.235142229659339e-09,-4.3571070943022874e-10,-2.3245508629537924e-14,2.930654293256213e-07
6.697,-1.3481934063064472e-08,9.067530250562982e-06,-1.1937788463894578e-08,8.011009223751716e-06,-4.4894840365397626e-10,-2.4085325501645457e-14,3.019487573437473e-07
6.731,-1.3086388729727019e-08,8.800911985473217e-06,1.1878238238361949e-08,-8.006554507200147e-06,-4.357767440658289e-10,-2.3508150246146262e-14,2.9307036911625816e-07
6.763,-1.308733274775016e-08,8.800983781531455e-06,-2.834888958384572e-11,2.1560377849167326e-09,-4.3580817985903087e-10,-2.3637931978286983e-14,2.930727599249975e-07
6.798,-1.3484889247740291e-08,9.06775459048413e-06,-1.1938633633337256e-08,8.011135403984247e-06,-4.4904681128197064e-10,-2.448939571071238e-14,3.0195622786312155e-07
6.825,-1.3089191202705189e-08,8.801127189696002e-06,1.188282417522831e-08,-8.006828852496365e-06,-4.358700663948015e-10,-2.3900463156949254e-14,2.930775354168769e-07
6.864,-1.3090082004507105e-08,8.801196679223044e-06,-2.6750804862355037e-11,2.086772583859076e-09,-4.3589973008773284e-10,-2.4029872313260828e-14,2.930798494181274e-07
6.892,-1.3487660900898142e-08,9.0679715215088e-06,-1.1939306197929034e-08,8.011256525097766e-06,-4.4913910731005004e-10,-2.4893302578602637e-14,3.0196345166624304e-07
6.93,-1.309183219369852e-08,8.801335367173677e-06,1.1886747963952609e-08,-8.007091721775447e-06,-4.3595801137335116e-10,-2.4292477574055578e-14,2.9308446772688347e-07
6.964,-1.3092666211713185e-08,8.801402662893992e-06,-2.504558602596974e-11,2.020892501951151e-09,-4.359857841660535e-10,-2.4421832944647075e-14,2.9308670867436995e-07
6.995,-1.3490271072071152e-08,9.06818149268031e-06,-1.1940085896635659e-08,8.01137626985941e-06,-4.4922602598769396e-10,-2.5297070895449232e-14,3.019704437062544e-07
7.03,-1.3094312545050296e-08,8.80153706109219e-06,1.1890646457082771e-08,-8.007340287931544e-06,-4.3604060705147723e-10,-2.4684510416470782e-14,2.9309118413436996e-07
7.063,-1.3095105536035496e-08,8.80160220388516e-06,-2.381354309910103e-11,1.9562400291161288e-09,-4.360670136439945e-10,-2.4813506752359207e-14,2.9309335338937583e-07
7.094,-1.34927294729661e-08,9.068384935078935e-06,-1.1940658766684802e-08,8.011493429242484e-06,-4.4930789071471665e-10,-2.5700869719088728e-14,3.0197721833812854e-07
7.129,-1.3096655545049574e-08,8.801732547691353e-06,1.189411194944523e-08,-8.007579200828276e-06,-4.361186289292332e-10,-2.5076096576555633e-14,2.930976938381221e-07
7.163,-1.3097394923414338e-08,8.801795765484344e-06,-2.2203554497426284e-11,1.8984322219666413e-09,-4.361432502213714e-10,-2.5205366219268595e-14,2.930997989906287e-07
7.198,-1.3495049531530664e-08,9.06858231509004e-06,-1.1941579823313102e-08,8.011608096267129e-06,-4.493851486417773e-10,-2.6104215512563944e-14,3.019837910924984e-07
7.23,-1.3098863522519883e-08,8.80192235157645e-06,1.1897477748071518e-08,-8.007806712119794e-06,-4.361921545564236e-10,-2.546788843241983e-14,2.9310401430749583e-07
7.263,-1.3099568067581086e-08,8.801983695777127e-06,-2.1157509345428583e-11,1.8421681884762784e-09,-4.3621561589943177e-10,-2.559696811785253e-14,2.9310605706937835e-07
7.2940000000000005,-1.3497239918908592e-08,9.068774121396356e-06,-1.1942097637462638e-08,8.011724493069951e-06,-4.4945808851797435e-10,-2.650777320616136e-14,3.019901782424987e-07
7.33,-1.3100950797297062e-08,8.80210662201582e-06,1.1900574222568458e-08,-8.008033014430503e-06,-4.362616607835882e-10,-2.58594069897179e-14,2.9311015051312687e-07
7.364,-1.3101607031535292e-08,8.802166304448289e-06,-1.9706733880796066e-11,1.7922652392855475e-09,-4.362835133760841e-10,-2.5988431563548678e-14,2.9311213793812804e-07
7.389,-1.3499312279284695e-08,9.068960493355739e-06,-1.19431005330151e-08,8.011837504728237e-06,-4.495270980946503e-10,-2.691105919020294e-14,3.0199638442874615e-07
7.431,-1.3102918409917282e-08,8.802285898479712e-06,1.1903719800823212e-08,-8.008246092373188e-06,-4.363271822605868e-10,-2.6250807942664742e-14,2.9311612041937446e-07
7.463,-1.310354298196505e-08,8.802343929053954e-06,-1.875591735038252e-11,1.7426598871592333e-09,-4.363479805020144e-10,-2.6379807086350274e-14,2.9311805283749673e-07
7.498,-1.3501264927932117e-08,9.06914187072067e-06,-1.1943601980993009e-08,8.01195020020169e-06,-4.4959212127040966e-10,-2.7314554750130466e-14,3.0200242429499837e-07
7.5280000000000005,-1.310478712161289e-08,8.802460272015881e-06,1.1906240430006823e-08,-8.008456417561252e-06,-4.3638941033643533e-10,-2.664212326557417e-14,2.931219270581289e-07
7.563,-1.3105381171176678e-08,8.802516834684833e-06,-1.7839326239876877e-11,1.6985786472035422e-09,-4.364091921790626e-10,-2.6771096127321005e-14,2.9312381059500493e-07
7.593,-1.3503120756767563e-08,9.069318340202552e-06,-1.1944131699425985e-08,8.012057222754344e-06,-4.4965392034605487e-10,-2.7717635570546093e-14,3.02008300728745e-07
7.63,-1.3106557130617062e-08,8.802630113006775e-06,1.1908817602117151e-08,-8.008655471344665e-06,-4.364483516123281e-10,-2.703334410228056e-14,2.9312758276312565e-07
7.657,-1.3107121301806971e-08,8.802685245551753e-06,-1.6942077775052536e-11,1.6556319813250707e-09,-4.364671385049869e-10,-2.7162619950019376e-14,2.931294186768734e-07
7.697,-1.3504880707210615e-08,9.069490530461789e-06,-1.194472688899832e-08,8.012170718019096e-06,-4.4971252667091985e-10,-2.8120458921016798e-14,3.020140346643776e-07
7.728,-1.3108234333332789e-08,8.802795812274784e-06,1.1911302518853647e-08,-8.008850396006169e-06,-4.365042024384514e-10,-2.7424638735630117e-14,2.9313310054875035e-07
7.752,-1.3108772490984041e-08,8.802849508502178e-06,-1.6160890427995242e-11,1.6124993211540342e-09,-4.3652212308017187e-10,-2.7553561986944124e-14,2.931348886331226e-07
7.798,-1.3506554342346884e-08,9.069658407432427e-06,-1.1945400941827126e-08,8.012279247154607e-06,-4.4976825869567803e-10,-2.852369844903535e-14,3.0201962496749984e-07
7.823,-1.310982611261645e-08,8.802957473254547e-06,1.1913760652565589e-08,-8.009037062398773e-06,-4.365572086639949e-10,-2.781568418633744e-14,2.9313848385937643e-07
7.863,-1.311033310359304e-08,8.803009865709463e-06,-1.5224954251919982e-11,1.5733469944580845e-09,-4.365740914552796e-10,-2.794473721220179e-14,2.931402285281251e-07
7.897,-1.3508137797300864e-08,9.069822241159834e-06,-1.1946086898132861e-08,8.01238364715829e-06,-4.498209877200123e-10,-2.8926511324257135e-14,3.020250806306225e-07
7.929,-1.3111337770278942e-08,8.80311518451591e-06,1.1915916727385042e-08,-8.00922092023794e-06,-4.3660754683915004e-10,-2.8206815192014206e-14,2.931437356443798e-07
7.964,-1.3111823256742774e-08,8.803166481925564e-06,-1.4579173088050317e-11,1.540462752371842e-09,-4.366237135300713e-10,-2.8335850423995948e-14,2.931454438481213e-07
7.997,-1.3509649454963355e-08,9.069982439808443e-06,-1.194673267929673e-08,8.012491227714066e-06,-4.4987132589421784e-10,-2.93292593034291e-14,3.0203041524562117e-07
8.019,-1.311277956307427e-08,8.803269522691629e-06,1.1918014771444009e-08,-8.009396910414833e-06,-4.366555585139059e-10,-2.859788033545571e-14,2.9314887510563125e-07
8.061,-1.3113239878369586e-08,8.803319638344615e-06,-1.3823282141645334e-11,1.504974564142793e-09,-4.366708870047899e-10,-2.872672283835185e-14,2.931505439568757e-07
8.098,-1.351108327026991e-08,9.070138946396289e-06,-1.1947249006015751e-08,8.012591833383601e-06,-4.4991907191758346e-10,-2.973208876215547e-14,3.020356269149964e-07
8.131,-1.3114147774774947e-08,8.803420269144335e-06,1.191998484969861e-08,-8.009569887446052e-06,-4.367011199378525e-10,-2.8988700979812833e-14,2.931538949625064e-07
8.161,-1.311458698198358e-08,8.803469395044801e-06,-1.3189405664671969e-11,1.475252266237161e-09,-4.3671574552935225e-10,-2.9117687836559045e-14,2.931555308549919e-07
8.197,-1.3512455891893332e-08,9.070292234121653e-06,-1.1948015312605164e-08,8.012697870175741e-06,-4.4996478019096344e-10,-3.013486348524551e-14,3.020407313962511e-07
8.225,-1.311546366215598e-08,8.80356797449322e-06,1.1921688580701275e-08,-8.009737526379386e-06,-4.3674493896161874e-10,-2.937964760633396e-14,2.9315881355062424e-07
8.263,-1.311587730179689e-08,8.803616032601455e-06,-1.2421610838132606e-11,1.4431864334892975e-09,-4.3675871315301324e-10,-2.950843664101642e-14,2.9316041388562846e-07
8.297,-1.3513758599104724e-08,9.0704421060249e-06,-1.194838730654158e-08,8.012794997701053e-06,-4.500081603140413e-10,-3.053772483153649e-14,3.020457221306292e-07
8.33,-1.3116704680181869e-08,8.803712566272531e-06,1.1923541108794468e-08,-8.009896088659716e-06,-4.3678626483550527e-10,-2.977033426313925e-14,2.931636284568753e-07
8.355,-1.3117106081086151e-08,8.803759655067351e-06,-1.2054081209690282e-11,1.4140779225181106e-09,-4.3679963147685073e-10,-2.989928422307498e-14,2.931651965137428e-07
8.395,-1.3515003581082419e-08,9.0705891121059e-06,-1.1948873873761796e-08,8.012896607764247e-06,-4.500496181864921e-10,-3.09401968504704e-14,3.0205061743312654e-07
8.43,-1.3117899121602788e-08,8.803854175168942e-06,1.1925058843232181e-08,-8.01005816627502e-06,-4.3682603970811037e-10,-3.016115013369528e-14,2.931683440331258e-07
8.464,-1.3118278423429075e-08,8.803900373310878e-06,-1.1390445233860308e-11,1.3873315896606333e-09,-4.368386704500341e-10,-3.029007153068945e-14,2.931698824312523e-07
8.497,-1.351620104504899e-08,9.070733191666657e-06,-1.1949628276874331e-08,8.012997548221597e-06,-4.5008949370881565e-10,-3.134296033515008e-14,3.020554152824997e-07
8.531,-1.3119031477479282e-08,8.80399312759014e-06,1.1927014041132394e-08,-8.010212134429956e-06,-4.368637471317235e-10,-3.055188882777889e-14,2.931729711487517e-07
8.564,-1.311940810360083e-08,8.804038412781481e-06,-1.1310093740212599e-11,1.3599156558917546e-09,-4.3687628877259085e-10,-3.068065992521824e-14,2.9317447914562335e-07
8.597,-1.3517335630632428e-08,9.07087455900902e-06,-1.1949775586534445e-08,8.013097484310469e-06,-4.5012727538063697e-10,-3.1745312923174283e-14,3.020601228150004e-07
8.63,-1.3120128999998492e-08,8.804129543693668e-06,1.1928127046064135e-08,-8.010360820280837e-06,-4.369002946042179e-10,-3.0942774483147546e-14,2.9317751380499916e-07
8.664,-1.3120472279283297e-08,8.804173993355824e-06,-1.030868723139111e-11,1.3348246893924294e-09,-4.3691172579528233e-10,-3.107115652236488e-14,2.93178993978749e-07
8.698,-1.3518425274779459e-08,9.07101336278152e-06,-1.1950540405290137e-08,8.013194277047914e-06,-4.501635605022558e-10,-3.2147953275325926e-14,3.0206474498062465e-07
8.73,-1.3121169391889535e-08,8.804263463119282e-06,1.1929606092790497e-08,-8.010507497364494e-06,-4.369349396264529e-10,-3.13332546117e-14,2.9318197332187214e-07
8.763,-1.3121505635132016e-08,8.804307032038532e-06,-1.0097394669093548e-11,1.3083759534467503e-09,-4.3694613651718513e-10,-3.146213568215863e-14,2.9318342416688313e-07
8.798,-1.3519471364853744e-08,9.07114969588951e-06,-1.1950922814466304e-08,8.013293208738091e-06,-4.501983952729158e-10,-3.2550384415141274e-14,3.020692848731207e-07
8.83,-1.31221718783865e-08,8.804394884628357e-06,1.193091550952684e-08,-8.010654992827423e-06,-4.369683223986907e-10,-3.1723701830919244e-14,2.931863496581243e-07
8.863,-1.3122488797291732e-08,8.80443783665545e-06,-9.51708424117719e-12,1.2898506634325184e-09,-4.3697887578888425e-10,-3.185271959524411e-14,2.931877799606265e-07
8.897,-1.3520473504509794e-08,9.071283632657505e-06,-1.1951492709251114e-08,8.013387267328983e-06,-4.5023176649426725e-10,-3.2952767011898226e-14,3.0207374496749494e-07
8.929,-1.3123123328824317e-08,8.804524215146542e-06,1.1932437708272577e-08,-8.010793318647527e-06,-4.37000005669855e-10,-3.211424496945188e-14,2.931906563643799e-07
8.964,-1.3123434500001443e-08,8.804566425168942e-06,-9.34447979358603e-12,1.2675682402470003e-09,-4.370103676605689e-10,-3.224326622614169e-14,2.931920619581258e-07
8.997,-1.3521428472982205e-08,9.071415361993095e-06,-1.1951770960383235e-08,8.013481586310877e-06,-4.502635669148424e-10,-3.335508884181869e-14,3.020781315543701e-07
9.029,-1.3124048468467717e-08,8.80465136734245e-06,1.1933333468903532e-08,-8.010930770289643e-06,-4.370308127911684e-10,-3.2504941362909225e-14,2.931948905325036e-07
9.061,-1.3124344130624808e-08,8.804692912781563e-06,-8.878743456179567e-12,1.2476107841784168e-09,-4.370406583314303e-10,-3.2633941056195617e-14,2.9319627399562607e-07
9.097,-1.3522357923431756e-08,9.071544967511136e-06,-1.1952366150358778e-08,8.013575217104296e-06,-4.5029451758492174e-10,-3.3757399754106446e-14,3.0208244741812087e-07
9.13,-1.312493035134785e-08,8.804776572860317e-06,1.1934761924441616e-08,-8.011062902426986e-06,-4.3706017946196044e-10,-3.289541465956297e-14,2.931990598762486e-07
9.16,-1.3125219076579205e-08,8.804817391160044e-06,-8.67042736803623e-12,1.2257747665860388e-09,-4.370697940024489e-10,-3.3024247836189745e-14,2.932004191256295e-07
9.198,-1.3523239459457544e-08,9.07167264245506e-06,-1.1952564050400558e-08,8.013671210060513e-06,-4.5032387270430393e-10,-3.415964046363366e-14,3.020866989937535e-07
9.23,-1.312578369369976e-08,8.804899693580904e-06,1.1935608581314807e-08,-8.011199665890546e-06,-4.370885957327894e-10,-3.328603010193122e-14,2.9320315979624414e-07
9.262,-1.3126056166657527e-08,8.804940054785942e-06,-8.182371104082002e-12,1.2120481993413699e-09,-4.370976690724718e-10,-3.3414671414275244e-14,2.932045038243719e-07
9.298,-1.3524100680181636e-08,9.071798216497945e-06,-1.1953288694417691e-08,8.013758609970043e-06,-4.50352551323819e-10,-3.456204366398212e-14,3.020908806093816e-07
9.33,-1.3126605770273848e-08,8.805021157488779e-06,1.193678408131496e-08,-8.011323093368354e-06,-4.3711597085287266e-10,-3.367644580196253e-14,2.9320720454437636e-07
9.364,-1.312686763963669e-08,8.805060859684662e-06,-7.863944830096907e-12,1.1922581346360428e-09,-4.37124691092734e-10,-3.38052403819496e-14,2.932085266274993e-07
9.398,-1.352491705855905e-08,9.07192210647525e-06,-1.19534360036745e-08,8.013851254972628e-06,-4.5037973669281035e-10,-3.496437732202538e-14,3.0209500614562585e-07
9.431000000000001,-1.312738909909714e-08,8.805140707545106e-06,1.193777656041775e-08,-8.011453421325671e-06,-4.371420556725261e-10,-3.40668062779495e-14,2.9321118556125205e-07
9.464,-1.3127640909898865e-08,8.805179809571903e-06,-7.561885937707249e-12,1.1742350389589739e-09,-4.371504409621659e-10,-3.419558888941283e-14,2.932124876587444e-07
9.497,-1.352571312163477e-08,9.072044138344525e-06,-1.195412047254967e-08,8.013943806985647e-06,-4.5040624556191e-10,-3.536653696450295e-14,3.0209906980687273e-07
9.53,-1.312814745495824e-08,8.805258612556298e-06,1.1938908909205092e-08,-8.011577350997816e-06,-4.3716730889217005e-10,-3.44571434462864e-14,2.9321511179812476e-07
9.563,-1.3128390792782254e-08,8.805297181306457e-06,-7.307442162598347e-12,1.1582207255143508e-09,-4.371754120315588e-10,-3.458608277182968e-14,2.932163961375051e-07
9.583,-1.3526474500014661e-08,9.072164512781436e-06,-1.1954465682654872e-08,8.014033978227595e-06,-4.50431599430286e-10,-3.5768813288252086e-14,3.0210307827562185e-07
9.628,-1.3128876180169786e-08,8.805374950563068e-06,1.1939889484831105e-08,-8.011698565116162e-06,-4.371915754108496e-10,-3.484744263622832e-14,2.932189858537502e-07
9.664,-1.3129117833334094e-08,8.805412945777024e-06,-7.256851781033004e-12,1.1409974161007039e-09,-4.3719962245093653e-10,-3.497639067575681e-14,2.932202510943749e-07
9.697,-1.3527210310813398e-08,9.072283315258939e-06,-1.1954729053432554e-08,8.014125209667106e-06,-4.50456101897833e-10,-3.617106195268014e-14,3.021070343981227e-07
9.731,-1.3129586076573318e-08,8.805489785979953e-06,1.1940667694897296e-08,-8.01181769606564e-06,-4.3721521492987985e-10,-3.5238061241261337e-14,2.9322280987313247e-07
9.764,-1.3129812716206529e-08,8.805527374267928e-06,-6.8059949913022656e-12,1.128777416656542e-09,-4.3722276201926865e-10,-3.536665012776452e-14,2.93224061563122e-07
9.798,-1.3527918472985495e-08,9.072400659740965e-06,-1.1955127831200187e-08,8.0142127769681e-06,-4.504796836657672e-10,-3.657310926379593e-14,3.0211094196937417e-07
9.83,-1.3130265549542308e-08,8.805603129954884e-06,1.194152923252813e-08,-8.011937831413865e-06,-4.3723784134818536e-10,-3.562813857976293e-14,2.932265842274977e-07
9.861,-1.3130487333335561e-08,8.80564025247765e-06,-6.660173971570889e-12,1.1147904734679283e-09,-4.372452267380151e-10,-3.575722280519413e-14,2.9322782040750577e-07
9.898,-1.352860765766126e-08,9.072516478716254e-06,-1.1955565295066043e-08,8.014301088246366e-06,-4.505026334827341e-10,-3.697530801991737e-14,3.021147987412513e-07
9.931000000000001,-1.3130924360368688e-08,8.80571495213945e-06,1.1942441360137325e-08,-8.012057855159266e-06,-4.3725977971679223e-10,-3.6018526763193783e-14,2.932303079062437e-07
9.963000000000001,-1.313113697746211e-08,8.805751725957155e-06,-6.384897700378455e-12,1.104318849992049e-09,-4.372668598554047e-10,-3.614743136949413e-14,2.932315324743733e-07
9.997,-1.3529276527035327e-08,9.072630814921117e-06,-1.1956142629826319e-08,8.014387055974832e-06,-4.5052490679976127e-10,-3.737748732616606e-14,3.0211860613687325e-07
10.03,-1.3131564689187672e-08,8.805825639020529e-06,1.1943298433863493e-08,-8.012167444462122e-06,-4.372811026342161e-10,-3.6408897521220345e-14,2.932339937793836e-07
10.063,-1.3131767594587754e-08,8.805861830630503e-06,-6.093255257708623e-12,1.0868351343651117e-09,-4.37287859373305e-10,-3.653762127284455e-14,2.932351989599958e-07
10.098,-1.3529913783790653e-08,9.072743917342506e-06,-1.1956342018105077e-08,8.01447707843852e-06,-4.505461274162451e-10,-3.777977855684353e-14,3.021223724475055e-07
10.131,-1.3132180441443674e-08,8.805934918693477e-06,1.1943944214624005e-08,-8.012282241712563e-06,-4.37301607151749e-10,-3.6799067854552776e-14,2.9323763279249285e-07
10.164,-1.3132379283775358e-08,8.805970763457334e-06,-5.971241191732486e-12,1.0764193350407584e-09,-4.373082285905545e-10,-3.69279560280431e-14,2.9323882642312925e-07
10.198,-1.3530540090096714e-08,9.072855639188981e-06,-1.1956780970611268e-08,8.01456083278219e-06,-4.505669833824101e-10,-3.818174129980965e-14,3.021260927849931e-07
10.23,-1.3132777513512824e-08,8.80604302094611e-06,1.1944822119636336e-08,-8.012390938224378e-06,-4.3732148961869343e-10,-3.718938262100989e-14,2.932412325975055e-07
10.263,-1.3132976554050828e-08,8.806078403659782e-06,-5.9771933334777355e-12,1.0625439541292082e-09,-4.373281176576559e-10,-3.731844745091953e-14,2.9324241084187076e-07
10.297,-1.3531139441444533e-08,9.072966178040675e-06,-1.1956843465276423e-08,8.014647879306114e-06,-4.505869417481216e-10,-3.8583824981283894e-14,3.0212977372875453e-07
10.331,-1.3133360315317861e-08,8.80614989684683e-06,1.1945319102903064e-08,-8.012500936752102e-06,-4.373408968854991e-10,-3.757968758446797e-14,2.9324479156499947e-07
10.364,-1.3133542855844522e-08,8.806184933333358e-06,-5.481697497314025e-12,1.0521467425740544e-09,-4.373469754740022e-10,-3.770838383667425e-14,2.9324595828000083e-07
10.396,-1.3531728734244661e-08,9.073075589020274e-06,-1.1957533885890081e-08,8.014734405012472e-06,-4.5060656516384314e-10,-3.898591024328275e-14,3.0213341711437515e-07
10.431000000000001,-1.3133920027026735e-08,8.806255693806216e-06,1.194620742396176e-08,-8.012609465887613e-06,-4.373595352517708e-10,-3.797012108847494e-14,2.93248314603747e-07
10.463,-1.3134099198193688e-08,8.806290378491133e-06,-5.380515524114981e-12,1.041582129633693e-09,-4.373655016404732e-10,-3.809865128490886e-14,2.9324946960375475e-07
10.498,-1.3532290279288129e-08,9.073183807094437e-06,-1.1957690122956177e-08,8.01481767577491e-06,-4.506252645788944e-10,-3.9388110722069816e-14,3.021370207762448e-07
10.531,-1.3134464873865968e-08,8.806360379617083e-06,1.1946708871536362e-08,-8.012715539860479e-06,-4.3737767861752006e-10,-3.8360208642056346e-14,2.932518006412489e-07
10.563,-1.3134640477480323e-08,8.806394755856003e-06,-5.273381812477127e-12,1.0323194870684738e-09,-4.373835262066117e-10,-3.8488902879204314e-14,2.932529453700049e-07
10.598,-1.3532846126134925e-08,9.073290886148577e-06,-1.195812758722529e-08,8.014898807584822e-06,-4.5064377424363703e-10,-3.979015754122933e-14,3.0214058650874767e-07
10.63,0.033693788467647943,1.2249088221377237e-06,1.0118258859007228,-0.000235687149069395,0.0011220031515817854,9.926125459732994e-08,4.07894637771862e-08
10.664,0.06705722898945254,1.7168456702048014e-06,1.0019051207749128,1.4772878320332663e-05,0.00223300571660111,1.976552818438408e-07,5.7170960817819896e-08
10.697,0.09760464043943279,-0.06898207365868828,0.9173396831825898,-2.071585300431185,0.00325023198602736,-3.4452682376130136e-06,-0.00229710305283432
10.73,0.11474871525168691,-0.3170723737458232,0.5148370814490726,-7.450159161775823,0.003821007349037989,-2.861152331626386e-05,-0.010558510045735913
10.764,0.11475694056408896,-0.31696935860070147,0.00024700637843991794,0.0030935479015535144,0.003820766261379309,-6.895171284018983e-05,-0.01055507964140336
10.798,0.11829306598065972,-0.32688280077356335,0.10618995244957251,-0.2977009661520086,0.0039375101189860874,-0.0001132927279664108,-0.01088519726575966
10.83,0.12625199724396946,-0.4122916175302787,0.23900694484413623,-2.564829332033494,0.004200612970542799,-0.0001726246558365847,-0.013729310863758282
10.863,0.1263477111147513,-0.41287689838457936,0.0028742904138688526,-0.017576001630650196,0.004201027260962731,-0.00023049360772155748,-0.013748800716206494
10.897,0.13017179922720806,-0.42519452604142033,0.11483748085455762,-0.36989872843366267,0.004324440209963,-0.0002978394993248198,-0.014158977717179298
10.931000000000001,0.11478312423459099,-0.6350837608294355,-0.46212237215066293,-6.302980023664119,0.003807943241270055,-0.00032989869910102026,-0.021148289235620205
10.964,0.11482168059509412,-0.6343090598429695,0.001157848663757849,0.023264293887868978,0.003801397397838265,-0.0004104392350389729,-0.021122491692770886
10.998,0.11828188249982302,-0.6531293732165633,0.10390996710897593,-0.5651745757835975,0.0039059876071241384,-0.0005066456771861533,-0.02174920812811156
11.031,0.11477751440218249,-0.7291605694863135,-0.10523627920842427,-2.283219107199705,0.0037779277044074724,-0.0005787278468135243,-0.02428104696389424
11.063,0.11478859483286528,-0.7290356120465031,0.0003327456661498988,0.003752475669980057,0.0037631280241309842,-0.0006703371657243531,-0.02427688588114856
11.097,0.11818433378719674,-0.7500975145794074,0.1019741427727164,-0.6324895655526815,0.003856275055975588,-0.0007853656801928267,-0.02497824723549427
11.13,0.09478661477928,-0.27221017891294697,-0.7026342044419439,14.350971041034848,0.00308172384187323,-0.0006824476140806036,-0.009064598957801135
11.163,0.09487861295220124,-0.6868984152319547,0.002762707895532396,-12.453100189759992,0.003073356886293023,-0.0007322676354709428,-0.022873717227224095
11.197,0.11822314769779362,-0.9616872753969627,0.7010370794472185,-8.251917722672912,0.003802980529558001,-0.001017178194300117,-0.03202418627071886
11.23,0.0949421080878844,-0.5151194543696378,-0.6991303186158921,13.410445075895643,0.003033165647158182,-0.000891739781969202,-0.01715347783050894
11.264,0.11476239522045076,-0.7610042229544145,0.5952038177947853,-7.383926984527828,0.0036425935090516567,-0.0011555362332217832,-0.025341440624382004
11.297,0.11823722736128867,-0.7840308431202442,0.10434931353867591,-0.6914900950699603,0.003721015269669603,-0.0012866598228961803,-0.026108227075904135
11.331,0.11785111398129557,-0.5919436289970438,-0.011594996396189185,5.768384808504516,0.0036785571101795784,-0.0013671008276828899,-0.01971172284560156
11.364,0.13769486978726986,-0.8375163457195787,0.5959085827619907,-7.37455605773378,0.004258652962841728,-0.0016990969403477944,-0.02788929431246197
11.398,0.1418986121528001,-0.8632816509590715,0.12623850947538304,-0.7737328900748597,0.004337320920005965,-0.001874526459228928,-0.028747278976937084
11.431000000000001,0.14079842642177706,-0.7274106729736415,-0.03303861054123276,4.080209549112012,0.004252969206016018,-0.001973330123997078,-0.024222775410022265
11.463,0.16064405834885004,-0.9729996063224178,0.5959649227349242,-7.375043043506795,0.004786656272524236,-0.0023878867302187146,-0.032400886890536516
11.498,0.16551215423023652,-1.0024855856795591,0.1461890655071015,-0.8854648455598008,0.004848121243538535,-0.002621094249156082,-0.03338277000312932
11.53,0.10703199380821092,-0.7268951232982842,-1.7561609736344022,8.275989861299546,0.0030851111735032922,-0.0017845850397743073,-0.024205607605832867
11.564,0.11176172735538124,-1.0848178549268843,0.14203404045556522,-10.74843037923724,0.003163679266924205,-0.001959699356152958,-0.03612443456906525
11.598,0.11819641697727264,-1.1580077041546861,0.1932339225793211,-2.1978933702042585,0.0032660943815917623,-0.0021959820107270767,-0.03856165654835105
11.63,0.14545537539761197,-1.084812954642141,0.81858733995013,2.1980405259022557,0.003915669211808654,-0.002850625258878632,-0.036124271389583296
11.663,0.178818470021603,-1.0848094448541012,1.0018947334531842,0.00010539904023294928,0.004684096763042625,-0.003676043872564794,-0.03612415451364157
11.697,0.2009789602865679,-1.0847799087175443,0.6654801881370837,0.0008869710677773157,0.005111933404053285,-0.004319045373537441,-0.03612317096029423
11.731,0.1950564001528764,-1.052728375799728,-0.17785465866941427,0.9625084960305216,0.004809014095275542,-0.004365661456140011,-0.03505585491413094
11.762,0.2180373465593203,-1.0412244329300273,0.6901185107040212,0.3454637498408582,0.005202232676522243,-0.0050644289016063835,-0.03467277361656991
11.797,0.22463516472444198,-1.0726520908117934,0.19813267763128142,-0.9437735099629443,0.005172713490977111,-0.005403030345542149,-0.03571931462403272
11.829,0.2180546078105324,-1.0414331241514976,-0.19761432173902624,0.9375065063151884,0.004833511655587101,-0.0054182261122256515,-0.03467972303424487
11.862,0.2065570405416932,-1.0254941355251812,-0.345272290355532,0.4786483070965878,0.004399348308556301,-0.005287043415792483,-0.03414895471298854
11.897,0.21285997033779988,-1.0570534063285422,0.18927717105425504,-0.9477258499507796,0.004341971417974233,-0.005602249604349701,-0.035199878430740454
11.93,0.206483127394497,-0.8435511383886188,-0.19149678508417037,6.4114795177154145,0.004037918122526534,-0.0055650648063408715,-0.02809025290834101
11.962,0.20654055738821966,-0.8441405502118772,0.001724624436115839,-0.017700054752502536,0.0038810448891602846,-0.005677897178224122,-0.02810988032205551
11.997,0.21272642848726703,-0.8688923249259599,0.18576189486628716,-0.7432965379604426,0.003828875948457952,-0.00595955451183433,-0.02893411442003447
12.03,0.21796269616620112,-0.7492223361723,0.15724527564366642,3.5936933559657613,0.0037572414750540292,-0.006209771196599759,-0.024949103794537596
12.059,0.21798755575873818,-0.7490477610572974,0.000746534310422317,0.005242495946024885,0.003601589109867514,-0.006302277048482256,-0.024943290443208005
12.097,0.22463545121240422,-0.7719525230253974,0.19963650011009115,-0.6878306897327322,0.0035457770449715312,-0.006586362995499319,-0.025706019016745737
12.119,0.20658123950273546,-0.7080929507820242,-0.5421685198098725,1.9177048721733705,0.0031105760763967174,-0.006135544085441175,-0.023579495261041406
12.163,0.20661622257274712,-0.7081686019247082,0.0010505426429925396,-0.0022718060866078423,0.0029655460369596544,-0.006208232369549116,-0.023582014444092785
12.197,0.21289441456219393,-0.7300542179157625,0.18853429397738192,-0.6572257054370666,0.002901608606621194,-0.006468195867032881,-0.024310805456594895
12.231,0.21807845842496476,-0.6030367625422098,0.15567699287600079,3.814337999205786,0.0028245019352812124,-0.00669008554594621,-0.020081124192655588
12.263,0.21808498144146518,-0.6031244109710764,0.0001958863813940066,-0.0026320849509474204,0.0026896676442751508,-0.00674565771745015,-0.020084042885336845
12.297,0.22465724264529183,-0.6209387316653356,0.19736520131611549,-0.5349645854131908,0.0026285317937713016,-0.0070039615240715,-0.02067725976445568
12.33,0.19499646694123596,-0.8282967816318395,-0.8907139851067828,-6.226968467462578,0.0021341246700848043,-0.00613244267450415,-0.027582282828340257
12.363,0.20652883722599433,-0.5869350490759732,0.3463174259687198,7.248100076752743,0.0021067112087682542,-0.006546681171459307,-0.019544937134229907
12.396,0.21266433439518684,-0.6043587332045266,0.18424916424001533,-0.5232337576142174,0.002035165508040196,-0.0067828607485216725,-0.02012514581571074
12.431000000000001,0.21794752586131746,-0.48166214006567853,0.15865439838230108,3.6845823765419836,0.0019597064643030373,-0.00698798560189953,-0.016039349264187097
12.451,0.2179304773783605,-0.4822835058137275,-0.0005119664551643153,-0.01865963207354177,0.0018471592915169162,-0.00701798773049729,-0.016060040743597126
12.494,0.22457244950062147,-0.4970592559652629,0.19945862229011935,-0.4437162207668296,0.0017852836199261754,-0.0072619485431537805,-0.016552073223643257
12.528,0.20654469556347704,-0.4588844949706783,-0.5413739921064391,1.1463892190565947,0.0015354615951950785,-0.006704287680106528,-0.015280853682523588
12.561,0.20656548996756346,-0.4590735925868925,0.0006244565791718209,-0.0056786070935200515,0.0014329621392830088,-0.006727648917537512,-0.015287150633143521
12.598,0.21286318789544792,-0.47316189789559643,0.18912005789442804,-0.42307223149261014,0.0013688670589453965,-0.006954839062837233,-0.01575629119992336
12.63,0.1835192130279768,-0.8118368670728927,-0.881200446470604,-10.170419494813702,0.0010515945319335028,-0.00601984344794608,-0.02703416767352733
12.663,0.1911268206960383,-0.4894529511743148,0.2284566867285739,9.681198675632968,0.0009591239253140462,-0.0062917675765560375,-0.016298783274104684
12.697,0.2010507659539693,-0.4554744984368326,0.298016374112042,1.0203739560805474,0.0009046771603606818,-0.006633520772558772,-0.015167300797946526
12.73,0.2139799980931708,-0.46485187664207456,0.38826522940545033,-0.2816029491063658,0.0008545611102708927,-0.0070740331744312416,-0.015479567492181084
12.763,0.21804985934035923,-0.41714637632350376,0.1222180554711236,1.4325976071642879,0.0007648661538965751,-0.0072206044693658095,-0.013890974331572676
12.796,0.21280663612020442,-0.3783228393454295,-0.15745415075539945,1.1658719813235519,0.0006530782449321246,-0.007056256364540439,-0.012598150550202802
12.831,0.20649361990517268,-0.3663863925683735,-0.18958006651746986,0.35845185516684575,0.0005487601656364013,-0.006854262797895836,-0.01220066687252684
12.863,0.20649710018596035,-0.3668424325123591,0.00010451293656669794,-0.013694893212780045,0.0004650505594907764,-0.006860566780679195,-0.012215853002661559
12.897,0.2127493890150175,-0.37855744952679626,0.1877564212930075,-0.3518023127458609,0.00039137258874376166,-0.007073689100758275,-0.012605963069242316
12.93,0.21799979823405852,-0.3265515099743958,0.1576699465177483,1.5617399264985121,0.00031591103305230015,-0.007252480385408117,-0.010874165282147382
12.962,0.2179950857789115,-0.32693380857283205,-0.00014151516958021718,-0.011480438391478921,0.00023697793053144,-0.007255331381506464,-0.010886895825475308
12.997,0.22459811915460054,-0.3375743239789949,0.1982892905612325,-0.3195349971820673,0.00016143774896568096,-0.0074773354488816635,-0.01124122498850053
13.03,0.20655429966128525,-0.29653443424986575,-0.5418564412406994,1.232429120994869,7.585855369585202e-05,-0.006877811906902809,-0.00987459666052053
13.059,0.206585486966695,-0.29705577655829263,0.000936555718010244,-0.015655925177984243,7.881824922785183e-06,-0.00687926415307786,-0.009891957359391145
13.097,0.21285782851408283,-0.30592953148025026,0.18835860502666196,-0.2664791267855145,-6.304082394889153e-05,-0.007087854694483683,-0.010187453398292334
13.13,0.21801127537732012,-0.2404785019638788,0.15475816406117995,1.965496381873017,-0.00013060803820192333,-0.007258581112660639,-0.008007934115397165
13.163,0.218040421828032,-0.24056653749646034,0.0008752687901460777,-0.0026437096871335885,-0.0001887653389940362,-0.007258272444275422,-0.00801086569863213
13.198,0.22460072421701635,-0.24713826968464206,0.19700607774727813,-0.19734931496041191,-0.000255150288692138,-0.0074748295518390516,-0.008229704380498581
13.23,0.20246693038713207,-0.46121271471181235,-0.6646784933899184,-6.428662012827936,-0.0003094565999816705,-0.0067349768590909765,-0.015358383399903353
13.264,0.20651864315801638,-0.2374476647842449,0.12167305618271211,6.719671168996019,-0.0003955428301624788,-0.006865668393462851,-0.007907007237315355
13.297,0.21278158453341073,-0.24249722913751193,0.18807631757940985,-0.15163856916717816,-0.0004640524524899273,-0.007070395261481506,-0.008075157730279147
13.33,0.21797775180282558,-0.14987320585992026,0.15604105914158717,2.781502200528278,-0.0005226937483394192,-0.007239807616349822,-0.004990777755135345
13.364,0.21801228666115732,-0.1499868597899973,0.0010370828327850373,-0.0034130309332442792,-0.0005589215913118583,-0.00723825434241582,-0.00499456243100691
13.398,0.22463754669387692,-0.15491486626949857,0.19895675773932728,-0.14798818256760612,-0.0006137617546901871,-0.007455200195994063,-0.005158665046774303
13.431000000000001,0.21804085612261617,-0.16935553136772225,-0.19809881595377624,-0.43365360655326335,-0.0006347984273355542,-0.007232947836146246,-0.0056395391945451515
13.464,0.21805660176240024,-0.16961422968206524,0.00047284203555767286,-0.007768718148438369,-0.0006756585338750541,-0.007229771980023162,-0.005648153848412773
13.498,0.22463432355184104,-0.17565432557363767,0.19752918286609003,-0.18138426100818084,-0.0007388437725999922,-0.007443734421701105,-0.005849289041602135
13.53,0.21804725996211338,-0.08461594229957681,-0.197809717409239,2.733885383605431,-0.0007484838003456556,-0.0072222902887292585,-0.002817710878575908
13.563,0.21804430631433377,-0.08469952982150487,-8.869813151975121e-05,-0.002510135793635624,-0.0007688307614078357,-0.007220053731692591,-0.0028204943430561124
13.597,0.2246323383335032,-0.08671462223686588,0.19783879937445756,-0.06051328574657674,-0.0008132860595039053,-0.007435910818080724,-0.002887596920487634
13.631,0.21799993957936126,-0.1257400198248388,-0.19917113375801665,-1.1719338615006878,-0.0008147949566258438,-0.007213521423897232,-0.004187142660167132
13.664,0.21795606789184926,-0.12512586714856336,-0.001317468093453233,0.01844302331157451,-0.0008447480110641946,-0.007208604231304372,-0.004166691376047161
13.698,0.2245424536658934,-0.12849970666717636,0.19778936258390792,-0.10131650206045054,-0.000901628311649303,-0.007422698540518384,-0.004279040232016973
13.73,0.1951330534428101,-0.23701601013605547,-0.8831651718643634,-3.258747851918291,-0.0008227782382246704,-0.006445612453652216,-0.007892633137530648
13.763,0.2064868083301894,-0.12312674003880544,0.34095360022160065,3.420098201118619,-0.0009115363365232326,-0.006815317942572199,-0.004100120443292222
13.797,0.2128101100653047,-0.12686520812145252,0.1898889409944536,-0.11226630878820054,-0.0009686788610626779,-0.007020053803574909,-0.004224611430444369
13.83,0.21800572396865525,-0.08179026126049423,0.1560244415420585,1.3536020078365854,-0.0010173067910138169,-0.00718795590639104,-0.002723615699974458
13.864,0.21805593810089635,-0.08181561935471925,0.001507931899132127,-0.000761504331081675,-0.0010371220860765252,-0.0071868130437554205,-0.002724460124512151
13.897,0.22466907007978396,-0.08475939706581598,0.19859255191854666,-0.08840173306596791,-0.001089108382061798,-0.007401780141807712,-0.0028224879222916725
13.931000000000001,0.20659282201930967,-0.1318090275323605,-0.5428302720863147,-1.412901815812148,-0.0010260171323125534,-0.006802594862534063,-0.0043892406168276055
13.963000000000001,0.20662036482987592,-0.13227733437379538,0.0008271114284157514,-0.014063268511557593,-0.0010560591533371158,-0.006798923948558169,-0.004404835234647387
13.997,0.2128354787214191,-0.1368024896725782,0.18664005680309892,-0.1358905495129972,-0.001119190832540469,-0.006998490387103623,-0.004555522906096854
14.03,0.21804321612011043,-0.06228682999995114,0.1563885104712108,2.237707497676488,-0.0011703365623635773,-0.007165896860820078,-0.002074151438998373
14.063,0.21800933193409613,-0.06257540166571535,-0.0010175431235525255,-0.008665815788714984,-0.0011850474194689902,-0.007162335077794983,-0.002083760875468321
14.098,0.22458486274597084,-0.06400331389132351,0.19746338774398503,-0.042880247015260074,-0.0012363378876645412,-0.00737577393316385,-0.002131310352581073
14.13,0.21796194691919582,-0.04318569374917236,-0.19888636116441488,0.6251537580225569,-0.0012126523305063606,-0.007156113292789793,-0.0014380836018474397
14.162,0.21793130924154408,-0.04259587324088513,-0.0009200503799321411,0.01771232757619308,-0.0012227000133267331,-0.007153368374657327,-0.001418442578921475
14.197,0.22455026397974875,-0.04380799367153875,0.1987674095556959,-0.036400012932541165,-0.001270437802261139,-0.007368808581624173,-0.0014588061892622406
14.23,0.21798964826286935,-0.0008755230594518884,-0.19701548699337562,1.28926338174435,-0.001238641658367664,-0.007152597465272347,-2.9154917879747888e-05
14.263,0.21802046610844045,-0.000874668260854618,0.0009254608279610112,2.5669627545659302e-05,-0.0012390252293820283,-0.007153572546282759,-2.9126453086458782e-05
14.296,0.22466210737301084,-0.0009988234802492577,0.19944868662373563,-0.003728384966805998,-0.0012770000742836152,-0.00737145474575168,-3.326082189230029e-05
14.33,0.21807358924360212,-0.008484756888262068,-0.19785339727954115,-0.22480280504542968,-0.001240680141730301,-0.007155081092218955,-0.00028254240437912686
14.364,0.2180763781298388,-0.00897041162759891,8.375033743756609e-05,-0.014584226406511771,-0.001242775453027461,-0.007154811710019766,-0.00029871470719904374
14.397,0.22468325946997805,-0.009742980297701643,0.19840484504922698,-0.02320026036344544,-0.00128272356004424,-0.007371175862336545,-0.00032444124391346475
14.431000000000001,0.21808126305901426,0.03888153268115656,-0.19825815047939307,1.4601955849506965,-0.001241561238159425,-0.007155187121881857,0.0012947550382825135
14.463,0.21806824547945317,0.03874915079082585,-0.0003909183051380665,-0.003975432142063239,-0.0012322382023445386,-0.007156358730172137,0.001290346721334501
14.495,0.22461936536693258,0.03957002014377932,0.19673032695133383,0.02465073131992393,-0.001259643192920869,-0.007372996064572715,0.0013176816707878515
14.531,0.21799881028389478,0.010638235281967333,-0.19881546795909305,-0.8688223682225821,-0.001216533513915804,-0.007156700274618277,0.0003542532348895122
14.563,0.2179756982395522,0.011181035945135004,-0.0006940553856629719,0.016300320215245384,-0.0012138047690216102,-0.007156382959989231,0.0003723284969729957
14.598,0.22454797070629695,0.012138792111866465,0.19736553954188418,0.028761446448392215,-0.0012475401610276154,-0.007372642862080413,0.0004042217773251533
14.63,0.18375791281058926,-0.24929716303392935,-1.2249266635347655,-7.850929583957831,-0.0010447322682756363,-0.0060292765226858044,-0.008301595529029848
14.664,0.2064714766075206,0.0008689292724810019,0.6820890029108512,7.512495264456766,-0.0012018823742807247,-0.00676963672265267,2.8935344773617367e-05
14.695,0.21275194815121332,0.0008115480331593549,0.18860274905984117,-0.0017231603399894004,-0.0012382461852118493,-0.006975590908166005,2.702454950420652e-05
14.73,0.195249730363435,-0.2295805811156626,-0.525592125759109,-6.91868255702168,-0.001160753941468237,-0.0063973475725898135,-0.007645033351151565
14.763,0.2179882669847686,0.020454002636539213,0.6828389375775863,7.508546058624679,-0.0013207986069378637,-0.007137836148561385,0.0006811182877967558
14.797,0.22461853042106528,0.020764159397686183,0.19910701009899887,0.009314016851260383,-0.001355923721580801,-0.007355870630743007,0.0006914465079429499
14.83,0.21806708058264956,0.03918622575734961,-0.19674023538785923,0.5532152059958987,-0.0013092464847334776,-0.00714263196336136,0.0013049013177197422
14.862,0.21807957770380879,0.03887991479603139,0.00037528892370035274,-0.009198527366913619,-0.0013000358799043087,-0.007144737128787967,0.0012947011627078453
14.897,0.22468408689346706,0.039698034250285716,0.19833360929904711,0.02456815177940924,-0.0013297754209617187,-0.0073628605377163685,0.0013219445405345145
14.93,0.2180888142314273,0.04643057692273752,-0.19805623609728953,0.20217845863218628,-0.0012804917379029982,-0.007148577974825026,0.0015461382115271596
14.963000000000001,0.21803317825448185,0.045800006619843556,-0.001670750058422441,-0.018936045131950862,-0.0012691887376170728,-0.00714871178618346,0.0015251402204407905
14.997,0.22460670255310455,0.04769973059964899,0.19740313209077195,0.05704876816232544,-0.0012959877310624182,-0.00736626609571066,0.0015884010289683116
15.03,0.21799052454585074,0.055244137280000015,-0.1986840242418561,0.22655875916970034,-0.0012455563136997794,-0.0071514251665720915,0.0018396297714240006
15.064,0.21795381767513233,0.05595775195496163,-0.0011023084299823273,0.021429870118967437,-0.0012321057300881855,-0.007152514446352098,0.0018633931401002225
15.098,0.22454896245525321,0.08435367361405188,0.19805239579942585,0.8527303801528603,-0.0012521695714111341,-0.007371889071108487,0.002808977331347928
15.13,0.21793090492135309,0.08226273511556313,-0.19874046648348734,-0.06279094590056308,-0.001195412075825457,-0.007157963737986441,0.0027393490793482527
15.163,0.21795712927231756,0.0822326582189082,0.000787518046981113,-0.0009032101097577998,-0.001175944528525035,-0.0071620726732382605,0.0027383475186896432
15.198,0.22459840253838664,0.08463367620177037,0.19943763561769026,0.07210264212799314,-0.0011912666488352415,-0.007383643037455438,0.0028183014175189535
15.231,0.21803053262567,0.0915393990639764,-0.19723333071221189,0.20737906493111205,-0.0011354007968576072,-0.007171086068351523,0.0030482619888304143
15.264,0.21805781458399162,0.09140198500668428,0.000819278027676708,-0.004126548267030566,-0.001113691960600147,-0.007175408946136047,0.003043686100722587
15.297,0.22467414322823104,0.09376761785992524,0.19868854787505752,0.07104002562285154,-0.0011246847028191554,-0.007396628295610585,0.003122461674735511
15.331,0.20657671220678148,0.05747341178147186,-0.5434663970405273,-1.0899160984520533,-0.0010169630987933082,-0.006803416402761893,0.0019138646123230132
15.363,0.20660113735173846,0.05716262814361219,0.0007334878365461094,-0.009332841977767863,-0.0010040943503088651,-0.006806149735405567,0.001903515517182286
15.397,0.21284678109704527,0.058364362922973895,0.18755686922843276,0.03608813151236345,-0.001020959088766138,-0.007013879420737231,0.0019435332853350309
15.431000000000001,0.2065751396280923,0.0972919137080385,-0.18833758165023967,1.1689955190710088,-0.0009732303217009725,-0.006809755063634456,0.0032398207264776823
15.464,0.20656481491433598,0.09736597173289827,-0.0003100514641534551,0.0022239647105035693,-0.0009511069265150243,-0.006812533068801122,0.0032422868587055126
15.498,0.21280702013836472,0.10082937840470595,0.1874536103311934,0.10400620636059102,-0.000956682816566056,-0.007021596777925343,0.0033576183008767082
15.531,0.21800380891474042,0.0724948783467502,0.15605972301428508,-0.8508858876262987,-0.0009592832622474115,-0.007195865474274525,0.0024140794489467816
15.564,0.21800283246189106,0.07246440375707763,-2.932290838903879e-05,-0.0009151528430199198,-0.0009419085265823225,-0.007198127572614276,0.0024130646451106853
15.596,0.2245897104851675,0.07502654484307761,0.1978041448431359,0.07694117375375299,-0.0009521543239069157,-0.007417976900344972,0.0024983839432744844
15.63,0.21794507365802573,0.08807578731438212,-0.1995386434577103,0.39186914328241773,-0.0009044320650601578,-0.007200993057720103,0.002932923717568925
15.663,0.21796961753146588,0.08809718962029964,0.0007370532564607065,0.000642711889414932,-0.0008834051483050756,-0.007204426260825106,0.0029336364143559782
15.697,0.22461249222889185,0.09067000829481267,0.19948572664942854,0.07726182205744844,-0.0008882266067641751,-0.00742666595362779,0.0030193112762172624
15.731,0.21803555158269577,0.08078321116264761,-0.19750572511099315,-0.29690081477973146,-0.0008416346922348487,-0.0072116362466948716,0.0026900809317161657
15.764,0.21804566058077546,0.08038638298131169,0.00030357351590640024,-0.01191676220227989,-0.0008223175752217033,-0.007214203268044866,0.0026768665532776797
15.797,0.22465252209245345,0.08233921632226425,0.19840424959993982,0.05864364387244921,-0.0008270927162097598,-0.007435064294676348,0.0027418959035313997
15.83,0.21804833524128295,0.047110337690245994,-0.19832392946457977,-1.0579242832437914,-0.0007872227418249636,-0.007218208186510593,0.0015687742450851917
15.861,0.2180464058263064,0.04664635608509738,-5.7940389685795206e-05,-0.013933381535994412,-0.0007759469463816187,-0.007219364417243834,0.001553323657633743
15.896,0.22464554389698718,0.04741930905480927,0.19817231443485797,0.023211800892248873,-0.0007877807503885268,-0.007439100191471098,0.0015790629915251489
15.931000000000001,0.21805398308913881,0.05559487531422966,-0.19794476900445548,0.24551250028289456,-0.0007522794465724973,-0.00722212238175413,0.0018513093479638478
15.963000000000001,0.21804105351588354,0.05609823785694427,-0.0003882754731312745,0.015115992273712,-0.0007388034301910963,-0.007223080560310482,0.0018680713206362443
15.997,0.2246192214496304,0.05847139288502619,0.1975425805929986,0.07126591675921683,-0.000746896972826792,-0.007442434788413154,0.0019470973830713722
16.029,0.20654087276181726,0.031098159183180325,-0.5428933539883823,-0.8220190300854613,-0.0006765768764765733,-0.0068444520979164605,0.001035568700799905
16.063,0.20653748592757581,0.031304197902821525,-0.00010170673397741174,0.006187348938174158,-0.0006694541537898038,-0.006845039116197997,0.001042429790163957
16.098,0.21273115917284832,0.033106477607085474,0.18599619355172692,0.054122513641560045,-0.0006819684165663986,-0.007051044433432921,0.0011024457043159464
16.13,0.20650110169434827,0.07111260620071655,-0.18708881316816983,1.141325182991924,-0.000650118153995283,-0.006845684292850098,0.0023680497864838612
16.164,0.20652364580284763,0.0712002208712322,0.0006770002552360844,0.0026310711866563553,-0.000633964639679669,-0.0068479530523556835,0.0023709673550120327
16.198,0.21281149979494154,0.07322712419745915,0.18882444420702452,0.0608679677545629,-0.000636295807683076,-0.00705799741422917,0.0024384632357753898
16.231,0.2180038656832895,0.04717015751467926,0.15592690355399264,-0.7824914919753719,-0.0006373257409998797,-0.007231497936523218,0.0015707662452388196
16.264,0.21802540661165418,0.047053516857212284,0.0006468747256659833,-0.003502722446455792,-0.0006260418658569637,-0.007233203533817224,0.001566882111345169
16.297,0.22464611600233883,0.04809487076775022,0.19882010182236196,0.031271889205343496,-0.0006332449141254229,-0.007453864484005294,0.0016015591965660827
16.331,0.2180556067125274,0.042662291374846784,-0.1979131918862288,-0.16314052230941256,-0.0006037333958268274,-0.00723610899730537,0.001420654302782398
16.364,0.21802110027887384,0.04174895433628678,-0.0010362292388460953,-0.027427538695495572,-0.0005934689066302007,-0.007235805172909607,0.00139024017939835
16.397,0.22465547281229759,0.04283947268652528,0.19923040640912157,0.032748298805960856,-0.0006010265370374074,-0.00745684425516797,0.0014265544404612918
16.431,0.21805604027346312,0.04247660321483344,-0.1981811573223563,-0.01089698113188709,-0.000573088944545201,-0.0072386149395283,0.0014144708870539536
16.464,0.2180322196916311,0.043086030603107124,-0.000715332787747957,0.01830112277098158,-0.0005627146270278774,-0.007238633169712067,0.0014347648190834673
16.498,0.2246242227487021,0.04487946288155008,0.19795804976189185,0.05385682517846708,-0.000568804737970005,-0.007458327597715287,0.0014944861139556177
16.531,0.21798690112323849,0.05085241943708979,-0.19931896773164043,0.1793680647309223,-0.0005404598486067596,-0.007238815242681954,0.0016933855672550903
16.563,0.217961570148385,0.05137920495762399,-0.0007606899355403471,0.015819385001027052,-0.0005280761017965257,-0.007238883399053883,0.0017109275250888792
16.598,0.22456268859066772,0.05324093763300471,0.19823178505353534,0.05590788814957121,-0.0005310769468042287,-0.007459054385961946,0.001772923223179057
16.631,0.2179839838512838,0.044161224419025424,-0.19755870088239957,-0.27266406047985847,-0.0005037757510912628,-0.007241363526104927,0.0014705687731535468
16.664,0.2180135836146993,0.04397900552126892,0.0008888817842489115,-0.005472038971666844,-0.0004932152235765835,-0.007243078436688897,0.0014645008838582551
16.698,0.22463119029403247,0.044940875653961064,0.19872692730730243,0.0288849889697341,-0.0004971367784825594,-0.007463679751626392,0.0014965311592769037
16.731,0.18378754605002645,-0.22091539936310237,-1.2265358631833638,-7.983671922434337,-0.0004246341931210598,-0.006105362427255257,-0.007356482798791309
16.763,0.20656338572127644,0.05234349300660975,0.6839591492867865,8.205972743835199,-0.0004965157025828667,-0.006860616451451486,0.0017430383171201048
16.798000000000002,0.2128318041763024,0.053647841704984996,0.18824079444522399,0.039169630581839136,-0.0004991075618741469,-0.0070697020106155915,0.0017864731287760005
16.83,0.20654318072551162,0.048293398020253446,-0.1888475510747984,-0.16079410464659308,-0.00047271455530862347,-0.006861623202189961,0.00160817015407444
16.863,0.20655668995807408,0.04795587234574462,0.0004056826595334585,-0.010135906141406274,-0.0004617480563008674,-0.006862820792747025,0.001596930549113296
16.897,0.21284640209347672,0.049389648026420596,0.18888024430638545,0.0430563267470264,-0.00046434581076697777,-0.007072557567070682,0.001644675279279806
16.93,0.19525402169162467,-0.22981746172522463,-0.5282997117673286,-8.384597890439794,-0.0004454539974876058,-0.006486665879673672,-0.007652921475449981
16.964,0.21803441557650774,0.039474029921476014,0.6840959124589508,8.086831580982,-0.0005203801883685867,-0.007241873076016167,0.0013144851963851514
16.998,0.22461953987415495,0.040915722890058355,0.19775148040982612,0.043294083140610826,-0.000526110421881677,-0.007461304586840244,0.0013624935722389433
17.029,0.21797168307065026,0.056177562659036576,-0.19963533944458517,0.4583135065759225,-0.0004988339401059843,-0.007241294637554624,0.0018707128365459181
17.064,0.21795846297673396,0.056589694071861325,-0.0003969998173062953,0.012376318703445936,-0.00048520756540492707,-0.0072417792114343234,0.0018844368125929822
17.098,0.22456675815438923,0.05853092305596708,0.19844730263229024,0.0582951646878604,-0.00048561609570488496,-0.007462287571085187,0.001949079737763704
17.13,0.21799338741892113,0.06477712540655635,-0.19739852058462756,0.18757364416184,-0.00045652825133003463,-0.0072448086867091185,0.0021570782760383265
17.163,0.21801502979531923,0.06456974889123712,0.0006499212131560215,-0.006227522982559367,-0.00044096837578736815,-0.007246494445030738,0.0021501726380781963
17.197,0.2246271367454713,0.06609512098292562,0.19856177027483707,0.0458069697203754,-0.0004380978999646979,-0.007467241733615015,0.0022009675287314235
17.23,0.21802268723337645,0.05691991503401964,-0.19833181718002554,-0.2755317101773567,-0.0004103714351015407,-0.007248547245415399,0.0018954331706328544
17.263,0.21803404041125649,0.0565786868235313,0.00034093627267374645,-0.010247093408058287,-0.00039669341267205597,-0.007249687311241017,0.0018840702712235925
17.297,0.22463240167246132,0.05779031847457355,0.19814898682296792,0.0363853348661335,-0.0003944748463208002,-0.007469849173224139,0.0019244176052032992
17.33,0.2180193870772734,0.06679804386376052,-0.1985890268825203,0.2705022639395488,-0.0003678217087152966,-0.00725072047606625,0.0022243748606632255
17.363,0.21805274683743608,0.06678781856688704,0.0010017945994802815,-0.0003070659721767784,-0.0003517475399544792,-0.007252630227216133,0.0022240343582773385
17.398,0.22467801038024005,0.06897985628479036,0.19895686314726607,0.06582695849559543,-0.0003455411014061637,-0.007473792542605189,0.0022970292142835192
17.431,0.20653493395256411,0.12336957754732958,-0.5448371299602381,1.6333249628390154,-0.000295633559962478,-0.006871251631543507,0.004108206932326075
17.463,0.20655750447608326,0.12333959389165515,0.0006777934990734004,-0.0009004100803131751,-0.0002674352746477667,-0.0068731590661861965,0.004107208476592117
17.497,0.21279765752733137,0.12746750111880634,0.1873919835209644,0.12396117799252812,-0.0002459432539205314,-0.00708188734392925,0.004244667787256251
17.53,0.2065158653893872,0.0628710277864907,-0.18864240654486977,-1.9398340340034723,-0.00021690102804349117,-0.006873555662720626,0.0020936052252901404
17.563,0.20649531808332955,0.0633988088690321,-0.0006170362179477803,0.015849281757999857,-0.0002024295021711722,-0.0068733125330193824,0.002111180335338769
17.597,0.2127626764829802,0.06547719034808862,0.18820896095046985,0.062413858229925546,-0.00019337669637401657,-0.0070823562360534074,0.002180390438591351
17.631,0.20670640267747664,-0.23811421541363187,-0.18187008424935594,-9.116859031883498,-0.0002076490306903443,-0.006880172384536861,-0.007929203373273942
17.663,0.21735546802688077,0.04561758188858066,0.31979175223435824,8.520474393459835,-0.00024153357506202035,-0.0072339052184019655,0.001519065476889736
17.697,0.22460649575472103,0.05624570745431266,0.2177485804156232,0.31916292990186196,-0.00023691265753670955,-0.007475642124959366,0.0018729820582286119
17.731,0.21802200087307197,0.055579905095481344,-0.19773257902850014,-0.019994064829769335,-0.0002164561787728085,-0.007256904124213759,0.0018508108396795289
17.763,0.21803822649266646,0.05538337856540868,0.00048725584367854117,-0.005901697599779633,-0.00020306351741964998,-0.007257831758810188,0.0018442665062281093
17.798000000000002,0.22466163655828353,0.05685966926636975,0.19890120317168358,0.044333054082914866,-0.0001952558717102554,-0.0074786829123568615,0.0018934269865701129
17.83,0.21805633209424038,0.10780584816346724,-0.198357491412707,1.5299152821951196,-0.00016961306022902624,-0.007259290728458157,0.0035899347438434594
17.863,0.21806211824454635,0.1073388116668677,0.0001737582674465387,-0.014025120018003885,-0.0001436119083291059,-0.007260044407707787,0.003574382428506695
17.897,0.22468283927209792,0.11083286606555225,0.19882045127782486,0.10492655851905525,-0.00012079803029189932,-0.007480959077862644,0.00369073443998289
17.93,0.20655723368422985,0.06627278928659838,-0.5443124801161584,-1.3381404438124282,-9.077229220774723e-05,-0.006877755507725719,0.002206883883243726
17.964,0.20656412778096517,0.06626602089951436,0.00020702993199163622,-0.00020325486738804297,-7.559697385823361e-05,-0.006878168634263392,0.0022066584959538286
17.997,0.212791452561845,0.06885067051182041,0.18700675017657173,0.07761710547465607,-6.193556680613425e-05,-0.007085683135786025,0.0022927273280436197
18.03,0.2059159626436903,0.03338442255677402,-0.20647116871335444,-1.065052491142534,-4.826266020614575e-05,-0.006856831353669399,0.001111701271140575
18.064,0.1950816806070881,0.054979278180194636,-0.32535381491297877,0.6484941628654839,-3.616590503254498e-05,-0.006496118384324684,0.0018308099634004817
18.098,0.2009475348724579,0.05738891485961804,0.17615177974083437,0.07236146184454673,-2.473407480094336e-05,-0.0066915061803835985,0.001911050864825281
18.13,0.20652474959254694,0.010118318301548183,0.1674839255281994,-1.4195374341762719,-1.769057611130001e-05,-0.006877251375916075,0.00033693999944155455
18.164,0.2065138383230358,0.01043309847451071,-0.00032766575108522417,0.009452858046922728,-1.5336499439332658e-05,-0.006876893680251947,0.00034742217920120667
18.197,0.2127834895980273,0.010354673226917363,0.18827781606581045,-0.0023551125403407473,-1.334963911420065e-05,-0.007085677592951944,0.00034481061845634823
18.231,0.21801919830428435,0.04767327449191401,0.15722848967738912,1.120678716666566,-6.663725969120071e-06,-0.007260035482965667,0.0015875200405807367
18.263,0.21803555983807474,0.04746876228085201,0.0004913373510628615,-0.006141507839699645,4.837371058156191e-06,-0.0072605817752557965,0.0015807097839523722
18.298000000000002,0.22464323909793335,0.048503511921458214,0.1984288066023607,0.03107356278096701,1.693752411439772e-05,-0.007480599873939438,0.0016151669469845586
18.331,0.2180387955456389,0.05937845275444536,-0.19833163820704044,0.3265747997894037,2.9481402835458226e-05,-0.007260630855283462,0.0019773024767230306
18.364,0.21807294438741556,0.05940853215315691,0.0010254907440438437,0.0009032852465931586,4.384830182787423e-05,-0.0072616954805007775,0.0019783041207001254
18.398,0.22469304363929454,0.0614207326313737,0.1988017793357051,0.06042644078729102,6.023193933906131e-05,-0.007482034613087718,0.0020453103966247446
18.431,0.19441780933712896,0.027021240399230494,-0.9091661952602276,-1.0330177847490454,6.164941337038398e-05,-0.006473819299147405,0.0008998073052943756
18.463,0.2065622637701355,0.05425082852543187,0.36469833132151785,0.8177053491351765,7.48077773896417e-05,-0.006878115647940741,0.0018065525898968815
18.497,0.21279443994780786,0.05673577717957389,0.18715243776793858,0.07462308270696753,9.015839340661333e-05,-0.007085480214435784,0.0018893013800798109
18.53,0.2180331903854677,0.03853550320280045,0.15731983296275792,-0.5465547740772805,0.00010389403954386476,-0.007259761368838926,0.001283232256653255
18.564,0.21798966061638417,0.04037959648949473,-0.0013072002727787823,0.05537817677760613,0.00011341016457252947,-0.007258169178890572,0.0013446405631001748
18.594,0.22458560986913015,0.041692097564137526,0.19807655413651593,0.039414446685969745,0.00012705997535359507,-0.007477620782301213,0.0013883468488857797
18.63,0.206526025441248,0.061130229110039076,-0.5423298626991632,0.5837276740510976,0.00012861473198047023,-0.006876112723320711,0.0020356366293643015
18.662,0.20651762873824298,0.06121800466153894,-0.0002521532433945021,0.0026359024474433895,0.00014261597291688732,-0.006875556902101384,0.002038559555229247
18.697,0.21278574520397442,0.06281925941703165,0.18823172569764093,0.04808572839317436,0.00016157477188646495,-0.00708392161076157,0.0020918813385871543
18.731,0.20650270013109187,0.025436379210426123,-0.18868003221869512,-1.122609015213379,0.00016690586093049767,-0.006874513859192803,0.00084703142770719
18.764,0.19506594981424008,0.047997254356491645,-0.3434459554610147,0.6775037581401057,0.00016560172479827639,-0.006493584163176868,0.001598308570071172
18.797,0.20097598870872668,0.04897825952489789,0.17747864548007813,0.029459614666854272,0.00018142132009628476,-0.006690040231657909,0.0016309760421791
18.828,0.19509380684084027,0.02688974998097713,-0.17664209813472717,-0.6633186049225454,0.00018431487116910038,-0.006494008437672649,0.0008954286743665385
18.864,0.18363031765708665,0.048821277327314457,-0.3442489244370455,0.6586044248149346,0.0001811898431321266,-0.006112203903331673,0.0016257485349995715
18.89,0.18924027755312572,0.04977904734587251,0.1684672641453175,0.028761862419160796,0.000197065918906182,-0.006298618458073502,0.0016576422766175548
18.926,0.1835617366807082,0.034437606748427045,-0.17052675292545155,-0.46070392184520914,0.00019971932235420854,-0.006109341875230082,0.0011467723047226207
18.964,0.1721309939552694,0.05558845135219266,-0.34326554731047404,0.63516049861158,0.00019586942914574673,-0.005728613731614835,0.0018510954300280159
18.997,0.1773621447444579,0.05737429781377406,0.15709161529094623,0.05362902287031227,0.00021292362925720757,-0.005902319206171553,0.0019105641171986763
19.03,0.21720423651404222,0.034884076452185206,1.196459212299829,-0.6753820228705361,0.0002718571078367998,-0.007227789828439741,0.0011616397458577674
19.062,0.21801715929439125,0.041255801159487404,0.02441209550597685,0.1913430843033693,0.000282071522054963,-0.007254489104050855,0.0013738181786109307
19.098,0.22464573844552044,0.04278246426833895,0.19905643096484046,0.04584573900455085,0.00030110668922660877,-0.007474640059621468,0.001424656060135687
19.13,0.20567442760418828,0.04476663330980439,-0.569709034274239,0.05958465589986315,0.0002856535432994706,-0.00684299825138463,0.0014907288892164864
19.163,0.206494331934926,0.05114366178711434,0.024621751673805557,0.1915023566759744,0.0002977630889898325,-0.006869810371446656,0.0017030839375109076
19.197,0.21277076005581755,0.052397920857900765,0.1884813249516981,0.03766543756115393,0.00031901649028311005,-0.007078079854319134,0.0017448507645680957
19.226,0.194258949383447,0.028605539575996358,-0.5559102304015175,-0.7144859243815137,0.00029997638518479896,-0.006461863678281939,0.0009525644678806788
19.262,0.19502406871630001,0.03492854350246339,0.02297655654213224,0.18987999779180276,0.00030802027085151997,-0.0064869924139199465,0.001163120498632031
19.294,0.20095140609044546,0.03566279949208652,0.17799811934370693,0.022049729418111997,0.0003252378518478675,-0.00668377293860078,0.0011875712230864813
19.329,0.21722976150569304,0.02499296082495309,0.48883950195938675,-0.32041557558959244,0.0003588809023656569,-0.007224842963595171,0.000832265595470938
19.364,0.21806522599843783,0.030115643930668273,0.02508902380615007,0.15383432749895443,0.00036691570933718864,-0.007252295962525843,0.0010028509428912536
19.398,0.22469831474843172,0.03089460157338123,0.1991918543541706,0.02339212140279147,0.0003856674429603074,-0.007472507729568302,0.001028790232393595
19.43,0.18352893606012874,0.025120220678022998,-1.2363176783274166,-0.17340483169243937,0.00032069736450370966,-0.0061030934081444865,0.000836503348578166
19.463,0.1721139072452116,0.026203017373228398,-0.3427936581056194,0.032516417273435454,0.000305641610834034,-0.005723237555565011,0.0008725604785285058
19.497,0.17735548262511644,0.027321784756495594,0.15740466606320805,0.033596618116131995,0.00032020533751183456,-0.005897250607973872,0.0009098154323913033
19.53,0.2057935422885473,0.026049162258977982,0.8539957856886141,-0.03821689181734569,0.00037762923854710046,-0.0068425122357435855,0.0008674371032239669
19.563,0.21801708906178804,0.021642305224297685,0.3670734766738964,-0.1323380490894984,0.0004058153234046891,-0.007248617970187534,0.0007206887639691129
19.597,0.22464989021672646,0.022628704320718875,0.1991832178660185,0.0296215944871228,0.0004236670518706949,-0.007468834634562918,0.0007535358538799386
19.631,0.20650139126218098,-0.04098204834542848,-0.5449999686049695,-1.9102328127972177,0.0003873428039141281,-0.006865577905505421,-0.0013647022099027685
19.663,0.2064923719434625,-0.04097022197999998,-0.0002708504119659845,0.0003551461089639478,0.000377957820094014,-0.006865800156298483,-0.0013643083919339994
19.697,0.2127646092888379,-0.04256909917697825,0.18835547583709852,-0.04801433023958776,0.00037959804738937506,-0.007074884679198202,-0.0014175510025933758
19.731,0.2065221478275754,-0.037568614734487374,-0.18746130514301815,0.150164697972699,0.0003592974128561968,-0.006867794946154764,-0.0012510348706584297
19.764,0.20648874799234632,-0.038379680764208564,-0.0010029980549270227,-0.02435633722886456,0.00035055582864424004,-0.006867133013030651,-0.0012780433694481452
19.797,0.2127654923937802,-0.03983227394550332,0.18849082286588248,-0.04362141685569847,0.00035199713622192084,-0.0070763411217194105,-0.0013264147223852607
19.83,0.22952184111617854,0.025065315231131275,0.5031936553272774,1.9488765518508888,0.0003778417982400667,-0.007633731914203826,0.0008346749971966716
19.864,0.21805704214640145,-0.03589356610221571,-0.3442882573506633,-1.8305970370374467,0.00035766074071500885,-0.007252485297915371,-0.0011952557512037833
19.897,0.2247010635420671,-0.03721120428028184,0.19952016203200115,-0.03956871405603985,0.00035946144423307827,-0.00747390568631396,-0.0012391331025333853
19.931,0.20648448070325348,0.0274123735237539,-0.5470445296941023,1.9406479821031752,0.0003291992851603236,-0.006868047904650372,0.000912832038341005
19.963,0.1950844300629615,-0.03385819555323599,-0.34234386307183123,-1.8399570293390357,0.0003103277137993065,-0.006488894791762037,-0.0011274779119227587
19.997,0.20102871501032465,-0.03490932143152142,0.17850705547637097,-0.031565341690253164,0.00031212725637466975,-0.006686975230424111,-0.0011624804036696635
20.03,0.19500400301659576,0.017632932447773805,-0.18092228209396072,1.5778454618406974,0.00030090711257344964,-0.006486657624602523,0.0005871766505108677
20.064,0.18359934473820202,-0.04319674760481199,-0.34248223058239446,-1.8267171186962698,0.0002807092551127313,-0.006107410065758233,-0.0014384516952402394
20.098,0.18912829024430772,-0.04354617420430705,0.1660343995827535,-0.010493291276127857,0.0002800759114337257,-0.006291740829586384,-0.0014500876010034248
20.131,0.18351139336369993,0.028052749967458136,-0.16867558200023394,2.1501178429959515,0.0002701831282813555,-0.006104953438089598,0.0009341565739163561
20.163,0.17208329635820652,-0.031801117490339745,-0.34318609626106333,-1.7974134371711075,0.00025300029657751507,-0.005724785699966114,-0.0010589772124283137
20.197,0.17730347696491422,-0.032674476338776036,0.1567621803816127,-0.026226992445534267,0.00025434286655928175,-0.005898724624384109,-0.0010880600620812421
20.231,0.17208957963828736,0.03068346505569047,-0.15657349329209788,1.9026408827167116,0.00024667370748772974,-0.005725271239627073,0.0010217593863544928
20.263,0.16063985815080586,-0.02872793928639157,-0.3438354801045494,-1.7841262565189802,0.00023043565363772738,-0.00534434145286657,-0.0009566403782368394
20.298000000000002,0.1654669635626466,-0.030039518352762837,0.14495812047569748,-0.039386758749887875,0.00023197349739270586,-0.005505164440601921,-0.0010003159611470026
20.331,0.16065751508678086,0.02855169558185216,-0.14442788215813002,1.7594959139524022,0.00022509856515192574,-0.005345157405674835,0.000950771462875677
20.363,0.14919170251714237,-0.031297106446816526,-0.34431869578493973,-1.7972613221822427,0.00020880682368686293,-0.00496369349024852,-0.0010421936446789904
20.397,0.1537048966216208,-0.032583534424336556,0.13553135448884154,-0.03863147079639729,0.00020968415603267915,-0.005114075941971311,-0.0010850316963304074
20.43,0.13775304909443972,-0.12704097520787158,-0.4790344602757077,-2.8365597832893394,0.0001757405562121196,-0.004583805453592126,-0.004230464474422124
20.464,0.137753208786996,-0.12715857268317274,4.795572260951052e-06,-0.0035314557147494473,0.00015633861989203888,-0.004584513512278655,-0.004234380470349653
20.497,0.14194101578024512,-0.1309742444102942,0.12575996976724055,-0.11458473655019419,0.0001407871613220385,-0.004724534875231737,-0.004361442338862797
20.531,0.14919594276546075,0.01800458102347597,0.21786567523170047,4.47383860161472,0.00013864216023195153,-0.004966289984512217,0.0005995525480817498
20.564,0.12719772663670764,-0.12399149470138542,-0.6606070909535466,-4.264146418164005,0.0001107280655823037,-0.004234233728933365,-0.004128916773556135
20.597,0.13009146582502226,-0.1418372107780262,0.08689907472416276,-0.535907389688912,9.407877774659653e-05,-0.004331020112263526,-0.004723179118908272
20.631,0.11572568888771671,-0.10803446967118642,-0.43140471283199844,1.0150973305357287,6.766031550981329e-05,-0.0038530693463663,-0.0035975478400505083
20.663,0.11477256519669086,-0.12122656946830963,-0.02862233306383927,-0.39615915306676314,5.2515813580177235e-05,-0.003821563007545756,-0.004036844763294711
20.698,0.11823315734992793,-0.12474154672612311,0.1039216862833952,-0.10555487260701144,3.797623912381363e-05,-0.0039369781532699365,-0.0041538935059799
20.731,0.11474849988508312,-0.013609959604447467,-0.10464436831365775,3.337284898548818,2.805515781263847e-05,-0.0038210220199174716,-0.00045321165482810073
20.764,0.11472568472566087,-0.013027598118677998,-0.0006851399225900496,0.01748833290599008,2.6355232074989537e-05,-0.0038202743630161196,-0.0004338190173519774
20.796,0.11820498415263499,-0.013322146665992459,0.10448346627549891,-0.008845301721154998,2.5427635006258523e-05,-0.003936143809129823,-0.00044362748397754894
20.829,0.11472784725082938,-0.10084085213101332,-0.10441852557974798,-2.6281893533039296,1.7417814453751365e-05,-0.0038203958133198935,-0.003358000375962744
20.863,0.1147232979121964,-0.10062757284888221,-0.0001366167757650256,0.006404783247180387,4.602234030642666e-06,-0.0038202812610176537,-0.003350898175867778
20.897,0.11820420745946035,-0.10388795347833953,0.10453181823615455,-0.09790932821193131,-8.661595016951543e-06,-0.003936188615639332,-0.0034594688508287064
20.93,0.11471872275506238,-0.0035621476004603792,-0.1046692103422813,3.012786963299674,-1.5240548862370263e-05,-0.0038201030640445236,-0.00011861951509533064
20.963,0.11472802177265741,-0.003444292723567702,0.00027924977762843655,0.003539185492272585,-1.568746292195736e-05,-0.003820410914955927,-0.00011469494769480449
20.997,0.11820192613507417,-0.003796179970180254,0.10432145232482772,-0.010567184582959516,-1.6636981952698666e-05,-0.003936088977401985,-0.00012641279300700247
21.03,0.11473653621437972,0.007018694092446457,-0.10406576338421772,0.324770992871673,-1.5944227764651495e-05,-0.003820693378766498,0.00023372251327846705
21.063,0.11474366086586857,0.006969315711622823,0.00021395349816355022,-0.001482834258967988,-1.5055321276511004e-05,-0.0038209342377350537,0.00023207821319704003
21.097,0.11822954971006532,0.0070707659217853665,0.10468134667257496,0.003046552857734026,-1.4592353193567246e-05,-0.003937016953435132,0.00023545650519545274
21.131,0.11472536197704065,0.009836398104031025,-0.1052308628535934,0.08305201748485459,-1.308441329939668e-05,-0.003820332130148255,0.00032755205686423315
21.162,0.11471327498934451,0.009426280245778601,-0.0003629726034877352,-0.012315851599171883,-1.1857892567777374e-05,-0.003819933636786692,0.00031389513218442743
21.198,0.11820541233438595,0.009625000650794826,0.10486898934058354,0.005967579730216962,-1.0970289196117559e-05,-0.00393622492677547,0.00032051252167146775
21.231,0.11474872484494696,0.015662784675475116,-0.10380442911228195,0.18131483557598466,-9.040633856303485e-06,-0.0038211217991356177,0.0005215707296933215
21.263,0.11476568647754223,0.01567774465862528,0.0005093583361945228,0.00044924874324816404,-7.047737260568606e-06,-0.0038216908177948223,0.0005220688971322219
21.297,0.11825508051206603,0.01623380257662641,0.10478660764335715,0.016698435976009868,-5.169712353180423e-06,-0.003937890739672083,0.0005405856258016594
21.331,0.11478553737603135,0.01623059271090384,-0.10419048456560585,-9.639236404105392e-05,-2.9519291072070312e-06,-0.003822357208240742,0.000540478737273098
21.363,0.11478808586682616,0.01637591455712413,7.653125509947638e-05,0.004364019406014673,-8.767968332011834e-07,-0.003822443111443621,0.0005453179547522336
21.398,0.11826967698351122,0.01699418441971814,0.10455228578633803,0.0185666625403607,1.2848212421044893e-06,-0.003938379981424594,0.0005659063411766141
21.431,0.1147891652382097,0.022904620159788155,-0.10451987223127689,0.17749056276486527,3.7863407116262598e-06,-0.00382247723450545,0.0007627238513209457
21.463,0.1147855029831048,0.023097159455146236,-0.00010997763077768884,0.005781960821563971,6.713873679586517e-06,-0.003822351258742403,0.0007691354098563698
21.498,0.11825554605034463,0.024025316934944845,0.10420549751470963,0.027872596990949232,1.0006472829249853e-05,-0.003937896864899239,0.0008000430539336634
21.53,0.11476366585574335,0.023954008105324925,-0.1048612671051436,-0.0021414062948925065,1.2763916968717906e-05,-0.0038216086564250044,0.00079766846990732
21.564,0.1147416431409428,0.024333157818123938,-0.000661342786803262,0.01138587726123162,1.583337549547829e-05,-0.0038208638060396633,0.0008102941553435272
21.597,0.08517894510028604,-0.11151268603104658,-0.8877687099296326,-4.079454770245361,7.636762668508553e-06,-0.002836446961686141,-0.0037133724448338516
21.63,0.04897976842365726,-0.10823182873806132,-1.0870623626615246,0.09852424303259036,-1.5761956232059012e-06,-0.001631024644131965,-0.0036041198969774422
21.664,0.015616174186576352,-0.10823098927021875,-1.0019097368492764,2.5209244521703194e-05,-2.3767298954810408e-06,-0.0005200128875455148,-0.0036040919426982847
21.697,9.626682291439378e-06,0.00011756206662415312,-0.4686650902187661,3.2537102503556423,-2.0421929084579582e-09,-3.205620153009364e-07,3.9148168185842994e-06
21.73,4.323149069896337e-05,0.0005357750713876577,0.001009153405631351,0.012558949091997132,-9.155417086763713e-09,-1.4395795273096682e-06,1.7841309877209004e-05
21.763,4.350489878288397e-05,0.0005386874833369027,8.210452970588609e-06,8.74598182956455e-05,-9.187401851859098e-09,-1.448683996970924e-06,1.793829319511886e-05
21.797,4.505736567482175e-05,0.0005567624653885289,4.6620627385518866e-05,0.0005427922538025884,-9.487887330128488e-09,-1.5003802781829613e-06,1.8540190097438013e-05
21.83,4.397225536594733e-05,0.0005423433794512719,-3.258589516139383e-05,-0.00043300558370141086,-9.23259598462614e-09,-1.464246996554286e-06,1.8060034535727356e-05
21.864,4.426014039387587e-05,0.000545270615602443,8.645196033890084e-06,8.79049895246579e-05,-9.266352177128745e-09,-1.4738335454644527e-06,1.8157511499561354e-05
21.898,-1.0971802974305927e-05,0.000814803684799524,-0.0016586169179634174,0.008094086162074503,2.2887953428590796e-09,3.6535386991027897e-07,2.713296270382415e-05
21.93,-8.438877039645113e-06,0.0008434061956698137,7.60638418817061e-05,0.0008589342603690607,1.7526507245284282e-09,2.810091398321613e-07,2.8085426315804798e-05
21.963,-7.402090282617414e-06,0.0008362092002377684,3.1134737448279244e-05,-0.00021612598895030872,1.5304298010277901e-09,2.4648485521231575e-07,2.784576636791769e-05
21.998,-7.86508907155523e-06,0.0008608246106644612,-1.3903867535670128e-05,0.0007392015143150995,1.6187575660193112e-09,2.6190246354199486e-07,2.8665459535126562e-05
22.03,-7.804850964040117e-06,0.0008356586757389076,1.8089521776309972e-06,-0.0007557337815481559,1.5990184728932246e-09,2.598966181457691e-07,2.7827433902105628e-05
22.064,-7.96148320187068e-06,0.0008358300183506782,-4.703670805722628e-06,5.1454237768928885e-06,1.6237303416828636e-09,2.6511241824105097e-07,2.7833139611077584e-05
22.098,-8.360466094000782e-06,0.0008612849147075911,-1.1981468232135164e-05,0.0007644113020093965,1.6972355012897032e-09,2.783983474312465e-07,2.8680787659762785e-05
22.13,-8.257476724895798e-06,0.0008360775581771528,3.092773846996497e-06,-0.0007569776735867349,1.6685569899046202e-09,2.749689124363993e-07,2.784138268729919e-05
22.164,-8.389429410470681e-06,0.0008362034139554042,-3.962543110356844e-06,3.7794528003437805e-06,1.6874417335542288e-09,2.793629030599937e-07,2.7845573684714962e-05
22.197,-8.772391060209975e-06,0.0008616897239547753,-1.1500349842020823e-05,0.0007653546546357665,1.7562121929342685e-09,2.9211534312358056e-07,2.869426780769402e-05
22.231,-8.625569111176946e-06,0.0008365496206783538,4.409067538529377e-06,-0.0007549580563489933,1.7186972619948675e-09,2.872263092915681e-07,2.7857102368589182e-05
22.264,-8.739440071005512e-06,0.0008366296128193929,-3.4195483432001807e-06,2.40216639756999e-06,1.7332794361207134e-09,2.9101819276983143e-07,2.7859766106885784e-05
22.298000000000002,-9.122177412965246e-06,0.0008620113267872282,-1.1493613872664673e-05,0.0007622136326677286,1.8005959893714754e-09,3.037631712548224e-07,2.8704977182014703e-05
22.33,-8.96305550348266e-06,0.0008366823490531912,4.778435720197792e-06,-0.0007606299619830927,1.760745903055786e-09,2.984645546771449e-07,2.786152222347127e-05
22.363,-9.065503173049564e-06,0.0008367028865268148,-3.0765065936007456e-06,6.167409496558513e-07,1.7724603906296798e-09,3.018760522117633e-07,2.7862206121342933e-05
22.398,-9.442268723059465e-06,0.0008620749482556822,-1.131428078107811e-05,0.0007619237756416641,1.8372311540789054e-09,3.1442218086039653e-07,2.870709577691422e-05
22.43,-9.258723456146317e-06,0.0008367334658496725,5.51186987727173e-06,-0.0007610054776579484,1.7927971958913064e-09,3.083102786451177e-07,2.7863224412794097e-05
22.463,-9.346725801177084e-06,0.0008367445168216219,-2.6427130639869956e-06,3.318610195009725e-07,1.8011651536860787e-09,3.11240757499303e-07,2.786359241016001e-05
22.497,-9.717114058259011e-06,0.0008621096490504722,-1.1122770482940766e-05,0.0007617156825480579,1.8633883919278228e-09,3.2357453276822083e-07,2.8708251313380727e-05
22.531,-9.511271465798373e-06,0.0008367603483419009,6.181459233052186e-06,-0.0007612402615186593,1.8149564803004435e-09,3.167201395642044e-07,2.7864119599785302e-05
22.564,-9.585641861205969e-06,0.0008367652049375069,-2.233345207435303e-06,1.4584371189289412e-07,1.82025380226107e-09,3.191966839134279e-07,2.7864281324418984e-05
22.597,-9.949336789073695e-06,0.0008621247524444832,-1.09217696056374e-05,0.0007615479731824699,1.8799456691545894e-09,3.3130758139879167e-07,2.870875425640129e-05
22.63,-9.723484901251305e-06,0.0008367690896858858,6.782338973645335e-06,-0.000761431314071993,1.8281117130308243e-09,3.2378688645254715e-07,2.786441068654e-05
22.663,-9.785243721931417e-06,0.0008367680979466625,-1.854619239643018e-06,-2.978195865753623e-08,1.8306435545996491e-09,3.2584347353886035e-07,2.7864377661623863e-05
22.698,-1.0142345044617773e-05,0.0008621217598433214,-1.0723763444034706e-05,0.0007613712281278944,1.887897464596003e-09,3.3773481345312815e-07,2.8708654602782604e-05
22.731,-9.899067810584374e-06,0.0008367607457857404,7.305622643645628e-06,-0.0007615920137411696,1.8332896551672458e-09,3.2963386011444023e-07,2.786413283466516e-05
22.764,-9.949526769957572e-06,0.000836754646160431,-1.515284065261205e-06,-1.8317193121317536e-07,1.8334028171806494e-09,3.313141686900199e-07,2.7863929717142358e-05
22.798000000000002,-1.0300044218697395e-05,0.0008621026370338792,-1.0526049511706401e-05,0.0007612009271305758,1.8882910897106928e-09,3.429862745710288e-07,2.870801781322818e-05
22.831,-1.0041277911256742e-05,0.0008367374615443385,7.77075998320278e-06,-0.0007617169816678893,1.8313939950407605e-09,3.3436953905777084e-07,2.7863357469426473e-05
22.863,-1.0081575092024175e-05,0.0008367268524651578,-1.2101255485715558e-06,-3.185909663872358e-07,1.8293896709160868e-09,3.3571146615061024e-07,2.786300418708976e-05
22.897,-1.0426015324756294e-05,0.0008620694055622507,-1.0343550532496046e-05,0.0007610376305433301,1.882071346228093e-09,3.4718120898063233e-07,2.8706911205222952e-05
22.929,-1.0154202082491836e-05,0.0008367004556544946,8.162559827761479e-06,-0.0007618303275602426,1.8234406362803316e-09,3.3813001271844277e-07,2.7862125173294674e-05
22.962,-1.018576034328122e-05,0.0008366851677754238,-9.476955192007311e-07,-4.590954675934341e-07,1.8196574926500792e-09,3.391809383535903e-07,2.7861616086921615e-05
22.997,-1.0524679751455066e-05,0.000862021881999588,-1.0177760005220582e-05,0.0007608622890139408,1.870292078401091e-09,3.504668452703027e-07,2.8705328670586282e-05
23.03,-1.0241985397283213e-05,0.0008366500192346892,8.489319945100694e-06,-0.0007619178007477101,1.8104098000900548e-09,3.410533086623973e-07,2.7860445640515156e-05
23.063,-1.0266079195391001e-05,0.0008366307635185485,-7.235374807143661e-07,-5.782497339557834e-07,1.8051445666402632e-09,3.4185567126046537e-07,2.7859804425167668e-05
23.097,-1.0599882206169003e-05,0.0008619621608586426,-1.0024114437777814e-05,0.0007607026228256473,1.853856517285776e-09,3.529712091243895e-07,2.87033399565928e-05
23.13,-1.0307739784123539e-05,0.0008365886630332883,8.773045707070982e-06,-0.0007619669016622902,1.7930553259979014e-09,3.432430514938688e-07,2.7858402479008502e-05
23.162,-1.0324817231647712e-05,0.0008365660619851283,-5.128362619871785e-07,-6.787101549564132e-07,1.7864480728297423e-09,3.4381177263541863e-07,2.7857649864104774e-05
23.197,-1.0653328013868426e-05,0.0008618917688060953,-9.865188655276715e-06,0.0007605317363653776,1.8332564229027055e-09,3.5475108599780867e-07,2.8700995901242976e-05
23.23,-1.0353148855781538e-05,0.0008365168331679094,9.0143891317384e-06,-0.0007620100792248033,1.771851534861902e-09,3.447553037475611e-07,2.7856010544491386e-05
23.263,-1.0364222979901752e-05,0.0008364909893283285,-3.32556279886326e-07,-7.760912787042935e-07,1.7641331431023666e-09,3.451241164859435e-07,2.7855149944633343e-05
23.297,-1.0688010726306169e-05,0.0008618111597491284,-9.723355747880368e-06,0.0007603654781020983,1.8091824021078662e-09,3.5590615888217153e-07,2.869831161964598e-05
23.33,-1.0381392694600808e-05,0.0008364356853547156,9.20774869986067e-06,-0.0007620262580904731,1.747505682659315e-09,3.4569595989366956e-07,2.7853308322312033e-05
23.363,-1.0387439604360512e-05,0.0008364071750634906,-1.8158888167277047e-07,-8.5616490165409e-07,1.7388893414488297e-09,3.458973679847989e-07,2.7852358929614238e-05
23.398,-1.0706988141100942e-05,0.0008617221707047668,-9.596052154367279e-06,0.0007602100793176053,1.782302039172462e-09,3.5653825033142196e-07,2.869534828446874e-05
23.431,-1.039529906927123e-05,0.0008363468473046862,9.360032187078456e-06,-0.0007620217237261439,1.7206308821705849e-09,3.461591827086386e-07,2.7850350015246054e-05
23.464,-1.039716032988633e-05,0.0008363160299820184,-5.5893712165205986e-08,-9.254451251594282e-07,1.7112967542951497e-09,3.462212097145028e-07,2.7849323798401215e-05
