Time,linear_velocity_x,angular_velocity_yaw,linear_acceleration_x,angular_acceleration_yaw,wheelRight_velocity,wheelLeft_velocity,kinematic_delta_x,kinematic_delta_y,kinematic_delta_yaw
0.505,-4.555180749356103e-06,4.020671740490534e-06,4.386200722038047e-05,-8.779137634137175e-05,-4.233527010116861e-06,-4.876834488595346e-06,-1.516875189535578e-07,-1.018831222566906e-14,1.3388836895833477e-07
0.537,-4.0718697231607435e-06,8.63415594276306e-06,1.4513844630491282e-05,0.00013854306913731312,-3.3811372477396984e-06,-4.7626021985817885e-06,-1.3559326178124706e-07,-3.7645503189596443e-14,2.8751739289400996e-07
0.5720000000000001,9.32986445202334e-06,-8.276266872831894e-05,0.0004024544797352577,-0.0027446493895219816,2.7088509537578233e-06,1.5950877950288856e-05,3.106844862521368e-07,-2.9719502914256483e-13,-2.755996868653021e-06
0.605,1.1023749613368268e-05,-1.1178698141830708e-05,5.0867422262610436e-05,0.002149668786381028,1.0129453762021814e-05,1.1918045464714726e-05,3.67090862123995e-07,-9.253538356959176e-13,-3.7225064812296264e-07
0.638,3.270241046128665e-07,2.9723678773551897e-06,-0.00032122298825091293,0.00042495693751308993,5.648135348012817e-07,8.923467442445132e-08,1.0889902683570013e-08,-2.8949147686453394e-14,9.897985031592782e-08
0.672,-6.872089428042157e-08,7.344636686622562e-06,-1.1884234200999641e-05,0.00013129936364166282,5.188500406493834e-07,-6.562918292102266e-07,-2.28840577953096e-09,5.687387748525489e-15,2.4457640166453134e-07
0.7050000000000001,-6.027458556292078e-08,7.790783877885536e-06,2.5364290442945315e-07,1.3397813551440676e-05,5.629881246679221e-07,-6.835372957937637e-07,-2.0071436992402525e-09,4.482812793835796e-15,2.594331031335884e-07
0.7380000000000001,-4.963198352803622e-08,7.969990940988487e-06,3.1959765870524197e-07,5.381593486575096e-06,5.879672917510428e-07,-6.872312588071152e-07,-1.65274505148039e-09,3.2577617197424827e-15,2.6540069833491664e-07
0.772,-4.1776302057345474e-08,8.302143061111076e-06,2.3590635047119352e-07,9.974538141819499e-06,6.223951428315406e-07,-7.059477469462317e-07,-1.3911508585075887e-09,2.365379699839281e-15,2.7646136393499885e-07
0.805,-3.272336095787947e-08,8.114188393765558e-06,2.718600930770572e-07,-5.644284304670235e-06,6.164117105433652e-07,-6.818584324591242e-07,-1.0896879198962743e-09,1.5549908188584322e-15,2.702024735123931e-07
0.8370000000000001,-2.5852301600760764e-08,8.15046529366802e-06,2.063381188323935e-07,1.089396393467355e-06,6.261849218926809e-07,-6.778895250942025e-07,-8.60881643304755e-10,9.95174407162011e-16,2.714104942791451e-07
0.8720000000000001,-1.99884730189028e-08,8.419199150657166e-06,1.7609094840414304e-07,8.070085795469827e-06,6.535474590336705e-07,-6.93524405071476e-07,-6.656161515292034e-10,5.859472606064583e-16,2.8035933171688365e-07
0.905,-1.3197030055343765e-08,8.178460301881531e-06,2.0394723614291394e-07,-7.229394858127159e-06,6.410797940951788e-07,-6.674738542058664e-07,-4.394611008428659e-10,2.653199728232349e-16,2.72342728052655e-07
0.9380000000000001,-7.0798857067254436e-09,8.171644652735348e-06,1.8369802848703667e-07,-2.0467414853403853e-07,6.466516865121023e-07,-6.608114579255532e-07,-2.357601940339436e-10,7.820194401283698e-17,2.721157669360871e-07
0.9720000000000001,-6.244405593195368e-10,8.397432862185871e-06,1.93857211633811e-07,6.780426710225933e-06,6.711701884155503e-07,-6.724190695341893e-07,-2.079387062534048e-11,1.1558003701624852e-18,2.7963451431078956e-07
1.005,6.411003259796797e-09,8.113584141381694e-06,2.1127458916265262e-07,-8.523985609735062e-06,6.554977345703323e-07,-6.426757280507388e-07,2.134864085512276e-10,4.6757436443245475e-17,2.7018235190801043e-07
1.038,1.4181087535489864e-08,8.059408372905762e-06,2.3333586413492692e-07,-1.6268999542321972e-06,6.589337573679508e-07,-6.305715822969711e-07,4.722302149317548e-10,2.3071004454661383e-16,2.683782988177619e-07
1.072,2.4056735182487984e-08,8.224344491222455e-06,2.9656599540534893e-07,4.953036586086894e-06,6.820042944802843e-07,-6.338908241153082e-07,8.010892815766162e-10,6.082517980916131e-16,2.738706715577078e-07
1.105,3.43219033174231e-08,7.87799641737801e-06,3.082633073554089e-07,-1.0400843058391766e-05,6.645616167076638e-07,-5.959178100728176e-07,1.1429193804695825e-09,1.175363197218675e-15,2.6233728069868776e-07
1.138,4.7588220891430655e-08,7.740314809021523e-06,3.983879151353619e-07,-4.134582833528116e-06,6.668134056131525e-07,-5.716369638302911e-07,1.5846877556833228e-09,2.0402199468153794e-15,2.577524831404167e-07
1.172,6.642344708297088e-08,7.783319043329238e-06,5.656224081543611e-07,1.291418447679115e-06,6.8908897054931e-07,-5.562420763833682e-07,2.21190078786028e-09,3.4203772464752802e-15,2.591845241428636e-07
1.205,8.595048916837177e-08,7.308052665524757e-06,5.863976602222487e-07,-1.4272263597732143e-05,6.705947024103525e-07,-4.986937240736088e-07,2.862151289302149e-09,5.143312295052982e-15,2.4335815376197443e-07
1.238,1.130741331198451e-07,6.988371996201153e-06,8.145238423865863e-07,-9.60002009980794e-06,6.721438928159374e-07,-4.4599562657624717e-07,3.765368632883038e-09,7.665140589697524e-15,2.327127874734984e-07
1.272,1.5274966436863193e-07,6.765072195128943e-06,1.1914573948584634e-06,-6.705699731898199e-06,6.939554399789473e-07,-3.884561112416835e-07,5.086563823462396e-09,1.1518702841987787e-14,2.2527690409779383e-07
1.305,1.923627382708135e-07,6.030444171050523e-06,1.1895817988643112e-06,-2.2060901623976565e-05,6.747982719548553e-07,-2.9007279541322834e-07,6.405679184398414e-09,1.5869265390100338e-14,2.0081379089598245e-07
1.338,2.4474683137011476e-07,5.389499487836765e-06,1.5730958888679057e-06,-1.9247588084497228e-05,6.759067903970559e-07,-1.8641312765682643e-07,8.150069484595807e-09,2.1744945867476697e-14,1.794703329449643e-07
1.371,3.142872318751772e-07,4.789330266208793e-06,2.0883003154673406e-06,-1.8023099748587753e-05,6.974336531718805e-07,-6.88591894215262e-08,1.0465764821401257e-08,2.9688605185870374e-14,1.5948469786475284e-07
1.405,-3.823605373421955e-06,5.6268040038643046e-05,-0.00012426103919811206,0.0015459072003734008,6.778378296694881e-07,-8.325048576513401e-06,-1.2732605893398706e-07,-4.90684159199023e-13,1.8737257332868136e-06
1.438,2.5078249863139385e-07,5.348431725032714e-06,0.00012235399015175221,-0.0015291173667750849,6.78657036634011e-07,-1.7709203937122332e-07,8.351057204325966e-09,4.075039433173379e-14,1.781027764435894e-07
1.472,2.0393128895278264e-07,6.200882131592246e-06,-1.406943233591928e-06,2.559911130809405e-05,7.000018594801623e-07,-2.92139281574597e-07,6.790911922040293e-09,3.4445816978961405e-14,2.064893749820218e-07
1.505,1.541210291321175e-07,6.574784393597033e-06,-1.495803598218172e-06,1.1228296156299893e-05,6.801037806198802e-07,-3.718617223556451e-07,5.132230270027836e-09,2.7120644777593766e-14,2.189403203067812e-07
1.538,1.198570880983179e-07,7.010857356121519e-06,-1.02894717819218e-06,1.3095284159894477e-05,6.807256765880394e-07,-4.410115003914036e-07,3.991241033613376e-09,2.1994358912094895e-14,2.334615499588466e-07
1.5710000000000002,9.569855958730883e-08,7.578145521013233e-06,-7.254813366669393e-07,1.7035680627378804e-05,7.019502012683676e-07,-5.105530820937499e-07,3.1867620342046294e-09,1.8336955453673e-14,2.523522458497407e-07
1.605,7.215772552044383e-08,7.620987995326187e-06,-7.069319539599098e-07,1.2865607901787879e-06,6.818367651465388e-07,-5.375213141056511e-07,2.4028522597874265e-09,1.4433908730617406e-14,2.5377890024436204e-07
1.638,5.646367917766615e-08,7.823200267278131e-06,-4.7129268296629664e-07,6.07244059915749e-06,6.823197005599166e-07,-5.693923422045844e-07,1.880240516579386e-09,1.1777502315368681e-14,2.6051256890036176e-07
1.6720000000000002,4.547295885182944e-08,8.22486814141471e-06,-3.300516614365377e-07,1.2062098322419763e-05,7.034624101650062e-07,-6.125164924613473e-07,1.5142495297336166e-09,9.889719017485892e-15,2.7388810910910986e-07
1.705,3.4508164574089576e-08,8.108536662930452e-06,-3.292731014336296e-07,-3.493437792320039e-06,6.831910976085259e-07,-6.141747684603467e-07,1.149121880290587e-09,7.817765254638281e-15,2.700142708755841e-07
1.737,2.7023678310105513e-08,8.206872244349945e-06,-2.2475934726678867e-07,2.9530204630478325e-06,6.83573457858101e-07,-6.295261012378899e-07,8.998884877039912e-10,6.366496404824147e-15,2.732888457368532e-07
1.772,2.1593671275502418e-08,8.538319293335881e-06,-1.6306327431240523e-07,9.953364834412507e-06,7.046592147423728e-07,-6.61471872191368e-07,7.190692534547869e-10,5.287626490461973e-15,2.8432603246808487e-07
1.804,1.6064560292627424e-08,8.352559335869671e-06,-1.6603936885510491e-07,-5.57837710108738e-06,6.842693071622012e-07,-6.521401865769463e-07,5.349498577289e-10,4.084407511940489e-15,2.781402258844601e-07
1.838,1.2134099931045242e-08,8.405538179404052e-06,-1.1803184269015562e-07,1.590956262293698e-06,6.845771542833694e-07,-6.60308954421279e-07,4.0406552769115246e-10,3.1978675678930634e-15,2.7990442137415495e-07
1.872,9.116236814480802e-09,8.706327921866814e-06,-9.062652001695012e-08,9.032724998881768e-06,7.05622470563826e-07,-6.873899969348643e-07,3.035706859120059e-10,2.4887839057891337e-15,2.89920719798165e-07
1.904,6.117280335935825e-09,8.487803822650548e-06,-9.005875310945878e-08,-6.562285261749732e-06,6.851415861479796e-07,-6.72907025476108e-07,2.037054351793293e-10,1.7284914738906057e-15,2.8264386729426326e-07
1.9380000000000002,3.862785766926122e-09,8.5191289303235e-06,-6.770253960990098e-08,9.406939241126772e-07,6.853931001928061e-07,-6.776675286589538e-07,1.286307660336957e-10,1.12787406296338e-15,2.836869933797726e-07
1.971,1.987619238366381e-09,8.805270000120978e-06,-5.6311307163956186e-08,8.592824918843171e-06,7.064092192480445e-07,-7.024339807713118e-07,6.61877206348855e-11,5.994122380064936e-16,2.932154910040286e-07
2.005,2.837034311179802e-10,8.56966932101484e-06,-5.1168642860312324e-08,-7.075095468652787e-06,6.858572491123052e-07,-6.852898422500692e-07,9.44732425581614e-12,8.829538309877394e-17,2.853699883897942e-07
2.038,-1.1048648282560756e-09,8.589628237916432e-06,-4.1698746527749423e-08,5.993668739216656e-07,6.860653942050584e-07,-6.882751238615706e-07,-3.67919987792207e-11,-3.5437191067980012e-16,2.860346203226172e-07
2.072,-2.3904568014732863e-09,8.868132943200204e-06,-3.8606365562078394e-08,8.363504663176352e-06,7.070601786545432e-07,-7.118410922574897e-07,-7.960221148514162e-11,-7.898555832335221e-16,2.9530882700856683e-07
2.104,-3.373891116437105e-09,8.622820420652507e-06,-2.9532562010925487e-08,-7.366742418849757e-06,6.864517425357633e-07,-6.931995247686376e-07,-1.1235057417149472e-10,-1.1474732394780353e-15,2.8713992000772853e-07
2.138,-4.278706718259691e-09,8.636308745223886e-06,-2.7171639694371942e-08,4.050547919332825e-07,6.866259928996511e-07,-6.951834063361705e-07,-1.4248093371019191e-10,-1.4962198952874685e-15,2.8758908121595544e-07
2.172,-5.237507084688832e-09,8.910531076752756e-06,-2.8792803796670898e-08,8.234904850716818e-06,7.076049790555317e-07,-7.180799932249094e-07,-1.7440898590997844e-10,-1.8824214512301375e-15,2.967206848558668e-07
2.204,-5.7917737872937346e-09,8.659285551867385e-06,-1.6644645723870953e-08,-7.5449106572183265e-06,6.869510703620973e-07,-6.985346179366847e-07,-1.9286606710503075e-10,-2.138019161441189e-15,2.8835420887718396e-07
2.237,-6.408515440036787e-09,8.668836636515286e-06,-1.8520770352644225e-08,2.868193587958098e-07,6.87098415481186e-07,-6.999154463612595e-07,-2.1340356413942082e-10,-2.4272634403463625e-15,2.8867225999595907e-07
2.271,-7.17526826742984e-09,8.940511076216748e-06,-2.3025610432223815e-08,8.158391582626495e-06,7.0806561782991e-07,-7.224161543647697e-07,-2.389364332891498e-10,-2.7877251261314424e-15,2.9771901883801774e-07
2.304,-7.459324649456274e-09,8.685424234177043e-06,-8.530221682475471e-09,-7.660265526717876e-06,6.873746140847071e-07,-7.022932633836197e-07,-2.483955108091247e-10,-2.97099700553318e-15,2.8922462699809555e-07
2.337,-7.895346198649333e-09,8.692446378304522e-06,-1.3093740216007796e-08,2.108751990234014e-07,6.875003640657124e-07,-7.032910564630111e-07,-2.629150283952952e-10,-3.2207773381664856e-15,2.894584643975406e-07
2.372,-8.543722726292222e-09,8.962530377013826e-06,-1.947076659588253e-08,8.110630591870979e-06,7.084587074348138e-07,-7.255461528873983e-07,-2.845059667631458e-10,-3.568840838241343e-15,2.9845226155456044e-07
2.4050000000000002,-8.649764228197956e-09,8.704835670099204e-06,-3.184429486658685e-09,-7.738579787225889e-06,6.877370893797384e-07,-7.050366178361344e-07,-2.88037148775253e-10,-3.698033905981565e-15,2.898710278143035e-07
2.438,-8.967449085597404e-09,8.710159320528602e-06,-9.540085807791223e-09,1.5986938226420604e-07,6.878452965566909e-07,-7.057801947278856e-07,-2.9861605452465927e-10,-3.920208661642362e-15,2.900483053736025e-07
2.471,-9.539932367598394e-09,8.979210860834849e-06,-1.7191690150179884e-08,8.07962583502243e-06,7.087969364991894e-07,-7.278768012343863e-07,-3.1767974781240704e-10,-4.2640830721405424e-15,2.990077216658005e-07
2.505,-9.524228252913061e-09,8.719675214607324e-06,4.715950355955773e-10,-7.793863250075814e-06,6.880497889156729e-07,-7.07098245421499e-07,-3.171568007921639e-10,-4.350666927895565e-15,2.903651846464239e-07
2.537,-9.761594335659968e-09,8.723815324283854e-06,-7.128110593000199e-09,1.2432761791380388e-07,6.881436316070483e-07,-7.076668202783682e-07,-3.25061091345584e-10,-4.553381607393287e-15,2.9050305029865234e-07
2.572,-1.0283801478046376e-08,8.992175073121144e-06,-1.5681896167760008e-08,8.058851316435144e-06,7.090902043716452e-07,-7.29657807327738e-07,-3.4245058918391657e-10,-4.89809959242438e-15,2.9943942993493414e-07
2.604,-1.0182174943039613e-08,8.731296711665266e-06,3.0518478981009965e-09,-7.834185028705053e-06,6.883215619901816e-07,-7.086859118762608e-07,-3.390664255670896e-10,-4.949671030683189e-15,2.9075218049845337e-07
2.637,-1.0363369021794644e-08,8.734585811388596e-06,-5.441263626277219e-09,9.87717634633798e-08,6.884034958892931e-07,-7.091302339328825e-07,-3.4510018838751045e-10,-5.1380732724258795e-15,2.908617075192403e-07
2.672,-1.0851341246984354e-08,9.002469709135708e-06,-1.4653820576267552e-08,8.04456149390726e-06,7.093462354838724e-07,-7.310489179778412e-07,-3.613496634829266e-10,-5.486758421612682e-15,2.9978224131421913e-07
2.705,-1.06874267994087e-08,8.74058488199822e-06,4.922355783052655e-09,-7.864409223347985e-06,6.88559363760449e-07,-7.099342173592664e-07,-3.558913123776664e-10,-5.508909438370348e-15,2.9106147657054077e-07
2.738,-1.0828308340074636e-08,8.743245606991966e-06,-4.230676896874945e-09,7.990165146384602e-08,6.886313402192827e-07,-7.10287956899432e-07,-3.605826676796448e-10,-5.686665647888785e-15,2.911500787128325e-07
2.7720000000000002,-1.1292433054704756e-08,9.010795015545895e-06,-1.3937679118021628e-08,8.034516773391264e-06,7.095711681889669e-07,-7.321560342983764e-07,-3.76038020673131e-10,-6.041634786647177e-15,3.0005947401767837e-07
2.805,-1.1082321646961271e-08,8.748137855260061e-06,6.309651884188734e-09,-7.887602410986015e-06,6.887687067738436e-07,-7.109333500677662e-07,-3.6904131079441283e-10,-6.038185947197828e-15,2.9131299058016005e-07
2.838,-1.119362924673173e-08,8.750324362991733e-06,-3.342570563677416e-09,6.566089284300815e-08,6.888323197926068e-07,-7.112195782860703e-07,-3.7274785386447886e-10,-6.207375159999132e-15,2.9138580128762473e-07
2.871,-1.1640786792957561e-08,9.017634550490283e-06,-1.3428154541316266e-08,8.027332957914408e-06,7.097699772462651e-07,-7.330515508321801e-07,-3.8763820014980775e-10,-6.570114892029063e-15,3.0028723053132646e-07
2.904,-1.1395736326552412e-08,8.75437226314494e-06,7.358872865019491e-09,-7.905774394755062e-06,6.889540447250429e-07,-7.117455173781477e-07,-3.7947801961776256e-10,-6.544004977405435e-15,2.915205963627265e-07
2.938,-1.1484907919584903e-08,8.756193646029295e-06,-2.6778256165913127e-09,5.4696182713372955e-08,6.890105837627588e-07,-7.119803996019286e-07,-3.824474336633692e-10,-6.706841390610664e-15,2.9158124841277556e-07
2.972,-1.1919805042903586e-08,9.02333008112399e-06,-1.305997367323374e-08,8.02211516800887e-06,7.099466014470156e-07,-7.337862115328228e-07,-3.9692950786557735e-10,-7.0784122060937274e-15,3.004768917014289e-07
3.005,-1.1647849771791344e-08,8.759585935481682e-06,8.166824958325589e-09,-7.920244613883139e-06,6.891190250667432e-07,-7.124147246103259e-07,-3.878733973369119e-10,-7.031581168996086e-15,2.9169421165154004e-07
3.038,-1.1720179621605226e-08,8.761121178385417e-06,-2.17206756197843e-09,4.61033905025676e-08,6.89169514649228e-07,-7.126098738924386e-07,-3.9028198133323824e-10,-7.189108442225807e-15,2.9174533524023445e-07
3.072,-1.2146068575334909e-08,9.028130191383172e-06,-1.2789458069960451e-08,8.018288678611262e-06,7.101043467353188e-07,-7.343964838859886e-07,-4.044640834878082e-10,-7.57010476529036e-15,3.0063673537305966e-07
3.105,-1.185309160132573e-08,8.76399598988538e-06,8.798107327602956e-09,-7.931958002936707e-06,6.892665875895048e-07,-7.129727707921562e-07,-3.9470795025280495e-10,-7.504595051376353e-15,2.918410664631832e-07
3.138,-1.1912412437856948e-08,8.765303751092013e-06,-1.781406502438975e-09,3.927210830729193e-08,6.893118876495042e-07,-7.131367125252181e-07,-3.966833341067177e-10,-7.657811978422042e-15,2.9188461491136404e-07
3.172,-1.2331601925783049e-08,9.032218447643266e-06,-1.2588272910693714e-08,8.015456352890485e-06,7.102458738856783e-07,-7.349090777372444e-07,-4.1064234404969024e-10,-8.049078676531411e-15,3.007728743065208e-07
3.205,-1.2021970686216288e-08,8.767764252364213e-06,9.29823542242525e-09,-7.941567425797388e-06,6.893991695029207e-07,-7.134431108753532e-07,-4.003316237717521e-10,-7.965527977883756e-15,2.919665496037283e-07
3.237,-1.207110303605319e-08,8.768888821270719e-06,-1.4754459410481218e-09,3.377083803320493e-08,6.894400026656043e-07,-7.135822087377107e-07,-4.019677310186491e-10,-8.115347929355916e-15,2.92003997748315e-07
3.271,-1.2485257472531158e-08,9.035733285213369e-06,-1.2437070164503534e-08,8.013347265545044e-06,7.103734053445384e-07,-7.353439202896007e-07,-4.1575907374804786e-10,-8.517293428016155e-15,3.008899183976052e-07
3.305,-1.216225590709356e-08,8.771013590100026e-06,9.699746709837766e-09,-7.949540393794067e-06,6.895188313009086e-07,-7.138433431150956e-07,-4.050031216187553e-10,-8.41665536440889e-15,2.920747525503309e-07
3.338,-1.2203320556272136e-08,8.77198872698818e-06,-1.2331726480052554e-09,2.9283390034678462e-08,6.895557776027822e-07,-7.139624187153265e-07,-4.0637057443361624e-10,-8.564142847705147e-15,2.9210722460870644e-07
3.372,-1.2613652384847502e-08,9.038780765399531e-06,-1.2322277134395378e-08,8.011772925265776e-06,7.10488808847115e-07,-7.357161136168099e-07,-4.2003462431950087e-10,-8.976452451033494e-15,3.009913994878044e-07
3.4050000000000002,-1.2279816282942064e-08,8.773838226020584e-06,1.0025108165328455e-08,-7.956232413782201e-06,6.896272417987046e-07,-7.141868743645887e-07,-4.089178821259811e-10,-8.860277135355347e-15,2.9216881292648547e-07
3.438,-1.2314415593345779e-08,8.774690154658328e-06,-1.0390183304418888e-09,2.5583442574900862e-08,6.896607967793205e-07,-7.14289627966012e-07,-4.1007003915953423e-10,-9.004975058129436e-15,2.9219718215012233e-07
3.472,-1.2721815112870916e-08,9.041442997696007e-06,-1.2234219805559659e-08,8.01059588701737e-06,7.105936247028095e-07,-7.360372549285515e-07,-4.236364431536772e-10,-9.428643303953692e-15,3.0108005182327703e-07
3.505,-1.2379104628255307e-08,8.776311775914024e-06,1.0291606144612885e-08,-7.961898552011482e-06,6.897258374448666e-07,-7.144840467013772e-07,-4.1222418401606657e-10,-9.296935950455518e-15,2.92251182137937e-07
3.5380000000000003,-1.2408469527156182e-08,8.777061284977446e-06,-8.81828795822096e-10,2.250777968234824e-08,6.897564332710395e-07,-7.145733723253519e-07,-4.132020351464747e-10,-9.43952112252935e-15,2.92276140789749e-07
3.571,-1.2813608752627293e-08,9.043785104184736e-06,-1.2166343107240547e-08,8.00972430051921e-06,7.106891995821517e-07,-7.363164170874062e-07,-4.266931713482306e-10,-9.874569621810479e-15,3.0115804396935173e-07
3.605,-1.2463561114104223e-08,8.778492479979797e-06,1.0511941096788891e-08,-7.966745471619787e-06,6.898158372842795e-07,-7.147429595124879e-07,-4.1503658498566375e-10,-9.72799120438387e-15,2.9232379958332727e-07
3.638,-1.2488660236084212e-08,8.77915600126976e-06,-7.537273867864625e-10,1.9925564263155044e-08,6.898438198654965e-07,-7.14821140337665e-07,-4.1587238574449813e-10,-9.869084983755509e-15,2.9234589484228303e-07
3.6710000000000003,-1.2892042628637938e-08,9.04585827814957e-06,-1.211358536197377e-08,8.00907738377806e-06,7.107766196233277e-07,-7.365607048806035e-07,-4.29305019409721e-10,-1.0315172335555624e-14,3.012270806623807e-07
3.704,-1.253588568286059e-08,8.780426575006073e-06,1.069540377709755e-08,-7.970922016321233e-06,6.898982403176252e-07,-7.149700116833464e-07,-4.174449931157594e-10,-1.015414477389462e-14,2.9238820494770227e-07
3.737,-1.2557457936353628e-08,8.78101740469355e-06,-6.478154202113635e-10,1.774263325755655e-08,6.899239344391303e-07,-7.150388503118377e-07,-4.1816334915386745e-10,-1.0293980412026726e-14,2.924078795762952e-07
3.7720000000000002,-1.2959480015643924e-08,9.047703942911735e-06,-1.207273511382269e-08,8.008604751296875e-06,7.108568354172948e-07,-7.367757954485827e-07,-4.315506843870088e-10,-1.0751532221491788e-14,3.0128854129896083e-07
3.8040000000000003,-1.2598184597636276e-08,8.782151787571471e-06,1.0849712252481924e-08,-7.974539199407325e-06,6.899739584080816e-07,-7.15170327603354e-07,-4.195195469679687e-10,-1.0576554193569848e-14,2.9244565452613003e-07
3.838,-1.2616847866764613e-08,8.782680597800311e-06,-5.60458532382512e-10,1.5880187052248163e-08,6.899975999572602e-07,-7.152312956907894e-07,-4.2014103382663e-10,-1.0714870730438346e-14,2.924632639067504e-07
3.872,-1.3017791729459822e-08,9.049356012784031e-06,-1.204035623709334e-08,8.008270720231826e-06,7.109306892932626e-07,-7.369662727521821e-07,-4.334924644467318e-10,-1.1184274030426165e-14,3.0134355522570824e-07
3.904,-1.265215571950224e-08,8.78369853878707e-06,1.0980060359086533e-08,-7.977701921830667e-06,6.900437273834633e-07,-7.153480388224678e-07,-4.2131678531595223e-10,-1.0995161746899479e-14,2.924971613416094e-07
3.938,-1.266837781824162e-08,8.784174312861862e-06,-4.871501122936835e-10,1.4287509753513152e-08,6.900655672107073e-07,-7.154023228471905e-07,-4.2185698120055585e-10,-1.1132591539180835e-14,2.925130046183e-07
3.972,-1.306848551296513e-08,9.050842114316154e-06,-1.2015246087793113e-08,8.008042085714488e-06,7.109988836323272e-07,-7.371358546582574e-07,-4.3518056742677816e-10,-1.1613280566689616e-14,3.0139304240672796e-07
4.005,-1.2699165522959602e-08,8.785092106230694e-06,1.1090690390556405e-08,-7.980480723287076e-06,6.901082029754958e-07,-7.15506534021415e-07,-4.228822117606005e-10,-1.1410766106207523e-14,2.9254356713748215e-07
4.038,-1.2713333729107443e-08,8.785522017592459e-06,-4.254716560913285e-10,1.2910251104029362e-08,6.901284276782892e-07,-7.15555095136504e-07,-4.2335401302179114e-10,-1.1547608408691299e-14,2.925578831858289e-07
4.072,-1.3112770729099968e-08,9.052185066091965e-06,-1.1995105104880632e-08,8.007899354339532e-06,7.110620345582572e-07,-7.372875760164571e-07,-4.366552651130347e-10,-1.2039778582201116e-14,3.0143776270086244e-07
4.105,-1.274029310478026e-08,8.786353152053011e-06,1.11855142438351e-08,-7.982940361530142e-06,6.901679590594608e-07,-7.156485452690212e-07,-4.242517602244155e-10,-1.1823906008984003e-14,2.925855599633653e-07
4.138,-1.2752725602254215e-08,8.78674323541402e-06,-3.733482724911447e-10,1.1714215045302332e-08,6.901867332308674e-07,-7.156921844353758e-07,-4.246657623866534e-10,-1.1959636005972284e-14,2.925985497392869e-07
4.171,-1.3151645058281098e-08,9.053403445343307e-06,-1.197956324405055e-08,8.007814111990598e-06,7.111206305691835e-07,-7.374239206857457e-07,-4.3794978026340065e-10,-1.2463981273563315e-14,3.0147833472993214e-07
4.205,-1.27764380056664e-08,8.78749897172839e-06,1.126747905749846e-08,-7.98511932777526e-06,6.902234797326047e-07,-7.157763557439376e-07,-4.2545538541277446e-10,-1.223459399877386e-14,2.9262371575855544e-07
4.237,-1.2787409849720318e-08,8.787854414630727e-06,-3.294848064239959e-10,1.0673961031127421e-08,6.902409433207379e-07,-7.158157630201785e-07,-4.2582074781601924e-10,-1.2369968918301432e-14,2.9263555200720324e-07
4.272,-1.3185911661849757e-08,9.054513573848943e-06,-1.1967021385268412e-08,8.007782559105588e-06,7.111751742460657e-07,-7.375469975697652e-07,-4.390908581505214e-10,-1.2885541992655123e-14,3.0151530200916984e-07
4.305,-1.2808347935820083e-08,8.788544225701855e-06,1.1338250030921117e-08,-7.987067511924563e-06,6.902751901203283e-07,-7.158918859919684e-07,-4.2651798607541003e-10,-1.2643443397056379e-14,2.926585227158718e-07
4.338,-1.281805320544108e-08,8.788869291501959e-06,-2.9144953816805915e-10,9.761735738844018e-09,6.902914901147156e-07,-7.159275965255978e-07,-4.268411715499224e-10,-1.2778043380793573e-14,2.9266934740701527e-07
4.371,-1.3216237273741274e-08,9.05552879178869e-06,-1.1957479528534366e-08,8.007792801403314e-06,7.112260660693539e-07,-7.376585406168365e-07,-4.401007010144472e-10,-1.3305687395616387e-14,3.015491087665634e-07
4.405,-1.2836623615915718e-08,8.789501142929995e-06,1.1399809544310998e-08,-7.988818284044865e-06,6.903234678184838e-07,-7.159967150503153e-07,-4.27459566210776e-10,-1.305052389733019e-14,2.9269038805956885e-07
4.437,-1.284525022885322e-08,8.789799423849479e-06,-2.5905744557063636e-10,8.957384969471805e-09,6.90338703679105e-07,-7.160292041368114e-07,-4.2774683241761855e-10,-1.318442944851846e-14,2.9270032081418767e-07
4.472,-1.3243175525170594e-08,9.05646042043679e-06,-1.194970859811935e-08,8.007837735354695e-06,7.112736581097726e-07,-7.377600091601138e-07,-4.409977447746368e-10,-1.372399112634483e-14,3.0158013200054515e-07
4.505,-1.2861779069211691e-08,8.790380461569917e-06,1.1453347025792891e-08,-7.990389155161358e-06,6.903686578563818e-07,-7.160922159948051e-07,-4.2829724279336403e-10,-1.345604650033664e-14,2.9271966937027824e-07
4.537,-1.2869465213225235e-08,8.790655071234255e-06,-2.308151355418679e-10,8.246536466620247e-09,6.903829404855151e-07,-7.161218709119656e-07,-4.2855319138494294e-10,-1.358930747957839e-14,2.927288138721007e-07
4.572,-1.3267198630997526e-08,9.057318114232657e-06,-1.1943946479648361e-08,8.007899189141196e-06,7.113182505076149e-07,-7.378526477696099e-07,-4.4179771418592097e-10,-1.4140976630321495e-14,3.016086932039475e-07
4.605,-1.2884230179251827e-08,8.79119073584002e-06,1.1500554106477428e-08,-7.991813164944077e-06,6.904110286879499e-07,-7.161794890464533e-07,-4.290448647452072e-10,-1.3860016149864933e-14,2.927466515034727e-07
4.638,-1.2891109201128479e-08,8.791444386294015e-06,-2.0657723353308107e-10,7.617130750609142e-09,6.904244417023926e-07,-7.162066601046496e-07,-4.2927393616950875e-10,-1.3993019155862748e-14,2.927550980635907e-07
4.672,-1.3288684627156243e-08,9.058110262361613e-06,-1.1939201982815735e-08,8.007984266294236e-06,7.113601363617729e-07,-7.379375056160852e-07,-4.425131978448932e-10,-1.455614521265077e-14,3.0163507173664174e-07
4.705,-1.2904338258624295e-08,8.791939991852525e-06,1.1541932988947398e-08,-7.993101216489128e-06,6.904508610895777e-07,-7.162595376068262e-07,-4.2971446377548617e-10,-1.4262913823944206e-14,2.927716017286891e-07
4.737,-1.2910506977806693e-08,8.792174839529449e-06,-1.8524682229425936e-10,7.052482790525157e-09,6.904634801845493e-07,-7.162844941401627e-07,-4.2991988211994416e-10,-1.43956960788134e-14,2.927794221563307e-07
4.772,-1.3307966220508661e-08,9.058844148286449e-06,-1.193571299405308e-08,8.00808735006005e-06,7.113995656424074e-07,-7.380154980834246e-07,-4.431552748900667e-10,-1.4970456327492334e-14,3.0165951013793877e-07
4.805,-1.2922397726445953e-08,8.792634605388551e-06,1.1578633455336586e-08,-7.994280567504427e-06,6.904883707046382e-07,-7.163331661575301e-07,-4.3031584404078163e-10,-1.466470095672341e-14,2.927947323594388e-07
4.837,-1.2927953402485289e-08,8.792852801220325e-06,-1.6683711829838754e-10,6.552427380604408e-09,6.905002706951407e-07,-7.163561775001112e-07,-4.3050084804845235e-10,-1.47968213919704e-14,2.9280199828063686e-07
4.871,-1.3325329468485207e-08,9.059525680194435e-06,-1.1933215195192735e-08,8.00819456378707e-06,7.114367249470697e-07,-7.3808738388404e-07,-4.437334710338895e-10,-1.5383880552602922e-14,3.016822051504747e-07
4.905,-1.2938665594386288e-08,8.793280253588035e-06,1.1611527750718301e-08,-7.995358156348338e-06,6.905237546926566e-07,-7.164010858814291e-07,-4.308575640296795e-10,-1.5065492715557665e-14,2.928162324444816e-07
4.937,-1.294368568283533e-08,8.793483513919524e-06,-1.5075340687813733e-10,6.10391385852454e-09,6.905349954307266e-07,-7.164223667963974e-07,-4.310247329704839e-10,-1.5197313871966406e-14,2.9282300101352016e-07
4.972,-1.3340990014411614e-08,9.060160502219298e-06,-1.1931061008296827e-08,8.00831796696017e-06,7.114718501631321e-07,-7.381538301919553e-07,-4.442549671990866e-10,-1.579601035756148e-14,3.0170334472390264e-07
5.005,-1.2953375989450517e-08,8.79388221751219e-06,1.1640060809642563e-08,-7.996344886099315e-06,6.905572014115246e-07,-7.164639533904257e-07,-4.3134742017145603e-10,-1.546524346305091e-14,2.92836277843156e-07
5.038,-1.2957911100475972e-08,8.794072088153922e-06,-1.3618952028394567e-10,5.701821073006659e-09,6.905678559518377e-07,-7.164836781527896e-07,-4.3149843936395967e-10,-1.559710577985255e-14,2.928426005355256e-07
5.071,-1.33551767042658e-08,9.060753279298053e-06,-1.1929898011706537e-08,8.008444178502447e-06,7.115050856395786e-07,-7.382154390481102e-07,-4.447273839567179e-10,-1.6207460251874834e-14,3.017230842006252e-07
5.105,-1.2966692624539159e-08,8.794444942053744e-06,1.1666188580379597e-08,-7.997247364693971e-06,6.905889027397603e-07,-7.165222879888386e-07,-4.317908641057192e-10,-1.5864340095570804e-14,2.928550165703897e-07
5.1370000000000005,-1.2970816253757689e-08,8.794622594730439e-06,-1.2383270926515986e-10,5.334915216062597e-09,6.905989913246774e-07,-7.165406238321927e-07,-4.319281809539422e-10,-1.5995964781964007e-14,2.9286093240452365e-07
5.172,-1.3368041377573138e-08,9.061308208661067e-06,-1.1928682396860324e-08,8.008576994913754e-06,7.115366153153123e-07,-7.382726980704586e-07,-4.451557775630042e-10,-1.6617959103407934e-14,3.0174156334841356e-07
5.205,-1.2978793774398246e-08,8.794971919927654e-06,1.1689117212459212e-08,-7.998086748751129e-06,6.906189598198142e-07,-7.165765473686107e-07,-4.3219383238149184e-10,-1.6262881631750752e-14,2.928725649335909e-07
5.237,-1.2982540187650788e-08,8.795138642661086e-06,-1.1250490247872765e-10,5.006688691628203e-09,6.906285512252361e-07,-7.165936316005377e-07,-4.3231858793792904e-10,-1.6393947253912915e-14,2.9287811680061417e-07
5.272,-1.3379758262873172e-08,9.06182876758761e-06,-1.1928470727398917e-08,8.008712460255978e-06,7.115665431441356e-07,-7.38326059669882e-07,-4.455459498282945e-10,-1.7028101282280315e-14,3.0175889796066744e-07
5.305,-1.2989805652375025e-08,8.795466700497014e-06,1.1710288603547941e-08,-7.998860873591456e-06,6.906475303873861e-07,-7.166271416921362e-07,-4.3256052790323806e-10,-1.66604286766208e-14,2.928890411265506e-07
5.337,-1.2993229082190475e-08,8.795623443707673e-06,-1.0280570016366242e-10,4.70700332308395e-09,6.906566464144234e-07,-7.166431045788043e-07,-4.326745281110976e-10,-1.6791627443872604e-14,2.9289426067546554e-07
5.372,-0.03403408527639162,-3.339014582742459e-06,-1.0220442127075835,-0.00036440354433784174,-0.03403435239755823,-0.03403381815522499,-0.0011333350388463576,-4.4086198320142116e-08,-1.1118918560532389e-07
5.401,-0.0667268110220123,-2.202995313699024e-06,-0.9817635359045251,3.411469276406712e-05,-0.06672698726163741,-0.06672663478238722,-0.0022220028053598355,-8.622812092403798e-08,-7.33597439461775e-08
5.438,-0.10009016469574437,-2.203392945091926e-06,-1.0019025127246866,-1.194088266973497e-08,-0.10009034096717997,-0.10008998842430876,-0.0033330024818680306,-1.2910191356266081e-07,-7.337298507156114e-08
5.472,-0.13715717063760033,-2.2317684910457602e-06,-1.1131233015572357,-8.52118497112138e-07,-0.13715734917907962,-0.13715699209612103,-0.0045673337788187255,-1.765741386077391e-07,-7.431789075182383e-08
5.505,-0.16681668928890386,-2.1040402586817936e-06,-0.8906762357748809,3.8356826535725714e-06,-0.16681685761212459,-0.16681652096568317,-0.005554995749184647,-2.1436217306267794e-07,-7.006454061410373e-08
5.538,-0.19508429325934867,-0.2843801186715951,-0.8488769961094537,-8.53988031925935,-0.2178347027530763,-0.17233388376562106,-0.006496211050807958,3.0508874622601794e-05,-0.009469857951764117
5.572,-0.1955176582068039,0.03275852828566975,-0.013013962386042553,9.523683091809753,-0.1928969759439503,-0.19813834046965745,-0.006510480657192623,5.7852843759557694e-05,0.0010908589919128027
5.605,-0.21805868170231069,-0.2516404392251198,-0.6769076124776815,-8.540509534858543,-0.23818991684032026,-0.19792744656430108,-0.007260762821715947,9.098400334934964e-05,-0.00837962662619649
5.6370000000000005,-0.218080413010274,-0.25136495818204085,-0.0006525918307302873,0.0082727039963649,-0.23818960966483727,-0.19797121635571072,-0.0072604697366105185,0.00015180440772481944,-0.008370453107461961
5.672,-0.22464916434029503,-0.245340899016304,-0.19725979970033097,0.18090267764975573,-0.24427643626159934,-0.2050218924189907,-0.007477612740392116,0.00021822465161588057,-0.008169851937242923
5.704,-0.21801583878042977,-0.23845456313752963,0.19919896576171953,0.206796873236467,-0.23709220383143212,-0.1989394737294274,-0.007254877383709085,0.00027022864139768585,-0.007940536952479737
5.737,-0.21797173956011898,-0.23900709126006947,0.0013243009102339122,-0.016592436112307384,-0.23709230686092453,-0.19885117225931342,-0.007251032823022453,0.0003278275300063955,-0.007958936138960314
5.771,-0.18132580615901342,0.008658345653993892,1.1004784805136802,7.43740050792983,-0.1806331385066939,-0.18201847381133293,-0.00603089733527006,0.00029584555520263775,0.0002883229102779966
5.804,-0.20415343464705143,-0.2635937861857503,-0.6855143690101505,-8.175739694887211,-0.22524093754191146,-0.1830659317521914,-0.006788647591143525,0.0003619081139362542,-0.008777673079985487
5.838,-0.2041158298467789,-0.2634274781160955,0.001129273281457637,0.004994236325969544,-0.22519002809606653,-0.18304163159749123,-0.006783960765669222,0.00042138551627234755,-0.00877213502126598
5.872,-0.19561125895330508,0.0531363482331832,0.25539251932353785,9.50642121169005,-0.1913603510946504,-0.19986216681195976,-0.006499870421487202,0.0004265904278927281,0.0017694403961650007
5.905,-0.21796929747788457,-0.2201163741022566,-0.6714125683056903,-8.205787457520714,-0.2355786074060651,-0.20035998754970402,-0.007241429869247942,0.0004954826341151461,-0.007329875257605145
5.938,-0.21798169307253473,-0.21994514423731795,-0.0003722400795844091,0.005142037986145449,-0.23557730461152016,-0.2003860815335493,-0.007238016727397471,0.0005485581876854516,-0.007324173303102689
5.972,-0.19566496031413144,0.2800884020494644,0.6701721549070057,15.016022411014482,-0.1732578881501743,-0.2180720324780886,-0.006497477104352936,0.0004858904695538344,0.009326943788247164
6.005,-0.21802593078805688,-4.008095976911893e-05,-0.6715006148325956,-8.412266757034038,-0.21802913726483839,-0.2180227243112753,-0.007242493435033312,0.0005076562446909157,-1.3346959603116605e-06
6.038,-0.21809057052158717,-5.663350002424036e-05,-0.0019411331390479663,-0.0004970732809345774,-0.21809510120158912,-0.21808603984158526,-0.007244639852048054,0.0005078184193036517,-1.8858955508072042e-06
6.072,-0.22472352176267524,0.00013110234648970286,-0.1991877249575995,0.005637713108526823,-0.22471303357495606,-0.22473400995039441,-0.007464977137958236,0.0005232538242202979,4.365708138107106e-06
6.104,-0.2181146871068323,0.0004977126662965505,0.19846350317846675,0.011009318913118547,-0.21807487009352858,-0.21815450412013604,-0.007245446915103458,0.0005077897328999133,1.6573831787675133e-05
6.138,-0.21808801389718319,0.0007427835359318546,0.0008009972867600139,0.007359485574633756,-0.21802859121430862,-0.21814743658005775,-0.007244571355672671,0.0005075780041972053,2.473469174653076e-05
6.171,-0.22466411747535062,0.0005586661782350507,-0.19748058793295584,-0.005529049780684799,-0.2246194241810918,-0.2247088107696094,-0.007463031423375553,0.0005227215091191115,1.860358373522719e-05
6.204,-0.21798970578205085,0.000360967215400414,0.20043278358257566,-0.005936905790829931,-0.2179608284048188,-0.21801858315928288,-0.007241324458421833,0.0005070814106328224,1.2020208272833787e-05
6.237,-0.21790348555308767,0.00024890887866151106,0.0025891960649603515,-0.003365115217384472,-0.21788357284279475,-0.21792339826338059,-0.007238465485265378,0.0005068073450529613,8.288665659428319e-06
6.272,-0.22448037446407504,-0.0019163266542799062,-0.19750417150112226,-0.06502208807631883,-0.22463368059641742,-0.22432706833173266,-0.007456926534076345,0.0005223111202801024,-6.381367758752088e-05
6.304,-0.21787700831738782,-0.002210544467829668,0.1982992836843008,-0.00883536977626912,-0.21805385187481421,-0.21770016475996146,-0.007237537022984248,0.0005074440063822042,-7.361113077872795e-05
6.338,-0.21790508776712506,-0.002211921271326704,-0.0008432267188358517,-4.13454503614489e-05,-0.21808204146883117,-0.2177281340654189,-0.00723843238924824,0.0005080424010038353,-7.365697833517925e-05
6.372,-0.2245466138865116,-0.009882763169765716,-0.1994452288104065,-0.23035561256573606,-0.22533723494009286,-0.22375599283293035,-0.007458946859451645,0.0005250290832116644,-0.0003290960135531984
6.405,-0.2179780788773881,-0.009496538191572116,0.19725330357728207,0.011598347693501501,-0.21873780193271386,-0.2172183558220623,-0.007240589681013953,0.0005120070189120405,-0.0003162347217793515
6.437,-0.21801362314715342,-0.009370985601566862,-0.0010673954884480377,0.003770348048205825,-0.21876330199527877,-0.21726394429902804,-0.007241609130115366,0.000514365443995467,-0.00031205382053217656
6.471,-0.2246540887086453,-0.0016433327324533226,-0.19941338022498176,0.2320616477211273,-0.2247855553272416,-0.22452262209004906,-0.007462083626466759,0.0005314009447942422,-5.4722979990695644e-05
6.504,-0.21807895953796658,-0.001495733130725303,0.19745132644680882,0.004432420472312901,-0.21819861818842462,-0.2179593008875086,-0.007243657943225389,0.0005162266061071811,-4.980791325315259e-05
6.537,-0.21810774042302145,-0.0013236950639093524,-0.0008642908424885511,0.005166308312791308,-0.2182136360281342,-0.2180018448179087,-0.0072445896776478875,0.0005166348217530625,-4.407904562818144e-05
6.572,-0.19556937926556184,0.11248063773857454,0.6768276623861743,3.4175475316061226,-0.1865709282464759,-0.2045678302846478,-0.006496805872174147,0.00045122435426407724,0.003745605236694533
6.605,-0.21806443395051184,-0.16326454125034215,-0.6755271677162161,-8.280636005673173,-0.2311255972505392,-0.20500327065048443,-0.0072436578690570075,0.0005092504582082779,-0.005436709223636394
6.638,-0.21806857489686726,-0.1632076922360548,-0.00012435274340613452,0.0017071776062266301,-0.23112519027575162,-0.20501195951798287,-0.007240920207708613,0.000548627964418609,-0.005434816151460626
6.672,-0.19553061956516882,0.2656564845048951,0.6768154754263797,12.878804106334831,-0.1742781008047772,-0.21678313832556045,-0.006493368725813322,0.0004808493321995941,0.008846360934013007
6.705,-0.21801574773042168,-0.014733444237815209,-0.6752290740316174,-8.420117980261569,-0.2191944232694469,-0.21683707219139647,-0.007242276763370337,0.0005058937742572948,-0.0004906236931192465
6.738,-0.21800011736139152,-0.014929266236756226,0.0004693804513560433,-0.0058805405087392565,-0.219194458660332,-0.216805776062451,-0.007241506817169705,0.0005094340319707445,-0.0004971445656839823
6.772,-0.19564535840534797,0.10748327611957545,0.6713140827640706,3.676052323012963,-0.18704669631578194,-0.204244020494914,-0.006499622024034894,0.00044717848692081937,0.003579193094781863
6.804,-0.2179544887629441,-0.1704187014913725,-0.6699438545824663,-8.345404733061498,-0.23158798488225393,-0.20432099264363432,-0.0072402317840119974,0.0005057562719269146,-0.005674942759662705
6.837,-0.2179303192812849,-0.17047920326772312,0.0007258102600361283,-0.001816870160679077,-0.23156865554270273,-0.20429198301986706,-0.007236441963409636,0.0005467824576605166,-0.00567695746881518
6.871,-0.22456236541319455,-0.17415429782621708,-0.19916054450179135,-0.11036319995477366,-0.23849470923929192,-0.21063002158709718,-0.007453304877204792,0.0006061999951756359,-0.005799338117613029
6.904,-0.21799342814412748,-0.16892697322539132,0.19726538345546757,0.15697671473951216,-0.2315075860021588,-0.2044792702860962,-0.007231800578978061,0.0006297876642638373,-0.005625268208405532
6.937,-0.2180284452206403,-0.1688294659168786,-0.0010515638592439084,0.0029281474027841453,-0.2315348024939906,-0.20452208794729002,-0.007229305635783666,0.0006705542656621319,-0.005622021215032059
6.971,-0.22467065320444277,-0.16600088567778484,-0.1994657052192933,0.08494234952233543,-0.23795072405866557,-0.21139058235021996,-0.007445577888087019,0.0007325023525547716,-0.005527829493070235
7.005,-0.21809302785479848,-0.16096531359774477,0.19752628677610476,0.15121838078198419,-0.23097025294261805,-0.2052158027669789,-0.007223618086507043,0.0007503933322563388,-0.005360144942804902
7.037,-0.2181009732946752,-0.16063449728298937,-0.00023860179809992725,0.009934423866528527,-0.23095173307731437,-0.20525021351203604,-0.007219759515923103,0.0007890909918992201,-0.005349128759523546
7.072,-0.22470184791528172,-0.12346674721561621,-0.19822446308127678,1.1161486506718665,-0.23457918769253103,-0.21482450813803242,-0.007434341977715276,0.0008481493229370217,-0.00411144268228002
7.105,-0.21808521121331417,-0.11957277123409883,0.19869779885788433,0.11693621566118242,-0.22765103291204208,-0.20851938951458626,-0.007212038340992977,0.000852365695534325,-0.003981773282095491
7.138,-0.21804696688039304,-0.11974984039322979,0.0011484784660999382,-0.005317392166094904,-0.22762695411185144,-0.20846697964893465,-0.00720732051216148,0.0008809423021371735,-0.003987669685094552
7.172,-0.19569115322907057,0.39386449825984476,0.671345755294969,15.423854013605842,-0.16418199336828296,-0.22720031308985816,-0.00647187077361871,0.0007610866866442129,0.013115687792052832
7.205,-0.2118463234784262,0.2360059348285535,-0.4851402477283968,-4.740497400339076,-0.19296584869214192,-0.23072679826471046,-0.007014439825547044,0.0007504013239909657,0.007858997629790832
7.238,-0.2179879253987178,0.15886607430837751,-0.18443249009884735,-2.3165123279332125,-0.2052786394540476,-0.230697211343388,-0.007222725061190006,0.0007246865115590412,0.005290240274468972
7.272,-0.21844281207954325,0.001809080505795487,-0.013660260685448625,-4.716426240317778,-0.2182980856390796,-0.21858753852000687,-0.007239722390893369,0.0007068341470491093,6.0242380842989716e-05
7.305,-0.21791211458740745,-0.07696595869956159,0.015936861625699728,-2.365616792953666,-0.2240693912833724,-0.21175483789144253,-0.007221243807961685,0.0007141536778032264,-0.002562966424695401
7.337,-0.21794210104645645,-0.07668052436983698,-0.0009004942657358221,0.008571601493231525,-0.2240765429960434,-0.2118076590968695,-0.00722038668369009,0.0007327256239244943,-0.0025534614615155718
7.372,-0.2245841807390675,-0.03341183714841886,-0.19946185263096236,1.2993599766191626,-0.227257127710941,-0.22191123376719402,-0.007439042804499223,0.0007686939230590508,-0.001112614177042348
7.404,-0.21801381937789294,-0.032274790392225444,0.19730814898422097,0.03414554823403652,-0.22059580260927097,-0.2154318361465149,-0.007220588195138517,0.0007541027468434565,-0.0010747505200611074
7.438,-0.21804923430954318,-0.032150238897084855,-0.0010635114609681851,0.0037402851393570197,-0.22062125342130998,-0.2154772151977764,-0.007220947941031705,0.0007619714259953732,-0.0010706029552729258
7.472,-0.2184605419391547,0.29483479614364555,-0.012351580468814691,9.819370421643555,-0.19487375824766306,-0.24204732563064635,-0.007237809848692915,0.0007317568140787639,0.009817998711583398
7.504,-0.21808718504522265,0.2522607407744559,0.011211918736698455,-1.2785001612369256,-0.19790632578326617,-0.23826804430717913,-0.007231802378330435,0.0006646599827036553,0.008400282667789383
7.538,-0.21811771008510478,0.25252611790353446,-0.0009166678643281935,0.007969283155511613,-0.19791562065282203,-0.23831979951738752,-0.007238146075007136,0.0006039406011332968,0.008409119726187698
7.572,-0.22467332060113532,0.19965182885356172,-0.1968651806615778,-1.5878164879871692,-0.2087011742928504,-0.24064546690942026,-0.00746017178108107,0.0005659436583227205,0.006648405900823606
7.605,-0.21803102891740475,0.19368103635128792,0.19946821873064763,-0.1793030781463606,-0.20253654600930174,-0.2335255118255078,-0.007243059909159108,0.0005017883913988925,0.006449578510497888
7.638,-0.21797773471857956,0.1935884171797595,0.0016004263911467813,-0.0027813565023549125,-0.2024906613441988,-0.23346480809296033,-0.0072443736718500905,0.0004549635346481456,0.006446494292085992
7.672,-0.22459123960347005,0.2894851568699812,-0.19860375029701158,2.879781972679331,-0.20143242705387157,-0.24775005215306853,-0.00746768289221696,0.0004087162386439394,0.009639855723770376
7.705,-0.21789027875351244,0.2804383624002259,0.20123005555428256,-0.27167550960226167,-0.19545520976149436,-0.24032534774553052,-0.007248313395498783,0.00032775667272659655,0.009338597467927524
7.738,-0.21786730893456713,0.27987344283178933,0.0006897843527120728,-0.01696455160470188,-0.195477433508024,-0.2402571843611103,-0.007250291339581413,0.00026009506851990975,0.009319785646298586
7.771,-0.21851760360095096,0.13627209518549394,-0.019528368359874853,-4.312352782171033,-0.20761583598611144,-0.22941937121579048,-0.00727358519653232,0.00021048019547670232,0.004537860769676948
7.805,-0.21795246425279255,0.12608168430882694,0.01697115159634868,-0.3060183446446546,-0.20786592950808636,-0.2280389989974987,-0.007255622665569034,0.00017824372859185332,0.0041985200874839375
7.838,-0.21797855577408437,0.1261521180799947,-0.0007835291679225563,0.002115128263296611,-0.2078863863276848,-0.22807072522048397,-0.0072571759080962564,0.00014778854976902917,0.004200865532063824
7.872,-0.21860510984049414,0.318230391985523,-0.018815437429722758,5.768116333499347,-0.19314667848165232,-0.244063541199336,-0.007278904511495286,9.435945318377124e-05,0.010597072053117917
7.904,-0.21804319160558955,0.3027600309971303,0.016874421468606314,-0.4645754050568383,-0.19382238912581912,-0.24226399408535998,-0.007260782547983536,1.9046509853019037e-05,0.010081909032204439
7.937,-0.21808614544544871,0.3029377782799156,-0.001289905100875876,0.00533775623979883,-0.19385112318305545,-0.24232116770784196,-0.007262035682876778,-5.4187927364866426e-05,0.01008782801672119
7.971,-0.2185633186774778,0.06459429013695339,-0.014329526487359993,-7.15746210639526,-0.21339577546652153,-0.22373086188843408,-0.007277485906664521,-9.884219557766685e-05,0.002150989861560548
8.005,-0.21808882698043108,0.05701659510673798,0.014248999911312895,-0.22755840931577803,-0.21352749937189205,-0.22265015458897014,-0.007261472513287092,-0.00011333102361129215,0.001898652617054375
8.038,-0.2180949404328481,0.05691620170729246,-0.00018358715967034674,-0.0030148168001658407,-0.21354164429626474,-0.22264823656943153,-0.007261448011864613,-0.0001271092503993424,0.0018953095168528391
8.071,-0.21846437678030944,0.3467389341112024,-0.011094184608448595,8.703385357474772,-0.19072526205141327,-0.24620349150920565,-0.007272689044178186,-0.00017620619768494655,0.01154640650590304
8.105,-0.21801722802154713,0.3305393200536108,0.01342789065352286,-0.4864748966243715,-0.19157408241725826,-0.244460373625836,-0.007255362747993827,-0.0002576767059470788,0.01100695935778524
8.137,-0.2180172246740129,0.3305390102909168,1.0052655321448557e-07,-9.302183002858434e-06,-0.19157410385073956,-0.24446034549728626,-0.0072520869580871075,-0.0003375189247144716,0.01100694904268753
8.172,-0.20483972478402934,0.33106344709463636,0.39572071741692394,0.01574885296455112,-0.17835464901645845,-0.23132480055160026,-0.006809846180614063,-0.00039215581001595843,0.011024412788251392
8.204,-0.20471330403342478,0.31579641557095633,0.0037964189370740748,-0.4584694151255264,-0.17944959078774828,-0.2299770172791013,-0.006801030827162285,-0.0004651881022562267,0.010516020638512848
8.238,-0.20472534740553272,0.31579031222936443,-0.0003616628260644122,-0.000183283531288317,-0.17946212242718357,-0.22998857238388187,-0.0067961627947836665,-0.0005367117256775955,0.010515817397237837
8.272,-0.218501564131695,0.3715681766085819,-0.41370020198685514,1.675010942318842,-0.18877611000300845,-0.24822701826038154,-0.007246441379624781,-0.0006557998648152984,0.012373220281065777
8.305,-0.21798292838621366,0.35452542061786824,0.015574647011451436,-0.5117944741956049,-0.1896208947367842,-0.24634496203564313,-0.007220807798125592,-0.0007415913530195206,0.011805696506575014
8.338,-0.21801521351285433,0.35474749777153575,-0.000969523322542438,0.006668983593618929,-0.18963541369113146,-0.2463950133345772,-0.007212614788558751,-0.000826933476418451,0.011813091675792142
8.372,-0.22465660745823574,0.27988070021892497,-0.19944125962106327,-2.24825217875708,-0.20226615144072171,-0.24704706347574973,-0.007422930083050118,-0.0009306115329790192,0.009320027317290203
8.405,-0.21808448440891243,0.2718345131092786,0.19736105253223146,-0.24162724052992146,-0.19633772336017016,-0.23983124545765475,-0.007197178071212788,-0.0009695412052000014,0.009052089286538978
8.438,-0.21809785088102784,0.27177396047335217,-0.00040139555902153065,-0.0018183974752676915,-0.19635593404315968,-0.239839767718896,-0.007188548565632182,-0.0010347062601245576,0.009050072883762628
8.472,-0.22464705790334746,0.37206606307321105,-0.19667288355314172,3.011774852848615,-0.19488177285749056,-0.25441234294920434,-0.007392539389408061,-0.0011450858501558477,0.01238979990033793
8.505,-0.21805230928969552,0.360911300393051,0.19804049890846684,-0.33497785826306375,-0.18917940525825142,-0.24692521332113956,-0.0071614279082104285,-0.0011989567860286176,0.0120183463030886
8.538,-0.21801889173246364,0.36043539488750687,0.0010035302472035902,-0.014291456622947769,-0.1891840601414631,-0.2468537233234642,-0.007145416640505911,-0.0012846831253990857,0.01200249864975398
8.572,-0.22457286085351014,0.3149194465627693,-0.19681588952091586,-1.3668452950371632,-0.19937930512848862,-0.24976641657853169,-0.007344883736410707,-0.0014059823254001364,0.01048681757054022
8.604,-0.21794593356665098,0.3054427410376713,0.19900682543120576,-0.2845857515044459,-0.1935105142836373,-0.2423813528496647,-0.0071136713901718855,-0.0014380462541944417,0.010171243276554455
8.638,-0.21795054607422712,0.3059782629539024,-0.0001385137410250739,0.01608173922616005,-0.19347228503791492,-0.24242880711053932,-0.007098813616141403,-0.001510420740807041,0.01018907615636495
8.672,-0.22455763886622884,0.35579414211878907,-0.19841119495500667,1.4959723472938937,-0.19609410749672573,-0.25302117023573195,-0.007296409758484641,-0.0016366995284828412,0.011847944932555678
8.705,-0.21794281410094726,0.34588838300480546,0.19864338634479214,-0.2974702436631716,-0.19027174346056283,-0.2456138847413317,-0.0070624395223506916,-0.001671110308157035,0.011518083154060024
8.737,-0.2179548186609739,0.3462960546870814,-0.0003604972980974796,0.012242392861139827,-0.19025113428600737,-0.24565850303594042,-0.007043099426828209,-0.0017524877316033507,0.011531658621079813
8.771,-0.2185996254466416,0.16046269691648685,-0.019363567137168025,-5.580581314432268,-0.20576260969332266,-0.23143664119996057,-0.007048885012426936,-0.0018172191946204635,0.0053434078073190125
8.805,-0.21802012255340858,0.1418029550518586,0.01740248928627702,-0.5603526085473944,-0.20667588614925989,-0.22936435895755727,-0.007020990090771946,-0.0018477602081861677,0.004722038403226892
8.838000000000001,-0.21805141655431445,0.1420780472412929,-0.0009397597869631757,0.008261026709738089,-0.20668517277501103,-0.2294176603336179,-0.0070131845209944225,-0.001881194963239897,0.004731198973135053
8.872,-0.2109637387788985,0.10253715363192513,0.21284317643891712,-1.1874142225035362,-0.2027607664883445,-0.2191667110694525,-0.006777757649439946,-0.0018476682465899286,0.003414487215943107
8.904,-0.20477264160233022,0.09971142425237679,0.18591883413118,-0.08485673812457466,-0.19679572766214007,-0.21274955554252034,-0.006572776151140084,-0.0018155889352475683,0.0033203904276041477
8.938,-0.20475345851055352,0.09927398064388523,0.0005760688221232221,-0.013136444699446196,-0.1968115400590427,-0.21269537696206434,-0.006566109704080726,-0.0018371831255038227,0.0033058235554413785
8.971,-0.20403516447188963,0.14849608745544624,0.021570391551468043,1.4781413456925223,-0.19215547747545392,-0.21591485146832531,-0.006535463371391384,-0.0018577140324987948,0.00494491971226636
9.005,-0.19060752848018608,0.08784776821041144,0.4032323120631695,-1.8212708481992428,-0.18357970702335316,-0.197635349937019,-0.0060984894503146835,-0.001759470156862156,0.0029253306814067013
9.038,-0.19053874202529855,0.08692301766321474,0.0020656593059318815,-0.0277702867026038,-0.1835849006122414,-0.19749258343835574,-0.006091144775419049,-0.0017765675357776303,0.002894536488185051
9.071,-0.2287051992668781,0.26613691303954173,-1.146139857104491,5.381798659949759,-0.20741424622371474,-0.2499961523100414,-0.007298567577023984,-0.0021753637929643457,0.008862359204216741
9.105,-0.2180221440442465,0.24444705986453222,0.3208124691480962,-0.6513469421924779,-0.19846637925508392,-0.23757790883340907,-0.006939766907848949,-0.0021328242390451606,0.008140087093488924
9.138,-0.2179952544481059,0.24422133374304011,0.0008074953795971022,-0.006778562206970077,-0.1984575477486627,-0.23753296114754913,-0.006921330328594419,-0.0021889472508709964,0.008132570413643236
9.172,-0.22460411509970407,0.24822106262029325,-0.1984642838317765,0.12011197829589006,-0.20474643009008062,-0.24446180010932755,-0.0071124292897456086,-0.0023137014451548497,0.008265761385255766
9.204,-0.21798737245824712,0.2415186713398892,0.19870098022393248,-0.20127301142354542,-0.19866587875105599,-0.23730886616543825,-0.006884361364528437,-0.0023017532446015982,0.008042571755618311
9.238,-0.21798869537421842,0.24202226207198513,-3.972720634525094e-05,0.015122844807685814,-0.19862691440845961,-0.23735047633997722,-0.006865648724227013,-0.002357118021205784,0.008059341326997106
9.272,-0.2287103151007988,0.44562158632830734,-0.32197056235977156,6.114093821511177,-0.19306058819453423,-0.26436004200706337,-0.007174498253926194,-0.002555343662034657,0.014839198824732636
9.305,-0.21802906855557608,0.416822779649595,0.32075815451119316,-0.8648290293907602,-0.18468324618360848,-0.25137489092754367,-0.006803757882882492,-0.002533964407358675,0.013880198562331516
9.338,-0.21802623553462647,0.4167000867761344,8.507570419251645e-05,-0.003684470674493002,-0.18469022859253573,-0.25136224247671723,-0.006767849147737063,-0.002628106829784243,0.013876112889645277
9.372,-0.22462072604744102,0.3373470273240197,-0.19803274813256902,-2.382974758321762,-0.19763296386151943,-0.25160848823336257,-0.006938028639251089,-0.0027949289983404194,0.011233656009889858
9.405,-0.21798183597211487,0.32704995029872824,0.19936606832811238,-0.3092215322910354,-0.1918178399482166,-0.24414583199601314,-0.006702554762230835,-0.002786636991561118,0.010890763344947652
9.438,-0.21791991173998773,0.3261403210271486,0.001859586550364619,-0.027316194341730177,-0.19182868605781586,-0.2440111374221596,-0.006669957422823935,-0.0028585529717784107,0.01086047269020405
9.472,-0.2112781992784765,0.2853558554551478,0.1994508246700072,-1.2247587258859107,-0.18844973084206468,-0.23410666771488833,-0.006438127671733483,-0.0028371289940218236,0.009502349986656423
9.505,-0.20500829060209416,0.2762813358490386,0.1882855458373072,-0.2725080962795562,-0.18290578373417107,-0.22711079747001725,-0.0062210545826335865,-0.002811231537114101,0.009200168483772985
9.537,-0.20504311606973666,0.2764399693856835,-0.0010458098391140055,0.004763769869216645,-0.18292791851888196,-0.2271583136205913,-0.006195972612298136,-0.0028688501146020592,0.009205450980543262
9.572,-0.21061577173193177,0.17513400605837023,-0.16734701688273615,-3.042221120940338,-0.19660505124726216,-0.2246264922166014,-0.006342044020566659,-0.002994594028462562,0.005831962401743729
9.605,-0.20444847141075853,0.16993006272844988,0.18520421384904626,-0.1562745744720828,-0.19085406639248254,-0.2180428764290345,-0.006139532705022591,-0.00294222779180955,0.005658671088857381
9.637,-0.2044664523024863,0.17023045895448796,-0.0005399667185518236,0.009020907688831395,-0.1908480155861273,-0.21808488901884535,-0.006123308967954962,-0.00297721452434515,0.005668674283184449
9.671,-0.22464267554139225,0.01598528731754627,-0.6058925897569352,-4.631987136244494,-0.22336385255598853,-0.22592149852679594,-0.006717376226101171,-0.003291845692932506,0.0005323100676742909
9.704,-0.21805886981913314,0.01581234091606608,0.19771188355132466,-0.005193585630035827,-0.2167938825458479,-0.21932385709241844,-0.006518811378183864,-0.00319882030559168,0.0005265509525050004
9.738,-0.2180730726463001,0.015984622673194705,-0.0004265113263352777,0.005173626340199008,-0.2167943028324445,-0.21935184246015568,-0.006517541424727086,-0.003202479615325102,0.0005322879350173837
9.771,-0.21458355179784105,0.444915571516751,0.10479041586964111,12.880809274581267,-0.178990306076501,-0.25017679751918115,-0.0063888207550508985,-0.0032003274802754824,0.014815688531507809
9.805,-0.20609647880971152,0.03786417264799606,0.2548670567005866,-12.22376573179444,-0.20306734499787182,-0.2091256126215512,-0.006111283998639546,-0.003123002654039059,0.001260876949178269
9.838000000000001,-0.2043062822731464,0.016484646415087914,0.05375965575270629,-0.6420278148020464,-0.20298751055993938,-0.20562505398635345,-0.006055396487923242,-0.0031013566196361106,0.0005489387256224276
9.871,-0.21081381948760486,0.06037520214723828,-0.19542153797172546,1.318034706671182,-0.2059838033158258,-0.21564383565938391,-0.006244170830628063,-0.003208133522866794,0.002010494231503035
9.904,-0.2045442521697485,0.05777021127980749,0.1882752948305212,-0.07822795397690055,-0.19992263526736392,-0.2091658690721331,-0.006052335509443574,-0.00312463593393614,0.0019237480356175897
9.938,-0.20452541085228806,0.057259978139718566,0.0005658053291422969,-0.015322316519186948,-0.19994461260111057,-0.20910620910346556,-0.006045783011233457,-0.0031359330672702905,0.0019067572720526285
9.972,-0.2123664990582026,-0.1886645582827569,-0.23546811429172765,-7.3851212138881515,-0.22745966372082313,-0.19727333439558203,-0.0062846657234647395,-0.0032424111378172196,-0.0062825297908158054
10.005,-0.20454041919810864,-0.1641640509975682,0.23501741321603464,0.7357509695251865,-0.2176735432779141,-0.1914072951183032,-0.006071308493572294,-0.003087310810051545,-0.0054666628982190215
10.038,-0.20457063148718277,-0.16407754827807428,-0.0009072759481719948,0.0025976792640818305,-0.2176968353494287,-0.19144442762493685,-0.006088989848431019,-0.0030545349329785553,-0.005463782357659874
10.072,-0.22460079822814383,-0.26526361750913297,-0.6015065087375693,-3.0386206976293897,-0.24582188762887447,-0.20337970882741319,-0.006708971308482042,-0.0033057331015557538,-0.008833278463054128
10.105,-0.21805086462516254,-0.257572602606879,0.19669470279223072,0.23096140847609575,-0.23865667283371286,-0.19744505641661222,-0.006541012549846412,-0.0031525092626003637,-0.00857716766680907
10.138,-0.21805861859884204,-0.25723525688203297,-0.0002328520624473685,0.01013050224762779,-0.2386374391494047,-0.19747979804827945,-0.006568027430971045,-0.0030964376497981234,-0.008565934054171699
10.172,-0.17837924971544267,-0.18819093910498247,1.1915726391411223,2.0734029362477626,-0.19343452484384124,-0.16332397458704406,-0.005391511566923193,-0.0024930768652013558,-0.006266758272195917
10.204,-0.13943914442051206,-0.18265724167345,1.1693725313792975,0.16617710004602043,-0.15405172375438808,-0.12482656508663606,-0.004226500488091859,-0.001922779332980242,-0.006082486147725885
10.237,-0.10607578596129294,-0.18265843066705229,1.0019026564330065,-3.5705513582488005e-05,-0.1206884604146571,-0.09146311150792875,-0.003224070628770064,-0.001443135696814148,-0.006082525741212842
10.272,-0.07525617587209667,-0.18819427804165914,0.9255138164923805,-0.16624166290110676,-0.0903117181154294,-0.06020063362876393,-0.0022936165270873504,-0.0010096991256749392,-0.00626686945878725
10.305,-0.039349219398787535,-0.18265725798063984,1.0782869811804543,0.1662768787092884,-0.05396180003723872,-0.024736638760336355,-0.0012025010674274275,-0.0005205266499110179,-0.006082486690755307
10.337,-0.010299185268172754,-0.1287390313499505,0.8723733973157591,1.6191659648855659,-0.020598307776168796,-6.276017671524157e-08,-0.0003154425919743794,-0.0001346080266235634,-0.004287009743953352
10.371,-2.7943017445454234e-07,1.8957516857621891e-06,0.3092764515915405,3.8660939069560434,-1.2777003959356717e-07,-4.3109030931551743e-07,-8.566179244467363e-09,-3.6337390866416196e-09,6.312853113588091e-08
10.405,-1.2983023073037418e-07,-9.950412065878227e-08,4.492490802527572e-06,-5.991759178441355e-05,-1.3779056038307675e-07,-1.218699010776716e-07,-3.980060487831292e-09,-1.6883259730003259e-09,-3.31348721793745e-09
10.438,-7.733169223264787e-05,0.0009686780179306785,-0.0023183742342918166,0.029092418079619736,1.6254920180640223e-07,-0.00015482593366710214,-2.3706552039714886e-06,-1.0056676806285557e-06,3.225697799709159e-05
10.472,-8.310255779119968e-05,0.0010404313561827047,-0.000173299266022577,0.0021547549024632504,1.3195070341670304e-07,-0.00016633706628581605,-2.5475288283144963e-06,-1.0808006952565345e-06,3.464636416088407e-05
10.504,-7.999636876076677e-05,0.0010007285957180422,9.32789498628503e-05,-0.0011922750890289056,6.191889667661599e-08,-0.00016005465641821015,-2.4522724992252787e-06,-1.0404861077019906e-06,3.3324262237410804e-05
10.538,-7.936764432280916e-05,0.0009928384070254468,1.888061375248052e-05,-0.00023694260338124272,5.942823922656349e-08,-0.00015879471688484491,-2.4329648121422593e-06,-1.0323892561889814e-06,3.306151895394738e-05
10.572,-8.134894822213304e-05,0.0010170226730946866,-5.9498615595311446e-05,0.000726254236313507,1.286562544188151e-08,-0.00016271076206970798,-2.4936650149816323e-06,-1.0582448807356768e-06,3.3866855014053066e-05
10.605,-7.87271065195906e-05,0.0009831989427676112,7.873398506133442e-05,-0.0010157276374497114,-7.119109818170948e-08,-0.00015738302194099948,-2.41326115242346e-06,-1.024218473308558e-06,3.274052479416146e-05
10.637,-7.26116269673211e-05,0.0009155931797637977,0.0001836480346026875,-0.0020302030932076104,6.358274137827154e-07,-0.00014585908134842493,-2.22577044971645e-06,-9.447280977343436e-07,3.0489252886134467e-05
10.671,-2.8168915838298677e-05,0.0012493446555733138,0.0013346159498204932,0.01002256684112661,7.177865660756643e-05,-0.00012811648828416378,-8.634509897191431e-07,-3.6652843873036854e-07,4.160317703059135e-05
10.704,-1.8862329759538364e-05,0.0012274366669308835,0.0002794770594222316,-0.0006578975568297398,7.933260359493231e-05,-0.00011705726311400904,-5.7816964891082e-07,-2.4545679886603534e-07,4.087364100879842e-05
10.737,-1.7476695381210323e-05,0.0012309242623465499,4.161064199183304e-05,0.0001047325950650558,8.099724560651368e-05,-0.00011595063636893433,-5.356877631359626e-07,-2.27447369884702e-07,4.098977793614012e-05
10.772,-1.769064837699087e-05,0.0012691034786235062,-6.425014888304677e-06,0.0011465230113200107,8.383762991288963e-05,-0.00011921892666687137,-5.422361696264752e-07,-2.3025439444443794e-07,4.226114583816276e-05
10.805,-1.710841526905829e-05,0.0012320215082983054,1.7484477715693088e-05,-0.0011135726824384636,8.145330539480613e-05,-0.00011567013593292271,-5.243808656155684e-07,-2.2269811885648902e-07,4.1026316226333574e-05
10.837,-1.710146276650064e-05,0.0012321751857614527,2.087838605900402e-07,4.614938833253596e-06,8.147255209441558e-05,-0.00011567547762741686,-5.241586344043374e-07,-2.2262912482044443e-07,4.103143368585638e-05
10.872,-1.762375725764062e-05,0.0012696552720952818,-1.5684519253452835e-05,0.0011255281181330053,8.394866450998193e-05,-0.00011919617902526318,-5.401573665073457e-07,-2.2945092492706562e-07,4.2279520560772886e-05
10.904,-1.7111676264295898e-05,0.0012324451951816805,1.5377807607949627e-05,-0.0011174197271351751,8.148393935023855e-05,-0.00011570729187883033,-5.244531160517881e-07,-2.2280578131751466e-07,4.1040424999549964e-05
10.938,-1.711863672189158e-05,0.0012325835824112841,-2.090227506210549e-07,4.155772660769922e-06,8.148804987101115e-05,-0.00011572532331479431,-5.246572973207497e-07,-2.2291794481411213e-07,4.1045033294295764e-05
10.971,-1.764479397459362e-05,0.001270085894661916,-1.580051809916041e-05,0.0011261955630820371,8.396207759835966e-05,-0.0001192516655475469,-5.40773553446691e-07,-2.2979206951915947e-07,4.2293860292241805e-05
11.005,-1.713280131403343e-05,0.001232875671748986,1.5375154971777525e-05,-0.0011174241114994012,8.149725242588545e-05,-0.0001157628550539523,-5.250728221260768e-07,-2.231461576694491e-07,4.1054759869241236e-05
11.038,-1.713951204786392e-05,0.0012330162997327182,-2.0152353845322053e-07,4.223062574544311e-06,8.150179193075355e-05,-0.00011578081602648137,-5.252693217328802e-07,-2.23255127840436e-07,4.105944278109952e-05
11.072,-1.7665890295359998e-05,0.0012705254719934077,-1.5807154579461766e-05,0.0011264015693900737,8.397614746411261e-05,-0.0001193079280548326,-5.413914805519787e-07,-2.301341707978385e-07,4.230849821738048e-05
11.105,-1.7153000132587114e-05,0.0012332945427009237,1.5402106990176693e-05,-0.0011180459246992183,8.151056328348677e-05,-0.00011581656354866101,-5.25664057061382e-07,-2.2347464710483118e-07,4.1068708271940765e-05
11.138,-1.715958199620981e-05,0.0012334295943904746,-1.9765356224313218e-07,4.0556062928205896e-06,8.151478555502818e-05,-0.00011583394954744779,-5.258565799664312e-07,-2.235819952994286e-07,4.107320549320281e-05
11.172,-1.7686470329053224e-05,0.0012709483488060535,-1.5822472457760152e-05,0.0011266893217891558,8.398939757543106e-05,-0.0001193623382335375,-5.419934998241548e-07,-2.3046972453222543e-07,4.2322580015241584e-05
11.205,-1.717293005184358e-05,0.0012337041892458373,1.5421629946235495e-05,-0.001118443230036524,8.15234050878234e-05,-0.00011586926519151057,-5.262469689044425e-07,-2.2379980470741662e-07,4.1082349501886387e-05
11.237,-1.717937954215476e-05,0.0012338373662688004,-1.9367838772309162e-07,3.9993099988937706e-06,8.152760975934928e-05,-0.00011588636884365879,-5.26435408357251e-07,-2.2390548384109133e-07,4.108678429675106e-05
11.272,-1.770666015219989e-05,0.0012713640682409059,-1.583425255390777e-05,0.0011269279871503125,8.400246530707259e-05,-0.00011941578561147237,-5.425834772583759e-07,-2.308003677593573e-07,4.233642347242217e-05
11.304,-1.7192367744540234e-05,0.0012341036250795956,1.5444216446235894e-05,-0.0011189322270663746,8.153592226182741e-05,-0.00011592065775090787,-5.268147157874281e-07,-2.2411871578720314e-07,4.109565071515054e-05
11.338,-1.719873543297883e-05,0.0012342331885586602,-1.9122187503287286e-07,3.890795167104939e-06,8.153991965171397e-05,-0.00011593739051767164,-5.270006221423817e-07,-2.2422338336412824e-07,4.1099965179003385e-05
11.372,-1.7726473048428448e-05,0.0012717683936108875,-1.5847976439928505e-05,0.0011271833349017226,8.401499844044255e-05,-0.00011946794453729945,-5.431618219550378e-07,-2.3112626870665385e-07,4.234988750724256e-05
11.405,-1.7211444846400417e-05,0.0012344924157909325,1.5466312373214156e-05,-0.0011193987333319826,8.154794841687418e-05,-0.00011597083810967502,-5.273713337089111e-07,-2.2443309066837302e-07,4.1108597445838055e-05
11.437,-1.721768226338973e-05,0.0012346186490990233,-1.8730981949890538e-07,3.7907900327555894e-06,8.155180966453214e-05,-0.0001159871741913116,-5.275532223649626e-07,-2.245361133554024e-07,4.111280101499748e-05
11.471,-1.774593120347563e-05,0.0012721624336967331,-1.5863331534111125e-05,0.0011274409789102055,8.402706349226303e-05,-0.00011951892589921429,-5.437292156910062e-07,-2.314477118862768e-07,4.2363009042101216e-05
11.505,-1.7230249012472517e-05,0.0012348722719594742,1.5485951681775193e-05,-0.0011198246767945626,8.155953274428544e-05,-0.00011602003076923046,-5.279195102633797e-07,-2.2474406808267131e-07,4.112124665625049e-05
11.538,-1.7236341131634004e-05,0.0012349955629024948,-1.829465213659878e-07,3.702430721340454e-06,8.156330390056559e-05,-0.0001160359861638336,-5.280969214450839e-07,-2.2484524838343432e-07,4.112535224465308e-05
11.572,-1.7765029686590937e-05,0.0012725478170235855,-1.5876533181889886e-05,0.001127695318951671,8.403879567529591e-05,-0.00011956885504847779,-5.442855092715442e-07,-2.3176462848019273e-07,4.23758423068854e-05
11.604,-1.7248699718900674e-05,0.0012352436653379878,1.5505404435143027e-05,-0.0011202447953632916,8.157079350813835e-05,-0.0001160681929459397,-5.284567798618062e-07,-2.250505938697029e-07,4.1133614055755e-05
11.637,-1.725475726999804e-05,0.0012353648219622605,-1.8190844136229502e-07,3.638337065244482e-06,8.15744284869828e-05,-0.00011608394302697889,-5.286331066955232e-07,-2.2515137497734625e-07,4.113764857134328e-05
11.671,-1.778392545970531e-05,0.0012729261933728574,-1.5890936627845932e-05,0.0011279691114293366,8.405017001012327e-05,-0.0001196180209295339,-5.448355133186697e-07,-2.320790623205718e-07,4.238844223931615e-05
11.705,-1.7266905026752505e-05,0.0012356085416013254,1.5526139127711816e-05,-0.001120650203349308,8.158177830135353e-05,-0.00011611558835485855,-5.289864548779177e-07,-2.2535407396913962e-07,4.114576443532414e-05
11.738,-1.727284800875492e-05,0.0012357273101078665,-1.7846792800041148e-07,3.5666218180504476e-06,8.15853367998744e-05,-0.00011613103281738423,-5.291592467811865e-07,-2.2545341099793526e-07,4.114971942659196e-05
11.772,-1.7802478271924763e-05,0.001273297275102766,-1.5904812707803143e-05,0.0011282271770240062,8.406130373629651e-05,-0.00011966626028014604,-5.453749323664662e-07,-2.3238917996779035e-07,4.240079926092211e-05
11.804,-1.728488765515188e-05,0.0012359668814296062,1.5543261764951478e-05,-0.00112103284303783,8.159246285921661e-05,-0.00011616223816952038,-5.295092325886532e-07,-2.256548018484476e-07,4.115769715160589e-05
11.838000000000001,-1.7290789585707762e-05,0.0012360840707229105,-1.7723515182833044e-07,3.519197997127255e-06,8.159593607212508e-05,-0.0001161775152435406,-5.296807421974308e-07,-2.2575365341805571e-07,4.116159955507292e-05
11.871,-1.782089935512213e-05,0.0012736632779264101,-1.5919212294725715e-05,0.0011285047208258144,8.407216287899068e-05,-0.00011971396158923494,-5.459102388657648e-07,-2.3269773538164928e-07,4.2412987154949465e-05
11.904,-1.7302666119498215e-05,0.0012363204153824697,1.5562559628345747e-05,-0.0011214072836018155,8.160296711109934e-05,-0.00011620829935009579,-5.300256813209333e-07,-2.2595301649965123e-07,4.1169469832236245e-05
11.938,-1.730847901488848e-05,0.0012364358450702997,-1.7456142313103718e-07,3.4663569918915724e-06,8.16063885907355e-05,-0.00011622334662051245,-5.301944390553564e-07,-2.260507552977916e-07,4.117331364084098e-05
11.972,-1.7839053760588544e-05,0.0012740239157863257,-1.5933175546548494e-05,0.0011287708923731529,8.40828595023175e-05,-0.0001197609670234946,-5.464372998363478e-07,-2.3300296419758596e-07,4.242499639568465e-05
12.004,-1.732025751986664e-05,0.001236669035418212,1.557946668834544e-05,-0.0011217681792226356,8.16132653135903e-05,-0.0001162537803533236,-5.305363259213481e-07,-2.262489387380435e-07,4.118107887942646e-05
12.037,-1.7326036829470093e-05,0.0012367833369614173,-1.7355284094452747e-07,3.432478774936825e-06,8.161663012744328e-05,-0.00011626870378638348,-5.307040306291969e-07,-2.2634628816005619e-07,4.11848851208152e-05
12.072,-1.7857096753274062e-05,0.001274380734955132,-1.594774545957863e-05,0.0011290509908022431,8.40933620431365e-05,-0.00011980755554968462,-5.469608723766226e-07,-2.333068917288118e-07,4.24368784740059e-05
12.105,-1.733771969971689e-05,0.0012370142350428526,1.5596908515230404e-05,-0.001122117114482864,8.162341910371133e-05,-0.00011629885850314511,-5.310429390509252e-07,-2.2654332204597832e-07,4.1192574026927e-05
12.138,-1.7343446513814905e-05,0.0012371274847087542,-1.7197639933981905e-07,3.400890867916035e-06,8.162675226288543e-05,-0.00011631364529051523,-5.31209011732535e-07,-2.266400345248367e-07,4.119634524080152e-05
12.171,-1.7874951664497263e-05,0.0012747340738828183,-1.5961115636106822e-05,0.0011293270022241458,8.41037742461282e-05,-0.00011985367757512272,-5.474786088290164e-07,-2.336085145596801e-07,4.244864466029785e-05
12.205,-1.735498733232596e-05,0.0012373558745283231,1.561454450964871e-05,-0.001122468449083939,8.163348262993989e-05,-0.00011634345729459181,-5.315435205522918e-07,-2.2683531096487897e-07,4.120395062179316e-05
12.238,-1.7360666109894266e-05,0.0012374678755753986,-1.7053386091008855e-07,3.3633948070700464e-06,8.163676393613762e-05,-0.00011635809615592616,-5.317080980619488e-07,-2.2693144408785154e-07,4.1207680256660775e-05
12.271,-1.78926747129115e-05,0.0012750837768661062,-1.5976234324841805e-05,0.0011296066453665946,8.4114027436377e-05,-0.00011989937686219999,-5.479922319276702e-07,-2.3390856531760558e-07,4.2460289769641336e-05
12.304,-1.7372160706800202e-05,0.001237694500486428,1.5631051234573465e-05,-0.0011228010924828266,8.164339933211402e-05,-0.00011638772074571444,-5.320411428684656e-07,-2.2712621430759488e-07,4.121522686619806e-05
12.337,-1.7377804805402104e-05,0.0012378057530311422,-1.6949245050755846e-07,3.3409172586850495e-06,8.164665543708927e-05,-0.00011640226504789348,-5.322046344979635e-07,-2.2722194220474403e-07,4.121893157593704e-05
12.372,-1.791029782252976e-05,0.0012754310732699535,-1.5990781295124813e-05,0.0011298894966609992,8.412418803906653e-05,-0.00011994478368412605,-5.485027200035116e-07,-2.342074598375443e-07,4.2471854739889456e-05
12.405,-1.738922969582521e-05,0.0012380308051982345,1.5647691492629176e-05,-0.0011231311733248964,8.165323472003354e-05,-0.00011643169411168397,-5.325354963205155e-07,-2.274158984524104e-07,4.122642581310121e-05
12.438,-1.739483825816849e-05,0.0012381413282304022,-1.6842529559400474e-07,3.3190099750061196e-06,8.165646800026368e-05,-0.00011644614451660066,-5.326978759847944e-07,-2.2751120948652841e-07,4.12301062300724e-05
12.471,-1.7927809575698437e-05,0.001275776147007306,-1.6005144670569022e-05,0.0011301747380451604,8.413428218488603e-05,-0.0001199899013362829,-5.49009723897445e-07,-2.3450504753638878e-07,4.2483345695343295e-05
12.505,-1.740618840573705e-05,0.0012383650778018255,1.5664299398239895e-05,-0.001123455531696112,8.166301781840899e-05,-0.00011647539462988308,-5.330264009345826e-07,-2.2770428501985754e-07,4.1237557090800796e-05
12.538,-1.7411746155472952e-05,0.001238474779034908,-1.668993914685716e-07,3.2943313238000406e-06,8.16662361673197e-05,-0.0001164897284782656,-5.331872010135862e-07,-2.277989788981963e-07,4.124121014186244e-05
12.572,-1.7945190518749616e-05,0.0012761188147153283,-1.601935024854846e-05,0.0011304515219345433,8.414431465847666e-05,-0.0001200346956959759,-5.495126484448072e-07,-2.3480107251629155e-07,4.2494756530020436e-05
12.605,-1.7423030513345498e-05,0.0012386968613094004,1.5680480642766306e-05,-0.0011237823845624002,8.167271839140653e-05,-0.00011651877941809751,-5.33513663629173e-07,-2.2799128992227336e-07,4.1248605481603036e-05
12.638,-1.7428578352290497e-05,0.0012388059950484828,-1.666017701201017e-07,3.2772894619338904e-06,8.167590125158814e-05,-0.00011653305795616914,-5.336741367895187e-07,-2.280859013547743e-07,4.1252239635114484e-05
12.671,-1.796251124186365e-05,0.0012764595510733761,-1.6034020707902508e-05,0.0011307374181649655,8.415425284400644e-05,-0.00012007927532773374,-5.500136557660463e-07,-2.3509645708583437e-07,4.250610305074343e-05
12.705,-1.743981783346809e-05,0.0012390270977081874,1.569649875061747e-05,-0.0011240976986543155,8.16823499831869e-05,-0.0001165619856501231,-5.339991777104454e-07,-2.2827772086979748e-07,4.1259602353682645e-05
12.738,-1.7445349206065282e-05,0.001239135686485797,-1.6610728520099197e-07,3.2609242525385002e-06,8.168550571279848e-05,-0.00011657620412492903,-5.34159123283958e-07,-2.2837216387913805e-07,4.126321835997704e-05
12.772,-1.7979816561883474e-05,0.001276798219852083,-1.6050070745291035e-05,0.0011310070079965757,8.416404102628315e-05,-0.0001201236741500501,-5.505141183638513e-07,-2.3539178724244374e-07,4.251738072107436e-05
12.804,-1.7456666977209974e-05,0.001239354696569139,1.5710197737942943e-05,-0.0011244301286169355,8.169170874832114e-05,-0.0001166050427027411,-5.344865138252753e-07,-2.2856510399235078e-07,4.1270511395752334e-05
12.838000000000001,-1.746224934021026e-05,0.001239462260248824,-1.6763852853710287e-07,3.2301405310816243e-06,8.169473147969566e-05,-0.00011661923016011617,-5.346479971856494e-07,-2.2866026180657752e-07,4.127409326628584e-05
12.872,-1.7997238658481694e-05,0.0012771340965999187,-1.6065745293436473e-05,0.0011312863769097504,8.417348906951181e-05,-0.0001201679663864752,-5.510180832440365e-07,-2.3568879369830739e-07,4.25285654167773e-05
12.905,-1.7473558860577516e-05,0.0012396802781748587,1.5726120057182523e-05,-0.0011247392920438418,8.170086339341119e-05,-0.00011664798111456621,-5.349750873997414e-07,-2.2885318994406768e-07,4.12813532632228e-05
12.938,-1.7479117633078876e-05,0.001239787487341328,-1.669301051459464e-07,3.219494488569357e-06,8.170388135422737e-05,-0.00011666211662038512,-5.351358250056973e-07,-2.2894808610252681e-07,4.128492332846623e-05
12.971,-1.8014594152100523e-05,0.001277468821702409,-1.6080375946596006e-05,0.0011315716024348599,8.41829115840922e-05,-0.00012021209988829324,-5.515199356249409e-07,-2.3598507552594768e-07,4.253971176269022e-05
13.005,-1.7490381474029926e-05,0.0012400048235044084,1.5742122464582474e-05,-0.0011250449909309475,8.171000440632275e-05,-0.00011669076735438261,-5.354614690730891e-07,-2.2914051175138294e-07,4.12921606226968e-05
13.037,-1.7495918384699626e-05,0.0012401117233547417,-1.6627359368466812e-07,3.210205715714324e-06,8.17130194836797e-05,-0.00011670485625307895,-5.356215139499586e-07,-2.292351686266563e-07,4.12957203877129e-05
13.071,-1.8031878384844272e-05,0.0012778026837255217,-1.6094894899238628e-05,0.0011318606717951958,8.419233631319745e-05,-0.00012025609308288601,-5.520195332082953e-07,-2.3628057091023852e-07,4.255082936805988e-05
13.104,-1.7507129943148022e-05,0.0012403286490913744,1.5758211462349852e-05,-0.00112534638540983,8.171916198416193e-05,-0.00011673342187045797,-5.359455099335683e-07,-2.294270047248077e-07,4.130294401474277e-05
13.138,-1.7512641957136406e-05,0.0012404352506277814,-1.6552594559713468e-07,3.2012473395492884e-06,8.17221780930861e-05,-0.00011674746200735892,-5.361047692783147e-07,-2.295213822853236e-07,4.130649384590512e-05
13.172,-1.804909266641604e-05,0.0012781355970280528,-1.6109630909298317e-05,0.0011321425345426851,8.420175509582817e-05,-0.00012029994042866025,-5.525169164026671e-07,-2.365752961869058e-07,4.2561915381034164e-05
13.205,-1.752382760846051e-05,0.0012406514130090694,1.5773725464130026e-05,-0.0011256511717412426,8.172828543226504e-05,-0.00011677594064918604,-5.36427924799262e-07,-2.297129739708044e-07,4.131369205320201e-05
13.238,-1.7529329716939045e-05,0.0012407577619127268,-1.6522848283887245e-07,3.1936607704930594e-06,8.17312912360791e-05,-0.00011678995066995718,-5.365868576025872e-07,-2.2980726848068517e-07,4.1317233471693805e-05
13.272,-1.806627102269104e-05,0.0012784676350827615,-1.6124363536095975e-05,0.001132428623724765,8.421113978392987e-05,-0.00012034368182931196,-5.530131270629299e-07,-2.3686969665861956e-07,4.257297224825596e-05
13.305,-1.7540485558434875e-05,0.0012409734559959416,1.5789353280965955e-05,-0.001125951323928526,8.173739092124047e-05,-0.00011681836203811022,-5.36909053304598e-07,-2.2999856428175437e-07,4.132441608466486e-05
13.338,-1.7545973119351056e-05,0.0012410795868798028,-1.6479161910454343e-07,3.1871136294652245e-06,8.174039383103316e-05,-0.00011683234006973528,-5.37067517519733e-07,-2.300927147407979e-07,4.132795024309744e-05
13.372,-1.808340410971223e-05,0.0012787989919686353,-1.6139068779614785e-05,0.0011327148675325093,8.422051524777858e-05,-0.00012038732346720305,-5.535078793249448e-07,-2.3716364936031452e-07,4.258400643255556e-05
13.405,-1.755710108212653e-05,0.001241294860436541,1.5804895723294242e-05,-0.0011262501961589878,8.174648775279677e-05,-0.00011686068991704982,-5.373888126318678e-07,-2.3028373964814938e-07,4.133511885253682e-05
13.437,-1.756257574317135e-05,0.0012414007945128669,-1.644042355802178e-07,3.1812034932691447e-06,8.1749487817858e-05,-0.0001168746393042007,-5.37546858748861e-07,-2.3037776750489832e-07,4.133864645727847e-05
13.472,-1.810049689343718e-05,0.0012791297341170186,-1.615378829627111e-05,0.0011330011893138665,8.422988183592433e-05,-0.00012043087562279869,-5.54001325367324e-07,-2.3745721891816762e-07,4.2595020146096727e-05
13.505,-1.7573679103244565e-05,0.0012416156880092578,1.5820354059838273e-05,-0.001126547931163989,8.175557593749606e-05,-0.0001169029341439852,-5.3786735365094e-07,-2.3056856417762674e-07,4.134580241070829e-05
13.538,-1.7579142402967096e-05,0.0012417214440698233,-1.640630547306643e-07,3.175857674640444e-06,8.175857312261877e-05,-0.00011691685792855296,-5.38025028809524e-07,-2.3066248948175145e-07,4.134932408752512e-05
13.571,-1.8117554177870937e-05,0.0012794599203897366,-1.616852176888412e-05,0.001133287577174572,8.4239239453308e-05,-0.00012047434780904986,-5.544936123766641e-07,-2.3775046791611724e-07,4.260601534897823e-05
13.604,-1.7590224138856383e-05,0.0012419359937691514,1.583573690734396e-05,-0.0011268446432608165,8.176465536267572e-05,-0.00011694510364038848,-5.383448147511258e-07,-2.3085309673272406e-07,4.135646859251274e-05
13.637,-1.759567747145669e-05,0.001242041588801369,-1.6376374175097274e-07,3.171021988514592e-06,8.176764963265284e-05,-0.0001169590045755662,-5.385021616617768e-07,-2.3094693764964867e-07,4.135998490708559e-05
13.671,-1.8134580348054376e-05,0.0012797896032673312,-1.6183269567498044e-05,0.001133574007986855,8.424858791333211e-05,-0.00012051774860944086,-5.549848746878872e-07,-2.3804345351729418e-07,4.261699378880213e-05
13.705,-1.760674027122204e-05,0.0012422558271161452,1.5851053358328343e-05,-0.0011271404249605416,8.177372589806958e-05,-0.00011698720644051366,-5.388213209874399e-07,-2.311373905277049e-07,4.1367119042967634e-05
13.738,-1.761218489183226e-05,0.0012423612760610165,-1.635021204269494e-07,3.166634981120806e-06,8.177671719304906e-05,-0.00011700108697671358,-5.389783780942956e-07,-2.312311634302338e-07,4.137063049283185e-05
13.772,-1.8151579315493257e-05,0.0012801188302353412,-1.619803074057052e-05,0.0011338604857154572,8.425792710333403e-05,-0.00012056108573432055,-5.554752321112456e-07,-2.3833622672714366e-07,4.2627957046836865e-05
13.804,-1.7623231202365206e-05,0.0012425752320810845,1.5866309703545077e-05,-0.001127435380007709,8.178278736412156e-05,-0.00011702924976885197,-5.392969857473861e-07,-2.3142149385751546e-07,4.137775522830012e-05
13.837,-1.762866856679778e-05,0.0012426805430582404,-1.6328421719442086e-07,3.16249180648485e-06,8.178577487786146e-05,-0.00011704311201145703,-5.394537976314306e-07,-2.3151521776651374e-07,4.138126208383941e-05
13.871,-1.8168555116678437e-05,0.0012804476246844657,-1.6212809305725425e-05,0.0011341465953821402,8.426725485807881e-05,-0.0001206043650914357,-5.559648082582068e-07,-2.3862884026496433e-07,4.263890590199271e-05
13.904,-1.763970059558177e-05,0.0012428942184119277,1.5881517150050047e-05,-0.001127729918094235,8.179183687737243e-05,-0.00011707123806853597,-5.397719212124848e-07,-2.3170545456039332e-07,4.1388377473117194e-05
13.938,-1.7645130892194545e-05,0.0012429994038538656,-1.630719703535958e-07,3.1587219801163404e-06,8.17948214161147e-05,-0.0001170850832005038,-5.399284936571842e-07,-2.3179913187531895e-07,4.139188014833373e-05
13.972,-0.04464508996984512,-0.13264459054576352,-1.3401635086772647,-4.020648346835356,-0.0552566572135062,-0.03403352272618403,-0.0013673868587653379,-0.0005834993191745149,-0.004417064865173926
14.005,-0.07702577016462736,-0.12874455133860485,-0.9723927986421093,0.11711829450926946,-0.08732533427171575,-0.06672620605753897,-0.0023634992574958083,-0.000996429363357665,-0.004287193559575542
14.038,-0.11038919883733053,-0.12874501934252275,-1.001904764946041,-1.405417170862621e-05,-0.12068880038473234,-0.10008959728992871,-0.003393331357018943,-0.0014134942122350214,-0.004287209144106008
14.072,-0.14776842488724118,-0.13264389157449424,-1.1224992807780974,-0.1170832502093542,-0.15837993621320073,-0.13715691356128165,-0.004550549214687229,-0.0018723349784108717,-0.004417041589430659
14.104,-0.14916996646717534,-0.11321993024123563,-0.04208833573375863,0.5833021421398984,-0.15822756088647422,-0.1401123720478765,-0.0046014097348156605,-0.001871273212226131,-0.0037702236770331466
14.138,-0.1491699753599696,-0.11321846071213462,-2.6705087840783435e-07,4.413000303312505e-05,-0.15822745221694037,-0.14011249850299884,-0.0046084323625850306,-0.0018539118330318423,-0.003770174741714083
14.171,-0.15716212755691972,-0.15464811440520648,-0.24000457047898272,-1.2441337445366925,-0.16953397670933623,-0.1447902784045032,-0.004864001175539811,-0.0019315647080290397,-0.005149782209693377
14.204,-0.15253301972544023,-0.15002105352394773,0.13901224719157626,0.13895077721497742,-0.16453470400735606,-0.14053133544352442,-0.004730184451536643,-0.001850700764048811,-0.00499570108234746
14.237,-0.15252961878894955,-0.1499743034221379,0.00010213022494526418,0.001403906961255935,-0.16452756306272062,-0.14053167451517853,-0.004739263845396627,-0.0018270101344176977,-0.004994144303957193
14.272,-0.12471149998611165,-0.4683719071527227,0.835378943028165,-9.561489601519062,-0.16218125255832946,-0.08724174741389383,-0.0038900625200171467,-0.001453816985820266,-0.015596784508185668
14.305,-0.12100126400061778,-0.45518634290783905,0.11141849806287907,0.39596289023674625,-0.1574161714332449,-0.08458635656799066,-0.0037955766685315597,-0.0013523625961845325,-0.015157705218831042
14.337,-0.12099922389879496,-0.45539338101959886,6.12643190036868e-05,-0.006217360713507997,-0.15743069438036286,-0.08456775341722705,-0.003815578674555814,-0.0012946422204398562,-0.015164599587952644
14.371,-0.11370316162725945,-0.13302942425615144,0.2191009691151804,9.680599302205627,-0.12434551556775157,-0.10306080768676734,-0.0035972836600537397,-0.0011814018118372343,-0.004429879827729843
14.405,-0.07669557535691597,-0.12873819715001014,1.1113389270373415,0.12886567886310205,-0.08699463112891678,-0.06639651958491517,-0.002429906422130251,-0.0007863015042339864,-0.004286981965095338
14.437,-0.04333217561807857,-0.12873913684010965,1.0019038960611832,-2.821892190722734e-05,-0.05363130656528734,-0.033033044670869795,-0.0013747628930489322,-0.0004383623383354566,-0.004287013256775652
14.472,-0.010611094103270711,-0.13263892576309455,0.9826150605047403,-0.11711077846801494,-0.021222208164318277,1.9957776852574135e-08,-0.0003371130670134002,-0.00010587917321014777,-0.004416876227911049
14.505,0.02339484144048018,-0.12873710676457453,1.0211992655781048,0.11717174169729783,0.013095872899314217,0.033693809981646144,0.000744259934608961,0.00023020067177265208,-0.0042869456552603324
14.538,0.05675831720040716,-0.12873760581536522,1.001906178976786,-1.4986510230994706e-05,0.04645930873517794,0.06705732566563638,0.0018080295910329236,0.0005507449036998214,-0.004286962273651662
14.572,0.09251235609102504,-0.13263781972441846,1.0736948615801165,-0.11712354081240944,0.08190133051307157,0.10312338166897853,0.0029508488893829625,0.0008848448570699188,-0.004416839396823135
14.605,0.11784450343508307,-0.35733509211315506,0.760725145467208,-6.747665837499597,0.08925769606603066,0.14643131080413546,0.003767914425304973,0.0010964292980955646,-0.011899258567368065
14.637,0.1178444921008086,-0.35733691253592054,-3.403686025052835e-07,-5.466735031456471e-05,0.08925753909793496,0.14643144510368225,0.0037806937303681357,0.0010515171302616362,-0.011899319187446154
14.671,0.13004570447770777,-0.3248382790793737,0.36640277408105604,0.9759349386350405,0.10405864215135788,0.15603276680405764,0.004185048541879144,0.001112926897739258,-0.010817114693343144
14.701,0.12621613513703567,-0.31534181132795575,-0.11500208230246566,0.28517921175429234,0.10098879023079921,0.15144348004327213,0.0040730913094234105,0.0010367985165204497,-0.010500882317220928
14.738,0.12620411864335881,-0.31549252680504336,-0.0003608556659715609,-0.0045259903029313845,0.10096471649895535,0.15144352078776227,0.00408336752322558,0.0009938662045441554,-0.010505901142607944
14.771,0.058478117763108815,-0.13264258115257915,-2.0338138402477473,5.490989358932858,0.04786671127090249,0.06908952425531514,0.0018954655304378478,0.0004463906214539348,-0.004416997952380887
14.805,0.023064527862470215,-0.12874401951302228,-1.0634711681873452,0.11707392310981604,0.012765006301428435,0.033364049423511996,0.0007483553725198379,0.00017280699641503887,-0.004287175849783643
14.838000000000001,-0.010298895892982598,-0.12874553756288226,-1.0019046172808652,-4.558708288237722e-05,-0.02059853889801318,7.471120479831452e-07,-0.0003344873690155382,-7.572938665710681e-05,-0.004287226400843979
14.872,-0.04464519655547057,-0.13264465295208186,-1.031420440314954,-0.11709055222821614,-0.05525676879163712,-0.03403362431930402,-0.0014514008800909344,-0.00032196943275068676,-0.004417066943304326
14.905,-0.0770258649536021,-0.128738744627975,-0.9723924443883342,0.11729454426747345,-0.08732496452384012,-0.0667267653833641,-0.0025064798312629403,-0.0005445872429210669,-0.004287000196111568
14.937,-0.11038932071780781,-0.1287394863701162,-1.001905578504676,-2.2274538775019398e-05,-0.1206884796274171,-0.10009016180819852,-0.0035954647633436696,-0.0007650663778423398,-0.00428702489612487
14.972,-0.0797093572108343,-0.13275373820829725,0.9213202254346399,-0.12054810324868014,-0.09032965626749809,-0.06908905815417052,-0.002598575329274403,-0.0005411265236559907,-0.004420699482336299
15.005,-0.043665248800601235,-0.12877553908137102,1.0824056579649568,0.11946543924703408,-0.05396729192711092,-0.03336320567409156,-0.00142479202855204,-0.0002902308343321283,-0.004288225451409655
15.038,-0.010299830571235631,-0.12875160398974864,1.0019645113923603,0.0007187715201915632,-0.02059995889041552,2.977479442580335e-07,-0.00033637273759838903,-6.701843810400263e-05,-0.00428742841285863
15.071,0.02342287064948643,-0.13263493277017527,1.0126937303520136,-0.11661647989269162,0.01281207602787241,0.034033665271100445,0.0007656020951602538,0.00014907624805960023,-0.0044167432612468365
15.105,0.046360017882776106,-0.2545904558610141,0.6888032202189092,-3.66232802074591,0.025992781413894977,0.06672725435165723,0.0015171953205050492,0.00028528461639656694,-0.008477862180171769
15.138,0.12217992199572508,-1.2029421486004324,2.276873997385855,-28.47902981199454,0.0259445501076905,0.21841529388375966,0.0040153162879077876,0.0006545668028776318,-0.0400579735483944
15.172,0.04777216022955929,0.16321615571316564,-2.2344673203052787,41.02577490431225,0.06082945268661254,0.034714867772506035,0.0015742808950100085,0.00022873397224698443,0.0054350979852484166
15.205,0.08006093299952353,0.15841552537616782,0.9696328159148421,-0.14416307318311766,0.09273417502961698,0.0673876909694301,0.002636232724689288,0.00039745633039584005,0.0052752369950263885
15.237,0.1068924172512882,0.07676575751269188,0.8057502778307707,-2.451944980885163,0.11303367785230356,0.10075115665027284,0.0035176334578431376,0.0005444380130707469,0.00255629972517264
15.271,0.13004239538284937,-0.18121375280860313,0.6951945384853202,-7.747132442080931,0.11554529515816113,0.14453949560753762,0.004280596853202795,0.0006549043754739647,-0.006034417968526485
15.305,0.12620478064085497,-0.17604283426736828,-0.11524368594577776,0.1552828390761219,0.11212135389946552,0.14028820738224446,0.004157981804884584,0.0006108558182974172,-0.005862226381103364
15.337,0.1262070737532591,-0.17601376720612982,6.886223435820138e-05,0.0008728847218754499,0.1121259723767687,0.14028817512974948,0.004161566645186678,0.0005864831014378713,-0.0058612584479641235
15.372,0.07610142846746572,0.07913519812870058,-1.5046740326064076,7.662131091136047,0.08243224431776176,0.06977061261716967,0.002509947340387768,0.00034959487708115553,0.0026352020976857294
15.405,0.040165389165115646,0.07675802141514552,-1.0791603394099119,-0.07138668809474645,0.046306030878327284,0.034024747451904,0.001324235683624213,0.00018794968383627968,0.0025560421131243464
15.437,0.006801895730768259,0.07675793517117459,-1.0019067097401617,-2.5899090371483134e-06,0.012942530544462228,0.0006612609170742912,0.00022417350189307727,3.240185235198322e-05,0.002556039241200114
15.471,0.04103203355043341,0.07921891909950524,1.027932066656611,0.07390342127119064,0.047369547078393824,0.03469452002247299,0.0013518011845026336,0.00019897356822242668,0.0026379900060135245
15.505,0.07352884155422879,0.0767649156842811,0.9758801202340953,-0.07369379625297726,0.07967003480897127,0.0673876482994863,0.0024214750354614855,0.0003628480167066992,0.0025562716922865607
15.538,0.09771279637286043,-0.03798063069566388,0.7262448894483976,-3.4458122036019505,0.09467434591720733,0.10075124682851354,0.0032175972867598697,0.0004842682930359719,-0.0012647550021656073
15.572,0.12525146481504698,-0.15733698343725544,0.8269870403059024,-3.5842748571048513,0.11266450614006654,0.13783842349002742,0.004126414103505599,0.0006073342792800399,-0.005239321548460607
15.605,0.12764969894619144,-0.22833223309523004,0.07201904297731097,-2.1319894792184564,0.10938312029857303,0.14591627759380985,0.004209306564079628,0.0005919451211733533,-0.007603463362071161
15.638,0.12767223588270032,-0.22828446057506208,0.0006767848801467832,0.0014346102152542261,0.10940947903669535,0.14593499272870528,0.004214429176364835,0.0005600252192989383,-0.007601872537149568
15.672,0.12756190909719978,-0.23750675837497737,-0.0033131166816981203,-0.27694587987733604,0.10856136842720158,0.14656244976719796,0.004214999284287306,0.0005268682341414612,-0.007908975053886748
15.704,0.12383309964160816,-0.2305827596331569,-0.11197625992767625,0.20792789014475915,0.1053864788709556,0.1422797204122607,0.004095651596934977,0.00047956187697046894,-0.007678405895784125
15.738,0.12384616520048922,-0.2307752257284123,0.00039235912555733005,-0.0057797626202827895,0.10538414714221622,0.14230818325876218,0.00409964702142749,0.0004481341130706234,-0.0076848150167561306
15.772,0.15928355711829867,-0.1573613131394063,1.0641859434777612,2.20462199966985,0.14669465206714616,0.17187246216945115,0.005276343232450424,0.00054227748205739,-0.00524013172754223
15.805,0.1880120102102756,-0.1562385591917232,0.8627163090683765,0.033716334765258336,0.17551292547493774,0.20051109494561348,0.0062312441821529944,0.0006075552753935148,-0.005202744021084383
15.837,0.21801694917193906,-0.5313058801726414,0.9010492180679714,-11.263282912339884,0.17551247875812775,0.26052141958575037,0.0072331970408112,0.0006217466511047328,-0.01769248580974896
15.872,0.22462350051854846,-0.6398973032555001,0.1983949353336155,-3.2610036961819437,0.17343171625810846,0.2758152847789885,0.007463414300199826,0.0004951464381420036,-0.021308580198408155
15.905,0.21801711216135602,-0.6210760282688744,-0.1983900407565295,0.5652034530518218,0.16833102989984605,0.26770319442286594,0.0072524089396609,0.0003284019864545974,-0.02068183174135352
15.937,0.21801721620134817,-0.6210753072887399,3.1243240885661217e-06,2.165105508958512e-05,0.16833119161824897,0.26770324078444735,0.007257652860929886,0.00017834951749138555,-0.02068180773271504
15.972,0.15964452147156957,-0.1613620701437564,-1.7529337756690269,13.805202316666172,0.14673555586006906,0.1725534870830701,0.005315802102874581,6.135487786219859e-05,-0.005373356935787089
16.004,0.1471485624207508,-0.47953015224550927,-0.37525402555011306,-9.554597060112696,0.10878615024111006,0.18551097460039154,0.004899993211148541,4.265990601488715e-06,-0.01596835406977546
16.038,0.1805620179607411,-0.4801513544028726,1.0034070732729814,-0.018654719440340296,0.1421499096085113,0.2189741263129709,0.0060119649569492315,-9.083619358587686e-05,-0.01598904010161566
16.071,0.21946028860426064,-0.5022892848979846,1.1681162355411276,-0.6648027175709319,0.17927714581242185,0.2596434313960994,0.0073043249534464295,-0.0002299117443397069,-0.01672623318710289
16.104,0.2180074631253373,-0.5502759181833267,-0.043628392760460544,-1.4410400385988595,0.17398538967067115,0.26202953658000344,0.007250836836388962,-0.00035550972851383834,-0.01832418807550478
16.138,0.21801568008905328,-0.5503816349199466,0.0002467556671463504,-0.003174676775374329,0.17398514929545753,0.26204621088264896,0.007243377582729799,-0.000488339458871947,-0.018327708442834226
16.172,0.21003624820174752,-0.6414307061776617,-0.23962257919837132,-2.7342063440755284,0.1587217917075346,0.2613507046959605,0.006967524062431668,-0.0006088358258000026,-0.021359642515716138
16.204,0.20388940628354216,-0.6227864480233474,-0.1845898473935543,0.5598876322616926,0.15406649044167436,0.25371232212540995,0.006749684607791834,-0.0007332460177426319,-0.02073878871917747
16.237,0.2039179472525395,-0.6229070897687639,0.0008570861560765209,-0.003622875237732228,0.15408538007103836,0.2537505144340406,0.006733968310835167,-0.000873194322203568,-0.020742806089299837
16.272,0.18544453343732797,-0.5020711055284667,-0.5547571716279739,3.628708235444359,0.14527884499505064,0.22561022187960528,0.006108013025949016,-0.0009086557570437704,-0.016718967814097943
16.305,0.14628255655731623,-0.487572468128317,-1.1760353417420943,0.43539451652101113,0.10727675910705088,0.18528835400758162,0.0048056684899172855,-0.0007960574884060607,-0.016236163188672957
16.338,0.11010387821757481,-0.9398094567890496,-1.0864467969892317,-13.580690350172148,0.03491912167445083,0.1852886347606988,0.003601760534147179,-0.0006849427444039893,-0.03129565491107535
16.371,0.1743881467661849,-0.5065300382890946,1.9304585149732756,13.011393948947596,0.13386574370305732,0.21491054982931243,0.005677040371101825,-0.0012219317474156085,-0.01686745027502685
16.405,0.1330800929083608,-0.943876053867059,-1.2404820978325555,-13.13351398132025,0.05757000859899607,0.20859017721772552,0.004308389757227499,-0.001036796931436375,-0.03143107259377307
16.437,0.13302976560525778,-0.9432451992500454,-0.001511330423513628,0.018944583093502127,0.057570149665254165,0.20848938154526142,0.004272075849241154,-0.0011711919509780446,-0.03141006513502651
16.472,0.2084218144708369,-0.5065266174296311,2.2640254914588325,13.114672126739165,0.1678996850764664,0.24894394386520738,0.006647148018492578,-0.0019960154589120306,-0.01686733636040672
16.505,0.19118923633240467,-0.7740188623535194,-0.517494838991959,-8.03280014786451,0.12926772734412312,0.2531107453206862,0.006057036130173199,-0.001960531790728174,-0.025774828116372196
16.538,0.1719405865014842,-1.014147950347483,-0.5780375324600744,-7.211083723542453,0.09080875047368554,0.25307242252928286,0.005392215166691578,-0.0019244848476103159,-0.03377112674657119
16.571,0.1751383739790057,-1.1712142887143717,0.09602965397962468,-4.716706857864524,0.08144123088185597,0.2688355170761554,0.005417467833248934,-0.0021587526451385037,-0.03900143581418858
16.604,0.1699956413622559,-1.1371523128509138,-0.15443641491741142,1.0228821580618,0.07902345633418277,0.260967826390329,0.005174011685356411,-0.002295877125336189,-0.037867172017935435
16.637,0.17002029179157505,-1.1374611724052524,0.0007402531327072292,-0.009275061691848939,0.07902339799915484,0.2610171855839952,0.005084109113965092,-0.0024904967828341972,-0.03787745704109491
16.672,0.1626455698336009,-1.101077249013603,-0.2214631218610854,1.092610312061544,0.07455938991251267,0.25073174975468915,0.004771445224024638,-0.00256205700960744,-0.03666587239215298
16.705,0.157896366741466,-1.0692472919459002,-0.14261871147552221,0.9558545665976802,0.07235658338579401,0.24343615009713804,0.0045392516053553164,-0.002652979841973867,-0.03560593482179848
16.738,0.1578663037261474,-1.0687794605975327,-0.000902793252810941,0.014048989440464732,0.07236394687834477,0.24336866057395,0.004441109028552015,-0.002812318437647065,-0.03559035603789784
16.771,0.14413867321570653,-0.9888068857270355,-0.4122411564696959,2.401578824939857,0.0650341223575437,0.22324322407386937,0.003964621473689694,-0.0027051702749853698,-0.032927269294710286
16.805,0.13986896474123986,-0.96010366422668,-0.12821947370770784,0.8619586036142769,0.06306067160310544,0.21667725787937428,0.003759999159669037,-0.0027484789440105936,-0.031971452018748445
16.838,0.13985237977387205,-0.9598233183991827,-0.0004980470681024293,0.008418793618539446,0.06306651430193742,0.21663824524580663,0.0036697980208299646,-0.0028669094616006435,-0.03196211650269279
16.871,0.1432941828173521,-0.9529650724727567,0.10335744875315453,0.20595333112390152,0.06705697701953156,0.21953138861517263,0.0036646718025287735,-0.0030557086484602706,-0.0317337369133428
16.904,0.13907558334746065,-0.9250869523726021,-0.12668466876550896,0.8371807837884284,0.06506862715765249,0.2130825395372688,0.003462330469943024,-0.003075506761148448,-0.03080539551400765
16.938,0.13909410077682222,-0.9253118169438697,0.0005560789598068993,-0.006752689827855257,0.06506915542131265,0.2131190461323318,0.0033663967446750055,-0.0031811252223668198,-0.03081288350423086
16.971,0.12101287664483099,-0.7775856833265016,-0.5429797036634002,4.436220228749792,0.058806021978710855,0.18321973131095112,0.0028491855662233596,-0.0028495523261488688,-0.025893603254772506
17.005,0.11740565199911464,-0.7548727905396483,-0.10832506443592635,0.6820688524580567,0.057015828755942785,0.1777954752422865,0.00269282729256394,-0.00283423935045973,-0.02513726392497029
17.037,0.11742753605539835,-0.7550453678823309,0.0006571788673787865,-0.0051825027832616095,0.05702390662481189,0.17783116548598485,0.0026212191718339006,-0.0029015753665613824,-0.02514301075048162
17.072,0.12103307005179709,-0.7112563836400161,0.1082742941861482,1.3149845117812253,0.06413255936059581,0.17793358074299837,0.0026278979823332934,-0.003055736724697825,-0.023684837575212538
17.105,0.11748816808682214,-0.6905497846120677,-0.10645351246171021,0.6218197906290798,0.06224418531785672,0.17273215085578755,0.002481012861198957,-0.0030249677942813698,-0.022995307827581857
17.138,0.11750997844373084,-0.6907003745788685,0.0006549656729341749,-0.004522221225247126,0.06225394847742136,0.17276600841004033,0.00241124278278622,-0.0030817926875652164,-0.02300032247347632
17.172,0.13192964261657922,-0.5363787412999718,0.4330229481335847,4.634283281648549,0.08901934331258146,0.17483994192057695,0.0026358997011967193,-0.0035145735992138066,-0.01786141208528906
17.205,0.12805103063936998,-0.5210170769396518,-0.11647483415042745,0.46131124205164975,0.08636966448419782,0.1697323967945421,0.0024979579141578374,-0.0034557623140205967,-0.017349868662090408
17.238,0.17314672804452466,-0.7733208941799495,1.3542251473019422,-7.576691208417348,0.1112810565101287,0.23501239957892064,0.003276135382957133,-0.004744406027167615,-0.025751585776192323
17.272,0.14435989716087472,-0.7967546639545237,-0.8644693959054036,-0.7037168100472708,0.08061952404451285,0.2081002702772366,0.0026271226912838834,-0.004025654520574557,-0.02653193030968564
17.305,0.10999947605338593,-0.5202206146209639,-1.0318444777023659,8.304325805812605,0.06838182688370882,0.15161712522306303,0.0019341114491991448,-0.0031106781479196387,-0.0173233464668781
17.337,0.1067508728437192,-0.7733250595004424,-0.09755565194194386,-7.600734080464818,0.044884868083683804,0.1686168776037546,0.0018115160937728875,-0.003058487055664891,-0.025751724481364733
17.372,0.07595368285238158,-0.7967366506301119,-0.9248405402804091,-0.7030507846747599,0.012214750801972625,0.13969261490279053,0.001231577862555965,-0.0022090687924284907,-0.02653133046598273
17.405,0.04002662143293371,-0.7732957430783578,-1.0788907333167528,0.7039311577103332,-0.021837038013334906,0.10189028087920232,0.0006183764686081634,-0.0011807196021989949,-0.025750748244509316
17.437,0.006663406853503626,-0.7732923359978201,-1.001898335718621,0.00010231473086181525,-0.05519998002632198,0.06852679373332925,9.784872291618731e-05,-0.00019914497635737118,-0.02575063478872741
17.471,-0.027170851036844162,-0.796750700564195,-1.0160437804909244,-0.7044553923836289,-0.09091090708197976,0.03656920500829143,-0.0003776278543806263,0.0008221878926914445,-0.026531798328787694
17.504,-0.06006549003094751,-0.7733158276998012,-0.9878269968199201,0.7037499358676792,-0.1219307562469316,0.0017997761850365903,-0.0007870135954177812,0.001838779982814926,-0.025751417062403383
17.538,-0.09230402805084392,-0.759253249616509,-0.9681242648617541,0.4222996421409085,-0.15304428802016465,-0.031563768081523225,-0.0011369331746683608,0.0028556364857637343,-0.02528313321222975
17.572,-0.0610759368888458,-0.7823741660639224,0.9377805153753189,-0.6943218152376405,-0.1236658701739596,0.0015139963962679897,-0.0007035443740125277,0.0019082061002253456,-0.026053059729928617
17.605,-0.02557903092879602,-0.7592788807048116,1.065973151953447,0.693552112886209,-0.08632134138518097,0.035163279527588916,-0.0002740414445647931,0.0008064705521045666,-0.02528398672747023
17.637,0.007786538005212669,-0.7592479163106058,1.0019690370573178,0.0009298616878619016,-0.05295329529963581,0.06852637131006113,7.718817120269587e-05,-0.0002475289855288179,-0.025282955613143178
17.672,0.04205657814436763,-0.782255366920715,1.029130334509158,-0.6909144327360094,-0.02052385120928956,0.10463700749802483,0.0003824596454098511,-0.0013472079628603696,-0.02604910371845981
17.705,0.07451340210763252,-0.7592468105839305,0.9746793982962427,0.6909476377412747,0.01377365726091809,0.13525314695434695,0.0006161420158481691,-0.002403512499606755,-0.02528291879244489
17.737000000000002,0.09857744219799527,-0.8754876963630388,0.72264384655744,-3.4907172906639126,0.028538426488952155,0.1686164579070384,0.0007282801325694821,-0.0032007025560227536,-0.029153740288889195
17.772,0.12468801675311969,-0.7656324655205211,0.7841013379917241,3.298955881156687,0.06343741951147801,0.1859386139947614,0.0008102356209000938,-0.004072175069508958,-0.025495561101833354
17.805,0.149169891047405,-0.39124659370397114,0.7351914202488079,11.242818973469968,0.11787016355108731,0.18046961854372268,0.0008753255015689217,-0.0048895905248922565,-0.01302851157034224
17.838,0.1491699054434238,-0.3912460299232833,4.323128766881812e-07,1.693035098668691e-05,0.11787022304956112,0.18046958783728645,0.0008115490526259824,-0.004900579877270688,-0.013028492796445334
17.872,0.10618718189981359,-0.7343424580592701,-1.290772478787093,-10.303196040119724,0.04743978525507199,0.1649345785445552,0.0005122195209828232,-0.0034986481094217456,-0.0244536038533737
17.905,0.13123002696475988,-0.36062967556612674,0.7520373893377265,11.222606080875176,0.10237965291946975,0.16008040101005003,0.0005541017072993593,-0.004334661613933856,-0.012008968196352022
17.938,0.13124201572195826,-0.3608552514391045,0.00036002273869002656,-0.006774050239572943,0.10237359560682989,0.16011043583708662,0.0005020377430088727,-0.004341401518402698,-0.01201647987292218
17.972,0.07216165579885181,-0.7339926416922214,-1.7741849826758693,-11.205327034628136,0.013442244463474095,0.13088106713422953,0.0002324765966523965,-0.0023916511305021306,-0.024441954968350978
18.005,0.03634543550927602,-0.7124050778490215,-1.0755621708581318,0.6482751904864843,-0.020646970718645706,0.09333784173719774,8.805004233282193e-05,-0.001207067458863371,-0.023723089092372418
18.037,0.06490593429339207,-0.6523693187024538,0.8576726361596412,1.802875650047077,0.012716388797195763,0.11709547978958836,0.00010822188967943393,-0.0021586139677167936,-0.021723898312791715
18.071,0.11690196921138818,-0.046100328354229565,1.5614424900299129,18.20627598643316,0.11321394294304982,0.12058999547972654,0.00014969490077023414,-0.0038899559473780177,-0.0015351409341958448
18.104,0.1134611306708609,-0.044712197304225314,-0.10332848470051884,0.041685617117244785,0.10988415488652287,0.11703810645519892,0.00013958008264270812,-0.003775676168610998,-0.001488916170230703
18.138,0.11345691677107195,-0.044658957051302295,-0.00012654353720584351,0.0015988063940846507,0.10988420020696778,0.11702963333517613,0.00013395663658307335,-0.0037757394539437304,-0.0014871432698083666
18.172,0.0921562486086866,-0.7492514750710999,-0.6396597045761365,-21.158934475068996,0.03221613060299861,0.1520963666143746,6.825741585973069e-05,-0.003067964264879115,-0.02495007411986763
18.204,0.13806147531178156,-0.12031489154666955,1.378535336429278,18.88698449022313,0.128436283988048,0.1476866666355151,3.570564046569073e-05,-0.004597305398538737,-0.004006485888504096
18.238,0.1380610654285615,-0.12030867636109815,-1.2308805407189636e-05,0.00018664220935121447,0.12843637131967364,0.14768575953744936,1.7286788398416203e-05,-0.0045973979040629664,-0.004006278922824569
18.272,0.12619042526335644,-0.7492524533789571,-0.35647568063678853,-18.887200511046814,0.0662502289930399,0.18613062153367302,-4.503688006852306e-05,-0.004201790810823002,-0.024950106697519275
18.305,0.14853402302544158,-0.631611847716786,0.6709789117743284,3.532750920785917,0.0980050752080987,0.1990629708427845,-0.0001666985911303,-0.0049432818708720775,-0.021032674528968977
18.337,0.21801711804606677,0.23693087107739047,2.0865794300488045,26.082363927753047,0.23697158773225802,0.19906264835987553,-0.0002923584005933362,-0.007254062172506373,0.007889798006877103
18.372,0.11894813097197332,-0.6502142665504737,-2.975044656879683,-26.64099512395988,0.06693098964793542,0.17096527229601122,-0.00018673483638026271,-0.003956491170006805,-0.021652135076130775
18.405,0.1219131490525754,-0.2899717755543839,0.08903958200006247,10.818092822705397,0.09871540700822469,0.14511089109692613,-0.00025484667754052816,-0.004051685211052078,-0.009656060125960986
18.437,0.14374611145749533,-0.015151387581273917,0.655644516664262,8.252864503696996,0.1425340004509934,0.14495822246399723,-0.000324753526161197,-0.0047757164125787725,-0.0005045412064564215
18.472,0.152097695542163,-0.17311671059376268,0.2507983208608906,-4.743703393768431,0.13824835869466198,0.165947032389664,-0.000359459382281054,-0.005052074472039061,-0.005764786462772298
18.505,0.14762628169656794,-0.16805097185275258,-0.13427669205991127,0.15212428651681983,0.13418220394834773,0.16107035944478815,-0.00037674048119412586,-0.004901491495362671,-0.005596097362696661
18.537,0.1476440808345812,-0.1682725552959262,0.0005345086490466216,-0.006654157452660851,0.13418227641090708,0.16110588525825528,-0.00040423046829468883,-0.004899895677639346,-0.005603476091354343
18.571,0.137028683004915,0.04329648288184009,-0.3187807156055914,6.353424569902891,0.1404924016354622,0.1335649643743678,-0.0003846294089263252,-0.004546815243524085,0.0014417728799652751
18.605,0.13302452208493892,0.04172778526149138,-0.12024507267195417,-0.04710803664710843,0.13636274490585823,0.1296862992640196,-0.0003671410266743255,-0.004414475431633776,0.001389535249207663
18.638,0.13303357430925053,0.04161480817283809,0.0002718385679161099,-0.0033927053649637612,0.13636275896307756,0.1297043896554235,-0.00036103947683719523,-0.004415281084249948,0.0013857731121555085
18.672,0.1587712085127454,-0.28947405211189015,0.7729019280328788,-9.942608416958805,0.1356132843437942,0.18192913268169664,-0.0004526297710248544,-0.005267650132242353,-0.009639485935325943
18.705,0.16332094784362208,0.025780305009440396,0.13662880873503555,9.467097811451367,0.1653833722443773,0.16125852344286684,-0.0004893879879682696,-0.005416524001900686,0.0008584841568143653
18.738,0.1843361745787258,0.035337152336287876,0.6310878899430548,0.286992412217642,0.18716314676562884,0.18150920239182278,-0.00054613827519026,-0.0061140507903657635,0.0011767271727983863
18.772,0.1900308524045212,0.035050118289398725,0.17101134611998153,-0.008619641047722245,0.1928348618676731,0.1872268429413693,-0.0005556229740519835,-0.006303587006694788,0.0011671689390369776
18.804,0.1844168722377119,0.034065313767775066,-0.16858799299727648,-0.029573709358067857,0.1871420973391339,0.1816916471362899,-0.0005321684566499776,-0.006117979970788824,0.0011343749484669099
18.838,0.15097376184419345,0.035342465949797036,-1.004297609414968,0.038352918379038155,0.15380115912017722,0.14814636456820968,-0.0004298739455817969,-0.0050090139117299985,0.0011769041161282415
18.872,0.13118330398870207,0.28123138053183816,-0.5943080437084499,7.384051488950183,0.15368181443124915,0.10868479354615501,-0.00035057606837792427,-0.004354297952305067,0.009365004971710212
18.904,0.12733176128052284,0.27304488864445686,-0.11566194318856525,-0.24584059721865756,0.1491753523720794,0.10548817018896631,-0.0003012645872150668,-0.004229416967656547,0.009092394791860414
18.937,0.12734217285321642,0.2731733437073117,0.0003126598406478965,0.003857509395040833,0.14919604034980136,0.10548830535663148,-0.00026280957068649684,-0.0042323279072695435,0.009096672345453482
18.972,0.15159388617754174,-0.3372442295097308,0.7282796794091688,-18.330858054565837,0.12461434781676327,0.17857342453832017,-0.00031823447110427547,-0.005038008975544639,-0.011230232842674038
19.005,0.12356877362917337,-0.08948648922963326,-0.8415949714224735,7.44017238078371,0.11640985449080271,0.13072769276754403,-0.0002885750910695253,-0.0041047072301282714,-0.002979900091346788
19.038,0.12357588884685408,-0.08927054045943511,0.00021367020062188508,0.006484948053998463,0.11643424561009927,0.1307175320836089,-0.0003008079740335219,-0.004104066473610315,-0.0029727089972991895
19.072,0.12190579976170127,-0.04231759497881088,-0.050152825379964405,1.4099983627815083,0.11852039216339641,0.12529120736000615,-0.00030561226975441084,-0.004047942605096846,-0.0014091759127944025
19.105,0.11831351397596807,-0.040954734160294576,-0.10787645002201805,0.040926751306795905,0.1150371352431445,0.12158989270879163,-0.0003020533120889795,-0.003928243976349917,-0.0013637926475378096
19.137,0.11832801418018683,-0.04104530644993881,0.0004354415681311567,-0.0027198885779049923,0.11504438966419171,0.12161163869618194,-0.0003074539391110682,-0.00392830930495423,-0.0013668087047829626
19.172,0.14929500367930415,0.2853454983839341,0.9299396245981175,9.801525670686873,0.17212264355001886,0.12646736380858942,-0.0003677510453807261,-0.004957884663313283,0.009502005096185005
19.204,0.1449197426240412,0.27675308137245025,-0.1313892208787673,-0.25803054088540034,0.1670599891338372,0.12277949611424517,-0.0003119180429688923,-0.004815719331865331,0.009215877609702595
19.238,0.1449344803527974,0.27656958586877567,0.00044257443712339135,-0.005510375485723123,0.16706004722229947,0.12280891348329537,-0.0002675662753492634,-0.004818878600939475,0.00920976720943023
19.271,0.13459182194251906,-0.326280526480946,-0.31059034265100127,-18.103606977469116,0.10848937982404339,0.16069426406099474,-0.00025217596324684344,-0.004474785585921247,-0.010865141531815503
19.305,0.13064118895822488,0.10438068807344608,-0.11863762715598147,12.9327692058376,0.13899164400410058,0.12229073391234921,-0.0002608207715146692,-0.004342523741721683,0.003475876912845755
19.337,0.1284129924916145,0.2876246698136078,-0.06691280680511642,5.50282227447933,0.1514229660767031,0.10540301890652587,-0.00022850647584778092,-0.004270026521002411,0.009577901504793141
19.372,0.13683350952582674,0.10811366443085145,0.2528683794057727,-5.390720882365055,0.14548260268029486,0.12818441637135863,-0.00021350579507631458,-0.004551548551976844,0.003600185025547354
19.405,0.132817242687265,0.10351261900742369,-0.12060861377062276,-0.13816953223506795,0.1410982522078589,0.1245362331666711,-0.0001916708337922531,-0.004418656832924112,0.003446970212947209
19.438,0.13283722527916336,0.10345986894839115,0.000600077834785747,-0.0015840858568328241,0.14111401479503466,0.12456043576329208,-0.0001764691744027941,-0.004419956002453719,0.003445213635981426
19.472,0.17085922082789776,0.10832807002119542,1.141801668130162,0.14619222440853646,0.1795254664295934,0.16219297522620213,-0.00020693144006944802,-0.005685844668596899,0.003607324731705808
19.505,0.19687166052193056,0.13834128172337062,0.7811543451661501,0.90129764871397,0.2079389630598002,0.18580435798406092,-0.00021152643919592347,-0.006552407112783745,0.004606764681388242
19.538,0.218017130303931,0.40266397299307577,0.6349990925525656,7.937618356447601,0.2502302481433771,0.18580401246448497,-0.0001688744045425055,-0.007257951674992156,0.013408710300669424
19.572,0.16880622156711433,0.14256409732584174,-1.4778050671716714,-7.810807077094114,0.18021134935318164,0.15740109378104697,-7.973608732328881e-05,-0.005620676351514364,0.004747384440950531
19.604,0.16819080692675234,0.36553147607744274,-0.018480920130990817,6.695717079627657,0.19743332501294775,0.1389482888405569,-3.206655152182694e-05,-0.005600627496619804,0.012172198153378845
19.638,0.16821208672741841,0.3657945285330345,0.0006390330530352599,0.007899473140894064,0.19747564901006118,0.13894852444477565,3.613518888211707e-05,-0.005601311301558466,0.012180957800150051
19.672,0.13925478205429787,0.37662600151271586,-0.8695887289225389,0.3252694588492896,0.16938486217531512,0.10912470193328058,8.723091260197696e-05,-0.004636333314744213,0.012541645850373439
19.704,0.12471322354601042,0.33785526602120053,-0.43668343868731074,-1.1642863510965564,0.15174164482770647,0.09768480226431439,0.00012751027280304868,-0.0041509704613287715,0.011250580358505978
19.738,0.12474205354678462,0.3382124956721698,0.0008657657890152434,0.010727617146225011,0.15179905320055823,0.09768505389301103,0.00017426699805606514,-0.004150231330318854,0.011262476105883256
19.772,0.1684357228294529,0.4356001850383335,1.3121222006807292,2.9245552362211304,0.20328373763251958,0.13358770802638623,0.00030748635988038454,-0.005600425616773373,0.014505486161776507
19.805,0.15309052211581411,0.3953305546061208,-0.4608168382474111,-1.2092982111775572,0.18471696648430377,0.12146407774732444,0.0003498675584397077,-0.005085857691240538,0.013164507468383825
19.838,0.153069061001242,0.39559630605710216,-0.0006444779150781442,0.007980524053493816,0.18471676548581015,0.12142135651667382,0.00041675216622483327,-0.005080097145338772,0.013173356991701503
19.872,0.1951725243637914,0.5268056770096116,1.264368269145627,3.940221349925207,0.23731697852456035,0.15302807020302248,0.0006307951452702497,-0.006468477456075653,0.017542629044420065
19.905,0.18436137057170535,0.5533789067440015,-0.3246592730356172,0.797994886918616,0.22863168311122545,0.14009105803218522,0.0007056422679157573,-0.006098458177272192,0.01842751759457525
19.937,0.18436119063094292,0.5533810444788805,-5.403626499375988e-06,6.419624261273721e-05,0.22863167418925337,0.14009070707263246,0.0008178949661140346,-0.0060844143017695935,0.018427588781146722
19.971,0.17457944013764853,0.46010806117345476,-0.2937462610598914,-2.8009904896524236,0.21138808503152492,0.13777079524377214,0.0008716128943319496,-0.005747726339714557,0.015321598437076044
20.005,0.16941092575060326,0.4459491554108639,-0.1552106422536117,-0.4251923652429693,0.20508685818347241,0.13373499331773417,0.000929851738184842,-0.00556417131135136,0.01485010687518177
20.038,0.16943915830860123,0.44596989639206064,0.0008478245645036128,0.0006228522881908123,0.2051167500199661,0.1337615665972364,0.0010125453432983694,-0.005550674429985571,0.01485079754985562
20.072,0.22420163218031394,0.589368551789573,1.6445187348862673,4.306265927853225,0.2713511163234798,0.1770521480371481,0.001466192839226078,-0.007320407538863661,0.019625972774592784
20.105,0.21803650013260575,0.7613019217801552,-0.1851391005317774,5.163164263981447,0.2789406538750182,0.15713234639019336,0.0015855834467586917,-0.007085170329623895,0.02535135399527917
20.137,0.21805448279477135,0.7611875738808868,0.0005400198848528483,-0.003433870848902466,0.2789494887052423,0.15715947688430043,0.0017648055224981436,-0.007043285548463753,0.02534754621023353
20.171,0.22472885666048736,0.724892169554234,0.20043164761909937,-1.0899520818814652,0.28272023022482606,0.16673748309614866,0.0019978618322682305,-0.007211668735109417,0.024138909246155995
20.205,0.218157734997766,0.7034703798576861,-0.1973309808625034,-0.6432969878843195,0.2744353653863809,0.16188010460915112,0.0021053773790405566,-0.006952708089788653,0.02342556364926095
