Time,linear_velocity_x,world_velocity_x,world_velocity_y,angular_velocity_yaw,linear_acceleration_x,angular_acceleration_yaw,kinematic_delta_x,kinematic_delta_y,kinematic_delta_yaw
0.135,-1.7191357648349357e-06,1.7191357574617032e-06,-1.5922052453413274e-10,3.1423398557891787e-06,8.661131727588053e-06,7.768982131768871e-05,5.724722071140855e-08,-5.301234469134046e-12,1.0463991719777966e-07
0.169,-6.014945957447141e-06,6.01494593170779e-06,-5.56454492999145e-10,6.9308664693343055e-06,-0.0001290033090874536,0.00011376956797432812,2.0029769939242283e-07,-1.851415337380453e-11,2.307978534288324e-07
0.202,-4.556068831916547e-06,4.556068812517228e-06,-4.2043936691505605e-10,3.971005189338459e-06,4.3810123889807615e-05,-8.888472312299838e-05,1.5171709134258903e-07,-1.3996093823275603e-11,1.322344728049707e-07
0.23500000000000001,-4.071950171321388e-06,4.071950154033055e-06,-3.752258778344769e-10,8.592957946797419e-06,1.4538097915770536e-05,0.00013879738010387266,1.3559594018323516e-07,-1.2480719053494423e-11,2.8614549962835406e-07
0.269,9.330090326517623e-06,-9.33009028715037e-06,8.570881378456113e-10,-8.266471217854042e-05,0.0004024636786137841,-0.0027404705743344694,-3.106920065238653e-07,2.8980152485832907e-11,-2.752734915545396e-06
0.30100000000000005,1.1024871755187175e-05,-1.102487170583931e-05,1.0431240393372021e-09,-1.1271456653413167e-05,5.089433719728383e-05,0.002143941607361178,-3.671282278237885e-07,3.4818543084985087e-11,-3.753395065586585e-07
0.333,3.2665178938116865e-07,-3.2665178790743587e-07,3.102893616663548e-11,2.968807798696892e-06,-0.0003212678668410212,0.00042763556913243415,-1.0877504525726107e-08,1.0331305302582613e-12,9.886129969660651e-08
0.36700000000000005,-6.895303871422774e-08,6.895303840378418e-08,-6.5430920343070765e-12,7.342272515201368e-06,-1.1880024867729618e-05,0.00013133527677190618,2.2961361769357e-09,-2.1768905505577136e-13,2.444976747562056e-07
0.402,-6.046383501986715e-08,6.046383474904508e-08,-5.722751215254474e-12,7.788878592146546e-06,2.549310418726904e-07,1.3411593902257606e-05,2.013445698626019e-09,-1.903806340112552e-13,2.5936965711848e-07
0.43200000000000005,-4.978882751528442e-08,4.978882729349709e-08,-4.699474662543402e-12,7.96854025557086e-06,3.205707959334152e-07,5.395245147877274e-06,1.6579679502410677e-09,-1.5633408695399366e-13,2.6535239051050963e-07
0.468,-4.191231578015174e-08,4.191231559449907e-08,-3.9449038622499205e-12,8.301046426816182e-06,2.365318839379183e-07,9.985170307667332e-06,1.3956801098706887e-09,-1.3122392918135782e-13,2.7642484601297886e-07
0.503,-3.2837669080406465e-08,3.283766893580351e-08,-3.0816956997755683e-12,8.113440931113246e-06,2.7251191290526344e-07,-5.633798669757823e-06,1.093494375437475e-09,-1.02512992248079e-13,2.7017758300607113e-07
0.535,-2.5954818874710822e-08,2.595481876107411e-08,-2.428752854333367e-12,8.149981774037248e-06,2.066921983692385e-07,1.0973226103303936e-06,8.642954650876488e-10,-8.079215694573984e-14,2.713943930754404e-07
0.5690000000000001,-2.0086676106206456e-08,2.008667601877133e-08,-1.874183047481569e-12,8.418944427487702e-06,1.7622050355868967e-07,8.076956560073669e-06,6.688863119348035e-10,-6.234142306444801e-14,2.8035084943534047e-07
0.6030000000000001,-1.3289301631107552e-08,1.3289301573607761e-08,-1.236229798918595e-12,8.178432279252248e-06,2.0412535961257967e-07,-7.222587034097694e-06,4.4253374239620847e-10,-4.112272857923552e-14,2.723417948990999e-07
0.634,-7.17308718929312e-09,7.17308715843826e-09,-6.653188640515515e-13,8.171830551579233e-06,1.8367010335779075e-07,-1.9825008027072673e-07,2.3886380241715897e-10,-2.2131374336391013e-14,2.721219573675885e-07
0.669,-7.256864178650483e-10,7.256864147618152e-10,-6.71114603243162e-14,8.397859714933215e-06,1.9361563878162375e-07,6.787662563182639e-06,2.4165357621392304e-11,-2.2323139006286625e-15,2.796487285072761e-07
0.7020000000000001,6.303126589238225e-09,-6.3031265624471004e-09,5.811503154124362e-13,8.114252850213735e-06,2.1107546567877697e-07,-8.516722664248636e-06,-2.0989411460899807e-10,1.9331699162275512e-14,2.702046199121174e-07
0.7360000000000001,1.4058359201487009e-08,-1.405835914208238e-08,1.2923866434177363e-12,8.06037089025886e-06,2.3288986823569921e-07,-1.618076875521809e-06,-4.681433597647183e-10,4.299104736056539e-14,2.6841035064562006e-07
0.77,2.3907670637997953e-08,-2.3907670537563397e-08,2.1914179559693755e-12,8.225711961423612e-06,2.9577511821354187e-07,4.96519733227485e-06,-7.961254291017541e-10,7.289470698833866e-14,2.739162083154063e-07
0.8,3.414633664911131e-08,-3.414633650652084e-08,3.120558348419844e-12,7.879785140201518e-06,3.0746744778118195e-07,-1.0388192829492307e-05,-1.1370730055566693e-09,1.0380805009926257e-13,2.6239684516871055e-07
0.8340000000000001,4.7370614338033926e-08,-4.737061414135497e-08,4.316666001918306e-12,7.742691126882722e-06,3.9712545612380217e-07,-4.116937336900787e-06,-1.5774414521429197e-09,1.4359947046468196e-13,2.5783161452519463e-07
0.8700000000000001,6.613930752424239e-08,-6.613930725118909e-08,6.009917801125584e-12,7.78657172573694e-06,5.6362442000626e-07,1.3177357013278726e-06,-2.2024389301629443e-09,1.9992524643243481e-13,2.592928384670401e-07
0.899,8.559676547139208e-08,-8.55967651200234e-08,7.755774990558156e-12,7.31222950057876e-06,5.843080464609517e-07,-1.4244511266011411e-05,-2.850372278518666e-09,2.580260773976983e-13,2.434972423692727e-07
0.928,1.1262073467993321e-07,-1.1262073422011443e-07,1.0176947299304736e-11,6.993833097242026e-06,8.115306068630972e-07,-9.561453553655666e-06,-3.750270451165632e-09,3.385960063947441e-13,2.3289464213815948e-07
0.9700000000000001,1.521546362377603e-07,-1.5215463561972676e-07,1.3713983401471995e-11,6.772331689936033e-06,1.1872042509857983e-06,-6.6516939130928895e-06,-5.066749362055929e-09,4.562887484218347e-13,2.2551864527486993e-07
1.001,1.9164779925191272e-07,-1.916477984773534e-07,1.7230356275685915e-11,6.039236988875675e-06,1.1859808712958683e-06,-2.201485588769843e-05,-6.381871692326764e-09,5.733691359539247e-13,2.0110659172955999e-07
1.035,2.439071457717847e-07,-2.439071447904203e-07,2.1879752628901163e-11,5.399876568913076e-06,1.5693497453415007e-06,-1.9200012611489445e-05,-8.12210792105827e-09,7.281695135267737e-13,1.7981588974480546e-07
1.069,3.1333984740200713e-07,-3.133398461463284e-07,2.80518873281623e-11,4.801071989918275e-06,2.0850661150216944e-06,-1.798211948933338e-05,-1.0434216867655477e-08,9.336748388528177e-13,1.5987569726427858e-07
1.101,-3.822790502648499e-06,3.822790487383707e-06,-3.4162582584511575e-10,5.625777589525392e-05,-0.0001242081186201353,0.0015452463635235929,1.2729892324004235e-07,-1.1261602531418376e-11,1.8733839373119559e-06
1.135,2.516270133198043e-07,-2.516270123567168e-07,2.201539573104156e-11,5.3378134590065185e-06,0.0001223548803594085,-0.0015291280010885104,-8.379179514918918e-09,7.326786269409884e-13,1.777491881849171e-07
1.17,2.046739724650699e-07,-2.046739716848722e-07,1.787099123620754e-11,6.191549693866731e-06,-1.4100012268689002e-06,2.5637724770576954e-05,-6.81564325879704e-09,5.946565915883266e-13,2.0617860480576217e-07
1.203,1.5470391302342457e-07,-1.5470391243648971e-07,1.3475987343484793e-11,6.567463401936329e-06,-1.5006023856349947e-06,1.1288699942029955e-05,-5.1516402799830505e-09,4.483748292449525e-13,2.1869653128447976e-07
1.235,1.20315189322938e-07,-1.203151888687605e-07,1.0454133240662813e-11,7.005107436061895e-06,-1.032694405420017e-06,1.3142463487254233e-05,-4.006495786878686e-09,3.4780511141152954e-13,2.332700776208611e-07
1.268,9.60628423254158e-08,-9.60628419647329e-08,8.324449019612407e-12,7.573578663110357e-06,-7.282987086343004e-07,1.707120801947335e-05,-3.198892639421629e-09,2.7691842127263575e-13,2.5220016948157494e-07
1.302,7.24298136982564e-08,-7.242981342788801e-08,6.2582317499043975e-12,7.617583196360876e-06,-7.097005593741561e-07,1.321457454970529e-06,-2.4119127885924807e-09,2.081822649842157e-13,2.536655204388172e-07
1.329,5.66749554994308e-08,-5.667495528911302e-08,4.88257116729061e-12,7.820563681133545e-06,-4.7311886482959767e-07,6.095510053233299e-06,-1.887276011544908e-09,1.6241434573593826e-13,2.604247705817471e-07
1.365,4.564293551720663e-08,-4.564293534885059e-08,3.920271471617161e-12,8.222755524526495e-06,-3.312918913580831e-07,1.2077833134923419e-05,-1.5199097480541384e-09,1.303927210133912e-13,2.7381775896673233e-07
1.4020000000000001,3.4638449226027e-08,-3.463844909907484e-08,2.965611584246254e-12,8.10692674252528e-06,-3.3046505378917813e-07,-3.4783418018382845e-06,-1.153460354866585e-09,9.864178074279175e-14,2.699606605260918e-07
1.4340000000000002,2.7128207228158442e-08,-2.7128207129357826e-08,2.31528983072023e-12,8.205590277824985e-06,-2.2553279272878548e-07,2.9628689279190626e-06,-9.033692978006675e-10,7.700936459158399e-14,2.7324615625157204e-07
1.47,2.1680896357513635e-08,-2.168089627905686e-08,1.8444582395760684e-12,8.537260039050005e-06,-1.6358290902837256e-07,9.96005288964026e-06,-7.219738462964076e-10,6.134426301845993e-14,2.842907593003652e-07
1.5,1.6133957393306872e-08,-1.6133957335312395e-08,1.3679769339958297e-12,8.351727002168202e-06,-1.6657474366987277e-07,-5.571562669123237e-06,-5.372607789810302e-10,4.549896364336016e-14,2.7811250917220115e-07
1.5350000000000001,1.2191840410108268e-08,-1.2191840366570986e-08,1.0303393393168774e-12,8.404856075381158e-06,-1.1838189138734546e-07,1.5954676640527395e-06,-4.0598828396877014e-10,3.426843803764619e-14,2.7988170731019256e-07
1.569,9.166158242834143e-09,-9.166158210318076e-09,7.720717854077466e-13,8.70574911209392e-06,-9.086132634456828e-08,9.03582692831119e-06,-3.0523306849403546e-10,2.567700641039992e-14,2.8990144543272756e-07
1.6030000000000002,6.15838063227446e-09,-6.158380610578316e-09,5.1693929422229e-13,8.487337829540594e-06,-9.032365196875924e-08,-6.558897373973763e-06,-2.0507407425349238e-10,1.7192714602374952e-14,2.826283497237018e-07
1.635,3.8980918593118045e-09,-3.898091845671042e-09,3.2610717283601625e-13,8.518739171527669e-06,-6.787653972860827e-08,9.429832428550905e-07,-1.2980645850262513e-10,1.0845771401801015e-14,2.836740144118714e-07
1.669,2.019108444003778e-09,-2.0191084369860596e-09,1.6834211850546587e-13,8.804933046432802e-06,-5.642592838762842e-08,8.594410657811825e-06,-6.723631099680321e-11,5.598415097938072e-15,2.9320427044621233e-07
1.702,3.103776295027663e-10,-3.1037762843157576e-10,2.5786569712869744e-14,8.569393380083084e-06,-5.131323767270305e-08,-7.0732632537452875e-06,-1.0335575022439098e-11,8.576032931314042e-16,2.853607995567667e-07
1.735,-1.0813126170237328e-09,1.0813126133174452e-09,-8.952826848425603e-14,8.58939413838988e-06,-4.179249989569066e-08,6.006233725764687e-07,3.6007710034267756e-11,-2.97747340265955e-15,2.8602682480838304e-07
1.768,-2.368911833461429e-09,2.368911825397793e-09,-1.9545865257283855e-13,8.867928148060399e-06,-3.8666643136267153e-08,8.364384674790331e-06,7.888476377608669e-11,-6.500011217187946e-15,2.9530200733041133e-07
1.798,-3.3551825182029344e-09,3.3551825068636953e-09,-2.7584494522680864e-13,8.622651267172495e-06,-2.9617738280525685e-08,-7.365672098735855e-06,1.117275774082575e-10,-9.173731061493384e-15,2.871342871968441e-07
1.8330000000000002,-4.261811724347296e-09,4.261811710044427e-09,-3.491593787510704e-13,8.636164385224454e-06,-2.7226102286617465e-08,4.0579934089967005e-07,1.4191833001694998e-10,-1.1611828623618528e-14,2.8758427402797435e-07
1.87,-5.221697788874427e-09,5.221697771472942e-09,-4.2629872080372056e-13,8.91040458984372e-06,-2.8825407343157094e-08,8.235441580158144e-06,1.7388253572331379e-10,-1.4176395594149642e-14,2.967164728417959e-07
1.9020000000000001,-5.7777450891723236e-09,5.777745070057496e-09,-4.699799971395023e-13,8.65918105837647e-06,-1.6698117126062947e-08,-7.544250194211704e-06,1.923989107197682e-10,-1.562973447522766e-14,2.883507292439365e-07
1.935,-6.3956028061100355e-09,6.3956027851008615e-09,-5.183943146054409e-13,8.668747700149485e-06,-1.8554285793925282e-08,2.8728653973016317e-07,2.129735726187424e-10,-1.7239699001776724e-14,2.8866929841497785e-07
1.956,-7.162977478426025e-09,7.1629774550633715e-09,-5.785259845129044e-13,8.940433774688163e-06,-2.3044284453933614e-08,8.158740977137496e-06,2.385271493625018e-10,-1.9238162724327487e-14,2.9771644469711586e-07
2.002,-7.4482326612641176e-09,7.4482326371498464e-09,-5.993474809251194e-13,8.6853610814908e-06,-8.566221706849626e-09,-7.659840636557452e-06,2.480261469382481e-10,-1.9931607553754633e-14,2.892225240136437e-07
2.036,0.033363476552307855,-0.03336347644506592,2.6750566266458974e-06,-2.192954752024428e-06,1.001906426442658,-0.0003266761511566134,-0.0011110037663062192,8.916180229311064e-08,-7.302539324241346e-08
2.069,0.06840841149030771,-0.06840841127001832,5.489926780938023e-06,1.7667659661032495e-06,1.0524004485885843,0.00011891053207590623,-0.002278000095276787,1.8283381281598619e-07,5.8833306671238214e-08
2.102,0.10009005235582927,-0.10009005203399075,8.02656011492839e-06,1.7295320880307188e-06,0.9514006265922388,-1.1181344766525735e-06,-0.0033329987296832264,2.6731174974503045e-07,5.759341853142294e-08
2.135,0.13345332360330148,-0.13345332317479985,1.0694387741683853e-05,1.7011666131390496e-06,1.0019000374616278,-8.518160628128881e-07,-0.004443995666534316,3.561572142870191e-07,5.6648848217530354e-08
2.166,0.17153122919915895,-0.17153122864917242,1.3736073806416233e-05,1.694753040450599e-06,1.1434806485242481,-1.9259978043395019e-07,-0.005711989934767572,4.574659540422252e-07,5.6435276247004956e-08
2.202,0.19506810209628447,-0.19506810147171214,1.5609877691259866e-05,-0.3172592819310347,0.7068129999136794,-9.527356657179434,-0.006495644196586924,3.4832749965617265e-05,-0.010564734088303456
2.233,0.19506808925832925,-0.19505703769745283,0.0020764131549342647,-0.3172579995664065,-3.855241809808802e-07,3.850944829453017e-05,-0.006494913281931305,0.00010345413769956516,-0.010564691385561337
2.27,0.20102820505619096,-0.20098299141768677,0.0042633776412633944,-0.3262582670975152,0.1789824563922435,-0.27027830423749905,-0.00669183074092142,0.00017832384093728905,-0.010864400294347258
2.303,0.18938480163165744,-0.189287396902589,0.00607325801394838,-0.0009441653921701495,-0.34965175449049596,9.769192243403756,-0.006303267129051703,0.00020233881457966244,-3.144070755926598e-05
2.335,0.2180169756462946,-0.21790462484273673,0.006998295657029549,-0.3175733310702522,0.8598250454845994,-9.508383353696157,-0.007254856521356414,0.000271406793166154,-0.0105751919246394
2.369,0.22462336852680284,-0.22441880998227673,0.009584123041085418,-0.3272029956884615,0.19839017659183897,-0.2891791176639429,-0.007471259794936075,0.00035985803329197216,-0.01089585975642577
2.401,0.17791430448511344,-0.17765902078676213,0.009527437930025383,0.003031542424341365,-1.4026745958465283,9.916953096480565,-0.005916061384367473,0.00031696528784881027,0.00010095036273056747
2.435,0.2065154253239253,-0.20622021813157748,0.011038230405566979,-0.31399868935948166,0.8588925176820378,-9.520427380895585,-0.006865086434300925,0.0004034682110131679,-0.01045615635567074
2.47,0.21275121112593726,-0.21231657627882136,0.013592250468283882,-0.3237891793221237,0.18726083489525375,-0.2940087075868479,-0.0070675648804675644,0.000490728833410029,-0.010782179671426721
2.501,0.21801387476590078,-0.21740566568360054,0.01627347901072139,-0.2687807977050349,0.15803794714605185,1.651903351864529,-0.007237086860466508,0.0005742983658510492,-0.008950400563577663
2.536,0.21796385176073754,-0.2172014573480492,0.018214488745510474,-0.2688660553778399,-0.0015021923472444772,-0.0025602904746258003,-0.007229996633595294,0.0006389129569153753,-0.00895323964408207
2.5700000000000003,0.22460218959077885,-0.2236395618368515,0.020772336180440276,-0.2770851291313175,0.19934948438562483,-0.24681903163596333,-0.00744390051212639,0.0007260664137809023,-0.009226934800072873
2.603,0.2180318397941625,-0.21690207516199317,0.022166933808002966,-0.3468817828649846,-0.19730780170019094,-2.0959956076176307,-0.007218415202379601,0.000779858380902991,-0.011551163369403988
2.635,0.21807077679504386,-0.21667024352172864,0.024675276375931983,-0.34716299001062323,0.0011692793057467626,-0.00844465902818672,-0.007210208853698002,0.0008633734947913472,-0.011560527567353755
2.669,0.22471583926796587,-0.22296376422716738,0.028006575291498668,-0.3578570173354241,0.1995514256132737,-0.3211419617057311,-0.007418960812567821,0.000976835329217193,-0.011916638677269623
2.7030000000000003,0.17781986642031067,-0.17615681606384404,0.024262750214807567,-0.1707236611526084,-1.4082874729025585,5.61962030579026,-0.005863693715788709,0.0008246198565474117,-0.00568509791638186
2.734,0.20062698018864802,-0.19859178883139342,0.028504150370839063,-0.30393519915466416,0.684898311361482,-4.000346486548221,-0.006608190283602785,0.0009826377261414304,-0.010121042131850317
2.769,0.22466502573048802,-0.22205154696468485,0.03416846904781055,-0.5364719244025827,0.7218632294846845,-6.983084842279837,-0.007383760229042241,0.0012037959559435664,-0.017864515082606006
2.791,0.21803563468383166,-0.21487252784968816,0.03700452360815212,-0.3997023679130286,-0.1990808122119026,4.107193888575199,-0.007146843301272689,0.0012798323549167382,-0.013310088851503853
2.827,0.21804409363071448,-0.2143692923167446,0.03986268027689417,-0.39960267943007816,0.00025402242891324695,0.002993648136649972,-0.007129454962344271,0.0013748828107644697,-0.013306769225021603
2.87,0.2246038015573817,-0.22025251107352864,0.04399657986517632,-0.4114658150162989,0.1969882260260424,-0.3562503179045274,-0.007324142061733546,0.0015152870949164006,-0.013701811640042756
2.9,0.20652109520964576,-0.2019468322446211,0.0432254521428572,-0.36966775928086887,-0.5430242146467245,1.2551968689318331,-0.0067158002237735145,0.0014807620407380816,-0.012309936384052934
2.935,0.20650892805978877,-0.20138757694212023,0.04570537410179053,-0.36954264810251103,-0.0003653798755854443,0.0037570924431783656,-0.006696672494970951,0.0015632127886945734,-0.012305770181813619
2.9690000000000003,0.21278273290153638,-0.20691056995251256,0.04964380588727052,-0.3809699164072341,0.1884025478002285,-0.3431612103520441,-0.006879451134773008,0.0016967991324504622,-0.012686298216360897
3.002,0.20653762532180736,-0.20021035171874776,0.05073071789583326,-0.29777490429008163,-0.18754076816003046,2.4983487122268007,-0.006658519830265101,0.0017223598878663463,-0.009915904312859719
3.034,0.20651233505052327,-0.19967302353763786,0.05270700332363352,-0.2985520492451605,-0.0007594676061288189,-0.023337686338704405,-0.006640277531415181,0.0017881662849151172,-0.009941783239863845
3.069,0.2128050357515691,-0.20520719341327587,0.05635593147728995,-0.3077535402995045,0.1889699910223969,-0.27632105268300405,-0.00682366379277311,0.001911634613175724,-0.010248192891973502
3.1,0.2180712040907329,-0.20968247127734368,0.05990251491054479,-0.1928095061696172,0.15814319336828297,3.4517727966933127,-0.00697597455301915,0.0020171557538420566,-0.006420556555448253
3.136,0.21807748814104194,-0.2092995756311423,0.06124931407395554,-0.19332052173375713,0.00018871021949039065,-0.015345812736934916,-0.0069630626308004465,0.0020620221509622806,-0.006437573373734113
3.169,0.22467620163600596,-0.21522198886585883,0.06448946495519521,-0.1987755056602853,0.19815956441333393,-0.16381333112697163,-0.007159732450383124,0.00217120331314699,-0.006619224338487501
3.202,0.20654657729598333,-0.1974584893925172,0.0605940059701519,-0.17174236252043984,-0.5444331633640429,0.8118061002956591,-0.006569561929694095,0.0020365719230928947,-0.005719020671930647
3.235,0.2065528221870196,-0.19711468330030535,0.06172414422932783,-0.17163451575483382,0.00018753426535318723,0.003238641609790324,-0.006558009370150826,0.0020741608115102633,-0.0057154293746359665
3.269,0.2127848350021007,-0.20269519457737278,0.06474599680375774,-0.17629970468473738,0.18714753198441725,-0.14009576366076748,-0.0067433823209193675,0.002175842650164945,-0.005870780166001756
3.302,0.20651339732918914,-0.19634883584574486,0.06399154583587026,-0.0922687252353472,-0.1883314616489955,2.523452836318023,-0.006535132194118853,0.00214096015792711,-0.003072548550337062
3.335,0.2065130878520223,-0.19615099825478508,0.06459443735979438,-0.0919151187644577,-9.293608613745127e-06,0.010618812939624635,-0.006528526111980708,0.0021609878624169287,-0.0030607734548564417
3.369,0.2127948025707785,-0.2019128496688761,0.0671775940305281,-0.09491114662397354,0.18864008164433077,-0.08997080659206744,-0.006720151532693688,0.002247635658674404,-0.0031605411825783194
3.402,0.19507030395804356,-0.18489919388277082,0.062166804548609705,-0.06670664416148338,-0.5322672256076562,0.8469820559306355,-0.006154838767344797,0.002076991641057279,-0.0022213312505773965
3.435,0.19506741151263993,-0.18475790517883475,0.06257644531427395,-0.0667179675763603,-8.686022233138077e-05,-0.0003400424887963401,-0.006150118311658241,0.002090628600943105,-0.002221708320292798
3.469,0.20098573763802305,-0.19021972753293864,0.06489778109608078,-0.06914958162259752,0.17772751127276643,-0.07302144282994658,-0.006331823092424967,0.0021683873874560372,-0.0023026810680324976
3.502,0.20655974312520844,-0.19534105413183317,0.06714759899368204,-0.02766454664540643,0.1673875521677296,1.2457968461618942,-0.006503826158385152,0.0022390112033381223,-0.0009212294032920343
3.536,0.20658287386970836,-0.19530098043806693,0.06733506379441279,-0.02795385463835406,0.000694616951949437,-0.008687927716145027,-0.0065024780086730205,0.0022452844862505448,-0.0009308633594571903
3.569,0.2128486769359231,-0.20115992774892857,0.06956466589741378,-0.029092869586853306,0.18816225424068295,-0.03420465310808544,-0.006697502354885192,0.002319748048757746,-0.0009687925572422152
3.603,0.18915555446554913,-0.17870795564420397,0.0619942769506876,-0.30229479115925945,-0.7115051792905096,-8.204261909081264,-0.005940483826401887,0.0020943270202246596,-0.01006641654560334
3.636,0.19498502721483416,-0.18356283470546478,0.0657559621088752,-0.025713236208191922,0.175059241720271,8.305752400932958,-0.006111704112925038,0.002192290473882687,-0.0008562507657327911
3.669,0.2010055555374829,-0.1891725699836573,0.06794830478172652,-0.028208590479633693,0.18079664632578793,-0.07493556370696006,-0.006298382851247265,0.0022656371293528375,-0.000939346062971802
3.702,0.2180094454463346,-0.20510614191529758,0.07388903066382826,-0.21800604757465172,0.5106273245901414,-5.699623336186727,-0.006821043338981361,0.0024852749164030294,-0.007259601384235903
3.736,0.2180135729515632,-0.20456820996178757,0.07537748645409034,-0.21795865798545097,0.0001239491059640124,0.0014231107868093852,-0.006802952454584559,0.002534769672005695,-0.007258023310915518
3.77,0.22462540266025452,-0.2102030438178894,0.07919123619426552,-0.22449368628208,0.19855344470544484,-0.1962470959948656,-0.006989839223765316,0.0026632075869447475,-0.007475639753193265
3.802,0.21800348133429098,-0.20342604332615177,0.07837960685367834,-0.1037195340842289,-0.19885649627518126,3.6268514173528854,-0.006769566323530813,0.0026217343338083717,-0.0034538604850048228
3.8360000000000003,0.21797813268096303,-0.20313049626521723,0.07907254779078568,-0.10292518433835435,-0.0007612208206593291,0.023854346722959646,-0.006759719806851154,0.002644702841583734,-0.0034274086384672
3.869,0.22462028691105695,-0.20903971737222507,0.08219896503573386,-0.10620306467664083,0.19946409099381163,-0.09843484499358796,-0.0069561677973214745,0.0027495291184099794,-0.00353656205373214
3.903,0.18348573186755385,-0.17051988796174533,0.06774940301202427,-0.03380744719795415,-1.2352719232283214,2.174042566927527,-0.005677041066382594,0.0022592511412343115,-0.0011257879916918734
3.935,0.20654427674286946,-0.19186304472330076,0.07647947649363022,-0.11159594775476843,0.6924487950545228,-2.33599100771214,-0.006384292517966317,0.0025586322265656164,-0.003716145060233789
3.9690000000000003,0.21283150675440646,-0.1974091518362043,0.07954166856850184,-0.11524144177278717,0.1888057060521621,-0.10947429483539754,-0.006568626210893658,0.002661344755456908,-0.003837540011033813
4.003,0.21805280319438194,-0.2019378775726165,0.08226857591082282,-0.03599092413362123,0.15679568888815273,2.3798954245995776,-0.006722887943615226,0.002743572838031168,-0.001198497773649587
4.035,0.21807461590634802,-0.2018593246521364,0.08251879273041142,-0.03625948904586431,0.0006550363953777588,-0.00806501237967203,-0.006720254827090281,0.0027519335364001632,-0.0012074409852272816
4.069,0.22469460706322775,-0.20788426286216952,0.08527484797729469,-0.037502908743662966,0.19879853323963131,-0.03733993086482446,-0.006920770903428614,0.0028439745547815887,-0.0012488468611639768
4.103,0.20655233113103552,-0.19100124095029222,0.07862818483923781,-0.06557037643886134,-0.5448130910568235,-0.8428668977537047,-0.0063574776329032925,0.002625260589039889,-0.0021834935354140828
4.136,0.2065552360816036,-0.19083178545981105,0.07904615873619439,-0.0657287708605232,8.723575279479644e-05,-0.004756589239095025,-0.006351812607205254,0.002639189696859121,-0.0021887680696554227
4.17,0.21279239507859274,-0.1964154490266377,0.08186314669586177,-0.06713385069300201,0.18730207198165616,-0.04219458956392827,-0.006537581792410052,0.0027333517343417512,-0.002235557228076967
4.203,0.21801063634551177,-0.20104408323998424,0.08432030688967675,0.012297271533963434,0.1567039419495203,2.3853189857947577,-0.006695342590391593,0.0028064956376991617,0.0004094991420809824
4.236,0.2179698915279788,-0.20104101515032707,0.08422222889501796,0.012716753972810316,-0.0012235680940830993,0.012597070235642079,-0.006695259329841706,0.0028031828979413233,0.00042346790729458356
4.27,0.2245440731503227,-0.20714132811851563,0.08667474241227899,0.013787147379506336,0.19742287154185917,0.032143946147027626,-0.006898468437691438,0.0028846856432388247,0.00045911200773756104
4.302,0.21797606412940426,-0.20112096499031426,0.08404714138333881,-0.023757894144743354,-0.19723750813568908,-1.1274787244519424,-0.0066962202255937886,0.00280141901857533,-0.0007911378750199538
4.335,0.21800201183166393,-0.20107834254122764,0.08421625332158664,-0.023712632694733997,0.0007792102780680322,0.0013592027029837076,-0.0066948007864274075,0.0028070448390940064,-0.0007896306687346421
4.369,0.22464233053457827,-0.20713457812856745,0.08694505858015791,-0.024619737079271488,0.19940897005748778,-0.02724037190803276,-0.006896393746616191,0.0028980978283474654,-0.0008198372447397406
4.4030000000000005,0.1950476144345569,-0.17978440888416736,0.07563820607855591,-0.11926199483230475,-0.8887302132138549,-2.842109842433431,-0.005981803474144757,0.002530633950176142,-0.003971424427915748
4.436,0.20655800495844806,-0.19007444916834126,0.08085736321304263,-0.03170335903896377,0.34565737308982464,2.6293884622624915,-0.00632805658994573,0.002695891013280654,-0.0010557218559974937
4.47,0.21284262882628086,-0.19576948392381144,0.08352421092046595,-0.033012228687705834,0.1887274434784623,-0.03930539485711904,-0.006517593616311084,0.002784939164040248,-0.0010993072153006045
4.502,0.20658978967700112,-0.18992897934984093,0.0812792962685778,0.035177381160572924,-0.18777294742581793,2.0477360314798427,-0.00632621873091832,0.0027028958209118345,0.0011714067926470785
4.536,0.2066025088187961,-0.19003575937540285,0.0810617468898537,0.03497519788390061,0.00038195621005966327,-0.006071569870039389,-0.006329761191767121,0.00269567065574316,0.0011646740895338906
4.569,0.21282036160570078,-0.19585214286700176,0.08327331174142631,0.03520372571851648,0.18672230591305333,0.006862697736212272,-0.006523500133707041,0.0027691781416710427,0.0011722840664265988
4.603,0.2065531301721846,-0.19017921389181427,0.08059815250623918,-0.0018336512396904363,-0.188205148153639,-1.1122335422884957,-0.006332885778601538,0.0026841120583666117,-6.106058628169153e-05
4.636,0.20654630166497195,-0.19016800513296864,0.08060709990580729,-0.0015221908064182602,-0.00020506027665607423,0.009353166164329612,-0.006332526438898439,0.002684377156198542,-5.0688953853728065e-05
4.6690000000000005,0.21277849243931082,-0.19590179865147947,0.08304921510683312,-0.0009886079968631307,0.18715287610627235,0.01602350779444833,-0.006523484270009474,0.002765646483234817,-3.2920646295542254e-05
4.703,0.2180114669441726,-0.2007169142779878,0.08509829635117819,0.022100511546959817,0.1571463815273803,0.6933669532679563,-0.006684915290869928,0.0028313137716683627,0.000735947034513762
4.734,0.21797266269335427,-0.20074375065519737,0.08493543579987534,0.02256873079970062,-0.0011652928173667854,0.01406063822044453,-0.006685828970291173,0.002825838062624749,0.0007515387356300307
4.768,0.2245497061753462,-0.2068666338941819,0.08734280923307208,0.023926612166860185,0.19750881327303071,0.04077721823301996,-0.006889816761190013,0.002905771203870155,0.0007967561851564442
4.803,0.21797847579889204,-0.20088037222232072,0.08462678043875967,0.028505611520178328,-0.19733424553916384,0.13750748808763189,-0.0066906527950494855,0.002814896740214622,0.0009492368636219384
4.835,0.21801520818285916,-0.20099447720716965,0.08445028792865047,0.028424002770996513,0.0011030745936071963,-0.0024507131886430684,-0.006694445885843936,0.0028090268341673897,0.000946519292274184
4.87,0.22464978920273462,-0.2071933614183785,0.08682418311154037,0.02906721634653552,0.1992366672635274,0.01931572298915932,-0.006900937024493365,0.002887905937599974,0.0009679383043396329
4.902,0.21804557159590843,-0.20118380063412022,0.08407704594594761,0.0532369026319087,-0.1983248530578437,0.7258164049661616,-0.006701898644670796,0.0027938260838279143,0.00177278885764256
4.9350000000000005,0.21804819854050117,-0.20133496085929917,0.08372126625023228,0.05285197689760475,7.888722500729519e-05,-0.011559331360479045,-0.006706903959254569,0.0027820171545109938,0.0017599708306902384
4.97,0.22466635414198186,-0.20759733746438347,0.08589712545335432,0.05408831259254863,0.19874341145587643,0.03712719804636271,-0.006915563461990614,0.002854147353056233,0.0018011408093318694
5.002,0.2180491117001334,-0.20163266879982011,0.0830041082469977,0.043848261757995645,-0.19871598924469794,-0.3075090340706601,-0.006716383332954452,0.0027591340892637105,0.0014601471165412551
5.035,0.21804112634427256,-0.20174626343627125,0.08270657753154625,0.04322384772319958,-0.00023980047630200272,-0.018751172216098063,-0.00672013023420033,0.0027492934312944527,0.001439354129182546
5.07,0.22465081056892772,-0.207984423655901,0.08491446405530054,0.044777885062143044,0.1984890157554102,0.0466677879562602,-0.006927986797224616,0.0028224872591918492,0.0014911035725693636
5.102,0.21803059637576222,-0.2019780102652384,0.08211104874050616,0.09989001916729374,-0.19880523102599088,1.6550190421967175,-0.0067304028329061025,0.0027231068864794275,0.003326337638270882
5.135,0.21800714951065162,-0.2022282716068682,0.08142999079367719,0.10036072567472104,-0.0007041100633815184,0.014135330553372249,-0.006738719935999568,0.002700361013836733,0.003342012164968211
5.169,0.22457920468188688,-0.20860383593504386,0.08318809295045863,0.10406096381526925,0.19735901415120927,0.11111826247892512,-0.006951293354732424,0.0027581225965928407,0.003465230095048466
5.202,0.2179533528219763,-0.20272785690533593,0.08003174395769795,0.08490805069197328,-0.1989745303276449,-0.575162556255134,-0.006754596181353544,0.0026555099912895026,0.0028274380880427105
5.236,0.21794799313107727,-0.20294834023571615,0.0794562703971946,0.08516060590675273,-0.00016095167864993263,0.00758424068406744,-0.006761922248152847,0.0026363079284845875,0.002835848176694866
5.27,0.2245796000296206,-0.20935488640352043,0.08128055295354125,0.0877457022090111,0.19914735431061065,0.07763051958733831,-0.006975462006988969,0.0026964536772021443,0.0029219318835600697
5.303,0.2065385021122208,-0.19275442696341555,0.07418816442509636,0.04509622505976684,-0.5417747122342282,-1.2807650795568843,-0.006420574868464281,0.0024656456736588464,0.001501704294490236
5.334,0.20655595123821627,-0.19288191225582196,0.07390486395672326,0.04531552715886383,0.0005239977776416449,0.006585648621531294,-0.0064248220066098405,0.0024561851225020177,0.0015090070543901657
5.37,0.21281991295254404,-0.1988458773109372,0.07584611015452364,0.046284000569616464,0.18810695838822147,0.02908328560818711,-0.006623511357070751,0.002520571944633376,0.0015412572189682284
5.4030000000000005,0.2065160803156121,-0.19306916917412684,0.07330202823480905,-0.10294749530067923,-0.18930428339134933,-4.481426302411282,-0.006425006667781475,0.0024519731277454766,-0.0034281515935126188
5.434,0.21804843847746946,-0.20358409878454323,0.07809376572139506,0.060574611539920234,0.3463170619176382,4.910573778996981,-0.006781968597187833,0.0025936834570315244,0.002017134564279344
5.469,0.224671429920311,-0.2099296346025114,0.08004248833021908,0.0622214612360988,0.19888863191716322,0.04945494583118813,-0.00699341306709318,0.0026581709835676454,0.0020719746591620902
5.503,0.218065416910202,-0.20391760668210246,0.0772666534623027,-0.012184297913833912,-0.19837876907234206,-2.2344071816796607,-0.006789934044348233,0.0025743573108731126,-0.0004057371205306693
5.534,0.21806707767679331,-0.20388779272800517,0.07734997312862243,-0.012722162306976212,4.987287060975597e-05,-0.016152083878147167,-0.006788917592907034,0.0025771924505045033,-0.0004236480048223079
5.569,0.22465104364975344,-0.2100098748291161,0.07977433100429242,-0.013105227303952178,0.19771669588468846,-0.01150345336264162,-0.0069927488610668645,0.0026580113552785237,-0.00043640406922160755
5.602,0.21802711039993788,-0.20378383602983674,0.07751108980211358,0.06995683373325325,-0.19891691440887552,2.494356187303466,-0.006789001944928619,0.002573213002682311,0.002329562563317333
5.634,0.2180031756575556,-0.2039414589511627,0.07702769578307696,0.07033483476300768,-0.0007187610325014341,0.011351382274908043,-0.006794248111501564,0.0025570671155587675,0.002342149997608156
5.67,0.22457095294586701,-0.21027086842216935,0.0788560384498331,0.0731145289810634,0.19723054919854133,0.08347430084251385,-0.00700520956719442,0.0026173797920142337,0.0024347138150694115
5.703,0.21796629734405598,-0.20427252013115788,0.07603975471516938,0.012582373606491311,-0.19833800606039134,-1.8177824436808432,-0.006802805098877762,0.002530698956594883,0.0004189930410961607
5.735,0.21796189905858618,-0.20430023972292893,0.07595262661935452,0.012940079960562017,-0.00013208064473883643,0.010741932554675857,-0.006803742605627566,0.0025277568749195404,0.0004309046626867152
5.77,0.22460164194855717,-0.21055751518645852,0.0781756379218754,0.013253398210207407,0.19939167837750718,0.009408956445807488,-0.007012139388375713,0.0026017016819734886,0.0004413381603999067
5.802,0.19501801384377082,-0.18285366280698148,0.0677979625183523,-0.11551087014916629,-0.8883972403839743,-3.866794845626838,-0.006084669796238784,0.00226937755273728,-0.003846511975967238
5.835,0.20652520990527917,-0.19336548607024717,0.07254275376105225,0.00037672230300632523,0.34556144328853905,3.480107881446625,-0.006439085748695221,0.0024156335496858515,1.2544852690110632e-05
5.87,0.21281650801081406,-0.1992568423102571,0.07475009615018717,0.00011086271660447382,0.18892787103708367,-0.00798377136341896,-0.006635257351575266,0.0024891661995120385,3.6917284629289786e-06
5.9,0.21803365786977674,-0.20414186266936427,0.0765818246711142,0.020932531958908887,0.1566711669358163,0.6252753526217542,-0.006798812186020549,0.0025478055488197676,0.000697053314231666
5.934,0.21805625988064434,-0.20421636216021039,0.07644743226024597,0.020654944351060144,0.0006787390650929446,-0.008335964199661946,-0.006801279707990809,0.0025433608531231127,0.0006878096468903029
5.969,0.2246799267953237,-0.21047375768949925,0.07862484867275721,0.021082658576628763,0.19890891635673752,0.012844271038096652,-0.007009694518130473,0.002615747240543288,0.0007020525306017379
6.002,0.21806388497070742,-0.20432956111540213,0.0761661892371219,0.04123214252889325,-0.19867993467316158,0.6050896081761106,-0.006805913385206104,0.002531662388141371,0.0013730303462121452
6.036,0.21805028205377452,-0.20442119429378414,0.07588083306892186,0.04105106689127996,-0.0004084960039907559,-0.005437706835233973,-0.0068089506465031915,0.0025221784661340297,0.0013670005274796226
6.07,0.22463668136678372,-0.21070258066677827,0.0778849222625388,0.04292523696909596,0.19778976915943525,0.056281383718198345,-0.007018247087288877,0.0025885526339054685,0.0014294103910708956
6.103,0.21801840535603598,-0.20460267356012588,0.07529788208201732,0.04831307589282609,-0.19874702734978203,0.16179696467658033,-0.006815282997543647,0.0025019379646532285,0.001608825427231109
6.133,0.21797804339317783,-0.20468564919359306,0.07495473577910522,0.0490134010695911,-0.0012120709567009934,0.021030786089039456,-0.006818065911960427,0.0024904294659872546,0.001632146255617384
6.169,0.22456614806053946,-0.21099776206892218,0.07687586914405997,0.0509352353229145,0.1978409810018505,0.05771274034004207,-0.007028393047976055,0.0025540067336192658,0.0016961433362530532
6.203,0.21795731347544622,-0.20491449668161385,0.07426600532649376,0.06026542955602116,-0.19846350105385077,0.28018601300620594,-0.0068261295815552,0.002466209586555146,0.002006838804215505
6.236,0.21798327562472564,-0.20508755009469604,0.07386342293883122,0.06030942042549485,0.0007796441225048843,0.0013210471313419875,-0.006831880599879537,0.0024527928152781285,0.0020083037001689787
6.27,0.22461912553139235,-0.21148325782389996,0.07568740459731235,0.061974665750355415,0.19927477197197335,0.05000736711292987,-0.007044988128694429,0.0025131221559306326,0.0020637563694868356
6.298,0.21802101359132636,-0.20542218240752624,0.07304032682236807,0.08554873245070604,-0.19814149970168127,0.7079299309414603,-0.006844013783485358,0.002422496254348119,0.0028487727906085117
6.335,0.2180212930643091,-0.20562968745846744,0.07245492298778845,0.08517459515066415,8.392582063910959e-06,-0.011235354355612332,-0.0068508809770793915,0.0024030351748122025,0.0028363140185171166
6.369,0.22463542072818754,-0.21207877693438965,0.07405176986232827,0.08734001492881725,0.1986224523687222,0.06502762096555853,-0.007065799196440139,0.0024556507639242834,0.0029084224971296147
6.401,0.21801698389036553,-0.20603845411041938,0.07127103684134617,0.06040481558008134,-0.198751856991652,-0.8088648453073848,-0.006863462755685545,0.002366423718172837,0.002011480358816709
6.432,0.21801171941563505,-0.20617641880355342,0.07085473965729694,0.05975142810823433,-0.00015809233424870784,-0.019621245400811144,-0.006868017466393752,0.0023526311360244994,0.0019897225560042034
6.469,0.224648479971594,-0.2125977389544628,0.0725888486270293,0.06143559262967263,0.19930211879756649,0.05057551115430342,-0.007081972247933038,0.0024099655936784636,0.002045805234568099
6.501,0.18351516157113076,-0.17379186915524827,0.05894235100505661,-0.12260312086246308,-1.235234786800698,-5.5266880928569275,-0.005783246392329496,0.001974588828781498,-0.004082683924720021
6.535,0.20656624383129465,-0.19534912287812473,0.06714412320759881,0.0523085832537075,0.692224692497414,5.252603727212329,-0.006507069748773965,0.002230232853544964,0.0017418758223484599
6.569,0.2128147148706859,-0.20137847377313733,0.06882450992410467,0.05390602177200208,0.18764177295469203,0.047971126675512926,-0.006707956511918666,0.0022858364147544876,0.0017950705250076695
6.602,0.20654732092832667,-0.1955674686577612,0.06644667776092923,0.11623589154633733,-0.1882100282990759,1.8717678610911486,-0.006516662607949106,0.0022000654800828703,0.0038706551884930334
6.636,0.20652380740919346,-0.1958009025265631,0.0656817295491903,0.11671524520518795,-0.0007061116856820247,0.01439500477028873,-0.006524403961162771,0.0021745256405934234,0.003886617665332759
6.6690000000000005,0.21275140880163287,-0.20196661462127038,0.066877862746224,0.12084231454659236,0.1870150568300124,0.12393601625839085,-0.0067299508727583736,0.0022134952387966225,0.004024049074401526
6.7,0.21802417671456223,-0.20724620848751216,0.06770192537596935,0.0767300848463815,0.15834137876664728,-1.3246915825889147,-0.00690417136546004,0.002245655127034038,0.002555111825384504
6.735,0.21799320208950765,-0.207389049893873,0.06716262458654808,0.07772753462517387,-0.0009301689205579758,0.029953446810581836,-0.006908941982849692,0.0022275755975467546,0.00258832690301829
6.769,0.22461351948538302,-0.2138657280234138,0.06864898770284782,0.07975574961995437,0.19880833020646768,0.06090735720061544,-0.007124755955232666,0.0022765516918383417,0.0026558664623444806
6.803,0.21800569945778536,-0.20775031978426992,0.06607790572961465,0.10371292451657894,-0.1984330338617916,0.7194346815803175,-0.006921871496629626,0.0021884438644043814,0.003453640386402079
6.834,0.21801045347921588,-0.20798182500426532,0.06536144348244252,0.10336339078455883,0.00014276340632191374,-0.01049650846907238,-0.006929526833059972,0.0021646127423252228,0.0034420009131258095
6.87,0.22463446764922212,-0.21453166987516642,0.06660935877654162,0.1063354276468448,0.19891934444463188,0.08925035622480366,-0.0071478166899573165,0.002205439114544023,0.003540969740639932
6.902,0.21799077505645176,-0.20841435362317784,0.0639017622100168,0.06820093080576253,-0.19951028807118218,-1.1451800853177856,-0.006942608289958739,0.0021200462019016777,0.0022710909958318926
6.9350000000000005,0.2180177502195163,-0.20858475075552202,0.06343611875766174,0.06797097173068319,0.0008100649568932883,-0.006905677930310729,-0.006948256854608006,0.002104560451814975,0.00226343335863175
6.97,0.2246624624352526,-0.21508937425916755,0.06488284140102875,0.06997479992892758,0.19954090737946806,0.06017502096830006,-0.007164986871621382,0.002152252071455224,0.0023301608376332886
6.994,0.2180784029501673,-0.20893205775393417,0.06249468038163142,0.09096765722740899,-0.197719504056615,0.6304161350895318,-0.006960578820633196,0.0020705321246224937,0.0030292229856727195
7.034,0.21807259615068098,-0.20911484091318477,0.06185984563310385,0.09134069252326328,-0.00017437836295301304,0.01120226113676556,-0.006966646179220988,0.0020493396646019337,0.0030416450610246675
7.068,0.2246542693557206,-0.21561899673900162,0.06307130080329,0.09468872793582014,0.1976478439951842,0.10054160398068657,-0.007183411837515256,0.0020889511806677285,0.0031531346402628112
7.102,0.17202637225695755,-0.1652591813173193,0.047775262869174544,-0.12277013988188662,-1.5804173302931848,-6.530296330862065,-0.005499863325265526,0.0016021610847447977,-0.004088245658066825
7.135,0.19739334382554383,-0.18940256188812118,0.05559497942121935,-0.022338507132271236,0.7617709179755638,3.015964947435897,-0.0063064160905402485,0.0018536587175276157,-0.0007438722875046322
7.169,0.21275328868957774,-0.2040960828100197,0.060072879320342165,0.095693482635851,0.46125960552654394,3.5445041972409075,-0.006799575252227732,0.0019895950769410246,0.0031865929717738383
7.203,0.20651050413264302,-0.19829212985185582,0.05767858836633513,0.1022054357405416,-0.1874710077157574,0.1955541472880061,-0.006606383591971548,0.001909456861534416,0.0034034410101600357
7.235,0.20652147568161944,-0.19849783198663865,0.05700640853726821,0.10203664356897442,0.0003294759452377894,-0.005068833980996338,-0.006613190077218651,0.001887080248774268,0.0033978202308468483
7.269,0.2127803422451676,-0.204711919760882,0.058038814200368376,0.10470447258628993,0.1879539508573019,0.08011498550497016,-0.006820262361459484,0.0019208047465117811,0.003486658937123455
7.299,0.2065230427839154,-0.19888709349065709,0.055638936398583236,0.14336927439227798,-0.1879068907282942,1.1611051593389805,-0.006627337737586577,0.0018369602087093915,0.004774196837262857
7.336,0.2065317932242531,-0.1991588951695054,0.05469109696548066,0.14322338451308167,0.000262775986117494,-0.004381077453342619,-0.006636308983729181,0.0018053917937730576,0.00476933870428562
7.369,0.21278363141909332,-0.205453952910218,0.0553673823967008,0.1471455108673106,0.18774288873394018,0.11778157219906671,-0.006846106275743924,0.0018269649683319664,0.004899945511881443
7.402,0.20886737953386328,-0.20193648458072985,0.053359520504962864,-0.023715507535708884,-0.11760516171861973,-5.130961513604188,-0.006723782550414213,0.0017795273482763756,-0.000789726400939106
7.4350000000000005,0.2180559356580589,-0.21077607573630677,0.055873401300746056,0.14119728710431562,0.27593261634221056,4.952336175376111,-0.007023191496538004,0.0018440768547098904,0.00470186966057371
7.47,0.224666183412966,-0.21743391032420087,0.05654545614349454,0.14489061295943306,0.19850593858579862,0.11091068633986324,-0.0072450635592607344,0.001865489376968864,0.004824857411549121
7.502,0.21808829244174574,-0.21133014764655086,0.05387088263471695,0.14499777818540754,-0.19753426340000738,0.003218174954188634,-0.0070415973559710895,0.001776904188241486,0.004828426013574072
7.536,0.21809016229341815,-0.2115896088856547,0.052850319779403084,0.14530581060874775,5.61517018743157e-05,0.009250222923129424,-0.007050164246321871,0.0017428625529882329,0.0048386834932713
7.57,0.224682867683621,-0.21824671084155498,0.053392548519229206,0.15019423048651162,0.1979791408469323,0.14679939572864462,-0.00727203133178558,0.0017597903872910018,0.005001467875200837
7.602,0.2180510417316192,-0.21206136580820922,0.05075661466056648,0.18575484623070854,-0.19915393249254626,1.067886358684592,-0.007066825837589575,0.0016683444413818501,0.006185636379482595
7.635,0.218020298097312,-0.21234132599780395,0.04943694626425806,0.18639457585557806,-0.0009232322614780061,0.019211099845931612,-0.0070760297644943786,0.0016242955430224176,0.00620693937599075
7.67,0.2245988387409583,-0.21906040473693444,0.04956992475561637,0.19253571072213696,0.19755377308247135,0.18441846446122823,-0.007299953035173359,0.0016272827360590883,0.006411439167047161
7.703,0.21797182182341643,-0.21290087039814454,0.046743282862157655,0.14270913850235833,-0.1990095170432991,-1.4962934600534121,-0.007093270768408608,0.0015397001077146026,0.004752214312128533
7.727,0.21796360889232383,-0.21311256949409232,0.04572928520096916,0.1424560874389595,-0.00024663456734532585,-0.007599131032998373,-0.007100233769974272,0.0015059472828728292,0.004743787711717351
7.769,0.22457457759807223,-0.21979744141281604,0.04607413213216578,0.14631197444921257,0.19852758876121315,0.11579240271030264,-0.007322963401029868,0.001516432440512863,0.004872188749158779
7.802,0.20652609239699876,-0.20233692332942632,0.04138594324593232,0.03750768425529075,-0.5419965525847887,-3.267396101919574,-0.006738678404021998,0.0013739440133805827,0.0012490058857011822
7.836,0.2064885566764208,-0.2023516730650654,0.041125715143694876,0.036923831918467064,-0.0011271988161550635,-0.01753310320791861,-0.0067391508998739,0.0013653436281574726,0.0012295636028849533
7.87,0.21275590443709622,-0.2085454018604304,0.042117576327685535,0.03774000173256236,0.18820864146172425,0.024509604026885783,-0.006945441302066308,0.0013981514184504553,0.0012567420576943267
7.902,0.20653350977597723,-0.2024973732314351,0.04063132405857048,0.03360026677262801,-0.18685869853210163,-0.12431636516319378,-0.00674391801290468,0.0013492506338327738,0.0011188888835285127
7.9350000000000005,0.20656951813992827,-0.2025780209865864,0.04041177102924744,0.03349045801380144,0.0010813322507819822,-0.0032975603251221316,-0.006746597041496703,0.0013419503525226911,0.0011152322518595882
7.969,0.21286727467006894,-0.20880040006079362,0.041410983566139974,0.03438599540810043,0.189121817721942,0.026893014843813543,-0.006953841258007667,0.0013750048994722298,0.0011450536470897445
8.002,0.21808306586005288,-0.2139649818555204,0.042180684613777844,0.14136594611745354,0.15663036606558384,3.2126111324130058,-0.007128313629718562,0.0013878414057311992,0.0047074860057112035
8.035,0.21811156680105395,-0.21418916372678706,0.041178364640066,0.1414258663884568,0.0008558841141462306,0.0017994075376356294,-0.007135701644063471,0.0013544395827401418,0.004709481350735612
8.069,0.22470302275247928,-0.22085942400774003,0.04138312773426543,0.1462163386527893,0.1979416201629226,0.14385802595593064,-0.007357944588378251,0.0013601481815411947,0.004869004077137884
8.102,0.21806206954178264,-0.21452506408374855,0.039116020409914194,0.14954054033924236,-0.19942802434524418,0.09982587647006184,-0.007146898243338352,0.0012847716941818252,0.004979699993296771
8.135,0.2180253890203735,-0.21468107162306113,0.03804086939410421,0.15013764393231852,-0.001101517159433911,0.01793103883111589,-0.007152016488868537,0.0012488852646392523,0.004999583542946207
8.169,0.22459452664753515,-0.22134259866082615,0.03808090621430668,0.15487143675145768,0.1972714002150648,0.14215594051468947,-0.00737394572859462,0.0012490826920587288,0.005157218843823541
8.203,0.21798647737793425,-0.21501798359853316,0.0358520717513167,0.029547779371956996,-0.19843991800603308,-3.7634731945796,-0.007160685005250028,0.0011903515041686106,0.0009839410530861682
8.235,0.2179535953390527,-0.21502071627056882,0.03563511324117087,0.029663101815743616,-0.0009874486150615231,0.0034631364500486363,-0.007160774718602731,0.001183112992272877,0.0009877812904642625
8.27,0.22457558871780664,-0.22158976226899046,0.03649893567656094,0.030392230596671094,0.19885866002264074,0.021895759187011348,-0.007379552816034548,0.0012116806545037486,0.0010120612788691475
8.303,0.21792423590064552,-0.2150625769591841,0.03520029239303574,0.014874049216723844,-0.19974032483967313,-0.4660114528512687,-0.00716187376788546,0.0011703963665092786,0.0004953058389169041
8.336,0.2179540327370576,-0.21510939342973026,0.03509856470911454,0.01467846872885473,0.0008947998922545672,-0.005873287923997415,-0.007163428119098977,0.0011670317761580799,0.0004887930086708626
8.37,0.22459611328484846,-0.22168243676404534,0.036059829908299874,0.01503470600955798,0.1994618783120379,0.010697816237334816,-0.007382325383277921,0.0011989446323055321,0.0005006557101182807
8.402,0.21802936603192768,-0.21521837840211744,0.0348977656913346,0.02216926972614613,-0.19719961720482818,0.21425116266030483,-0.007167200257720592,0.0011594503701447094,0.0007382366818806663
8.436,0.21806636330145374,-0.21528060720071238,0.034744768912948545,0.022100775815558815,0.0011110291148964324,-0.002056874191811312,-0.007169269280678292,0.0011543629892364462,0.0007359558346581086
8.469,0.224702143301165,-0.2218579050333998,0.0356387875541276,0.022816281569347494,0.19927267266400198,0.021486659272933303,-0.00738831832697292,0.0011839651994292667,0.0007597821762592716
8.502,0.21812072472932673,-0.21538601530284726,0.03443130796830648,0.04560334634912672,-0.1976401973525008,0.6842962396330097,-0.007173222090536264,0.001141116443072558,0.0015185914334259198
8.536,0.21810012235722834,-0.21541770503597407,0.03410096375869811,0.046191646178938915,-0.0006186898528044544,0.017666661555921878,-0.0071742800574998685,0.0011300449076811984,0.0015381818177586661
8.569,0.2246846346126241,-0.22197500877224582,0.03478908609851352,0.048140957557334045,0.19773310076263587,0.05853787923108498,-0.007392693156616086,0.0011525514966617214,0.0016030938866592238
8.602,0.20656983543340626,-0.20412967990526543,0.03165707966250863,0.02162173148184426,-0.5439879633398753,-0.7963731554201136,-0.006797897221622948,0.0010517337941406775,0.000720003658345414
8.635,0.20657363584745725,-0.204156176144639,0.03151067706725763,0.021910236692256745,0.00011412654807766333,0.008663820132507025,-0.006798782816090095,0.0010468256112256293,0.0007296108818521497
8.67,0.2127360638433546,-0.21027010779573096,0.032297285135681524,0.023030356627608283,0.18505789777469556,0.033637235295842,-0.007002406269698816,0.001072814795778191,0.0007669108756993559
8.703,0.20647589798172694,-0.20410648765246125,0.031190353405118398,0.03744998932797261,-0.18799296881764774,0.4330220030139437,-0.006797391873979497,0.0010344006922844457,0.001247084644621488
8.735,0.2064867276106843,-0.2041559333235029,0.030937413728014816,0.03735540418615569,0.0003252140828032553,-0.0028403946491567717,-0.006799031549144204,0.0010259874843359669,0.0012439349593989847
8.769,0.21272135745635856,-0.2103596708921498,0.031609884217160426,0.03782649571242862,0.18722612149171985,0.014146892680868705,-0.007005638094430319,0.0010481973130650872,0.001259622307223873
8.803,0.22044133134777058,-0.2180350242367255,0.03248243790832357,-0.02310623923283671,0.23183104779015068,-1.8298118602181779,-0.0072601494135594415,0.0010844586209270324,-0.0007694377664534625
8.835,0.21798289678787314,-0.21557864730698567,0.03228606692247943,0.035707333849089445,-0.07382686366058387,1.766173365823608,-0.007179406415599308,0.0010708580684275519,0.0011890542171746786
8.869,0.22461617240536833,-0.2221781620477076,0.03300438175668098,0.036710312457296126,0.19919746599084645,0.030119477723924353,-0.007399202679117785,0.0010945237321513816,0.0012224534048279612
8.903,0.21804705939051697,-0.21571935614548962,0.03177545425366926,0.02702777008091074,-0.19727066110664737,-0.2907670383298915,-0.007183929719055072,0.0010548901062545448,0.0009000247436943277
8.935,0.21808582495222523,-0.21578622426474547,0.03158690334074518,0.026899250900695764,0.001164130982230012,-0.0038594348412905534,-0.007186151360266485,0.0010486257373230636,0.0008957450549931691
8.97,0.2247177550487824,-0.2223772891494594,0.03234827205125953,0.027815360509329198,0.19915705995667227,0.027510799058061065,-0.007405661507949292,0.0010737680573665034,0.0009262515049606624
9.003,0.21810996021728637,-0.21586730439336366,0.031197141534587993,0.03455787157821363,-0.19843227722210324,0.20247780987640926,-0.007188977362316628,0.0010347287377795598,0.0011507771235545138
9.036,0.21809112387499896,-0.21588441665612676,0.030946032994618195,0.035087694656524705,-0.0005656559245469948,0.01591060295228464,-0.007189551431112369,0.001026303072658942,0.0011684202320622727
9.069,0.22468124350639346,-0.22244495434868763,0.0316212502660716,0.03654703624070901,0.19790149043226718,0.04382407159712636,-0.007408055863962198,0.001048480174809107,0.0012170163068156103
9.102,0.2180193348708638,-0.215886535440016,0.03042094990694004,0.0358281912812396,-0.20005731638227178,-0.021586935719802098,-0.00718962419217217,0.0010087291234197693,0.001193078769665279
9.131,0.21797195525515115,-0.21587575239725873,0.03015680362158822,0.0359220007504733,-0.0014228112826625099,0.0028171011781890033,-0.007189261429635535,0.0009999220389783209,0.001196202624990761
9.169,0.22454940246463534,-0.22242694838177998,0.03080075941910764,0.03688800415540844,0.19752093722174754,0.02900911125931354,-0.00740744542910122,0.0010211161470987807,0.0012283705383751011
9.203,0.21795118689038803,-0.21592765963919772,0.029630485478095558,0.02917178317358455,-0.19814461183925844,-0.23171834780251915,-0.007190869146605576,0.0009832028312267474,0.0009714203796803656
9.235,0.21792564422962077,-0.2159310325352202,0.02941726705812264,0.028433429324752305,-0.0007670468698878001,-0.022172788253220558,-0.007190966029445145,0.0009761910091996862,0.0009468331965142518
9.268,0.22453641740365723,-0.22250989761716397,0.03009897345207276,0.028883942194720708,0.198521716938032,0.013528915014066155,-0.007410060432947483,0.000998732538205635,0.0009618352750841996
9.301,0.20902731185872062,-0.20716762197219193,0.02782073883400325,-0.028310285961550094,-0.4657389052533519,-1.717544389077201,-0.006898244067336101,0.0009296825266614197,-0.0009427325225196182
9.334,0.20653267686253324,-0.20466917597176584,0.027681672981268772,0.022716849062866765,-0.07491396384947081,1.5323463971296352,-0.006815831533231198,0.0009192220164545961,0.0007564710737934633
9.368,0.21282263564674003,-0.21092389955979815,0.028365169453278907,0.023303684625605,0.1888876511773812,0.017622689571718777,-0.007024131610877394,0.0009418350421423848,0.0007760126980326465
9.403,0.20660060424189344,-0.20477868569449245,0.02737698957796,0.03530310066671474,-0.186847789935333,0.3603428240573496,-0.006819664496303933,0.0009076455338739833,0.0011755932522016011
9.436,0.20663471704997427,-0.20484454566040938,0.027140714867213186,0.0352511782776238,0.0010244086510758942,-0.0015592309036319182,-0.006821852231491888,0.0008997821964772359,0.0011738642366448727
9.47,0.21291090492834414,-0.21109904180959388,0.027717286744515884,0.03648599844159768,0.18847411046155751,0.03708168660582224,-0.0070301570349988384,0.0009187152582965495,0.0012149837481052028
9.503,0.22042914207509326,-0.21858800295385622,0.028430470284653595,-0.03628475572520067,0.22577288728976347,-2.185307932936887,-0.007278406730708442,0.000951132230629436,-0.0012082823656491826
9.535,0.21809032238068443,-0.2162345728884474,0.028390107500000497,0.027270086029002397,-0.07023482565792276,1.9085538064325243,-0.007201039504361624,0.0009421213008796287,0.0009080938647657799
9.57,0.22465825692925923,-0.22277308575646682,0.029042807526734046,0.028624514143727207,0.1972352717289728,0.04067351695870302,-0.007418803526887013,0.0009635900498223914,0.0009531963209861161
9.603,0.21800421922712235,-0.21620164931601726,0.02797653362840196,0.1148640557055511,-0.19982095201612243,2.589776022877594,-0.007201279038765267,0.0009178476059693475,0.0038249730549948517
9.632,0.21794777604830828,-0.21625107320996767,0.02714233630218168,0.11538895244630207,-0.0016949903547766971,0.015762664887416556,-0.007202879463246978,0.0008900028004819585,0.0038424521164618594
9.669,0.22454803313691787,-0.2229057544060467,0.02710800321546279,0.11882184339544224,0.19820591857686454,0.1030898182924978,-0.007424528098146252,0.0008880093748183417,0.003956767385068227
9.703,0.21797883662868772,-0.2164870311023198,0.02545856599455952,0.21906282160692073,-0.19727316841531986,3.0102395859302846,-0.007212046308809856,0.0008214689683090051,0.007294791959510461
9.735,0.2179288315454088,-0.21661728021402957,0.023873196925081927,0.2185346641599822,-0.001501654152520455,-0.015860583992147605,-0.007216184329673221,0.0007687242929776035,0.007277204316527408
9.77,0.2245526758486538,-0.2233743594420409,0.02297389332804702,0.224902754909137,0.19891424334069074,0.19123395643107466,-0.007441161351205254,0.000737169966002472,0.007489261738474263
9.802,0.20899345300831243,-0.2080510858025724,0.019824457034389217,-0.047840073029554564,-0.46724392913938023,-8.19047531347422,-0.006927572364702527,0.0006656728854408359,-0.0015930744318841672
9.835,0.20657381178579953,-0.2056108777952441,0.01992251610575637,0.20723471441325084,-0.07266189857396087,7.659903526810973,-0.006849076955953392,0.0006397901262264725,0.006900915989961253
9.869,0.21284000347978993,-0.211984468478875,0.019064422493373052,0.2128663995861797,0.18817392474445635,0.1691196748627286,-0.0070612736880709005,0.0006098213368707301,0.007088451106219785
9.902,0.21802634626166867,-0.21728293770649396,0.01798923694459828,0.19439637835239454,0.155746029485848,-0.5546552923058606,-0.007237410181440216,0.0005756185445760146,0.006473399399134739
9.935,0.2181273318289213,-0.21749552887872672,0.016589991216612514,0.19321742494237834,0.003032599617196145,-0.03540400630679273,-0.0072443283741363464,0.0005291432884254162,0.0064341402505811995
9.969,0.22476232752308328,-0.22421665597193777,0.015652317986658164,0.1991663349567454,0.19924911994480426,0.17864594637738931,-0.007468088317319292,0.0004964592117425162,0.0066322389540596225
10.0,0.2066000841216749,-0.2061893942807465,0.013020308952632627,0.16972569879181965,-0.5454127147570081,-0.8841031881359086,-0.006867295513840341,0.00041417112832470694,0.005651865769767595
10.036,0.20662470723081452,-0.2062842722619104,0.011856165298857716,0.16969936607057087,0.0007394327068953575,-0.0007907724098730615,-0.006870345223697533,0.00037539943520924267,0.005650988890150011
10.069,0.21282287779397135,-0.21253784669342415,0.011010950705103065,0.17499086998334962,0.1861312481428477,0.1589040214047671,-0.007078538538308432,0.0003460418837791872,0.005827195970445543
10.103,0.2180169573005585,-0.21778700181921057,0.010010769660357565,0.13155691982938747,0.1559783635611757,-1.3043228274463106,-0.007253014146528781,0.00031747223868585083,0.004380845430318603
10.135,0.21798985700321952,-0.21780169054911733,0.009055459691845832,0.13190472825902014,-0.0008138227429125792,0.010444697586566598,-0.007253435223046197,0.00028561744117099204,0.004392427451025371
10.17,0.22454828995580947,-0.22439327005582874,0.008342354327779087,0.1364959053425459,0.1969499385162148,0.1378731856914646,-0.007472901497674527,0.00026081778390283635,0.004545313647906779
10.203,0.2179064804396357,-0.21779059331176673,0.007105749960277868,0.11528710098465503,-0.1994537392244375,-0.6369010317684949,-0.007252863135730601,0.0002226999253450158,0.003839060462789013
10.236,0.21792832875716028,-0.21783810698200382,0.006270217012672744,0.11510314139866834,0.0006561056313687969,-0.005524311891492106,-0.007254391347880741,0.0001948959295586729,0.003832934608575656
10.269,0.22456820009695427,-0.22449834602974028,0.005600814645809153,0.11853976478880743,0.19939553572954924,0.1032019036077804,-0.00747614360834121,0.00017175205910812609,0.0039473741674672875
10.303,0.21799651522990865,-0.21794846897268721,0.0045766281087066705,0.09960315690675751,-0.19734789390527396,-0.5686669033648623,-0.007257923446207274,0.00014036562683442756,0.0033167851249950257
10.335,0.21803235486261985,-0.21799828383770545,0.003854349589050775,0.0996972566403923,0.0010762652465825442,0.0028258178268706323,-0.007259542567579268,0.00011629967122578535,0.0033199186461250643
10.369,0.22467858903438884,-0.22465542760077606,0.0032260223180040713,0.10263248686772321,0.19958661176483447,0.08814505187179883,-0.007481194745655193,9.464281516932692e-05,0.003417661812695183
10.402,0.2181051665240794,-0.2180921119387649,0.002386288873053663,0.07521735301631917,-0.19740007538466753,-0.823277292834956,-0.007262559248655443,7.036832129535033e-05,0.0025047378554434287
10.436,0.21814548249333698,-0.2181377193719646,0.0018403585109467303,0.07512760164100643,0.001210689767494777,-0.002695236495878025,-0.0072640551343945235,5.219781244508568e-05,0.0025017491346455145
10.469,0.2247679806158846,-0.22476402234546713,0.0013339299940490037,0.07747553233425526,0.19887381749392236,0.07050842922669162,-0.007484690939936436,3.4765155965163395e-05,0.0025799352267307004
10.502,0.21811517150464316,-0.21811394409927776,0.0007317307954646683,0.05889622362504038,-0.1997840573946379,-0.5579371984749214,-0.007263213576035075,1.724444169599693e-05,0.0019612442467138447
10.535,0.21805103867795492,-0.2180508269515371,0.00030386557195490597,0.05884713288815544,-0.0019259107113585633,-0.0014741963028509501,-0.007261097804562671,3.0045348192312595e-06,0.0019596095251755764
10.57,0.2246110145416599,-0.22461097855672627,-0.00012714253267968133,0.0606741753003036,0.19699627218333307,0.054866138502947644,-0.007479536220383434,-1.1789588367077979e-05,0.00202045003750011
10.603,0.21796684046637346,-0.21796611136591043,-0.0005637720434978381,0.03449437851061327,-0.19952474700559897,-0.7861800837744841,-0.007258259130936234,-2.294198929709691e-05,0.001148662804403422
10.636,0.21787944570373824,-0.21787792583399662,-0.0008138147477745746,0.03515866750307143,-0.0026244673464031047,0.019948618392136824,-0.007255317409775525,-3.134696979198055e-05,0.0011707836278522787
10.669,0.2244901585204596,-0.22448745696919786,-0.0011013337566850771,0.03621826852224625,0.19851990440604647,0.03181985042567032,-0.007475408390379586,-4.118206934167603e-05,0.0012060683417908003
10.703,0.2065861257589456,-0.20658226707211774,-0.0012626509553755954,0.1868820378150282,-0.5376586414869061,4.524437516299758,-0.006879014263029168,-6.345087118231942e-05,0.00622317185924044
10.735,0.20660076373598743,-0.2065850460598894,-0.0025483957162669908,0.02715237510493936,0.0004395788901447552,-4.796686567870536,-0.006879242734891624,-8.79713454658892e-05,0.0009041740909944807
10.77,0.212767418058605,-0.21274877130432582,-0.002816823712068824,0.0284675526165241,0.18518481449301996,0.03949482016770992,-0.007084488567069704,-9.715791444520198e-05,0.0009479695021302526
10.803,0.2180160791900704,-0.21799413836251402,-0.003092963788368471,0.059559357847041104,0.15761745139535763,0.9336878447602703,-0.007259097915414704,-0.00011019404287548105,0.001983326616306469
10.834,0.2180558230234975,-0.21802731389731897,-0.0035259536546621297,0.05946520420116827,0.0011935085113239066,-0.002827436812998017,-0.007260188561278955,-0.00012460231003494522,0.0019801912998989035
10.869,0.22470384146443587,-0.2246668277439819,-0.00407834284119386,0.0611655489408829,0.1996401934215728,0.05106140359503391,-0.007481261887760185,-0.00014342755443891246,0.002036812779731401
10.903,0.21813313807394905,-0.2180886903845389,-0.004403300165246903,0.051790949290515066,-0.19731842013473933,-0.281519509020055,-0.007262223353537552,-0.00015289202022995515,0.001724638611374152
10.936,0.21815990020083637,-0.21810752765000105,-0.004780003979383806,0.05166630033923822,0.0008036674740936851,-0.003743211750055465,-0.007262840165155878,-0.00016542171868128976,0.001720487801296633
10.97,0.22474833538651212,-0.22468557632922284,-0.005310936698279814,0.053208522998662675,0.1978509064767494,0.04631299277550917,-0.00748186910470201,-0.0001834823151144807,0.0017718438158554673
11.002,0.21806047129813044,-0.21799010744615865,-0.005539151412896821,0.043389453148318456,-0.2008367594108612,-0.2948669624727993,-0.007258934803539922,-0.0001896976107772939,0.0014448687898390047
11.034,0.21801411343903265,-0.217935535408412,-0.005852868088058792,0.04346013742634475,-0.0013921279008345278,0.0021226509917805073,-0.007257109770989397,-0.00020015160043591516,0.0014472225762972803
11.07,0.22457117610737118,-0.2244812744881496,-0.006353781741921716,0.0446137357135908,0.19690878883899474,0.034642591208590146,-0.007475066532455855,-0.00021713331470288964,0.0014856373992625737
11.103,0.2179005481200424,-0.21780391752951575,-0.006488634664614435,0.037627025607966734,-0.20031915877864223,-0.20981111428300495,-0.007252733197473735,-0.00022061505962687835,0.0012529799527452924
11.136,0.21788027590274509,-0.21777535397587086,-0.006760904387763835,0.03793377056288478,-0.0006087752942134199,0.009211560207749101,-0.007251775170689094,-0.00022971807994794593,0.0012631945597440632
11.168,0.22450941800483085,-0.22439232454898375,-0.007250065956349773,0.03905891874742071,0.1990733363989718,0.03378823376984767,-0.007472105302190932,-0.0002462862964280538,0.0013006619942891096
11.202,0.21793958670508462,-0.21781658157559583,-0.007321218744507025,0.029995982984471474,-0.19729223122361036,-0.27216023312159854,-0.0072531692093967155,-0.00024741880943383784,0.0009988662333829002
11.236,0.2179750038211093,-0.2178445559176799,-0.007540009803803471,0.029856049002155962,0.0010635770577979548,-0.004202221691156516,-0.007254097712585858,-0.000254688114478891,0.0009942064317717935
11.269,0.22461730122816584,-0.22447504251534844,-0.007992953068617656,0.03064399443730514,0.19946839060229868,0.023662025079554918,-0.00747488182491274,-0.00026997893712662005,0.0010204450147622613
11.3,0.21804709277564105,-0.21790096398309802,-0.007981513837966796,0.013581497524643351,-0.19730355713287653,-0.5123872946745281,-0.007256041760820635,-0.00026742496978321136,0.00045226386757062363
11.335,0.2180880280693563,-0.21793823912610177,-0.008081578669693053,0.013418936273436434,0.001229288099556712,-0.004881719255462963,-0.007257283003949055,-0.0002707377663749271,0.0004468505779054333
11.37,0.22472000189289332,-0.22456191442987625,-0.008427682856570582,0.013778206546131374,0.19915837307919007,0.010788897077926114,-0.007477847117350283,-0.0002823570390474056,0.0004588142779861748
11.402,0.19505014160684178,-0.19490954975721947,-0.007404401007983618,0.03535307338776706,-0.8909867953769229,0.6478938991482187,-0.006490341380816845,-0.0002503867434876961,0.0011772573438126432
11.435,0.20657673416538855,-0.20641845890503938,-0.008084981243403443,0.02160813505285657,0.34614392067708005,-0.41276091095827294,-0.0068736372361388656,-0.0002717025988512092,0.0007195508972601238
11.469,0.21286226100822736,-0.21269312026476433,-0.008484029324161313,0.02202455555236874,0.18875455984500936,0.012505120105470523,-0.007082576678487582,-0.0002851151708998845,0.0007334176998938791
11.502,0.2180168320213876,-0.21783716384328047,-0.008849242530167903,0.08647096906864381,0.15479192231712452,1.9353277332214736,-0.007253543280519029,-0.0003051229470834963,0.002879483269985839
11.535,0.21801516056080117,-0.2178091096623134,-0.009476390793031511,0.08650142904018585,-5.0194011604767095e-05,0.0009147138601212562,-0.00725257884365549,-0.000326009288528991,0.002880497587038189
11.57,0.22460255047633285,-0.22436122131912536,-0.010409036874951911,0.08883080448871458,0.19781951698293324,0.06995121467053263,-0.007470705124045779,-0.0003576703310740966,0.002958065789474196
11.603,0.21791492810402616,-0.21764995846999347,-0.010742972986702473,0.07727553321848815,-0.20082950066987054,-0.34700514325004295,-0.007247275349063614,-0.00036706555214542256,0.0025732752561756556
11.635,0.21789369068487172,-0.2176003844315068,-0.011301908490825881,0.07778926239928925,-0.000637760334968188,0.015427302726759781,-0.007245597262648161,-0.000385737934422747,0.0025903824378963325
11.669,0.2245292081592798,-0.22419604977742957,-0.012226879439559822,0.08007317637333718,0.19926478902126352,0.06858600522666439,-0.007465176799947505,-0.0004171077673492397,0.0026664367732321284
11.703,0.21795947091307655,-0.21760363885974243,-0.01244939017410367,0.07048257729915676,-0.1972894067928902,-0.2880059782036161,-0.007245708030857408,-0.00042306771037726445,0.0023470698240619205
11.735,0.21799515044313952,-0.2176094363380256,-0.012962207889623378,0.0703419292517059,0.001071457359248541,-0.004223665088614291,-0.007245882084428775,-0.00044012778324655915,0.002342386244081807
11.767,0.22463902035972444,-0.2242096477776189,-0.01388248218485316,0.0723581990385725,0.1995156131106581,0.060548642248246264,-0.007465617117809345,-0.0004712809155103553,0.0024095280279844648
11.801,0.21807016912840196,-0.21762024829550206,-0.01400093552209555,0.06241709614602637,-0.19726279973941366,-0.29853161839477876,-0.007246264539899227,-0.0004737616971142796,0.002078489301662678
11.835,0.21811012600029653,-0.21763054646428628,-0.014455874567847736,0.06228723917305994,0.001199906062899826,-0.003899608797790609,-0.007246592787722276,-0.0004888958451795837,0.002074165064462896
11.870000000000001,0.22475186923610033,-0.2242263065731143,-0.01536119024362701,0.06400218744442777,0.19945174882293687,0.05149994808912407,-0.007466185273103395,-0.0005194837945773803,0.002131272841899445
11.903,0.19496553840985806,-0.19448078673712027,-0.013739896562804676,0.013582641124424791,-0.8944844091964644,-1.5141004900901796,-0.006476106521717872,-0.00045900290167223484,0.00045230194944334556
11.936,0.2065940717873165,-0.20607380123967242,-0.01465260865152887,0.05404933007630258,0.34920520653028375,1.2152158844407743,-0.006861814794398779,-0.0004941068413131423,0.001799842691540876
11.969,0.21284549751402987,-0.21228196958739418,-0.015478087740142395,0.05527272455826634,0.18773050230370453,0.03673857303194463,-0.007068511278765838,-0.0005219252940256637,0.0018405817277902692
12.003,0.20638279469241674,-0.20580840504477085,-0.015386954148881289,-0.002451274267155444,-0.19407515980820195,-1.7334534181808343,-0.006853440811685165,-0.0005121056055955072,-8.162743309627629e-05
12.036,0.21801638644139285,-0.2174109450963045,-0.016236554723660594,0.037592894262137015,0.3493571095788619,1.202527583462236,-0.007239444179357009,-0.0005452084008957636,0.0012518433789291627
12.069,0.22457551807071055,-0.22393074911769173,-0.01700537904068718,0.03811792920420225,0.19697091979933046,0.015766815077033994,-0.007456532567668945,-0.0005710113121747343,0.001269327042499935
12.098,0.19494449757366353,-0.19436590699700448,-0.015008375377764756,-0.013162613512686095,-0.8898204353467574,-1.5399562377443945,-0.006472494044481625,-0.0004983601729910928,-0.000438315029972447
12.135,0.20650209969270777,-0.20589615506065082,-0.015807925503918723,0.026002391286217584,0.3470751387100374,1.1761262702373476,-0.006856113225139492,-0.0005293719831914079,0.0008658796298310457
12.17,0.2127189243003562,-0.21208055813070842,-0.016467471526250416,0.027201208219660454,0.1866914296591115,0.036000508511797896,-0.007062033285042455,-0.0005515649740672081,0.0009058002337146932
12.202,0.2179824711073347,-0.217312934632825,-0.017071794027855868,0.09196286163008807,0.15806446867803362,1.9447943967095376,-0.007235638972037854,-0.0005795700040440356,0.0030623632922819333
12.235,0.21800651689863462,-0.21728360174697542,-0.01773916069425032,0.09191119729400753,0.0007220958348322762,-0.0015514815639803366,-0.007234628682230128,-0.0006017855606584634,0.003060642869890451
12.27,0.2246515769952095,-0.2238496298682933,-0.01896507986438809,0.09458456896739088,0.1995513542514975,0.08028143163313382,-0.0074531858088669415,-0.0006432749391298021,0.003149666146614117
12.3,0.21808308997087011,-0.21724552569640584,-0.01909491283391686,0.08409818891209109,-0.19725186259277402,-0.3149063079669608,-0.007233376220041018,-0.0006459891774604781,0.0028004696907726334
12.335,0.21812046720847297,-0.21722842353055918,-0.019706603605657517,0.08394637869080035,0.001122439567653428,-0.004558865504226364,-0.007232779890441761,-0.0006663393750430224,0.002795414410403652
12.368,0.2247470776764138,-0.22377029707061,-0.02093091190127455,0.08617487763417796,0.19899731134957446,0.06692189019151974,-0.007450540629529374,-0.0007076896993446814,0.0028696234252181263
12.401,0.183377694858075,-0.18253095155734722,-0.017602008266973907,-0.02092273036214343,-1.2423238083585222,-3.2161443842739152,-0.006078484408841487,-0.000584029152272833,-0.0006967269210593763
12.434,0.20655729012946183,-0.20561727952896172,-0.0196837106444762,0.07582902258650047,0.6960839420836884,2.9054580465058226,-0.006846220594304948,-0.0006641113820221048,0.002525106452130466
12.469,0.21283241815904091,-0.21181196159112328,-0.020816607464842752,0.07741691567050821,0.18844228317054293,0.04768447699722937,-0.0070524370146851575,-0.000702283689083827,0.0025779832918279236
12.503,0.21804050513642842,-0.2169393785455055,-0.021885335648299455,0.06269574642731786,0.1563990083299551,-0.4420771544501606,-0.007223315321385093,-0.0007363219819672867,0.0020877683560296847
12.535,0.2179685868943264,-0.21682167445155126,-0.02233083878261254,0.06129445730518223,-0.0021597069700303078,-0.042080754418487326,-0.007219397873663275,-0.000750984701271129,0.0020411054282625683
12.569,0.22458388781764232,-0.22335473856880367,-0.02346451418948835,0.06326489844199679,0.19865768538486228,0.05917240651094762,-0.007436884259491442,-0.0007892020599090881,0.002106721118118493
12.603,0.21790837755330617,-0.21666731869414851,-0.023223566000993446,0.15074594109377717,-0.20046577370378857,2.627058337891303,-0.007213050410872152,-0.0007914503218862329,0.005019839838422781
12.635,0.21791949945430394,-0.21655906319910137,-0.024312144881560284,0.15067985833206798,0.0003339910209543306,-0.001984467318594318,-0.007209355453093023,-0.0008276828669605151,0.005017639282457864
12.67,0.22455629073626546,-0.22302590865617714,-0.02617196548440127,0.15514808017368187,0.1993030415003457,0.13418083608450102,-0.007424478416370807,-0.000890707185196906,0.005166431069783607
12.703,0.19514329790049464,-0.19369327857410776,-0.023744905784068314,0.07106637973026325,-0.8832730581312556,-2.52497598929185,-0.006449044579842657,-0.0007983363623442235,0.0023665104450177666
12.735,0.1950733241424152,-0.1935671102103252,-0.024194537333778472,0.15902870427264468,-0.0021013140564394447,2.6415112475189613,-0.006443621380935746,-0.0008227413782272274,0.005295655852279068
12.77,0.20101623511733965,-0.19932930880011862,-0.02598756306421443,0.16390358331281624,0.17846579504277604,0.14639276396911588,-0.0066352714326413185,-0.0008834954181455701,0.005457989324316781
12.802,0.2180583555668827,-0.21607132702795953,-0.029370530620157053,-0.0079073592280594,0.5117753888751662,-5.159487763990259,-0.007195303909174714,-0.0009770910932621363,-0.00026331506229437807
12.835,0.2180802933121916,-0.2161007918580761,-0.029316583863812796,0.07989355133781079,0.0006587911504173447,2.6366639809570627,-0.007194849292602711,-0.0009858133453329388,0.0026604552595490996
12.870000000000001,0.2247256303391279,-0.2226046494405504,-0.03080225606620436,0.08197484801233171,0.199559670478568,0.0625014016372649,-0.007411325680109866,-0.0010358310753238195,0.002729762438810646
12.903,0.20654648885559765,-0.20451904117835404,-0.028868908085728475,-0.011895682000129047,-0.5459201646705781,-2.8189348352090318,-0.006810674333552425,-0.0009599854566435526,-0.0003961262106042973
12.935,0.20660185404875386,-0.20458528565594908,-0.028795607120814432,0.07570967715028817,0.0016626184130995466,2.630791566078595,-0.006811474082795553,-0.000967480291121385,0.0025211322491045965
12.969,0.21282309346648057,-0.21067034844474924,-0.03019392983382994,0.07772572351892591,0.18682400653833944,0.060541932992124285,-0.007014013612205586,-0.0010145352389667201,0.0025882665931802333
13.002,0.2179943753967053,-0.21570855032398134,-0.031486013112588127,0.04436969132242079,0.1552937516584003,-1.0016826485436974,-0.007182317578054515,-0.0010537901383288607,0.0014775107210366124
13.035,0.2179765442279629,-0.21564415359720687,-0.03180208881361888,0.044160947143657585,-0.0005354705328049509,-0.006268593956852926,-0.007180169097792848,-0.0010642889168156096,0.0014705595398837978
13.069,0.22459415567974148,-0.22214252843812313,-0.033094286887823815,0.04563830039177802,0.19872707062398143,0.04436496240601905,-0.007396505975124644,-0.0011076601329566855,0.0015197554030462082
13.1,0.19499095762702096,-0.19281858464614723,-0.029025281589662937,-0.012619550960961538,-0.8889849265081237,-1.7494850256077945,-0.006421061800876311,-0.0009651924889313855,-0.00042023104700001924
13.135,0.20650548766713905,-0.20421773212864705,-0.030653455284438472,0.04278263450628481,0.34578168288642935,1.663729293310701,-0.0067997210986029235,-0.0010256036341634944,0.0014246617290592843
13.168,0.21273711578729146,-0.21033512149961656,-0.03187816019215938,0.0445238796131686,0.1871359795841563,0.05228964284936303,-0.007003370073781814,-0.001066734427270765,0.0014826451911185146
13.203,0.18358801263154012,-0.18147415065105962,-0.027779327340219182,-0.026625209107821988,-0.8753484431156557,-2.136609270900618,-0.006043498543400423,-0.0009223722956552424,-0.0008866194632904722
13.236,0.1950608893029668,-0.19284101984548133,-0.029344362331101093,0.029660302707019033,0.3445308309737743,1.690255610055286,-0.006421122384842245,-0.0009803381408639768,0.000987688080143734
13.269,0.20101914980346158,-0.19870150769078795,-0.030436974703709603,0.030680562797284896,0.17892674175659992,0.030638441149125006,-0.006616241338887821,-0.0010169308850267158,0.0010216627411495872
13.302,0.20651279022573918,-0.20409975672636602,-0.031477322488711795,0.023549785111216866,0.16497418685518303,-0.21413746805009098,-0.006796110239940438,-0.0010508594228676527,0.0007842078442035217
13.335,0.2180376967799677,-0.21546386995776437,-0.033402963340648954,0.07963334757383396,0.3460932899167725,1.6841910649434562,-0.0071734636848785885,-0.001121830332632837,0.0026517904742086713
13.369,0.22470375426365377,-0.2219591715754597,-0.03501290238920708,0.08177527836502137,0.20018190641699898,0.06432224598160383,-0.007389643841855628,-0.001175991534459685,0.002723116769555212
13.401,0.1949652858750053,-0.19250049578696077,-0.03090342728722556,0.02446139114960884,-0.8930470987582121,-1.7211377542165922,-0.006409846711389234,-0.0010316945648838629,0.0008145643252819745
13.436,0.20659486308494107,-0.20395630751337243,-0.032912946975258865,0.07999640459144453,0.34923655285092386,1.667718121376447,-0.006790277241364046,-0.0011050457793808455,0.0026638802728951028
13.468,0.21282086930813487,-0.21001173366563664,-0.034464389387075064,0.08186551394280601,0.18696715384966373,0.05612940995079547,-0.006991817776611018,-0.001157194897414014,0.0027261216142954407
13.502,0.2179972837947666,-0.2150227833210957,-0.03588897316370494,0.05888767393291094,0.15544788248143318,-0.6900252255223747,-0.007159082366333417,-0.0012021222622140184,0.0019609595419659343
13.535,0.2179793121216534,-0.2149342725020296,-0.036307561430816024,0.05868286235157862,-0.0005396898832795668,-0.006150497937907351,-0.007156125446386159,-0.0012160339509736172,0.0019541393163075684
13.57,0.22459722335005,-0.2213862086103219,-0.037842560348095924,0.06059595488182488,0.19873607292482315,0.05745022613352116,-0.007370884389962014,-0.001267594069270656,0.0020178452975647687
13.602,0.2179509480627224,-0.21476041549127184,-0.03715615291517409,0.12088131009616657,-0.19958784646629468,1.8103710274577083,-0.007149012291245161,-0.0012516899475725112,0.004025347626202347
13.636,0.21792630258516707,-0.21458484194978864,-0.03801603561427762,0.1214157810334242,-0.0007401044310906434,0.01605017829602486,-0.007143096641702404,-0.0012803757554485041,0.004043145508413026
13.669,0.22456364655531505,-0.22096022301963253,-0.04006758287362376,0.12500421229222947,0.19931963874318256,0.10776069846262076,-0.007355177228729066,-0.001349560664765511,0.004162640269331242
13.703,0.20653420136691553,-0.2030649279584291,-0.03769630442772361,0.09797570818100072,-0.541424780432418,-0.8116667901269892,-0.0067600024092217,-0.001266315372439701,0.0032625910824273245
13.734,0.20655646196969787,-0.2029627330949383,-0.03836275480296063,0.09819720255635414,0.0006684865700404799,0.006651482743345875,-0.006756558358690707,-0.0012885274940585367,0.0032699668451265933
13.769,0.21285150178189877,-0.20901786403163017,-0.04021559804932183,0.1010599610421482,0.18904023460062738,0.08596872329711905,-0.00695802841849528,-0.0013508883476175538,0.0033652967027035354
13.803,0.21803309785377856,-0.2139662909508865,-0.0419148911060969,0.07403899994128392,0.15560348564203574,-0.8114402732992277,-0.007123349693491287,-0.0014045476265221184,0.002465498698044755
13.836,0.21808593230926757,-0.21391412340449198,-0.04245258153858514,0.07385191539098988,0.001586620284955232,-0.005618154663484582,-0.00712159488408274,-0.0014224283767014885,0.0024592687825199635
13.870000000000001,0.22468426142400003,-0.22027800437085543,-0.04427886766892065,0.0755581126294744,0.1981480214634372,0.05123715430884433,-0.007333394895332846,-0.001483712527853455,0.0025160851505614977
13.902,0.21807794528638,-0.21369243362686807,-0.04351475647359115,0.1309516760930932,-0.1983878720006014,1.6634703742828463,-0.007112776135825177,-0.0014645517569756717,0.004360690813900003
13.935,0.21803509055818918,-0.21345869284645605,-0.04443745225595295,0.1303284924964989,-0.00128692877449916,-0.01871422211994898,-0.007104941168859029,-0.001495186749011482,0.004339938800133413
13.969,0.22462096557943642,-0.21970558365627565,-0.04673365690905895,0.13459808306560972,0.1977740246620794,0.12821593300633127,-0.0073126838999275,-0.0015726212866225622,0.004482116166084804
14.002,0.1834709212081444,-0.17928313189888537,-0.038976115064126286,0.02874197490336454,-1.2357370682069675,-3.1788621069743295,-0.005969506311589094,-0.0013007612405726197,0.0009571077642820393
14.035,0.20653411568718813,-0.20177781461238029,-0.044068747122430384,0.1347164300589081,0.6925884227941059,3.1824160707370437,-0.006715887129601841,-0.001482555443669232,0.00448605712096164
14.07,0.21274105694109718,-0.2076360885006709,-0.04632506946089483,0.13922074077313698,0.18639463224952113,0.13526458601287933,-0.006910681199676517,-0.0015586464831088978,0.004636050667745462
14.102,0.21801269762302705,-0.21255885702041957,-0.048458937535219154,0.0928582815221469,0.1583075279858819,-1.3922660435732757,-0.007075703821851993,-0.001624623330324228,0.003092180774687492
14.136,0.2179708149306326,-0.21236719129915796,-0.04910653949557999,0.0935423994086193,-0.0012577385103435563,0.020544080674847066,-0.007069269229654832,-0.0016462590869731077,0.0031149619003070232
14.17,0.22457547736075853,-0.2186433989577291,-0.05127581422097436,0.09676459480948789,0.19833821111489242,0.09676262465070826,-0.00727806167128523,-0.0017192117390156404,0.003222261007155947
14.203,0.1951006819583371,-0.18980264460543986,-0.0451578586891508,0.11825033692561394,-0.8851289910637065,0.6452174809647463,-0.006317451092822632,-0.0015161966477554713,0.003937736219622945
14.232,0.20655791336495347,-0.20075893070080816,-0.04860065141077578,0.07755325507968407,0.3440610032016926,-1.2221345899678642,-0.006683175242399003,-0.0016270320772378208,0.0025825233941534796
14.27,0.21284442990278377,-0.20673893531972937,-0.05061387125587019,0.08008822671310642,0.1887842804153243,0.07612527427694754,-0.006882150964694464,-0.0016946197974436997,0.002666937949546444
14.303,0.20656260304223054,-0.2005055906591305,-0.04965498051570776,0.11956488763318861,-0.18864344926586274,1.1854853129153808,-0.0066735268586523904,-0.001666798165649318,0.003981510758185181
14.335,0.21803261856510672,-0.21142891540588493,-0.053254450411665016,0.07874271584865113,0.3444449105968825,-1.225891044580705,-0.007038249872565167,-0.0017826015713573865,0.0026221324377600826
14.369,0.22467167834506022,-0.21772225237756926,-0.055447126796834605,0.08074116465999563,0.19937116456316795,0.06001347781815331,-0.00724766016333956,-0.0018561334946860376,0.0026886807831778547
14.403,0.19499935296719892,-0.18883766214471823,-0.04863213971586584,0.12705777451767472,-0.8910608221579969,1.3908891849152878,-0.006284849486856576,-0.001632748129887264,0.004231023891438568
14.435,0.2065402669321636,-0.19979416894619015,-0.05235620230221666,0.08545584584107291,0.3465739929418822,-1.2493071674655198,-0.00665065624647818,-0.0017529252921663987,0.002845679666507728
14.47,0.21282267132092939,-0.20571702083353238,-0.05453436318095548,0.0871954212464705,0.18866079245542908,0.052239501663591516,-0.006847730769937668,-0.001825936884760707,0.002903607527507468
14.502,0.18350655097897445,-0.17724241521133763,-0.047537148655033466,0.1311726723181208,-0.8803639742328809,1.3206381703198284,-0.005898696439015184,-0.0015958722698196216,0.004368049988193423
14.535,0.19507321048152898,-0.18819170847877012,-0.051355995827289,0.08878579260225623,0.3473471322088448,-1.2728792707466834,-0.006264246734487255,-0.0017194160140445733,0.002956566893655133
14.57,0.200956769949112,-0.19371045243341037,-0.053477883339038336,0.09188742766290729,0.17668346749498529,0.0931421940135453,-0.006447823556309817,-0.001790679364552247,0.003059851341174813
14.603,0.17212023945820124,-0.16577281094042878,-0.046311467090315736,0.14148901178150733,-0.8659618766039265,1.4895370606186196,-0.00551658120841292,-0.0015551704450369338,0.004711584092324195
14.635,0.1835367177960689,-0.17653363937423827,-0.050215544890404556,0.10087675448839668,0.34283718732335305,-1.2195873060994187,-0.005875750614023807,-0.001682047907927075,0.00335919592446361
14.669,0.18909832539031726,-0.18170821545329371,-0.052347885365138756,0.10430246055404191,0.16701524307052157,0.10287405602538215,-0.006047844199527928,-0.0017536890256456626,0.003473271936449596
14.701,0.14920592177311226,-0.14323051173031504,-0.04180224397847787,0.06813088277098252,-1.1979700785947447,-1.0862335670588406,-0.004767992928717226,-0.0013974238595044202,0.002268758396273718
14.735,0.1606557773430502,-0.15411930877558258,-0.04535986613997403,0.02881653090086439,0.3438395066047429,-1.1806111672708146,-0.0051314475277911276,-0.0015129455128597953,0.0009595904789987843
14.77,0.1655332121131258,-0.15875337793940045,-0.04688933039955885,0.029870469020640552,0.1464695126148829,0.03164979338667153,-0.00528571011238806,-0.0015640434483205018,0.0009946866183873305
14.803,0.18289023102018848,-0.17534787852574615,-0.05198036262992102,0.06825144288869134,0.5212317990108911,1.1525817978393627,-0.005837112369256338,-0.0017375798234333674,0.002272773048193422
14.835,0.21294283239269374,-0.2040230378045625,-0.0609856533327383,0.026635903275279475,0.9024805216968546,-1.2497159043066624,-0.006793065698459405,-0.002033834779762908,0.0008869755790668066
14.869,0.2246330923326302,-0.21516646659738717,-0.06452455209387704,-0.038026864444937365,0.3510588570551492,-1.941824856462968,-0.007166401925007159,-0.002144130218286353,-0.0012662945860164145
14.902,0.2014631139853842,-0.1930460563127134,-0.05762470337274286,0.02267042392829928,-0.6957951455629434,1.822741392589689,-0.006427708821799146,-0.0019213286952480019,0.0007549251168123661
14.936,0.20657042111242577,-0.19789532038675767,-0.05923496473863607,-0.0411714499560319,0.15337258639764495,-1.9171733899198553,-0.006591264351554507,-0.001968006048053891,-0.0013710092835358624
14.969,0.21286005908715097,-0.20400431239431155,-0.060758911108655986,-0.04279266060809946,0.18887801725901512,-0.048685004566593526,-0.006794782954683911,-0.0020184305623476132,-0.0014249955982497122
15.003,0.18989472222434325,-0.18207147161534434,-0.05394427451067764,0.031333568195555925,-0.6896497556398713,2.226012876986648,-0.006062041811427313,-0.0017995068711694347,0.0010434078209120123
15.036,0.19505453304752507,-0.18696079235763047,-0.05560515248963036,-0.0334796124109552,0.15494927396942387,-1.9463417599552886,-0.006226825340447186,-0.0018481804853129175,-0.0011148710932848082
15.07,0.20098051291883273,-0.19270463137597732,-0.057079695333505445,-0.03433537685449551,0.1779573534927226,-0.025698631938147462,-0.006418149527309088,-0.0018970846704139807,-0.0011433680492547007
15.102,0.1835913033003617,-0.17609096783596648,-0.051939750616632974,0.057375826964358,-0.5221984870411723,2.754090204770375,-0.005862173432145505,-0.0017351941848946606,0.0019106150379131217
15.135,0.18360042908591162,-0.17600015763933774,-0.05227869615301381,0.05748603307874243,0.0002740476141119933,0.0033094929244572705,-0.005859135464305867,-0.0017464889257669423,0.001914284901522123
15.169,0.1891156399843799,-0.1811836477962553,-0.05419604282550636,0.05994525188315416,0.1656219489029517,0.07385041454689882,-0.006031610253876577,-0.0018107486847381696,0.0019961768877090336
15.202,0.22140524418763005,-0.21199186475127432,-0.06387277536682998,0.05907505952242255,0.9696577838813855,-0.026131902724672973,-0.007057232542018979,-0.002133905338918106,0.001967199482096671
15.235,0.21803222695045282,-0.20863811633355997,-0.06331025510734951,0.12348054702211993,-0.10129180892424108,1.9340987237146359,-0.006943295359471246,-0.0021225093045016685,0.004111902215836594
15.27,0.21624426462023155,-0.20666725053885818,-0.063641413685222,0.053679688596127234,-0.05369256246910723,-2.0961218746544352,-0.006880121733620708,-0.0021254086116430032,0.0017875336302510371
15.302,0.206565402769135,-0.1973080609061274,-0.06114568441549154,0.11665325043388143,-0.29065651204494186,1.8910979530857115,-0.006566387215701348,-0.002048907364882781,0.003884553239448252
15.335,0.20655583332433677,-0.19705991966153838,-0.06190880666996611,0.11633980140952366,-0.0002873707146610537,-0.00941288361434754,-0.006558085624636931,-0.0020742690040040806,0.003874115386937138
15.37,0.21280954050992384,-0.2027775012126782,-0.06456923055130219,0.11936472163871442,0.1877990145821943,0.09083844532104396,-0.006748199827731849,-0.002163569501186617,0.003974845230569191
15.402,0.21802374996928447,-0.20748132642004646,-0.06697652377995746,0.010917488564207286,0.15658286664746637,-3.256673665901115,-0.006908722681384121,-0.002231573852194761,0.0003635523691881027
15.435,0.21802609162684783,-0.20745919140152155,-0.06705266984323216,0.010218777066906593,7.032004694756503e-05,-0.020982327246267057,-0.0069080111193096155,-0.002234029019093667,0.0003402852763279896
15.468,0.22462312401959875,-0.21371297077165952,-0.06915427657257256,0.01011964169746756,0.1981090808633909,-0.0029770381212922935,-0.007116253867453099,-0.002304036200582132,0.00033698406852566976
15.501,0.21805653251907348,-0.2074426902972035,-0.06720254174136772,0.046990183940379446,-0.19719493995571383,1.1072234907781346,-0.006906087991644139,-0.002243248072692875,0.0015647731252146357
15.535,0.21805211164944963,-0.20733307609773297,-0.06752569104152677,0.04728349057810373,-0.00013275884756306703,0.008808007138867363,-0.006902418405065661,-0.0022540397897934253,0.0015745402362508543
15.569,0.2246364914773643,-0.21348398290540424,-0.06990094667531366,0.04929362363347499,0.19772912396140185,0.06036435601715496,-0.007107103089960964,-0.0023335348608551935,0.0016414776669947174
15.603,0.21802043879951838,-0.20708475627027634,-0.0681822224250192,0.12002774541700892,-0.19868026059597385,2.124147801307325,-0.006891366669529439,-0.0022842429268610303,0.003996923922386398
15.635,0.21797717427731164,-0.20676954370071898,-0.06899568322524219,0.1207457405391847,-0.0012992349011032244,0.021561415080353825,-0.0068807882988745,-0.002311392361694168,0.004020833159954851
15.67,0.22456590183868447,-0.21273197493050505,-0.07193713304537967,0.12487229083585599,0.19785968652771246,0.1239204293294682,-0.0070789738923904095,-0.002410227803365391,0.004158247284834005
15.703,0.18700759665539213,-0.17690224219698275,-0.06064188249474026,0.05362390467081237,-1.1278770325313014,-2.1395911761274355,-0.005889038635400092,-0.0020246329647637127,0.001785676025538052
15.735,0.19505484004552207,-0.184401394994597,-0.0635807844339059,0.1249149559125568,0.24165896066456266,2.1408724096619944,-0.006136145322224703,-0.002130005129595283,0.0041596680318881415
15.769,0.20097831803959687,-0.1897271966995325,-0.06630139632437809,0.1285846502897426,0.1778822220442884,0.11020103234792225,-0.006313169600447922,-0.002221355740039243,0.00428186885464843
15.803,0.1755169571798024,-0.16544176145193665,-0.058610799562342414,0.042783150070380735,-0.7646054312250592,-2.576621628209065,-0.005507818564095307,-0.0019556631889155727,0.0014246788973436787
15.835,0.18359060439064057,-0.1729644391121674,-0.06155333316022799,0.11389810824923105,0.24245186819333842,2.1355843296952046,-0.00575581498646665,-0.0020606435991985055,0.0037928070046993946
15.868,0.1891471693756867,-0.177957584917596,-0.06409172842989438,0.11696801686006647,0.16686381336474898,0.09218944777283543,-0.005921816180165022,-0.0021457898909644,0.003895034961440214
15.903,0.16407517394553728,-0.15415108120964663,-0.05619703610649988,0.037212098431793426,-0.752912775680163,-2.3950726254736647,-0.005132070299323394,-0.0018745410878828195,0.0012391628777787213
15.936,0.17209824747429178,-0.1616157122724475,-0.05914531537148174,0.10759697214992872,0.24093313900163674,2.1136598714154737,-0.005378263372003042,-0.001979176023015578,0.003582979172592627
15.97,0.17733337316161726,-0.1663125342298771,-0.061540768559657705,0.11057233751967634,0.1572109816013658,0.08935031140383227,-0.005534422120625441,-0.0020594987489886783,0.003682058839405222
16.002,0.13045595965366494,-0.12218091251847953,-0.04572288295055671,0.03863105357832814,-1.4077301353739435,-2.160398917157603,-0.004067643992201509,-0.0015251883993839133,0.0012864140841583273
16.027,0.13773601655238174,-0.1289369751837705,-0.048440341515907245,0.11811615363003605,0.21862032728879285,2.38693994149273,-0.004290417961715712,-0.0016215029858244415,0.0039332679158802005
16.07,0.1419383497811105,-0.13267348001560836,-0.050440488093721314,0.12129144669360337,0.12619619305491772,0.09535414605307248,-0.004414622844909293,-0.0016885857279676877,0.004039005174896993
16.103,0.137763403049372,-0.12857226158839874,-0.049476547674510256,0.10542982933313692,-0.12537377572788252,-0.4763248456596529,-0.0042785554260144475,-0.001655081183930524,0.0035108133167934597
16.136,0.13775798311053208,-0.12839271517246004,-0.04992567076490001,0.10560692043820047,-0.00016276092612399316,0.005318051203109472,-0.004272545358135836,-0.001670039051965661,0.003516710450592076
16.17,0.14191734019415017,-0.13208761185468154,-0.05189792136790392,0.10912849173653075,0.12490561812666927,0.10575289184175009,-0.004395367738957563,-0.0017361888660730781,0.003633978774826474
16.203,0.11895028967101323,-0.11055254018985064,-0.04390110784922647,0.02968981498413364,-0.6897012169110192,-2.385545848420333,-0.0036806763704109,-0.0014637263631642164,0.0009886708389716503
16.236,0.12624296555782064,-0.11728423969771712,-0.046708601684930816,0.09710997912611814,0.2189992758801022,2.024629553813348,-0.0039030435438090565,-0.0015617084101473939,0.0032337623048997346
16.269,0.13005205667765565,-0.12066678846937319,-0.04850838697148879,0.10051353710917221,0.11438712071576627,0.10220894844006216,-0.004015493280869005,-0.0016220507822427514,0.003347100785735435
16.3,0.10745812609379606,-0.0995686460891326,-0.04041452188962813,0.031676054019177016,-0.6784964139297176,-2.0671916843842397,-0.0033149255645371837,-0.001347551893878265,0.0010548125988385948
16.326,0.11472287222502849,-0.10625445014896209,-0.043258863081476605,0.10003175868354583,0.21816054448145433,2.052723863794859,-0.0035358674745029225,-0.0014464104362542124,0.0033310575641620765
16.37,0.11819083780971654,-0.10931736247518495,-0.04493092925404222,0.10373798739065536,0.10414311065129282,0.11129815937265854,-0.0036376766957970236,-0.0015024844352502877,0.003454474980108824
16.402,0.11471024634460421,-0.10594681051664077,-0.04397401457441423,0.08804019005143299,-0.10452226621958945,-0.4714053255021733,-0.0035258772690717833,-0.001469504082167676,0.0029317383287127186
16.435,0.1147135980560184,-0.10582052695941176,-0.0442857274185505,0.0879781598954783,0.0001006519944201233,-0.0018627674460866158,-0.003521658347453548,-0.0014798743044046776,0.002929672724519428
16.47,0.11819257888799004,-0.10889565768043998,-0.045948029800397125,0.09048715179706136,0.1044738988580071,0.07534510214964145,-0.003623914752404715,-0.0015355302501833517,0.0030132221548421437
16.502,0.11471633159627413,-0.10555798971567791,-0.04491489220838849,0.09754169067531802,-0.10439181056203913,0.21184801436206188,-0.00351264586940944,-0.0015013718803456165,0.0032481382994880904
16.536,0.114713085180243,-0.1054085602563874,-0.04525624085411016,0.09733317116397462,-9.748997090506036e-05,-0.006261847187489561,-0.003507656675491803,-0.0015127185138746465,0.0032411945997603553
16.57,0.11818319072727394,-0.10844550942053188,-0.04697699497627044,0.09998813795055818,0.10420737378471319,0.07972873232983653,-0.0036086245446275314,-0.0015703428970858626,0.0033296049937535876
16.603,0.11471215835586222,-0.10510806795913916,-0.04594750618431205,0.12247174867290381,-0.10423520634870029,0.6751835051755444,-0.0034969690090836583,-0.001537184817612067,0.004078309230807697
16.635,0.1147155225078504,-0.10492288320331196,-0.04637714614498486,0.12250035669878598,0.00010102558523056287,0.000859099876341466,-0.003490772460034133,-0.0015514808763660438,0.0040792618780695735
16.67,0.11816044565918303,-0.10787796761549456,-0.04821032069512759,0.12559340028711868,0.10345114568566453,0.09288419184182298,-0.003588968805726535,-0.0016129108980436368,0.004182260229561053
16.702,0.11470563381180396,-0.10452714991067691,-0.04723830394625251,0.02377498928783726,-0.10374810352489704,-3.0576099399183607,-0.0034801310949282693,-0.0015744130972487138,0.0007917071432849809
16.727,0.11468989920575888,-0.10447538500286309,-0.04731455281761266,0.023413367088256844,-0.00047251069204440213,-0.010859525512925438,-0.00347841581618597,-0.0015769305598003936,0.000779665124038953
16.769,0.11817987409934837,-0.10761649092099061,-0.04883823833831616,0.02402880056351364,0.10480405085854315,0.01848148574344738,-0.0035829781708196875,-0.0016277467672085764,0.0008001590587650043
16.802,0.10746624559187735,-0.09782492175408665,-0.04448908434009989,0.23442278198588234,-0.3217305858099403,6.318137580251312,-0.003251754445930705,-0.0014941860264262236,0.007806278640129883
16.836,0.1147406731109567,-0.10407274345373597,-0.048314450591601235,0.22612672266773012,0.2184512768492297,-0.24913091045502164,-0.0034595322788140686,-0.0016219039135950907,0.007530019864835414
16.87,0.1182360428658883,-0.10686520537012968,-0.05059238790355897,0.23265873962912892,0.1049660587066547,0.19615666550747132,-0.00355204959415809,-0.001698494697616254,0.007747536029649994
16.902,0.10749864357643305,-0.09680114576137848,-0.04674929464769862,0.03929333090788998,-0.3224444231067645,-5.8067690306678355,-0.003222458812127983,-0.0015588598569585218,0.0013084679192327364
16.934,0.11477694304039572,-0.10328976082536558,-0.05004969492751195,0.030326126364456873,0.2185675514703506,-0.2692854217247179,-0.0034387069686001746,-0.0016683911619990164,0.001009860007936414
16.97,0.11829543918690401,-0.10640396963993151,-0.05169145168484857,0.030893599357105294,0.10566054494018881,0.0170412310104631,-0.0035423662151915667,-0.0017231474788158541,0.0010287568585916065
17.002,0.11483239556008314,-0.10323736739492038,-0.050284441365432586,0.046096132617466534,-0.10399530410873488,0.45653253034117836,-0.0034365178882822555,-0.0016771096292091381,0.0015350012161616357
17.036,0.11483276335015334,-0.10316038952659587,-0.05044301310739999,0.04627606335142646,1.1044746852997623e-05,0.005403325344141813,-0.0034339454309004077,-0.0016823983851453276,0.001540992909602501
17.07,0.11830709704370876,-0.10620135827067805,-0.05213291390640469,0.047894340916455495,0.10433434515181433,0.0485969238747459,-0.003535119417793562,-0.0017388453192567928,0.001594881552517968
17.103,0.10740109970236227,-0.09633571017588273,-0.04748080835648315,0.22663669623164068,-0.32750742766806284,5.367638297753308,-0.0032019824596222425,-0.0015932010456603668,0.007547001984513635
17.135,0.11479661760943066,-0.10258333665160536,-0.05152593964198269,0.23296480587244553,0.22208762483688876,0.19003332254669222,-0.0034093355354833516,-0.0017290466841990446,0.007757728035552437
17.169,0.11827885623518335,-0.10528007202590202,-0.05390727470874457,0.24037258675763068,0.1045717305030836,0.22245588243799247,-0.00349860466250403,-0.0018091239055260343,0.008004407139029102
17.202,0.11480167646976684,-0.10176295286000232,-0.05313874617905433,0.2585563811936731,-0.1044198127752704,0.5460598929742462,-0.003381046854965684,-0.001784086427916251,0.008609927493749314
17.236,0.11479317464713597,-0.10129416383948095,-0.05400893738658674,0.2588622606610056,-0.0002553099889151405,0.009185569589565012,-0.0033653023707294785,-0.001813013360609968,0.008620113280011487
17.269,0.0766014196496444,-0.06728035999409643,-0.036621450700453057,0.23325346111344056,-1.1468995494742211,-0.7690330194463975,-0.002235677415314349,-0.0012281830339219938,0.007767340255077571
17.302,0.04065461683539362,-0.03555561524517291,-0.019712840854881824,0.22639347850028835,-1.0794835679955188,-0.20600548387844472,-0.0011815163987428977,-0.0006608943555125343,0.007538902834059603
17.336,0.012701286230230655,-0.011061514956155028,-0.0062422398846091656,0.15876603391903663,-0.8394393575124013,-2.0308541916291807,-0.0003677972552086341,-0.00020883931627829758,0.00528690892950392
17.37,-6.082014731685188e-09,5.28093271976264e-09,3.0170602920352806e-09,-1.2860201792364023e-07,-0.3814201895569185,-4.767752628259896,1.7585506723220377e-10,1.0046810020700375e-10,-4.28244719685722e-09
17.403,-5.354784483692177e-09,4.6494883527778e-09,2.656308514494141e-09,-1.2610310793579548e-07,2.1838746185976307e-08,7.504234197731987e-08,1.5482796326752294e-10,8.84550677352937e-11,-4.19923349426199e-09
17.435,-2.8837901836268098e-09,2.5039567780232814e-09,1.4305405541170852e-09,-8.595322651825808e-08,7.420403303499601e-08,1.2057021446707928e-06,8.338176118177677e-11,4.763699821938417e-11,-2.862242443057994e-09
17.469,0.01308624277313384,-0.011362611097808426,-0.0064915960254284455,-0.26185193972704757,0.3929803500577784,-7.863419032246877,-0.0003793126228608897,-0.0002145177524798357,-0.008719669592910685
17.503,0.012701431493428802,-0.011083004680091777,-0.006204302478387781,-0.6753250285055986,-0.011555894285436559,-12.41660927262916,-0.00037135593935982324,-0.00020243620412991296,-0.022488323449236437
17.535,0.012701358964486511,-0.011219650856789604,-0.005953482526763822,-1.0923680401627651,-2.1780463150533043e-06,-12.523814163878873,-0.00037713736818663796,-0.00019141271402882924,-0.03637585573742008
17.57,7.582650007386725e-08,-6.82290501696941e-08,-3.308254564560523e-08,-1.3987996217052685,-0.3814199140536467,-9.202149595870972,-2.29685867218932e-09,-1.0483443721935578e-09,-0.04658002740278545
17.602,3.805768353112735e-08,-3.4980492182158695e-08,-1.4991745810591106e-08,-1.3576580974548176,-1.134198694977174e-06,1.2354812087222498,-1.1757366984114006e-09,-4.727280776807497e-10,-0.04521001464524543
17.635,-2.936421300372896e-05,2.7485137588576242e-05,1.0335580151370226e-05,-1.3572908757123299,-0.000882951071689492,0.011027679954585918,9.227201514881354e-07,3.233773837057624e-07,-0.04519778616122059
17.67,-3.771604454911809e-05,3.586627351350701e-05,1.1666637934099373e-05,-1.397948047551693,-0.0002508057521137878,-1.2209360912721658,1.2029566049872693e-06,3.605642955939021e-07,-0.046551669983471385
17.702,-1.5338003450309982e-05,1.4790738464469623e-05,4.060591769358226e-06,-1.3566382328705942,0.0006720132462104538,1.2405349754083737,4.95417861633023e-07,1.2404827385737145e-07,-0.04517605315459079
17.735,-1.4411125061894734e-05,1.4055050341734157e-05,3.1837219477977557e-06,-1.3568280374605133,2.7834185838295736e-05,-0.005699837535108984,4.702686157019987e-07,9.541022919395719e-08,-0.045182373647435096
17.769,0.013098937114069701,-0.012892952255022332,-0.0023138573136793116,-1.4516160535431226,0.39379424141536323,-2.8464869694477275,-0.0004310300569214952,-6.664666961815935e-05,-0.04833881458298599
17.803,-7.437999046147639e-06,7.375969356639111e-06,9.58595775295295e-07,-1.6736337370584438,-0.3935848382317071,-6.667197703162796,2.463819358676245e-07,2.5062038129029745e-08,-0.055732003444046184
17.835,-4.6836212029042525e-06,4.670973911695154e-06,3.439626266871889e-07,-1.6735588548359952,8.271404934664822e-05,0.0022487153888455826,1.557820091900064e-07,7.114963761140353e-09,-0.05572950986603865
17.868,-2.0666857573040623e-06,2.066359239128311e-06,3.673573617794068e-08,-1.7778329137107824,7.858665001802372e-05,-3.13135311936298,6.880577517048806e-08,-8.136542986571702e-10,-0.05920183602656906
17.901,2.835777101828163e-06,-2.8333442264488455e-06,1.1744047727224271e-07,-1.7257962901174122,0.0001472211068808476,1.5626613691702775,-9.418609303778712e-08,6.61898425144049e-09,-0.05746901646090983
17.936,7.572920525861977e-06,-7.535918485993532e-06,7.477017209306019e-07,-1.7260285231356454,0.0001422565592802947,-0.006973964511506406,-2.500925927518536e-07,3.209456733875134e-08,-0.057476749820417
17.97,0.013100563369447512,-0.012940721736377808,0.002040216051929014,-1.317266042979689,0.3931828963640135,12.275149554232923,-0.0004292980148803347,7.736718623047401e-05,-0.043864959231223646
18.003,0.002174468032716799,-0.0021310212446507596,0.0004325039654782303,-1.5683361015846096,-0.32811097107299436,-7.539641399547165,-7.05547515051775e-05,1.6248459838344974e-05,-0.052225592182767504
18.036,1.9309725557304814e-05,-1.8697614419056273e-05,4.823351131187712e-06,-1.5963372024590212,-0.0647194686834683,-0.8408739001324821,-6.1806930715861e-07,1.770869913674749e-07,-0.05315802884188541
18.069,0.002237946051467704,-0.002134240909578691,0.0006733634005205591,-1.4514236819510653,0.06662571549280477,4.351757372611289,-7.05007810139548e-05,2.4131437956361823e-05,-0.04833240860897048
18.102,3.6358639213837114e-05,-3.410477037108144e-05,1.2602193595472965e-05,-1.4380595081718357,-0.06611373610371972,0.4013265399168049,-1.1252087033122303e-06,4.4668010189729744e-07,-0.04788738162212213
18.136,2.8888924446789073e-05,-2.658771841744773e-05,1.1298813435347894e-05,-1.438123830558092,-0.00022431575877021145,-0.0019316031908768539,-8.760251215382674e-07,3.973026672644225e-07,-0.04788952355758447
18.17,3.043450679638124e-05,-2.7408245066499794e-05,1.323054444509618e-05,-1.3998330989023346,4.641388437213712e-05,1.1498718214942116,-9.020972769514214e-07,4.616861475448854e-07,-0.04661444219344775
18.203,2.8800206102566443e-05,-2.532487264759467e-05,1.3715053661339297e-05,-1.3586629541260828,-4.907809891335724e-05,1.2363406839715256,-8.327007219508085e-07,4.756295919743411e-07,-0.04524347637239856
18.235,2.7378158110652522e-05,-2.3460111517657775e-05,1.4113352157122331e-05,-1.3583074998293274,-4.270414390131894e-05,0.010674303205868792,-7.703282895192741e-07,4.874793756160899e-07,-0.045231639744316605
18.27,1.8818430217518794e-05,-1.5670225345521517e-05,1.0420045751924481e-05,-1.399055166690033,-0.0002570488856796915,-1.2236536594806495,-5.135483854052314e-07,3.590152158073778e-07,-0.0465885370507781
18.302,1.5558714616170142e-05,-1.2540562526848738e-05,9.209120045781984e-06,-1.3575217233789099,-9.78893573978574e-05,1.247250549883579,-4.105282462141581e-07,3.1599658915827185e-07,-0.0452054733885177
18.336,3.2386269423453875e-05,-2.52109018453814e-05,2.032931074363044e-05,-1.3570985445902743,0.0005053319761947066,0.012708071730796223,-8.239433683524507e-07,6.957020528294689e-07,-0.04519138153485614
18.368,4.69678290715125e-05,-3.5192608508061395e-05,3.110397521361441e-05,-1.398159496914721,0.00043788467411587454,-1.2330616313647667,-1.1473829489686122e-06,1.0626647233234853e-06,-0.046558711247260215
18.402,5.986281195191623e-06,-4.296102018551563e-06,4.16882117559653e-06,-1.3563722988696878,-0.0012306771134030293,1.2548708121631615,-1.3987699301073705e-07,1.4200481886235284e-07,-0.04516719755236061
18.435,-6.986582377137623e-06,4.789179515009778e-06,-5.08685491099763e-06,-1.3560752872659478,-0.00038957548265252984,0.008919267379578396,1.556014761655535e-07,-1.729349344082458e-07,-0.04515730706595607
18.47,-1.667565699123672e-05,1.0871132126066762e-05,-1.2644999896677788e-05,-1.3970937652461606,-0.00029096320162459743,-1.231786125531914,3.5208491112841516e-07,-4.293460151247544e-07,-0.046523222382697155
18.503,-2.4618673263260233e-05,1.5163760451616467e-05,-1.939431468779334e-05,-1.3560834872807732,-0.00023852901717788332,1.2315398788404612,4.902020013787671e-07,-6.570105180225694e-07,-0.04515758012644975
18.531,-2.5283847616816143e-05,1.4658437531081748e-05,-2.0601047533020097e-05,-1.356267992913271,-1.9975205812489783e-05,-0.00554070968461962,4.7247115707113717e-07,-6.968026260597617e-07,-0.04516372416401193
18.57,-2.454934717172614e-05,1.3315010045248642e-05,-2.0624765551464236e-05,-1.397574860606875,2.2057070423123248e-05,-1.240446477285403,4.272509688001825e-07,-6.968724618380578e-07,-0.04653924285820894
18.602,-2.133365797228102e-05,1.072453571726021e-05,-1.844205238381779e-05,-1.3566694424835781,9.656724322658014e-05,1.2283909346335387,3.4313582130286046e-07,-6.219770869096771e-07,-0.04517709243470316
18.636,0.0021715260795692375,-0.001005745839575434,0.0019245780889395074,-1.72435240824024,0.06585164377001557,-11.041530503203056,-3.163342881842204e-05,6.50145267437009e-05,-0.057420935194399995
18.667,-6.907420204104685e-06,2.8425780587312325e-06,-6.295411333351727e-06,-1.7233797026296396,-0.06541842341661687,0.02921037869670769,8.859215564956966e-08,-2.122375409032249e-07,-0.057388544097567
18.7,-7.736316633797188e-06,2.774031810859257e-06,-7.221865587970187e-06,-1.6728400256171676,-2.489178467545054e-05,1.5177080183925515,8.563095020226894e-08,-2.4293601276030923e-07,-0.05570557285305169
18.735,-2.7500054417034563e-06,8.416174906801022e-07,-2.6180546076772255e-06,-1.6736931880871204,0.00014973907483764958,-0.025620494593177695,2.5582502634331392e-08,-8.791688588507189e-08,-0.055733983163301117
18.765,2.960644511933612e-06,-7.47665258331123e-07,2.8646836801865704e-06,-1.7246437965164063,0.00017149098959871073,-1.5300483011797563,-2.2145050084984358e-08,9.605627279732486e-08,-0.05743063842399634
18.802,8.760392750436827e-06,-1.7221147715412588e-06,8.589458763830556e-06,-1.6741463135951187,0.0001741666137688653,1.5164409285671963,-4.934585052155731e-08,2.874789315685371e-07,-0.055749072242717454
18.835,1.4871229385864541e-05,-2.1063795216471815e-06,1.472129847390462e-05,-1.6743765595845364,0.00018350860767050192,-0.006914293976506808,-5.644310922394346e-08,4.919202309536201e-07,-0.055756739434165065
18.869,2.1464057899213517e-05,-1.8513851005422406e-06,2.1384063101063847e-05,-1.7253656589268938,0.00019798283823870794,-1.5312041844551771,-4.1166380729235355e-08,7.134681804610719e-07,-0.05745467644226557
18.898,2.6430561528950172e-05,-7.639421486764318e-07,2.641951882849301e-05,-1.6748711114344428,0.0001491442531452449,1.51635277755108,-8.98616324810039e-10,8.800231695077966e-07,-0.05577320801076695
18.935,0.0021394726862705264,5.747095981692555e-05,0.0021387006485423213,-2.039538447449884,0.06345471846070799,-10.950971051514754,4.329853298427175e-06,7.109902879265782e-05,-0.06791663030008115
18.97,3.807076503577563e-05,3.603025529260574e-06,3.789988598194897e-05,-2.051753160224416,-0.06310516279984237,-0.3668081914273877,1.629850170650211e-07,1.2569873700783276e-06,-0.06832338023547306
19.002,2.068414581586993e-05,3.358758165853802e-06,2.040962105761594e-05,-1.991394996360971,-0.0005221206972944653,1.8125574733767316,1.3429110975006673e-07,6.754352590238035e-07,-0.06631345337882034
19.035,1.8877913129808226e-05,4.293058141971935e-06,1.838328740803e-05,-1.9927347563567999,-5.4241221803654814e-05,-0.04023303290777523,1.6315750475230146e-07,6.069728017218252e-07,-0.06635806738668144
19.064,1.5043357087186016e-05,4.384885403316901e-06,1.4390113705331456e-05,-2.052520812026913,-0.00011515183311177807,-1.7953770471505495,1.6227275764246475e-07,4.7382967063948285e-07,-0.06834894304049621
19.103,1.804689659358295e-05,6.427089170077016e-06,1.6863659195422404e-05,-1.991616321716675,9.01963815734815e-05,1.8289636729801277,2.3247996145884415e-07,5.540538085078363e-07,-0.06632082351316528
19.133,0.002105753162852339,0.0008786820037903074,0.0019136651533321282,-2.3575215832564393,0.0626938818696323,-10.988145992185117,3.1730164775527935e-05,6.251166160640748e-05,-0.07850546872243944
19.169,1.0383033544859277e-05,5.059263116788936e-06,9.067041541140753e-06,-2.3789796918354975,-0.06292402790713152,-0.6443876450167617,1.8025060591623854e-07,2.9494701725984484e-07,-0.07922002373812208
19.203,5.001401929162098e-05,2.7749844767628437e-05,4.160947297281186e-05,-2.308510996065512,0.001190119692094946,2.1161770501497177,9.763915200318783e-07,1.348730401428311e-06,-0.07687341616898155
19.236,-5.7175734455669855e-06,-3.528286280181465e-06,-4.499093467637228e-06,-2.3081164253387576,-0.001673621403519158,0.011848970773402592,-1.2313105430187656e-07,-1.4515933245203305e-07,-0.07686027696378063
19.269,-2.3745707197379176e-05,-1.6044835444413225e-05,-1.750490976455938e-05,-2.3423208749097038,-0.000541385397952318,-1.0271606477761606,-5.564733373133935e-07,-5.614959162287084e-07,-0.07799928513449314
19.302,-2.1249899987708943e-05,-1.5535401475172473e-05,-1.449860512231579e-05,-2.2736408381914286,7.494916545556253e-05,2.062463565113368,-5.351031166921155e-07,-4.6276768672680073e-07,-0.07571223991177457
19.335,-1.524609152887286e-05,-1.1901025220777718e-05,-9.529370682326378e-06,-2.273936071684945,0.0001802945483133959,-0.008865870676169842,-4.079341647768302e-07,-3.020275475295243e-07,-0.07572207118710868
19.369,0.0021723819450389444,0.0017936102138638886,0.001225645020327796,-2.2508925799187622,0.06569453563266718,0.6919967497352195,6.120019482221568e-05,3.853839990557006e-05,-0.07495472291129479
19.403,5.588272556692245e-06,4.837060054080988e-06,2.7985067806052745e-06,-2.101540343906698,-0.06506887905352107,4.485052132494415,1.642021191340488e-07,8.748043649844327e-08,-0.06998129345209306
19.436,8.295058380641166e-06,7.4528737047085995e-06,3.6417944862263074e-06,-2.1017895082656572,8.12848595780457e-05,-0.007482413181953545,2.5222027569544815e-07,1.1249127431799558e-07,-0.06998959062524639
19.47,1.6211422018610956e-05,1.5027573079801343e-05,6.081303412652098e-06,-2.1657881151045153,0.00023772863777687053,-1.9218800852509923,5.072838181253417e-07,1.8429443125907826e-07,-0.07212074423298037
19.503,0.002119466786821034,0.0020168750002356453,0.0006514251252921893,-2.039883136672226,0.06316082176583852,3.780930283251928,6.784678057749639e-05,1.9395560989146284e-05,-0.06792810845118513
19.536,2.0203047063922247e-05,1.9602264098201278e-05,4.890230351571038e-06,-1.9574530392347258,-0.06304095314585921,2.475378301426435,6.575987431717884e-07,1.4146254718804613e-07,-0.06518318620651638
19.569,4.471574544762002e-05,4.3998903840386786e-05,7.974606685018878e-06,-2.017154328276192,0.0007361170685795127,-1.7928315027467363,1.4729774136716374e-06,2.1616477300705838e-07,-0.0671712391315972
19.603,0.0357905494641399,0.03556579369119698,0.0040047159774767235,-2.038913308010371,1.073448460020789,-0.6534228148402054,0.001187956659287339,9.306411020975299e-05,-0.06789581315674537
19.636,0.06533687646633947,0.06527297175604985,0.0028890456056668793,-1.991197720383403,0.8872770871531402,1.432900529338376,0.0021751859408703374,2.409906741046919e-05,-0.06630688408876732
19.669,0.07093362851885818,0.0709163463956883,-0.00156571668513732,-2.0063238913140515,0.168070632207769,-0.45423936728674164,0.0023580168419613415,-0.00013095741196578428,-0.06681058558075792
19.701,0.06884748842216494,0.06857569895211037,-0.006111478975637789,-1.947317638854427,-0.06264684975054766,1.7719595333220548,0.0022753745802956077,-0.00027738364308947395,-0.06484567737385243
19.735,0.057372914863628714,0.05669629529851248,-0.008785297910319243,-1.7884867245852492,-0.3445817885446314,4.769697125200539,0.0018781616263628708,-0.00034858199885419634,-0.059556607928688804
19.769,0.0591114558414741,0.05777200728561774,-0.01251236931556426,-1.842682591420491,0.05220843777313467,-1.6275035085658196,0.0019098213409755403,-0.0004754057347493987,-0.06136133029430235
19.802,0.05730597372299229,0.05515817206904059,-0.015541900731326075,-1.7876479974194595,-0.05421868223669104,1.6526905105414864,0.0018202826416171196,-0.000571893765417692,-0.059528678314068
19.835,0.09870034061713213,0.0932402725452216,-0.03237296423917185,-1.9911983710770842,1.2430740809051004,-6.112623833562304,0.0030668993782614973,-0.00118013054042011,-0.06630690575686692
19.869,0.10639028510993469,0.09797185478297507,-0.041477806549489016,-1.7704423225125643,0.2309292640481247,6.6293107677033,0.0032198697473609867,-0.001476553669257472,-0.058955729339668396
19.902,0.10326082688858125,0.09255276585448259,-0.0457906530025382,-1.7183642806495634,-0.09397772436496808,1.5639051610510784,0.003036710799465374,-0.0016121513922722397,-0.057221530545630464
19.935,0.12621965578662983,0.10974458490591274,-0.062350040823757474,-1.7192925002977906,0.6894543212627201,-0.027874463910726784,0.0035930793095823323,-0.00217970820127637,-0.05725244025991643
19.966,0.13008805243831967,0.10924564009604262,-0.0706278380470543,-1.771932503859172,0.11616806761831341,-1.580780887729172,0.0035664017108287508,-0.002457838685122168,-0.059005352378510435
20.002,0.12628647529913212,0.10182528924871664,-0.07469862323291841,-1.720123831730297,-0.1141614756512778,1.5558159798460982,0.003317706490193068,-0.00258318992646625,-0.057280123596618895
20.035,0.12628360753319406,0.09737967151695973,-0.08040366351632751,-1.7200880701494052,-8.61190972388202e-05,0.0010739213480988326,0.0031643105295971253,-0.0027688233352682456,-0.0572789327359752
20.07,0.11830605064487171,0.08676627019681898,-0.08042347900532253,-1.9208400664798022,-0.23956627292259328,-6.028588478390299,0.002801725057662636,-0.0027686507259305397,-0.06396397421377742
20.1,0.11479606638855527,0.07903167656342844,-0.0832594196344127,-1.863685106024502,-0.10540493262211513,1.716365178837841,0.002544060412724157,-0.0028523974411887054,-0.06206071403061593
20.135,0.1147344809390269,0.07367615933015229,-0.0879535369539278,-1.8631663720905285,-0.0018494128987500223,0.015577595614823246,0.0023610133630463195,-0.0030030589571716833,-0.062043440190614606
20.169,0.10644692994563572,0.06316330740440776,-0.08568165201831351,-1.7371306008469594,-0.2488754052069423,3.7848579953023758,0.0020196644830076907,-0.0029124264775084625,-0.05784644900820375
20.202,0.1032547995164231,0.05636161841240187,-0.08651544135650889,-1.68536203150793,-0.09585977264902777,1.5546116918627413,0.0017950343595172853,-0.002932104879158557,-0.056122555649214076
20.236,0.10326884802143257,0.05142695631752623,-0.0895529069075314,-1.685527384458489,0.0004218770273117505,-0.004965554070840011,0.0016279503916630349,-0.0030285938518559937,-0.05612806190246769
20.269,0.09463412083313791,0.042448993338240516,-0.08457954711649239,-1.60519813313343,-0.2593011167656056,2.4122898295813537,0.00133762095309368,-0.00285292828566799,-0.053453097833343226
20.302,0.09184173824278814,0.036752058127478976,-0.08416763693279751,-1.5581755650310238,-0.08385533304353648,1.412089132204388,0.001150596333062508,-0.002833268685530334,-0.0518872463155331
