Time,linear_velocity_x,angular_velocity_yaw,linear_acceleration_x,angular_acceleration_yaw,kinematic_delta_x,kinematic_delta_y,kinematic_delta_yaw
0.372,2.5517361208303614e-05,-3.0035579423119246e-05,0.0008489277295895786,0.0023622954600950948,8.49728128236369e-07,-4.2491765098620864e-13,-1.000184794789871e-06
0.406,3.2887666982747786e-06,-2.0180813199943795e-05,-0.0006675253606615264,0.0002959389256208844,1.0951593105245029e-07,-1.463341792659531e-13,-6.720210795581284e-07
0.44,-2.3199967015450496e-06,-9.089152178209398e-06,-0.00016843133332792275,0.0003330829135655975,-7.725589016132146e-08,1.4092650505807824e-13,-3.02668767534373e-07
0.47200000000000003,-2.326828278153196e-07,4.946539658277012e-06,6.26820983102021e-05,0.00042149224734193413,-7.748338166236255e-09,1.4669820736864823e-14,1.647197706206245e-07
0.506,0.00014159511191194144,-9.591101907539416e-05,0.00425909293512783,-0.0030287555175276624,4.715117226638278e-06,-1.606490267098419e-11,-3.193836935210626e-06
0.539,5.3881256118027036e-05,-0.00036722389659999983,-0.0026340497235409726,-0.008147533859597766,1.7942458286082225e-06,-1.9948905090995455e-11,-1.2228555756779995e-05
0.5730000000000001,-2.8975899543918897e-06,8.289495324656512e-05,-0.0017050704526251927,0.013517082577974923,-9.648974546909554e-08,1.5295901836765427e-12,2.760401943110619e-06
0.606,-2.1427627657928127e-06,0.00022490148003558567,2.2667483141113425e-05,0.004264460263934551,-7.13540000966282e-08,7.654534300692938e-13,7.489219285185004e-06
0.64,-9.7235659142341e-07,0.00025402371309977474,3.5147332563645724e-05,0.000874541533459131,-3.237947449418028e-08,8.915470047661498e-14,8.4589896462225e-06
0.672,-2.5802615790540656e-07,0.0002634039308114304,2.145136436991001e-05,0.0002816882195692383,-8.59227105807488e-09,-5.03657070210272e-14,8.771350896020632e-06
0.7070000000000001,3.7297893649550686e-07,0.0002729730344879503,1.894910193396136e-05,0.00028736047076636373,1.2420198583898754e-08,1.837247655556753e-13,9.090002048448746e-06
0.7390000000000001,9.827382469369056e-07,0.0002631806732202702,1.8311090403645607e-05,-0.0002940649029333366,3.272518361368849e-08,7.762208516052267e-13,8.763916418234998e-06
0.773,1.649281961968495e-06,0.000259293653544651,2.001632777872641e-05,-0.00011672731758616068,5.492108930452024e-08,1.780463704716323e-12,8.63447866303688e-06
0.805,2.498659075842341e-06,0.0002609149590313625,2.5506820236451828e-05,4.868785245379856e-05,8.320534715508081e-08,3.4180777760892364e-12,8.688468135744373e-06
0.8390000000000001,3.342964391274774e-06,0.0002448051705675114,2.535451397694993e-05,-0.0004837774313468802,1.1132071409275832e-07,5.5104079461495285e-12,8.152012179898131e-06
0.8700000000000001,4.429967612459452e-06,0.00023374717938941434,3.2642739374915246e-05,-0.00033207180715006193,1.4751792125093162e-07,8.477586560170296e-12,7.783781073667499e-06
0.906,5.933119373400899e-06,0.0002259786757355291,4.513969252076418e-05,-0.00023328839801457167,1.9757287471483504e-07,1.2866465741906855e-11,7.52508990199312e-06
0.9400000000000001,7.333812604472968e-06,0.000201529600825394,4.2062859791954035e-05,-0.0007342064537578107,2.442159590912459e-07,1.7642313876662603e-11,6.710935707485621e-06
0.9720000000000001,9.113240879639617e-06,0.0001808971949731981,5.343628453953898e-05,-0.0006195917673332102,3.0347092035393293e-07,2.3855247510888297e-11,6.023876592607498e-06
1.007,-0.00015361125875952697,0.002225355308231025,-0.004886621610785782,0.06139513853627108,-5.115254879502562e-06,-6.07038249058581e-10,7.410433176409313e-05
1.039,1.0700560576031506e-05,0.0001637296543487045,0.00493428886893569,-0.06191068029676637,3.5632866270831905e-07,5.6460424815885556e-11,5.4521974898118605e-06
1.072,8.886873661887375e-06,0.00018748479115951566,-5.446507249682074e-05,0.000713367471796131,2.959328889461802e-07,4.8621216621559765e-11,6.2432435456118726e-06
1.106,7.450438996148637e-06,0.00021549188916266884,-4.313617614831046e-05,0.0008410539940886839,2.4809961494355106e-07,4.24269455449023e-11,7.175879909116873e-06
1.1400000000000001,5.819953939126143e-06,0.0002276628161314191,-4.896351522590072e-05,0.00036549330236487244,1.938044630888478e-07,3.457204531098467e-11,7.5811717771762565e-06
1.172,4.679069576252278e-06,0.00024268697936554083,-3.426079167789383e-05,0.00045117607309674867,1.5581301418721495e-07,2.9015114213197254e-11,8.08147641287251e-06
1.204,3.864345428761241e-06,0.00026271372301154243,-2.4466190615346464e-05,0.0006014037130931412,1.286827003399732e-07,2.5045832703120324e-11,8.748366976284364e-06
1.239,3.015334147238763e-06,0.0002648048947592909,-2.5495834279954286e-05,6.279795038283703e-05,1.0041062502533392e-07,2.042509077288794e-11,8.818002995484389e-06
1.272,2.4436553507567698e-06,0.0002725084800550675,-1.7167531425885682e-05,0.00023133889777106898,8.137372134504199e-08,1.7280680428884988e-11,9.074532385833748e-06
1.307,2.0447285695089447e-06,0.00028720765450951537,-1.1979783220655407e-05,0.00044141665028371964,6.808945969134359e-08,1.5094151702530548e-11,9.564014895166862e-06
1.339,1.6195355662973327e-06,0.0002837910292683563,-1.2768558655003363e-05,-0.0001026013585933662,5.393053291625987e-08,1.2468109342412688e-11,9.450241274636264e-06
1.373,1.3315165477117354e-06,0.0002878117640019141,-8.649219777345264e-06,0.00012074278479152632,4.433949975413481e-08,1.0672761587757779e-11,9.58413174126374e-06
1.4060000000000001,1.1285242644053464e-06,0.00029997791868569804,-6.095864363555226e-06,0.000365349990504022,3.7579856825542666e-08,9.413461217799008e-12,9.989264692233745e-06
1.439,9.029272132387611e-07,0.000293919214479223,-6.7746862212187755e-06,-0.00018194306926351376,3.0067475181472425e-08,7.828987047920483e-12,9.787509842158127e-06
1.472,7.472210596261248e-07,0.00029619134454634036,-4.6758604688479365e-06,6.823213414766774e-05,2.4882460377099447e-08,6.723388267497342e-12,9.863171773393136e-06
1.506,6.349321872567795e-07,0.00030716816264960556,-3.3720382092896472e-06,0.0003296341772752311,2.1143241005251803e-08,5.9254328942376185e-12,1.0228699816231866e-05
1.54,5.068999681216068e-07,0.0002997835105777588,-3.844811385440623e-06,-0.00022176132347888136,1.687976822683354e-08,4.901169295292863e-12,9.98279090223937e-06
1.572,4.162796990495207e-07,0.0003011747033271959,-2.721329401564146e-06,4.17775600431553e-05,1.3862113352983018e-08,4.1636738803739796e-12,1.0029117620795624e-05
1.6059999999999999,3.4858599272973036e-07,0.0003115564699413292,-2.0328440336273374e-06,0.00031176476318718594,1.160791299805082e-08,3.6050178364515117e-12,1.0374830449046263e-05
1.639,2.7185817222074413e-07,0.0003034514345122188,-2.3041387540236105e-06,-0.00024339445733064226,9.052876669068794e-09,2.904211976098171e-12,1.0104932769256886e-05
1.671,2.156704421171241e-07,0.0003043630643439186,-1.6873192223309315e-06,2.7376271222216015e-05,7.181825329222504e-09,2.3766494402508728e-12,1.013529004265249e-05
1.707,1.7148167438736707e-07,0.00031442512547961635,-1.3269900219146254e-06,0.000302163998069002,5.710339424626426e-09,1.9485297423298816e-12,1.0470356678471226e-05
1.739,1.2371708458105783e-07,0.00030589783587978614,-1.4343720662555326e-06,-0.0002560747627576639,4.119778661945279e-09,1.4483360507581512e-12,1.018639793479688e-05
1.772,8.701700382885497e-08,0.00030652920037815346,-1.102104527093179e-06,1.895989484586552e-05,2.8976660378857348e-09,1.0482412563695328e-12,1.020742237259251e-05
1.806,0.03403731839250709,-0.00019362421617669903,1.022139080345443,-0.015019622118764338,0.0011334426275313395,4.121577314152104e-07,-6.447686398684078e-06
1.84,0.06672382156942071,2.1474573450634256e-05,0.9815766719793877,0.0064594231119319305,0.002221903113668026,8.01589599979824e-07,7.151032959061208e-07
1.8730000000000002,0.10008721490852061,2.1498375059708503e-05,1.0019037038768739,7.147630352626851e-07,0.0033329040386987975,1.2047873001475734e-06,7.158958894882932e-07
1.9060000000000001,0.13715398382681726,2.21487604710186e-05,1.113116183732632,1.9531093432735656e-05,0.0045672273618323775,1.654293273230788e-06,7.375537236849195e-07
1.939,0.16681345329915062,2.108027151201497e-05,0.8906747589289297,-3.208675552563455e-05,0.0055548876290236774,2.016030390209552e-06,7.019730413500986e-07
1.972,0.20017653038878508,1.9861512943317848e-05,1.0018942068959296,-3.659935641733099e-05,0.0066658780212883505,2.4237865650231133e-06,6.613883810124844e-07
2.007,0.22462407659855335,-0.07442978498776315,0.734160546839888,-2.235725120141335,0.007479976970674461,-6.5473327855698565e-06,-0.002478511840092513
2.039,0.21801452973127683,-0.07222464913358714,-0.19848489090920485,0.06622029592120134,0.007259842149279618,-2.4081788176233584e-05,-0.002405080816148452
2.073,0.21801484280538305,-0.07222919798470694,9.401624811499807e-06,-0.00013660213572951204,0.007259773655561274,-4.154281827274936e-05,-0.0024052322928907414
2.107,0.21280136753835505,-0.07406451917227255,-0.15656081882966982,-0.05511475037734584,0.007086047934369905,-5.7809669799177597e-05,-0.0024663484884366762
2.14,0.20646518302250394,-0.07237249635923222,-0.19027581128682,0.05081149588709702,0.006874902955089809,-7.285080649746732e-05,-0.0024100041287624333
2.172,0.20642968151365587,-0.07332298071561123,-0.0010661113768188626,-0.028543073765135464,0.00687352385972173,-8.951252469695404e-05,-0.0024416552578298543
2.207,0.22479679395556118,-0.07366505074011122,0.5515649381953546,-0.010272373108107665,0.007484835701547424,-0.00011579526159075852,-0.0024530461896457036
2.24,0.21758211671448197,-0.07482403001135862,-0.216656974206583,-0.034804182319741854,0.007244316459062176,-0.00012998971789677637,-0.0024916401993782425
2.273,0.21759429424595447,-0.07264772952393501,0.0003656916358110209,0.06535436899169991,0.0072443809787449374,-0.00014778531045414375,-0.0024191693931470363
2.307,0.21326874313446717,-0.07119977859852425,-0.12989642977439345,0.04348200977209505,0.007100002909597514,-0.00016185287974705703,-0.002370952627330858
2.339,0.20648895076749904,-0.07094790278420288,-0.2035973683774213,0.007563838267909094,0.006873904384756631,-0.00017297693650555855,-0.002362565162713956
2.373,0.20664442404270048,-0.07139217841451008,0.004668867123166194,-0.01334161051973583,0.006878650409030242,-0.00018940983599454944,-0.002377359541203186
2.407,0.20133242994594036,0.018385404330535662,-0.15951934224504846,2.6960235058572293,0.006701664064754907,-0.00019045562690292307,0.0006122339642068376
2.44,0.19549428781741798,0.01628568913344427,-0.17531958343911042,-0.06305451042316497,0.006507438089405229,-0.00018117634325591614,0.0005423134481436942
2.472,0.19560624405425484,0.01637029577279793,0.0033620491542598217,0.002540739920530368,0.006511262390669589,-0.00017773980869577725,0.0005451308492341712
2.507,0.23641087628578122,-0.06287429045116517,1.2253643312770686,-2.3797173040229156,0.007869380632403831,-0.00022091061933037748,-0.0020937138720238005
2.539,0.21828224422600412,0.02308079983475413,-0.5444033651584715,2.581233942520099,0.00726579943035108,-0.00020878470687637875,0.0007685906344973125
2.573,0.21828622698750696,0.02438100268713154,0.00011960244753292756,0.03904513070202438,0.007266094704974336,-0.0002030466282454258,0.0008118873894814804
2.606,0.22448818025479067,-0.06189591241681127,0.18624484286137252,-2.590898351469754,0.007472406147447006,-0.00021348304239112332,-0.0020611338834798155
2.64,0.20653354177403863,0.023800030724228212,-0.5391783327553166,2.5734517459771613,0.00687463571917415,-0.000200769225072998,0.0007925410231167995
2.673,0.20603034326277173,0.02354792944951649,-0.015111066404411415,-0.007570608850201898,0.006858042112607488,-0.0001948736387982384,0.0007841460506688992
2.706,0.23689960827591486,-0.07472397337744147,0.9270049553496436,-2.95110819300174,0.007885378242125776,-0.00023079032184845582,-0.002488308313468801
2.739,0.21759389521693404,0.012653390531368611,-0.579751142912337,2.6239448621264287,0.007242552207931872,-0.00021946764135761154,0.0004213579046945748
2.773,0.21767748702554413,0.013258491971881626,0.002510264522825511,0.018171214429820275,0.0072454285803721895,-0.00021642605721557953,0.0004415077826636582
2.807,0.22515825208538034,-0.07749931560089515,0.22464759939448106,-2.7254596868701735,0.007494181241336183,-0.0002318797351508488,-0.002580727209509809
2.84,0.20669157482759218,0.009381821065881948,-0.5545548726062512,2.6090431431464594,0.006879291246967803,-0.00022066417566338328,0.0003124146414938689
2.872,0.20673149319644826,0.008459538626527964,0.0011987498154980318,-0.027696169349969477,0.006880685109822132,-0.00021866283545034687,0.0002817026362633812
2.906,0.22480733772474587,0.029329353861818584,0.5428181540029311,0.6267211782369555,0.00748245486770639,-0.00023307410181073177,0.0009766674835985588
2.939,0.21853353460735622,0.027646745816482434,-0.18840249601770712,-0.050528770130214715,0.007273850208423536,-0.00021966934215762558,0.0009206366356888651
2.972,0.2185928872183808,0.028267661844289818,0.0017823606914287322,0.018646126961182702,0.007276027147079825,-0.00021295529760410236,0.000941313139414851
3.007,0.21344311564363952,-0.07397469692776341,-0.15464779503727566,-3.0703411042658626,0.007104451325604194,-0.000213345001570783,-0.002463357407694522
3.04,0.20685645888546558,0.03355884817602251,-0.19779750024546355,3.22923558870228,0.006885075230146725,-0.0002113945931033643,0.0011175096442615497
3.073,0.2066586994393456,0.036122840927588114,-0.00593872210570552,0.07699677932629437,0.006878733282015613,-0.00020321192470982194,0.0012028906028886844
3.106,0.18933860023682364,-0.06934175779212738,-0.5201230991748332,-3.167105066658123,0.0063021205674703915,-0.00018966637011341738,-0.002309080534477842
3.14,0.18359818745438297,0.03783222433224238,-0.17238476824146148,3.2184379016327256,0.00611095499888574,-0.00018712208735460715,0.0012598130702636712
3.172,0.18322340715683183,0.038928366850403046,-0.011254663590124371,0.03291719273755761,0.006098714323834919,-0.00017894571497297426,0.0012963146161184215
3.206,0.16625630467229996,-0.08600114875265104,-0.5095225971330891,-3.751637105196819,0.005533822440932141,-0.00016671194652366204,-0.00286383825346328
3.239,0.16027032868229607,0.02012409760634417,-0.17975903873885551,3.1869443351049607,0.0053344021413756935,-0.00016656077077436787,0.0006701324502912609
3.2720000000000002,0.16021961291537234,0.02058461140037244,-0.0015229960037154865,0.013829243063911993,0.005332825758596653,-0.00016289351269160288,0.0006854675596324023
3.305,0.15478367279919544,-0.09154550672224143,-0.16324144493023726,-3.3672708144929087,0.005151701925189697,-0.00016345363736169885,-0.00304846537385064
3.339,0.14905664342878522,0.014519986683478788,-0.171982863976283,3.18514995212373,0.004960883763529892,-0.00016376821872828956,0.0004835155565598437
3.372,0.14911902578763658,0.015084166829832275,0.0018733441096506005,0.016942346737341966,0.004963040114966007,-0.00016139044975872963,0.0005023027554334149
3.407,0.1432812233113158,-0.08493387127320097,-0.17530938367329701,-3.003544687778776,0.004768558883824957,-0.00016061811785471854,-0.0028282979133975924
3.44,0.13789739149525004,0.02124874676931129,-0.16167663111308553,3.1886672084838517,0.004589213898293603,-0.0001594491909937066,0.000707583267418066
3.472,0.13799042729490746,0.021592645661584465,0.0027938678575800276,0.010327294062257483,0.0045924227639537255,-0.00015628098982887418,0.0007190351005307628
3.5060000000000002,0.1422833889502939,0.022676458149991172,0.12891776742902256,0.03254692157377499,0.00473541315924158,-0.00015765264312918867,0.0007551260563947061
3.539,0.1381984085907096,0.02188664705459708,-0.12267208287040006,-0.023718050912735534,0.004599570997414155,-0.00014971368071567756,0.0007288253469180828
3.573,0.13825139811039353,0.022265714995548545,0.001591276867385527,0.011383421650194183,0.004601443469710808,-0.00014638843473410517,0.0007414483093517667
3.607,0.1424691930952916,0.02941407626709312,0.1266605100569993,0.21466550364998718,0.004741952986193801,-0.00014677422666241837,0.000979488739694201
3.6390000000000002,0.1382384605591276,0.028671271250402152,-0.1270490251100297,-0.0223064569576867,0.00460127262665839,-0.00013796573078361175,0.0009547533326383918
3.672,0.13816000485869812,0.029101229097539583,-0.0023560270399248418,0.012911647061184122,0.004598791728347065,-0.00013346385858767248,0.0009690709289480683
3.707,0.14221104962478268,0.02026573642370159,0.12165299597851532,-0.2653301103254652,0.004733746155005471,-0.00013348630419397902,0.0006748490229092631
3.74,0.13785425503743778,0.01976411263385139,-0.1308346722926394,-0.015063777472979045,0.004588807773850823,-0.00012633840379529726,0.0006581449507072513
3.773,0.13766756641546324,0.02021107924981263,-0.005606264924160528,0.013422420899736947,0.0045826763541308305,-0.00012311716831126055,0.0006730289390187606
3.806,0.13122649299756686,-0.07943097383592125,-0.19342562816505632,-2.9922538464184343,0.004368146947350086,-0.00012166393504504679,-0.002645051428736178
3.839,0.1261276646522264,0.02328458295101258,-0.15311796832854205,3.0845512548628777,0.004198311800838562,-0.00012086148388395216,0.0007753766122687189
3.873,0.12560978416513224,0.023770239460296973,-0.01555196657940447,0.01458427955808989,0.004181166536781987,-0.00011708947407787548,0.0007915489740278893
3.907,0.11982439427444969,-0.07572570367151742,-0.17373543215262932,-2.987866160114546,0.003988489486888237,-0.00011514680894736919,-0.0025216659322615303
3.94,0.1142780987164315,0.02434879792838689,-0.16655542216270808,3.0052402882854143,0.003803780384169371,-0.00011307094187419874,0.0008108149710152836
3.973,0.11416988966914472,0.025424132582024053,-0.0032495209395430507,0.03229233194105593,0.0038002709149604747,-0.00010981455583835608,0.000846623614981401
4.007,0.11769551285713611,0.018082044269268776,0.1058745702099517,-0.22048313251517346,0.003917706211624284,-0.0001103678154378873,0.0006021320741666503
4.04,0.11432270440048914,0.017157203519032833,-0.10128553923864789,-0.027772995502580854,0.003805498485071843,-0.00010497220231797429,0.0005713348771837934
4.073,0.11441219496927187,0.016862985045053402,0.0026874044679497558,-0.00883538960899192,0.0038085362852461903,-0.00010289709749712256,0.0005615374020002783
4.106,0.11795462696145531,0.0096982781979991,0.10637933910460795,-0.21515636177340247,0.00392650280458793,-0.00010434653370781681,0.00032295266399337005
4.139,0.11458552526889672,0.009066210900449772,-0.10117422500175954,-0.01898099992640622,0.0038143827995364074,-0.00010017439793415128,0.00030190482298497745
4.172,0.1146829061546895,0.008876625355381097,0.002924350924708122,-0.005693259611671922,0.003817654247907173,-9.911901850517796e-05,0.00029559162433419057
4.207,0.11826496299052411,0.01644767070087373,0.10756927434938768,0.22735871908386288,0.003936939270622511,-0.00010055494545251722,0.0005477074343390953
4.239,0.11488021231043773,0.01583274838640831,-0.1016441645671586,-0.018466135569532215,0.0038243157705790784,-9.562161950108362e-05,0.0005272305212673967
4.273,0.11497695457617851,0.01637025762207861,0.00290517314536899,0.016141418488597632,0.003827587041778883,-9.364988150182272e-05,0.0005451295788152178
4.307,0.11855216161467622,-0.0003731467186031913,0.10736357472966071,-0.5028049351556096,0.003946631443733664,-9.551073525236284e-05,-1.2425785729486271e-05
4.34,0.11516428916146035,-0.0009450746709120397,-0.101737911507984,-0.017175013582848297,0.0038338462754663617,-9.286546584177878e-05,-3.147098654137093e-05
4.371,0.11524987094552672,-0.0010516613490542605,0.0025700235455365953,-0.003200801145412034,0.0038366922213633643,-9.30620301656069e-05,-3.502032292350688e-05
4.406,0.11881622515754589,-0.0010381163446608846,0.10709772408465987,0.0004067568886899657,0.0039554135556296235,-9.607941972509685e-05,-3.456927427720746e-05
4.439,0.11537236308244049,-0.0008217313109859414,-0.10341928153469669,0.006498049059307603,0.00384076387551866,-9.341351384772557e-05,-2.7363652655831853e-05
4.472,0.11538538309884326,-0.00046147844194837045,0.00039099148356668185,0.010818404475602731,0.003841195317043938,-9.35061246150734e-05,-1.5367232116880736e-05
4.507,0.11883779728704577,0.00016497187306820405,0.10367610174782312,0.018812321772269505,0.003956126186067702,-9.632342627925401e-05,5.493563373171196e-06
4.539,0.11525008996117629,0.0007770371613814332,-0.1077389587348192,0.01838033898838526,0.003836692393331094,-9.335525033826358e-05,2.587533747400173e-05
4.572,0.11512276158048661,0.001329343696362525,-0.0038236750957863093,0.016585781831264013,0.003832456880772667,-9.31177024401636e-05,4.4267145088872084e-05
4.606,0.1184538741970451,0.0017615704021474606,0.10003341190866354,0.01297978095450257,0.0039433551281407,-9.560915227026278e-05,5.866029439151044e-05
4.64,0.11483985747719394,0.0012280728737268374,-0.10852903062616102,-0.016020946799418113,0.003823048338304296,-9.25018240048204e-05,4.089482669510369e-05
4.672,0.11460645593309211,0.0017160128641461395,-0.007009055378433249,0.014652852565144205,0.0038152828612767003,-9.212680112339931e-05,5.714322837606645e-05
4.706,0.1203478921001064,0.1634800872891925,0.17241550051093932,4.857780012764155,0.004006662959995695,-8.572190656768293e-05,0.0054438869067301105
4.74,0.11464341501621317,0.23963957395808994,-0.17130561813493167,2.2870716717386617,0.003817204265875939,-5.603918126755131e-05,0.007979997812804396
4.77,0.11442750162558148,0.2423453854071308,-0.006483885604555309,0.08125559907029616,0.003810341094992603,-2.5356605173703216e-05,0.008070101334057457
4.806,0.08638076665351152,0.16350604491733858,-0.8422442934555542,-2.3675477624562222,0.0028764759612619154,2.9582647149638516e-07,0.005444751295747376
4.839,0.05014691895916066,0.1586900501040589,-1.0881035343648906,-0.14462446886725774,0.0016698654997919268,9.129927546406649e-06,0.005284378668465162
4.872,0.016783732174774274,0.15868756345297566,-1.001897501032624,-7.467420670386986e-05,0.0005588653271658046,6.0090093791463705e-06,0.00528429586298409
4.907,5.376155688077924e-06,-4.256029742747083e-05,-0.5038545351076935,-4.766670382894988,1.7900992804497868e-07,2.3976564219757457e-09,-1.4172579043347787e-06
4.94,5.378889870207877e-06,-4.388591917097733e-05,8.210757147006524e-08,-3.980846076596107e-05,1.791009715966565e-07,2.3986180458486224e-09,-1.4614011083935454e-06
4.972,-0.00030057641985399526,0.0015614850205150155,-0.009187847138864957,0.04820933752810789,-1.0008293884648882e-05,-1.342894734926596e-07,5.199745118315002e-05
5.007,-0.0005472071068027098,0.0004084807113378928,-0.007406326935396832,-0.03462475402934302,-1.822034852455687e-05,-2.450750682343574e-07,1.3602407687551832e-05
5.039,-0.0005276657113466046,0.00018964751140864415,0.0005868286923755293,-0.006571567565442902,-1.7569676558292897e-05,-2.3649812930295051e-07,6.31526212990785e-06
5.073,-0.0005279771596143811,0.00019734699540396058,-9.352800834127082e-06,0.00023121573559508813,-1.758004532103288e-05,-2.367509955689194e-07,6.571654946951888e-06
5.106,-0.0005440716485987655,0.00021554350224681793,-0.0004833179875190533,0.0005464416469326529,-1.8115941533334325e-05,-2.440924888510853e-07,7.1775986248190374e-06
5.139,-0.0005281216470062019,0.00021653039147581426,0.0004789790268037141,2.963631318307323e-05,-1.758485298151114e-05,-2.370631807152122e-07,7.210462036144615e-06
5.172,-0.0005281748227369275,0.00022404495322744672,-1.5968687905591497e-06,0.00022566251506403773,-1.758662183281187e-05,-2.3721605799476142e-07,7.4606969424739765e-06
5.207,-0.0005442474923678608,0.0002373379934535743,-0.0004826627516796781,0.0003991903971810082,-1.8121791171460145e-05,-2.4457389417315737e-07,7.903355182004024e-06
5.24,0.05047251508180998,0.15873630846504544,1.5320349121374723,4.7597288429907465,0.001680513825103428,2.712956907147578e-05,0.005285919071886014
5.272,0.0838357926970072,0.15873666115820942,1.001900228684601,1.059138630569604e-05,0.0027910877389762273,5.9816969522212944e-05,0.005285930816568374
5.306,0.12041007749324328,0.16354784758178065,1.0983268707578404,0.14448007277991676,0.004008211391400708,0.0001074224271781312,0.005446143324473296
5.336,0.15056194381110968,0.15873891615693272,0.9054614509869788,-0.1444123551005382,0.005011114322607642,0.00016121427325937218,0.00528600590802586
5.372,0.18392479839647638,0.1587404594195125,1.0018875250860868,4.634422161513478e-05,0.006120395064857722,0.00022929322027380775,0.005286057298669767
5.406,0.21294501102237726,0.031221190803018224,0.8714778566336598,-3.8294074659607893,0.007085222401729816,0.000287883076819484,0.001039665653740507
5.44,0.21801554404726162,-0.11974900567518437,0.15226825900553634,-4.533639533879957,0.00725435401891508,0.000284045293903791,-0.00398764188898364
5.473,0.21801510097640364,-0.11974310268319026,-1.3305431170420847e-05,0.00017726702685026804,0.00725541424037893,0.00025511554091049997,-0.003987445319350236
5.507,0.22462130065979855,-0.12337217269866665,0.1983843748767238,-0.10898108154583772,0.007476267093954373,0.00023258496724157745,-0.0041082933508656
5.539,0.1955001574891346,0.02607260914330197,-0.8745088039238421,4.487831286545604,0.006507326410016859,0.00019188964854863837,0.0008682178844719558
5.573,0.20677208751085813,-0.12311391813346217,0.3384963970487545,-4.480075894197121,0.0068828329095797945,0.00019183267408937196,-0.004099693473844291
5.607,0.2133953902340033,-0.13057764111901882,0.19889797967402942,-0.22413582539209134,0.007104075379141874,0.00016797164746247125,-0.004348235449263327
5.64,0.20640085981854595,0.0163677709338189,-0.21004595842214296,4.412775136721853,0.006871524628906461,0.0001493995375425691,0.0005450467720961694
5.673,0.21805222107353792,-0.13111396562143968,0.34989072837813723,-4.428880977635393,0.007259705902140954,0.0001439634695024086,-0.004366095055193942
5.707,0.22450441481464473,-0.13649942455690528,0.19375957180500927,-0.1617254935575256,0.007475107298742462,0.00011491730238621151,-0.004545430837744946
5.74,0.21776679572793514,-0.13815290794391574,-0.2023309035047923,-0.049654155766079955,0.00725120505786644,7.830996214414338e-05,-0.0046004918345323945
5.772,0.21775253902249797,-0.13831860633702825,-0.0004281292924075426,-0.004975927721096296,0.007251013956793385,4.492719391593394e-05,-0.004606009591023041
5.806,0.22402435986876731,-0.13781690626116452,0.18834296835643674,0.015066068344256028,0.00745999510898915,1.1922963859206269e-05,-0.004589302978496779
5.84,0.21758735250104985,-0.1311937349293035,-0.19330352455607994,0.19889403398982045,0.007245623010854298,-2.087306708575353e-05,-0.004368751373145807
5.872,0.2177640240205952,-0.13168643574858208,0.005305451037397614,-0.01479582039875598,0.007251345204508379,-5.262922827757541e-05,-0.004385158310427783
5.907,0.22455625204924848,-0.136282007187854,0.20397081167126982,-0.13800514832648397,0.007477203270835164,-8.763238072032535e-05,-0.004538190839355538
5.939,0.21814200762353614,-0.12387928998269393,-0.19261995272409427,0.37245397012492676,0.007263187968054137,-0.00011659209658659393,-0.004125180356423708
5.972,0.2183187060189988,-0.12416089592857135,0.005306258122001967,-0.008456635011334002,0.00726852735038313,-0.000146705769843986,-0.0041345578344214266
6.007,0.22510946417055644,-0.12952938131815084,0.203926671217947,-0.1612157774648494,0.007493907109176109,-0.00018292438798222767,-0.004313328397894423
6.039,0.21861409675632268,-0.12564003540678853,-0.19505607850551832,0.1167971745153846,0.007276855862605103,-0.00020856427451510892,-0.004183813179046058
6.072,0.21862232322127625,-0.12472020785087373,0.00024704098959686807,0.027622449126570518,0.007276197113711666,-0.0002389049263130849,-0.004153182921434096
6.107,0.20021712561838567,0.04548447548226921,-0.5527086367234408,5.111251751746034,0.006663344279514262,-0.00022758330847174696,0.0015146330335595647
6.139,0.2068120388601572,-0.10053002593471241,0.19804544269584165,-4.38481986237182,0.006882605991041918,-0.0002413876106342389,-0.0033476498636259237
6.173,0.2064146359447925,-0.09869552254406257,-0.011934021482423177,0.055090191911406815,0.00686854376701804,-0.0002637088650880697,-0.0032865609007172837
6.205,0.21235296883424876,-0.06851165422658964,0.17832831499868615,0.9064224719961839,0.007065363555903909,-0.0002909666269466944,-0.0022814380857454353
6.24,0.20606204358246943,-0.0662877699094107,-0.18891667422760727,0.06678331282819655,0.006855402332121318,-0.00029773386097949094,-0.0022073827379833766
6.272,0.2059545485929342,-0.06694885095651606,-0.0032280777638211727,-0.019852283696857927,0.00685114908854757,-0.0003127778189537692,-0.002229396736851985
6.307,0.21228242245080742,-0.06954009604299294,0.19002624197817503,-0.07781516776206826,0.0070608970058296605,-0.0003384348290293098,-0.002315685198231665
6.34,0.20577994874419475,0.015342392604365205,-0.19526948067905903,2.5490236831038477,0.0068443156011606734,-0.0003342446097557643,0.0005109016737253614
6.373,0.2177951435420131,-0.09389499370049503,0.3608166605951455,-3.280401991136944,0.007243473579119695,-0.00036323458373397656,-0.003126703290226485
6.406,0.22464905735638174,-0.09622864405573267,0.20582323766872807,-0.07007959024737649,0.0074701987772616,-0.0003983147106662094,-0.0032044138470558982
6.44,0.21822259703610614,-0.09362572330904337,-0.19298679640467284,0.07816578818886794,0.007255242132335203,-0.00040985663964212383,-0.0031177365861911445
6.472,0.2183961671961301,-0.09395596846182716,0.005212317117836345,-0.00991727185536914,0.0072596962862065415,-0.0004328584438167557,-0.0031287337497788448
6.507,0.2251657311585741,-0.09678610446845876,0.20329020908240297,-0.08498906926821606,0.007483267793140055,-0.00047004373069966057,-0.003222977278799677
6.54,0.21861819742539595,-0.07082374483135588,-0.1966226346299745,0.7796504395526388,0.007264363422593646,-0.0004766500650019129,-0.002358430702884151
6.572,0.21853404683212116,-0.06836613740428402,-0.0025270448430869505,0.07380202483699293,0.0072604436197688,-0.0004932940717353152,-0.002276592375562658
6.607,0.22497331074694826,-0.06864859165563938,0.19337128873354664,-0.008482109650311365,0.007473199877310518,-0.0005248792641372312,-0.002285998102132792
6.639,0.2179949108216829,-0.06626718299900607,-0.20956155931727807,0.07151377347247202,0.007240229608133531,-0.0005248635352398231,-0.0022066971938669022
6.672,0.2176996686656882,-0.0653643686445075,-0.008866130810651365,0.027111542177134268,0.00722925768635768,-0.0005399980850825691,-0.0021766334758620996
6.706,0.22412331549939254,-0.06972341922158037,0.19290230731844843,-0.13090241973191827,0.007441301383346609,-0.0005726702469065634,-0.0023217898600786267
6.74,0.21749107491366107,-0.06324357094230655,-0.1991663839559001,0.1945900384166313,0.007219851217490647,-0.0005717092728293519,-0.0021060109123788085
6.773,0.21752348867901772,-0.06461519217596193,0.0009733863470464889,-0.04118982683649778,0.007219693543510881,-0.0005871654248401013,-0.0021516858994595324
6.807,0.2242741494854894,-0.06729867212398301,0.20272254674089146,-0.08058498342405647,0.007442403008558104,-0.0006217353324568477,-0.002241045781728634
6.839,0.20654928148351698,0.019049853215677,-0.5322783183775504,2.5930488089987986,0.006853753019908794,-0.0005781044625685923,0.0006343601120820441
6.872,0.20654271753371223,0.01832152853658169,-0.0001971156097522473,-0.021871611984844146,0.006853893600196001,-0.0005738214807685418,0.0006101069002681702
6.907,0.2129796108250718,0.018506490378364257,0.19330009883962684,0.005554409663140183,0.007067856340148345,-0.0005873707943588868,0.0006162661295995299
6.94,0.20688209003115157,0.02383279378332776,-0.18310873255015706,0.15994905120010522,0.00686590688375781,-0.0005657146244872034,0.0007936320329848146
6.972,0.2070090329965226,0.02411547312949477,0.003812101062192916,0.00848886925426454,0.00687056952333629,-0.0005605768850079662,0.000803045255212176
7.006,0.2133578149823945,0.0257613752701158,0.1906541136898471,0.04942649070934023,0.007081761088173176,-0.0005718884274874832,0.0008578537964948563
7.04,0.21705435973909096,0.024241970510015115,0.11100735005094448,-0.04562777057359416,0.007204938508909797,-0.0005757984074029936,0.0008072576179835034
7.072,0.21837598335585678,0.03248077649464375,0.039688396899874676,0.2474115911299891,0.007249352428196918,-0.0005724581006457,0.001081609857271637
7.107,0.2247442874720666,0.03485781318060568,0.19124036385014445,0.07138248306191967,0.007461414635563877,-0.0005807869033578389,0.001160765178914169
7.14,0.21782706034859034,0.029668884678642867,-0.20772453824253015,-0.15582367873762193,0.007232366353632189,-0.0005551414180742165,0.0009879738597988075
7.172,0.2176501725255353,0.028987592265953335,-0.005311946638289113,-0.02045923161229825,0.007227031560023413,-0.0005476327370394592,0.0009652868224562461
7.206,0.2240902794689392,0.02848225894530348,0.1933966049070235,-0.01517517479428991,0.007441410179596997,-0.0005567165550259763,0.000948459222878606
7.239,0.2174534974836305,0.02273463436755121,-0.19930276232158267,-0.17260133867123942,0.007221479407671429,-0.0005340705331130531,0.0007570633244394553
7.272,0.21759117801312786,0.02214704944392732,0.004134550435356268,-0.01764519290161825,0.00722644902638857,-0.0005290086472729084,0.0007374967464827798
7.307,0.22435646306321086,0.022454526296098874,0.20316171321570578,0.009233539104250841,0.0074515347970862235,-0.0005399229569261296,0.0007477357256600926
7.34,0.21793617644311009,0.01222994785837511,-0.1928014000030262,-0.3070443975292421,0.007238600079684103,-0.0005202921053602012,0.0004072572636838912
7.372,0.2181197703935445,0.011753361411917643,0.005513331844877102,-0.014311905299023047,0.007244905391735613,-0.0005178374010198438,0.00039138693501685753
7.407,0.22491290676073547,0.011868068350039805,0.20399808910483413,0.003444652796461334,0.007470750626169632,-0.0005310267815607149,0.00039520667605632556
7.439,0.21845104917319158,0.011171557222749432,-0.1940497774037204,-0.02091625006877997,0.007256309640267696,-0.0005129865698935755,0.0003720128555175561
7.472,0.2185649079587701,0.011634747578429697,0.003419182750105506,0.013909620290698654,0.0072602860669391655,-0.0005104970681009729,0.00038743709436170895
7.507,0.2251997673384335,0.012921011000447371,0.19924502641631844,0.03862652918971992,0.007480897151603059,-0.0005229354106908308,0.0004302696663148975
7.539,0.21844476786990163,0.019954191401719,-0.20285283689284875,0.2112066186568057,0.007256779731482139,-0.0005032775667577469,0.0006644745736772428
7.572,0.21818032507959814,0.02110393679497722,-0.007941224934038826,0.03452688868643298,0.007248336811639348,-0.0004977133370580969,0.0007027610952727415
7.606,0.22449585722860552,0.022715651347416422,0.18965562009031153,0.048399836409585645,0.0074585216065024915,-0.0005066787650568832,0.0007564311898689669
7.639,0.20572371549766896,0.012021644028902477,-0.5637279799080046,-0.32114136091633466,0.006835114256216994,-0.00046035756165661634,0.00040032074616245253
7.672,0.20605551425579618,0.013470873013040147,0.009963926670487145,0.04352038991404412,0.006846333265044237,-0.00045819415484731486,0.00044858007133423693
7.706,0.21229269333880127,-0.05410213802400295,0.18730267516531784,-2.029219550661955,0.007053245876885281,-0.00047683506631447604,-0.0018016011961992985
7.74,0.20605759268523868,-0.05424197122187061,-0.1872402598667443,-0.004199195131160921,0.006845243854194919,-0.000475179379005578,-0.0018062576416882916
7.772,0.2062042841612936,-0.055090132589140244,0.00440514943107874,-0.02547031132941836,0.006849239951224771,-0.0004879866728838349,-0.0018345014152183702
7.807,0.2126459678376821,-0.058153897475233494,0.19344395424590102,-0.09200495153433184,0.00706224410138533,-0.0005165479056043945,-0.0019365247859252756
7.839,0.1944773199876784,0.0035629867599990335,-0.5456050405406521,1.8533598869439196,0.006458409050666298,-0.00047828419214705395,0.00011864745910796783
7.872,0.195207021159633,-0.06407291767120439,0.02191294810674524,-2.03110824117728,0.006482153550450894,-0.00048660963142122964,-0.0021336281584511062
7.906,0.20131512742747976,-0.06778704900326674,0.18342661465005244,-0.11153547543730766,0.006683864718085131,-0.000516511278409746,-0.0022573087318087824
7.94,0.21699843438052477,0.02108312378490707,0.47097017877012043,2.6687739576028164,0.007204132546980898,-0.0005623520660443778,0.0007020680220374055
7.973,0.21842915273857474,-0.04944379855468221,0.042964515256756035,-2.1179255957834617,0.007251362200797118,-0.0005694839190211797,-0.0016464784918709177
8.007,0.22519287539431138,-0.05016692435419842,0.2031147944665655,-0.021715489474961415,0.0074749187013558325,-0.0005995162634074862,-0.0016705585809948075
8.039,0.21841799237591342,-0.04020428309430639,-0.20344994049243117,0.2991784162129739,0.007249154406942373,-0.0005923882881656039,-0.001338802627040403
8.072,0.2181143955899779,-0.03899598774044462,-0.009117020598664509,0.03628514576161475,0.007238291873158176,-0.0006011104257606487,-0.001298566391756806
8.107,0.22451125237236522,0.03563813676683109,0.19209780127289272,2.24126500021849,0.007450541905811967,-0.0006191563408915627,0.0011867499543354754
8.139,0.21764019398252912,0.03622987073269389,-0.20633808978486765,0.017769788764648544,0.0072232346954079025,-0.0005915644452402799,0.0012064546953987065
8.173,0.21757325836674848,0.0350797495566594,-0.002010078551971138,-0.034538173454489174,0.007221710266168717,-0.0005828085496329484,0.0011681556602367582
8.207,0.2240554524363705,0.03307844960850278,0.19466048257123203,-0.060099097542240854,0.007437544161940266,-0.0005917322642948659,0.0011015123719631426
8.239,0.2057490315414512,0.021728896257212225,-0.5497423692167964,-0.34082742796668325,0.006830353821128902,-0.0005371521117555721,0.0007235722453651671
8.272,0.2062674216577587,0.03024663260478991,0.01556727075998495,0.2557878783056362,0.006848026392303079,-0.0005325794387705619,0.0010072128657395041
8.307,0.21271065101288494,0.03119604601230518,0.19349037102481248,0.028510913138596626,0.007062498126838698,-0.00054199096421308,0.0010388283322097626
8.34,0.20663259149064758,0.042958652852773685,-0.18252430997709793,0.35323143665070583,0.006861336690246089,-0.000518032797666422,0.001430523139997364
8.373,0.2067939683250704,0.04311718631837606,0.004846151183868686,0.004760764732804157,0.006867431235886256,-0.0005085957521249668,0.001435802304401923
8.407,0.2131977225910395,0.04469330708760114,0.19230493291198472,0.04733095403078317,0.007080852835241615,-0.0005139933780225196,0.0014882871260171182
8.439,0.21814929607195313,-0.04294790115467129,0.1486959003277366,-2.6318681153835564,0.0072453228468935035,-0.0005257204576856191,-0.0014301651084505543
8.473,0.21862053773945742,-0.04433140476466478,0.01415140142655511,-0.04154665495475938,0.00726020071118394,-0.0005374071959999536,-0.0014762357786633374
8.507,0.22513083910777734,-0.04374021505741014,0.19550454559519295,0.01775344466230158,0.007475582703407727,-0.0005643733881885483,-0.0014565491614117578
8.539,0.2182525602859321,-0.037555430385843504,-0.2065549195749323,0.18572926941641543,0.007246438945727038,-0.0005569395486795083,-0.0012505958318485889
8.573,0.2179609455252524,-0.03669959191837707,-0.00875720002041169,0.025700854878871807,0.007236063569657606,-0.0005651421129805052,-0.0012220964108819567
8.607,0.22434548028745951,-0.037594694537985335,0.19172777063685068,-0.02687995854679466,0.007447297819548786,-0.0005909090691193607,-0.0012519033281149117
8.639,0.2175753226961422,-0.03039973017515084,-0.2033080357752951,0.21606499588091568,0.007221904674087977,-0.0005812533385714786,-0.0010123110148325231
8.671,0.21747395686775256,-0.03280724571581412,-0.0030440188705593636,-0.0722977639838823,0.007217924600337075,-0.0005885789758579083,-0.0010924812823366104
8.704,0.2241815816365564,-0.03421928252103759,0.20143017323735282,-0.042403507664368456,0.0074398677807454424,-0.0006150359308678999,-0.0011395021079505518
8.74,0.21770716042514365,-0.026328696216972848,-0.19442706340578847,0.2369545436656079,0.0072243968655981705,-0.0006045569423520666,-0.0008767455840251959
8.773,0.2178729746234468,-0.026517042585268318,0.0049794053544485895,-0.005656047095960044,0.00722936410025932,-0.000611378615975045,-0.000883017518089435
8.807,0.22466252339289758,-0.027599147470433034,0.20389035343696055,-0.03249564219713862,0.007454080800251595,-0.0006371475732241038,-0.0009190516107654202
8.84,0.21819047800176977,-0.10882258768968861,-0.19435571745128546,-2.4391423489265938,0.007237916802751781,-0.0006352343887680498,-0.003623792170066631
8.872,0.21839288161126788,-0.11001477597709901,0.0060781864714146705,-0.03580145007238432,0.007242266143843089,-0.0006622162172894745,-0.0036634920400373974
8.906,0.22515072997428925,-0.11317832881215724,0.2029383892799211,-0.0950015866383853,0.0074637786328235435,-0.0007104489836347072,-0.0037688383494448364
8.94,0.21850858113400204,-0.006038490176057903,-0.19946392913775418,3.2174125716546347,0.007242211851200172,-0.0007038673854554141,-0.0002010817228627282
8.972,0.218491645378686,-0.003521438900373826,-0.0005085812407215509,0.07558712539591823,0.007241538423801345,-0.0007049654972212139,-0.00011726391538244841
9.007,0.19999411504080333,0.012722583911141207,-0.5554813915280084,0.4878084928382892,0.006628567597952788,-0.0006442675417905804,0.00042366204424100224
9.04,0.20636915384098456,-0.015136529467455542,0.19144260661204882,-0.8366100113692717,0.006839833946621415,-0.000665079205363827,-0.0005040464312662696
9.072,0.2064087622978383,-0.010287765339846768,0.0011894431487611352,0.14560853236062385,0.006840864551094618,-0.0006681027548761879,-0.0003425825858168974
9.106,0.21241679864544788,-0.01079186020854902,0.18042151194022743,-0.015137984045112688,0.007039743043647444,-0.0006900203554394147,-0.0003593689449446824
9.14,0.20601613693276957,-0.011922819031305786,-0.192212063443793,-0.03396272741011306,0.006827363973079192,-0.0006718104285965094,-0.0003970298737424827
9.172,0.20603212432445092,-0.013547324057776249,0.0004801018522927659,-0.04878393472884273,0.00682760824533286,-0.0006747580597945269,-0.00045112589112394913
9.207,0.2124085971748946,-0.01457029240271569,0.19148567118449494,-0.03071977011830152,0.007038588932861802,-0.0006989363461449108,-0.0004851907370104325
9.24,0.21801380767237133,-0.00623801202686274,0.16832463956386562,0.250218629905494,0.007224080013521042,-0.0007198833370027479,-0.00020772580049452925
9.273,0.21796574234876237,-0.008264132506207276,-0.0014434031113801497,-0.06084445883917526,0.0072223133210165295,-0.0007214685498357701,-0.0002751956124567023
9.307,0.2247516930708731,-0.002997763720229278,0.2037823039672888,0.15814921279213207,0.007447026767272869,-0.000745326518590976,-9.982553188363497e-05
9.339,0.21831451590306072,-0.0029993901155640026,-0.19330862365802892,-4.8840700742474165e-05,0.007233662028157462,-0.0007247017134375598,-9.98796908482813e-05
9.372,0.21846818102421744,-0.0030107458635655914,0.0046145682029045286,-0.0003410134535011663,0.007238680981279023,-0.0007259361789958711,-0.0001002578372567342
9.407,0.22518987685792363,-0.0023591889404561994,0.20185272773892451,0.01956627396724901,0.007461329374493388,-0.0007489384570795309,-7.856099171719145e-05
9.44,0.2185482815111776,-0.00041624058807106695,-0.1994473077100907,0.05834679736892289,0.0072412364633740465,-0.0007271844063509946,-1.3860811582766531e-05
9.473,0.21840309178671957,0.001784312115269735,-0.0043600517855267,0.06608266376398804,0.0072364423917778455,-0.0007265364763682163,5.941759343848218e-05
9.506,0.22476459784259764,0.0029308795542318366,0.19103621789423628,0.034431454623486527,0.007447279549000255,-0.0007471138993171437,9.759828915592016e-05
9.54,0.21780829956435788,0.010393281261376484,-0.2088978461933863,0.22409614736170108,0.007216952152723549,-0.0007223902292823874,0.00034609626600383696
9.573,0.21769099126807487,0.009936764663386843,-0.003522771660150406,-0.013709207146836065,0.007213309193938462,-0.0007195595312668523,0.0003308942632907819
9.607,0.22418984384736512,0.007981224635135566,0.19516073811682444,-0.058724925773311606,0.0074288729623263935,-0.000738824694753252,0.00026577478035001435
9.64,0.2174968982198108,0.012651323122275841,-0.2009893581848144,0.14024319781202027,0.0072073377596797595,-0.0007142919699602097,0.00042128905997178555
9.672,0.21759669601005122,0.011978638320452628,0.002996930637850254,-0.0202007447994959,0.007210937281469478,-0.0007116626560962529,0.00039888865607107254
9.707,0.2132356121782798,-0.003941110163728288,-0.13096347843157408,-0.47807052505047787,0.0070665086247820065,-0.0006964538136155509,-0.00013123896845215202
9.739,0.20646027800586814,0.013049895767470421,-0.20346348866101086,0.5102404183543156,0.006842079990627875,-0.0006732870607245988,0.00043456152905676506
9.772,0.20657318437045033,0.013753265287471401,0.003390581518984796,0.021122207807837245,0.006846121646328001,-0.0006706000889358285,0.0004579837340727977
9.806000000000001,0.2130222853446316,0.0030347001911001526,0.19366669592135963,-0.3218788317228603,0.007060046871990004,-0.0006895624652024716,0.00010105551636363509
9.84,0.20691916687861622,0.0026700390155579637,-0.18327683081127277,-0.010950786052317984,0.0068578391256935095,-0.0006691550222259872,8.89122992180802e-05
9.872,0.20704917486566246,0.0029144792298099968,0.003904143755142277,0.007340546974535527,0.006862210156891748,-0.0006689373937526116,9.70521583526729e-05
9.907,0.22472356512709638,0.005895222360836956,0.5307624703133307,0.08951180573654531,0.007448097118452569,-0.0007249475716726366,0.00019631090461587065
9.94,0.21849249373130092,0.01108774232469042,-0.1871192611349987,0.15593153044604993,0.007241777377913612,-0.0007027987248371067,0.000369221819412191
9.972,0.21826049716260118,0.013009884628367819,-0.006966863924917065,0.05772199110142339,0.007234369101217522,-0.0006991499307404533,0.0004332291581246484
10.006,0.2245915137995358,0.023353546288675687,0.1901206197277661,0.3106204702795155,0.0074446483571043295,-0.0007149227107197771,0.0007776730914129005
10.04,0.21772622585638035,0.023612770096312224,-0.20616480309776095,0.00778449872782393,0.007217620951464798,-0.0006874251432788823,0.0007863052442071972
10.072,0.21758877852437794,0.022035176068875024,-0.004127547507579896,-0.04737519601913513,0.007213584654798932,-0.0006815087810066829,0.0007337713630935383
10.106,0.22405853077024995,0.016550843313065087,0.19428685423039074,-0.16469467735164975,0.00742852170218954,-0.0006970003049375469,0.0005511430823250675
10.14,0.2175366650000882,0.014619568958612454,-0.19585182492978243,-0.057996226860439405,0.007212643539014083,-0.0006729689350300242,0.00048683164632179476
10.173,0.21767541199029622,0.014085125956758553,0.0041665762825231776,-0.016049339395012054,0.00721756485300556,-0.000669948724601211,0.00046903469436005986
10.206,0.22444903177811987,0.022397909551841077,0.20341200564034978,0.24963314099346917,0.00744257905564193,-0.0006862753557570155,0.0007458503880763079
10.239,0.21802568243491158,0.021751641237517823,-0.1928933736699186,-0.019407456886584185,0.007230073201332625,-0.0006613207482870056,0.0007243296532093436
10.273,0.21818801633910073,0.0217742152995889,0.004874892017692333,0.0006778997618941403,0.007235934167155327,-0.0006565693948643594,0.0007250813694763104
10.307,0.22491594905200116,0.023123057734279088,0.20204002140842114,0.040505778819525204,0.007459561527986799,-0.0006712388973750089,0.0007699978225514937
10.339,0.21847584814354012,0.01188199010245535,-0.19339642367750848,-0.33756959855326535,0.0072463480851831805,-0.0006477957714410349,0.00039567027041176317
10.373,0.21855268427177263,0.012245411784492706,0.0023073912382133555,0.010913564025145836,0.007249156302174689,-0.0006451115075927537,0.00040777221242360717
10.407,0.22511603595882157,0.014249364366573663,0.19709764825972792,0.06017875621864733,0.007467147967926932,-0.0006611908594683842,0.000474503833406903
10.44,0.21830805995026958,0.015420627783167015,-0.2044437239805401,0.035173075573373944,0.007241641778771601,-0.0006376177430063041,0.0005135069051794616
10.473,0.21804272270946723,0.016017370497324813,-0.00796808530938002,0.017920201626360297,0.007233172454294867,-0.0006330567012063667,0.0005333784375609164
10.506,0.2243490018850358,0.017741013839670194,0.18937775302007678,0.051761061331693135,0.007442736767686989,-0.0006471828139822185,0.0005907757608610175
10.54,0.20666123878618506,0.009560481128433438,-0.5311640570225443,-0.24566164298008275,0.006856218846684712,-0.0005930421045533174,0.00031836402157683354
10.572,0.20601144311826713,0.019731500512510623,-0.019513383420958676,0.3054360175398554,0.0068349485622231955,-0.0005878440077814275,0.0006570589670666038
10.607,0.2122626808740614,0.019231560426164366,0.18772485753135895,-0.015013215806193912,0.0070427405727014674,-0.0006011128773452678,0.0006404109621912735
10.639,0.206147368802392,0.021592052753348443,-0.18364300515523652,0.0708856554709933,0.006840233615126432,-0.000579145481456581,0.0007190153566865032
10.672,0.20630397374261958,0.02133655882636449,0.0047028510578848975,-0.007672490299818434,0.0068458424876526045,-0.0005746924472935941,0.0007105074089179376
10.706,0.21273389462577225,0.021711017173121117,0.1930907172117918,0.011244995398096936,0.00705963127725467,-0.0005875442276441057,0.0007229768718649333
10.739,0.21824646900768097,-0.0009362055430994875,0.16554277423149305,-0.680096778264883,0.007242775757173833,-0.000600264032383287,-3.1175644585212936e-05
10.773,0.2183176711464697,0.010285091305303426,0.002138202366027716,0.3369758813334208,0.0072452320312109166,-0.0005993320855579664,0.0003424935404666041
10.807,0.22508355454772067,0.010852005568532757,0.20317968171924855,0.017024452349229148,0.007469986026750961,-0.0006152770932125207,0.00036137178543214086
10.839,0.218553786708862,0.019839840090016044,-0.1960891242900501,0.2699049405850837,0.007253582872577219,-0.0005937209977294988,0.0006606666749975343
10.872,0.21854531753429163,0.02114882982156668,-0.00025432956667775097,0.039309000947466546,0.007253705257889851,-0.0005887477529629651,0.0007042560330581706
10.907,0.22502776756521023,0.023518826795314043,0.1946681690966547,0.0711710802927136,0.007469312043551515,-0.0006006561910624112,0.0007831769322839577
10.94,0.2181681687435455,0.020542248674693717,-0.20599395860855046,-0.08938673034895875,0.007242047750119462,-0.0005770334524511644,0.0006840568808673008
10.973,0.21785480508316055,0.021810437346608362,-0.009410320131680243,0.0380837439013407,0.00723205021498013,-0.0005711049363078442,0.0007262875636420585
11.006,0.22427218643206157,0.022031984659800073,0.1927141546216522,0.006653072468219554,0.0074455129788303775,-0.0005824931664381131,0.0007336650891713425
11.04,0.21749433415062577,0.014158253254469297,-0.20353910755062438,-0.23644839055047373,0.007220837231239393,-0.0005605383901032693,0.00047146983337382765
11.072,0.2174406330427728,0.011994896843505022,-0.001612645881470447,-0.06496565798691516,0.0072192977087868725,-0.0005572564002242311,0.00039943006488871727
11.106,0.2241700580153941,0.011810303836294948,0.20208483401265165,-0.005543333549852095,0.007442950058199965,-0.000571552539264357,0.0003932831177486218
11.14,0.21773926556351964,0.013242291890143584,-0.19311689044668084,0.043002644259718795,0.007229664215762997,-0.0005521407136022,0.00044096831994178137
11.172,0.21791672668641957,0.013061853489650221,0.0053291628498477505,-0.005418570585386252,0.007235797834839583,-0.0005494217512744102,0.0004349597212053524
11.206,0.22470855533196082,0.013218022923119384,0.20395881818442219,0.004689772776851734,0.007461563726445589,-0.0005632807969666695,0.0004401601633398755
11.24,0.2069049004931564,0.004778312458177526,-0.534644289453586,-0.2534447587069627,0.006870539313394012,-0.0005165934148911673,0.00015911780485731165
11.271,0.2069179895931849,0.017068599761442673,0.0003930660669213034,0.3690776967947491,0.0068711613370322,-0.0005141267305713865,0.000568384372056041
11.307,0.2133126963324974,0.018264096276094773,0.19203323541478978,0.03590079623579878,0.007083822028630636,-0.0005258483371609851,0.000608194405993956
11.34,0.2070969782240916,0.011372692464738685,-0.1866582014536274,-0.2069490634040867,0.006877657704559088,-0.0005071319129071866,0.00037871065907579826
11.373,0.20703157795734117,0.012694351924166765,-0.001963971974487103,0.03968947325609849,0.006875688361825887,-0.0005042166024804481,0.00042272191907475335
11.407,0.21309072193367232,0.014431882834972728,0.1819562755654998,0.05217810542960849,0.007077151156658462,-0.0005157770333878211,0.0004805816984045919
11.44,0.21782397089315056,0.019156083367727287,0.14213960839274,0.14186788386650326,0.007234645089132747,-0.0005231878391333836,0.0006378975761453187
11.473,0.21772348061279026,0.028662190786041736,-0.003017726136945921,0.2854686912406741,0.007231721391559312,-0.000517188916254763,0.0009544509531751898
11.506,0.22433618730295546,0.029388984313273095,0.1985797804854414,0.02182563144838916,0.007451875114622514,-0.0005256946200818828,0.000978653177631994
11.54,0.21777143559548356,0.02822795800196133,-0.19713969091507189,-0.03486565499434725,0.007234297077882263,-0.0005033714273376347,0.0009399910014653124
11.572,0.21750483366319293,0.02376282065408097,-0.008006064032751914,-0.13408820864505586,0.007225873225933182,-0.0004965003264287155,0.0007913019277808964
11.607,0.22427113985684413,0.024387122830066527,0.20319237818772387,0.018747813092659344,0.007451069219818835,-0.0005059725030937897,0.0008120911902412154
11.639,0.21784173700608833,0.027786342460208453,-0.19307516068335734,0.10207866757182962,0.007237886181780149,-0.0004851800018363716,0.0009252852039249416
11.673,0.2180160937225782,0.027857666513850615,0.0052359374321285825,0.0021418634727375747,0.007244126014919685,-0.00047885705246434137,0.0009276602949112255
11.706,0.22479640085886043,0.028768341026575186,0.203612826915382,0.027347582964701838,0.0074698807347105085,-0.00048670696197280236,0.0009579857561849538
11.74,0.21831104906413923,0.014282123134360161,-0.19475530915078695,-0.43502155832477546,0.007254712632750438,-0.0004674655459120595,0.0004755947003741934
11.773,0.21846399857675475,0.014175185777800706,0.00459307845692249,-0.0032113320288124692,0.007260016143817131,-0.0004643532075944589,0.00047203368640076355
11.807,0.2251751605601402,0.014683868921924222,0.20153639589746092,0.015275770093799287,0.007483271218512074,-0.0004750223459210942,0.0004889728351000766
11.839,0.21852256304866088,0.021339965518106005,-0.1997777030474268,0.19988278066611959,0.007262459816138046,-0.00045663231494356797,0.00071062085175293
11.873,0.218346671310218,0.022706412384050297,-0.005282034187473686,0.041034440418747514,0.007256946805191335,-0.0004509428429633299,0.000756123532388875
11.906,0.22468101560659823,0.02379428488879414,0.19022054944084735,0.03266884398630162,0.007467831409698759,-0.00045824318493525244,0.000792349686796845
11.939,0.20653539674638455,0.01779833152039002,-0.544913479285696,-0.18005865971183546,0.0068650068586846085,-0.0004164806609309138,0.0005926844396289877
11.972,0.20625000427637327,0.025900314623763597,-0.008570344444783043,0.2433027958971044,0.006855821408974362,-0.0004109170912122879,0.0008624804769713279
12.007,0.21215333617019722,0.023728341643779467,0.17727723404876705,-0.06522441381333723,0.0070523970948948,-0.00041685107697661365,0.0007901537767378564
12.039,0.20607246481843408,0.09391066397297604,-0.1826087493021962,2.1075772471230203,0.0068510342120770345,-0.0003914845878941962,0.0031272251103001024
12.073,0.20611577626321526,0.09391010443291412,0.0013006439874226556,-1.6803004862550637e-05,0.006853665139009166,-0.0003701358234129255,0.0031272064776160405
12.106,0.21253124375023016,0.09649779381052451,0.192656681291739,0.07770838971802976,0.007068163540706569,-0.00035925020092388113,0.0032133765338904666
12.14,0.217985586946291,0.008418543860252654,0.1637940899717968,-2.6450225210291847,0.007250194637951596,-0.0003558055521727115,0.00028033751054641344
12.172,0.21813743193004173,0.08376198564682343,0.004559909421943899,2.2625658194165394,0.007255780596888626,-0.0003449174822627423,0.0027892741220392203
12.206,0.2012162164283938,0.009422939868450506,-0.5081446096590971,-2.2324037771283156,0.00669342761026144,-0.000307777196192886,0.00031378389761940186
12.24,0.1954693395534783,0.08287671044486959,-0.17257888513259714,2.205818936228801,0.0065027083673211555,-0.0002889938223678833,0.0027597944578141576
12.273,0.19561911916814934,0.08334749136554723,0.004497886326457209,0.014137565185514574,0.006508466602016571,-0.00027120327965002186,0.0027754714624727227
12.306,0.20160871973691472,0.08657726428503638,0.17986788494790928,0.09699017776243714,0.006708511080515113,-0.0002605281928493811,0.002883022900691712
12.339,0.2173562813893797,0.008541083861677911,0.472899749323273,-2.343428841542296,0.007232947947390183,-0.00026942339773299094,0.00028441809259387445
12.372,0.21801462824131793,0.0820541288151113,0.019770175733880433,2.2075989475505517,0.007255252849785447,-0.00025929576773372034,0.0027324024895432064
12.407,0.22459590198490628,0.0847911528360596,0.19763584815580648,0.08219291354199108,0.00747498243198019,-0.0002463588730326075,0.002823545389440785
12.44,0.2059010689437566,0.0019418409658943179,-0.5614063976321227,-2.4879673234283866,0.006853103812732789,-0.00021595624822402746,6.466330416428079e-05
12.472,0.20619725501494418,0.07614869137827805,0.008894476612239863,2.2284339463178293,0.00686323546857333,-0.00020734338912023007,0.0025357514228966592
12.507,0.22454032356371714,-0.018477011280900863,0.5508428993625514,-2.841612692467835,0.007473996180716369,-0.0002186117939347037,-0.0006152844756539988
12.54,0.2175368278036752,0.05923596872593763,-0.21031518798924756,2.333723123328483,0.007241020478366223,-0.00020687920640769143,0.001972557758573723
12.573,0.21762772714515752,0.059326045110499104,0.002729709954424025,0.0027049965333776084,0.007244440634894558,-0.0001926650943808916,0.0019755573021796205
12.606,0.2244053724888743,0.060771120922300206,0.20353289320470797,0.04339567002405713,0.007470438674710135,-0.00018372767441406906,0.002023678326712597
12.639,0.20695219933692657,-0.02048289256164406,-0.5241193138723039,-2.440060464983311,0.006889536949541524,-0.00016481678598695814,-0.0006820803223027473
12.672,0.20670774210176782,0.052610484461752476,-0.007341058112875587,2.1949963070089047,0.006881485181338409,-0.00016094103115292196,0.0017519291325763576
12.707,0.21311206924767234,0.055046408482620636,0.1923221365136494,0.07315087149754235,0.007094976885603662,-0.0001532099853765172,0.0018330454024712674
12.74,0.1954602938463197,-0.023301211288406287,-0.5300833453859656,-2.3527813745053128,0.006507383959388754,-0.0001370803246602824,-0.0007759303359039294
12.772,0.19561645832595656,0.05156530951593056,0.004689624013119284,2.248243867998103,0.006512646286287783,-0.0001341250142363145,0.0017171248068804878
12.807,0.20153268273112443,0.05433457637916884,0.17766439655158764,0.08316116706421257,0.006709847893617714,-0.00012635066609769968,0.0018093413934263225
12.84,0.21740547500683863,-0.022398907682028187,0.47666042870012604,-2.304308830666577,0.0072383903888285275,-0.00013245326667407013,-0.0007458836258115387
12.872,0.21801465861249836,0.05135302733990084,0.01829380197176366,2.214772823481352,0.007258735280132113,-0.00012932507566230865,0.0017100558104186981
12.907,0.22456624230559485,0.05351215889578472,0.19674425504794282,0.06483878546197844,0.0074770894854359875,-0.00012015658859230141,0.0017819548912296314
12.94,0.2059084644981842,-0.021924726515891984,-0.5602936278501697,-2.2653719342845853,0.006855923525372554,-0.0001065678294992469,-0.0007300933929792031
12.972,0.206073819070462,0.050885766524123466,0.004965602771104719,2.1865012924929563,0.006861479129636066,-0.00010334479616474194,0.0016944960252533116
13.006,0.21215345592329418,0.05350148394839621,0.182571677262228,0.07855007280098333,0.007064082212012784,-9.411613294086499e-05,0.001781599415481594
13.039,0.2179505895882605,-0.04761462610276585,0.17408809804703645,-3.0365198213562175,0.007257119248091503,-9.597656222400688e-05,-0.001585567049222103
13.073,0.21770858650777805,0.03260082583219366,-0.007267359774247587,2.408872430479265,0.00724903746233291,-9.768211504333073e-05,0.001085607500212049
13.106,0.22442688197475136,0.03396447894748971,0.201750614623823,0.04095054400288438,0.007472843363844766,-9.241431281728136e-05,0.0011310171489514074
13.14,0.2070442722456143,-0.04546247151589051,-0.5220002921662777,-2.3851937076090155,0.0068940300092651665,-8.657631834655972e-05,-0.001513900301479154
13.172,0.2067318271136338,0.03223466972452544,-0.009382736696111242,2.3332474846971754,0.006883607528575542,-8.79617401830983e-05,0.0010734145018266973
13.206,0.2131529082365072,0.033685935832742146,0.19282525894514715,0.04358156481131249,0.00709750730162903,-8.290381046699706e-05,0.0011217416632303137
13.239,0.1955155875363973,-0.05557649938588512,-0.5296492702735704,-2.6805536101689866,0.006510195879246194,-7.841676186563779e-05,-0.0018506974295499745
13.273,0.19561409996049675,0.022957330832547668,0.0029583310540373885,2.3583732798328163,0.006513433304532743,-8.199379938361959e-05,0.0007644791167238374
13.306,0.20156159704929896,0.024761442954472673,0.17860351618024659,0.05417754119894909,0.006711534243366011,-7.915435137820924e-05,0.0008245560503839401
13.34,0.20609142870753067,-0.05083071388341505,0.13603098072767877,-2.270034739876508,0.006862330743152926,-8.39118594312298e-05,-0.0016926627723177212
13.372,0.20654131971375417,0.02437636611513233,0.013510240427132184,2.2584708708272485,0.006877273916131065,-8.712425012508762e-05,0.0008117329916339067
13.407,0.2127492792999432,0.025809717608676445,0.18642521279846927,0.043043588394718155,0.007084054870490209,-8.382352690366928e-05,0.0008594635963689257
13.439,0.19448592463018624,-0.05353470269706893,-0.5484490891818905,-2.382715324496858,0.006475891028861434,-7.961714636999041e-05,-0.0017827055998123954
13.473,0.19468399699694788,0.024551389172424797,0.005948119121971243,2.34492768376858,0.006482447802274825,-8.282649846718553e-05,0.0008175612594417458
13.506,0.2003322085395789,0.02545584915121686,0.16961596224117145,0.02716096032408602,0.006670586528224035,-7.967543848156627e-05,0.0008476797767355216
13.54,0.21827417871070526,0.023501555610311357,0.5387979030368277,-0.05868749372088599,0.0072680798832868935,-8.088677682794359e-05,0.0007826018018233683
13.573,0.21761680293375185,0.10670856219777372,-0.019741014322925104,2.4987089065304007,0.007246344803341753,-6.493323048282726e-05,0.003553395121185865
13.606,0.22440500264158797,0.10859363837221812,0.20384984107615967,0.056608894127459536,0.007472574539121028,-4.017148247071439e-05,0.003616168157794864
13.639,0.2070489704632822,0.034850826662800954,-0.52120216751669,-2.2144988501326477,0.00689469956221409,-2.059765614304871e-05,0.0011605325278712718
13.672,0.20670690533115665,0.11637558298935287,-0.010272226189956012,2.4481908806772346,0.0068833348815201985,-3.2319590048085e-06,0.003875306913545451
13.706,0.20153616348930287,0.025752118658082364,-0.155277532788402,-2.721425355293408,0.006711141964521284,1.2730329299859374e-05,0.0008575455513141428
13.74,0.19552659858642046,0.10734314397256908,-0.18046741450097303,2.4501809403749766,0.00651097719572829,2.6779334669176038e-05,0.0035745266942865507
13.772,0.1956703736899523,0.10796515692678553,0.004317570676631671,0.018679067694187597,0.006515626883876535,5.015705963233264e-05,0.0035952397256619585
13.806000000000001,0.18970684789646536,0.1705512145655768,-0.17908485866327145,1.8794611903540916,0.006316748952142013,7.79217408111728e-05,0.0056793554450337074
13.84,0.18420983357275567,0.16396199958442,-0.16507550521650727,-0.19787432375846176,0.006133196616462149,0.00010982511472601684,0.005459934586161187
13.873,0.183963346718518,0.16354123911255836,-0.007402007634764889,-0.012635449605455047,0.0061243008434533775,0.00014307549985735505,0.0054459232624481935
13.907,0.18911058972875083,0.020411932624430595,0.15457186216915428,-4.298177372015848,0.006295184722673599,0.0001663606610446208,0.0006797173563935389
13.94,0.17212153032198643,0.1559601982373785,-0.510181964167099,4.070518486875312,0.005729170819142811,0.00016824017269585255,0.005193474601304705
13.972,0.17198239966237497,0.15419506536910413,-0.004178097886230146,-0.05300699304127242,0.00572359548385265,0.00019766382232986462,0.005134695676791168
14.007,0.1653798117751335,0.014472954218560131,-0.19827591252977378,-4.19585919371003,0.0055033110409601635,0.0002055313667108041,0.0004819493754780524
14.04,0.14900241666112116,0.1423208918337661,-0.4918136670874577,3.8392774058620405,0.004957818811260606,0.00019812126146520585,0.004739285698064411
14.073,0.1485984858163551,0.1462267293726014,-0.012130055398380163,0.11729241858364278,0.004943372081207398,0.00022133615794818785,0.004869350088107627
14.106,0.15316590842975228,0.15112206496443675,0.1371598382401556,0.14700707482989064,0.005094122608712028,0.00025336255583237907,0.005032364763315744
14.14,0.14876155711737307,0.13450690740785126,-0.13226280217354974,-0.49895368037794263,0.004946413795883749,0.00026960379191941415,0.004479080016681448
14.173,0.14888469741216098,0.13414845999239014,0.0036979067503876907,-0.010764186650484134,0.004949251820110885,0.00029196836711973157,0.004467143717746592
14.207,0.15352659631241863,0.13807870516271295,0.13939636337110065,0.11802538049017447,0.005102141353636187,0.00032420041333046525,0.004598020881918342
14.24,0.14937280315189944,0.004888299543422787,-0.12473853334892485,-3.9997118804591634,0.004963338018851854,0.00032724482074707694,0.00016278037479597882
14.273,0.13795841135570486,0.12780038480585207,-0.34277452841425154,3.6910536114843624,0.004583379884805927,0.00031236469089302674,0.004255752814034874
14.307,0.14208018966879715,0.13151079250928976,0.12377712651928811,0.11142365475788875,0.004718884215807975,0.00034207423919913244,0.004379309390559349
14.339,0.12662358118274936,0.22538263883488707,-0.46416241699843225,2.818974364132051,0.0042036342990641054,0.0003298450520566612,0.00750524187320174
14.373,0.1266314743972161,0.22466326223383606,0.00023703346746939844,-0.02160290093246271,0.004201306631054912,0.00036135696928569035,0.007481286632386741
14.407,0.1418544887369101,-0.0020261528258423886,0.4571475777685886,-6.8074899417320855,0.0047048451860169874,0.000422241763272837,-6.747088910055155e-05
14.44,0.11508171067540979,0.22112643975866383,-0.8039873291741831,6.701279056591778,0.0038155968592134483,0.00035647128774373945,0.007363510443963507
14.473,0.11538321545523887,0.2164917163327582,0.009054197592464994,-0.13918088366082954,0.0038228880677075214,0.00038527009885719695,0.0072091741538808495
14.506,0.11879668279471561,0.2054486291956555,0.10250652671101325,-0.33162423835143234,0.003933100430843344,0.0004243093962343589,0.006841439352215329
14.54,0.11525244048067138,0.19747984009689235,-0.10643370312445158,-0.23930297593883385,0.0038129113123490754,0.0004372399397901869,0.006576078675226516
14.572,0.11515666276989213,0.19628413913256984,-0.002876207530908295,-0.03590693586554068,0.0038067966746089805,0.0004618443458807617,0.006536261833114576
14.606,0.11852361232350327,0.2014553458962616,0.10110959620453865,0.15529149440515794,0.003914865575050355,0.0005012841631009086,0.006708463018345512
14.64,0.11481403880467853,0.18269104218315044,-0.11139860416891112,-0.5634926039973321,0.0037891552316117174,0.0005098408839237173,0.00608361170469891
14.672,0.11470967883100115,0.18256625201102478,-0.0031339331434646588,-0.003747452616386203,0.003782543310675657,0.0005323908351997156,0.006079456191967126
14.707,0.11800940442395005,0.15737503355685514,0.09909085864711416,-0.7564930466717606,0.0038881907201405285,0.0005697220010349691,0.005240588617443277
14.739,0.11452076559825945,0.15223550423165347,-0.10476392869941745,-0.15434021997602626,0.0037703466008518274,0.0005723234169553248,0.005069442290914061
14.772,0.11450419623661663,0.15347094583284737,-0.000497578427712338,0.037100348384201315,0.0037668394914535273,0.0005914214389614264,0.005110582496233818
14.807,0.11789782540958013,0.15269510480684487,0.10191078597487986,-0.023298529309384534,0.003875325001597737,0.0006287129466292181,0.005084746990067935
14.84,0.11437767065409139,0.1495171583212429,-0.10571035301767982,-0.09543382839645531,0.0037565002757460582,0.0006288510356850309,0.004978921372097389
14.872,0.11426926560609664,0.1517795204887012,-0.0032554068466892766,0.06793880382757618,0.003749740908006873,0.0006470739773740263,0.00505425803227375
14.906,0.11773812958322229,0.1577413385860391,0.10417008940317257,0.17903357649663348,0.0038600839649110237,0.0006866191579046801,0.005252786574915102
14.939,0.11440095919605121,0.23142792122388722,-0.10021532694207427,2.2128102894248687,0.0037462670861687394,0.0006914456488743157,0.007706549776755446
14.973,0.11436188014762969,0.23318559502241132,-0.0011735449976434862,0.05278299695267553,0.0037395281607607803,0.0007201589846442515,0.007765080314246298
15.006,0.11789095605110134,0.24061079744792296,0.10597825535950904,0.2229790518171665,0.003848948740783086,0.0007727691112898701,0.008012339555015836
15.039,0.11449202339693546,0.216523320856433,-0.10207004967465108,-0.723347645390089,0.0037321605900908035,0.0007789184839335738,0.00721022658451922
15.072,0.11457327086396617,0.21625209707852577,0.0024398638747961643,-0.008144858195412184,0.003729095524438009,0.0008063627204571057,0.007201194832714909
15.105,0.11812971123047608,0.22285668537936487,0.10680001100630371,0.1983359850101831,0.003838667783617098,0.0008594805533123947,0.007421127623132851
15.139,0.11473446148037367,0.18320910597215148,-0.10195945195502742,-1.1906180002166182,0.0037226115840038178,0.0008599662576199167,0.006100863228872645
15.172,0.11482821315084828,0.18217377238387225,0.0028153654797180004,-0.03109109874712403,0.0037203485657419815,0.0008833183787727829,0.006066386620382946
15.206,0.11838555035549508,0.18730683001762288,0.10682694308248669,0.15414587488740633,0.0038299283726541083,0.0009342618708605616,0.006237317439586843
15.239,0.1375021843353742,-0.1378546063039478,0.5740730924888623,-9.764607697344465,0.004447484970429698,0.0010887875318242634,-0.004590558389921462
15.273,0.11500438293642087,0.046451617097245074,-0.6756096516202199,5.534721423459245,0.0037211818356296692,0.0009049811809416181,0.001546838849338261
15.307,0.11843396352608578,0.04788263267555218,0.10299040809804509,0.04297344079000313,0.003830683766553781,0.0009379867698844908,0.0015944916680958876
15.34,0.13709158985493325,0.10084258853991189,0.5602890789443685,1.590389064995787,0.0044314509702031955,0.0010967300073424374,0.0033580581983790663
15.372,0.11478896543014466,0.2867834409860236,-0.6697484812248824,5.583809382766116,0.0037045079575716753,0.0009422346484989911,0.009549888584834586
15.406,0.11839385841369997,0.2920963880485327,0.10825504455121035,0.15954795983510872,0.003811301613222686,0.00100860587755347,0.00972680972201614
15.439,0.11474098626150932,0.23459711237667807,-0.10969586042614565,-1.72670497513077,0.0036850006053708124,0.001009841994475818,0.00781208384214338
15.473,0.11473226845031183,0.2319847674853209,-0.00026179613205674137,-0.07844879553625138,0.0036767652733884185,0.0010383596466127405,0.007725092757261187
15.507,0.10757954911980441,0.09931204368514063,-0.21479637629151394,-3.984165879885293,0.0034421297612857358,0.0009926295898079354,0.003307091054715183
15.54,0.07035217101664883,0.10102961714229494,-1.1179392823770444,0.05157878249712655,0.002248819684118011,0.0006566399544188954,0.003364286250838422
15.572,0.036988610809675006,0.10103051126550885,-1.0019087149241386,2.6850546964341704e-05,0.0011811793647686557,0.0003492131992171601,0.0033643160251414454
15.606,0.006201301036964378,0.07751740130299975,-0.9245438370183371,-0.7060993982735466,0.00019785495716213966,5.913556704632042e-05,0.002581329463389892
15.64,1.6779471832404777e-06,-1.22651032473474e-05,-0.1861748675609951,-2.328218210397811,5.351488891197829e-08,1.606997026499751e-08,-4.084279381366685e-07
15.673,0.0002767616021054203,-0.003618253880102653,0.008260770418083478,-0.10828795125691608,8.826937671210728e-06,2.6500568441192123e-06,-0.00012048785420741837
15.707,0.006152499349878793,-0.34842125826911746,0.17644858101421537,-10.354444576246689,0.00019656649361706428,5.7760117414416646e-05,-0.011602427900361612
15.739,0.00601572717948003,-0.7587984258972833,-0.004107272384347239,-12.323638667512487,0.00019320112764493043,5.2922396128389855e-05,-0.025267987582379536
15.772,0.006015767241628943,-1.175844426049235,1.203067534936398e-06,-12.523903908467014,0.00019479936973924018,4.667123267733401e-05,-0.03915561938743953
15.807,-1.2979111637697635e-06,-1.3987622445885315,-0.1806926472310124,-6.694228784963861,-4.2420047717311814e-08,-8.258839416688187e-09,-0.046578782744798104
15.839,-9.077398519739207e-07,-1.3576253916352556,1.1716856210085366e-05,1.235340929527803,-2.990186637826001e-08,-4.408952422372096e-09,-0.04520892554145402
15.872,6.40762612206017e-05,-1.3584303758811154,0.0019514715036809494,-0.024173701076868767,2.1226479579372344e-06,2.154845349056144e-07,-0.04523573151684115
15.907,0.0001576020473358974,-1.4007408995859685,0.002808582165624495,-1.2705862974430362,5.2396708088241215e-06,2.8968191700837276e-07,-0.046644671956212753
15.94,4.7554813727709035e-06,-1.3577033590230128,-0.0045899869658596534,1.2924186355241958,1.583371923117274e-07,1.4728885758586178e-09,-0.04521152185546633
15.973,-0.00010075398085090197,-1.3551624992242957,-0.003168452319029215,0.07630209605757053,-3.352665191727074e-06,1.2030249793167882e-07,-0.04512691122416905
16.007,0.006199713379128308,-0.7861182889216282,0.18920322402339967,17.088414723803826,0.0002059167986008116,-1.4752244876962736e-05,-0.026177739021090222
16.04,0.006017483328690147,-0.34182544699084655,-0.005472373887031856,13.342127385308755,0.00019956470800599696,-1.806980316240728e-05,-0.01138278738479519
16.073,5.3937812454679004e-08,1.1462114860853181e-06,-0.1807035853116424,10.265062858928905,1.787860458175329e-09,-1.7214797513116716e-10,3.81688424866411e-08
16.106,2.1972840268001554e-07,-3.179860759090431e-05,4.978696403163259e-06,-0.0009893339062159046,7.283270962695013e-09,-7.012890986505013e-10,-1.0588936327771137e-06
16.14,2.424288527282516e-07,-3.084812471931619e-05,6.816951966437257e-07,2.8543029176820476e-05,8.03571511333173e-09,-7.737486427051669e-10,-1.027242553153229e-06
16.173,2.73909629792494e-07,-3.0941127105888925e-05,9.453686806078796e-07,-2.7928644616437846e-06,9.079197913186415e-09,-8.742336803765418e-10,-1.0303395326261013e-06
16.206,-2.6731071531417984e-05,-0.20637240398627557,-0.0008109603952315458,-6.196440326101191,-8.857463961985133e-07,8.836151941592618e-08,-0.006872201052742977
16.24,-0.00012413460510622535,-0.1952372860864386,-0.0029250310382825033,0.3343879249200295,-4.110422525507629e-06,4.37831297768174e-07,-0.006501401626678406
16.273,-7.151646076511145e-05,-0.1950924008185233,0.0015801244546881051,0.004350908946404941,-2.3664083670760694e-06,2.676282872810481e-07,-0.006496576947256826
16.307,0.00011132410669425176,-0.006473667973415152,0.005490707731512409,5.664226211564809,3.682191271160487e-06,-4.28956953679624e-07,-0.0002155731435147246
16.339,-2.6309726828466416e-05,0.00436724333413624,-0.00413314815383538,0.3255528921186604,-8.702252690871115e-07,1.0140784683237087e-07,0.0001454292030267368
16.373,-7.078997787877048e-06,0.004321647737960689,0.0005774993705882693,-0.001369237122388933,-2.3415015231143272e-07,2.7251316840311934e-08,0.00014391086967409096
16.407,0.00010993810566771044,0.41895639216700686,0.0035140271307984227,12.451493826698082,3.639256692697486e-06,-3.9757654312852766e-07,0.01395124785916133
16.44,0.00010605502742085567,0.827811076726099,-0.00011660895636200517,12.27791845522799,3.517837850220199e-06,-3.105713677643059e-07,0.0275661088549791
16.472,0.00010565134283191591,1.2448689045987313,-1.2122660328521085e-05,12.524259095274244,3.5128956897573036e-06,-1.8828257186454273e-07,0.04145413452313776
16.507,-1.1759531816381298e-06,1.3987669688522824,-0.003208026907313935,4.6215634910976275,-3.9153923074587365e-08,3.731391438766652e-10,0.04657894006278101
16.539,1.9143991565969216e-06,1.3576445087459048,9.280337352057211e-05,-1.2349087119032294,6.370192082448529e-08,2.3175089794952922e-09,0.045209562141238634
16.573,6.635348376454891e-07,1.357676817262896,-3.756349306160457e-05,0.000970225735468393,2.202035835428212e-08,1.800296607020328e-09,0.04521063801485444
16.607,1.3613316984195056e-06,1.3988105979636731,2.0954860683904395e-05,1.2352486696930096,4.496048488380334e-08,5.762361403503361e-09,0.04658039291219032
16.64,1.81161512218013e-06,1.3576650836328523,1.3522024737556288e-05,-1.2356010309555798,5.941741346258513e-08,1.040538071902687e-08,0.045210247284973984
16.673000000000002,2.16976941094918e-06,1.3576614449601698,1.0755384047118625e-05,-0.00010926944992472352,7.052821323438179e-08,1.5666028105904068e-08,0.04521012611717366
16.707,0.00032216957278192977,0.8487013489066025,0.009609603704834251,-15.284086968575593,1.038014157674001e-05,2.7092949414891834e-06,0.028261754918589867
16.739,0.00010205936865900041,0.4108536246944631,-0.006609916039727608,-13.148580306670851,3.2696637538333537e-06,9.270621526896934e-07,0.013681425702325624
16.773,5.31771706948905e-08,-2.2897412494588736e-06,-0.0030632489936428084,-12.338015448519895,1.700299760462529e-09,4.946843402502003e-10,-7.62483836069805e-08
16.806,4.9466384411474634e-05,-0.0060508427534773,0.0014838800973207128,-0.18163822859543066,1.581696546936079e-06,4.600050834257423e-07,-0.0002014930636907941
16.839,6.635276103376478e-05,-0.007283121659252312,0.0005070983970657701,-0.03700537254579613,2.1217784143502045e-06,6.16566320233885e-07,-0.000242527951253102
16.869,6.820147888988317e-05,-0.007284864303367408,5.5517052736288085e-05,-5.2331655107994555e-05,2.1810489710164255e-06,6.332160553021463e-07,-0.0002425859813021347
16.907,7.142509793317691e-05,-0.007505749980123792,9.680537667548759e-05,-0.00663320350619772,2.284301924792979e-06,6.625831983983106e-07,-0.00024994147433812227
16.939,7.003284189843249e-05,-0.0072890964860517935,-4.180949053286548e-05,0.0065061109330930445,2.239935063303523e-06,6.491160211447886e-07,-0.00024272691298552474
16.973,6.979206751757906e-05,-0.007303915265912654,-7.230461887490233e-06,-0.00044500840423004683,2.232391229459169e-06,6.463419534761409e-07,-0.0002432203783548914
17.006,7.171921084577989e-05,-0.007535933565980733,5.787217201804283e-05,-0.006967516518560916,2.294197487570565e-06,6.636223238663337e-07,-0.00025094658774715844
17.04,0.033694502206494795,-8.176282529904756e-06,1.0096931830525229,0.22605877728080565,0.0010778792691948315,0.00031164193911244,-2.722702082458284e-07
17.073,0.0670580756061924,-1.2784691863723886e-05,1.00190911110203,-0.00013839067068525913,0.0021451724198192253,0.0006202223531361193,-4.257302390620054e-07
17.107,0.103123287963982,-9.066578118907618e-07,1.0830394101438319,0.00035669771927426797,0.003298890485813946,0.0009537899225880838,-3.019170513596237e-08
17.14,0.1337843681435043,-1.056042564706794e-06,0.9207531585442134,-4.486028613094064e-06,0.004279731496425846,0.0012373749306805496,-3.516621740473625e-08
17.173,0.1671484816520915,-6.8638522053264226e-06,1.001925330588204,-0.00017440869791650532,0.005347042102738354,0.0015459597207922778,-2.285662784373699e-07
17.207,0.2062482078830007,-1.8518674913856933e-05,1.1741659528801556,-0.0003499946759318471,0.006597834300979842,0.0019075911000464478,-6.16671874631436e-07
17.239,0.21801668928787749,-0.03593885432080041,0.35340784999630015,-1.0786887581347313,0.006975510959817245,0.0020122619358280843,-0.0011967638488826538
17.273,0.21801655337902245,-0.03591726573289807,-4.081346997934847e-06,0.000648305943013239,0.006977909096516126,0.0020039137165907108,-0.0011960449489055059
17.307,0.2246221007874942,-0.036996738100359465,0.19836478704119354,-0.03241658761145323,0.00719182957925015,0.00205589954485824,-0.0012319913787419703
17.34,0.18359379172169085,0.3296751902378797,-1.2320813533274277,11.01116901916634,0.005869919732524208,0.0017089961167141715,0.010978183834921397
17.372,0.18367164150251086,0.3306619886849116,0.0023378312558561772,0.02963358699795396,0.005853256323755948,0.001774180964907283,0.011011044223207558
17.407,0.18917563741532645,0.3418525809177277,0.16528516254701453,0.33605382080528823,0.006007816845998171,0.0018947354287252975,0.011383690944560333
17.44,0.2067809237263591,-0.024671913638307785,0.5286872766075867,-11.006741578259323,0.006555929657529868,0.0021057281050936394,-0.0008215747241556493
17.472,0.17222246021906612,0.34531930223192375,-1.0377916969157046,11.110847323430376,0.005450792687429383,0.0017829224771251288,0.011499132764323062
17.507,0.1774350444278658,0.35360158627281274,0.15653406032431505,0.24871723846513474,0.0055940123687107796,0.0019021099718274919,0.011774932822884665
17.54,0.23550070639198184,-0.08689669142669064,1.7437135724959767,-13.228176507492593,0.007413410643055953,0.0025575350021448218,-0.0028936598245087987
17.573,0.21801545390698118,0.07085172105025893,-0.5250826572072269,4.737189563872359,0.0068636192215315115,0.0023658121123295984,0.0023593623109736226
17.607,0.22443853435292022,0.06914097109703668,0.19288529867684784,-0.05137387246913659,0.007060136315890632,0.0024519756743754647,0.0023023943375313216
17.64,0.2069128133544617,-0.10269764474852777,-0.5262979278816368,-5.160318794161094,0.006510092029844674,0.002256870808825785,-0.003419831570125975
17.673000000000002,0.20667235707510617,-0.10186935234695008,-0.007220909289956117,0.024873645693023902,0.006510166938794734,0.0022320871832290407,-0.003392249433153438
17.707,0.212867355226523,-0.10222064141756741,0.18603598052302792,-0.01054922133985994,0.006713082468621577,0.002276195397624862,-0.0034039473592049952
17.739,0.2065717251149271,-0.20443128548913675,-0.18905796130918603,-3.069388710857938,0.006525724159335379,0.002175582641002379,-0.006807561806788254
17.773,0.20647647230130775,-0.20313989504609914,-0.0028604448534341274,0.03878049378491321,0.0065373217518310215,0.0021302662371043596,-0.006764558505035102
17.807,0.2125607913060531,-0.2057231582439825,0.1827122824247852,-0.07757547140790842,0.006744732326333178,0.0021471743489698465,-0.006850581169524618
17.839,0.24718316735439172,-0.10400845286340821,1.0397109924426011,3.0544956570743027,0.007856113109285443,0.0024564331557034597,-0.003463481480351494
17.872,0.2203715164953306,-0.18019705310455134,-0.8051546804522858,-2.287945953187481,0.007014247880163816,0.002156817412791897,-0.00600056186838156
17.907,0.2247363279838964,-0.21730659329518193,0.1310754200770509,-1.114400606325243,0.007167572147634594,0.0021521445099456945,-0.007236309556729559
17.94,0.21808663237718168,-0.12822010877516227,-0.1996905587602017,2.6752698054059953,0.00696740145509747,0.002048418463102812,-0.0042697296222129035
17.972,0.21815805718226244,-0.12901924027633083,0.002144889041464457,-0.02399794297803482,0.006978395626208897,0.002019219212333013,-0.004296340701201817
18.007,0.22471157890596027,-0.13632105958582605,0.1968024541651,-0.21927385313799463,0.007197146248260812,0.0020481005714728874,-0.0045394912842080075
18.039,0.2180481800806286,-0.19295823864233244,-0.20010206682677711,-1.7008161878830748,0.006994513132382695,0.0019490483560020105,-0.006425509346789671
18.072,0.21807004917974382,-0.1954794727020976,0.0006567297031598715,-0.07571273452748192,0.007007674652816629,0.0019039618318951886,-0.00650946644097985
18.107,0.22467264253375643,-0.20054755700822918,0.1982760766970755,-0.15219472390785563,0.007232625632409781,0.0019139597623611371,-0.006678233648374033
18.14,0.21798294974299987,-0.19035220661821725,-0.20089167539809513,0.3061666783787366,0.007029210759811516,0.001811260600372848,-0.006338728480386635
18.172,0.21791968907108333,-0.18755846247633257,-0.0018997198773733283,0.08389622047701757,0.0070384255060493865,0.0017664830355204944,-0.006245696800461875
18.206,0.22433838654734023,-0.18941075891572653,0.19275367796567253,-0.05562451769951858,0.0072570091672203105,0.001773000037579088,-0.006307378271893694
18.24,0.21764447420516886,-0.15774421431433125,-0.2010183886537949,0.9509472853271856,0.007050299474381703,0.0016793739487043027,-0.005252882336667231
18.273,0.21771932550592893,-0.15646801325954732,0.0022477868096117235,0.03832435599951747,0.0070614166466298435,0.0016430314513351792,-0.005210384841542926
18.307,0.22447470405749168,-0.16154848557866472,0.20286422076765,-0.15256673630983186,0.0072893848414711734,0.001655437457365743,-0.005379564569769535
18.339,0.21807376593641442,-0.09576774098525649,-0.19222036399631393,1.9753977355377845,0.00708835737582307,0.0015778794238555734,-0.0031890657748090416
18.372,0.21820597975673986,-0.09538651477160033,0.003970384994757915,0.011448234644329145,0.007097643989743512,0.0015562541848198356,-0.0031763709418942913
18.406,0.22492631471947794,-0.09992336552171226,0.2018118607428852,-0.13624176426762538,0.007321415781677658,0.0015803836460885653,-0.0033274480718730186
18.44,0.20677426941415072,-0.15530510751372964,-0.5451064656254418,-1.6631153751356569,0.006736670267978398,0.0014242273835655146,-0.0051716600802071975
18.473,0.20688809719268092,-0.15497571261476112,0.003418251607513379,0.009891738707763404,0.0067476506678400775,0.0013901705752365717,-0.005160691230071545
18.506,0.21312432827544994,-0.16188504225587072,0.18727420668976041,-0.20748737660989794,0.006958502971855394,0.0013953827588598536,-0.005390771907120496
18.539,0.2066945854553407,-0.14228134918633137,-0.19308536997325063,0.5886994915777582,0.006755340888071905,0.0013190913758174233,-0.004737968927904835
18.573,0.20651626857934496,-0.1419781654275441,-0.005354861141012975,0.009104617380999028,0.006755675184401173,0.0012859938380631087,-0.004727872908737219
18.606,0.21263315819556955,-0.14421223796251997,0.18369037886560316,-0.06708926531459077,0.006962004440277544,0.0012909245164211102,-0.004802267524151915
18.64,0.2320076399636457,-0.16470217881499988,0.5818162693115962,-0.6153135391135106,0.007603502983780705,0.0013694594295917855,-0.005484582554539497
18.673000000000002,0.21792732622339928,-0.11741932343022353,-0.42283224445184475,1.4199055671104006,0.007148021905876039,0.0012527864637520275,-0.003910063470226444
18.707,0.2243092536878751,-0.11825251155117866,0.1916494734076825,-0.025020664292946946,0.0073623523826834274,0.001260594255648255,-0.00393780863465425
18.739,0.2176542299008236,-0.11783763129538284,-0.19985056417572122,0.012458866540415057,0.007148672074198212,0.0011951023165113718,-0.003923993122136249
18.772,0.2178123108079247,-0.11835984449990575,0.00474717438742106,-0.015682078213901083,0.007158512114311191,0.0011678272139344732,-0.003941382821846862
18.807,0.22459869348568526,-0.12255702078982292,0.2037952756084249,-0.12604133002754264,0.007386320700366639,0.0011745942078946739,-0.004081148792301104
18.839,0.21819217353850853,-0.027177211211516093,-0.19238798640170346,2.8642585458950998,0.007178458347735675,0.0011231975605853505,-0.000905001133343486
18.872,0.21834463409958593,-0.026663064903701374,0.004578395227549547,0.01543982906350505,0.007184478961519813,0.001117542381318464,-0.0008878800612932558
18.903,0.22507235451131485,-0.0290106449863506,0.2020336459978655,-0.07049790037985663,0.0074069145599653385,0.0011451110536579408,-0.0009660544780454751
18.94,0.21846797239581608,-0.0355150799895705,-0.19832979325822128,-0.19532837847507203,0.007190760566277167,0.0011037848320035557,-0.0011826521636526977
18.972,0.2183973545078685,-0.03788754483558677,-0.0021206572957228713,-0.07124519057105912,0.007189779346884573,0.0010946418384409887,-0.0012616552430250395
19.007,0.2248594362701884,-0.041040523008798124,0.19405650937897542,-0.09468402922556622,0.007403989787192486,0.0011173017912574916,-0.0013666494161929776
19.039,0.21801290436908932,-0.035754710600988414,-0.20560155859156373,0.15873310533963092,0.0071799321127383,0.001074102475621532,-0.0011906318630129143
19.072,0.21785057611445585,-0.03376944218770218,-0.0048747223613654755,0.05961767006865576,0.007175823741354964,0.001064996872073309,-0.0011245224248504827
19.107,0.22429526277993928,-0.0325532975321553,0.1935341340986013,0.036520860526933215,0.007389312927419345,0.0010883435844546115,-0.0010840248078207717
19.14,0.21748954216494776,-0.02811774034273774,-0.2043759944441897,0.13319991559812494,0.007166163818261087,0.001048081802848692,-0.0009363207534131668
19.172,0.2208750209089733,-0.16353799520533743,0.10166602834911509,-4.066674320198189,0.0072810642980934035,0.0010411661130514402,-0.005445815240337737
19.206,0.2128713810507609,-0.027072468408472525,-0.24034954529166355,4.09806386777372,0.007020384906030962,0.000981164198586636,-0.0009015131980021351
19.24,0.20631536732212566,-0.014359445534930595,-0.19687728914820524,0.3817724586649228,0.006804825609519821,0.0009462522977536212,-0.00047816953631318887
19.272,0.2064916504451583,-0.014579254790916641,0.005293787478457625,-0.006600878558139526,0.006811095421516814,0.0009437791327262069,-0.0004854891845375242
19.306,0.21293005606336526,-0.015539716259240456,0.19334551406026923,-0.02884268673645089,0.007023952395126201,0.0009696838906410381,-0.0005174725514327073
19.34,0.2323943997263193,-0.16018074240441846,0.5845148247133347,-4.343574358714054,0.007669079884628403,0.001035889995423788,-0.0053340187220671355
19.372,0.21854899251545762,-0.010235894346216284,-0.41577799432017093,4.502848290036101,0.007214921233179061,0.0009537077041889582,-0.00034085528172900226
19.406,0.22514241917856903,-0.013185709542095391,0.1980008006940364,-0.08858303891528851,0.00743297147032667,0.0009795816461257794,-0.00043908412775177656
19.44,0.21847743807286613,-0.017377017158673482,-0.20014958275384098,-0.12586509359093365,0.007213412988092341,0.0009469121307597442,-0.000578654671383827
19.473,0.21833177422744443,-0.019213152390311985,-0.0043742896523031585,-0.05513919614530038,0.00720917878163412,0.0009418889536916356,-0.0006397979745973891
19.506,0.22466010703016182,-0.020593598357553877,0.19004002410562715,-0.041454833851107854,0.0074187770907056015,0.0009642727208323829,-0.0006857668253065441
19.539,0.21782981212654798,-0.010533028608316173,-0.20511396106948457,0.3021192116888199,0.007193709227607546,0.0009312280751177607,-0.0003507498526569286
19.572,0.21768871432624745,-0.00794473243760353,-0.004237171180196005,0.07772661173311242,0.007189335537479902,0.0009284130913813296,-0.00026455959017219756
19.606,0.22406323532663788,-0.004592529612417445,0.19142705706878171,0.10066675150708962,0.007400058277209894,0.0009540548606190634,-0.00015293123609350093
19.64,0.2175152716389024,-0.006802941909860365,-0.1966355461782423,-0.06637874767095855,0.007183976555224901,0.0009248107847898379,-0.00022653796559835018
19.673000000000002,0.21762099323082856,-0.006269585679568094,0.003174822580364866,0.016016703612380508,0.007187669492668377,0.000923695853232428,-0.00020877720312961753
19.706,0.2243665822964671,-0.006348204963239938,0.20257024221136774,-0.0023609394496049273,0.0074106652982775315,0.000950770758309264,-0.00021139522527588995
19.74,0.21794371062829196,-0.010782183553608219,-0.19287902907432883,-0.1331525102212697,0.007198785609502524,0.0009215001321550003,-0.0003590467123351537
19.772,0.21812858650452907,-0.011372878604839015,0.0055518281152285775,-0.01773859012705093,0.007205231867033569,0.0009196239995854494,-0.00037871685754113925
19.806,0.2249233749326427,-0.012327247576757558,0.20404770054395266,-0.028659728886442724,0.007430051188076977,0.0009453387586480626,-0.00041049734430602673
19.84,0.21841505464025276,-0.08223865795911237,-0.1954450538255234,-2.099441753223868,0.007216491529930844,0.0009066230200090365,-0.002738547310038442
19.872,0.21853419745562247,-0.08449356982285336,0.0035778623234145627,-0.06771507098321301,0.007222918330255228,0.0008870695174140024,-0.0028136358751010174
19.907,0.22513244670463192,-0.08921866291417552,0.19814562309337694,-0.14189468742709183,0.007443613166548136,0.000892327495771247,-0.002970981475042045
19.939,0.22060258209719955,-0.1667527632132271,-0.13603197019316446,-2.328351360331879,0.007297494630547783,0.0008432786564355652,-0.005552867015000463
19.973,0.20658385951268182,-0.0921535399687121,-0.4209826601957274,2.2402169142496993,0.006837104537304441,0.0007602250205408166,-0.0030687128809581132
20.006,0.2128167378856556,-0.09813099706076586,0.18717352471392754,-0.17950321597759034,0.007045833553236106,0.000760842845242547,-0.0032677622021235037
20.039,0.20619047036652663,-0.07178999338595335,-0.19898701258645587,0.791021131375751,0.006828513926783774,0.0007178371479108613,-0.0023906067797522467
20.072,0.20600510137947595,-0.06870346648775912,-0.005566636247768242,0.09268849544126827,0.006824034104459168,0.000701230856224379,-0.0022878254340423787
20.106,0.21229670059830408,-0.0695153981160121,0.18893691347832223,-0.024382331178768143,0.007034091243725177,0.000706461155976771,-0.002314862757263203
20.14,0.23232211719907458,-0.1571426588954642,0.6013638618850001,-2.631449272656219,0.007700455151578343,0.0007440441132346388,-0.005232850541218958
20.173,0.21789202813454753,-0.05632130588464326,-0.43333600794375543,3.0276682585832106,0.00722460301428815,0.0006721572221576707,-0.0018754994859586207
20.207,0.22452506652446108,-0.05790616062091542,0.19919034203944605,-0.04759323532348843,0.007445837116333268,0.0006784590241342099,-0.0019282751486764838
20.239,0.21810156731508198,-0.049798248687154247,-0.19289787415552842,0.24348083885168692,0.007233987639500529,0.0006460773223284341,-0.0016582816812822365
20.273,0.21827079653003434,-0.050084360418898216,0.00508195840697761,-0.008591943896215303,0.007240665898338233,0.000634537951948555,-0.0016678092019493107
20.306,0.22505224845959484,-0.05221798296643102,0.20364720509190706,-0.06407274917515932,0.007466729537106821,0.00064153499734375,-0.0017388588327821532
20.339,0.21854513530205136,-0.05892338335091609,-0.19540880352983442,-0.20136337490946152,0.007251978269441622,0.0006095670069107117,-0.001962148665585506
20.372,0.21855346805537001,-0.060845109920151616,0.0002502328323921092,-0.05770950658364941,0.00725345588895157,0.0005951269892711534,-0.002026142160341049
20.407,0.22507187026648004,-0.0642688145093188,0.19574781414744818,-0.10281395162664224,0.007471052061148046,0.0005973147709777889,-0.002140151523160316
20.439,0.2182704347808077,-0.05601827308991006,-0.20424731188205195,0.24776400658885114,0.007246430656139693,0.0005647527085270703,-0.0018654084938940052
20.473,0.21797580046750853,-0.055109832679246004,-0.008847877276251657,0.027280492812734376,0.007237680183857516,0.0005505995684458569,-0.001835157428218892
20.507,0.2242539312622919,-0.05561896486841091,0.18853245629980092,-0.015289254929877127,0.007447171242588088,0.0005527290004643604,-0.0018521115301180836
20.54,0.21749713237965237,-0.04368650515406646,-0.2029068733525383,0.3583321235538874,0.007223663933573718,0.0005241320915239391,-0.0014547606216304134
20.572,0.21751378118980028,-0.04249327394581128,0.0004999642687057419,0.03583276901667207,0.007224961613514944,0.0005138056982202168,-0.0014150260223955158
20.607,0.2241727622074813,-0.042934640657926584,0.19996939993036128,-0.013254255619078162,0.007446892709578986,0.0005189436344546905,-0.0014297235339089554
20.64,0.2064174770195976,-0.1129803115233169,-0.5331917473838954,-2.1034735995612706,0.006858286052294354,0.00046003876952531604,-0.003762244373726453
20.673000000000002,0.2064068899179953,-0.11283331165059009,-0.0003179309790477022,0.004414410592396884,0.006859615390458258,0.0004342275446797148,-0.00375734927796465
20.706,0.2128360845763506,-0.11680844532088504,0.1930689086593179,-0.11937338349234083,0.007074939775383035,0.0004207047739582539,-0.0038897212291854723
20.74,0.20676345429856965,-0.06619796228212992,-0.182361269603031,1.5198343254881417,0.006874294258151224,0.00038775688601594356,-0.0022043921439949266
20.772,0.20690836201869342,-0.0660062795529732,0.004351583186899875,0.005756238112814405,0.00687994949656562,0.00037288540775031105,-0.0021980091091140077
20.807,0.2133279904267783,-0.06866953849076267,0.19278163387642286,-0.07997774587956374,0.007094253919200341,0.00036854782825146393,-0.002286695631742397
20.84,0.20713574791332215,-0.05946688886992912,-0.1859532286323169,0.276355844469476,0.006889078138063637,0.0003431532002896045,-0.00198024739936864
20.873,0.20708574429411525,-0.06034409595511769,-0.0015016101863934198,-0.026342555110767846,0.006888085716676439,0.0003293303063402356,-0.002009458395305419
20.907,0.21317623814591108,-0.06264132314225211,0.18289771326714205,-0.06898580141544819,0.007091346960714474,0.00032449575665732865,-0.0020859560606369953
20.939,0.2179877430393527,-0.08486692300728196,0.1444896364396883,-0.6674354313822778,0.007252194544200292,0.0003140092399873283,-0.0028260685361424895
20.973,0.21795776687062596,-0.08375716513582605,-0.0009001852470493066,0.03332606220588319,0.007252050243340774,0.00029360645477003475,-0.002789113599023008
21.006,0.224348791946023,-0.08362157380573434,0.19192267493684817,0.004071811714465715,0.007465510355119563,0.0002814114917735232,-0.002784598407730954
21.039,0.21761167904446702,0.0009091383961572856,-0.202315702749429,2.5384598258826316,0.007241695168888059,0.0002629881596395335,3.0274308592037613e-05
21.073,0.21748502528353184,0.001507164858053826,-0.003803416244299709,0.017958752609505718,0.007237469796472082,0.000263126270071495,5.018858977319241e-05
21.107,0.2242173424710301,0.0016127082757350438,0.20217168731225987,0.003169472002438972,0.00746149384296009,0.00027165902060218234,5.370318558197696e-05
21.14,0.21779943372132735,0.009759254540425848,-0.19272999248356587,0.2446410289696938,0.0072478688615835694,0.000265255498130534,0.0003249831761961808
21.173,0.2179741243312151,0.009498369869994668,0.005245964260893589,-0.007834374487422836,0.0072535966762364975,0.0002677940548855403,0.0003162957166708225
21.207,0.22476552604919048,0.009276280715424383,0.20394599753679807,-0.00666934398108965,0.007479509702356776,0.0002784757849349381,0.00030890014782363194
21.239,0.21833514769428747,0.01733542505165774,-0.19310445510219248,0.2420163464334341,0.007265405721854312,0.00027372801076642203,0.0005772696542202028
21.273,0.2184933212889641,0.017036764554691632,0.004749957798096845,-0.008968783692675866,0.007270511213823347,0.0002780872507849982,0.0005673242596712314
21.306,0.22520832258556123,0.017059690143494354,0.2016516905885025,0.0006884561202018584,0.0074937934358406556,0.00029088808279012425,0.0005680876817783621
21.339,0.2185448757663708,0.022373122816978265,-0.2001035080837966,0.15956254274726459,0.007271880670978709,0.0002870557663144145,0.0007450249898053763
21.373,0.21840033682301657,0.021895366461044195,-0.004340508809436266,-0.014347037715737828,0.007266857862718293,0.0002922221809659391,0.0007291157031527718
21.406,0.22479472393693528,0.023080079835917804,0.19202363705461586,0.035576978224432676,0.00747939164144865,0.000306378906113274,0.000768566658536063
21.44,0.2208549036389139,-0.16526039948300014,-0.11831292186250354,-5.655870249817355,0.007348988458321962,0.0002836123778515143,-0.005503171302783905
21.472,0.20631606376723904,0.010700191593023852,-0.4366017979481942,5.284101834114834,0.006865873530902084,0.00024727456809616843,0.0003563163800476943
21.507,0.21227636044811196,0.01415003459292218,0.17898788831450202,0.1035988888858357,0.007064116913660191,0.0002573409649203373,0.00047119615194430865
21.54,0.205986531860719,0.01891644980063163,-0.18888374136315209,0.14313559182310653,0.006854665894762481,0.00025348977557301914,0.0006299177783610333
21.572,0.206101496164481,0.019154717876955784,0.003452381494354676,0.007155197487211866,0.006858329437161264,0.0002579786953684447,0.0006378521053026277
21.606,0.21250363076073828,0.019446265960928993,0.19225629418189996,0.008755197716913196,0.007071197432514507,0.00027053705149988053,0.0006475606564989356
21.64,0.23253857647133142,-0.15729485676906763,0.6016500213391333,-5.307541223123021,0.007738523747174002,0.000278282534191776,-0.005237918730409952
21.673000000000002,0.21820418869251404,0.0277929034910582,-0.4304620954599812,5.558190998802577,0.00726205172696955,0.0002454707305950951,0.0009255036862522381
21.706,0.22488835446699934,0.027937046099666026,0.2007256989334925,0.004328606865099916,0.00748426941529301,0.00025993493376145745,0.0009303036351188788
21.74,0.2184479580927623,0.03409228965380453,-0.19340529652363497,0.184842148772928,0.007269668679054054,0.0002599990292922274,0.001135273245471691
21.772,0.21857074969376797,0.03387471932769281,0.0036874354656358218,-0.006533643426778414,0.00727345598055588,0.0002683763589474466,0.0011280281536121706
21.807,0.2251704660918671,0.034443529956817286,0.19818968162459885,0.017081400274008337,0.007492757715789214,0.000285003134814462,0.0011469695475620158
21.84,0.21845306532484882,0.022655039774960656,-0.20172374675730612,-0.35400871416986873,0.0072689640010579586,0.00028341145084526446,0.00075441282450619
21.873,0.21826418310585535,0.022589832011279478,-0.005672138708512419,-0.001958191101536891,0.007262463621899123,0.0002886374955086016,0.0007522414059756067
21.907,0.22456049674563192,0.024053453871185234,0.18907848768097785,0.043952608405578256,0.007471732563399667,0.0003027666004778647,0.0008009800139104683
21.94,0.21760496666076976,0.028439101366415483,-0.208874777323188,0.13170112598289033,0.0072400440789070295,0.0002997166335203437,0.0009470220755016357
21.972,0.21742694220666275,0.029984598352499597,-0.005346079702912938,0.046411320903426846,0.007233826172934415,0.00030650831316429163,0.0009984871251382367
22.006,0.22402792665523022,0.0319629809893443,0.19822776121824218,0.059410889995336516,0.007453112145448251,0.0003235012795713378,0.0010643672669451653
22.038,0.2175528895851968,0.02615080587382419,-0.194445557658661,-0.17453979325886226,0.007237388999437715,0.000321154195182595,0.0008708218355983455
22.073,0.21771049163720818,0.025843314224824207,0.004732794354695919,-0.009233983453452919,0.00724235105436529,0.0003276566899757374,0.0008605823636866462
22.107,0.22449220676705486,0.02617827182927613,0.20365510900440487,0.010058786920478163,0.00746765594722316,0.00034433155454608274,0.0008717364519148952
22.139,0.21808071383209848,0.050513795441207175,-0.19253732537406548,0.7307965048627941,0.007253946175620543,0.00034376043126282957,0.001682109388192199
22.173,0.21824671631754014,0.05069034098002788,0.004985059622872598,0.005301667832453558,0.007258877855026788,0.0003562541644660984,0.0016879883546349285
22.206,0.22503631804355761,0.0517067653166051,0.20389194372424846,0.030523253350667245,0.0074840625706416725,0.00038009735520739825,0.0017218352850429499
22.239,0.21855969375885365,0.04953685996437166,-0.19449322176288195,-0.06516232288989299,0.007268036075538313,0.0003814103343001138,0.0016495774368135766
22.272,0.22077823781269537,-0.17866243357068745,0.06662294455981158,-6.852831637689462,0.007342613435769391,0.0003694960912881175,-0.0059494590379038925
22.306,0.21295736383341232,0.029216504772361124,-0.2348610804589504,6.242610761052509,0.007083382922671904,0.0003387831947107057,0.0009729096089196255
22.339,0.20668526439539678,0.03586567745940918,-0.18835133447494123,0.19967485546690866,0.006874400022847837,0.00033625464141994816,0.001194327059398326
22.373,0.206611949090699,0.03371689516137641,-0.0022016608017352926,-0.06452799693792113,0.006871567544824898,0.00034409665023395826,0.0011227726088738346
22.406,0.21245218889720877,0.035776729947422696,0.17538257677206523,0.06185690048187047,0.007065389969604191,0.00036199851091942367,0.001191365107249176
22.44,0.23230408619139764,-0.1863225454456091,0.5961530718975637,-6.669647909700655,0.007726548099923471,0.00037645759330255993,-0.006204540763338784
22.472,0.21735774876042185,0.030728124522653832,-0.44883896189116473,6.518038137185073,0.007230325111386932,0.0003335069548091677,0.0010232465466043727
22.506,0.22411014929867604,0.03202355323820664,0.20277479093856404,0.038901763229813986,0.007454577842372159,0.0003516564749488496,0.0010663843228322812
22.54,0.2176678594807714,0.043825270603303865,-0.19346215669383332,0.35440592687979655,0.007239850492432667,0.00035069107398138626,0.0014593815110900189
22.572,0.21783464470134029,0.04371274820303362,0.005008565182249222,-0.0033790510591664965,0.007244878716486584,0.00036151963574074654,0.0014556345151610197
22.607,0.22462319537725806,0.04455522798365065,0.2038603806581913,0.025299693111622504,0.007470100551320699,0.0003837648843535118,0.0014836890918555668
22.639,0.2181935017761714,0.03638381520825945,-0.19308389192452452,-0.2453877710327687,0.0072557650189000854,0.00038255834210564353,0.0012115810464350398
22.673000000000002,0.2183673608337769,0.035705712429438256,0.00522099272088595,-0.02036344681144729,0.00726108173337179,0.00039157885818441476,0.001189000223900294
22.706,0.2251443013651625,0.036138768307098494,0.20351172766923756,0.01300468101081795,0.007485938080687529,0.00041268639679975934,0.00120342098462638
22.739,0.21855558431080535,0.026524295140541377,-0.19785937100171624,-0.2887229179146281,0.007266444731313902,0.0004081909738208299,0.0008832590281800279
22.772,0.21849524263190595,0.02499223771767333,-0.0018120624294114247,-0.04600773041645783,0.00726408584131971,0.0004143091998692734,0.000832241515998522
22.807,0.22497583117866218,0.025151279624364736,0.19461226867135833,0.004776033233976115,0.0074791805092565234,0.0004328420877214208,0.0008375376114913458
22.839,0.21810270072164314,0.028385088774314865,-0.20640031402459574,0.09711138588438827,0.007250310616495937,0.0004260814841580436,0.0009452234561846851
22.872,0.21776840741692008,0.029290579073208436,-0.010038837979671639,0.027191900867674815,0.007238785928736096,0.00043238001726971154,0.000975376283137841
22.907,0.22406821107149044,0.03194545054368463,0.1891832929300409,0.07972586998427014,0.0074477386220781995,0.0004524820969292655,0.0010637835031046983
22.939,0.2213445571138652,-0.19223394316594833,-0.08179141013889638,-6.732113925214202,0.007358362361884364,0.00042734474588863576,-0.00640139030742608
22.973,0.20644110850063802,0.02461576040242081,-0.4475510094062215,6.512003110161235,0.00686401034800288,0.00037941680550306343,0.000819704821400613
23.006,0.21244144290808104,0.028599719385568656,0.18019022244573632,0.11963840790233773,0.00706316812739737,0.00039670316668631177,0.0009523706555394363
23.04,0.20632238493531943,0.043396144002343436,-0.18375549467752564,0.4443370755788222,0.0068592570259833315,0.00039349939208004726,0.0014450915952780366
23.072,0.2064838503268029,0.04332271626063468,0.004848810555058747,-0.0022050372885512857,0.006864049237645797,0.00040371854549175735,0.001442646451479135
23.106,0.21291698792544114,0.0441350373203017,0.19318731527442207,0.0243940258158264,0.007077289394435233,0.0004266028523753722,0.0014696967427660467
23.139,0.23276904206094856,-0.1974683669527119,0.5961577818470696,-7.2553574856760825,0.007738317230807944,0.0004466234047867125,-0.006575696619525307
23.172,0.2184410443575642,0.03589388282869258,-0.4302702013028336,7.007875368810944,0.007263102388673005,0.00039959458586076807,0.001195266298195463
23.207,0.2251939897691966,0.03523734749777507,0.20279115350247462,-0.01971577570322848,0.007487142777392135,0.00042081533982751547,0.0011734036716759101
23.24,0.21850670193561586,0.0405129747709592,-0.20081945446188426,0.15842724544096473,0.007264286107239467,0.00041748129480794643,0.0013490820598729414
23.272,0.21839518299689747,0.03954307830028241,-0.0033489170786302007,-0.029126020140444055,0.007260016029931517,0.0004269457204213461,0.0013167845073994045
23.306,0.22481129323771915,0.04064165536913226,0.19267598320785798,0.03299030236786324,0.007472710549273931,0.00044946575150070164,0.0013533671237921042
23.339,0.2178734478162112,0.0387487320785698,-0.2083437063515897,-0.05684454326013395,0.007241515019434538,0.0004451674861318846,0.0012903327782163743
23.373,0.21753188840718518,0.03978405750708184,-0.010257039310090886,0.031090853709070325,0.0072295751393839066,0.00045392316477893546,0.0013248091149858255
23.402,0.22403947147980616,0.04314419237955119,0.19542291509372298,0.10090495112520562,0.007445199055892967,0.00047778296429146363,0.0014367016062390547
23.44,0.21754063811782115,-0.04008283195842741,-0.19516016102057077,-2.4993100401795374,0.007229208594122344,0.00046429214781775727,-0.001334758304215633
23.473,0.21760099014840958,-0.04018647987406302,0.0018123732909439696,-0.0031125500190873085,0.007231828414607775,0.0004547561413838967,-0.0013382097798062987
23.506,0.22435290482194453,-0.04164203500326194,0.20276020040645487,-0.04371036424020779,0.007456855782885515,0.0004587075865381343,-0.0013866797656086228
23.539,0.21793715321445312,-0.030956216656478942,-0.19266521343818063,0.32089544584933927,0.007244147931410605,0.00043683396009082094,-0.0010308420146607489
23.571,0.21811057364215475,-0.031250784936389345,0.005207820651700648,-0.008845894291603675,0.007250361274690365,0.00042967225914969403,-0.0010406511383817653
23.591,0.2249023366023326,-0.03277281256976596,0.2039568456509868,-0.04570653553683535,0.007476598875042449,0.0004350821041191013,-0.0010913346585732066
23.64,0.2184540516743059,-0.032424248938834374,-0.1936421900308321,0.010467376304251886,0.007262688133156838,0.00041472402493735095,-0.0010797274896631847
23.672,0.21858783002232912,-0.008399447331393924,0.004017367808505177,0.7214655137369504,0.007267416423651706,0.00041003834166891,-0.0002797015961354177
23.707,0.22521129528367212,-0.0092302205525094,0.19890286070099092,-0.02494814477824254,0.007487751266037054,0.0004202650884072253,-0.00030736634439856305
23.739,0.20693754704412579,-0.04363349622080756,-0.5487612083947847,-1.0331314014503952,0.006880528330555607,0.00038010859160668355,-0.001452995424152892
23.772,0.2068186925537738,-0.043051453084252955,-0.003569203914473958,0.017478772869507664,0.0068771176528537046,0.00036996489186682033,-0.0014336133877056235
23.807,0.21267733018839977,-0.04475655525594947,0.17593506410288176,-0.051204269420315855,0.007072477180246648,0.0003701054499116307,-0.0014903932900231175
23.839,0.2061782725379005,-0.03838876878959585,-0.1951668964113894,0.19122481880941808,0.006856844604479694,0.0003493035955488823,-0.0012783460006935419
23.867,0.20600201327225048,-0.03635719543270243,-0.0052930710405409585,0.061008208915718294,0.006851411858721109,0.0003404785273584263,-0.0012106946079089912
23.906,0.212243356878553,-0.03681591039009249,0.18742773592500053,-0.013775223945647506,0.007059414563831532,0.0003421937149769972,-0.0012259698159900801
23.939,0.24473554167990577,-0.18788904917308064,0.9757412853259089,-4.536730894384028,0.00814154183912425,0.0003641216519999647,-0.006256705337463586
23.972,0.22097943014709742,-0.06385222757906557,-0.7133967427269774,3.7248294772977495,0.007352578692238936,0.0002979618153018836,-0.0021262791783828836
24.007,0.2245823632527391,-0.02605373059377352,0.10819618935860854,1.1350899995583197,0.0074729040484626495,0.0002916338314466855,-0.0008675892287726584
24.039,0.21807464966243056,-0.007168072432602297,-0.19542683454379947,0.5671368817168535,0.007256517766653077,0.00027916932928218237,-0.0002386968120056565
24.072,0.21824360092736134,-0.007213625391604776,0.005073611559482651,-0.0013679567268011683,0.007262206376851345,0.00027764664745817203,-0.00024021372554043906
24.106,0.22503417356962555,-0.007966905371722928,0.20392110036829453,-0.022621020423968536,0.007488239483207162,0.00028439283764789756,-0.00026529794887837356
24.139,0.21856002949711623,-0.01775400152345549,-0.19441874091619574,-0.2939067913433201,0.007272923334893481,0.00027309633827436584,-0.0005912082507310678
24.173,0.21862398981684203,-0.018660467163878324,0.0019207303220961916,-0.027221190403088135,0.007275215992298697,0.00026876533755134963,-0.0006213935565571483
24.205,0.22514880071856136,-0.020098779569383947,0.19594026731889877,-0.043192564729898575,0.007492521121426365,0.0002719514336589588,-0.0006692893596604855
24.24,0.2182940121851438,-0.013169854786204842,-0.20584950550803482,0.2080758193146878,0.0072645518967211385,0.0002596477534526405,-0.0004385561643806213
24.272,0.21801115689910558,-0.012028235142941417,-0.008494152733880461,0.03428287217007282,0.007255246991027597,0.0002562674110936323,-0.00040054023025994925
24.306,0.22427808500026458,-0.011591526344648532,0.1881960390738439,0.013114378327113688,0.007463908740461272,0.0002606987460807096,-0.0003859978272767961
24.34,0.21742791641815765,-0.00013421255758412892,-0.2057107682314395,0.3440634770890211,0.007235986393311083,0.0002513234734354821,-4.469278167551494e-06
24.372,0.21742219697125223,0.001109055117604813,-0.0001717551623248259,0.03733536562128955,0.007235791969983264,0.0002514343073368738,3.693153541624028e-05
24.407,0.22412061884686998,0.0015487609312343036,0.20115381007861124,0.013204378787672385,0.007458703395363504,0.0002595106541583911,5.1573739010102315e-05
24.44,0.20992637216889126,-0.07263599025242017,-0.42625365399335496,-2.2277703058154494,0.006986601924733631,0.00023480579650824146,-0.002418778475405592
24.473,0.2064592274145236,-0.007088470305038096,-0.10411846109212182,1.9683939924138758,0.00687151332273018,0.00022180666585402424,-0.0002360460611577686
24.507,0.21279069636372824,-0.006691778252970187,0.19013420267881795,0.011912674236273534,0.007082293750987877,0.00022698382999223777,-0.00022283621582390724
24.54,0.2215294556852924,-0.06715461783255859,0.26242520485177623,-1.8157008882759278,0.007373428550514428,0.00022723964589485863,-0.0022362487738242015
24.573,0.21842173613688393,-0.0009360806127831453,-0.0933249113636176,1.9885446612545177,0.0072702414740943916,0.0002158096618439706,-3.117148440567874e-05
24.606,0.22515507436245236,-0.0010974276816858156,0.20220234911616905,-0.004845257324404513,0.007494370445447265,0.0002222087333999054,-3.654434180013767e-05
24.64,0.21862116527712655,0.0037864371179775667,-0.19621348604581998,0.14666260659649796,0.007276877178104956,0.00021608612643394875,0.000126088356028653
24.673000000000002,0.21857205416934672,0.003149518016669688,-0.0014748080414363719,-0.01912669973897534,0.007275217502939644,0.00021687775498035433,0.00010487894995510062
24.706,0.22497479728791922,0.002994295532338248,0.19227456812530033,-0.004661335865809008,0.007488311300921874,0.00022399688033149535,9.971004122686366e-05
24.74,0.21810666107349228,0.008699525009143167,-0.2062503367695779,0.17132821251666422,0.007259662177306125,0.00021857207344962853,0.0002896941828044675
24.773,0.2177809014413867,0.009738570223295885,-0.009782571534701835,0.031202558983565123,0.007248751946733049,0.00022047095427445244,0.000324294388435753
24.807,0.22402676079828218,0.010574099560352886,0.18756334405091524,0.025090971082792794,0.007456565792033718,0.0002293158309714706,0.0003521175153597511
24.84,0.2174095251580405,0.017814656973143432,-0.198715784992243,0.21743415654025663,0.007236209908919778,0.00022596275092663548,0.0005932280772056763
24.873,0.2174942777976645,0.01845309498246169,0.0025451243130334505,0.019172312592139924,0.007238892966586647,0.00023042214330425907,0.0006144880629159744
24.907,0.2242359827429057,0.018976933590668113,0.20245360195919535,0.01573088913532797,0.007463128581970825,0.00024221571807070272,0.0006319318885692482
24.939,0.21781823418465052,0.020561776502997058,-0.19272518192958535,0.04759288025011845,0.007249373539847174,0.00024005583541090777,0.0006847071575498021
24.972,0.21799563446239206,0.020188799658584656,0.0053273356679143,-0.01120050583821026,0.007255113058035738,0.00024517397626563816,0.0006722870286308691
25.006,0.2247874538678864,0.020327935645976774,0.20395854070553562,0.004178257879643183,0.007480979357989667,0.0002578593116859967,0.0006769202570110266
25.04,0.21834899875049305,0.012064445063192824,-0.19334700052232295,-0.24815287035387235,0.007266570000985388,0.0002543927406674119,0.00040174602060432106
25.072,0.21851108357447765,0.011376272596465299,0.004867412131669956,-0.02066583984166743,0.007271864212519224,0.00025741972217689185,0.00037882987746229446
25.107,0.2252204236664619,0.011150029598731685,0.20148168444397097,-0.006794084016024451,0.0074950453426605055,0.00026813487693862583,0.00037129598563776515
25.139,0.2185519267038684,0.017180191033313315,-0.20025516404184684,0.18108592896641532,0.007273002760465263,0.0002636264255926194,0.0005721003614093334
25.173,0.2183835110958366,0.01688532458796263,-0.00505752576672062,-0.008854848208729268,0.007267247624532018,0.0002675452348660133,0.0005622813087791557
25.206,0.22475546069352498,0.01804112814148858,0.19134983776842,0.03470881542119973,0.007479128492685687,0.00027970096523180846,0.0006007695671115699
25.239,0.2101115548564504,-0.05933185723899131,-0.4397569320442819,-2.3235130744888854,0.006992004159131697,0.00025667017892480235,-0.001975750846058411
25.273,0.20632909200062927,0.022025418802632805,-0.11358747314778145,2.4431614426914146,0.00686628914679212,0.0002477846328530224,0.0007334464461276725
25.306,0.21220118556395087,0.026109014740875573,0.17633914604569387,0.12263050865593894,0.007061496090098292,0.0002604959788930864,0.0008694301908711567
25.339,0.20598791772564207,0.028915784978605866,-0.18658461976903318,0.08428739452643524,0.0068545003201831226,0.0002591485806813007,0.0009628956397875754
25.373,0.2061076326465536,0.029149655164349784,0.0035950426700160497,0.007023128701018539,0.006858230083569797,0.0002659297796764688,0.0009706835169728478
25.406,0.21251554578044293,0.02973745061865365,0.19242982384052043,0.01765151514426028,0.007071181096984018,0.00028113078786217636,0.0009902571056011667
25.44,0.2216579921984861,-0.06688199013452402,0.2745479404817764,-2.9014847073026324,0.007375562940862449,0.0002886636123378905,-0.00222717027147965
25.473,0.218159683033794,0.020878187181587994,-0.10505432927003297,2.635440760243604,0.007259375228981666,0.0002785475095294887,0.0006952436331468803
25.506,0.2248897911116816,0.02158758743475508,0.20210534768431224,0.021303310905918523,0.007483118118343719,0.0002924315987899909,0.0007188666615773443
25.539,0.2184483378340845,0.028472402415140853,-0.1934370353632762,0.20675120061218533,0.007268541928650534,0.00029011398179035436,0.0009481310004241905
25.571,0.21857448866634777,0.028156375950803923,0.0037883132811795074,-0.009490284214322237,0.00727246248485936,0.0002971386304154567,0.0009376073191617707
25.606,0.22517037761739522,0.028324691862306677,0.1980747432746984,0.005054531876959578,0.00749163129367203,0.00031315067809638405,0.0009432122390148124
25.64,0.2184609208953926,0.01753156426036422,-0.2014851868469257,-0.32411794600427796,0.007268167406144491,0.00030936904171397454,0.0005838010898701286
25.673000000000002,0.21826738268108048,0.017474220453400083,-0.005811958387751252,-0.001722036245169242,0.0072615470264379405,0.00031332738539948226,0.0005818915410982228
25.707,0.22455845467364596,0.018747515223233584,0.1889210808578223,0.03823708017518018,0.007470649187303659,0.0003268638970967579,0.0006242922569336784
25.74,0.21761001545646014,0.022841322667783555,-0.20866183835392868,0.12293716049699611,0.007239266192278547,0.00032176278802290535,0.0007606160448371924
25.773,0.21743042243050345,0.02438127536423566,-0.0053931839626632705,0.04624482571928243,0.007233036603884166,0.0003271843577197875,0.0008118964696290476
25.806,0.2240307700274341,0.026268711825484903,0.19820863654446394,0.05667977361108837,0.007452316670036055,0.00034340123537980984,0.0008747481037886473
25.839,0.21755439082966047,0.019833156098817688,-0.19448586179500404,-0.19325993173174819,0.007236623843702489,0.0003390289508614772,0.0006604440980906291
25.872,0.2177113144977937,0.01951083721172173,0.004712422466463856,-0.009679245858737468,0.007241619876560463,0.00034401739090796996,0.0006497108791503337
25.907,0.22449285258651747,0.019644762660998762,0.20364979245416678,0.004021785263574542,0.007466957848713687,0.00035960135502134026,0.0006541705966112588
25.94,0.21807469312542074,0.027893874764626656,-0.19273752135425593,0.24772108419302982,0.007253201659955695,0.0003550616445972647,0.0009288660296620677
25.973,0.21824710615196952,0.027643536917149995,0.005177568364828028,-0.007517653077377223,0.007258604463698519,0.0003620545319008125,0.0009205297793410949
26.006,0.22503663072866573,0.02793973798005829,0.2038896269278141,0.008894926814062943,0.0074840661940087155,0.00038024418822735494,0.0009303932747359412
26.039,0.21039022915126787,-0.07616975507300243,-0.43983187920113676,-3.126411202794616,0.006997250916641618,0.00034987720697900545,-0.0025364528439309813
26.072,0.2070538526860812,0.017977542639699792,-0.1001914854410411,2.827246177558625,0.006886620369710484,0.0003376566384728942,0.0005986521699020031
