Time,yaw_world,delta_position_x_world,delta_position_y_world,delta_yaw,Theta_calculated,linear_velocity_x,world_velocity_x,world_velocity_y,angular_velocity_yaw,linear_acceleration_x,angular_acceleration_yaw,kinematic_delta_x,kinematic_delta_y,kinematic_delta_yaw,header.seq_x,header.stamp.secs_x,header.stamp.nsecs_x,header.frame_id_x,child_frame_id,pose.pose.position.x,pose.pose.position.y,pose.pose.position.z,pose.pose.orientation.x,pose.pose.orientation.y,pose.pose.orientation.z,pose.pose.orientation.w,pose.covariance,twist.twist.linear.x,twist.twist.linear.y,twist.twist.linear.z,twist.twist.angular.x,twist.twist.angular.y,twist.twist.angular.z,twist.covariance,linear.x,linear.y,linear.z,angular.x,angular.y,angular.z,header.seq_y,header.stamp.secs_y,header.stamp.nsecs_y,header.frame_id_y,orientation.x,orientation.y,orientation.z,orientation.w,orientation_covariance_0,orientation_covariance_1,orientation_covariance_2,orientation_covariance_3,orientation_covariance_4,orientation_covariance_5,orientation_covariance_6,orientation_covariance_7,orientation_covariance_8,angular_velocity.x,angular_velocity.y,angular_velocity.z,angular_velocity_covariance_0,angular_velocity_covariance_1,angular_velocity_covariance_2,angular_velocity_covariance_3,angular_velocity_covariance_4,angular_velocity_covariance_5,angular_velocity_covariance_6,angular_velocity_covariance_7,angular_velocity_covariance_8,linear_acceleration.x,linear_acceleration.y,linear_acceleration.z,linear_acceleration_covariance_0,linear_acceleration_covariance_1,linear_acceleration_covariance_2,linear_acceleration_covariance_3,linear_acceleration_covariance_4,linear_acceleration_covariance_5,linear_acceleration_covariance_6,linear_acceleration_covariance_7,linear_acceleration_covariance_8
0.398,-1.9753875825214445e-05,4.035576289878988e-06,1.085156090482306e-05,-1.3560686167165332e-05,-1.4819911591443822e-06,0.0001415951119098,0.0001415951119096,-2.0984270402832218e-10,-9.591101900416652e-05,0.0042590929350251,-0.0030287555169138,4.7151172265876e-06,-8.180128992662693e-12,-3.193836932838745e-06,6.0,0.0,389000000.0,odom,base_footprint,-1.1349699229164928e-05,8.219442753112975e-06,-0.0010028745106301,-7.838985792180262e-06,0.0039350397898697,-7.460880992972638e-06,0.9999922576423969,"(1e-05, 0.0, 0.0, 0.0, 0.0, 0.0, 0.0, 1e-05, 0.0, 0.0, 0.0, 0.0, 0.0, 0.0, 1000000000000.0, 0.0, 0.0, 0.0, 0.0, 0.0, 0.0, 1000000000000.0, 0.0, 0.0, 0.0, 0.0, 0.0, 0.0, 1000000000000.0, 0.0, 0.0, 0.0, 0.0, 0.0, 0.0, 0.001)",0.0002237216557382,0.0005237438014262,0.0,0.0,0.0,-0.0006801239290712,"(0.0, 0.0, 0.0, 0.0, 0.0, 0.0, 0.0, 0.0, 0.0, 0.0, 0.0, 0.0, 0.0, 0.0, 0.0, 0.0, 0.0, 0.0, 0.0, 0.0, 0.0, 0.0, 0.0, 0.0, 0.0, 0.0, 0.0, 0.0, 0.0, 0.0, 0.0, 0.0, 0.0, 0.0, 0.0, 0.0)",,,,,,,5,0,398000000,base_footprint,-8.268377695580008e-06,0.0038368694996003,-9.844994885727464e-06,0.9999926391064852,0.0,0.0,0.0,0.0,0.0,0.0,0.0,0.0,0.0,0.0001812754283726,-0.0090663036353082,-0.0007747502351446,0.0,0.0,0.0,0.0,0.0,0.0,0.0,0.0,0.0,-0.0033446691334537,-0.0015031872879407,0.1622215518963717,0.0,0.0,0.0,0.0,0.0,0.0,0.0,0.0,0.0
0.432,-2.778255968556656e-05,7.567102876795631e-07,-5.134112352345267e-07,-8.028683860352113e-06,-4.675828091983129e-06,5.388125612060363e-05,5.3881256120014616e-05,-2.519394909991383e-10,-0.0003672238966111,-0.0026340497233996,-0.0081475338620715,1.7942458287248727e-06,-1.694855960984078e-11,-1.222855575715125e-05,7.0,0.0,422000000.0,odom,base_footprint,-9.553255460947352e-06,8.978301044754583e-06,-0.0010024857743461,-7.235563829262925e-06,0.0038614530128794,-1.4170701759658416e-05,0.9999925444359408,"(1e-05, 0.0, 0.0, 0.0, 0.0, 0.0, 0.0, 1e-05, 0.0, 0.0, 0.0, 0.0, 0.0, 0.0, 1000000000000.0, 0.0, 0.0, 0.0, 0.0, 0.0, 0.0, 1000000000000.0, 0.0, 0.0, 0.0, 0.0, 0.0, 0.0, 1000000000000.0, 0.0, 0.0, 0.0, 0.0, 0.0, 0.0, 0.001)",4.640555512916874e-07,4.996548111901944e-06,0.0,0.0,0.0,8.102091485518711e-05,"(0.0, 0.0, 0.0, 0.0, 0.0, 0.0, 0.0, 0.0, 0.0, 0.0, 0.0, 0.0, 0.0, 0.0, 0.0, 0.0, 0.0, 0.0, 0.0, 0.0, 0.0, 0.0, 0.0, 0.0, 0.0, 0.0, 0.0, 0.0, 0.0, 0.0, 0.0, 0.0, 0.0, 0.0, 0.0, 0.0)",,,,,,,6,0,432000000,base_footprint,-7.212373996491144e-06,0.003861300560945,-1.3863119818394927e-05,0.9999925450290984,0.0,0.0,0.0,0.0,0.0,0.0,0.0,0.0,0.0,1.2937357779558789e-05,8.409504099532332e-05,0.0001389910142927,0.0,0.0,0.0,0.0,0.0,0.0,0.0,0.0,0.0,0.0050251428225822,0.0017683011956105,-0.0304982609008995,0.0,0.0,0.0,0.0,0.0,0.0,0.0,0.0,0.0
0.466,-2.039513201027269e-05,-7.556990784616217e-08,4.7568285170299605e-07,7.387427675293866e-06,-1.690438384913438e-05,-2.8975899513198397e-06,-2.897589950905834e-06,4.898197277217233e-11,8.289495321931309e-05,-0.0017050704526103,0.0135170825774913,-9.64897453692191e-08,1.368238976731936e-12,2.760401942203126e-06,8.0,0.0,455000000.0,odom,base_footprint,-9.608584955234784e-06,9.3207798607457e-06,-0.0010024077330125,-7.296293564449413e-06,0.0038607293465506,-1.1484110253396869e-05,0.9999925472641246,"(1e-05, 0.0, 0.0, 0.0, 0.0, 0.0, 0.0, 1e-05, 0.0, 0.0, 0.0, 0.0, 0.0, 0.0, 1000000000000.0, 0.0, 0.0, 0.0, 0.0, 0.0, 0.0, 1000000000000.0, 0.0, 0.0, 0.0, 0.0, 0.0, 0.0, 1000000000000.0, 0.0, 0.0, 0.0, 0.0, 0.0, 0.0, 0.001)",-2.559173401886397e-06,1.7266766666790166e-05,0.0,0.0,0.0,0.0002659189224218,"(0.0, 0.0, 0.0, 0.0, 0.0, 0.0, 0.0, 0.0, 0.0, 0.0, 0.0, 0.0, 0.0, 0.0, 0.0, 0.0, 0.0, 0.0, 0.0, 0.0, 0.0, 0.0, 0.0, 0.0, 0.0, 0.0, 0.0, 0.0, 0.0, 0.0, 0.0, 0.0, 0.0, 0.0, 0.0, 0.0)",,,,,,,7,0,466000000,base_footprint,-7.322477396905238e-06,0.0038606929003141,-1.0169067965330025e-05,0.99999254741888,0.0,0.0,0.0,0.0,0.0,0.0,0.0,0.0,0.0,3.299020071473587e-05,-0.0001941258817193,0.000292579020924,0.0,0.0,0.0,0.0,0.0,0.0,0.0,0.0,0.0,-3.4241042654358486e-05,0.0003008684830144,0.0002781661849907,0.0,0.0,0.0,0.0,0.0,0.0,0.0,0.0,0.0
0.5,-1.0286510002054268e-05,-1.0345859361230063e-07,6.565565545841185e-07,1.0108622008218424e-05,-1.4143981906931257e-05,-2.1427627644549533e-06,-2.142762764240621e-06,3.0307197770286355e-11,0.0002249014800077,2.266748308903561e-05,0.0042644602639159,-7.135400005325773e-08,6.461335911062427e-13,7.489219284256871e-06,9.0,0.0,489000000.0,odom,base_footprint,-9.707483464973209e-06,9.946805525912631e-06,-0.0010023945316874,-7.363509325227779e-06,0.0038606324903854,-6.6590316079132905e-06,0.9999925476813366,"(1e-05, 0.0, 0.0, 0.0, 0.0, 0.0, 0.0, 1e-05, 0.0, 0.0, 0.0, 0.0, 0.0, 0.0, 1000000000000.0, 0.0, 0.0, 0.0, 0.0, 0.0, 0.0, 1000000000000.0, 0.0, 0.0, 0.0, 0.0, 0.0, 0.0, 1000000000000.0, 0.0, 0.0, 0.0, 0.0, 0.0, 0.0, 0.001)",-3.1245878077985505e-06,2.1167657563143763e-05,0.0,0.0,0.0,0.0003244110469501,"(0.0, 0.0, 0.0, 0.0, 0.0, 0.0, 0.0, 0.0, 0.0, 0.0, 0.0, 0.0, 0.0, 0.0, 0.0, 0.0, 0.0, 0.0, 0.0, 0.0, 0.0, 0.0, 0.0, 0.0, 0.0, 0.0, 0.0, 0.0, 0.0, 0.0, 0.0, 0.0, 0.0, 0.0, 0.0, 0.0)",,,,,,,8,0,500000000,base_footprint,-7.376462420242622e-06,0.0038606187657351,-5.1146620934441705e-06,0.9999925477433188,0.0,0.0,0.0,0.0,0.0,0.0,0.0,0.0,0.0,3.451918936981617e-05,-0.0001804555078699,0.0003304948925823,0.0,0.0,0.0,0.0,0.0,0.0,0.0,0.0,0.0,-1.1475061898234637e-05,7.447091617415931e-05,-1.9467827754038658e-05,0.0,0.0,0.0,0.0,0.0,0.0,0.0,0.0,0.0
0.534,5.126981736776483e-07,-1.1035210106466298e-07,7.025698618741224e-07,1.0799208175731917e-05,-6.654762622674383e-06,-9.723565913738784e-07,-9.723565913523477e-07,6.470802300138193e-12,0.0002540237131214,3.51473325249572e-05,0.0008745415349471,-3.2379474492634694e-08,3.5009716329088285e-14,8.45898964694438e-06,10.0,0.0,522000000.0,odom,base_footprint,-9.81339441278456e-06,1.062074638862458e-05,-0.0010023908854736,-7.401002733016648e-06,0.0038606022839576,-1.477961796312642e-06,0.9999925478187554,"(1e-05, 0.0, 0.0, 0.0, 0.0, 0.0, 0.0, 1e-05, 0.0, 0.0, 0.0, 0.0, 0.0, 0.0, 1000000000000.0, 0.0, 0.0, 0.0, 0.0, 0.0, 0.0, 1000000000000.0, 0.0, 0.0, 0.0, 0.0, 0.0, 0.0, 1000000000000.0, 0.0, 0.0, 0.0, 0.0, 0.0, 0.0, 0.001)",-3.26624941810286e-06,2.2119858351020624e-05,0.0,0.0,0.0,0.0003386478299282,"(0.0, 0.0, 0.0, 0.0, 0.0, 0.0, 0.0, 0.0, 0.0, 0.0, 0.0, 0.0, 0.0, 0.0, 0.0, 0.0, 0.0, 0.0, 0.0, 0.0, 0.0, 0.0, 0.0, 0.0, 0.0, 0.0, 0.0, 0.0, 0.0, 0.0, 0.0, 0.0, 0.0, 0.0, 0.0, 0.0)",,,,,,,9,0,534000000,base_footprint,-7.411199263798617e-06,0.0038605984015618,2.8495523303739253e-07,0.99999254783472,0.0,0.0,0.0,0.0,0.0,0.0,0.0,0.0,0.0,3.5162659004918994e-05,-0.0001789681845861,0.0003402864419402,0.0,0.0,0.0,0.0,0.0,0.0,0.0,0.0,0.0,-2.885687773139566e-06,1.926822168275507e-05,-2.7567631543397745e-06,0.0,0.0,0.0,0.0,0.0,0.0,0.0,0.0,0.0
0.5680000000000001,1.1492807193372718e-05,-1.1216585789862454e-07,7.146244786035499e-07,1.098010901969507e-05,1.8042270242699973e-06,-2.5802616186934495e-07,-2.58026161868925e-07,-4.655377742130843e-13,0.0002634039308721,2.145136424938539e-05,0.000281688220741,-8.592271189977793e-09,-6.473373939636664e-14,8.77135089804187e-06,10.0,0.0,522000000.0,odom,base_footprint,-9.81339441278456e-06,1.062074638862458e-05,-0.0010023908854736,-7.401002733016648e-06,0.0038606022839576,-1.477961796312642e-06,0.9999925478187554,"(1e-05, 0.0, 0.0, 0.0, 0.0, 0.0, 0.0, 1e-05, 0.0, 0.0, 0.0, 0.0, 0.0, 0.0, 1000000000000.0, 0.0, 0.0, 0.0, 0.0, 0.0, 0.0, 1000000000000.0, 0.0, 0.0, 0.0, 0.0, 0.0, 0.0, 1000000000000.0, 0.0, 0.0, 0.0, 0.0, 0.0, 0.0, 0.001)",-3.26624941810286e-06,2.2119858351020624e-05,0.0,0.0,0.0,0.0003386478299282,"(0.0, 0.0, 0.0, 0.0, 0.0, 0.0, 0.0, 0.0, 0.0, 0.0, 0.0, 0.0, 0.0, 0.0, 0.0, 0.0, 0.0, 0.0, 0.0, 0.0, 0.0, 0.0, 0.0, 0.0, 0.0, 0.0, 0.0, 0.0, 0.0, 0.0, 0.0, 0.0, 0.0, 0.0, 0.0, 0.0)",,,,,,,10,0,568000000,base_footprint,-7.439851027972665e-06,0.0038605932216949,5.774997580355959e-06,0.99999254783787,0.0,0.0,0.0,0.0,0.0,0.0,0.0,0.0,0.0,3.535880839215254e-05,-0.000178528021402,0.0003428905735649,0.0,0.0,0.0,0.0,0.0,0.0,0.0,0.0,0.0,-7.758711983149856e-07,5.120709221769467e-06,-7.741948848524071e-07,0.0,0.0,0.0,0.0,0.0,0.0,0.0,0.0,0.0
0.6020000000000001,2.252116832819817e-05,-1.12656522694746e-07,7.178358830319653e-07,1.1028361134825454e-05,1.0575577922311863e-05,3.729789377837808e-07,3.729789377629233e-07,3.944467819839956e-12,0.0002729730345709,1.894910209168545e-05,0.0002873604714359,1.2420198626473684e-08,2.0449380047983805e-13,9.0900020512125e-06,11.0,0.0,555000000.0,odom,base_footprint,-9.921903751528016e-06,1.1311985016651143e-05,-0.001002389996189,-7.4300724324962e-06,0.0038605943013603,3.832844492347646e-06,0.9999925478431044,"(1e-05, 0.0, 0.0, 0.0, 0.0, 0.0, 0.0, 1e-05, 0.0, 0.0, 0.0, 0.0, 0.0, 0.0, 1000000000000.0, 0.0, 0.0, 0.0, 0.0, 0.0, 0.0, 1000000000000.0, 0.0, 0.0, 0.0, 0.0, 0.0, 0.0, 1000000000000.0, 0.0, 0.0, 0.0, 0.0, 0.0, 0.0, 0.001)",-3.305411898762707e-06,2.2383203783486463e-05,0.0,0.0,0.0,0.0003425868351889,"(0.0, 0.0, 0.0, 0.0, 0.0, 0.0, 0.0, 0.0, 0.0, 0.0, 0.0, 0.0, 0.0, 0.0, 0.0, 0.0, 0.0, 0.0, 0.0, 0.0, 0.0, 0.0, 0.0, 0.0, 0.0, 0.0, 0.0, 0.0, 0.0, 0.0, 0.0, 0.0, 0.0, 0.0, 0.0, 0.0)",,,,,,,11,0,602000000,base_footprint,-7.466532225012671e-06,0.0038605920487869,1.1289157867846364e-05,0.9999925477951516,0.0,0.0,0.0,0.0,0.0,0.0,0.0,0.0,0.0,3.543636572105932e-05,-0.0001784117007214,0.0003435924854287,0.0,0.0,0.0,0.0,0.0,0.0,0.0,0.0,0.0,-2.156481410075779e-07,1.37641731353464e-06,-1.9959993604814077e-07,0.0,0.0,0.0,0.0,0.0,0.0,0.0,0.0,0.0
0.636,3.356265927426878e-05,-1.1279687110385407e-07,7.187057971332325e-07,1.1041490946070608e-05,1.9665579973524368e-05,9.827382473828768e-07,9.82738247192847e-07,1.9326117595703457e-11,0.0002631806733348,1.8311090378351228e-05,-0.0002940649019847,3.2725183627195583e-08,8.309440303080288e-13,8.763916422050625e-06,12.0,0.0,589000000.0,odom,base_footprint,-1.003445258421741e-05,1.2029125176021556e-05,-0.0010023898478801,-7.457242813028213e-06,0.0038605922642008,9.3417745551567e-06,0.9999925478144776,"(1e-05, 0.0, 0.0, 0.0, 0.0, 0.0, 0.0, 1e-05, 0.0, 0.0, 0.0, 0.0, 0.0, 0.0, 1000000000000.0, 0.0, 0.0, 0.0, 0.0, 0.0, 0.0, 1000000000000.0, 0.0, 0.0, 0.0, 0.0, 0.0, 0.0, 1000000000000.0, 0.0, 0.0, 0.0, 0.0, 0.0, 0.0, 0.001)",-3.31651348922468e-06,2.245747369842718e-05,0.0,0.0,0.0,0.0003436994246423,"(0.0, 0.0, 0.0, 0.0, 0.0, 0.0, 0.0, 0.0, 0.0, 0.0, 0.0, 0.0, 0.0, 0.0, 0.0, 0.0, 0.0, 0.0, 0.0, 0.0, 0.0, 0.0, 0.0, 0.0, 0.0, 0.0, 0.0, 0.0, 0.0, 0.0, 0.0, 0.0, 0.0, 0.0, 0.0, 0.0)",,,,,,,12,0,636000000,base_footprint,-7.492363866611114e-06,0.0038605919393368,1.6809879641884453e-05,0.999992547717817,0.0,0.0,0.0,0.0,0.0,0.0,0.0,0.0,0.0,3.548060214839012e-05,-0.000178380151828,0.0003437908170615,0.0,0.0,0.0,0.0,0.0,0.0,0.0,0.0,0.0,-6.73496201442426e-08,3.85114459842664e-07,-4.90635333141366e-08,0.0,0.0,0.0,0.0,0.0,0.0,0.0,0.0,0.0
0.67,4.460798192250591e-05,-1.1284447264375137e-07,7.189558213215684e-07,1.1045322648237133e-05,2.842949639557499e-05,1.649281960630609e-06,1.6492819599641045e-06,4.6888255548718615e-11,0.0002592936535725,2.0016327725157124e-05,-0.0001167273201901,5.492108925691457e-08,1.872302661039315e-12,8.634478663965002e-06,12.0,0.0,589000000.0,odom,base_footprint,-1.003445258421741e-05,1.2029125176021556e-05,-0.0010023898478801,-7.457242813028213e-06,0.0038605922642008,9.3417745551567e-06,0.9999925478144776,"(1e-05, 0.0, 0.0, 0.0, 0.0, 0.0, 0.0, 1e-05, 0.0, 0.0, 0.0, 0.0, 0.0, 0.0, 1000000000000.0, 0.0, 0.0, 0.0, 0.0, 0.0, 0.0, 1000000000000.0, 0.0, 0.0, 0.0, 0.0, 0.0, 0.0, 1000000000000.0, 0.0, 0.0, 0.0, 0.0, 0.0, 0.0, 0.001)",-3.31651348922468e-06,2.245747369842718e-05,0.0,0.0,0.0,0.0003436994246423,"(0.0, 0.0, 0.0, 0.0, 0.0, 0.0, 0.0, 0.0, 0.0, 0.0, 0.0, 0.0, 0.0, 0.0, 0.0, 0.0, 0.0, 0.0, 0.0, 0.0, 0.0, 0.0, 0.0, 0.0, 0.0, 0.0, 0.0, 0.0, 0.0, 0.0, 0.0, 0.0, 0.0, 0.0, 0.0, 0.0)",,,,,,,13,0,670000000,base_footprint,-7.517673283928494e-06,0.0038605921137836,2.233251520961948e-05,0.999992547608868,0.0,0.0,0.0,0.0,0.0,0.0,0.0,0.0,0.0,3.551429986618592e-05,-0.0001783710764394,0.0003438558549593,0.0,0.0,0.0,0.0,0.0,0.0,0.0,0.0,0.0,-2.8086028842384844e-08,1.226634220500592e-07,-9.663999879513088e-09,0.0,0.0,0.0,0.0,0.0,0.0,0.0,0.0,0.0
0.7040000000000001,5.5654674493319845e-05,-1.1286751770700489e-07,7.190417082636681e-07,1.1046692570813931e-05,3.706397505954e-05,2.4986590758423546e-06,2.4986590741261023e-06,9.26102376481106e-11,0.000260914958988,2.5506820276628996e-05,4.868785031484675e-05,8.320534714924921e-08,3.557216623988569e-12,8.688468134300632e-06,14.0,0.0,655000000.0,odom,base_footprint,-1.025341136719638e-05,1.3424245408530622e-05,-0.0010023900006199,-7.507305525842942e-06,0.0038605920264696,2.0058369629352096e-05,0.999992547657485,"(1e-05, 0.0, 0.0, 0.0, 0.0, 0.0, 0.0, 1e-05, 0.0, 0.0, 0.0, 0.0, 0.0, 0.0, 1000000000000.0, 0.0, 0.0, 0.0, 0.0, 0.0, 0.0, 1000000000000.0, 0.0, 0.0, 0.0, 0.0, 0.0, 0.0, 1000000000000.0, 0.0, 0.0, 0.0, 0.0, 0.0, 0.0, 0.001)",-3.320572821239388e-06,2.2483789108785576e-05,0.0,0.0,0.0,0.0003440974003097,"(0.0, 0.0, 0.0, 0.0, 0.0, 0.0, 0.0, 0.0, 0.0, 0.0, 0.0, 0.0, 0.0, 0.0, 0.0, 0.0, 0.0, 0.0, 0.0, 0.0, 0.0, 0.0, 0.0, 0.0, 0.0, 0.0, 0.0, 0.0, 0.0, 0.0, 0.0, 0.0, 0.0, 0.0, 0.0, 0.0)",,,,,,,14,0,704000000,base_footprint,-7.542574810250265e-06,0.0038605923655352,2.785583414847881e-05,0.9999925474691044,0.0,0.0,0.0,0.0,0.0,0.0,0.0,0.0,0.0,3.5543648776407016e-05,-0.0001783679618153,0.0003438856214812,0.0,0.0,0.0,0.0,0.0,0.0,0.0,0.0,0.0,-1.7691580551280874e-08,5.3159313836959684e-08,3.3771834285417703e-10,0.0,0.0,0.0,0.0,0.0,0.0,0.0,0.0,0.0
0.7380000000000001,6.670208499148412e-05,-1.1288405963889166e-07,7.190841106750893e-07,1.1047410498164272e-05,4.575244319384063e-05,3.342964389094572e-06,3.342964385595681e-06,1.5294878825772058e-10,0.0002448051704956,2.5354513911477987e-05,-0.0004837774322024,1.1132071401078748e-07,5.6965564841717606e-12,8.152012177505617e-06,16.0,0.0,722000000.0,odom,base_footprint,-1.047582816195939e-05,1.4841179965400876e-05,-0.0010023902171905,-7.55633421185199e-06,0.0038605925173314,3.0942558438003e-05,0.9999925473776669,"(1e-05, 0.0, 0.0, 0.0, 0.0, 0.0, 0.0, 1e-05, 0.0, 0.0, 0.0, 0.0, 0.0, 0.0, 1000000000000.0, 0.0, 0.0, 0.0, 0.0, 0.0, 0.0, 1000000000000.0, 0.0, 0.0, 0.0, 0.0, 0.0, 0.0, 1000000000000.0, 0.0, 0.0, 0.0, 0.0, 0.0, 0.0, 0.001)",-3.321294789833772e-06,2.248760074951074e-05,0.0,0.0,0.0,0.0003441591268074,"(0.0, 0.0, 0.0, 0.0, 0.0, 0.0, 0.0, 0.0, 0.0, 0.0, 0.0, 0.0, 0.0, 0.0, 0.0, 0.0, 0.0, 0.0, 0.0, 0.0, 0.0, 0.0, 0.0, 0.0, 0.0, 0.0, 0.0, 0.0, 0.0, 0.0, 0.0, 0.0, 0.0, 0.0, 0.0, 0.0)",,,,,,,15,0,738000000,base_footprint,-7.567123823193477e-06,0.003860592639698,3.337951068135714e-05,0.9999925472987372,0.0,0.0,0.0,0.0,0.0,0.0,0.0,0.0,0.0,3.5570432266360395e-05,-0.0001783664360475,0.0003439060642331,0.0,0.0,0.0,0.0,0.0,0.0,0.0,0.0,0.0,-1.4940619636174215e-08,3.4735389767990593e-08,2.5975613733372395e-09,0.0,0.0,0.0,0.0,0.0,0.0,0.0,0.0,0.0
0.772,7.775004054332912e-05,-1.1289887822014785e-07,7.191149712474046e-07,1.1047955551845e-05,5.3904455371346246e-05,4.429967609337869e-06,4.429967602901812e-06,2.3879499117841847e-10,0.0002337471793293,3.2642739346645576e-05,-0.0003320718067966,1.475179211326004e-07,8.724268014677803e-12,7.78378107166688e-06,16.0,0.0,722000000.0,odom,base_footprint,-1.047582816195939e-05,1.4841179965400876e-05,-0.0010023902171905,-7.55633421185199e-06,0.0038605925173314,3.0942558438003e-05,0.9999925473776669,"(1e-05, 0.0, 0.0, 0.0, 0.0, 0.0, 0.0, 1e-05, 0.0, 0.0, 0.0, 0.0, 0.0, 0.0, 1000000000000.0, 0.0, 0.0, 0.0, 0.0, 0.0, 0.0, 1000000000000.0, 0.0, 0.0, 0.0, 0.0, 0.0, 0.0, 1000000000000.0, 0.0, 0.0, 0.0, 0.0, 0.0, 0.0, 0.001)",-3.321294789833772e-06,2.248760074951074e-05,0.0,0.0,0.0,0.0003441591268074,"(0.0, 0.0, 0.0, 0.0, 0.0, 0.0, 0.0, 0.0, 0.0, 0.0, 0.0, 0.0, 0.0, 0.0, 0.0, 0.0, 0.0, 0.0, 0.0, 0.0, 0.0, 0.0, 0.0, 0.0, 0.0, 0.0, 0.0, 0.0, 0.0, 0.0, 0.0, 0.0, 0.0, 0.0, 0.0, 0.0)",,,,,,,16,0,772000000,base_footprint,-7.591357761399502e-06,0.0038605929215546,3.890345851761176e-05,0.9999925470978204,0.0,0.0,0.0,0.0,0.0,0.0,0.0,0.0,0.0,3.5595253749096375e-05,-0.000178365340768,0.0003439240509251,0.0,0.0,0.0,0.0,0.0,0.0,0.0,0.0,0.0,-1.4213380171517669e-08,2.9835799093949065e-08,2.843984283474078e-09,0.0,0.0,0.0,0.0,0.0,0.0,0.0,0.0,0.0
0.806,8.879849513490782e-05,-1.129132390928853e-07,7.191427486978697e-07,1.1048454591578702e-05,6.168823644301313e-05,5.933119372162143e-06,5.9331193608730825e-06,3.6600367044242576e-10,0.0002259786757844,4.513969257730551e-05,-0.000233288394741,1.9757287465179276e-07,1.3196845088238018e-11,7.525089903622498e-06,18.0,0.0,789000000.0,odom,base_footprint,-1.0698306530990652e-05,1.625826133861549e-05,-0.0010023904164431,-7.604070539659116e-06,0.0038605930723496,4.182800261996237e-05,0.9999925469790892,"(1e-05, 0.0, 0.0, 0.0, 0.0, 0.0, 0.0, 1e-05, 0.0, 0.0, 0.0, 0.0, 0.0, 0.0, 1000000000000.0, 0.0, 0.0, 0.0, 0.0, 0.0, 0.0, 1000000000000.0, 0.0, 0.0, 0.0, 0.0, 0.0, 0.0, 1000000000000.0, 0.0, 0.0, 0.0, 0.0, 0.0, 0.0, 0.001)",-3.321761244730424e-06,2.248968980172052e-05,0.0,0.0,0.0,0.0003441951795604,"(0.0, 0.0, 0.0, 0.0, 0.0, 0.0, 0.0, 0.0, 0.0, 0.0, 0.0, 0.0, 0.0, 0.0, 0.0, 0.0, 0.0, 0.0, 0.0, 0.0, 0.0, 0.0, 0.0, 0.0, 0.0, 0.0, 0.0, 0.0, 0.0, 0.0, 0.0, 0.0, 0.0, 0.0, 0.0, 0.0)",,,,,,,17,0,806000000,base_footprint,-7.61530719841596e-06,0.0038605932070399,4.442765476861761e-05,0.9999925468663656,0.0,0.0,0.0,0.0,0.0,0.0,0.0,0.0,0.0,3.561839227603709e-05,-0.0001783643685297,0.0003439413984984,0.0,0.0,0.0,0.0,0.0,0.0,0.0,0.0,0.0,-1.4021959634273426e-08,2.8518484296736526e-08,2.5901796726999442e-09,0.0,0.0,0.0,0.0,0.0,0.0,0.0,0.0,0.0
0.8400000000000001,9.98474363601016e-05,-1.129274775696007e-07,7.191696848984203e-07,1.1048941225193793e-05,6.921332634663563e-05,7.333812607545046e-06,7.333812589978787e-06,5.07597564965813e-10,0.000201529600886,4.20628599214085e-05,-0.0007342064534044,2.4421595916370294e-07,1.805069976403426e-11,6.710935709506871e-06,18.0,0.0,789000000.0,odom,base_footprint,-1.0698306530990652e-05,1.625826133861549e-05,-0.0010023904164431,-7.604070539659116e-06,0.0038605930723496,4.182800261996237e-05,0.9999925469790892,"(1e-05, 0.0, 0.0, 0.0, 0.0, 0.0, 0.0, 1e-05, 0.0, 0.0, 0.0, 0.0, 0.0, 0.0, 1000000000000.0, 0.0, 0.0, 0.0, 0.0, 0.0, 0.0, 1000000000000.0, 0.0, 0.0, 0.0, 0.0, 0.0, 0.0, 1000000000000.0, 0.0, 0.0, 0.0, 0.0, 0.0, 0.0, 0.001)",-3.321761244730424e-06,2.248968980172052e-05,0.0,0.0,0.0,0.0003441951795604,"(0.0, 0.0, 0.0, 0.0, 0.0, 0.0, 0.0, 0.0, 0.0, 0.0, 0.0, 0.0, 0.0, 0.0, 0.0, 0.0, 0.0, 0.0, 0.0, 0.0, 0.0, 0.0, 0.0, 0.0, 0.0, 0.0, 0.0, 0.0, 0.0, 0.0, 0.0, 0.0, 0.0, 0.0, 0.0, 0.0)",,,,,,,18,0,840000000,base_footprint,-7.638998971275022e-06,0.0038605934949238,4.995209333488356e-05,0.999992546604374,0.0,0.0,0.0,0.0,0.0,0.0,0.0,0.0,0.0,3.564002968666661e-05,-0.0001783634370418,0.0003439585869751,0.0,0.0,0.0,0.0,0.0,0.0,0.0,0.0,0.0,-1.3972434324353392e-08,2.815142270729028e-08,2.2333602194604987e-09,0.0,0.0,0.0,0.0,0.0,0.0,0.0,0.0,0.0
0.874,0.000110896860732,-1.1294168265202185e-07,7.191963757140885e-07,1.104942437193402e-05,7.59242620561425e-05,9.113240884941428e-06,9.11324085867482e-06,6.919160884642873e-10,0.0001808971949069,5.343628460649796e-05,-0.0006195917711461,3.034709204901682e-07,2.4362719120380014e-11,6.02387659040062e-06,19.0,0.0,822000000.0,odom,base_footprint,-1.0807905912567882e-05,1.6956266336209975e-05,-0.0010023905072712,-7.627183728536161e-06,0.0038605933507193,4.7189843912066434e-05,0.9999925467391872,"(1e-05, 0.0, 0.0, 0.0, 0.0, 0.0, 0.0, 1e-05, 0.0, 0.0, 0.0, 0.0, 0.0, 0.0, 1000000000000.0, 0.0, 0.0, 0.0, 0.0, 0.0, 0.0, 1000000000000.0, 0.0, 0.0, 0.0, 0.0, 0.0, 0.0, 1000000000000.0, 0.0, 0.0, 0.0, 0.0, 0.0, 0.0, 0.001)",-3.321982108476384e-06,2.249065857092941e-05,0.0,0.0,0.0,0.0003442120617109,"(0.0, 0.0, 0.0, 0.0, 0.0, 0.0, 0.0, 0.0, 0.0, 0.0, 0.0, 0.0, 0.0, 0.0, 0.0, 0.0, 0.0, 0.0, 0.0, 0.0, 0.0, 0.0, 0.0, 0.0, 0.0, 0.0, 0.0, 0.0, 0.0, 0.0, 0.0, 0.0, 0.0, 0.0, 0.0, 0.0)",,,,,,,19,0,874000000,base_footprint,-7.662457186387981e-06,0.0038605937847415,5.5476772565904325e-05,0.9999925463118432,0.0,0.0,0.0,0.0,0.0,0.0,0.0,0.0,0.0,3.566031226384322e-05,-0.0001783625237494,0.0003439757425419,0.0,0.0,0.0,0.0,0.0,0.0,0.0,0.0,0.0,-1.3960497059126437e-08,2.8037665296589197e-08,1.8764480136870787e-09,0.0,0.0,0.0,0.0,0.0,0.0,0.0,0.0,0.0
0.908,0.0001219467671454,-1.129558780971918e-07,7.192229810610796e-07,1.1049906413455898e-05,8.194813864654312e-05,-0.0001536112587617,-0.0001536112582459,-1.2588156716589162e-08,0.0022253553082254,-0.0048866216110119,0.0613951385380938,-5.115254878554566e-06,-6.155920052850359e-10,7.410433176390752e-05,21.0,0.0,889000000.0,odom,base_footprint,-1.1030467050108204e-05,1.837350546208568e-05,-0.0010023906786761,-7.673421823549981e-06,0.0038605939217209,5.807670474131928e-05,0.9999925461636135,"(1e-05, 0.0, 0.0, 0.0, 0.0, 0.0, 0.0, 1e-05, 0.0, 0.0, 0.0, 0.0, 0.0, 0.0, 1000000000000.0, 0.0, 0.0, 0.0, 0.0, 0.0, 0.0, 1000000000000.0, 0.0, 0.0, 0.0, 0.0, 0.0, 0.0, 1000000000000.0, 0.0, 0.0, 0.0, 0.0, 0.0, 0.0, 0.001)",-3.322428359458424e-06,2.249261025604252e-05,0.0,0.0,0.0,0.0003442461522867,"(0.0, 0.0, 0.0, 0.0, 0.0, 0.0, 0.0, 0.0, 0.0, 0.0, 0.0, 0.0, 0.0, 0.0, 0.0, 0.0, 0.0, 0.0, 0.0, 0.0, 0.0, 0.0, 0.0, 0.0, 0.0, 0.0, 0.0, 0.0, 0.0, 0.0, 0.0, 0.0, 0.0, 0.0, 0.0, 0.0)",,,,,,,20,0,908000000,base_footprint,-7.685703648318786e-06,0.0038605940762431,6.100169199309122e-05,0.99999254598877,0.0,0.0,0.0,0.0,0.0,0.0,0.0,0.0,0.0,3.567936768608592e-05,-0.0001783616220193,0.0003439928978591,0.0,0.0,0.0,0.0,0.0,0.0,0.0,0.0,0.0,-1.3958549392123128e-08,2.7992665641869385e-08,1.5435855214616471e-09,0.0,0.0,0.0,0.0,0.0,0.0,0.0,0.0,0.0
0.942,0.0001329971551444,-1.1297007037128047e-07,7.192495452574924e-07,1.1050387998989816e-05,0.0001560524704104,1.0700560572909885e-05,1.070056044261786e-05,1.6698489054017903e-09,0.0001637296543988,0.0049342888689089,-0.0619106802950924,3.5632866250945626e-07,5.7056276718669797e-11,5.452197491482483e-06,22.0,0.0,922000000.0,odom,base_footprint,-1.1140106976437886e-05,1.9071586583943864e-05,-0.0010023907574419,-7.695897303420599e-06,0.0038605942053341,6.343923276270118e-05,0.9999925458365272,"(1e-05, 0.0, 0.0, 0.0, 0.0, 0.0, 0.0, 1e-05, 0.0, 0.0, 0.0, 0.0, 0.0, 0.0, 1000000000000.0, 0.0, 0.0, 0.0, 0.0, 0.0, 0.0, 1000000000000.0, 0.0, 0.0, 0.0, 0.0, 0.0, 0.0, 1000000000000.0, 0.0, 0.0, 0.0, 0.0, 0.0, 0.0, 0.001)",-3.3226478738069027e-06,2.2493569364754623e-05,0.0,0.0,0.0,0.0003442629290169,"(0.0, 0.0, 0.0, 0.0, 0.0, 0.0, 0.0, 0.0, 0.0, 0.0, 0.0, 0.0, 0.0, 0.0, 0.0, 0.0, 0.0, 0.0, 0.0, 0.0, 0.0, 0.0, 0.0, 0.0, 0.0, 0.0, 0.0, 0.0, 0.0, 0.0, 0.0, 0.0, 0.0, 0.0, 0.0, 0.0)",,,,,,,21,0,942000000,base_footprint,-7.708758119239545e-06,0.0038605943692477,6.652685146457908e-05,0.9999925456351508,0.0,0.0,0.0,0.0,0.0,0.0,0.0,0.0,0.0,3.5697310509641505e-05,-0.0001783607295006,0.0003440100608033,0.0,0.0,0.0,0.0,0.0,0.0,0.0,0.0,0.0,-1.3959248810318551e-08,2.796723053948816e-08,1.239555548018189e-09,0.0,0.0,0.0,0.0,0.0,0.0,0.0,0.0,0.0
0.976,0.0001440480244619,-1.1298426134259856e-07,7.19276081837863e-07,1.1050869317452332e-05,0.0001615046679019,8.886873669864838e-06,8.886873553963307e-06,1.4352715744984083e-09,0.0001874847912146,-5.446507216351491e-05,0.0007133674719449,2.959328891301123e-07,4.9116077073630976e-11,6.243243547447497e-06,23.0,0.0,955000000.0,odom,base_footprint,-1.1249760271817358e-05,1.9769692717980823e-05,-0.0010023908329209,-7.718199579933066e-06,0.0038605944902973,6.880198688370039e-05,0.999992545480664,"(1e-05, 0.0, 0.0, 0.0, 0.0, 0.0, 0.0, 1e-05, 0.0, 0.0, 0.0, 0.0, 0.0, 0.0, 1000000000000.0, 0.0, 0.0, 0.0, 0.0, 0.0, 0.0, 1000000000000.0, 0.0, 0.0, 0.0, 0.0, 0.0, 0.0, 1000000000000.0, 0.0, 0.0, 0.0, 0.0, 0.0, 0.0, 0.001)",-3.3228673129079384e-06,2.2494527795282043e-05,0.0,0.0,0.0,0.0003442797062369,"(0.0, 0.0, 0.0, 0.0, 0.0, 0.0, 0.0, 0.0, 0.0, 0.0, 0.0, 0.0, 0.0, 0.0, 0.0, 0.0, 0.0, 0.0, 0.0, 0.0, 0.0, 0.0, 0.0, 0.0, 0.0, 0.0, 0.0, 0.0, 0.0, 0.0, 0.0, 0.0, 0.0, 0.0, 0.0, 0.0)",,,,,,,22,0,976000000,base_footprint,-7.73163852138075e-06,0.003860594663603,7.205225091585585e-05,0.9999925452509826,0.0,0.0,0.0,0.0,0.0,0.0,0.0,0.0,0.0,3.571424416368452e-05,-0.0001783598449074,0.000344027232814,0.0,0.0,0.0,0.0,0.0,0.0,0.0,0.0,0.0,-1.39606762192938e-08,2.794830618323396e-08,9.626340745149004e-10,0.0,0.0,0.0,0.0,0.0,0.0,0.0,0.0,0.0
1.01,0.0001550993748961,-1.1299845167813545e-07,7.19302596013155e-07,1.1051350434203048e-05,0.0001677479114493,7.450438993869385e-06,7.450438889044085e-06,1.2497955747412056e-09,0.0002154918891787,-4.313617645631992e-05,0.0008410539929169,2.4809961479635924e-07,4.284181408354647e-11,7.1758799096531285e-06,24.0,0.0,989000000.0,odom,base_footprint,-1.1362750376298428e-05,2.04889797199458e-05,-0.0010023909075628,-7.741013121081433e-06,0.0038605947851688,7.432748513834236e-05,0.9999925450839152,"(1e-05, 0.0, 0.0, 0.0, 0.0, 0.0, 0.0, 1e-05, 0.0, 0.0, 0.0, 0.0, 0.0, 0.0, 1000000000000.0, 0.0, 0.0, 0.0, 0.0, 0.0, 0.0, 1000000000000.0, 0.0, 0.0, 0.0, 0.0, 0.0, 0.0, 1000000000000.0, 0.0, 0.0, 0.0, 0.0, 0.0, 0.0, 0.001)",-3.323093343095726e-06,2.249551470200552e-05,0.0,0.0,0.0,0.0003442969934975,"(0.0, 0.0, 0.0, 0.0, 0.0, 0.0, 0.0, 0.0, 0.0, 0.0, 0.0, 0.0, 0.0, 0.0, 0.0, 0.0, 0.0, 0.0, 0.0, 0.0, 0.0, 0.0, 0.0, 0.0, 0.0, 0.0, 0.0, 0.0, 0.0, 0.0, 0.0, 0.0, 0.0, 0.0, 0.0, 0.0)",,,,,,,23,1,10000000,base_footprint,-7.754361110737569e-06,0.0038605949591741,7.757789030865589e-05,0.9999925448362614,0.0,0.0,0.0,0.0,0.0,0.0,0.0,0.0,0.0,3.573026241551524e-05,-0.0001783589675114,0.0003440444137177,0.0,0.0,0.0,0.0,0.0,0.0,0.0,0.0,0.0,-1.3962314252571062e-08,2.7932377799386414e-08,7.118016326284142e-10,0.0,0.0,0.0,0.0,0.0,0.0,0.0,0.0,0.0
1.044,0.0001661512062773,-1.1301264167106613e-07,7.193290906891794e-07,1.1051831381219007e-05,0.000174923791359,5.8199539387297305e-06,5.819953849689287e-06,1.0180484033057822e-09,0.0002276628160818,-4.896351516935898e-05,0.0003654933003933,1.9380446301756486e-07,3.489612688813683e-11,7.581171775526257e-06,24.0,0.0,989000000.0,odom,base_footprint,-1.1362750376298428e-05,2.04889797199458e-05,-0.0010023909075628,-7.741013121081433e-06,0.0038605947851688,7.432748513834236e-05,0.9999925450839152,"(1e-05, 0.0, 0.0, 0.0, 0.0, 0.0, 0.0, 1e-05, 0.0, 0.0, 0.0, 0.0, 0.0, 0.0, 1000000000000.0, 0.0, 0.0, 0.0, 0.0, 0.0, 0.0, 1000000000000.0, 0.0, 0.0, 0.0, 0.0, 0.0, 0.0, 1000000000000.0, 0.0, 0.0, 0.0, 0.0, 0.0, 0.0, 0.001)",-3.323093343095726e-06,2.249551470200552e-05,0.0,0.0,0.0,0.0003442969934975,"(0.0, 0.0, 0.0, 0.0, 0.0, 0.0, 0.0, 0.0, 0.0, 0.0, 0.0, 0.0, 0.0, 0.0, 0.0, 0.0, 0.0, 0.0, 0.0, 0.0, 0.0, 0.0, 0.0, 0.0, 0.0, 0.0, 0.0, 0.0, 0.0, 0.0, 0.0, 0.0, 0.0, 0.0, 0.0, 0.0)",,,,,,,24,1,44000000,base_footprint,-7.776940633077376e-06,0.003860595255839,8.310376961487145e-05,0.9999925443909836,0.0,0.0,0.0,0.0,0.0,0.0,0.0,0.0,0.0,3.5745450412361885e-05,-0.0001783580965656,0.00034406160292,0.0,0.0,0.0,0.0,0.0,0.0,0.0,0.0,0.0,-1.3964025529005412e-08,2.791831264934508e-08,4.838958895461467e-10,0.0,0.0,0.0,0.0,0.0,0.0,0.0,0.0,0.0
1.078,0.0001772035184558,-1.1302683152868837e-07,7.19355567904785e-07,1.1052312178536983e-05,0.0001825049631345,4.679069569662193e-06,4.679069491736825e-06,8.539534145746512e-10,0.0002426869793488,-3.4260791863890005e-05,0.0004511760740825,1.5581301391902825e-07,2.927566921023456e-11,8.08147641231563e-06,26.0,1.0,55000000.0,odom,base_footprint,-1.158212461655015e-05,2.188531837257252e-05,-0.0010023910444768,-7.784878261924194e-06,0.0038605953607846,8.50541372340212e-05,0.9999925442265308,"(1e-05, 0.0, 0.0, 0.0, 0.0, 0.0, 0.0, 1e-05, 0.0, 0.0, 0.0, 0.0, 0.0, 0.0, 1000000000000.0, 0.0, 0.0, 0.0, 0.0, 0.0, 0.0, 1000000000000.0, 0.0, 0.0, 0.0, 0.0, 0.0, 0.0, 1000000000000.0, 0.0, 0.0, 0.0, 0.0, 0.0, 0.0, 0.001)",-3.323531976571493e-06,2.2497429098599465e-05,0.0,0.0,0.0,0.0003443305566319,"(0.0, 0.0, 0.0, 0.0, 0.0, 0.0, 0.0, 0.0, 0.0, 0.0, 0.0, 0.0, 0.0, 0.0, 0.0, 0.0, 0.0, 0.0, 0.0, 0.0, 0.0, 0.0, 0.0, 0.0, 0.0, 0.0, 0.0, 0.0, 0.0, 0.0, 0.0, 0.0, 0.0, 0.0, 0.0, 0.0)",,,,,,,25,1,78000000,base_footprint,-7.799390464123124e-06,0.0038605955534877,8.862988881112375e-05,0.999992543915146,0.0,0.0,0.0,0.0,0.0,0.0,0.0,0.0,0.0,3.575988537520554e-05,-0.0001783572314632,0.0003440787998162,0.0,0.0,0.0,0.0,0.0,0.0,0.0,0.0,0.0,-1.3965778688973745e-08,2.7905808063540293e-08,2.772730544049975e-10,0.0,0.0,0.0,0.0,0.0,0.0,0.0,0.0,0.0
1.112,0.0001882563113001,-1.1304102142447622e-07,7.193820295047522e-07,1.1052792844273878e-05,0.0001905864395468,3.864345424797276e-06,3.864345354614597e-06,7.364918312327491e-10,0.0002627137230722,-2.4466190536484007e-05,0.0006014037154181,1.286827001659118e-07,2.5261013451475836e-11,8.748366978305613e-06,27.0,1.0,89000000.0,odom,base_footprint,-1.1695156456267147e-05,2.2604683281570056e-05,-0.0010023911113923,-7.807285276846691e-06,0.0038605956587561,9.05803410926576e-05,0.999992543739906,"(1e-05, 0.0, 0.0, 0.0, 0.0, 0.0, 0.0, 1e-05, 0.0, 0.0, 0.0, 0.0, 0.0, 0.0, 1000000000000.0, 0.0, 0.0, 0.0, 0.0, 0.0, 0.0, 1000000000000.0, 0.0, 0.0, 0.0, 0.0, 0.0, 0.0, 1000000000000.0, 0.0, 0.0, 0.0, 0.0, 0.0, 0.0, 0.001)",-3.323757884727285e-06,2.249841470157068e-05,0.0,0.0,0.0,0.0003443478495048,"(0.0, 0.0, 0.0, 0.0, 0.0, 0.0, 0.0, 0.0, 0.0, 0.0, 0.0, 0.0, 0.0, 0.0, 0.0, 0.0, 0.0, 0.0, 0.0, 0.0, 0.0, 0.0, 0.0, 0.0, 0.0, 0.0, 0.0, 0.0, 0.0, 0.0, 0.0, 0.0, 0.0, 0.0, 0.0, 0.0)",,,,,,,26,1,112000000,base_footprint,-7.821722737236175e-06,0.0038605958520201,9.4156247878296e-05,0.999992543408744,0.0,0.0,0.0,0.0,0.0,0.0,0.0,0.0,0.0,3.577363710780325e-05,-0.00017835637163,0.0003440960037183,0.0,0.0,0.0,0.0,0.0,0.0,0.0,0.0,0.0,-1.3967532218758621e-08,2.7894434729017244e-08,8.960553932957585e-11,0.0,0.0,0.0,0.0,0.0,0.0,0.0,0.0,0.0
1.146,0.000199309584693,-1.1305521148765983e-07,7.194084770317074e-07,1.1053273392887772e-05,0.0001993348065251,3.015334145009029e-06,3.015334085102836e-06,6.010610444236843e-10,0.000264804894688,-2.549583422787527e-05,6.279794642110532e-05,1.0041062491678829e-07,2.0592999515165678e-11,8.818002993112513e-06,28.0,1.0,122000000.0,odom,base_footprint,-1.1804877400158412e-05,2.330291569996566e-05,-0.0010023911742714,-7.82892456989039e-06,0.0038605959487781,9.594423893016896e-05,0.999992543238364,"(1e-05, 0.0, 0.0, 0.0, 0.0, 0.0, 0.0, 1e-05, 0.0, 0.0, 0.0, 0.0, 0.0, 0.0, 1000000000000.0, 0.0, 0.0, 0.0, 0.0, 0.0, 0.0, 1000000000000.0, 0.0, 0.0, 0.0, 0.0, 0.0, 0.0, 1000000000000.0, 0.0, 0.0, 0.0, 0.0, 0.0, 0.0, 0.001)",-3.323977120541936e-06,2.24993709794478e-05,0.0,0.0,0.0,0.0003443646354773,"(0.0, 0.0, 0.0, 0.0, 0.0, 0.0, 0.0, 0.0, 0.0, 0.0, 0.0, 0.0, 0.0, 0.0, 0.0, 0.0, 0.0, 0.0, 0.0, 0.0, 0.0, 0.0, 0.0, 0.0, 0.0, 0.0, 0.0, 0.0, 0.0, 0.0, 0.0, 0.0, 0.0, 0.0, 0.0, 0.0)",0.0,0.0,0.0,0.0,0.0,0.0,27,1,146000000,base_footprint,-7.843948458589463e-06,0.0038605961513455,9.968284680014884e-05,0.9999925428717752,0.0,0.0,0.0,0.0,0.0,0.0,0.0,0.0,0.0,3.578676920214996e-05,-0.000178355516598,0.0003441132141321,0.0,0.0,0.0,0.0,0.0,0.0,0.0,0.0,0.0,-1.3969319950108168e-08,2.7884354245877872e-08,-8.053608956470674e-11,0.0,0.0,0.0,0.0,0.0,0.0,0.0,0.0,0.0
1.18,0.0002103633385304,-1.1306940184835357e-07,7.194349118869345e-07,1.1053753837388365e-05,0.0002081528095182,2.443655350409889e-06,2.443655297471037e-06,5.086537230091054e-10,0.0002725084800494,-1.716753136934356e-05,0.0002313388997426,8.137372130448046e-08,1.7416753425191488e-11,9.074532385648124e-06,29.0,1.0,155000000.0,odom,base_footprint,-1.1914611711754187e-05,2.400117302901924e-05,-0.0010023912352989,-7.850466634961262e-06,0.0038605962395211,0.0001013083627162,0.9999925427080252,"(1e-05, 0.0, 0.0, 0.0, 0.0, 0.0, 0.0, 1e-05, 0.0, 0.0, 0.0, 0.0, 0.0, 0.0, 1000000000000.0, 0.0, 0.0, 0.0, 0.0, 0.0, 0.0, 1000000000000.0, 0.0, 0.0, 0.0, 0.0, 0.0, 0.0, 1000000000000.0, 0.0, 0.0, 0.0, 0.0, 0.0, 0.0, 0.001)",-3.324196332671748e-06,2.250032696019804e-05,0.0,0.0,0.0,0.0003443814230614,"(0.0, 0.0, 0.0, 0.0, 0.0, 0.0, 0.0, 0.0, 0.0, 0.0, 0.0, 0.0, 0.0, 0.0, 0.0, 0.0, 0.0, 0.0, 0.0, 0.0, 0.0, 0.0, 0.0, 0.0, 0.0, 0.0, 0.0, 0.0, 0.0, 0.0, 0.0, 0.0, 0.0, 0.0, 0.0, 0.0)",0.0,0.0,0.0,0.0,0.0,0.0,28,1,180000000,base_footprint,-7.866077611870173e-06,0.0038605964513814,0.000105209685563,0.9999925423042348,0.0,0.0,0.0,0.0,0.0,0.0,0.0,0.0,0.0,3.579933928311988e-05,-0.000178354665947,0.0003441304305125,0.0,0.0,0.0,0.0,0.0,0.0,0.0,0.0,0.0,-1.3971110749794564e-08,2.7875254503250148e-08,-2.348142433330914e-10,0.0,0.0,0.0,0.0,0.0,0.0,0.0,0.0,0.0
1.214,0.0002214175727212,-1.1308359264012441e-07,7.194613353823859e-07,1.1054234190800736e-05,0.0002172273419039,2.044728571639656e-06,2.0447285233966184e-06,4.4417094903909067e-10,0.000287207654515,-1.1979783146253229e-05,0.0004414166506185,6.808945973696065e-08,1.5208011193078263e-11,9.564014895352508e-06,29.0,1.0,155000000.0,odom,base_footprint,-1.1914611711754187e-05,2.400117302901924e-05,-0.0010023912352989,-7.850466634961262e-06,0.0038605962395211,0.0001013083627162,0.9999925427080252,"(1e-05, 0.0, 0.0, 0.0, 0.0, 0.0, 0.0, 1e-05, 0.0, 0.0, 0.0, 0.0, 0.0, 0.0, 1000000000000.0, 0.0, 0.0, 0.0, 0.0, 0.0, 0.0, 1000000000000.0, 0.0, 0.0, 0.0, 0.0, 0.0, 0.0, 1000000000000.0, 0.0, 0.0, 0.0, 0.0, 0.0, 0.0, 0.001)",-3.324196332671748e-06,2.250032696019804e-05,0.0,0.0,0.0,0.0003443814230614,"(0.0, 0.0, 0.0, 0.0, 0.0, 0.0, 0.0, 0.0, 0.0, 0.0, 0.0, 0.0, 0.0, 0.0, 0.0, 0.0, 0.0, 0.0, 0.0, 0.0, 0.0, 0.0, 0.0, 0.0, 0.0, 0.0, 0.0, 0.0, 0.0, 0.0, 0.0, 0.0, 0.0, 0.0, 0.0, 0.0)",0.0,0.0,0.0,0.0,0.0,0.0,29,1,214000000,base_footprint,-7.888119253526846e-06,0.0038605967520531,0.0001107367641561,0.9999925417061192,0.0,0.0,0.0,0.0,0.0,0.0,0.0,0.0,0.0,3.581139958278771e-05,-0.0001783538191798,0.0003441476524326,0.0,0.0,0.0,0.0,0.0,0.0,0.0,0.0,0.0,-1.39729282341943e-08,2.78671749743845e-08,-3.7488445321917454e-10,0.0,0.0,0.0,0.0,0.0,0.0,0.0,0.0,0.0
1.248,0.000232472287185,-1.1309778394971021e-07,7.194877487127914e-07,1.1054714463823966e-05,0.0002267913567992,1.6195355623333404e-06,1.6195355206834855e-06,3.6729666441767756e-10,0.0002837910292844,-1.2768558838027496e-05,-0.0001026013582772,5.393053276333434e-08,1.2558292578551759e-11,9.450241275172489e-06,31.0,1.0,222000000.0,odom,base_footprint,-1.2137446740476817e-05,2.541892358562234e-05,-0.0010023913541833,-7.893940213690367e-06,0.0038605968317404,0.0001121998545154,0.9999925415426764,"(1e-05, 0.0, 0.0, 0.0, 0.0, 0.0, 0.0, 1e-05, 0.0, 0.0, 0.0, 0.0, 0.0, 0.0, 1000000000000.0, 0.0, 0.0, 0.0, 0.0, 0.0, 0.0, 1000000000000.0, 0.0, 0.0, 0.0, 0.0, 0.0, 0.0, 1000000000000.0, 0.0, 0.0, 0.0, 0.0, 0.0, 0.0, 0.001)",-3.324641345463453e-06,2.2502267107979e-05,0.0,0.0,0.0,0.0003444155117126,"(0.0, 0.0, 0.0, 0.0, 0.0, 0.0, 0.0, 0.0, 0.0, 0.0, 0.0, 0.0, 0.0, 0.0, 0.0, 0.0, 0.0, 0.0, 0.0, 0.0, 0.0, 0.0, 0.0, 0.0, 0.0, 0.0, 0.0, 0.0, 0.0, 0.0, 0.0, 0.0, 0.0, 0.0, 0.0, 0.0)",0.2199999988079071,2.250131183245685e-05,0.0,0.0,0.0,0.0,30,1,248000000,base_footprint,-7.91008159844994e-06,0.0038605970532927,0.0001162640825708,0.9999925410774252,0.0,0.0,0.0,0.0,0.0,0.0,0.0,0.0,0.0,3.582299740124891e-05,-0.0001783529759802,0.0003441648794555,0.0,0.0,0.0,0.0,0.0,0.0,0.0,0.0,0.0,-1.3974750892057792e-08,2.7859920092448296e-08,-5.019844551336927e-10,0.0,0.0,0.0,0.0,0.0,0.0,0.0,0.0,0.0
1.282,0.0002479264877284,0.0002734719816035,1.0082185992739713e-06,1.545420054337103e-05,0.0002362415980744,1.3315165428558285e-06,1.3315165056997976e-06,3.145595930209169e-10,0.0002878117638978,-8.649219804129494e-06,0.0001207427811832,4.433949957452403e-08,1.0746906761873626e-11,9.584131737798752e-06,32.0,1.0,255000000.0,odom,base_footprint,-1.2247221562587672e-05,2.611725633767434e-05,-0.0010023914105614,-7.91523850666967e-06,0.0038605971242484,0.0001175646629324,0.9999925409250529,"(1e-05, 0.0, 0.0, 0.0, 0.0, 0.0, 0.0, 1e-05, 0.0, 0.0, 0.0, 0.0, 0.0, 0.0, 1000000000000.0, 0.0, 0.0, 0.0, 0.0, 0.0, 0.0, 1000000000000.0, 0.0, 0.0, 0.0, 0.0, 0.0, 0.0, 1000000000000.0, 0.0, 0.0, 0.0, 0.0, 0.0, 0.0, 0.001)",-3.3248605111678605e-06,2.250322237264104e-05,0.0,0.0,0.0,0.0003444323038743,"(0.0, 0.0, 0.0, 0.0, 0.0, 0.0, 0.0, 0.0, 0.0, 0.0, 0.0, 0.0, 0.0, 0.0, 0.0, 0.0, 0.0, 0.0, 0.0, 0.0, 0.0, 0.0, 0.0, 0.0, 0.0, 0.0, 0.0, 0.0, 0.0, 0.0, 0.0, 0.0, 0.0, 0.0, 0.0, 0.0)",0.2199999988079071,2.250131183245685e-05,0.0,0.0,0.0,0.0,31,1,282000000,base_footprint,-7.729186951312302e-06,0.003855591061619,0.0001239902801591,0.999992559464437,0.0,0.0,0.0,0.0,0.0,0.0,0.0,0.0,0.0,4.388362203005872e-05,-0.0003722181695082,0.0004413492281384,0.0,0.0,0.0,0.0,0.0,0.0,0.0,0.0,0.0,0.599206731265047,0.0003343432223155,-0.004421088155679,0.0,0.0,0.0,0.0,0.0,0.0,0.0,0.0,0.0
1.316,0.0002627485302412,0.001158279325177,9.656864531138326e-07,1.482204251276214e-05,0.0002458257298122,0.0340461087809069,0.0340461077521988,8.369409454039932e-06,-0.0003574138702539,1.0223656836145378,-0.0193761451697231,0.0011337353894134,2.734783431840772e-07,-1.1901881879455498e-05,33.0,1.0,289000000.0,odom,base_footprint,0.000452432181998,2.7143284473686707e-05,-0.0010020810445822,-7.73537014935735e-06,0.0038555186037739,0.0001254301707511,0.999992559564186,"(1e-05, 0.0, 0.0, 0.0, 0.0, 0.0, 0.0, 1e-05, 0.0, 0.0, 0.0, 0.0, 0.0, 0.0, 1000000000000.0, 0.0, 0.0, 0.0, 0.0, 0.0, 0.0, 1000000000000.0, 0.0, 0.0, 0.0, 0.0, 0.0, 0.0, 1000000000000.0, 0.0, 0.0, 0.0, 0.0, 0.0, 0.0, 0.001)",0.0266657908629645,1.671416039899893e-05,0.0,0.0,0.0,0.0003595908001354,"(0.0, 0.0, 0.0, 0.0, 0.0, 0.0, 0.0, 0.0, 0.0, 0.0, 0.0, 0.0, 0.0, 0.0, 0.0, 0.0, 0.0, 0.0, 0.0, 0.0, 0.0, 0.0, 0.0, 0.0, 0.0, 0.0, 0.0, 0.0, 0.0, 0.0, 0.0, 0.0, 0.0, 0.0, 0.0, 0.0)",0.2199999988079071,2.250131183245685e-05,0.0,0.0,0.0,0.0,32,1,316000000,base_footprint,-7.797097364810436e-06,0.0038558124672745,0.0001314013993271,0.9999925576638532,0.0,0.0,0.0,0.0,0.0,0.0,0.0,0.0,0.0,4.315636178930368e-05,-0.0003002580593765,0.000565285136536,0.0,0.0,0.0,0.0,0.0,0.0,0.0,0.0,0.0,0.7858587076554887,0.0004469907660591,-0.0061586953650669,0.0,0.0,0.0,0.0,0.0,0.0,0.0,0.0,0.0
1.35,0.0002808902666435,0.0020671441770129,1.1847225700749349e-06,1.814173640230605e-05,0.0002339238479328,0.0667238133731855,0.0667238115476098,1.5608291030657697e-05,2.1429794318037944e-05,0.9813124502185768,0.0113766866237824,0.0022219029236482,5.235354467294919e-07,7.136121507906636e-07,34.0,1.0,322000000.0,odom,base_footprint,0.0017711414804331,2.815235864885017e-05,-0.0010021436172539,-7.812668029187539e-06,0.0038559860558076,0.0001331673343356,0.9999925567607796,"(1e-05, 0.0, 0.0, 0.0, 0.0, 0.0, 0.0, 1e-05, 0.0, 0.0, 0.0, 0.0, 0.0, 0.0, 1000000000000.0, 0.0, 0.0, 0.0, 0.0, 0.0, 0.0, 1000000000000.0, 0.0, 0.0, 0.0, 0.0, 0.0, 0.0, 1000000000000.0, 0.0, 0.0, 0.0, 0.0, 0.0, 0.0, 0.001)",0.0526122764961009,1.990545353466551e-05,0.0,0.0,0.0,0.0005189260911675,"(0.0, 0.0, 0.0, 0.0, 0.0, 0.0, 0.0, 0.0, 0.0, 0.0, 0.0, 0.0, 0.0, 0.0, 0.0, 0.0, 0.0, 0.0, 0.0, 0.0, 0.0, 0.0, 0.0, 0.0, 0.0, 0.0, 0.0, 0.0, 0.0, 0.0, 0.0, 0.0, 0.0, 0.0, 0.0, 0.0)",0.2199999988079071,2.2503221771330573e-05,0.0,0.0,0.0,0.0,33,1,350000000,base_footprint,-7.901038086970624e-06,0.0038564692764991,0.0001404724700559,0.999992553897167,0.0,0.0,0.0,0.0,0.0,0.0,0.0,0.0,0.0,4.207869593199212e-05,-0.000236690023132,0.0006422368641998,0.0,0.0,0.0,0.0,0.0,0.0,0.0,0.0,0.0,0.7856970602879638,0.0003699959734155,-0.0061389805978457,0.0,0.0,0.0,0.0,0.0,0.0,0.0,0.0,0.0
1.384,0.0003018928890906,0.0029711512070666,1.373478476269292e-06,2.1002622447150463e-05,0.0002346374600836,0.1000872025751526,0.1000871998200153,2.348420678362051e-05,2.1492088414103448e-05,1.0019035796386513,1.8706935755406737e-06,0.0033329037526707,7.876964572109207e-07,7.156865441896449e-07,34.0,1.0,322000000.0,odom,base_footprint,0.0017711414804331,2.815235864885017e-05,-0.0010021436172539,-7.812668029187539e-06,0.0038559860558076,0.0001331673343356,0.9999925567607796,"(1e-05, 0.0, 0.0, 0.0, 0.0, 0.0, 0.0, 1e-05, 0.0, 0.0, 0.0, 0.0, 0.0, 0.0, 1000000000000.0, 0.0, 0.0, 0.0, 0.0, 0.0, 0.0, 1000000000000.0, 0.0, 0.0, 0.0, 0.0, 0.0, 0.0, 1000000000000.0, 0.0, 0.0, 0.0, 0.0, 0.0, 0.0, 0.001)",0.0526122764961009,1.990545353466551e-05,0.0,0.0,0.0,0.0005189260911675,"(0.0, 0.0, 0.0, 0.0, 0.0, 0.0, 0.0, 0.0, 0.0, 0.0, 0.0, 0.0, 0.0, 0.0, 0.0, 0.0, 0.0, 0.0, 0.0, 0.0, 0.0, 0.0, 0.0, 0.0, 0.0, 0.0, 0.0, 0.0, 0.0, 0.0, 0.0, 0.0, 0.0, 0.0, 0.0, 0.0)",0.2199999988079071,2.2503221771330573e-05,0.0,0.0,0.0,0.0,34,1,384000000,base_footprint,-8.037692252244701e-06,0.0038575200498581,0.0001509740805151,0.99999254831288,0.0,0.0,0.0,0.0,0.0,0.0,0.0,0.0,0.0,4.083748493833999e-05,-0.0001622728373025,0.0007189770988322,0.0,0.0,0.0,0.0,0.0,0.0,0.0,0.0,0.0,0.7762290760061549,0.000383201008784,-0.0060787146403396,0.0,0.0,0.0,0.0,0.0,0.0,0.0,0.0,0.0
1.418,0.00032515208811,0.0038537730168362,1.5223268731624958e-06,2.325919901937924e-05,0.0002353531466277,0.1371539670341847,0.1371539632356299,3.227961741597902e-05,2.2144243364250515e-05,1.113116049820783,1.9584232737149147e-05,0.0045672269738986,1.0827337168582366e-06,7.374033040295422e-07,36.0,1.0,389000000.0,odom,base_footprint,0.0070750328394956,3.07511516401518e-05,-0.0010023841915951,-8.064080289020259e-06,0.0038578723177585,0.0001530449040395,0.9999925466389276,"(1e-05, 0.0, 0.0, 0.0, 0.0, 0.0, 0.0, 1e-05, 0.0, 0.0, 0.0, 0.0, 0.0, 0.0, 1000000000000.0, 0.0, 0.0, 0.0, 0.0, 0.0, 0.0, 1000000000000.0, 0.0, 0.0, 0.0, 0.0, 0.0, 0.0, 1000000000000.0, 0.0, 0.0, 0.0, 0.0, 0.0, 0.0, 0.001)",0.1047973809326698,1.5281754443443087e-05,0.0,0.0,0.0,0.0007226131247759,"(0.0, 0.0, 0.0, 0.0, 0.0, 0.0, 0.0, 0.0, 0.0, 0.0, 0.0, 0.0, 0.0, 0.0, 0.0, 0.0, 0.0, 0.0, 0.0, 0.0, 0.0, 0.0, 0.0, 0.0, 0.0, 0.0, 0.0, 0.0, 0.0, 0.0, 0.0, 0.0, 0.0, 0.0, 0.0, 0.0)",0.2199999988079071,2.2503221771330573e-05,0.0,0.0,0.0,0.0,35,1,418000000,base_footprint,-8.203311382602294e-06,0.0038590218848919,0.0001626040686778,0.9999925406935366,0.0,0.0,0.0,0.0,0.0,0.0,0.0,0.0,0.0,4.035948968563743e-05,-0.0001480325610171,0.00078600835021,0.0,0.0,0.0,0.0,0.0,0.0,0.0,0.0,0.0,0.7471766088447286,0.000372959286133,-0.0057884564644369,0.0,0.0,0.0,0.0,0.0,0.0,0.0,0.0,0.0
1.452,0.0003487242321432,0.0046842426722095,1.5428595610729467e-06,2.3572144033183466e-05,0.0002360905499318,0.1668134330295042,0.1668134283805183,3.938307477408995e-05,2.107365977817562e-05,0.8906746545140996,-3.214965723948637e-05,0.0055548871628403,1.3208723350472907e-06,7.017528706132482e-07,37.0,1.0,422000000.0,odom,base_footprint,0.0109503690349382,3.225078414615612e-05,-0.0010025674254584,-8.228923944113218e-06,0.0038593973227627,0.0001645002335397,0.9999925389342978,"(1e-05, 0.0, 0.0, 0.0, 0.0, 0.0, 0.0, 1e-05, 0.0, 0.0, 0.0, 0.0, 0.0, 0.0, 1000000000000.0, 0.0, 0.0, 0.0, 0.0, 0.0, 0.0, 1000000000000.0, 0.0, 0.0, 0.0, 0.0, 0.0, 0.0, 1000000000000.0, 0.0, 0.0, 0.0, 0.0, 0.0, 0.0, 0.001)",0.1292069353335045,9.231791371444992e-06,0.0,0.0,0.0,0.0007890418681399,"(0.0, 0.0, 0.0, 0.0, 0.0, 0.0, 0.0, 0.0, 0.0, 0.0, 0.0, 0.0, 0.0, 0.0, 0.0, 0.0, 0.0, 0.0, 0.0, 0.0, 0.0, 0.0, 0.0, 0.0, 0.0, 0.0, 0.0, 0.0, 0.0, 0.0, 0.0, 0.0, 0.0, 0.0, 0.0, 0.0)",0.2199999988079071,1.5281753803719766e-05,0.0,0.0,0.0,0.0,36,1,452000000,base_footprint,-8.386421784966773e-06,0.003861037007228,0.0001743905967111,0.9999925309275148,0.0,0.0,0.0,0.0,0.0,0.0,0.0,0.0,0.0,3.9015166658110704e-05,-7.252328611390444e-05,0.000769630979113,0.0,0.0,0.0,0.0,0.0,0.0,0.0,0.0,0.0,0.6844969998562278,0.0002067625864437,-0.0053714326173286,0.0,0.0,0.0,0.0,0.0,0.0,0.0,0.0,0.0
1.486,0.0003720925274721,0.0054171472584504,1.5292281598963564e-06,2.3368295328883324e-05,0.0002367923028024,0.2001765061377755,0.2001765005257677,4.740025541234919e-05,1.9850649223484212e-05,1.0018940873354727,-3.672704368442652e-05,0.0066658774648554,1.5895894356793716e-06,6.610266191420245e-07,38.0,1.0,455000000.0,odom,base_footprint,0.0155976542066188,3.374072419320971e-05,-0.0010027968416629,-8.408711743834649e-06,0.0038614191742711,0.0001758831016941,0.999992529190288,"(1e-05, 0.0, 0.0, 0.0, 0.0, 0.0, 0.0, 1e-05, 0.0, 0.0, 0.0, 0.0, 0.0, 0.0, 1000000000000.0, 0.0, 0.0, 0.0, 0.0, 0.0, 0.0, 1000000000000.0, 0.0, 0.0, 0.0, 0.0, 0.0, 0.0, 1000000000000.0, 0.0, 0.0, 0.0, 0.0, 0.0, 0.0, 0.001)",0.1514147180539823,-2.367282693902981e-06,0.0,0.0,0.0,0.0007762746539547,"(0.0, 0.0, 0.0, 0.0, 0.0, 0.0, 0.0, 0.0, 0.0, 0.0, 0.0, 0.0, 0.0, 0.0, 0.0, 0.0, 0.0, 0.0, 0.0, 0.0, 0.0, 0.0, 0.0, 0.0, 0.0, 0.0, 0.0, 0.0, 0.0, 0.0, 0.0, 0.0, 0.0, 0.0, 0.0, 0.0)",0.2199999988079071,1.5281753803719766e-05,0.0,0.0,0.0,0.0,37,1,486000000,base_footprint,-8.566078842138597e-06,0.0038634715410731,0.0001860751921849,0.9999925194171688,0.0,0.0,0.0,0.0,0.0,0.0,0.0,0.0,0.0,3.85876244846223e-05,-3.758003353698449e-05,0.00074668172035,0.0,0.0,0.0,0.0,0.0,0.0,0.0,0.0,0.0,0.5774462995259343,0.0001701594557431,-0.0044905792076698,0.0,0.0,0.0,0.0,0.0,0.0,0.0,0.0,0.0
1.52,0.0003979601961997,0.0059988110956186,1.6939674912612511e-06,2.586766872762037e-05,0.0002374533294215,0.2246240771804043,0.224624070847793,5.333773449350269e-05,-2.5894198078914413e-06,0.7341612925714367,-0.0006738759468881,0.0074799815569151,1.78587515086449e-06,-8.6227679602785e-08,39.0,1.0,489000000.0,odom,base_footprint,0.0210919971830102,3.5264738948911026e-05,-0.0010030540108537,-8.586825655700536e-06,0.0038638308133912,0.0001875283522199,0.9999925177574226,"(1e-05, 0.0, 0.0, 0.0, 0.0, 0.0, 0.0, 1e-05, 0.0, 0.0, 0.0, 0.0, 0.0, 0.0, 1000000000000.0, 0.0, 0.0, 0.0, 0.0, 0.0, 0.0, 1000000000000.0, 0.0, 0.0, 0.0, 0.0, 0.0, 0.0, 1000000000000.0, 0.0, 0.0, 0.0, 0.0, 0.0, 0.0, 0.001)",0.1705076782812724,-1.437868392150068e-05,0.0,0.0,0.0,0.0007562648840963,"(0.0, 0.0, 0.0, 0.0, 0.0, 0.0, 0.0, 0.0, 0.0, 0.0, 0.0, 0.0, 0.0, 0.0, 0.0, 0.0, 0.0, 0.0, 0.0, 0.0, 0.0, 0.0, 0.0, 0.0, 0.0, 0.0, 0.0, 0.0, 0.0, 0.0, 0.0, 0.0, 0.0, 0.0, 0.0, 0.0)",0.2199999988079071,1.5281753803719766e-05,0.0,0.0,0.0,0.0,38,1,520000000,base_footprint,-8.725240812875199e-06,0.0038659618082365,0.0001990093676297,0.9999925073011492,0.0,0.0,0.0,0.0,0.0,0.0,0.0,0.0,0.0,4.036550282931142e-05,-6.332473070505505e-05,0.0008012301949958,0.0,0.0,0.0,0.0,0.0,0.0,0.0,0.0,0.0,0.4257138451510873,0.0002751568954086,-0.0032429718804345,0.0,0.0,0.0,0.0,0.0,0.0,0.0,0.0,0.0
1.554,0.0003924918183054,0.0063825724562613,-3.7300093285680354e-07,-5.468377894253931e-06,0.0002373671017419,0.2180145291827343,0.2180145230409227,5.1749476443791655e-05,1.3574319579477676e-05,-0.1984849248549548,0.0004853975792002,0.007259883614548,1.7346554030279796e-06,4.520248419966067e-07,39.0,1.0,489000000.0,odom,base_footprint,0.0210919971830102,3.5264738948911026e-05,-0.0010030540108537,-8.586825655700536e-06,0.0038638308133912,0.0001875283522199,0.9999925177574226,"(1e-05, 0.0, 0.0, 0.0, 0.0, 0.0, 0.0, 1e-05, 0.0, 0.0, 0.0, 0.0, 0.0, 0.0, 1000000000000.0, 0.0, 0.0, 0.0, 0.0, 0.0, 0.0, 1000000000000.0, 0.0, 0.0, 0.0, 0.0, 0.0, 0.0, 1000000000000.0, 0.0, 0.0, 0.0, 0.0, 0.0, 0.0, 0.001)",0.1705076782812724,-1.437868392150068e-05,0.0,0.0,0.0,0.0007562648840963,"(0.0, 0.0, 0.0, 0.0, 0.0, 0.0, 0.0, 0.0, 0.0, 0.0, 0.0, 0.0, 0.0, 0.0, 0.0, 0.0, 0.0, 0.0, 0.0, 0.0, 0.0, 0.0, 0.0, 0.0, 0.0, 0.0, 0.0, 0.0, 0.0, 0.0, 0.0, 0.0, 0.0, 0.0, 0.0, 0.0)",0.2199999988079071,0.0,0.0,0.0,0.0,0.0,39,1,554000000,base_footprint,-8.729063515874664e-06,0.0038664978734181,0.0001962752582705,0.999992505768929,0.0,0.0,0.0,0.0,0.0,0.0,0.0,0.0,0.0,3.144874195435847e-05,-0.0003385100774042,-0.0015625743014894,0.0,0.0,0.0,0.0,0.0,0.0,0.0,0.0,0.0,0.2389005551991159,-0.0044910590415845,-0.0013036996501295,0.0,0.0,0.0,0.0,0.0,0.0,0.0,0.0,0.0
1.588,0.0002463637464682,0.0065354040039215,-9.648437207297336e-06,-0.0001461280718372,0.0002378191265839,0.2180148657182892,0.2180148595530537,5.184810445870787e-05,7.81734729914295e-06,1.010617281802237e-05,-0.0001728820504605,0.007259894820564,1.7372444989958485e-06,2.603176650614603e-07,41.0,1.0,555000000.0,odom,base_footprint,0.033176960803441,3.61685646368678e-05,-0.0010032207546068,-8.71982045238806e-06,0.0038663590137495,0.0001945604073127,0.9999925066410196,"(1e-05, 0.0, 0.0, 0.0, 0.0, 0.0, 0.0, 1e-05, 0.0, 0.0, 0.0, 0.0, 0.0, 0.0, 1000000000000.0, 0.0, 0.0, 0.0, 0.0, 0.0, 0.0, 1000000000000.0, 0.0, 0.0, 0.0, 0.0, 0.0, 0.0, 1000000000000.0, 0.0, 0.0, 0.0, 0.0, 0.0, 0.0, 0.001)",0.1913670678007983,-0.0001891933122514,0.0,0.0,0.0,-0.001735207764894,"(0.0, 0.0, 0.0, 0.0, 0.0, 0.0, 0.0, 0.0, 0.0, 0.0, 0.0, 0.0, 0.0, 0.0, 0.0, 0.0, 0.0, 0.0, 0.0, 0.0, 0.0, 0.0, 0.0, 0.0, 0.0, 0.0, 0.0, 0.0, 0.0, 0.0, 0.0, 0.0, 0.0, 0.0, 0.0, 0.0)",0.2199999988079071,0.0,0.0,0.0,0.0,0.0,40,1,588000000,base_footprint,-8.450670568698532e-06,0.0038598816771741,0.000123211738868,0.9999925430026424,0.0,0.0,0.0,0.0,0.0,0.0,0.0,0.0,0.0,-9.345278123193724e-05,-0.0008727735832982,-0.0071005118490767,0.0,0.0,0.0,0.0,0.0,0.0,0.0,0.0,0.0,0.0291633222466278,-0.0107369814763289,0.0006444520985529,0.0,0.0,0.0,0.0,0.0,0.0,0.0,0.0,0.0
1.622,0.0002789178077948,0.0065420316422017,2.815742769614352e-06,3.255406132658662e-05,0.0002380377469407,0.2179979437491205,0.2179979375730242,5.189173887770522e-05,7.237856479961305e-05,-0.1988027307888097,0.0022111332198188,0.0072593313167514,1.7464997510963106e-06,2.4102062078271145e-06,42.0,1.0,589000000.0,odom,base_footprint,0.0397137777567543,2.5856970979393288e-05,-0.0010021610575965,-8.245011173561945e-06,0.0038590924576461,0.0001164662882652,0.9999925468587388,"(1e-05, 0.0, 0.0, 0.0, 0.0, 0.0, 0.0, 1e-05, 0.0, 0.0, 0.0, 0.0, 0.0, 0.0, 1000000000000.0, 0.0, 0.0, 0.0, 0.0, 0.0, 0.0, 1000000000000.0, 0.0, 0.0, 0.0, 0.0, 0.0, 0.0, 1000000000000.0, 0.0, 0.0, 0.0, 0.0, 0.0, 0.0, 0.001)",0.1919744662744952,-0.0004798244378691,0.0,0.0,0.0,-0.0065975482903608,"(0.0, 0.0, 0.0, 0.0, 0.0, 0.0, 0.0, 0.0, 0.0, 0.0, 0.0, 0.0, 0.0, 0.0, 0.0, 0.0, 0.0, 0.0, 0.0, 0.0, 0.0, 0.0, 0.0, 0.0, 0.0, 0.0, 0.0, 0.0, 0.0, 0.0, 0.0, 0.0, 0.0, 0.0, 0.0, 0.0)",0.2199999988079071,0.0,0.0,0.0,0.0,0.0,40,1,588000000,base_footprint,-8.450670568698532e-06,0.0038598816771741,0.000123211738868,0.9999925430026424,0.0,0.0,0.0,0.0,0.0,0.0,0.0,0.0,0.0,-9.345278123193724e-05,-0.0008727735832982,-0.0071005118490767,0.0,0.0,0.0,0.0,0.0,0.0,0.0,0.0,0.0,0.0291633222466278,-0.0107369814763289,0.0006444520985529,0.0,0.0,0.0,0.0,0.0,0.0,0.0,0.0,0.0
1.656,0.0003951424050054,0.0067051800875402,7.656475400617208e-06,0.0001162245972106,0.0002404479531485,0.2180181057117895,0.2180180994094073,5.24220067625945e-05,5.667830080394301e-06,0.0006054643444133,-0.0020033253669435,0.0072600027078146,1.7560973246833468e-06,1.8873874167713025e-07,43.0,1.0,622000000.0,odom,base_footprint,0.0460656479302964,3.0092613576792177e-05,-0.0010009222337017,-6.95219206946433e-06,0.0038491444866609,0.000143499937009,0.9999925816955624,"(1e-05, 0.0, 0.0, 0.0, 0.0, 0.0, 0.0, 1e-05, 0.0, 0.0, 0.0, 0.0, 0.0, 0.0, 1000000000000.0, 0.0, 0.0, 0.0, 0.0, 0.0, 0.0, 1000000000000.0, 0.0, 0.0, 0.0, 0.0, 0.0, 0.0, 1000000000000.0, 0.0, 0.0, 0.0, 0.0, 0.0, 0.0, 0.001)",0.1938487848347097,0.0004758155567817,0.0,0.0,0.0,0.0080590039173846,"(0.0, 0.0, 0.0, 0.0, 0.0, 0.0, 0.0, 0.0, 0.0, 0.0, 0.0, 0.0, 0.0, 0.0, 0.0, 0.0, 0.0, 0.0, 0.0, 0.0, 0.0, 0.0, 0.0, 0.0, 0.0, 0.0, 0.0, 0.0, 0.0, 0.0, 0.0, 0.0, 0.0, 0.0, 0.0, 0.0)",0.2199999988079071,0.0004758155555464,0.0,0.0,0.0,-0.0657871440052986,42,1,656000000,base_footprint,-7.480603185189103e-06,0.0038529165283236,0.00019759562414,0.9999925579394258,0.0,0.0,0.0,0.0,0.0,0.0,0.0,0.0,0.0,4.889617857806277e-05,-0.0001417060358445,0.0023011641574778,0.0,0.0,0.0,0.0,0.0,0.0,0.0,0.0,0.0,0.2271446401637833,-0.011495694277816,0.000483688940128,0.0,0.0,0.0,0.0,0.0,0.0,0.0,0.0,0.0
1.69,0.0004509312259734,0.0070622884348141,3.670559862865883e-06,5.578882096802807e-05,0.0002406366918902,0.2245397984713573,0.2245397919702546,5.403251378037996e-05,-0.0682084956331136,0.1958466294164519,-2.0484733772730945,0.0074771706958696,-6.682279828514207e-06,-0.0022713429045826,44.0,1.0,655000000.0,odom,base_footprint,0.0525769883156428,3.721922947927972e-05,-0.001001503697985,-7.480603185189103e-06,0.0038529165283236,0.00019759562414,0.9999925579394257,"(1e-05, 0.0, 0.0, 0.0, 0.0, 0.0, 0.0, 1e-05, 0.0, 0.0, 0.0, 0.0, 0.0, 0.0, 1000000000000.0, 0.0, 0.0, 0.0, 0.0, 0.0, 0.0, 1000000000000.0, 0.0, 0.0, 0.0, 0.0, 0.0, 0.0, 1000000000000.0, 0.0, 0.0, 0.0, 0.0, 0.0, 0.0, 0.001)",0.2014273606267509,7.192690386478537e-05,0.0,0.0,0.0,0.00230147028281,"(0.0, 0.0, 0.0, 0.0, 0.0, 0.0, 0.0, 0.0, 0.0, 0.0, 0.0, 0.0, 0.0, 0.0, 0.0, 0.0, 0.0, 0.0, 0.0, 0.0, 0.0, 0.0, 0.0, 0.0, 0.0, 0.0, 0.0, 0.0, 0.0, 0.0, 0.0, 0.0, 0.0, 0.0, 0.0, 0.0)",0.2199999988079071,0.0004758155555464,0.0,0.0,0.0,-0.0657871440052986,43,1,690000000,base_footprint,-3.716341094234124e-06,0.0038567306580606,0.0002254749135896,0.9999925373600962,0.0,0.0,0.0,0.0,0.0,0.0,0.0,0.0,0.0,0.0017543538839573,0.0029690216386795,-0.0006975665006854,0.0,0.0,0.0,0.0,0.0,0.0,0.0,0.0,0.0,0.3756143779234783,-0.0055686574566107,-0.0071329644776835,0.0,0.0,0.0,0.0,0.0,0.0,0.0,0.0,0.0
1.7240000000000002,-0.0011465878745866,0.0074283476413032,2.1178723605604915e-07,-0.00159751910056,-0.0020307062126924,0.2175644082667676,0.2175639596743797,-0.0004418090918749,-0.065569767086546,-0.2094711773150052,0.0792410974945247,0.0072448580689407,-2.2611991194384075e-05,-0.0021834732439819,45.0,1.0,689000000.0,odom,base_footprint,0.059639276750457,4.08897893421456e-05,-0.0010019788646887,-3.716341094234124e-06,0.0038567306580606,0.0002254749135896,0.9999925373600962,"(1e-05, 0.0, 0.0, 0.0, 0.0, 0.0, 0.0, 1e-05, 0.0, 0.0, 0.0, 0.0, 0.0, 0.0, 1000000000000.0, 0.0, 0.0, 0.0, 0.0, 0.0, 0.0, 1000000000000.0, 0.0, 0.0, 0.0, 0.0, 0.0, 0.0, 1000000000000.0, 0.0, 0.0, 0.0, 0.0, 0.0, 0.0, 0.001)",0.2141995604980067,-0.000140162198699,0.0,0.0,0.0,-0.0006839864807184,"(0.0, 0.0, 0.0, 0.0, 0.0, 0.0, 0.0, 0.0, 0.0, 0.0, 0.0, 0.0, 0.0, 0.0, 0.0, 0.0, 0.0, 0.0, 0.0, 0.0, 0.0, 0.0, 0.0, 0.0, 0.0, 0.0, 0.0, 0.0, 0.0, 0.0, 0.0, 0.0, 0.0, 0.0, 0.0, 0.0)",0.2199999988079071,0.0004758155555464,0.0,0.0,0.0,-0.0657871440052986,44,1,724000000,base_footprint,-6.393914070455479e-06,0.0038673834884145,-0.0005732563161029,0.9999923573114284,0.0,0.0,0.0,0.0,0.0,0.0,0.0,0.0,0.0,-0.0003169283412953,-0.0006706850154675,-0.0644976055996447,0.0,0.0,0.0,0.0,0.0,0.0,0.0,0.0,0.0,0.17389124461886,-0.0039605873908469,0.0038071392745051,0.0,0.0,0.0,0.0,0.0,0.0,0.0,0.0,0.0
1.758,-0.0033435281587197,0.0074836464065379,-1.5636685418535125e-05,-0.0021969402841331,-0.0042141794566744,0.2176102939959643,0.2176083616946528,-0.0009170461161622,-0.0640823923773211,0.0013779498257241,0.0446659071839288,0.0072463204134348,-3.825953054951941e-05,-0.0021339436661647,45.0,1.0,689000000.0,odom,base_footprint,0.059639276750457,4.08897893421456e-05,-0.0010019788646887,-3.716341094234124e-06,0.0038567306580606,0.0002254749135896,0.9999925373600962,"(1e-05, 0.0, 0.0, 0.0, 0.0, 0.0, 0.0, 1e-05, 0.0, 0.0, 0.0, 0.0, 0.0, 0.0, 1000000000000.0, 0.0, 0.0, 0.0, 0.0, 0.0, 0.0, 1000000000000.0, 0.0, 0.0, 0.0, 0.0, 0.0, 0.0, 1000000000000.0, 0.0, 0.0, 0.0, 0.0, 0.0, 0.0, 0.001)",0.2141995604980067,-0.000140162198699,0.0,0.0,0.0,-0.0006839864807184,"(0.0, 0.0, 0.0, 0.0, 0.0, 0.0, 0.0, 0.0, 0.0, 0.0, 0.0, 0.0, 0.0, 0.0, 0.0, 0.0, 0.0, 0.0, 0.0, 0.0, 0.0, 0.0, 0.0, 0.0, 0.0, 0.0, 0.0, 0.0, 0.0, 0.0, 0.0, 0.0, 0.0, 0.0, 0.0, 0.0)",0.2084210515022277,0.0,0.0,0.0,0.0,-0.0745301321148872,45,1,758000000,base_footprint,-1.679688318436279e-06,0.003869421480862,-0.0016717192555465,0.9999911164251976,0.0,0.0,0.0,0.0,0.0,0.0,0.0,0.0,0.0,-0.0005646230827342,0.0066587499887942,-0.0634686311648215,0.0,0.0,0.0,0.0,0.0,0.0,0.0,0.0,0.0,-0.0553904058558662,-0.0139243124027312,-0.0093331452388628,0.0,0.0,0.0,0.0,0.0,0.0,0.0,0.0,0.0
1.792,-0.0041967733283577,0.0071473171170483,-2.547115209748935e-05,-0.0008532451696379,-0.0063481231228392,0.2130824447915477,0.2130781513367035,-0.0013526645097134,-0.0103541760189968,-0.1359714475800771,1.6134599507004288,0.0070954945956966,-4.625743417766705e-05,-0.0003447940614325,47.0,1.0,755000000.0,odom,base_footprint,0.0741138208886045,2.6793840914465e-05,-0.0010027888957259,-1.848355917393597e-06,0.0038635116782727,-0.0016079568244998,0.999991243836138,"(1e-05, 0.0, 0.0, 0.0, 0.0, 0.0, 0.0, 1e-05, 0.0, 0.0, 0.0, 0.0, 0.0, 0.0, 1000000000000.0, 0.0, 0.0, 0.0, 0.0, 0.0, 0.0, 1000000000000.0, 0.0, 0.0, 0.0, 0.0, 0.0, 0.0, 1000000000000.0, 0.0, 0.0, 0.0, 0.0, 0.0, 0.0, 0.001)",0.2202827469897186,5.214931772846857e-05,0.0,0.0,0.0,-0.0649304171874128,"(0.0, 0.0, 0.0, 0.0, 0.0, 0.0, 0.0, 0.0, 0.0, 0.0, 0.0, 0.0, 0.0, 0.0, 0.0, 0.0, 0.0, 0.0, 0.0, 0.0, 0.0, 0.0, 0.0, 0.0, 0.0, 0.0, 0.0, 0.0, 0.0, 0.0, 0.0, 0.0, 0.0, 0.0, 0.0, 0.0)",0.2084210515022277,0.0,0.0,0.0,0.0,-0.0745301321148872,46,1,792000000,base_footprint,2.214245350695448e-06,0.0038633447957361,-0.0020983466994878,0.9999903357049084,0.0,0.0,0.0,0.0,0.0,0.0,0.0,0.0,0.0,0.0014682208845698,-0.0006065199463817,-0.0406390160484889,0.0,0.0,0.0,0.0,0.0,0.0,0.0,0.0,0.0,-0.2771351035504527,-0.0113453432542584,0.012417890909052,0.0,0.0,0.0,0.0,0.0,0.0,0.0,0.0,0.0
1.826,-0.0066930731904155,0.0071075391836278,-3.85950140625952e-05,-0.0024962998620577,-0.0066929171842718,0.2064901049690355,0.2064854801096745,-0.0013820108539803,-0.0728186455986116,-0.197968162838205,-1.875809897285728,0.0068759040251288,-5.434830188524659e-05,-0.0024248608984337,47.0,1.0,755000000.0,odom,base_footprint,0.0741138208886045,2.6793840914465e-05,-0.0010027888957259,-1.848355917393597e-06,0.0038635116782727,-0.0016079568244998,0.999991243836138,"(1e-05, 0.0, 0.0, 0.0, 0.0, 0.0, 0.0, 1e-05, 0.0, 0.0, 0.0, 0.0, 0.0, 0.0, 1000000000000.0, 0.0, 0.0, 0.0, 0.0, 0.0, 0.0, 1000000000000.0, 0.0, 0.0, 0.0, 0.0, 0.0, 0.0, 1000000000000.0, 0.0, 0.0, 0.0, 0.0, 0.0, 0.0, 0.001)",0.2202827469897186,5.214931772846857e-05,0.0,0.0,0.0,-0.0649304171874128,"(0.0, 0.0, 0.0, 0.0, 0.0, 0.0, 0.0, 0.0, 0.0, 0.0, 0.0, 0.0, 0.0, 0.0, 0.0, 0.0, 0.0, 0.0, 0.0, 0.0, 0.0, 0.0, 0.0, 0.0, 0.0, 0.0, 0.0, 0.0, 0.0, 0.0, 0.0, 0.0, 0.0, 0.0, 0.0, 0.0)",0.2084210515022277,0.0,0.0,0.0,0.0,-0.0745301321148872,47,1,826000000,base_footprint,5.203955058497064e-06,0.0038609600178832,-0.0033464756105648,0.9999869469456324,0.0,0.0,0.0,0.0,0.0,0.0,0.0,0.0,0.0,-0.0005317129491749,-0.0002138146673328,-0.0745964019092371,0.0,0.0,0.0,0.0,0.0,0.0,0.0,0.0,0.0,0.0104775653136853,-0.0082168284138647,-0.0013090374539253,0.0,0.0,0.0,0.0,0.0,0.0,0.0,0.0,0.0
1.86,-0.0092265749199016,0.0071228368318227,-5.573615914055498e-05,-0.0025335017294861,-0.0091177780827055,0.2066668074772352,0.206658217030255,-0.0018843159789699,-0.0740317857756596,0.0053063816276187,-0.0364306359473891,0.0068816344075957,-7.122101259264721e-05,-0.0024652584663294,49.0,1.0,822000000.0,odom,base_footprint,0.088178663749353,-3.457127248062429e-05,-0.0010024490865305,4.77557381371799e-06,0.0038609997644356,-0.0032346390885068,0.999987314803533,"(1e-05, 0.0, 0.0, 0.0, 0.0, 0.0, 0.0, 1e-05, 0.0, 0.0, 0.0, 0.0, 0.0, 0.0, 1000000000000.0, 0.0, 0.0, 0.0, 0.0, 0.0, 0.0, 1000000000000.0, 0.0, 0.0, 0.0, 0.0, 0.0, 0.0, 1000000000000.0, 0.0, 0.0, 0.0, 0.0, 0.0, 0.0, 0.001)",0.2091552272304135,4.6386495367489256e-05,0.0,0.0,0.0,-0.0745649477683021,"(0.0, 0.0, 0.0, 0.0, 0.0, 0.0, 0.0, 0.0, 0.0, 0.0, 0.0, 0.0, 0.0, 0.0, 0.0, 0.0, 0.0, 0.0, 0.0, 0.0, 0.0, 0.0, 0.0, 0.0, 0.0, 0.0, 0.0, 0.0, 0.0, 0.0, 0.0, 0.0, 0.0, 0.0, 0.0, 0.0)",0.2199999988079071,4.638649625121616e-05,0.0,0.0,0.0,-0.1484111100435257,48,1,860000000,base_footprint,9.39959886431764e-06,0.0038558323528916,-0.0046132044576399,0.9999819252432248,0.0,0.0,0.0,0.0,0.0,0.0,0.0,0.0,0.0,-0.0004916794100823,-0.0022218411279728,-0.0710968617392183,0.0,0.0,0.0,0.0,0.0,0.0,0.0,0.0,0.0,0.0989606428651561,-0.0203988079919892,0.0021679924192757,0.0,0.0,0.0,0.0,0.0,0.0,0.0,0.0,0.0
1.894,-0.0135438157677824,0.0074655136536563,-8.071585612952701e-05,-0.0043172408478807,-0.011583036549035,0.2247198731729774,0.2247047983756085,-0.0026028803000205,-0.1515130958401071,0.5421341049772455,-2.326766068001425,0.0074824195251711,-0.0001055419285572,-0.0050453860914755,51.0,1.0,889000000.0,odom,base_footprint,0.1025072814686033,-0.0001636412026826,-0.0010029251541942,1.6536880510681215e-05,0.0038646575129908,-0.0064723895964011,0.999971585757191,"(1e-05, 0.0, 0.0, 0.0, 0.0, 0.0, 0.0, 1e-05, 0.0, 0.0, 0.0, 0.0, 0.0, 0.0, 1000000000000.0, 0.0, 0.0, 0.0, 0.0, 0.0, 0.0, 1000000000000.0, 0.0, 0.0, 0.0, 0.0, 0.0, 0.0, 1000000000000.0, 0.0, 0.0, 0.0, 0.0, 0.0, 0.0, 0.001)",0.2218473389476331,0.0001394046586292,0.0,0.0,0.0,-0.1498881521165095,"(0.0, 0.0, 0.0, 0.0, 0.0, 0.0, 0.0, 0.0, 0.0, 0.0, 0.0, 0.0, 0.0, 0.0, 0.0, 0.0, 0.0, 0.0, 0.0, 0.0, 0.0, 0.0, 0.0, 0.0, 0.0, 0.0, 0.0, 0.0, 0.0, 0.0, 0.0, 0.0, 0.0, 0.0, 0.0, 0.0)",0.2199999988079071,4.638649625121616e-05,0.0,0.0,0.0,-0.1484111100435257,49,1,894000000,base_footprint,1.7430785608579103e-05,0.0038652353601491,-0.0067717717393318,0.9999696009175923,0.0,0.0,0.0,0.0,0.0,0.0,0.0,0.0,0.0,-0.001210472696832,3.301616473531923e-05,-0.1496429138996865,0.0,0.0,0.0,0.0,0.0,0.0,0.0,0.0,0.0,0.2720953384901568,-0.0301645832658967,-0.0056694800163606,0.0,0.0,0.0,0.0,0.0,0.0,0.0,0.0,0.0
1.928,-0.0186304603458406,0.007542561857455,-0.0001198565289503,-0.0050866445780582,-0.0166284226405106,0.2184927784292574,0.218462572013666,-0.0036330228337296,-0.1481519491241144,-0.1869998421537543,0.1009353368165989,0.0072744759009843,-0.0001389143320705,-0.004933459905833,51.0,1.0,889000000.0,odom,base_footprint,0.1025072814686033,-0.0001636412026826,-0.0010029251541942,1.6536880510681215e-05,0.0038646575129908,-0.0064723895964011,0.999971585757191,"(1e-05, 0.0, 0.0, 0.0, 0.0, 0.0, 0.0, 1e-05, 0.0, 0.0, 0.0, 0.0, 0.0, 0.0, 1000000000000.0, 0.0, 0.0, 0.0, 0.0, 0.0, 0.0, 1000000000000.0, 0.0, 0.0, 0.0, 0.0, 0.0, 0.0, 1000000000000.0, 0.0, 0.0, 0.0, 0.0, 0.0, 0.0, 0.001)",0.2218473389476331,0.0001394046586292,0.0,0.0,0.0,-0.1498881521165095,"(0.0, 0.0, 0.0, 0.0, 0.0, 0.0, 0.0, 0.0, 0.0, 0.0, 0.0, 0.0, 0.0, 0.0, 0.0, 0.0, 0.0, 0.0, 0.0, 0.0, 0.0, 0.0, 0.0, 0.0, 0.0, 0.0, 0.0, 0.0, 0.0, 0.0, 0.0, 0.0, 0.0, 0.0, 0.0, 0.0)",0.2199999988079071,4.638649625121616e-05,0.0,0.0,0.0,-0.1484111100435257,50,1,928000000,base_footprint,2.620597591792215e-05,0.0038696998765948,-0.0093149876218931,0.9999491265768052,0.0,0.0,0.0,0.0,0.0,0.0,0.0,0.0,0.0,-0.0012472041060876,0.0002017318794888,-0.1496907045745897,0.0,0.0,0.0,0.0,0.0,0.0,0.0,0.0,0.0,0.0027818017637922,-0.0339860057332499,-0.0003195410435292,0.0,0.0,0.0,0.0,0.0,0.0,0.0,0.0,0.0
1.962,-0.0236107300976411,0.0075459527466864,-0.000158700240973,-0.0049802697518004,-0.0215618825463436,0.2186167172629748,0.2185659001604327,-0.0047134227371657,-0.1481094065031623,0.0037218868984184,0.0012775561847461,0.0072778281446593,-0.000174894830946,-0.0049320432365553,52.0,1.0,922000000.0,odom,base_footprint,0.1098275468775785,-0.0002748861019176,-0.0010035361702423,2.4871710438220825e-05,0.0038688558514123,-0.0089407653097847,0.9999525458997912,"(1e-05, 0.0, 0.0, 0.0, 0.0, 0.0, 0.0, 1e-05, 0.0, 0.0, 0.0, 0.0, 0.0, 0.0, 1000000000000.0, 0.0, 0.0, 0.0, 0.0, 0.0, 0.0, 1000000000000.0, 0.0, 0.0, 0.0, 0.0, 0.0, 0.0, 1000000000000.0, 0.0, 0.0, 0.0, 0.0, 0.0, 0.0, 0.001)",0.2219384709973587,6.889862277792381e-05,0.0,0.0,0.0,-0.1497353395552647,"(0.0, 0.0, 0.0, 0.0, 0.0, 0.0, 0.0, 0.0, 0.0, 0.0, 0.0, 0.0, 0.0, 0.0, 0.0, 0.0, 0.0, 0.0, 0.0, 0.0, 0.0, 0.0, 0.0, 0.0, 0.0, 0.0, 0.0, 0.0, 0.0, 0.0, 0.0, 0.0, 0.0, 0.0, 0.0, 0.0)",0.2199999988079071,0.0001394046557834,0.0,0.0,0.0,-0.1252727657556533,51,1,962000000,base_footprint,3.5395787066114095e-05,0.0038732258081979,-0.0118049622701337,0.9999228168887724,0.0,0.0,0.0,0.0,0.0,0.0,0.0,0.0,0.0,-0.0023507288016449,-0.0002099048342327,-0.1240898957559206,0.0,0.0,0.0,0.0,0.0,0.0,0.0,0.0,0.0,-0.0026019983950671,-0.0345101829426783,-3.059195752226183e-05,0.0,0.0,0.0,0.0,0.0,0.0,0.0,0.0,0.0
1.996,-0.0278443176156853,0.0075363386510797,-0.0001941050235374,-0.0042335875180441,-0.0264939257828989,0.2252629719497821,0.2251839173688315,-0.005967402288737,-0.1286450466965788,0.1995872278320534,0.5845153095070122,0.0074981761678529,-0.0002147653898557,-0.004283880054996,54.0,1.0,989000000.0,odom,base_footprint,0.1246897541676197,-0.0006111242555396,-0.0010044392323865,4.318083911265084e-05,0.0038757046148453,-0.013548627216812,0.9999007009446956,"(1e-05, 0.0, 0.0, 0.0, 0.0, 0.0, 0.0, 1e-05, 0.0, 0.0, 0.0, 0.0, 0.0, 0.0, 1000000000000.0, 0.0, 0.0, 0.0, 0.0, 0.0, 0.0, 1000000000000.0, 0.0, 0.0, 0.0, 0.0, 0.0, 0.0, 1000000000000.0, 0.0, 0.0, 0.0, 0.0, 0.0, 0.0, 0.001)",0.2217200642094152,1.958381678694113e-05,0.0,0.0,0.0,-0.1245364279284046,"(0.0, 0.0, 0.0, 0.0, 0.0, 0.0, 0.0, 0.0, 0.0, 0.0, 0.0, 0.0, 0.0, 0.0, 0.0, 0.0, 0.0, 0.0, 0.0, 0.0, 0.0, 0.0, 0.0, 0.0, 0.0, 0.0, 0.0, 0.0, 0.0, 0.0, 0.0, 0.0, 0.0, 0.0, 0.0, 0.0)",0.2199999988079071,0.0001394046557834,0.0,0.0,0.0,-0.1252727657556533,52,1,996000000,base_footprint,4.4768790854423225e-05,0.0038761431385821,-0.0139215688151821,0.999895576263766,0.0,0.0,0.0,0.0,0.0,0.0,0.0,0.0,0.0,-0.0009035002931216,2.750041251839792e-05,-0.1241727282930293,0.0,0.0,0.0,0.0,0.0,0.0,0.0,0.0,0.0,-0.0087345961820299,-0.0269752612521522,0.0003187113818264,0.0,0.0,0.0,0.0,0.0,0.0,0.0,0.0,0.0
2.03,-0.0320195021088442,0.0075272813717989,-0.0002275637298846,-0.0041751844931588,-0.030777805837895,0.218467137114813,0.218363671236264,-0.0067228776103219,-0.1229580249945303,-0.204079124173246,0.1707814324939498,0.0072710319341272,-0.0002387480129998,-0.0040945022323178,54.0,1.0,989000000.0,odom,base_footprint,0.1246897541676197,-0.0006111242555396,-0.0010044392323865,4.318083911265084e-05,0.0038757046148453,-0.013548627216812,0.9999007009446956,"(1e-05, 0.0, 0.0, 0.0, 0.0, 0.0, 0.0, 1e-05, 0.0, 0.0, 0.0, 0.0, 0.0, 0.0, 1000000000000.0, 0.0, 0.0, 0.0, 0.0, 0.0, 0.0, 1000000000000.0, 0.0, 0.0, 0.0, 0.0, 0.0, 0.0, 1000000000000.0, 0.0, 0.0, 0.0, 0.0, 0.0, 0.0, 0.001)",0.2217200642094152,1.958381678694113e-05,0.0,0.0,0.0,-0.1245364279284046,"(0.0, 0.0, 0.0, 0.0, 0.0, 0.0, 0.0, 0.0, 0.0, 0.0, 0.0, 0.0, 0.0, 0.0, 0.0, 0.0, 0.0, 0.0, 0.0, 0.0, 0.0, 0.0, 0.0, 0.0, 0.0, 0.0, 0.0, 0.0, 0.0, 0.0, 0.0, 0.0, 0.0, 0.0, 0.0, 0.0)",0.2199999988079071,0.0001394046557834,0.0,0.0,0.0,-0.1252727657556533,53,2,30000000,base_footprint,5.4670342197334816e-05,0.0038750282971698,-0.0160089183613885,0.9998643386478728,0.0,0.0,0.0,0.0,0.0,0.0,0.0,0.0,0.0,-0.0007754661398541,-0.0003197338256012,-0.1206224707291401,0.0,0.0,0.0,0.0,0.0,0.0,0.0,0.0,0.0,-0.0136023852871541,-0.0293074044539753,0.0008112753570522,0.0,0.0,0.0,0.0,0.0,0.0,0.0,0.0,0.0
2.064,-0.0359454692039146,0.007492204685939,-0.0002540971086227,-0.0039259670950704,-0.0348723080702128,0.2182204313587701,0.218087758285959,-0.0076083078416177,-0.1222494334245872,-0.0074085812625523,0.0212790261244174,0.0072617869575917,-0.000268128287081,-0.0040709061330387,56.0,2.0,55000000.0,odom,base_footprint,0.1392825975606214,-0.0010691664005156,-0.0010037319634761,6.393552181856196e-05,0.003871054785867,-0.0175176790691008,0.9998390579323884,"(1e-05, 0.0, 0.0, 0.0, 0.0, 0.0, 0.0, 1e-05, 0.0, 0.0, 0.0, 0.0, 0.0, 0.0, 1000000000000.0, 0.0, 0.0, 0.0, 0.0, 0.0, 0.0, 1000000000000.0, 0.0, 0.0, 0.0, 0.0, 0.0, 0.0, 1000000000000.0, 0.0, 0.0, 0.0, 0.0, 0.0, 0.0, 0.001)",0.2199962937731616,0.0002113582573517,0.0,0.0,0.0,-0.1130478384169701,"(0.0, 0.0, 0.0, 0.0, 0.0, 0.0, 0.0, 0.0, 0.0, 0.0, 0.0, 0.0, 0.0, 0.0, 0.0, 0.0, 0.0, 0.0, 0.0, 0.0, 0.0, 0.0, 0.0, 0.0, 0.0, 0.0, 0.0, 0.0, 0.0, 0.0, 0.0, 0.0, 0.0, 0.0, 0.0, 0.0)",0.2199999988079071,1.958381653821561e-05,0.0,0.0,0.0,-0.1163312867283821,54,2,64000000,base_footprint,6.511109331190251e-05,0.0038721728693397,-0.0179716148746756,0.999830997267344,0.0,0.0,0.0,0.0,0.0,0.0,0.0,0.0,0.0,-0.0014454804006364,4.236327071467976e-05,-0.1140110943985558,0.0,0.0,0.0,0.0,0.0,0.0,0.0,0.0,0.0,-0.0551723676524896,-0.0092171079448124,-0.0004170012652075,0.0,0.0,0.0,0.0,0.0,0.0,0.0,0.0,0.0
2.098,-0.0401867479062272,0.0074379948000132,-0.0002811832252894,-0.0042412787023126,-0.0389432142032516,0.2244587991847269,0.2242886165123619,-0.00873893783135,-0.1165282513201469,0.1873383731518557,0.1718072704036099,0.0074682279879387,-0.0003054867961798,-0.0038803907689608,57.0,2.0,89000000.0,odom,base_footprint,0.1467276774421951,-0.0013411838264304,-0.0010042002605892,6.314134938428482e-05,0.0038731685290208,-0.0195685028774334,0.9998010143392794,"(1e-05, 0.0, 0.0, 0.0, 0.0, 0.0, 0.0, 1e-05, 0.0, 0.0, 0.0, 0.0, 0.0, 0.0, 1000000000000.0, 0.0, 0.0, 0.0, 0.0, 0.0, 0.0, 1000000000000.0, 0.0, 0.0, 0.0, 0.0, 0.0, 0.0, 1000000000000.0, 0.0, 0.0, 0.0, 0.0, 0.0, 0.0, 0.001)",0.2188289928483347,-0.0001498469745497,0.0,0.0,0.0,-0.1318186780485087,"(0.0, 0.0, 0.0, 0.0, 0.0, 0.0, 0.0, 0.0, 0.0, 0.0, 0.0, 0.0, 0.0, 0.0, 0.0, 0.0, 0.0, 0.0, 0.0, 0.0, 0.0, 0.0, 0.0, 0.0, 0.0, 0.0, 0.0, 0.0, 0.0, 0.0, 0.0, 0.0, 0.0, 0.0, 0.0, 0.0)",0.2199999988079071,1.958381653821561e-05,0.0,0.0,0.0,-0.1163312867283821,55,2,98000000,base_footprint,6.748677797386515e-05,0.0038731075113638,-0.0200918310717953,0.9997906344870022,0.0,0.0,0.0,0.0,0.0,0.0,0.0,0.0,0.0,-0.0003876634818224,0.0001989023026249,-0.1296696521586962,0.0,0.0,0.0,0.0,0.0,0.0,0.0,0.0,0.0,-0.0197791451424779,-0.0298384388288065,-0.000126215269794,0.0,0.0,0.0,0.0,0.0,0.0,0.0,0.0,0.0
2.132,-0.0446087527462892,0.0074507487639619,-0.0003117143727403,-0.004422004840062,-0.0428236049722125,0.2175647625881263,0.2173653012908701,-0.009314060057622,-0.1133963140753916,-0.2070281260240418,0.094052169512172,0.0072376621735282,-0.000323813914302,-0.0037760972587105,57.0,2.0,89000000.0,odom,base_footprint,0.1467276774421951,-0.0013411838264304,-0.0010042002605892,6.314134938428482e-05,0.0038731685290208,-0.0195685028774334,0.9998010143392794,"(1e-05, 0.0, 0.0, 0.0, 0.0, 0.0, 0.0, 1e-05, 0.0, 0.0, 0.0, 0.0, 0.0, 0.0, 1000000000000.0, 0.0, 0.0, 0.0, 0.0, 0.0, 0.0, 1000000000000.0, 0.0, 0.0, 0.0, 0.0, 0.0, 0.0, 1000000000000.0, 0.0, 0.0, 0.0, 0.0, 0.0, 0.0, 0.001)",0.2188289928483347,-0.0001498469745497,0.0,0.0,0.0,-0.1318186780485087,"(0.0, 0.0, 0.0, 0.0, 0.0, 0.0, 0.0, 0.0, 0.0, 0.0, 0.0, 0.0, 0.0, 0.0, 0.0, 0.0, 0.0, 0.0, 0.0, 0.0, 0.0, 0.0, 0.0, 0.0, 0.0, 0.0, 0.0, 0.0, 0.0, 0.0, 0.0, 0.0, 0.0, 0.0, 0.0, 0.0)",0.2199999988079071,1.958381653821561e-05,0.0,0.0,0.0,-0.1163312867283821,56,2,132000000,base_footprint,7.424356862438187e-05,0.0038741365465468,-0.0223023124629048,0.9997437633777558,0.0,0.0,0.0,0.0,0.0,0.0,0.0,0.0,0.0,-0.0003514020875654,0.000348079283439,-0.121952044276981,0.0,0.0,0.0,0.0,0.0,0.0,0.0,0.0,0.0,0.0292093866631507,-0.0355764495797936,-0.0002092328393761,0.0,0.0,0.0,0.0,0.0,0.0,0.0,0.0,0.0
2.166,-0.0490909543648799,0.0074864011488141,-0.0003494691143598,-0.0044822016185906,-0.046599702230923,0.2173928867327255,0.2171568916112667,-0.0101267777560381,-0.1146180372554217,-0.0051614370991204,-0.0366883837846867,0.0072306638551708,-0.0003510113351039,-0.0038167806406055,58.0,2.0,122000000.0,odom,base_footprint,0.1539522534652491,-0.0016355640574694,-0.001004372405754,7.005431781619983e-05,0.0038739595170841,-0.0217390122706933,0.9997561717116564,"(1e-05, 0.0, 0.0, 0.0, 0.0, 0.0, 0.0, 1e-05, 0.0, 0.0, 0.0, 0.0, 0.0, 0.0, 1000000000000.0, 0.0, 0.0, 0.0, 0.0, 0.0, 0.0, 1000000000000.0, 0.0, 0.0, 0.0, 0.0, 0.0, 0.0, 1000000000000.0, 0.0, 0.0, 0.0, 0.0, 0.0, 0.0, 0.001)",0.2194569233028019,6.310905082669745e-05,0.0,0.0,0.0,-0.1290266253924086,"(0.0, 0.0, 0.0, 0.0, 0.0, 0.0, 0.0, 0.0, 0.0, 0.0, 0.0, 0.0, 0.0, 0.0, 0.0, 0.0, 0.0, 0.0, 0.0, 0.0, 0.0, 0.0, 0.0, 0.0, 0.0, 0.0, 0.0, 0.0, 0.0, 0.0, 0.0, 0.0, 0.0, 0.0, 0.0, 0.0)",0.2199999988079071,6.310905155260116e-05,0.0,0.0,0.0,-0.1864625066518783,57,2,166000000,base_footprint,8.382983957852934e-05,0.0038650726122776,-0.0245427864240079,0.9996913052641828,0.0,0.0,0.0,0.0,0.0,0.0,0.0,0.0,0.0,-0.003712496466624,-2.8024587108602648e-05,-0.1920916933373683,0.0,0.0,0.0,0.0,0.0,0.0,0.0,0.0,0.0,0.0184503636481832,-0.032900125848814,-7.163733683941878e-05,0.0,0.0,0.0,0.0,0.0,0.0,0.0,0.0,0.0
2.2,-0.0554460421052488,0.0075085250493341,-0.0003900562672506,-0.0063550877403688,-0.0504164828715286,0.2240619985559182,0.2237772960387434,-0.0112916329404073,-0.1890348048959935,0.200273628324103,-2.234737766984138,0.0074505518165495,-0.0003994527670289,-0.0062948590030365,60.0,2.0,189000000.0,odom,base_footprint,0.1687136481634331,-0.0023419832225633,-0.0010034538306005,9.532127537263384e-05,0.0038673304840996,-0.0267879093835943,0.9996336541851908,"(1e-05, 0.0, 0.0, 0.0, 0.0, 0.0, 0.0, 1e-05, 0.0, 0.0, 0.0, 0.0, 0.0, 0.0, 1000000000000.0, 0.0, 0.0, 0.0, 0.0, 0.0, 0.0, 1000000000000.0, 0.0, 0.0, 0.0, 0.0, 0.0, 0.0, 1000000000000.0, 0.0, 0.0, 0.0, 0.0, 0.0, 0.0, 0.001)",0.221167778103824,0.0001031236866885,0.0,0.0,0.0,-0.1863402325527338,"(0.0, 0.0, 0.0, 0.0, 0.0, 0.0, 0.0, 0.0, 0.0, 0.0, 0.0, 0.0, 0.0, 0.0, 0.0, 0.0, 0.0, 0.0, 0.0, 0.0, 0.0, 0.0, 0.0, 0.0, 0.0, 0.0, 0.0, 0.0, 0.0, 0.0, 0.0, 0.0, 0.0, 0.0, 0.0, 0.0)",0.2199999988079071,6.310905155260116e-05,0.0,0.0,0.0,-0.1864625066518783,58,2,200000000,base_footprint,9.913725445710382e-05,0.0038661920785088,-0.0277192315259128,0.9996082667396412,0.0,0.0,0.0,0.0,0.0,0.0,0.0,0.0,0.0,-0.0013306814325486,-0.0003236632722392,-0.18639027785969,0.0,0.0,0.0,0.0,0.0,0.0,0.0,0.0,0.0,0.0127521698161308,-0.0392011116441436,0.0011341371447532,0.0,0.0,0.0,0.0,0.0,0.0,0.0,0.0,0.0
2.234,-0.0618266959545827,0.0075129602658683,-0.0004368284114433,-0.0063806538493339,-0.0567113418745651,0.2175890157420052,0.217239207193432,-0.0123331516468299,-0.1853713977013791,-0.1943838682856759,0.1100122280664997,0.0072327526644727,-0.0004330090139955,-0.0061728675434559,60.0,2.0,189000000.0,odom,base_footprint,0.1687136481634331,-0.0023419832225633,-0.0010034538306005,9.532127537263384e-05,0.0038673304840996,-0.0267879093835943,0.9996336541851908,"(1e-05, 0.0, 0.0, 0.0, 0.0, 0.0, 0.0, 1e-05, 0.0, 0.0, 0.0, 0.0, 0.0, 0.0, 1000000000000.0, 0.0, 0.0, 0.0, 0.0, 0.0, 0.0, 1000000000000.0, 0.0, 0.0, 0.0, 0.0, 0.0, 0.0, 1000000000000.0, 0.0, 0.0, 0.0, 0.0, 0.0, 0.0, 0.001)",0.221167778103824,0.0001031236866885,0.0,0.0,0.0,-0.1863402325527338,"(0.0, 0.0, 0.0, 0.0, 0.0, 0.0, 0.0, 0.0, 0.0, 0.0, 0.0, 0.0, 0.0, 0.0, 0.0, 0.0, 0.0, 0.0, 0.0, 0.0, 0.0, 0.0, 0.0, 0.0, 0.0, 0.0, 0.0, 0.0, 0.0, 0.0, 0.0, 0.0, 0.0, 0.0, 0.0, 0.0)",0.2199999988079071,6.310905155260116e-05,0.0,0.0,0.0,-0.1864625066518783,59,2,234000000,base_footprint,0.0001113076708938,0.0038637426668742,-0.0309081621091519,0.9995147545775606,0.0,0.0,0.0,0.0,0.0,0.0,0.0,0.0,0.0,-0.0014741409374636,-0.0003108745612678,-0.1877871363730963,0.0,0.0,0.0,0.0,0.0,0.0,0.0,0.0,0.0,0.0006463367489249,-0.0428743785554848,8.762414242053638e-05,0.0,0.0,0.0,0.0,0.0,0.0,0.0,0.0,0.0
2.268,-0.0673009033721265,0.0075049948322873,-0.000485054282853,-0.0054742074175437,-0.0628842094180211,0.2177760536510183,0.2173456061225568,-0.013685650990348,-0.1861498568309628,0.0056167540244187,-0.0233771510385516,0.0072361504862162,-0.0004781516708868,-0.006198790232471,62.0,2.0,255000000.0,odom,base_footprint,0.1832985785489901,-0.0032081089087627,-0.0010028800480144,0.0001188824022786,0.0038623062449347,-0.0329746483590936,0.999448718555904,"(1e-05, 0.0, 0.0, 0.0, 0.0, 0.0, 0.0, 1e-05, 0.0, 0.0, 0.0, 0.0, 0.0, 0.0, 1000000000000.0, 0.0, 0.0, 0.0, 0.0, 0.0, 0.0, 1000000000000.0, 0.0, 0.0, 0.0, 0.0, 0.0, 0.0, 1000000000000.0, 0.0, 0.0, 0.0, 0.0, 0.0, 0.0, 0.001)",0.2215612873915203,9.902530663572288e-05,0.0,0.0,0.0,-0.188131784113254,"(0.0, 0.0, 0.0, 0.0, 0.0, 0.0, 0.0, 0.0, 0.0, 0.0, 0.0, 0.0, 0.0, 0.0, 0.0, 0.0, 0.0, 0.0, 0.0, 0.0, 0.0, 0.0, 0.0, 0.0, 0.0, 0.0, 0.0, 0.0, 0.0, 0.0, 0.0, 0.0, 0.0, 0.0, 0.0, 0.0)",0.2199999988079071,0.0001031236897688,0.0,0.0,0.0,-0.0796735510230064,60,2,268000000,base_footprint,0.0001216686757738,0.0038619658239688,-0.0336438180227023,0.999426417464319,0.0,0.0,0.0,0.0,0.0,0.0,0.0,0.0,0.0,1.0826954110246036e-05,0.0007061432848112,-0.0801047862437664,0.0,0.0,0.0,0.0,0.0,0.0,0.0,0.0,0.0,-0.0306285513790903,-0.0353297886669974,-0.0009012999449014,0.0,0.0,0.0,0.0,0.0,0.0,0.0,0.0,0.0
2.302,-0.0700680025368429,0.0074877791111363,-0.0005142874071226,-0.0027670991647163,-0.0690829996504922,0.2246086496306846,0.2240728947615424,-0.0155043001164959,-0.0838126044764133,0.2051830624524419,3.0731907613978846,0.0074608979401783,-0.0005266950398728,-0.0027909597290645,62.0,2.0,255000000.0,odom,base_footprint,0.1832985785489901,-0.0032081089087627,-0.0010028800480144,0.0001188824022786,0.0038623062449347,-0.0329746483590936,0.999448718555904,"(1e-05, 0.0, 0.0, 0.0, 0.0, 0.0, 0.0, 1e-05, 0.0, 0.0, 0.0, 0.0, 0.0, 0.0, 1000000000000.0, 0.0, 0.0, 0.0, 0.0, 0.0, 0.0, 1000000000000.0, 0.0, 0.0, 0.0, 0.0, 0.0, 0.0, 1000000000000.0, 0.0, 0.0, 0.0, 0.0, 0.0, 0.0, 0.001)",0.2215612873915203,9.902530663572288e-05,0.0,0.0,0.0,-0.188131784113254,"(0.0, 0.0, 0.0, 0.0, 0.0, 0.0, 0.0, 0.0, 0.0, 0.0, 0.0, 0.0, 0.0, 0.0, 0.0, 0.0, 0.0, 0.0, 0.0, 0.0, 0.0, 0.0, 0.0, 0.0, 0.0, 0.0, 0.0, 0.0, 0.0, 0.0, 0.0, 0.0, 0.0, 0.0, 0.0, 0.0)",0.2199999988079071,0.0001031236897688,0.0,0.0,0.0,-0.0796735510230064,61,2,302000000,base_footprint,0.0001258661163501,0.0038610077812445,-0.0350265371875837,0.999378916362198,0.0,0.0,0.0,0.0,0.0,0.0,0.0,0.0,0.0,-0.000664507221974,-0.0001296487776706,-0.0818774295154476,0.0,0.0,0.0,0.0,0.0,0.0,0.0,0.0,0.0,0.0068864213750284,-0.0160180702357664,0.0006041450500852,0.0,0.0,0.0,0.0,0.0,0.0,0.0,0.0,0.0
2.336,-0.0728581924126146,0.0074931055521686,-0.0005349259989251,-0.0027901898757716,-0.0718739593795567,0.2181339339413411,0.2175707511074776,-0.0156646544568787,-0.0811375090688535,-0.1944359065868916,0.0803331954222151,0.0072443932168658,-0.0005314103161058,-0.0027018790519928,63.0,2.0,289000000.0,odom,base_footprint,0.190784747060032,-0.0037143134731005,-0.0010027263224127,0.0001242717308416,0.0038608892412006,-0.0345360727109763,0.9993959864700812,"(1e-05, 0.0, 0.0, 0.0, 0.0, 0.0, 0.0, 1e-05, 0.0, 0.0, 0.0, 0.0, 0.0, 0.0, 1000000000000.0, 0.0, 0.0, 0.0, 0.0, 0.0, 0.0, 1000000000000.0, 0.0, 0.0, 0.0, 0.0, 0.0, 0.0, 1000000000000.0, 0.0, 0.0, 0.0, 0.0, 0.0, 0.0, 0.001)",0.2207945614775112,6.638804591300312e-05,0.0,0.0,0.0,-0.0817365089341671,"(0.0, 0.0, 0.0, 0.0, 0.0, 0.0, 0.0, 0.0, 0.0, 0.0, 0.0, 0.0, 0.0, 0.0, 0.0, 0.0, 0.0, 0.0, 0.0, 0.0, 0.0, 0.0, 0.0, 0.0, 0.0, 0.0, 0.0, 0.0, 0.0, 0.0, 0.0, 0.0, 0.0, 0.0, 0.0, 0.0)",0.2199999988079071,0.0001031236897688,0.0,0.0,0.0,-0.0796735510230064,62,2,336000000,base_footprint,0.0001301885315753,0.0038623203310719,-0.03642072658221,0.9993290730324172,0.0,0.0,0.0,0.0,0.0,0.0,0.0,0.0,0.0,-0.0006882001931283,-1.8225150132845293e-05,-0.0822696204066065,0.0,0.0,0.0,0.0,0.0,0.0,0.0,0.0,0.0,0.0028443367998207,-0.0188067240216456,-0.0002511538157388,0.0,0.0,0.0,0.0,0.0,0.0,0.0,0.0,0.0
2.37,-0.0764045279970567,0.0075032635073518,-0.0005576903687947,-0.0035463355844421,-0.0745758384315496,0.2183093740797605,0.2177025855125516,-0.0162655178905235,-0.0814620920004864,0.0052684726252059,-0.0097472351841711,0.0072487532956649,-0.0005514641421167,-0.0027126876636161,65.0,2.0,355000000.0,odom,base_footprint,0.2053312040334727,-0.004757614700837,-0.0010032093411181,0.0001325306912528,0.0038639216863141,-0.0372436658948754,0.9992987350615076,"(1e-05, 0.0, 0.0, 0.0, 0.0, 0.0, 0.0, 1e-05, 0.0, 0.0, 0.0, 0.0, 0.0, 0.0, 1000000000000.0, 0.0, 0.0, 0.0, 0.0, 0.0, 0.0, 1000000000000.0, 0.0, 0.0, 0.0, 0.0, 0.0, 0.0, 1000000000000.0, 0.0, 0.0, 0.0, 0.0, 0.0, 0.0, 0.001)",0.2211522912608789,4.898889178269611e-05,0.0,0.0,0.0,-0.0824570820231411,"(0.0, 0.0, 0.0, 0.0, 0.0, 0.0, 0.0, 0.0, 0.0, 0.0, 0.0, 0.0, 0.0, 0.0, 0.0, 0.0, 0.0, 0.0, 0.0, 0.0, 0.0, 0.0, 0.0, 0.0, 0.0, 0.0, 0.0, 0.0, 0.0, 0.0, 0.0, 0.0, 0.0, 0.0, 0.0, 0.0)",0.2199999988079071,5.377027628128417e-05,0.0,0.0,0.0,-0.1395655423402786,63,2,370000000,base_footprint,0.0001360075671514,0.0038647094888244,-0.0381926417525553,0.9992629121700004,0.0,0.0,0.0,0.0,0.0,0.0,0.0,0.0,0.0,-0.0013457580396403,0.0018049511117551,-0.1432859626104232,0.0,0.0,0.0,0.0,0.0,0.0,0.0,0.0,0.0,0.0184925748994452,-0.0231578505101642,-0.002748637983307,0.0,0.0,0.0,0.0,0.0,0.0,0.0,0.0,0.0
2.404,-0.0812489819388568,0.0075187113425632,-0.0005921376331535,-0.0048444539418001,-0.0772885260951657,0.2250444289496433,0.2243726101977914,-0.0173760408120201,-0.1444549145232544,0.2022538999964803,-1.8916763520350768,0.0074701882221559,-0.0005965803721913,-0.0048103486536243,65.0,2.0,355000000.0,odom,base_footprint,0.2053312040334727,-0.004757614700837,-0.0010032093411181,0.0001325306912528,0.0038639216863141,-0.0372436658948754,0.9992987350615076,"(1e-05, 0.0, 0.0, 0.0, 0.0, 0.0, 0.0, 1e-05, 0.0, 0.0, 0.0, 0.0, 0.0, 0.0, 1000000000000.0, 0.0, 0.0, 0.0, 0.0, 0.0, 0.0, 1000000000000.0, 0.0, 0.0, 0.0, 0.0, 0.0, 0.0, 1000000000000.0, 0.0, 0.0, 0.0, 0.0, 0.0, 0.0, 0.001)",0.2211522912608789,4.898889178269611e-05,0.0,0.0,0.0,-0.0824570820231411,"(0.0, 0.0, 0.0, 0.0, 0.0, 0.0, 0.0, 0.0, 0.0, 0.0, 0.0, 0.0, 0.0, 0.0, 0.0, 0.0, 0.0, 0.0, 0.0, 0.0, 0.0, 0.0, 0.0, 0.0, 0.0, 0.0, 0.0, 0.0, 0.0, 0.0, 0.0, 0.0, 0.0, 0.0, 0.0, 0.0)",0.2199999988079071,5.377027628128417e-05,0.0,0.0,0.0,-0.1395655423402786,64,2,404000000,base_footprint,0.0001437451172089,0.0038696696955167,-0.0406129609284799,0.9991674496291456,0.0,0.0,0.0,0.0,0.0,0.0,0.0,0.0,0.0,-0.0011820409460553,0.0001326325005016,-0.1421746032853283,0.0,0.0,0.0,0.0,0.0,0.0,0.0,0.0,0.0,-0.0027645726374238,-0.0347028612889014,0.0022318709724967,0.0,0.0,0.0,0.0,0.0,0.0,0.0,0.0,0.0
2.438,-0.0860566407744039,0.0075172666289822,-0.0006293781883346,-0.0048076588355471,-0.0820988747487901,0.2185738348080424,0.2178376300244002,-0.01792451416485,-0.1406096495684693,-0.194312136384412,0.1154734220656202,0.0072525700006166,-0.000613857052613,-0.00468230133063,67.0,2.0,422000000.0,odom,base_footprint,0.2201446566008285,-0.0059299772321297,-0.0010043330430628,0.000149006068693,0.0038715830972301,-0.0419590979197009,0.9991118169370622,"(1e-05, 0.0, 0.0, 0.0, 0.0, 0.0, 0.0, 1e-05, 0.0, 0.0, 0.0, 0.0, 0.0, 0.0, 1000000000000.0, 0.0, 0.0, 0.0, 0.0, 0.0, 0.0, 1000000000000.0, 0.0, 0.0, 0.0, 0.0, 0.0, 0.0, 1000000000000.0, 0.0, 0.0, 0.0, 0.0, 0.0, 0.0, 0.001)",0.2218903789959333,4.376774425698601e-05,0.0,0.0,0.0,-0.1413628396334012,"(0.0, 0.0, 0.0, 0.0, 0.0, 0.0, 0.0, 0.0, 0.0, 0.0, 0.0, 0.0, 0.0, 0.0, 0.0, 0.0, 0.0, 0.0, 0.0, 0.0, 0.0, 0.0, 0.0, 0.0, 0.0, 0.0, 0.0, 0.0, 0.0, 0.0, 0.0, 0.0, 0.0, 0.0, 0.0, 0.0)",0.2199999988079071,5.377027628128417e-05,0.0,0.0,0.0,-0.1395655423402786,65,2,438000000,base_footprint,0.0001533349267909,0.0038731861463562,-0.0430146691557671,0.99906692125948,0.0,0.0,0.0,0.0,0.0,0.0,0.0,0.0,0.0,-0.0011109389640027,0.0001728119487705,-0.1403662074989135,0.0,0.0,0.0,0.0,0.0,0.0,0.0,0.0,0.0,-0.0060499078071708,-0.0309478998122653,-6.466471766945062e-05,0.0,0.0,0.0,0.0,0.0,0.0,0.0,0.0,0.0
2.472,-0.0912798186673917,0.0074581927359501,-0.0006606172757148,-0.0052231778929877,-0.0867811760794202,0.2185615166881417,0.2177390426634265,-0.0189432277354038,-0.1389575784552507,-0.0003699135105302,0.0496117451416982,0.0072492256502084,-0.0006475730189232,-0.0046272873625598,68.0,2.0,455000000.0,odom,base_footprint,0.2274379465113613,-0.0065598944003205,-0.0010047760711587,0.0001584500914996,0.00387467000617,-0.0442711428784073,0.999012025820586,"(1e-05, 0.0, 0.0, 0.0, 0.0, 0.0, 0.0, 1e-05, 0.0, 0.0, 0.0, 0.0, 0.0, 0.0, 1000000000000.0, 0.0, 0.0, 0.0, 0.0, 0.0, 0.0, 1000000000000.0, 0.0, 0.0, 0.0, 0.0, 0.0, 0.0, 1000000000000.0, 0.0, 0.0, 0.0, 0.0, 0.0, 0.0, 0.001)",0.2217831203840385,2.3381487195248823e-05,0.0,0.0,0.0,-0.139149247353293,"(0.0, 0.0, 0.0, 0.0, 0.0, 0.0, 0.0, 0.0, 0.0, 0.0, 0.0, 0.0, 0.0, 0.0, 0.0, 0.0, 0.0, 0.0, 0.0, 0.0, 0.0, 0.0, 0.0, 0.0, 0.0, 0.0, 0.0, 0.0, 0.0, 0.0, 0.0, 0.0, 0.0, 0.0, 0.0, 0.0)",0.2084210515022277,4.376774450065568e-05,0.0,0.0,0.0,-0.1331577152013778,66,2,472000000,base_footprint,0.0001693169150789,0.0038558091968231,-0.0456237003815228,0.9989512410677096,0.0,0.0,0.0,0.0,0.0,0.0,0.0,0.0,0.0,0.0011041142122055,0.0005474000991004,-0.1943909188247246,0.0,0.0,0.0,0.0,0.0,0.0,0.0,0.0,0.0,-0.1868814615884814,0.0026672532369038,-0.0001169760011574,0.0,0.0,0.0,0.0,0.0,0.0,0.0,0.0,0.0
2.506,-0.0976300324757351,0.0072457811819476,-0.0006808458365566,-0.0063502138083434,-0.09140846344198,0.2010116311485806,0.200172438651473,-0.0183485874479558,-0.0012293153286745,-0.5270235897766106,4.135983877674961,0.0066657305204587,-0.0006111354378948,-4.093620044486324e-05,68.0,2.0,455000000.0,odom,base_footprint,0.2274379465113613,-0.0065598944003205,-0.0010047760711587,0.0001584500914996,0.00387467000617,-0.0442711428784073,0.999012025820586,"(1e-05, 0.0, 0.0, 0.0, 0.0, 0.0, 0.0, 1e-05, 0.0, 0.0, 0.0, 0.0, 0.0, 0.0, 1000000000000.0, 0.0, 0.0, 0.0, 0.0, 0.0, 0.0, 1000000000000.0, 0.0, 0.0, 0.0, 0.0, 0.0, 0.0, 1000000000000.0, 0.0, 0.0, 0.0, 0.0, 0.0, 0.0, 0.001)",0.2217831203840385,2.3381487195248823e-05,0.0,0.0,0.0,-0.139149247353293,"(0.0, 0.0, 0.0, 0.0, 0.0, 0.0, 0.0, 0.0, 0.0, 0.0, 0.0, 0.0, 0.0, 0.0, 0.0, 0.0, 0.0, 0.0, 0.0, 0.0, 0.0, 0.0, 0.0, 0.0, 0.0, 0.0, 0.0, 0.0, 0.0, 0.0, 0.0, 0.0, 0.0, 0.0, 0.0, 0.0)",0.2084210515022277,4.376774450065568e-05,0.0,0.0,0.0,-0.1331577152013778,67,2,506000000,base_footprint,0.0001805247093406,0.0038770702817244,-0.0487952296769292,0.9988012621626164,0.0,0.0,0.0,0.0,0.0,0.0,0.0,0.0,0.0,-0.0011664558026116,0.0018685262816391,-0.1756504229057721,0.0,0.0,0.0,0.0,0.0,0.0,0.0,0.0,0.0,-0.0574928650829515,-0.0283408685335694,-0.0011762216360257,0.0,0.0,0.0,0.0,0.0,0.0,0.0,0.0,0.0
2.54,-0.1032182977390877,0.0071939347871629,-0.0007241654387813,-0.0055882652633525,-0.0914493996424248,0.2067109434028049,0.2058471845671806,-0.0188772542559206,-0.1300302351188295,0.1711505181448744,-3.867895489193841,0.0068533297449157,-0.000643441841323,-0.004330006829457,70.0,2.0,522000000.0,odom,base_footprint,0.2417769085271042,-0.0079133216594151,-0.0010041011367062,0.0001906725720288,0.0038692977974187,-0.050269914013637,0.998728155167154,"(1e-05, 0.0, 0.0, 0.0, 0.0, 0.0, 0.0, 1e-05, 0.0, 0.0, 0.0, 0.0, 0.0, 0.0, 1000000000000.0, 0.0, 0.0, 0.0, 0.0, 0.0, 0.0, 1000000000000.0, 0.0, 0.0, 0.0, 0.0, 0.0, 0.0, 1000000000000.0, 0.0, 0.0, 0.0, 0.0, 0.0, 0.0, 0.001)",0.2130143211723029,5.533827622959328e-05,0.0,0.0,0.0,-0.1674382523130325,"(0.0, 0.0, 0.0, 0.0, 0.0, 0.0, 0.0, 0.0, 0.0, 0.0, 0.0, 0.0, 0.0, 0.0, 0.0, 0.0, 0.0, 0.0, 0.0, 0.0, 0.0, 0.0, 0.0, 0.0, 0.0, 0.0, 0.0, 0.0, 0.0, 0.0, 0.0, 0.0, 0.0, 0.0, 0.0, 0.0)",0.2084210515022277,4.376774450065568e-05,0.0,0.0,0.0,-0.1331577152013778,68,2,540000000,base_footprint,0.000195869685012,0.0038681717908292,-0.0515858395727487,0.998661053630128,0.0,0.0,0.0,0.0,0.0,0.0,0.0,0.0,0.0,-0.0013044693933038,-8.713568238096666e-05,-0.141152842446256,0.0,0.0,0.0,0.0,0.0,0.0,0.0,0.0,0.0,-0.1009032305289273,-0.0137612400194476,0.0047122525173389,0.0,0.0,0.0,0.0,0.0,0.0,0.0,0.0,0.0
2.574,-0.1068521202290542,0.0070224746163539,-0.0007353735420615,-0.0036338224899665,-0.0957794064718819,0.206612103543964,0.2056651296335635,-0.0197589418661837,-0.1300945621526612,-0.0029681639291554,-0.0019317427577109,0.0068472030833005,-0.0006727961632171,-0.0043321489196836,71.0,2.0,555000000.0,odom,base_footprint,0.2486881982768142,-0.0086218143460377,-0.0010039156451681,0.0001972353223327,0.0038674153682243,-0.0525977697839446,0.9986082709503024,"(1e-05, 0.0, 0.0, 0.0, 0.0, 0.0, 0.0, 1e-05, 0.0, 0.0, 0.0, 0.0, 0.0, 0.0, 1000000000000.0, 0.0, 0.0, 0.0, 0.0, 0.0, 0.0, 1000000000000.0, 0.0, 0.0, 0.0, 0.0, 0.0, 0.0, 1000000000000.0, 0.0, 0.0, 0.0, 0.0, 0.0, 0.0, 0.001)",0.2084479942114164,0.0002419677029918,0.0,0.0,0.0,-0.1224710046845545,"(0.0, 0.0, 0.0, 0.0, 0.0, 0.0, 0.0, 0.0, 0.0, 0.0, 0.0, 0.0, 0.0, 0.0, 0.0, 0.0, 0.0, 0.0, 0.0, 0.0, 0.0, 0.0, 0.0, 0.0, 0.0, 0.0, 0.0, 0.0, 0.0, 0.0, 0.0, 0.0, 0.0, 0.0, 0.0, 0.0)",0.2084210515022277,0.0001882997748907,0.0,0.0,0.0,-0.0160700380802154,69,2,574000000,base_footprint,0.0001960740510224,0.0038613972887188,-0.0534002083638393,0.9985657058564767,0.0,0.0,0.0,0.0,0.0,0.0,0.0,0.0,0.0,-0.0009966680825188,-0.0013753004947564,-0.0625241229669254,0.0,0.0,0.0,0.0,0.0,0.0,0.0,0.0,0.0,-0.1878359927676616,0.0149560584008012,0.0026480740917149,0.0,0.0,0.0,0.0,0.0,0.0,0.0,0.0,0.0
2.608,-0.1094515537199128,0.0068761963439044,-0.0007434434557625,-0.0025994334908585,-0.1001115553915655,0.2126402262545771,0.2115755413476499,-0.0212522028280984,-0.0147540613911116,0.181024706024418,3.4636787015480373,0.0070452923472049,-0.0007094196111937,-0.000491310244324,72.0,2.0,589000000.0,odom,base_footprint,0.2556197287445519,-0.0093607324134663,-0.0010038106331058,0.0001939366307044,0.0038655084490789,-0.0539625494719808,0.9985354593040237,"(1e-05, 0.0, 0.0, 0.0, 0.0, 0.0, 0.0, 1e-05, 0.0, 0.0, 0.0, 0.0, 0.0, 0.0, 1000000000000.0, 0.0, 0.0, 0.0, 0.0, 0.0, 0.0, 1000000000000.0, 0.0, 0.0, 0.0, 0.0, 0.0, 0.0, 1000000000000.0, 0.0, 0.0, 0.0, 0.0, 0.0, 0.0, 0.001)",0.203363132248975,1.6298929541681134e-05,0.0,0.0,0.0,-0.0798174757168763,"(0.0, 0.0, 0.0, 0.0, 0.0, 0.0, 0.0, 0.0, 0.0, 0.0, 0.0, 0.0, 0.0, 0.0, 0.0, 0.0, 0.0, 0.0, 0.0, 0.0, 0.0, 0.0, 0.0, 0.0, 0.0, 0.0, 0.0, 0.0, 0.0, 0.0, 0.0, 0.0, 0.0, 0.0, 0.0, 0.0)",0.2084210515022277,0.0001882997748907,0.0,0.0,0.0,-0.0160700380802154,70,2,608000000,base_footprint,0.0001922202644244,0.0038591252546517,-0.0546979822566626,0.9984954686630726,0.0,0.0,0.0,0.0,0.0,0.0,0.0,0.0,0.0,-0.0030948129310051,-0.0010962072978058,-0.0812261216955952,0.0,0.0,0.0,0.0,0.0,0.0,0.0,0.0,0.0,-0.0303163409200338,-0.0103811613785926,0.0023697036833172,0.0,0.0,0.0,0.0,0.0,0.0,0.0,0.0,0.0
2.642,-0.111834400792115,0.0068988305343173,-0.0007638291747821,-0.0023828470722021,-0.1006028656358895,0.2061825615320619,0.2051400609200857,-0.0207075852195767,-0.0124218603839619,-0.1939238655409983,0.0700360662807701,0.0068310221444519,-0.0006909662354472,-0.0004136479507859,73.0,2.0,622000000.0,odom,base_footprint,0.262292095453988,-0.010090193454046,-0.0010023028063471,0.0001932440020856,0.0038525816232953,-0.0552817874911752,0.9984633414619548,"(1e-05, 0.0, 0.0, 0.0, 0.0, 0.0, 0.0, 1e-05, 0.0, 0.0, 0.0, 0.0, 0.0, 0.0, 1000000000000.0, 0.0, 0.0, 0.0, 0.0, 0.0, 0.0, 1000000000000.0, 0.0, 0.0, 0.0, 0.0, 0.0, 0.0, 1000000000000.0, 0.0, 0.0, 0.0, 0.0, 0.0, 0.0, 0.001)",0.2038397159222758,0.0001379479786416,0.0,0.0,0.0,-0.0738543079579927,"(0.0, 0.0, 0.0, 0.0, 0.0, 0.0, 0.0, 0.0, 0.0, 0.0, 0.0, 0.0, 0.0, 0.0, 0.0, 0.0, 0.0, 0.0, 0.0, 0.0, 0.0, 0.0, 0.0, 0.0, 0.0, 0.0, 0.0, 0.0, 0.0, 0.0, 0.0, 0.0, 0.0, 0.0, 0.0, 0.0)",0.2199999988079071,1.6298929040203802e-05,0.0,0.0,0.0,-0.1044328510761261,71,2,642000000,base_footprint,0.0001976700564622,0.0038528080718718,-0.0558875801599052,0.9984296145349356,0.0,0.0,0.0,0.0,0.0,0.0,0.0,0.0,0.0,-0.0007500591128207,-0.0003300394423297,-0.0524141890359635,0.0,0.0,0.0,0.0,0.0,0.0,0.0,0.0,0.0,0.0587627342225358,-0.0284646090353434,-0.0033856105774242,0.0,0.0,0.0,0.0,0.0,0.0,0.0,0.0,0.0
2.676,-0.1138894131002935,0.0070918046553469,-0.0008004319993771,-0.0020550123081784,-0.1010165135866755,0.2062326570139012,0.2051813178234807,-0.0207974910802531,-0.0130553657641612,0.0015043688240043,-0.01902418559157,0.0068323880588415,-0.0006940324494473,-0.0004347436799465,73.0,2.0,622000000.0,odom,base_footprint,0.262292095453988,-0.010090193454046,-0.0010023028063471,0.0001932440020856,0.0038525816232953,-0.0552817874911752,0.9984633414619548,"(1e-05, 0.0, 0.0, 0.0, 0.0, 0.0, 0.0, 1e-05, 0.0, 0.0, 0.0, 0.0, 0.0, 0.0, 1000000000000.0, 0.0, 0.0, 0.0, 0.0, 0.0, 0.0, 1000000000000.0, 0.0, 0.0, 0.0, 0.0, 0.0, 0.0, 1000000000000.0, 0.0, 0.0, 0.0, 0.0, 0.0, 0.0, 0.001)",0.2038397159222758,0.0001379479786416,0.0,0.0,0.0,-0.0738543079579927,"(0.0, 0.0, 0.0, 0.0, 0.0, 0.0, 0.0, 0.0, 0.0, 0.0, 0.0, 0.0, 0.0, 0.0, 0.0, 0.0, 0.0, 0.0, 0.0, 0.0, 0.0, 0.0, 0.0, 0.0, 0.0, 0.0, 0.0, 0.0, 0.0, 0.0, 0.0, 0.0, 0.0, 0.0, 0.0, 0.0)",0.2199999988079071,1.6298929040203802e-05,0.0,0.0,0.0,-0.1044328510761261,72,2,676000000,base_footprint,0.0002059004293566,0.0038475403093231,-0.0569134617108008,0.9983716802447248,0.0,0.0,0.0,0.0,0.0,0.0,0.0,0.0,0.0,-0.0010071446497743,-0.000742961404512,-0.1121185904687018,0.0,0.0,0.0,0.0,0.0,0.0,0.0,0.0,0.0,0.3413229146177599,-0.0910500271437844,-0.001803862639883,0.0,0.0,0.0,0.0,0.0,0.0,0.0,0.0,0.0
2.71,-0.1176156052247424,0.0074379477964792,-0.0008634428805986,-0.0037261921244489,-0.101451257266622,0.2244072947866944,0.2232534448860721,-0.0227273689630788,-0.1064082376134962,0.5457849181018973,-2.8033895450250736,0.0074329843355617,-0.0007699811972479,-0.0035433943125294,74.0,2.0,655000000.0,odom,base_footprint,0.2690262358647222,-0.010843088353156,-0.0010024999883943,0.000201219148401,0.0038548989531702,-0.0561746847044331,0.9984134935302472,"(1e-05, 0.0, 0.0, 0.0, 0.0, 0.0, 0.0, 1e-05, 0.0, 0.0, 0.0, 0.0, 0.0, 0.0, 1000000000000.0, 0.0, 0.0, 0.0, 0.0, 0.0, 0.0, 1000000000000.0, 0.0, 0.0, 0.0, 0.0, 0.0, 0.0, 1000000000000.0, 0.0, 0.0, 0.0, 0.0, 0.0, 0.0, 0.001)",0.2070542978149244,-9.522286656224456e-06,0.0,0.0,0.0,-0.0316509059519992,"(0.0, 0.0, 0.0, 0.0, 0.0, 0.0, 0.0, 0.0, 0.0, 0.0, 0.0, 0.0, 0.0, 0.0, 0.0, 0.0, 0.0, 0.0, 0.0, 0.0, 0.0, 0.0, 0.0, 0.0, 0.0, 0.0, 0.0, 0.0, 0.0, 0.0, 0.0, 0.0, 0.0, 0.0, 0.0, 0.0)",0.2199999988079071,1.6298929040203802e-05,0.0,0.0,0.0,-0.1044328510761261,73,2,710000000,base_footprint,0.000217980528865,0.0038595680604811,-0.058773437266255,0.9982638625587852,0.0,0.0,0.0,0.0,0.0,0.0,0.0,0.0,0.0,-0.0008064290960581,-2.1450328896785413e-05,-0.1068928486475921,0.0,0.0,0.0,0.0,0.0,0.0,0.0,0.0,0.0,0.0859486851426365,-0.045611000119381,-0.0023981361547361,0.0,0.0,0.0,0.0,0.0,0.0,0.0,0.0,0.0
2.744,-0.1212552190224801,0.0074525575158901,-0.000892330484351,-0.0036396137977376,-0.1049946515791515,0.2176879529383433,0.2164891722196326,-0.0228141001607469,-0.1059147754787705,-0.2017820374880227,0.0148186827244951,0.0072077357949338,-0.0007724113519423,-0.003526962023443,76.0,2.0,722000000.0,odom,base_footprint,0.2835349268699094,-0.0125221048401903,-0.0010030257948659,0.0002204763097306,0.0038588687311002,-0.0594674755930538,0.998222760644588,"(1e-05, 0.0, 0.0, 0.0, 0.0, 0.0, 0.0, 1e-05, 0.0, 0.0, 0.0, 0.0, 0.0, 0.0, 1000000000000.0, 0.0, 0.0, 0.0, 0.0, 0.0, 0.0, 1000000000000.0, 0.0, 0.0, 0.0, 0.0, 0.0, 0.0, 1000000000000.0, 0.0, 0.0, 0.0, 0.0, 0.0, 0.0, 0.001)",0.2207357993742806,8.139370856096242e-05,0.0,0.0,0.0,-0.1070542645035557,"(0.0, 0.0, 0.0, 0.0, 0.0, 0.0, 0.0, 0.0, 0.0, 0.0, 0.0, 0.0, 0.0, 0.0, 0.0, 0.0, 0.0, 0.0, 0.0, 0.0, 0.0, 0.0, 0.0, 0.0, 0.0, 0.0, 0.0, 0.0, 0.0, 0.0, 0.0, 0.0, 0.0, 0.0, 0.0, 0.0)",0.2199999988079071,0.0,0.0,0.0,0.0,-0.0166992302983999,73,2,710000000,base_footprint,0.000217980528865,0.0038595680604811,-0.058773437266255,0.9982638625587852,0.0,0.0,0.0,0.0,0.0,0.0,0.0,0.0,0.0,-0.0008064290960581,-2.1450328896785413e-05,-0.1068928486475921,0.0,0.0,0.0,0.0,0.0,0.0,0.0,0.0,0.0,0.0859486851426365,-0.045611000119381,-0.0023981361547361,0.0,0.0,0.0,0.0,0.0,0.0,0.0,0.0,0.0
2.778,-0.1232115036459777,0.0074385633567161,-0.0009155816356193,-0.0019562846234975,-0.1085216136025945,0.2178585591424338,0.2165769639987368,-0.0235959839105556,-0.1061323706246251,0.0051233094321491,-0.0065343887644017,0.0072106104667062,-0.0007984793004855,-0.0035342079418,76.0,2.0,722000000.0,odom,base_footprint,0.2835349268699094,-0.0125221048401903,-0.0010030257948659,0.0002204763097306,0.0038588687311002,-0.0594674755930538,0.998222760644588,"(1e-05, 0.0, 0.0, 0.0, 0.0, 0.0, 0.0, 1e-05, 0.0, 0.0, 0.0, 0.0, 0.0, 0.0, 1000000000000.0, 0.0, 0.0, 0.0, 0.0, 0.0, 0.0, 1000000000000.0, 0.0, 0.0, 0.0, 0.0, 0.0, 0.0, 1000000000000.0, 0.0, 0.0, 0.0, 0.0, 0.0, 0.0, 0.001)",0.2207357993742806,8.139370856096242e-05,0.0,0.0,0.0,-0.1070542645035557,"(0.0, 0.0, 0.0, 0.0, 0.0, 0.0, 0.0, 0.0, 0.0, 0.0, 0.0, 0.0, 0.0, 0.0, 0.0, 0.0, 0.0, 0.0, 0.0, 0.0, 0.0, 0.0, 0.0, 0.0, 0.0, 0.0, 0.0, 0.0, 0.0, 0.0, 0.0, 0.0, 0.0, 0.0, 0.0, 0.0)",0.2199999988079071,0.0,0.0,0.0,0.0,-0.0166992302983999,75,2,778000000,base_footprint,0.0002264517921999,0.003856278452671,-0.0615662875236619,0.9980955215191756,0.0,0.0,0.0,0.0,0.0,0.0,0.0,0.0,0.0,-0.0002253602770186,5.9194608683225496e-05,-0.0196319737919803,0.0,0.0,0.0,0.0,0.0,0.0,0.0,0.0,0.0,-0.0211454196071491,-0.0086831674468548,-0.0001299718830613,0.0,0.0,0.0,0.0,0.0,0.0,0.0,0.0,0.0
2.8120000000000003,-0.1238813296338931,0.0074344986561549,-0.0009221575312091,-0.0006698259879154,-0.1120558215443945,0.2246855693573111,0.2232764118134013,-0.0251246692545689,-0.0204478661462783,0.2050153217680855,2.573108242592996,0.0074348202229165,-0.0008391727618811,-0.000680913942671,78.0,2.0,789000000.0,odom,base_footprint,0.2982001698916167,-0.0143168746043367,-0.0010028554122605,0.0002266744302567,0.0038568311448386,-0.0616838926839729,0.9980882580491444,"(1e-05, 0.0, 0.0, 0.0, 0.0, 0.0, 0.0, 1e-05, 0.0, 0.0, 0.0, 0.0, 0.0, 0.0, 1000000000000.0, 0.0, 0.0, 0.0, 0.0, 0.0, 0.0, 1000000000000.0, 0.0, 0.0, 0.0, 0.0, 0.0, 0.0, 1000000000000.0, 0.0, 0.0, 0.0, 0.0, 0.0, 0.0, 0.001)",0.2203152897754617,3.415588803075062e-05,0.0,0.0,0.0,-0.0197461784190514,"(0.0, 0.0, 0.0, 0.0, 0.0, 0.0, 0.0, 0.0, 0.0, 0.0, 0.0, 0.0, 0.0, 0.0, 0.0, 0.0, 0.0, 0.0, 0.0, 0.0, 0.0, 0.0, 0.0, 0.0, 0.0, 0.0, 0.0, 0.0, 0.0, 0.0, 0.0, 0.0, 0.0, 0.0, 0.0, 0.0)",0.2199999988079071,0.0,0.0,0.0,0.0,-0.0166992302983999,76,2,812000000,base_footprint,0.0002268517585392,0.0038575890110199,-0.0619005551273305,0.9980748412920896,0.0,0.0,0.0,0.0,0.0,0.0,0.0,0.0,0.0,-0.0003051190119641,-1.860823497284469e-05,-0.0198125303977987,0.0,0.0,0.0,0.0,0.0,0.0,0.0,0.0,0.0,0.0048832054111933,-0.0060068122049223,-7.86580752580072e-05,0.0,0.0,0.0,0.0,0.0,0.0,0.0,0.0,0.0
2.846,-0.1245542696977394,0.00743977652572,-0.0009281784393208,-0.0006729400638462,-0.1127367354870656,0.2182145024746714,0.216829264142434,-0.0245487128322224,-0.0195533671334442,-0.1943263328120024,0.0268618322172398,0.0072201489484785,-0.0008198130791495,-0.0006511271255436,78.0,2.0,789000000.0,odom,base_footprint,0.2982001698916167,-0.0143168746043367,-0.0010028554122605,0.0002266744302567,0.0038568311448386,-0.0616838926839729,0.9980882580491444,"(1e-05, 0.0, 0.0, 0.0, 0.0, 0.0, 0.0, 1e-05, 0.0, 0.0, 0.0, 0.0, 0.0, 0.0, 1000000000000.0, 0.0, 0.0, 0.0, 0.0, 0.0, 0.0, 1000000000000.0, 0.0, 0.0, 0.0, 0.0, 0.0, 0.0, 1000000000000.0, 0.0, 0.0, 0.0, 0.0, 0.0, 0.0, 0.001)",0.2203152897754617,3.415588803075062e-05,0.0,0.0,0.0,-0.0197461784190514,"(0.0, 0.0, 0.0, 0.0, 0.0, 0.0, 0.0, 0.0, 0.0, 0.0, 0.0, 0.0, 0.0, 0.0, 0.0, 0.0, 0.0, 0.0, 0.0, 0.0, 0.0, 0.0, 0.0, 0.0, 0.0, 0.0, 0.0, 0.0, 0.0, 0.0, 0.0, 0.0, 0.0, 0.0, 0.0, 0.0)",0.2199999988079071,3.415588798816316e-05,0.0,0.0,0.0,0.0,77,2,846000000,base_footprint,0.0002270224702622,0.0038599359330581,-0.0622363683719347,0.99805394834511,0.0,0.0,0.0,0.0,0.0,0.0,0.0,0.0,0.0,-0.0003057068436951,7.319044781386761e-05,-0.0198077853766617,0.0,0.0,0.0,0.0,0.0,0.0,0.0,0.0,0.0,0.0037314263488718,-0.0056423000297249,-0.0002274732581542,0.0,0.0,0.0,0.0,0.0,0.0,0.0,0.0,0.0
2.88,-0.1248344260930954,0.0074411086943306,-0.0009328913197866,-0.0002801563953559,-0.1133878626126093,0.2183765303813588,0.2169742212879328,-0.0247082236896071,-0.0195704905595567,0.0048657029035255,-0.0005142170003746,0.0072249740634524,-0.0008251284152116,-0.0006516973356332,80.0,2.0,855000000.0,odom,base_footprint,0.3126402043087042,-0.0161166168206171,-0.0010034435695455,0.0002270290289698,0.0038609418024977,-0.0623349254718028,0.9980477937717424,"(1e-05, 0.0, 0.0, 0.0, 0.0, 0.0, 0.0, 1e-05, 0.0, 0.0, 0.0, 0.0, 0.0, 0.0, 1000000000000.0, 0.0, 0.0, 0.0, 0.0, 0.0, 0.0, 1000000000000.0, 0.0, 0.0, 0.0, 0.0, 0.0, 0.0, 1000000000000.0, 0.0, 0.0, 0.0, 0.0, 0.0, 0.0, 0.001)",0.2206489623479283,1.936278135830291e-05,0.0,0.0,0.0,-0.0197511523270396,"(0.0, 0.0, 0.0, 0.0, 0.0, 0.0, 0.0, 0.0, 0.0, 0.0, 0.0, 0.0, 0.0, 0.0, 0.0, 0.0, 0.0, 0.0, 0.0, 0.0, 0.0, 0.0, 0.0, 0.0, 0.0, 0.0, 0.0, 0.0, 0.0, 0.0, 0.0, 0.0, 0.0, 0.0, 0.0, 0.0)",0.2199999988079071,3.415588798816316e-05,0.0,0.0,0.0,0.0,78,2,880000000,base_footprint,0.0002261592846447,0.0038639598259852,-0.0623761659581148,0.9980452056829926,0.0,0.0,0.0,0.0,0.0,0.0,0.0,0.0,0.0,-0.0001859525447221,0.0001366345158722,-0.0026942614556744,0.0,0.0,0.0,0.0,0.0,0.0,0.0,0.0,0.0,-0.000893900628716,-0.0019194122496165,-0.000203602103723,0.0,0.0,0.0,0.0,0.0,0.0,0.0,0.0,0.0
2.914,-0.1248970393799751,0.0074413833115576,-0.0009341066504878,-6.261328687964807e-05,-0.1140395599482425,0.2251381319072929,0.2236757546993372,-0.0256190397631829,-0.0031665629367426,0.2030510968748972,0.4926104391235454,0.0074483587858627,-0.000853496715787,-0.0001054465457935,81.0,2.0,889000000.0,odom,base_footprint,0.3200809349425202,-0.0170499855038985,-0.0010040667867754,0.000225831568041,0.003865524486548,-0.062388700771482,0.9980444162143254,"(1e-05, 0.0, 0.0, 0.0, 0.0, 0.0, 0.0, 1e-05, 0.0, 0.0, 0.0, 0.0, 0.0, 0.0, 1000000000000.0, 0.0, 0.0, 0.0, 0.0, 0.0, 0.0, 1000000000000.0, 0.0, 0.0, 0.0, 0.0, 0.0, 0.0, 1000000000000.0, 0.0, 0.0, 0.0, 0.0, 0.0, 0.0, 0.001)",0.2206043952676816,4.409508465797601e-06,0.0,0.0,0.0,-0.002326868878076,"(0.0, 0.0, 0.0, 0.0, 0.0, 0.0, 0.0, 0.0, 0.0, 0.0, 0.0, 0.0, 0.0, 0.0, 0.0, 0.0, 0.0, 0.0, 0.0, 0.0, 0.0, 0.0, 0.0, 0.0, 0.0, 0.0, 0.0, 0.0, 0.0, 0.0, 0.0, 0.0, 0.0, 0.0, 0.0, 0.0)",0.2199999988079071,3.415588798816316e-05,0.0,0.0,0.0,0.0,79,2,914000000,base_footprint,0.0002262134351268,0.0038680460005959,-0.0624074090782219,0.998043236708592,0.0,0.0,0.0,0.0,0.0,0.0,0.0,0.0,0.0,-3.1156890817215164e-05,5.285953290882877e-05,-0.0007340796073883,0.0,0.0,0.0,0.0,0.0,0.0,0.0,0.0,0.0,-0.0007648746737602,-0.0008024137089218,0.0001520007917449,0.0,0.0,0.0,0.0,0.0,0.0,0.0,0.0,0.0
2.948,-0.1248802625958572,0.007438767217245,-0.000934653758491,1.6776784117822355e-05,-0.1141450064940361,0.2185461880800482,0.2171240050733861,-0.0248918208496681,-0.0012416196498061,-0.1979562710884304,0.0578061047128091,0.0072302133453805,-0.0008290373866498,-4.134593433854361e-05,81.0,2.0,889000000.0,odom,base_footprint,0.3200809349425202,-0.0170499855038985,-0.0010040667867754,0.000225831568041,0.003865524486548,-0.062388700771482,0.9980444162143254,"(1e-05, 0.0, 0.0, 0.0, 0.0, 0.0, 0.0, 1e-05, 0.0, 0.0, 0.0, 0.0, 0.0, 0.0, 1000000000000.0, 0.0, 0.0, 0.0, 0.0, 0.0, 0.0, 1000000000000.0, 0.0, 0.0, 0.0, 0.0, 0.0, 0.0, 1000000000000.0, 0.0, 0.0, 0.0, 0.0, 0.0, 0.0, 0.001)",0.2206043952676816,4.409508465797601e-06,0.0,0.0,0.0,-0.002326868878076,"(0.0, 0.0, 0.0, 0.0, 0.0, 0.0, 0.0, 0.0, 0.0, 0.0, 0.0, 0.0, 0.0, 0.0, 0.0, 0.0, 0.0, 0.0, 0.0, 0.0, 0.0, 0.0, 0.0, 0.0, 0.0, 0.0, 0.0, 0.0, 0.0, 0.0, 0.0, 0.0, 0.0, 0.0, 0.0, 0.0)",0.2199999988079071,0.0,0.0,0.0,0.0,0.0,80,2,948000000,base_footprint,0.000227712800694,0.003869161101875,-0.0623990424340933,0.9980437551743692,0.0,0.0,0.0,0.0,0.0,0.0,0.0,0.0,0.0,0.0002770772658672,-0.0004455881968382,0.0012237996319321,0.0,0.0,0.0,0.0,0.0,0.0,0.0,0.0,0.0,-0.0020741419281743,0.0016649918335165,0.000769298660087,0.0,0.0,0.0,0.0,0.0,0.0,0.0,0.0,0.0
2.982,-0.1248633770681804,0.0074380641009798,-0.000929509114864,1.6885527676840928e-05,-0.1141863524283746,0.2184564593313342,0.2170338312933634,-0.0248905744752257,0.0011135744852376,-0.0026945570184364,0.0707265506019161,0.007227243062078,-0.0008287124159877,3.708203035841518e-05,82.0,2.0,922000000.0,odom,base_footprint,0.3273030636017277,-0.0179568375148906,-0.0010045075073573,0.000226452369143,0.0038689133444758,-0.062409149230073,0.998043124479717,"(1e-05, 0.0, 0.0, 0.0, 0.0, 0.0, 0.0, 1e-05, 0.0, 0.0, 0.0, 0.0, 0.0, 0.0, 1000000000000.0, 0.0, 0.0, 0.0, 0.0, 0.0, 0.0, 1000000000000.0, 0.0, 0.0, 0.0, 0.0, 0.0, 0.0, 1000000000000.0, 0.0, 0.0, 0.0, 0.0, 0.0, 0.0, 0.001)",0.2205459070136152,-6.181376937575839e-06,0.0,0.0,0.0,-7.294253118296253e-05,"(0.0, 0.0, 0.0, 0.0, 0.0, 0.0, 0.0, 0.0, 0.0, 0.0, 0.0, 0.0, 0.0, 0.0, 0.0, 0.0, 0.0, 0.0, 0.0, 0.0, 0.0, 0.0, 0.0, 0.0, 0.0, 0.0, 0.0, 0.0, 0.0, 0.0, 0.0, 0.0, 0.0, 0.0, 0.0, 0.0)",0.2199999988079071,0.0,0.0,0.0,0.0,0.0,81,2,982000000,base_footprint,0.0002359105222036,0.0038681007102855,-0.0623906483567762,0.9980442821542248,0.0,0.0,0.0,0.0,0.0,0.0,0.0,0.0,0.0,0.0001726912222634,-0.0001226246403443,0.0020375532121006,0.0,0.0,0.0,0.0,0.0,0.0,0.0,0.0,0.0,-0.006573441681688,0.0006922990362777,-0.0004825984462584,0.0,0.0,0.0,0.0,0.0,0.0,0.0,0.0,0.0
3.016,-0.1246060435829977,0.0074092701238031,-0.000928756620451,0.0002573334851826,-0.1141492703980162,0.2248738292254127,0.2234103600653926,-0.0256134746950053,0.0029504577217064,0.1927138106329866,0.0551616587528153,0.0074396080243083,-0.0008525532372943,9.825024213282464e-05,84.0,2.0,989000000.0,odom,base_footprint,0.3419575338773061,-0.0197931378819414,-0.001004203570874,0.0002363985214341,0.0038676756781905,-0.0623753574378508,0.9980452394481364,"(1e-05, 0.0, 0.0, 0.0, 0.0, 0.0, 0.0, 1e-05, 0.0, 0.0, 0.0, 0.0, 0.0, 0.0, 1000000000000.0, 0.0, 0.0, 0.0, 0.0, 0.0, 0.0, 1000000000000.0, 0.0, 0.0, 0.0, 0.0, 0.0, 0.0, 1000000000000.0, 0.0, 0.0, 0.0, 0.0, 0.0, 0.0, 0.001)",0.2199616266548077,-3.299208886978905e-06,0.0,0.0,0.0,0.0056185131480471,"(0.0, 0.0, 0.0, 0.0, 0.0, 0.0, 0.0, 0.0, 0.0, 0.0, 0.0, 0.0, 0.0, 0.0, 0.0, 0.0, 0.0, 0.0, 0.0, 0.0, 0.0, 0.0, 0.0, 0.0, 0.0, 0.0, 0.0, 0.0, 0.0, 0.0, 0.0, 0.0, 0.0, 0.0, 0.0, 0.0)",0.2199999988079071,0.0,0.0,0.0,0.0,0.0,82,3,16000000,base_footprint,0.0002356118624126,0.0038701712270096,-0.0622622325046689,0.9980522935524264,0.0,0.0,0.0,0.0,0.0,0.0,0.0,0.0,0.0,-0.0001966563712433,0.0003374400108043,0.0053535464217807,0.0,0.0,0.0,0.0,0.0,0.0,0.0,0.0,0.0,-0.0202904670912995,0.0069042437483935,-0.0006996269585262,0.0,0.0,0.0,0.0,0.0,0.0,0.0,0.0,0.0
3.05,-0.1245345224321303,0.007408898578725,-0.0009224299771467,7.152115086740685e-05,-0.1140510201558833,0.2179370354278912,0.2165211484784536,-0.0248020900867107,0.004300893251925,-0.2083121260516972,0.0405536195260828,0.0072102144723223,-0.0008253835880048,0.0001432197452891,84.0,2.0,989000000.0,odom,base_footprint,0.3419575338773061,-0.0197931378819414,-0.001004203570874,0.0002363985214341,0.0038676756781905,-0.0623753574378508,0.9980452394481364,"(1e-05, 0.0, 0.0, 0.0, 0.0, 0.0, 0.0, 1e-05, 0.0, 0.0, 0.0, 0.0, 0.0, 0.0, 1000000000000.0, 0.0, 0.0, 0.0, 0.0, 0.0, 0.0, 1000000000000.0, 0.0, 0.0, 0.0, 0.0, 0.0, 0.0, 1000000000000.0, 0.0, 0.0, 0.0, 0.0, 0.0, 0.0, 0.001)",0.2199616266548077,-3.299208886978905e-06,0.0,0.0,0.0,0.0056185131480471,"(0.0, 0.0, 0.0, 0.0, 0.0, 0.0, 0.0, 0.0, 0.0, 0.0, 0.0, 0.0, 0.0, 0.0, 0.0, 0.0, 0.0, 0.0, 0.0, 0.0, 0.0, 0.0, 0.0, 0.0, 0.0, 0.0, 0.0, 0.0, 0.0, 0.0, 0.0, 0.0, 0.0, 0.0, 0.0, 0.0)",0.2199999988079071,0.0,0.0,0.0,0.0,0.0,83,3,50000000,base_footprint,0.000229866005516,0.0038659144377774,-0.0622265220687377,0.9980545384989782,0.0,0.0,0.0,0.0,0.0,0.0,0.0,0.0,0.0,-0.0006279085744987,-0.0001799486314083,-0.0022893826015485,0.0,0.0,0.0,0.0,0.0,0.0,0.0,0.0,0.0,-0.0074121017776979,0.0076791784862738,0.0013064147713738,0.0,0.0,0.0,0.0,0.0,0.0,0.0,0.0,0.0
3.084,-0.1251277311439398,0.0073590783898797,-0.0009198642015352,-0.0005932087118094,-0.1139078004105942,0.2177345734386548,0.2163235484688641,-0.0247480675680329,0.0042127428866465,-0.0060799396167087,-0.0026471581164707,0.0072036330522475,-0.0008235956910104,0.0001402843381253,86.0,3.0,55000000.0,odom,base_footprint,0.3563329666710957,-0.0215871965832842,-0.0010038810389606,0.0002283045177347,0.0038646694882786,-0.062240932559604,0.9980536451117769,"(1e-05, 0.0, 0.0, 0.0, 0.0, 0.0, 0.0, 1e-05, 0.0, 0.0, 0.0, 0.0, 0.0, 0.0, 1000000000000.0, 0.0, 0.0, 0.0, 0.0, 0.0, 0.0, 1000000000000.0, 0.0, 0.0, 0.0, 0.0, 0.0, 0.0, 1000000000000.0, 0.0, 0.0, 0.0, 0.0, 0.0, 0.0, 0.001)",0.2189276320722818,0.0001632731752947,0.0,0.0,0.0,-0.0065858787180021,"(0.0, 0.0, 0.0, 0.0, 0.0, 0.0, 0.0, 0.0, 0.0, 0.0, 0.0, 0.0, 0.0, 0.0, 0.0, 0.0, 0.0, 0.0, 0.0, 0.0, 0.0, 0.0, 0.0, 0.0, 0.0, 0.0, 0.0, 0.0, 0.0, 0.0, 0.0, 0.0, 0.0, 0.0, 0.0, 0.0)",0.2199999988079071,0.0,0.0,0.0,0.0,0.0,84,3,84000000,base_footprint,0.0002292616695899,0.003863523355642,-0.0625225410748497,0.9980360476876128,0.0,0.0,0.0,0.0,0.0,0.0,0.0,0.0,0.0,-0.000534976329282,-0.0005808521153536,-0.0265411022161248,0.0,0.0,0.0,0.0,0.0,0.0,0.0,0.0,0.0,-0.0512575463746487,0.0053873434813753,0.000864686291706,0.0,0.0,0.0,0.0,0.0,0.0,0.0,0.0,0.0
3.118,-0.1258118996884673,0.0073549584978276,-0.000926122572198,-0.0006841685445275,-0.1137675160724689,0.2242306615313353,0.2227811119339635,-0.0254551711101506,0.0028537772973464,0.1950777205009179,-0.0408097774564582,0.0074186524318052,-0.0008472947275053,9.503078400163736e-05,87.0,3.0,89000000.0,odom,base_footprint,0.3636825866358124,-0.0225072496830401,-0.0010035497179605,0.0002286815174055,0.0038618416919696,-0.0626022242892002,0.9980310593351064,"(1e-05, 0.0, 0.0, 0.0, 0.0, 0.0, 0.0, 1e-05, 0.0, 0.0, 0.0, 0.0, 0.0, 0.0, 1000000000000.0, 0.0, 0.0, 0.0, 0.0, 0.0, 0.0, 1000000000000.0, 0.0, 0.0, 0.0, 0.0, 0.0, 0.0, 1000000000000.0, 0.0, 0.0, 0.0, 0.0, 0.0, 0.0, 0.001)",0.217542596343199,8.571273077307567e-05,0.0,0.0,0.0,-0.0261384030265122,"(0.0, 0.0, 0.0, 0.0, 0.0, 0.0, 0.0, 0.0, 0.0, 0.0, 0.0, 0.0, 0.0, 0.0, 0.0, 0.0, 0.0, 0.0, 0.0, 0.0, 0.0, 0.0, 0.0, 0.0, 0.0, 0.0, 0.0, 0.0, 0.0, 0.0, 0.0, 0.0, 0.0, 0.0, 0.0, 0.0)",0.2199999988079071,0.0,0.0,0.0,0.0,0.0,85,3,118000000,base_footprint,0.0002326230208766,0.0038591223732638,-0.0628639598208531,0.9980146169353836,0.0,0.0,0.0,0.0,0.0,0.0,0.0,0.0,0.0,0.0006947893989716,0.0001896242896129,-0.0074367075543472,0.0,0.0,0.0,0.0,0.0,0.0,0.0,0.0,0.0,0.0413402729457479,-0.0161281490566097,-0.0023376532925962,0.0,0.0,0.0,0.0,0.0,0.0,0.0,0.0,0.0
3.152,-0.1258771611966714,0.0074048360317311,-0.0009357819899586,-6.526150820412858e-05,-0.1136724852884673,0.2175560703021707,0.2161520149545671,-0.0246769154556168,-7.195634333223966e-05,-0.2004381750499874,-0.0878598690894506,0.0071978622179139,-0.0008217402337007,-2.396146232963581e-06,87.0,3.0,89000000.0,odom,base_footprint,0.3636825866358124,-0.0225072496830401,-0.0010035497179605,0.0002286815174055,0.0038618416919696,-0.0626022242892002,0.9980310593351064,"(1e-05, 0.0, 0.0, 0.0, 0.0, 0.0, 0.0, 1e-05, 0.0, 0.0, 0.0, 0.0, 0.0, 0.0, 1000000000000.0, 0.0, 0.0, 0.0, 0.0, 0.0, 0.0, 1000000000000.0, 0.0, 0.0, 0.0, 0.0, 0.0, 0.0, 1000000000000.0, 0.0, 0.0, 0.0, 0.0, 0.0, 0.0, 0.001)",0.217542596343199,8.571273077307567e-05,0.0,0.0,0.0,-0.0261384030265122,"(0.0, 0.0, 0.0, 0.0, 0.0, 0.0, 0.0, 0.0, 0.0, 0.0, 0.0, 0.0, 0.0, 0.0, 0.0, 0.0, 0.0, 0.0, 0.0, 0.0, 0.0, 0.0, 0.0, 0.0, 0.0, 0.0, 0.0, 0.0, 0.0, 0.0, 0.0, 0.0, 0.0, 0.0, 0.0, 0.0)",0.2199999988079071,0.0,0.0,0.0,0.0,0.0551298409700393,86,3,152000000,base_footprint,0.0002345156550613,0.0038600753108911,-0.0628965320586843,0.9980125605802728,0.0,0.0,0.0,0.0,0.0,0.0,0.0,0.0,0.0,-3.367596309471949e-05,-0.0002438825270771,-0.0020796012512742,0.0,0.0,0.0,0.0,0.0,0.0,0.0,0.0,0.0,0.0175350300757468,-0.0042747387640481,0.0014405201872646,0.0,0.0,0.0,0.0,0.0,0.0,0.0,0.0,0.0
3.186,-0.1244185326000387,0.0073937812420445,-0.0009305323745151,0.0014586285966326,-0.1136748814347002,0.2175365928947037,0.2161326041248497,-0.0246752240607262,-0.001741131121269,-0.0005849071311434,-0.050125368706811,0.0071971929974689,-0.0008218839335132,-5.797966633825924e-05,88.0,3.0,122000000.0,odom,base_footprint,0.3708301402665463,-0.0234084008826339,-0.0010034797448896,0.0002342947453896,0.0038612322511866,-0.0628751737157327,0.9980139019681497,"(1e-05, 0.0, 0.0, 0.0, 0.0, 0.0, 0.0, 1e-05, 0.0, 0.0, 0.0, 0.0, 0.0, 0.0, 1000000000000.0, 0.0, 0.0, 0.0, 0.0, 0.0, 0.0, 1000000000000.0, 0.0, 0.0, 0.0, 0.0, 0.0, 0.0, 1000000000000.0, 0.0, 0.0, 0.0, 0.0, 0.0, 0.0, 0.001)",0.2193954447197513,-3.177366242487767e-06,0.0,0.0,0.0,-0.0023060575284954,"(0.0, 0.0, 0.0, 0.0, 0.0, 0.0, 0.0, 0.0, 0.0, 0.0, 0.0, 0.0, 0.0, 0.0, 0.0, 0.0, 0.0, 0.0, 0.0, 0.0, 0.0, 0.0, 0.0, 0.0, 0.0, 0.0, 0.0, 0.0, 0.0, 0.0, 0.0, 0.0, 0.0, 0.0, 0.0, 0.0)",0.2199999988079071,0.0,0.0,0.0,0.0,0.0551298409700393,87,3,186000000,base_footprint,0.0002310897464349,0.0038575740577174,-0.0621686495286255,0.9980581770296286,0.0,0.0,0.0,0.0,0.0,0.0,0.0,0.0,0.0,0.0005628657038168,-7.150326000465733e-05,0.0526169932626236,0.0,0.0,0.0,0.0,0.0,0.0,0.0,0.0,0.0,-0.0075911362447302,0.0115841621041124,-0.0002640961171181,0.0,0.0,0.0,0.0,0.0,0.0,0.0,0.0,0.0
3.22,-0.122636318558764,0.007401135684574,-0.0009183387954579,0.0017822140412747,-0.1137328611010385,0.2243108097946397,0.222861624404787,-0.0254565464740726,0.0532706432662172,0.2034299369350146,1.6520052368614493,0.007422041206238,-0.0008411102180796,0.001773912420765,90.0,3.0,189000000.0,odom,base_footprint,0.3854116346773714,-0.0252458090351591,-0.0010029324246546,0.0002307134591783,0.0038576249460576,-0.0620636230533097,0.9980647134302324,"(1e-05, 0.0, 0.0, 0.0, 0.0, 0.0, 0.0, 1e-05, 0.0, 0.0, 0.0, 0.0, 0.0, 0.0, 1000000000000.0, 0.0, 0.0, 0.0, 0.0, 0.0, 0.0, 1000000000000.0, 0.0, 0.0, 0.0, 0.0, 0.0, 0.0, 1000000000000.0, 0.0, 0.0, 0.0, 0.0, 0.0, 0.0, 0.001)",0.2192868207760588,2.218272409985205e-05,0.0,0.0,0.0,0.052527091188424,"(0.0, 0.0, 0.0, 0.0, 0.0, 0.0, 0.0, 0.0, 0.0, 0.0, 0.0, 0.0, 0.0, 0.0, 0.0, 0.0, 0.0, 0.0, 0.0, 0.0, 0.0, 0.0, 0.0, 0.0, 0.0, 0.0, 0.0, 0.0, 0.0, 0.0, 0.0, 0.0, 0.0, 0.0, 0.0, 0.0)",0.2199999988079071,0.0,0.0,0.0,0.0,0.0551298409700393,88,3,220000000,base_footprint,0.0002268351794798,0.0038565739013384,-0.0612792457625006,0.998113184675127,0.0,0.0,0.0,0.0,0.0,0.0,0.0,0.0,0.0,0.0003273795907194,-0.0003194655994356,0.0522834473442834,0.0,0.0,0.0,0.0,0.0,0.0,0.0,0.0,0.0,0.0077746067959814,0.0091973043995008,0.0004503147354722,0.0,0.0,0.0,0.0,0.0,0.0,0.0,0.0,0.0
3.254,-0.1208599199465417,0.0074090558594648,-0.0009061547027679,0.0017763986122222,-0.1119589486802734,0.2178363656107855,0.2164725228175356,-0.024337811066883,0.0519621850536725,-0.1944277532688942,-0.0392930394157551,0.007209233669948,-0.0008042024051634,0.0017303407622872,90.0,3.0,189000000.0,odom,base_footprint,0.3854116346773714,-0.0252458090351591,-0.0010029324246546,0.0002307134591783,0.0038576249460576,-0.0620636230533097,0.9980647134302324,"(1e-05, 0.0, 0.0, 0.0, 0.0, 0.0, 0.0, 1e-05, 0.0, 0.0, 0.0, 0.0, 0.0, 0.0, 1000000000000.0, 0.0, 0.0, 0.0, 0.0, 0.0, 0.0, 1000000000000.0, 0.0, 0.0, 0.0, 0.0, 0.0, 0.0, 1000000000000.0, 0.0, 0.0, 0.0, 0.0, 0.0, 0.0, 0.001)",0.2192868207760588,2.218272409985205e-05,0.0,0.0,0.0,0.052527091188424,"(0.0, 0.0, 0.0, 0.0, 0.0, 0.0, 0.0, 0.0, 0.0, 0.0, 0.0, 0.0, 0.0, 0.0, 0.0, 0.0, 0.0, 0.0, 0.0, 0.0, 0.0, 0.0, 0.0, 0.0, 0.0, 0.0, 0.0, 0.0, 0.0, 0.0, 0.0, 0.0, 0.0, 0.0, 0.0, 0.0)",0.2084210515022277,7.544947038695682e-06,0.0,0.0,0.0,0.0112463645637035,89,3,254000000,base_footprint,0.0002221489518527,0.0038564937763934,-0.0603926935681001,0.9981672207947851,0.0,0.0,0.0,0.0,0.0,0.0,0.0,0.0,0.0,0.0003201664603653,-0.0001771641365385,0.0521350555704695,0.0,0.0,0.0,0.0,0.0,0.0,0.0,0.0,0.0,0.0082571525954441,0.0097273433991594,-0.0003258210430996,0.0,0.0,0.0,0.0,0.0,0.0,0.0,0.0,0.0
3.2880000000000003,-0.1200799592223037,0.007125352030799,-0.0008609042331803,0.0007799607242379,-0.1102286079179862,0.2180150486553694,0.216691910048083,-0.0239828597109805,0.0518002522125013,0.0053658571947135,-0.0048628480832191,0.007216526888163,-0.0007923956582081,0.0017249483986762,92.0,3.0,255000000.0,odom,base_footprint,0.3997875387488436,-0.0270145609035535,-0.0010027765550197,0.000221860113953,0.0038565675301227,-0.0603406162915509,0.9981703700724298,"(1e-05, 0.0, 0.0, 0.0, 0.0, 0.0, 0.0, 1e-05, 0.0, 0.0, 0.0, 0.0, 0.0, 0.0, 1000000000000.0, 0.0, 0.0, 0.0, 0.0, 0.0, 0.0, 1000000000000.0, 0.0, 0.0, 0.0, 0.0, 0.0, 0.0, 1000000000000.0, 0.0, 0.0, 0.0, 0.0, 0.0, 0.0, 0.001)",0.2196470560374382,5.624465354518021e-06,0.0,0.0,0.0,0.052130641306358,"(0.0, 0.0, 0.0, 0.0, 0.0, 0.0, 0.0, 0.0, 0.0, 0.0, 0.0, 0.0, 0.0, 0.0, 0.0, 0.0, 0.0, 0.0, 0.0, 0.0, 0.0, 0.0, 0.0, 0.0, 0.0, 0.0, 0.0, 0.0, 0.0, 0.0, 0.0, 0.0, 0.0, 0.0, 0.0, 0.0)",0.2084210515022277,7.544947038695682e-06,0.0,0.0,0.0,0.0112463645637035,90,3,288000000,base_footprint,0.0002196793624419,0.0038578905888984,-0.0600034190457074,0.9981906922647632,0.0,0.0,0.0,0.0,0.0,0.0,0.0,0.0,0.0,-0.0001534855818385,-0.0002227772072253,0.0081806958392069,0.0,0.0,0.0,0.0,0.0,0.0,0.0,0.0,0.0,-0.3136984431127546,0.0816986620330488,0.0024137305015248,0.0,0.0,0.0,0.0,0.0,0.0,0.0,0.0,0.0
3.322,-0.1198010107303296,0.0070447380527809,-0.000848988082842,0.000278948491974,-0.1082122003738041,0.2068469951010985,0.2056370996593824,-0.022339709622801,0.0085118868362709,-0.1864562829775639,-0.0072264281019174,0.0068478217549279,-0.0007429326385305,0.0002834458316478,93.0,3.0,289000000.0,odom,base_footprint,0.4068910401657993,-0.0278725288039522,-0.0010029569586466,0.0002195673422024,0.0038578872540157,-0.0599952373274532,0.9981911840895712,"(1e-05, 0.0, 0.0, 0.0, 0.0, 0.0, 0.0, 1e-05, 0.0, 0.0, 0.0, 0.0, 0.0, 0.0, 1000000000000.0, 0.0, 0.0, 0.0, 0.0, 0.0, 0.0, 1000000000000.0, 0.0, 0.0, 0.0, 0.0, 0.0, 0.0, 1000000000000.0, 0.0, 0.0, 0.0, 0.0, 0.0, 0.0, 0.001)",0.2086261972620985,-3.1064028202347493e-06,0.0,0.0,0.0,0.0081518636162005,"(0.0, 0.0, 0.0, 0.0, 0.0, 0.0, 0.0, 0.0, 0.0, 0.0, 0.0, 0.0, 0.0, 0.0, 0.0, 0.0, 0.0, 0.0, 0.0, 0.0, 0.0, 0.0, 0.0, 0.0, 0.0, 0.0, 0.0, 0.0, 0.0, 0.0, 0.0, 0.0, 0.0, 0.0, 0.0, 0.0)",0.2084210515022277,7.544947038695682e-06,0.0,0.0,0.0,0.0112463645637035,91,3,322000000,base_footprint,0.0002181200225653,0.0038599104114483,-0.0598641917050747,0.9981990443126908,0.0,0.0,0.0,0.0,0.0,0.0,0.0,0.0,0.0,-8.595913153220794e-05,8.683028175282304e-06,0.0082217135489635,0.0,0.0,0.0,0.0,0.0,0.0,0.0,0.0,0.0,0.0052743608987227,0.0005476697775109,-0.0003722884265189,0.0,0.0,0.0,0.0,0.0,0.0,0.0,0.0,0.0
3.356,-0.1195150104018284,0.0070498864621273,-0.0008478196281514,0.0002860003285012,-0.1079287545421563,0.2069856931365658,0.2057813144955168,-0.0222963622082566,0.0087171464321996,0.0041651061701896,0.0061639518296908,0.0068526264353235,-0.0007414650631211,0.0002902809761922,94.0,3.0,322000000.0,odom,base_footprint,0.4137288357819274,-0.0286964863081765,-0.0010032362940463,0.0002180723944956,0.0038599895826568,-0.0598600713180326,0.998199291117086,"(1e-05, 0.0, 0.0, 0.0, 0.0, 0.0, 0.0, 1e-05, 0.0, 0.0, 0.0, 0.0, 0.0, 0.0, 1000000000000.0, 0.0, 0.0, 0.0, 0.0, 0.0, 0.0, 1000000000000.0, 0.0, 0.0, 0.0, 0.0, 0.0, 0.0, 1000000000000.0, 0.0, 0.0, 0.0, 0.0, 0.0, 0.0, 0.001)",0.2087895717048525,-2.218079563246628e-06,0.0,0.0,0.0,0.0082265732885039,"(0.0, 0.0, 0.0, 0.0, 0.0, 0.0, 0.0, 0.0, 0.0, 0.0, 0.0, 0.0, 0.0, 0.0, 0.0, 0.0, 0.0, 0.0, 0.0, 0.0, 0.0, 0.0, 0.0, 0.0, 0.0, 0.0, 0.0, 0.0, 0.0, 0.0, 0.0, 0.0, 0.0, 0.0, 0.0, 0.0)",0.2084210515022277,0.0,0.0,0.0,0.0,0.0164317023009061,92,3,356000000,base_footprint,0.0002163963570757,0.0038634231492989,-0.0597214423122418,0.9982075818497532,0.0,0.0,0.0,0.0,0.0,0.0,0.0,0.0,0.0,-7.911401444913128e-05,0.000110468276921,0.0086335888259903,0.0,0.0,0.0,0.0,0.0,0.0,0.0,0.0,0.0,0.0040964467199464,0.0005794674854745,-0.0002511290404386,0.0,0.0,0.0,0.0,0.0,0.0,0.0,0.0,0.0
