Time,header.seq,header.stamp.secs,header.stamp.nsecs,header.frame_id,orientation.x,orientation.y,orientation.z,orientation.w,orientation_covariance_0,orientation_covariance_1,orientation_covariance_2,orientation_covariance_3,orientation_covariance_4,orientation_covariance_5,orientation_covariance_6,orientation_covariance_7,orientation_covariance_8,angular_velocity.x,angular_velocity.y,angular_velocity.z,angular_velocity_covariance_0,angular_velocity_covariance_1,angular_velocity_covariance_2,angular_velocity_covariance_3,angular_velocity_covariance_4,angular_velocity_covariance_5,angular_velocity_covariance_6,angular_velocity_covariance_7,angular_velocity_covariance_8,linear_acceleration.x,linear_acceleration.y,linear_acceleration.z,linear_acceleration_covariance_0,linear_acceleration_covariance_1,linear_acceleration_covariance_2,linear_acceleration_covariance_3,linear_acceleration_covariance_4,linear_acceleration_covariance_5,linear_acceleration_covariance_6,linear_acceleration_covariance_7,linear_acceleration_covariance_8
0.45,0,0,450000000,base_footprint,-0.0002752356823071036,-8.409886321893704e-05,-0.9240702120319244,0.38222265815617834,0.0,0.0,0.0,0.0,0.0,0.0,0.0,0.0,0.0,-0.047639304520728745,-0.00035804838530277897,-0.00029081031430566295,0.0,0.0,0.0,0.0,0.0,0.0,0.0,0.0,0.0,-3.193017481199356e-05,0.00012491803500690586,-0.04753869438072236,0.0,0.0,0.0,0.0,0.0,0.0,0.0,0.0,0.0
0.48300000000000004,1,0,484000000,base_footprint,0.0006672153716820894,0.00031714151142042533,-0.9240714734820397,0.3822190028526077,0.0,0.0,0.0,0.0,0.0,0.0,0.0,0.0,0.0,-0.06780307666027062,-0.0004815651045583687,-0.0003057273767733321,0.0,0.0,0.0,0.0,0.0,0.0,0.0,0.0,0.0,3.254039662846836e-05,-0.001037394385560529,0.0029725973697890653,0.0,0.0,0.0,0.0,0.0,0.0,0.0,0.0,0.0
0.518,2,0,518000000,base_footprint,0.0017298696222355656,0.000768347040296295,-0.924071466926811,0.38221504576043003,0.0,0.0,0.0,0.0,0.0,0.0,0.0,0.0,0.0,-0.06773020704613167,-0.00048141532341657023,-0.00042129146372324233,0.0,0.0,0.0,0.0,0.0,0.0,0.0,0.0,0.0,-6.413580911051801e-05,-0.00022553635450766322,0.00014369524386484577,0.0,0.0,0.0,0.0,0.0,0.0,0.0,0.0,0.0
0.552,3,0,552000000,base_footprint,0.002791327766584947,0.0012190580059485302,-0.9240702994851109,0.38221041848224807,0.0,0.0,0.0,0.0,0.0,0.0,0.0,0.0,0.0,-0.06765305804318845,-0.0004804490417673543,-0.0005434619584750657,0.0,0.0,0.0,0.0,0.0,0.0,0.0,0.0,0.0,-4.982169316477885e-06,-0.00026854008017443377,0.00015012429219839676,0.0,0.0,0.0,0.0,0.0,0.0,0.0,0.0,0.0
0.5860000000000001,4,0,586000000,base_footprint,0.0036392632635041536,0.0015140922563101908,-0.9240696589890284,0.38220377892354657,0.0,0.0,0.0,0.0,0.0,0.0,0.0,0.0,0.0,0.0009272501995393097,0.00029122965398936657,-0.0006670668418595135,0.0,0.0,0.0,0.0,0.0,0.0,0.0,0.0,0.0,-0.021039081741744715,0.007263429391881071,0.12724528397701398,0.0,0.0,0.0,0.0,0.0,0.0,0.0,0.0,0.0
0.62,5,0,620000000,base_footprint,0.003565920936318954,0.0014827142867753977,-0.924072367762319,0.382198044087566,0.0,0.0,0.0,0.0,0.0,0.0,0.0,0.0,0.0,0.0011409240476381146,4.231066949480345e-05,2.8313285098312225e-05,0.0,0.0,0.0,0.0,0.0,0.0,0.0,0.0,0.0,0.020319906265823355,-0.006847323943667427,0.0058621366962697445,0.0,0.0,0.0,0.0,0.0,0.0,0.0,0.0,0.0
0.654,6,0,654000000,base_footprint,0.0035648442470168104,0.0014822694304867377,-0.9240714570334221,0.3822002577955154,0.0,0.0,0.0,0.0,0.0,0.0,0.0,0.0,0.0,0.00017623599992024394,3.0619621409577305e-05,0.00025520430103321044,0.0,0.0,0.0,0.0,0.0,0.0,0.0,0.0,0.0,-0.00044510168359788744,-8.754679426641375e-05,-0.0010899884022137723,0.0,0.0,0.0,0.0,0.0,0.0,0.0,0.0,0.0
0.6880000000000001,7,0,688000000,base_footprint,0.003564735920584792,0.0014822746729311878,-0.9240696668203973,0.38220458707615046,0.0,0.0,0.0,0.0,0.0,0.0,0.0,0.0,0.0,0.00017781811388295837,3.0538581246318625e-05,0.0003176312152053219,0.0,0.0,0.0,0.0,0.0,0.0,0.0,0.0,0.0,-0.00012151116274558319,-1.5860473512327496e-05,-4.92543783381376e-06,0.0,0.0,0.0,0.0,0.0,0.0,0.0,0.0,0.0
0.7220000000000001,8,0,722000000,base_footprint,0.003564697309109174,0.0014822925648948322,-0.924067666032756,0.3822094247066935,0.0,0.0,0.0,0.0,0.0,0.0,0.0,0.0,0.0,0.00017515600783530723,3.083110072415657e-05,0.00033276370709290227,0.0,0.0,0.0,0.0,0.0,0.0,0.0,0.0,0.0,-2.9479911043455303e-05,-3.904474642894762e-06,-4.404517037856418e-06,0.0,0.0,0.0,0.0,0.0,0.0,0.0,0.0,0.0
0.756,9,0,756000000,base_footprint,0.0035646806782125323,0.0014823148661267027,-0.9240656130988165,0.382214388115634,0.0,0.0,0.0,0.0,0.0,0.0,0.0,0.0,0.0,0.00017450508783727785,3.091616931159733e-05,0.00033653540135819657,0.0,0.0,0.0,0.0,0.0,0.0,0.0,0.0,0.0,-7.354109656217143e-06,-9.424793734620119e-07,-9.98162750183196e-07,0.0,0.0,0.0,0.0,0.0,0.0,0.0,0.0,0.0
0.79,10,0,790000000,base_footprint,0.003564669508858331,0.0014823378681752314,-0.9240635471516101,0.38221938285665363,0.0,0.0,0.0,0.0,0.0,0.0,0.0,0.0,0.0,0.0001743455029270467,3.096162941779447e-05,0.0003374819801085792,0.0,0.0,0.0,0.0,0.0,0.0,0.0,0.0,0.0,-1.8436540775514839e-06,-2.519673419544034e-07,-2.5171594072526955e-07,0.0,0.0,0.0,0.0,0.0,0.0,0.0,0.0,0.0
0.8240000000000001,11,0,824000000,base_footprint,0.0035646598106422954,0.0014823607735381555,-0.9240614778953926,0.3822243855077203,0.0,0.0,0.0,0.0,0.0,0.0,0.0,0.0,0.0,0.00017430698516283723,3.099516490685853e-05,0.000337728310923307,0.0,0.0,0.0,0.0,0.0,0.0,0.0,0.0,0.0,-4.777727307337247e-07,-8.076476275180889e-08,-6.824991836103781e-08,0.0,0.0,0.0,0.0,0.0,0.0,0.0,0.0,0.0
0.8580000000000001,12,0,858000000,base_footprint,0.003564650581100471,0.0014823834092368984,-0.9240594077365921,0.3822293902608241,0.0,0.0,0.0,0.0,0.0,0.0,0.0,0.0,0.0,0.0001742985208183213,3.102420226169946e-05,0.00033780098355787715,0.0,0.0,0.0,0.0,0.0,0.0,0.0,0.0,0.0,-1.390152038058346e-07,-3.8267333048425494e-08,-2.3113881977179907e-08,0.0,0.0,0.0,0.0,0.0,0.0,0.0,0.0,0.0
0.892,13,0,892000000,base_footprint,0.003564641562000905,0.0014824057552522384,-0.9240573372719936,0.3822343956756174,0.0,0.0,0.0,0.0,0.0,0.0,0.0,0.0,0.0,0.00017429751035100878,3.105072351834713e-05,0.0003378305887670474,0.0,0.0,0.0,0.0,0.0,0.0,0.0,0.0,0.0,-5.497939135279156e-08,-2.7696402678168493e-08,-1.2276015802443897e-08,0.0,0.0,0.0,0.0,0.0,0.0,0.0,0.0,0.0
0.926,14,0,926000000,base_footprint,0.0035646326805317003,0.0014824278273566052,-0.9240552666495978,0.3822394013948986,0.0,0.0,0.0,0.0,0.0,0.0,0.0,0.0,0.0,0.000174298349925037,3.1075350254146477e-05,0.0003378495120078333,0.0,0.0,0.0,0.0,0.0,0.0,0.0,0.0,0.0,-3.41144874719315e-08,-2.5047296304350016e-08,-9.91008698030915e-09,0.0,0.0,0.0,0.0,0.0,0.0,0.0,0.0,0.0
0.9600000000000001,15,0,960000000,base_footprint,0.003564623910676528,0.0014824496482731752,-0.9240531959061098,0.38224440733007564,0.0,0.0,0.0,0.0,0.0,0.0,0.0,0.0,0.0,0.00017429964978442987,3.109835444491518e-05,0.0003378657847027554,0.0,0.0,0.0,0.0,0.0,0.0,0.0,0.0,0.0,-2.8917554343931417e-08,-2.4365760185738623e-08,-9.615067782341441e-09,0.0,0.0,0.0,0.0,0.0,0.0,0.0,0.0,0.0
0.9940000000000001,16,0,994000000,base_footprint,0.003564615238762724,0.0014824712407021429,-0.9240511250506335,0.3822494134591688,0.0,0.0,0.0,0.0,0.0,0.0,0.0,0.0,0.0,0.00017430106520686296,3.1119910720043526e-05,0.0003378813986966252,0.0,0.0,0.0,0.0,0.0,0.0,0.0,0.0,0.0,-2.7608158367788775e-08,-2.4174665160271967e-08,-9.806695182156565e-09,0.0,0.0,0.0,0.0,0.0,0.0,0.0,0.0,0.0
1.028,17,1,28000000,base_footprint,0.0035646066548487903,0.0014824926257537173,-0.9240490540854279,0.3822544197767196,0.0,0.0,0.0,0.0,0.0,0.0,0.0,0.0,0.0,0.00017430251055748183,3.114015947436971e-05,0.0003378968481603347,0.0,0.0,0.0,0.0,0.0,0.0,0.0,0.0,0.0,-2.726486959677276e-08,-2.4107437592810268e-08,-1.0094304750147436e-08,0.0,0.0,0.0,0.0,0.0,0.0,0.0,0.0,0.0
1.062,18,1,62000000,base_footprint,0.003564598150526651,0.0014825138227065073,-0.9240469830110539,0.38225942628136717,0.0,0.0,0.0,0.0,0.0,0.0,0.0,0.0,0.0,0.00017430396455861272,3.1159223612291326e-05,0.0003379122557757244,0.0,0.0,0.0,0.0,0.0,0.0,0.0,0.0,0.0,-2.716289346404238e-08,-2.4072923222578678e-08,-1.0383808226094288e-08,0.0,0.0,0.0,0.0,0.0,0.0,0.0,0.0,0.0
1.096,19,1,96000000,base_footprint,0.0035645897183201806,0.0014825348490811359,-0.9240449118276501,0.3822644329727679,0.0,0.0,0.0,0.0,0.0,0.0,0.0,0.0,0.0,0.00017430542178853523,3.1177213560893006e-05,0.0003379276520846525,0.0,0.0,0.0,0.0,0.0,0.0,0.0,0.0,0.0,-2.712233037788421e-08,-2.404832252503074e-08,-1.06533951715857e-08,0.0,0.0,0.0,0.0,0.0,0.0,0.0,0.0,0.0
1.13,20,1,130000000,base_footprint,0.0035645813514847535,0.00148255572077944,-0.9240428405352507,0.3822694398508317,0.0,0.0,0.0,0.0,0.0,0.0,0.0,0.0,0.0,0.00017430688076496836,3.119422902942682e-05,0.00033794304483424607,0.0,0.0,0.0,0.0,0.0,0.0,0.0,0.0,0.0,-2.709854298308165e-08,-2.4027835303521123e-08,-1.0899928836086928e-08,0.0,0.0,0.0,0.0,0.0,0.0,0.0,0.0,0.0
1.164,21,1,164000000,base_footprint,0.0035645730439111856,0.0014825764522288902,-0.9240407691338633,0.38227444691553264,0.0,0.0,0.0,0.0,0.0,0.0,0.0,0.0,0.0,0.00017430834109167728,3.121036073291244e-05,0.00033795843605202204,0.0,0.0,0.0,0.0,0.0,0.0,0.0,0.0,0.0,-2.708023043300447e-08,-2.4009837646319407e-08,-1.1123897354343352e-08,0.0,0.0,0.0,0.0,0.0,0.0,0.0,0.0,0.0
1.198,22,1,198000000,base_footprint,0.003564564790059616,0.0014825970565179526,-0.9240386976234882,0.3822794541668608,0.0,0.0,0.0,0.0,0.0,0.0,0.0,0.0,0.0,0.00017430980260984926,3.1225690775833425e-05,0.00033797382638700926,0.0,0.0,0.0,0.0,0.0,0.0,0.0,0.0,0.0,-2.7064556978805524e-08,-2.3993809230900538e-08,-1.1327439694000713e-08,0.0,0.0,0.0,0.0,0.0,0.0,0.0,0.0,0.0
1.232,23,1,232000000,base_footprint,0.003564556584905213,0.0014826175455201456,-0.9240366260041244,0.382284461604812,0.0,0.0,0.0,0.0,0.0,0.0,0.0,0.0,0.0,0.00017431126515266216,3.124029344543547e-05,0.00033798921603292085,0.0,0.0,0.0,0.0,0.0,0.0,0.0,0.0,0.0,-2.705050649420644e-08,-2.397946783076427e-08,-1.1512156850248755e-08,0.0,0.0,0.0,0.0,0.0,0.0,0.0,0.0,0.0
1.266,24,1,266000000,base_footprint,0.00356454842388956,0.0014826379300063959,-0.924034554275769,0.38228946922938317,0.0,0.0,0.0,0.0,0.0,0.0,0.0,0.0,0.0,0.00017431272864883352,3.1254236503640174e-05,0.0003380046051948471,0.0,0.0,0.0,0.0,0.0,0.0,0.0,0.0,0.0,-2.7037992074820426e-08,-2.3966658827711757e-08,-1.167977247123511e-08,0.0,0.0,0.0,0.0,0.0,0.0,0.0,0.0,0.0
1.3,25,1,300000000,base_footprint,0.003564540302877513,0.0014826582197480793,-0.924032482438419,0.38229447704057323,0.0,0.0,0.0,0.0,0.0,0.0,0.0,0.0,0.0,0.00017431419303375395,3.126758112014333e-05,0.0003380199939729707,0.0,0.0,0.0,0.0,0.0,0.0,0.0,0.0,0.0,-2.7026698493684108e-08,-2.395521379881613e-08,-1.1831902465552745e-08,0.0,0.0,0.0,0.0,0.0,0.0,0.0,0.0,0.0
1.334,26,1,334000000,base_footprint,0.003564532218117784,0.0014826784236089483,-0.9240304104920717,0.3822994850383817,0.0,0.0,0.0,0.0,0.0,0.0,0.0,0.0,0.0,0.00017431565820144167,3.1280383044963565e-05,0.00033803538243530905,0.0,0.0,0.0,0.0,0.0,0.0,0.0,0.0,0.0,-2.7016473974075634e-08,-2.3944998204285407e-08,-1.1969960064911972e-08,0.0,0.0,0.0,0.0,0.0,0.0,0.0,0.0,0.0
1.368,27,1,368000000,base_footprint,0.003564524166207327,0.001482698549630097,-0.924028338436723,0.3823044932228084,0.0,0.0,0.0,0.0,0.0,0.0,0.0,0.0,0.0,0.00017431712408989947,3.1292692533476384e-05,0.00033805077074443323,0.0,0.0,0.0,0.0,0.0,0.0,0.0,0.0,0.0,-2.7007408263057016e-08,-2.3935923752556076e-08,-1.209536934166702e-08,0.0,0.0,0.0,0.0,0.0,0.0,0.0,0.0,0.0
1.4020000000000001,28,1,402000000,base_footprint,0.0035645161440590587,0.001482718605105982,-0.9240262662723694,0.3823095015938543,0.0,0.0,0.0,0.0,0.0,0.0,0.0,0.0,0.0,0.0001743185905853699,3.130455543158968e-05,0.0003380661589437415,0.0,0.0,0.0,0.0,0.0,0.0,0.0,0.0,0.0,-2.6999197756326683e-08,-2.3927852489705756e-08,-1.2209271645497487e-08,0.0,0.0,0.0,0.0,0.0,0.0,0.0,0.0,0.0
1.436,29,1,436000000,base_footprint,0.0035645081488722983,0.0014827385966538983,-0.9240241939990065,0.38231451015152057,0.0,0.0,0.0,0.0,0.0,0.0,0.0,0.0,0.0,0.00017432005767757064,3.131601325412137e-05,0.00033808154711439833,0.0,0.0,0.0,0.0,0.0,0.0,0.0,0.0,0.0,-2.6991842989501136e-08,-2.3920700420329026e-08,-1.2312543409604938e-08,0.0,0.0,0.0,0.0,0.0,0.0,0.0,0.0,0.0
1.47,30,1,470000000,base_footprint,0.0035645001781064987,0.001482758530276696,-0.9240221216166299,0.38231951889580956,0.0,0.0,0.0,0.0,0.0,0.0,0.0,0.0,0.0,0.00017432152531179516,3.132710360795562e-05,0.00033809693534331134,0.0,0.0,0.0,0.0,0.0,0.0,0.0,0.0,0.0,-2.6985290117415885e-08,-2.3914382302952313e-08,-1.240623575165705e-08,0.0,0.0,0.0,0.0,0.0,0.0,0.0,0.0,0.0
1.504,31,1,504000000,base_footprint,0.0035595265133644555,0.0014810326921103297,-0.9240336285212553,0.38229175988374203,0.0,0.0,0.0,0.0,0.0,0.0,0.0,0.0,0.0,0.0007382380163511651,8.811751121904016e-05,-0.007908981193876768,0.0,0.0,0.0,0.0,0.0,0.0,0.0,0.0,0.0,0.0001182477358609435,0.35021253120862456,0.0024228379061448264,0.0,0.0,0.0,0.0,0.0,0.0,0.0,0.0,0.0
1.538,32,1,538000000,base_footprint,0.0035604149893511466,0.0014802391106973664,-0.9241431193775177,0.3820269980570352,0.0,0.0,0.0,0.0,0.0,0.0,0.0,0.0,0.0,1.2127125910608146e-05,0.00018166477756998242,-0.025277161574838905,0.0,0.0,0.0,0.0,0.0,0.0,0.0,0.0,0.0,0.002521211340975993,0.7472126652624541,0.0032007492601822565,0.0,0.0,0.0,0.0,0.0,0.0,0.0,0.0,0.0
1.572,33,1,572000000,base_footprint,0.003562027753934429,0.0014785500103109933,-0.9243650388934993,0.38148971246885144,0.0,0.0,0.0,0.0,0.0,0.0,0.0,0.0,0.0,3.699904850327071e-06,0.00027469498598415687,-0.04263546654217718,0.0,0.0,0.0,0.0,0.0,0.0,0.0,0.0,0.0,0.005069987015680122,0.7493789387611955,0.003992911405305177,0.0,0.0,0.0,0.0,0.0,0.0,0.0,0.0,0.0
1.6059999999999999,34,1,606000000,base_footprint,0.0035642150760209685,0.0014758849801486044,-0.9246989203963738,0.38067968786395473,0.0,0.0,0.0,0.0,0.0,0.0,0.0,0.0,0.0,6.862871900035118e-05,0.0003692605684949841,-0.05994304790280014,0.0,0.0,0.0,0.0,0.0,0.0,0.0,0.0,0.0,0.009636422939485523,0.7433873064143912,0.004053527379683815,0.0,0.0,0.0,0.0,0.0,0.0,0.0,0.0,0.0
1.639,35,1,640000000,base_footprint,0.0035674058142042176,0.0014724184179607525,-0.9251430281532528,0.37959910834878047,0.0,0.0,0.0,0.0,0.0,0.0,0.0,0.0,0.0,0.00014325351662097433,0.00046163035447838315,-0.0769352359047033,0.0,0.0,0.0,0.0,0.0,0.0,0.0,0.0,0.0,0.01570792248052927,0.721060897164352,0.003977841704907386,0.0,0.0,0.0,0.0,0.0,0.0,0.0,0.0,0.0
1.674,36,1,674000000,base_footprint,0.003571428716021175,0.001468094438293149,-0.9256929641812921,0.3782560318896447,0.0,0.0,0.0,0.0,0.0,0.0,0.0,0.0,0.0,0.00027744717394732324,0.0005501745960554705,-0.09314205882571444,0.0,0.0,0.0,0.0,0.0,0.0,0.0,0.0,0.0,0.022625073685111186,0.6695992532539105,0.00380218754986649,0.0,0.0,0.0,0.0,0.0,0.0,0.0,0.0,0.0
1.7080000000000002,37,1,708000000,base_footprint,0.003576019475554408,0.001462845115923618,-0.926339898689436,0.37666890535976394,0.0,0.0,0.0,0.0,0.0,0.0,0.0,0.0,0.0,0.00047683892746325056,0.0006316474130163263,-0.10776953583446182,0.0,0.0,0.0,0.0,0.0,0.0,0.0,0.0,0.0,0.02889211651418791,0.5770577910921293,0.00341717040901956,0.0,0.0,0.0,0.0,0.0,0.0,0.0,0.0,0.0
1.742,38,1,742000000,base_footprint,0.003581097630368004,0.00145670631576268,-0.9270703180554888,0.3748675487781868,0.0,0.0,0.0,0.0,0.0,0.0,0.0,0.0,0.0,0.0007342075051937902,0.000700779184789225,-0.12017181030772597,0.0,0.0,0.0,0.0,0.0,0.0,0.0,0.0,0.0,0.032665357773307646,0.43865992258631376,0.0027741055550775193,0.0,0.0,0.0,0.0,0.0,0.0,0.0,0.0,0.0
1.776,39,1,776000000,base_footprint,0.0035857383905195427,0.0014492809615311974,-0.9278683596152602,0.3728878508208274,0.0,0.0,0.0,0.0,0.0,0.0,0.0,0.0,0.0,0.0009913340993023257,0.0007783697629690773,-0.1302695216418862,0.0,0.0,0.0,0.0,0.0,0.0,0.0,0.0,0.0,0.035906202546236166,0.2621484946280459,0.00200617827118008,0.0,0.0,0.0,0.0,0.0,0.0,0.0,0.0,0.0
1.81,40,1,810000000,base_footprint,0.003584232011893728,0.0014406624773081423,-0.928717723153783,0.37076740481407583,0.0,0.0,0.0,0.0,0.0,0.0,0.0,0.0,0.0,0.0013997946278874055,0.00024653802770858703,-0.13774422130717878,0.0,0.0,0.0,0.0,0.0,0.0,0.0,0.0,0.0,0.03436323977892581,0.06000207228206568,0.001029294233394562,0.0,0.0,0.0,0.0,0.0,0.0,0.0,0.0,0.0
1.844,41,1,844000000,base_footprint,0.0035761638271688077,0.001427134583044609,-0.9295959389143693,0.36856012357968876,0.0,0.0,0.0,0.0,0.0,0.0,0.0,0.0,0.0,0.0003607922788725305,0.0005391718393059942,-0.1423985614165976,0.0,0.0,0.0,0.0,0.0,0.0,0.0,0.0,0.0,0.0023399408858561406,-0.019112892700369588,-0.002285499121950385,0.0,0.0,0.0,0.0,0.0,0.0,0.0,0.0,0.0
1.8780000000000001,42,1,878000000,base_footprint,0.00358188715205108,0.0014208073384381534,-0.9305115897980002,0.3662421775854539,0.0,0.0,0.0,0.0,0.0,0.0,0.0,0.0,0.0,0.0009094224758990838,0.0007879431924183915,-0.15076052463996303,0.0,0.0,0.0,0.0,0.0,0.0,0.0,0.0,0.0,0.043330031586435135,0.15199218810896548,0.002131762961023407,0.0,0.0,0.0,0.0,0.0,0.0,0.0,0.0,0.0
1.912,43,1,912000000,base_footprint,0.0035851606771931644,0.0014106817221435346,-0.9314777119622879,0.3637779937235051,0.0,0.0,0.0,0.0,0.0,0.0,0.0,0.0,0.0,0.0015608699921077327,0.0012478337489482132,-0.16028785691101882,0.0,0.0,0.0,0.0,0.0,0.0,0.0,0.0,0.0,0.056566621222619476,0.31255105191008514,0.00330792000457852,0.0,0.0,0.0,0.0,0.0,0.0,0.0,0.0,0.0
1.9460000000000002,44,1,946000000,base_footprint,0.0035950977685387368,0.0014122353504107314,-0.9322933802269093,0.3616823662392642,0.0,0.0,0.0,0.0,0.0,0.0,0.0,0.0,0.0,0.000805532894821638,0.0004187688303505351,-0.07774415371972022,0.0,0.0,0.0,0.0,0.0,0.0,0.0,0.0,0.0,0.0555859293525682,0.3016462580926681,0.001028025322874422,0.0,0.0,0.0,0.0,0.0,0.0,0.0,0.0,0.0
1.98,45,1,980000000,base_footprint,0.0035935295525048676,0.0014093454455755847,-0.9323158986202327,0.3616243430283954,0.0,0.0,0.0,0.0,0.0,0.0,0.0,0.0,0.0,-3.061570843106081e-05,-0.0002609361265853765,0.071255128505165,0.0,0.0,0.0,0.0,0.0,0.0,0.0,0.0,0.0,0.030965944556777897,0.3130188492353876,0.0020352885759523866,0.0,0.0,0.0,0.0,0.0,0.0,0.0,0.0,0.0
2.014,46,2,14000000,base_footprint,0.0035943857094781206,0.0014116750002480278,-0.9318181549060938,0.36290496518023574,0.0,0.0,0.0,0.0,0.0,0.0,0.0,0.0,0.0,-0.00019318442635164323,-0.0003574485225032563,0.07925819285360422,0.0,0.0,0.0,0.0,0.0,0.0,0.0,0.0,0.0,-0.013539569866672096,0.05111741579838827,-1.880160252713349e-05,0.0,0.0,0.0,0.0,0.0,0.0,0.0,0.0,0.0
2.048,47,2,48000000,base_footprint,0.0035919718546953885,0.0014157588258797288,-0.9313288335081786,0.36415889010353386,0.0,0.0,0.0,0.0,0.0,0.0,0.0,0.0,0.0,-0.00024349816860644763,-0.00036036985030389504,0.07909964343648994,0.0,0.0,0.0,0.0,0.0,0.0,0.0,0.0,0.0,-0.016846053530031775,0.00725190347360882,-0.00018452088157799743,0.0,0.0,0.0,0.0,0.0,0.0,0.0,0.0,0.0
2.082,48,2,82000000,base_footprint,0.003590910873944093,0.0014204584004942759,-0.9308389607459354,0.36540924566088206,0.0,0.0,0.0,0.0,0.0,0.0,0.0,0.0,0.0,-0.0003228546260758804,-0.00035790519732192746,0.07889788486076874,0.0,0.0,0.0,0.0,0.0,0.0,0.0,0.0,0.0,-0.016754468694401534,0.007023883066772872,-0.00022667988740483134,0.0,0.0,0.0,0.0,0.0,0.0,0.0,0.0,0.0
2.116,49,2,116000000,base_footprint,0.003592327124524466,0.0014239901942445829,-0.9305488230699288,0.36614745024501755,0.0,0.0,0.0,0.0,0.0,0.0,0.0,0.0,0.0,-0.00015672470539192265,-0.00014247637202467061,0.03802315517292361,0.0,0.0,0.0,0.0,0.0,0.0,0.0,0.0,0.0,-0.009153252003007359,0.01699612483412445,-0.00012371176629308908,0.0,0.0,0.0,0.0,0.0,0.0,0.0,0.0,0.0
2.15,50,2,150000000,base_footprint,0.003595290008242488,0.0014277383562273833,-0.9303128825791849,0.3667464736846837,0.0,0.0,0.0,0.0,0.0,0.0,0.0,0.0,0.0,-0.00029494863462876594,-0.00012539590429893,0.03771317219590597,0.0,0.0,0.0,0.0,0.0,0.0,0.0,0.0,0.0,-0.007996397513360218,0.005668099163412535,-0.00037458764358118033,0.0,0.0,0.0,0.0,0.0,0.0,0.0,0.0,0.0
2.184,51,2,184000000,base_footprint,0.0035987126548343304,0.001432296321229397,-0.9300790235074696,0.3673390910669157,0.0,0.0,0.0,0.0,0.0,0.0,0.0,0.0,0.0,-0.0003142564880608115,-0.00017115991844624052,0.037445856913870895,0.0,0.0,0.0,0.0,0.0,0.0,0.0,0.0,0.0,-0.006873483483111076,0.004174147273843361,-0.00023517811952669158,0.0,0.0,0.0,0.0,0.0,0.0,0.0,0.0,0.0
2.218,52,2,218000000,base_footprint,0.0035984848331168124,0.00143702919933591,-0.92989301907635,0.3678096775875495,0.0,0.0,0.0,0.0,0.0,0.0,0.0,0.0,0.0,-0.0025563969067453358,0.002708546879153179,-0.005310477008853075,0.0,0.0,0.0,0.0,0.0,0.0,0.0,0.0,0.0,-0.025630791898930902,-0.33701655057838914,-0.00627251019691178,0.0,0.0,0.0,0.0,0.0,0.0,0.0,0.0,0.0
2.252,53,2,252000000,base_footprint,0.003600461425032651,0.0014365764281003765,-0.9297473439333053,0.36817774155244254,0.0,0.0,0.0,0.0,0.0,0.0,0.0,0.0,0.0,-6.35224924394803e-05,-3.2083154144471355e-05,0.026071353759867112,0.0,0.0,0.0,0.0,0.0,0.0,0.0,0.0,0.0,-0.0035074738236777823,-0.002464941047074805,0.004661308357344412,0.0,0.0,0.0,0.0,0.0,0.0,0.0,0.0,0.0
2.286,54,2,286000000,base_footprint,0.0035939363144599206,0.0014372079337734314,-0.9295844074463173,0.36858899534278255,0.0,0.0,0.0,0.0,0.0,0.0,0.0,0.0,0.0,0.0004155300737033207,-2.235807608583249e-05,0.021447064170928412,0.0,0.0,0.0,0.0,0.0,0.0,0.0,0.0,0.0,-0.005125065720097993,-0.031271385308980076,0.0007410961367803026,0.0,0.0,0.0,0.0,0.0,0.0,0.0,0.0,0.0
2.32,55,2,320000000,base_footprint,0.00358166122218077,0.0014298384023596277,-0.9294482595658285,0.3689323244920196,0.0,0.0,0.0,0.0,0.0,0.0,0.0,0.0,0.0,0.0002977273877361285,-0.0009326937345222792,0.03170786402423928,0.0,0.0,0.0,0.0,0.0,0.0,0.0,0.0,0.0,-0.021108748130120147,-0.021788221532863014,-0.005242002483351076,0.0,0.0,0.0,0.0,0.0,0.0,0.0,0.0,0.0
2.354,56,2,354000000,base_footprint,0.003572516687352614,0.001426908319094193,-0.9291891289252874,0.36958458266577277,0.0,0.0,0.0,0.0,0.0,0.0,0.0,0.0,0.0,0.0006249078110423408,-0.000988380979629522,0.04989682146921442,0.0,0.0,0.0,0.0,0.0,0.0,0.0,0.0,0.0,0.006349189116963569,0.14626692356733206,0.006348186753447008,0.0,0.0,0.0,0.0,0.0,0.0,0.0,0.0,0.0
2.388,57,2,388000000,base_footprint,0.0035915860067552256,0.0014389156731484383,-0.9289183780143138,0.3702643339816816,0.0,0.0,0.0,0.0,0.0,0.0,0.0,0.0,0.0,-0.0020877749269483338,-0.0013831897140172869,0.018158621717806463,0.0,0.0,0.0,0.0,0.0,0.0,0.0,0.0,0.0,0.004349451524282816,0.21423612125031094,-0.0038640099890131312,0.0,0.0,0.0,0.0,0.0,0.0,0.0,0.0,0.0
2.422,58,2,422000000,base_footprint,0.003591348916798487,0.0014421619995922243,-0.9289667283605862,0.37014299936747913,0.0,0.0,0.0,0.0,0.0,0.0,0.0,0.0,0.0,-0.00011081148795239371,-0.003511476722057513,-0.013429210757129715,0.0,0.0,0.0,0.0,0.0,0.0,0.0,0.0,0.0,-0.015260607007541019,-0.3217780968309469,0.0009578510357389331,0.0,0.0,0.0,0.0,0.0,0.0,0.0,0.0,0.0
2.456,59,2,456000000,base_footprint,0.0035872109374545194,0.0014397740815111032,-0.9288851980427462,0.3703476040497262,0.0,0.0,0.0,0.0,0.0,0.0,0.0,0.0,0.0,0.000265231225334086,4.522078530381303e-06,0.01334803182775023,0.0,0.0,0.0,0.0,0.0,0.0,0.0,0.0,0.0,-0.005092825084689835,-0.009158408545956256,0.0015740730348803528,0.0,0.0,0.0,0.0,0.0,0.0,0.0,0.0,0.0
2.49,60,2,490000000,base_footprint,0.0035802762067095066,0.0014366872682452458,-0.9288026493333581,0.3705546601289911,0.0,0.0,0.0,0.0,0.0,0.0,0.0,0.0,0.0,0.005500025160537953,0.00014288924980237995,0.012737030303968756,0.0,0.0,0.0,0.0,0.0,0.0,0.0,0.0,0.0,-6.22531992022432e-06,0.05340158187482515,0.007253371806377143,0.0,0.0,0.0,0.0,0.0,0.0,0.0,0.0,0.0
2.524,61,2,524000000,base_footprint,0.003584251424678161,0.0014370788274782067,-0.9288986222510857,0.3703139715514435,0.0,0.0,0.0,0.0,0.0,0.0,0.0,0.0,0.0,0.0002432785384357014,0.00025480852316541467,-0.032563487975292134,0.0,0.0,0.0,0.0,0.0,0.0,0.0,0.0,0.0,0.019359235582835144,0.3100345779436187,-0.005643301177359507,0.0,0.0,0.0,0.0,0.0,0.0,0.0,0.0,0.0
2.558,62,2,558000000,base_footprint,0.0035854908911890217,0.0014350020472006773,-0.9291046772382243,0.36979667894432056,0.0,0.0,0.0,0.0,0.0,0.0,0.0,0.0,0.0,0.0003250056650624339,0.00021673394629222675,-0.03297998523299753,0.0,0.0,0.0,0.0,0.0,0.0,0.0,0.0,0.0,0.007505126496960856,0.005099988406575029,6.907243459427179e-05,0.0,0.0,0.0,0.0,0.0,0.0,0.0,0.0,0.0
2.592,63,2,592000000,base_footprint,0.0035881310059882633,0.0014339614220568492,-0.9293109372870941,0.3692780130323311,0.0,0.0,0.0,0.0,0.0,0.0,0.0,0.0,0.0,0.0001649344624953052,-9.57045015106289e-05,-0.028770758425155522,0.0,0.0,0.0,0.0,0.0,0.0,0.0,0.0,0.0,0.007670852989062138,0.0044661255911565174,-0.00024294650340960937,0.0,0.0,0.0,0.0,0.0,0.0,0.0,0.0,0.0
2.626,64,2,626000000,base_footprint,0.003592262419515244,0.0014338007887575164,-0.9294909962757937,0.36882452156579826,0.0,0.0,0.0,0.0,0.0,0.0,0.0,0.0,0.0,8.455655961212523e-05,0.00017470980513424237,-0.02897771510293739,0.0,0.0,0.0,0.0,0.0,0.0,0.0,0.0,0.0,0.0067913579977535166,0.004322731111525698,-0.00010959815286734276,0.0,0.0,0.0,0.0,0.0,0.0,0.0,0.0,0.0
2.66,65,2,660000000,base_footprint,0.003597736005619978,0.0014341565677216026,-0.9296737625442666,0.36836353609900063,0.0,0.0,0.0,0.0,0.0,0.0,0.0,0.0,0.0,0.00011298751654650883,0.00018241967902443923,-0.0293072292003489,0.0,0.0,0.0,0.0,0.0,0.0,0.0,0.0,0.0,0.007348572915254205,0.003113513560049277,-0.00012306156416435908,0.0,0.0,0.0,0.0,0.0,0.0,0.0,0.0,0.0
2.694,66,2,694000000,base_footprint,0.0035887782131891403,0.0014286151350186333,-0.9298561315799908,0.3679030501271053,0.0,0.0,0.0,0.0,0.0,0.0,0.0,0.0,0.0,0.007197549058377532,0.0027699507611942983,-0.026168577079258664,0.0,0.0,0.0,0.0,0.0,0.0,0.0,0.0,0.0,-0.0038671393507728642,-0.07698516038236361,0.006943148780385764,0.0,0.0,0.0,0.0,0.0,0.0,0.0,0.0,0.0
2.728,67,2,728000000,base_footprint,0.003604575961263529,0.001435480179961053,-0.9298104267978765,0.3680183645509327,0.0,0.0,0.0,0.0,0.0,0.0,0.0,0.0,0.0,-0.0014243197581175768,-0.0012164204295864501,0.047274418285046374,0.0,0.0,0.0,0.0,0.0,0.0,0.0,0.0,0.0,-0.007678561048517052,-0.2890348412667803,-0.011289110687827847,0.0,0.0,0.0,0.0,0.0,0.0,0.0,0.0,0.0
2.762,68,2,762000000,base_footprint,0.0035961655053088986,0.0014348905991713751,-0.9295449078557293,0.3686885853428483,0.0,0.0,0.0,0.0,0.0,0.0,0.0,0.0,0.0,0.00034078041844901356,-0.0004177277994278546,0.034102648639016866,0.0,0.0,0.0,0.0,0.0,0.0,0.0,0.0,0.0,-0.010493265076950194,-0.012923410526657152,0.003338129660360663,0.0,0.0,0.0,0.0,0.0,0.0,0.0,0.0,0.0
2.7960000000000003,69,2,796000000,base_footprint,0.0035844370901336096,0.0014314014522051662,-0.9293728880935875,0.36912211770254805,0.0,0.0,0.0,0.0,0.0,0.0,0.0,0.0,0.0,0.0015485602992703895,-0.0028218434178673784,0.031246900049020476,0.0,0.0,0.0,0.0,0.0,0.0,0.0,0.0,0.0,-0.020660682905139244,-0.05355558516151637,0.0009721470302822477,0.0,0.0,0.0,0.0,0.0,0.0,0.0,0.0,0.0
2.83,70,2,830000000,base_footprint,0.0035736069822835505,0.0014253124898753761,-0.92912646402652,0.3697420880330214,0.0,0.0,0.0,0.0,0.0,0.0,0.0,0.0,0.0,0.00038432458192165823,-0.0005042829627751518,0.04647972570908381,0.0,0.0,0.0,0.0,0.0,0.0,0.0,0.0,0.0,0.0015228987589089027,0.11614366417806986,-0.0007761251528819192,0.0,0.0,0.0,0.0,0.0,0.0,0.0,0.0,0.0
2.864,71,2,864000000,base_footprint,0.003590160868036269,0.0014344817370801925,-0.9288117577665354,0.3705317417465429,0.0,0.0,0.0,0.0,0.0,0.0,0.0,0.0,0.0,-0.001346396358357978,-0.001529603139190758,0.037975913594806746,0.0,0.0,0.0,0.0,0.0,0.0,0.0,0.0,0.0,0.006982084496118798,0.242964720389679,-0.0023000132228052574,0.0,0.0,0.0,0.0,0.0,0.0,0.0,0.0,0.0
2.898,72,2,898000000,base_footprint,0.0035860272010372197,0.0014424414724134153,-0.928694576631713,0.37082535391523014,0.0,0.0,0.0,0.0,0.0,0.0,0.0,0.0,0.0,-0.0009177858219081246,0.00039642601741892656,-0.01653393828523858,0.0,0.0,0.0,0.0,0.0,0.0,0.0,0.0,0.0,-0.006230661479658247,0.03330526783259804,0.0013440225151379003,0.0,0.0,0.0,0.0,0.0,0.0,0.0,0.0,0.0
2.932,73,2,932000000,base_footprint,0.0035871332068587373,0.0014407569303263993,-0.9287811668449927,0.37060841977601905,0.0,0.0,0.0,0.0,0.0,0.0,0.0,0.0,0.0,0.00043523263659848744,0.00015217483178075873,-0.013676232016605392,0.0,0.0,0.0,0.0,0.0,0.0,0.0,0.0,0.0,0.00432256451451786,0.0067804034921849585,0.002516472947563898,0.0,0.0,0.0,0.0,0.0,0.0,0.0,0.0,0.0
2.966,74,2,966000000,base_footprint,0.0035850122644774086,0.001437986469497445,-0.9288689455507135,0.3703883932758732,0.0,0.0,0.0,0.0,0.0,0.0,0.0,0.0,0.0,0.00038479350492119017,0.00013989597359265118,-0.014155084654451783,0.0,0.0,0.0,0.0,0.0,0.0,0.0,0.0,0.0,0.003273353448361929,0.005625068533498419,-8.24838825741565e-05,0.0,0.0,0.0,0.0,0.0,0.0,0.0,0.0,0.0
3.0,75,3,0,base_footprint,0.003584364353712576,0.0014363814351087713,-0.9289396043255295,0.3702111568498195,0.0,0.0,0.0,0.0,0.0,0.0,0.0,0.0,0.0,0.0002993906529729094,6.201846314383131e-05,-0.004574988148657252,0.0,0.0,0.0,0.0,0.0,0.0,0.0,0.0,0.0,0.003151322236703428,0.0027885128029477057,-6.359352899245993e-05,0.0,0.0,0.0,0.0,0.0,0.0,0.0,0.0,0.0
3.034,76,3,34000000,base_footprint,0.0035849059917275115,0.0014360650391651959,-0.9289714727767467,0.37013117800752215,0.0,0.0,0.0,0.0,0.0,0.0,0.0,0.0,0.0,0.00016936455431849535,6.870738876447912e-05,-0.00531811675825211,0.0,0.0,0.0,0.0,0.0,0.0,0.0,0.0,0.0,0.0011361463295211948,0.00598160353164995,-0.00020179782088205532,0.0,0.0,0.0,0.0,0.0,0.0,0.0,0.0,0.0
3.068,77,3,68000000,base_footprint,0.0035868567172483773,0.00143653107750378,-0.9290065326894242,0.37004315026457024,0.0,0.0,0.0,0.0,0.0,0.0,0.0,0.0,0.0,7.857033864254699e-05,6.186720284822592e-05,-0.005795715790228525,0.0,0.0,0.0,0.0,0.0,0.0,0.0,0.0,0.0,0.0016539637356349137,0.005586918126549977,-0.000164614256719564,0.0,0.0,0.0,0.0,0.0,0.0,0.0,0.0,0.0
3.102,78,3,102000000,base_footprint,0.0035903121596398374,0.0014393318007571445,-0.9289457524118522,0.3701956605074425,0.0,0.0,0.0,0.0,0.0,0.0,0.0,0.0,0.0,-4.5027627588130865e-05,4.4071503479589345e-05,0.03579690794899034,0.0,0.0,0.0,0.0,0.0,0.0,0.0,0.0,0.0,-6.383738982954253e-06,-0.006353232884326829,0.0001562612482884635,0.0,0.0,0.0,0.0,0.0,0.0,0.0,0.0,0.0
3.136,79,3,136000000,base_footprint,0.003593791825196865,0.00144325191347047,-0.9287257263142159,0.3707472548332134,0.0,0.0,0.0,0.0,0.0,0.0,0.0,0.0,0.0,-0.0002799045995140563,-0.0001829411469384014,0.0346233404339145,0.0,0.0,0.0,0.0,0.0,0.0,0.0,0.0,0.0,-0.008317969168960482,0.004882118090085763,-0.0007439870337071226,0.0,0.0,0.0,0.0,0.0,0.0,0.0,0.0,0.0
3.17,80,3,170000000,base_footprint,0.0035955724767817937,0.0014469595008604675,-0.928509626033708,0.3712880990949085,0.0,0.0,0.0,0.0,0.0,0.0,0.0,0.0,0.0,-0.00024283782180669564,-0.00019111079755870856,0.0343127619326544,0.0,0.0,0.0,0.0,0.0,0.0,0.0,0.0,0.0,-0.005673714623155274,0.00347940690742101,4.69203637330618e-05,0.0,0.0,0.0,0.0,0.0,0.0,0.0,0.0,0.0
3.204,81,3,204000000,base_footprint,0.0035849367993319933,0.0014569682450849806,-0.9282834748481568,0.3718532180787321,0.0,0.0,0.0,0.0,0.0,0.0,0.0,0.0,0.0,0.00026131212661543974,-0.0020261771212651165,0.03758245732865899,0.0,0.0,0.0,0.0,0.0,0.0,0.0,0.0,0.0,-0.01248207263952613,-0.1471649298500532,-0.0004125351500689543,0.0,0.0,0.0,0.0,0.0,0.0,0.0,0.0,0.0
3.238,82,3,238000000,base_footprint,0.0035987022396775084,0.0014471848379424175,-0.9281670549587265,0.3721436188993158,0.0,0.0,0.0,0.0,0.0,0.0,0.0,0.0,0.0,-0.0007358558884102327,-9.8974682443215e-05,0.017290299754704648,0.0,0.0,0.0,0.0,0.0,0.0,0.0,0.0,0.0,-0.0073907528802102315,-0.13606360678371462,-0.0026417217693436804,0.0,0.0,0.0,0.0,0.0,0.0,0.0,0.0,0.0
3.2720000000000002,83,3,272000000,base_footprint,0.0035940192509640013,0.0014540620846819562,-0.9280398306044458,0.37246079195097725,0.0,0.0,0.0,0.0,0.0,0.0,0.0,0.0,0.0,0.0003552506517585023,-0.00017520754852963115,0.014324075061787423,0.0,0.0,0.0,0.0,0.0,0.0,0.0,0.0,0.0,-0.017585085267287946,-0.08627463051340055,0.0017168903920269903,0.0,0.0,0.0,0.0,0.0,0.0,0.0,0.0,0.0
3.306,84,3,306000000,base_footprint,0.003574716414516708,0.0014478867553141418,-0.9278622726311408,0.3729031081316891,0.0,0.0,0.0,0.0,0.0,0.0,0.0,0.0,0.0,0.00034587216439141053,7.770930891004386e-05,0.040073896051399625,0.0,0.0,0.0,0.0,0.0,0.0,0.0,0.0,0.0,-0.006207317690777911,0.07314801226522227,0.0013351774572156543,0.0,0.0,0.0,0.0,0.0,0.0,0.0,0.0,0.0
3.34,85,3,340000000,base_footprint,0.003584351282094578,0.0014583280806447587,-0.9275278727595602,0.37373395746067956,0.0,0.0,0.0,0.0,0.0,0.0,0.0,0.0,0.0,-0.003784865308068156,0.0009484982078669607,0.06517485882884205,0.0,0.0,0.0,0.0,0.0,0.0,0.0,0.0,0.0,0.008228717420203563,0.25005699401781134,-0.005531099659626369,0.0,0.0,0.0,0.0,0.0,0.0,0.0,0.0,0.0
3.374,86,3,374000000,base_footprint,0.0035834557977549655,0.0014606942574278978,-0.9270972670989364,0.37480085719554523,0.0,0.0,0.0,0.0,0.0,0.0,0.0,0.0,0.0,-3.621618751122689e-05,-0.00047497444335700185,0.06808555994616872,0.0,0.0,0.0,0.0,0.0,0.0,0.0,0.0,0.0,-0.01979817155010635,0.00012686612500777388,0.005843134724880796,0.0,0.0,0.0,0.0,0.0,0.0,0.0,0.0,0.0
3.408,87,3,408000000,base_footprint,0.0035783424962239773,0.0014618950818372641,-0.9267705317982915,0.37560809325420774,0.0,0.0,0.0,0.0,0.0,0.0,0.0,0.0,0.0,0.0006187068250279071,-6.912143861269202e-05,0.0380202334700497,0.0,0.0,0.0,0.0,0.0,0.0,0.0,0.0,0.0,-0.01092781348345788,0.013211411548766129,0.0008813798447311052,0.0,0.0,0.0,0.0,0.0,0.0,0.0,0.0,0.0
3.442,88,3,442000000,base_footprint,0.003575083504987366,0.0014620959426920991,-0.9265279787179378,0.37620604155999327,0.0,0.0,0.0,0.0,0.0,0.0,0.0,0.0,0.0,9.37981527396565e-05,-0.00012264761591719825,0.03783652964161053,0.0,0.0,0.0,0.0,0.0,0.0,0.0,0.0,0.0,-0.007868605072663314,0.005891187087038926,-0.0007302124972437343,0.0,0.0,0.0,0.0,0.0,0.0,0.0,0.0,0.0
3.476,89,3,476000000,base_footprint,0.003573306374852263,0.0014632419279379217,-0.9262869685517158,0.3767990741706842,0.0,0.0,0.0,0.0,0.0,0.0,0.0,0.0,0.0,1.3548619727548928e-05,-0.00012963777972318873,0.037511586020190016,0.0,0.0,0.0,0.0,0.0,0.0,0.0,0.0,0.0,-0.008083802375821802,0.005981669800669745,-0.00017516169730481465,0.0,0.0,0.0,0.0,0.0,0.0,0.0,0.0,0.0
3.51,90,3,510000000,base_footprint,0.003573803499120175,0.0014638097840253528,-0.9262052610396592,0.3769998668592907,0.0,0.0,0.0,0.0,0.0,0.0,0.0,0.0,0.0,0.0001389575708781061,8.395239543763862e-05,-0.0026520109684017032,0.0,0.0,0.0,0.0,0.0,0.0,0.0,0.0,0.0,-0.0028355649587835222,0.01646788977988187,-0.00012146389283003328,0.0,0.0,0.0,0.0,0.0,0.0,0.0,0.0,0.0
3.544,91,3,544000000,base_footprint,0.0035756933623445303,0.0014640085775425777,-0.9262231684165939,0.37695585070958815,0.0,0.0,0.0,0.0,0.0,0.0,0.0,0.0,0.0,6.458775275282781e-05,7.56730119083724e-05,-0.002975452292422164,0.0,0.0,0.0,0.0,0.0,0.0,0.0,0.0,0.0,0.0009552327792442393,0.0054606131991924,-0.00013674840590098634,0.0,0.0,0.0,0.0,0.0,0.0,0.0,0.0,0.0
3.5780000000000003,92,3,578000000,base_footprint,0.003579347919012515,0.0014651008611012099,-0.926243790648278,0.3769051366503918,0.0,0.0,0.0,0.0,0.0,0.0,0.0,0.0,0.0,-5.3789709120422615e-05,7.303382342458334e-05,-0.003433394658461213,0.0,0.0,0.0,0.0,0.0,0.0,0.0,0.0,0.0,0.0010154010074313118,0.005237502208146508,-0.00023374504665315908,0.0,0.0,0.0,0.0,0.0,0.0,0.0,0.0,0.0
3.612,93,3,612000000,base_footprint,0.00358466372563936,0.0014660651185376126,-0.9264136545333365,0.37648737234232765,0.0,0.0,0.0,0.0,0.0,0.0,0.0,0.0,0.0,-6.264380145841637e-06,0.00020594486125126535,-0.037612830071117945,0.0,0.0,0.0,0.0,0.0,0.0,0.0,0.0,0.0,0.006182268627204251,0.012155977076742836,-0.0003918971355433001,0.0,0.0,0.0,0.0,0.0,0.0,0.0,0.0,0.0
3.646,94,3,646000000,base_footprint,0.003588315039082586,0.001464527212414396,-0.9266563056973136,0.37588970492237683,0.0,0.0,0.0,0.0,0.0,0.0,0.0,0.0,0.0,0.00016966515595437517,0.0002111284547793074,-0.038352753506979295,0.0,0.0,0.0,0.0,0.0,0.0,0.0,0.0,0.0,0.008872972174251967,-0.001324666685864824,0.00034172172536200355,0.0,0.0,0.0,0.0,0.0,0.0,0.0,0.0,0.0
3.68,95,3,680000000,base_footprint,0.0035903855223694183,0.0014630459536121858,-0.9269025073297715,0.3752821745488603,0.0,0.0,0.0,0.0,0.0,0.0,0.0,0.0,0.0,0.000345951761687859,0.00018363867186020603,-0.038938468231132714,0.0,0.0,0.0,0.0,0.0,0.0,0.0,0.0,0.0,0.009638303839891699,-0.008569613809975464,0.0003273551862819531,0.0,0.0,0.0,0.0,0.0,0.0,0.0,0.0,0.0
3.714,96,3,714000000,base_footprint,0.0035892378449864726,0.0014450531109006426,-0.9270668022257802,0.37487621077372335,0.0,0.0,0.0,0.0,0.0,0.0,0.0,0.0,0.0,-0.0010952368179023182,-0.0002618588351710006,-0.009581141210603519,0.0,0.0,0.0,0.0,0.0,0.0,0.0,0.0,0.0,-0.0014137850576041028,-0.14298009423521446,-0.002873830212830896,0.0,0.0,0.0,0.0,0.0,0.0,0.0,0.0,0.0
3.748,97,3,748000000,base_footprint,0.003592952742453913,0.001464930428423332,-0.9270875850907309,0.3748246980123739,0.0,0.0,0.0,0.0,0.0,0.0,0.0,0.0,0.0,0.0005102963404371524,9.594320890613152e-05,0.00011504608385299801,0.0,0.0,0.0,0.0,0.0,0.0,0.0,0.0,0.0,-0.0028958357428019166,-0.08596711684125313,0.0028473230052494876,0.0,0.0,0.0,0.0,0.0,0.0,0.0,0.0,0.0
3.782,98,3,782000000,base_footprint,0.0035861661683882066,0.0014587990403386161,-0.9268870498723286,0.37532040724765275,0.0,0.0,0.0,0.0,0.0,0.0,0.0,0.0,0.0,0.00013964059823863648,0.00047719033796439264,0.06519949989705191,0.0,0.0,0.0,0.0,0.0,0.0,0.0,0.0,0.0,-0.012703120034104759,-0.15381220585236474,-0.000568568443092278,0.0,0.0,0.0,0.0,0.0,0.0,0.0,0.0,0.0
3.816,99,3,816000000,base_footprint,0.0035856433791674473,0.0014672958160276217,-0.9265776150627606,0.3760836522226836,0.0,0.0,0.0,0.0,0.0,0.0,0.0,0.0,0.0,0.0006885306992671943,-0.00011758364247512699,0.03610039683008799,0.0,0.0,0.0,0.0,0.0,0.0,0.0,0.0,0.0,-0.011554619637823015,-0.001150140213450803,-0.0002514143288747189,0.0,0.0,0.0,0.0,0.0,0.0,0.0,0.0,0.0
3.85,100,3,850000000,base_footprint,0.0035811398553325744,0.0014675592778731696,-0.926336301112604,0.37667768575815797,0.0,0.0,0.0,0.0,0.0,0.0,0.0,0.0,0.0,7.589593723265331e-05,-0.0002944716437203658,0.037869825993101,0.0,0.0,0.0,0.0,0.0,0.0,0.0,0.0,0.0,-0.004469061461678541,-0.0024449317032254492,-0.0009386284761417034,0.0,0.0,0.0,0.0,0.0,0.0,0.0,0.0,0.0
3.884,101,3,884000000,base_footprint,0.0035766783477130257,0.0014686833466095442,-0.9260927166716192,0.3772761991817195,0.0,0.0,0.0,0.0,0.0,0.0,0.0,0.0,0.0,0.00022511093495106437,-0.0001182914793367027,0.03808749767938157,0.0,0.0,0.0,0.0,0.0,0.0,0.0,0.0,0.0,-0.007423102060859119,0.004194033302953383,0.0003962829925028877,0.0,0.0,0.0,0.0,0.0,0.0,0.0,0.0,0.0
3.918,102,3,918000000,base_footprint,0.003573341635025535,0.001470160588019678,-0.9257337221808735,0.3781562447911583,0.0,0.0,0.0,0.0,0.0,0.0,0.0,0.0,0.0,0.0005259234965467171,-0.0003184615368132438,0.08047276140714033,0.0,0.0,0.0,0.0,0.0,0.0,0.0,0.0,0.0,-0.004112111757588924,0.33736785843227174,0.0025713729788236373,0.0,0.0,0.0,0.0,0.0,0.0,0.0,0.0,0.0
3.952,103,3,952000000,base_footprint,0.003569279141356043,0.0014730202820684957,-0.9252159829731617,0.3794212372926247,0.0,0.0,0.0,0.0,0.0,0.0,0.0,0.0,0.0,-0.00020325597874996078,-0.00035326136092654907,0.08026640974807332,0.0,0.0,0.0,0.0,0.0,0.0,0.0,0.0,0.0,-0.018111451465021747,0.003676937702450091,-0.001196648222987379,0.0,0.0,0.0,0.0,0.0,0.0,0.0,0.0,0.0
3.986,104,3,986000000,base_footprint,0.003567602494740671,0.0014772640228506717,-0.9246986919319762,0.3806802057406433,0.0,0.0,0.0,0.0,0.0,0.0,0.0,0.0,0.0,-0.0002828310925992345,-0.00035697386831243824,0.07991651806176367,0.0,0.0,0.0,0.0,0.0,0.0,0.0,0.0,0.0,-0.017442142932857972,0.005956607987501154,-0.0002301844239452516,0.0,0.0,0.0,0.0,0.0,0.0,0.0,0.0,0.0
4.02,105,4,20000000,base_footprint,0.00356783836005592,0.0014824929523424657,-0.9244197006026055,0.3813571683892569,0.0,0.0,0.0,0.0,0.0,0.0,0.0,0.0,0.0,0.0007154106642245686,1.337754443487578e-05,-0.04672366719883038,0.0,0.0,0.0,0.0,0.0,0.0,0.0,0.0,0.0,-0.015003338157983659,-0.6141397658376583,-0.0033081925763516597,0.0,0.0,0.0,0.0,0.0,0.0,0.0,0.0,0.0
4.054,106,4,54000000,base_footprint,0.003568360071998856,0.0014821770044260551,-0.924279271984591,0.3816973897439683,0.0,0.0,0.0,0.0,0.0,0.0,0.0,0.0,0.0,-0.0016883715331476872,0.00028917181460927854,0.07270893847366086,0.0,0.0,0.0,0.0,0.0,0.0,0.0,0.0,0.0,-0.0003357659149258313,0.2884055475343419,-0.0006775170234286062,0.0,0.0,0.0,0.0,0.0,0.0,0.0,0.0,0.0
4.088,107,4,88000000,base_footprint,0.0035725954498180817,0.0014882888302564764,-0.9238121232135449,0.38282656982214797,0.0,0.0,0.0,0.0,0.0,0.0,0.0,0.0,0.0,-0.0004653962982004091,-0.00031191587803861795,0.07150299274730058,0.0,0.0,0.0,0.0,0.0,0.0,0.0,0.0,0.0,-0.015091028836080086,0.0018178274207846937,0.001447558014053039,0.0,0.0,0.0,0.0,0.0,0.0,0.0,0.0,0.0
4.122,108,4,122000000,base_footprint,0.0035730796875859025,0.0014902705996822161,-0.9236119353799154,0.38330928115407426,0.0,0.0,0.0,0.0,0.0,0.0,0.0,0.0,0.0,-0.0016271908723397975,-0.00041757307601732955,-0.002487455510560411,0.0,0.0,0.0,0.0,0.0,0.0,0.0,0.0,0.0,-0.008787091574858893,0.3665334622403744,-0.0007274842867320545,0.0,0.0,0.0,0.0,0.0,0.0,0.0,0.0,0.0
4.156,109,4,156000000,base_footprint,0.0035771209749928656,0.0014928786190782598,-0.923628718584696,0.3832687904389709,0.0,0.0,0.0,0.0,0.0,0.0,0.0,0.0,0.0,8.645012129377917e-05,-9.730183489187098e-06,-0.0030806476222075612,0.0,0.0,0.0,0.0,0.0,0.0,0.0,0.0,0.0,0.0025588169608568023,-0.011454553996425207,0.00275335754100672,0.0,0.0,0.0,0.0,0.0,0.0,0.0,0.0,0.0
4.19,110,4,190000000,base_footprint,0.0035740734809757697,0.0014945895980491965,-0.9236629887416816,0.38318621508278483,0.0,0.0,0.0,0.0,0.0,0.0,0.0,0.0,0.0,0.0002595234210047285,-0.0009608461816021757,-0.011318896827935111,0.0,0.0,0.0,0.0,0.0,0.0,0.0,0.0,0.0,0.0012916845089564026,-0.018526130301493898,-0.00043845758031502776,0.0,0.0,0.0,0.0,0.0,0.0,0.0,0.0,0.0
4.224,111,4,224000000,base_footprint,0.003573121918244326,0.0014884220629775868,-0.9239204006564855,0.3825651717685228,0.0,0.0,0.0,0.0,0.0,0.0,0.0,0.0,0.0,0.000719357811449271,0.0010131880046593514,-0.0474475444041639,0.0,0.0,0.0,0.0,0.0,0.0,0.0,0.0,0.0,0.006274528861869522,-0.017604121413123456,0.0004666235240460907,0.0,0.0,0.0,0.0,0.0,0.0,0.0,0.0,0.0
4.258,112,4,258000000,base_footprint,0.003577426468882484,0.0014869253295518477,-0.9240846610805911,0.38216819625459875,0.0,0.0,0.0,0.0,0.0,0.0,0.0,0.0,0.0,0.0002955499069982427,-0.000798259847243202,-0.017966045988695657,0.0,0.0,0.0,0.0,0.0,0.0,0.0,0.0,0.0,0.004457298251872428,-0.02119017842651579,-0.0003431101771650138,0.0,0.0,0.0,0.0,0.0,0.0,0.0,0.0,0.0
4.292,113,4,292000000,base_footprint,0.003574926764554562,0.0014912788785088789,-0.924244177342852,0.3817822633828992,0.0,0.0,0.0,0.0,0.0,0.0,0.0,0.0,0.0,0.0010416879109876821,0.0003694207986048243,-0.0032225992619664572,0.0,0.0,0.0,0.0,0.0,0.0,0.0,0.0,0.0,0.001987841783000233,0.028895275073629573,0.0008947317686463189,0.0,0.0,0.0,0.0,0.0,0.0,0.0,0.0,0.0
4.326,114,4,326000000,base_footprint,0.0035733782929527453,0.0014868604353985803,-0.9241809452958645,0.381935335581383,0.0,0.0,0.0,0.0,0.0,0.0,0.0,0.0,0.0,0.00032949901586350476,-9.479624636571488e-05,0.009043104002769314,0.0,0.0,0.0,0.0,0.0,0.0,0.0,0.0,0.0,0.0021559371159405485,-0.00552921012509282,8.454324544572071e-05,0.0,0.0,0.0,0.0,0.0,0.0,0.0,0.0,0.0
4.36,115,4,360000000,base_footprint,0.0035698743393499347,0.0014866348168895984,-0.9241221214252314,0.38207767614276084,0.0,0.0,0.0,0.0,0.0,0.0,0.0,0.0,0.0,0.00021850159369332246,-0.0001575877393861121,0.009177812239262702,0.0,0.0,0.0,0.0,0.0,0.0,0.0,0.0,0.0,-0.0016557238562444892,0.004449225478454432,-0.00018926400388652722,0.0,0.0,0.0,0.0,0.0,0.0,0.0,0.0,0.0
4.394,116,4,394000000,base_footprint,0.003567013910425482,0.0014846064982583578,-0.924056969302616,0.3822352545731128,0.0,0.0,0.0,0.0,0.0,0.0,0.0,0.0,0.0,0.0003157121317496666,0.0002939761621669568,0.01614833809299284,0.0,0.0,0.0,0.0,0.0,0.0,0.0,0.0,0.0,-0.0020695480587321863,0.0037719447392580837,0.000499645129295605,0.0,0.0,0.0,0.0,0.0,0.0,0.0,0.0,0.0
4.428,117,4,428000000,base_footprint,0.003565132058143511,0.0014842172164744132,-0.9239550828580422,0.38248149209269067,0.0,0.0,0.0,0.0,0.0,0.0,0.0,0.0,0.0,0.00016101496332168567,2.766591214844334e-06,0.015407337545998595,0.0,0.0,0.0,0.0,0.0,0.0,0.0,0.0,0.0,-0.003292520270840411,0.005475068247755185,-0.0003577261635358038,0.0,0.0,0.0,0.0,0.0,0.0,0.0,0.0,0.0
4.462,118,4,462000000,base_footprint,0.003564913722782756,0.0014844830453940722,-0.9238566196249465,0.38271926274412166,0.0,0.0,0.0,0.0,0.0,0.0,0.0,0.0,0.0,8.130001136924468e-05,-6.565007263325711e-06,0.014935174452697032,0.0,0.0,0.0,0.0,0.0,0.0,0.0,0.0,0.0,-0.0032694024010756135,0.005787257787198498,-0.00015459264178389182,0.0,0.0,0.0,0.0,0.0,0.0,0.0,0.0,0.0
4.496,119,4,496000000,base_footprint,0.003566459624381282,0.0014839538802971656,-0.9238126756733759,0.3828253106990535,0.0,0.0,0.0,0.0,0.0,0.0,0.0,0.0,0.0,-0.00022489465807429737,-0.0002861698977781169,-0.026355929479213877,0.0,0.0,0.0,0.0,0.0,0.0,0.0,0.0,0.0,-0.0017888403596467472,0.015772006972420708,-0.0005623270006560753,0.0,0.0,0.0,0.0,0.0,0.0,0.0,0.0,0.0
4.53,120,4,530000000,base_footprint,0.003570164616357969,0.0014845824164500148,-0.9239797604725198,0.382421824922174,0.0,0.0,0.0,0.0,0.0,0.0,0.0,0.0,0.0,0.00010050606167230561,0.0002002053017693412,-0.025713830796706173,0.0,0.0,0.0,0.0,0.0,0.0,0.0,0.0,0.0,0.005777484823963312,0.005749734152724218,0.0002613343859426937,0.0,0.0,0.0,0.0,0.0,0.0,0.0,0.0,0.0
4.564,121,4,564000000,base_footprint,0.0035753527190238114,0.0014851933581245015,-0.9241492411350559,0.38201203012879587,0.0,0.0,0.0,0.0,0.0,0.0,0.0,0.0,0.0,3.058854371932737e-05,0.0001875211518609035,-0.026502486268233084,0.0,0.0,0.0,0.0,0.0,0.0,0.0,0.0,0.0,0.006080930702587779,0.004307564887828288,-0.00022311850924345235,0.0,0.0,0.0,0.0,0.0,0.0,0.0,0.0,0.0
4.598,122,4,598000000,base_footprint,0.003579972996216814,0.001482547707279061,-0.9243658740365571,0.3814875053815966,0.0,0.0,0.0,0.0,0.0,0.0,0.0,0.0,0.0,-0.00020523858109933627,0.000542748152329395,-0.056887129696610125,0.0,0.0,0.0,0.0,0.0,0.0,0.0,0.0,0.0,0.008121452445011898,0.005415485255182969,-0.0003794689660482488,0.0,0.0,0.0,0.0,0.0,0.0,0.0,0.0,0.0
4.632,123,4,632000000,base_footprint,0.0035821039130398257,0.0014826394888245915,-0.9247105046778727,0.3806513534063639,0.0,0.0,0.0,0.0,0.0,0.0,0.0,0.0,0.0,0.0004013996696716215,0.00024363195140589928,-0.0535080362825436,0.0,0.0,0.0,0.0,0.0,0.0,0.0,0.0,0.0,0.01219159549706631,-0.005464766632908553,0.0007593303041112247,0.0,0.0,0.0,0.0,0.0,0.0,0.0,0.0,0.0
4.666,124,4,666000000,base_footprint,0.0035787192391148665,0.0014808525325079825,-0.9250717120820953,0.3797727311825925,0.0,0.0,0.0,0.0,0.0,0.0,0.0,0.0,0.0,0.0008140149876475914,-3.3577574820468914e-05,-0.06102516113174536,0.0,0.0,0.0,0.0,0.0,0.0,0.0,0.0,0.0,0.010071482515745155,-0.02455811540663772,0.0005758447087156574,0.0,0.0,0.0,0.0,0.0,0.0,0.0,0.0,0.0
4.7,125,4,700000000,base_footprint,0.0035722414850351096,0.0014772574399684606,-0.9255115345742553,0.3786996912742809,0.0,0.0,0.0,0.0,0.0,0.0,0.0,0.0,0.0,-0.00017828451188779698,0.00033688786658239646,-0.05931308847528145,0.0,0.0,0.0,0.0,0.0,0.0,0.0,0.0,0.0,0.0020048772245576194,-0.04639980000324044,-0.0014415965971595523,0.0,0.0,0.0,0.0,0.0,0.0,0.0,0.0,0.0
4.734,126,4,734000000,base_footprint,0.003580763834776279,0.0014691888703898274,-0.9256073305335819,0.3784654400033367,0.0,0.0,0.0,0.0,0.0,0.0,0.0,0.0,0.0,-0.002162118587022214,0.000929270195266411,0.03363793193958824,0.0,0.0,0.0,0.0,0.0,0.0,0.0,0.0,0.0,0.019894496432940233,-0.015363231699395203,-0.0030689191372177387,0.0,0.0,0.0,0.0,0.0,0.0,0.0,0.0,0.0
4.768,127,4,768000000,base_footprint,0.0035818341818656197,0.001475288045084913,-0.9254723168862162,0.3787954390780553,0.0,0.0,0.0,0.0,0.0,0.0,0.0,0.0,0.0,0.00036298829095702997,8.83632443231445e-06,0.019685349484553742,0.0,0.0,0.0,0.0,0.0,0.0,0.0,0.0,0.0,-0.010112332174923428,0.03472031267562558,0.004467411094185812,0.0,0.0,0.0,0.0,0.0,0.0,0.0,0.0,0.0
4.802,128,4,802000000,base_footprint,0.003578453333872242,0.0014743276640807165,-0.9253748128576256,0.3790336090090043,0.0,0.0,0.0,0.0,0.0,0.0,0.0,0.0,0.0,-0.0016298146126073494,0.00023975837235237893,0.0004948733649046935,0.0,0.0,0.0,0.0,0.0,0.0,0.0,0.0,0.0,-0.005554257473176241,-0.2968101742167095,-0.003980907482773611,0.0,0.0,0.0,0.0,0.0,0.0,0.0,0.0,0.0
4.835,129,4,836000000,base_footprint,0.0035636034322842924,0.0014640849461427313,-0.9254648109154161,0.3788139925387406,0.0,0.0,0.0,0.0,0.0,0.0,0.0,0.0,0.0,0.0033605417114561304,0.0007007748878553876,-0.012385720890771796,0.0,0.0,0.0,0.0,0.0,0.0,0.0,0.0,0.0,-0.002663881655011871,-0.19288979628965316,0.005046856208534495,0.0,0.0,0.0,0.0,0.0,0.0,0.0,0.0,0.0
4.869,130,4,870000000,base_footprint,0.0035722048190386458,0.0014724127114279855,-0.9253570411755078,0.37907706037222544,0.0,0.0,0.0,0.0,0.0,0.0,0.0,0.0,0.0,0.00011637404777045068,-5.4668310166835364e-05,0.02555188635350359,0.0,0.0,0.0,0.0,0.0,0.0,0.0,0.0,0.0,0.001155484151981051,0.16017581197024605,-0.002880522405514995,0.0,0.0,0.0,0.0,0.0,0.0,0.0,0.0,0.0
4.904,131,4,904000000,base_footprint,0.0035678139650315655,0.0014727295670815643,-0.9251763659826939,0.379517843583394,0.0,0.0,0.0,0.0,0.0,0.0,0.0,0.0,0.0,-0.000704307719824744,-0.00012192881256635683,0.05160569319508322,0.0,0.0,0.0,0.0,0.0,0.0,0.0,0.0,0.0,-0.004107920340568547,0.2909941081800629,0.0006755562130169035,0.0,0.0,0.0,0.0,0.0,0.0,0.0,0.0,0.0
4.938,132,4,938000000,base_footprint,0.003568076839291414,0.001475910596791007,-0.9247312854589046,0.3806010249711649,0.0,0.0,0.0,0.0,0.0,0.0,0.0,0.0,0.0,-0.000230728934625924,-0.0003080949643397956,0.06954461251166721,0.0,0.0,0.0,0.0,0.0,0.0,0.0,0.0,0.0,-0.011834534104035097,0.049110969772645084,0.0008214379406952765,0.0,0.0,0.0,0.0,0.0,0.0,0.0,0.0,0.0
4.972,133,4,972000000,base_footprint,0.003567724402207467,0.0014802173032078248,-0.924282331114314,0.38168999553199573,0.0,0.0,0.0,0.0,0.0,0.0,0.0,0.0,0.0,-0.0002932532326003708,-0.0003093723446673604,0.06908916631578679,0.0,0.0,0.0,0.0,0.0,0.0,0.0,0.0,0.0,-0.015037487142866835,0.005849315908047105,-0.00020856540508052318,0.0,0.0,0.0,0.0,0.0,0.0,0.0,0.0,0.0
5.006,134,5,6000000,base_footprint,0.003567126254897787,0.0014860935182975739,-0.9238012568334403,0.3828528503345542,0.0,0.0,0.0,0.0,0.0,0.0,0.0,0.0,0.0,0.00041978404772298006,-0.0001526509237316037,0.08694894299021859,0.0,0.0,0.0,0.0,0.0,0.0,0.0,0.0,0.0,-0.016420043784254157,-0.44399182705001083,-0.0012980754707538876,0.0,0.0,0.0,0.0,0.0,0.0,0.0,0.0,0.0
5.04,135,5,40000000,base_footprint,0.0035662805812040808,0.0014883657710098273,-0.9235580170022788,0.3834392463493617,0.0,0.0,0.0,0.0,0.0,0.0,0.0,0.0,0.0,-0.001383926674449716,-0.0007028712041129247,0.03750588579568634,0.0,0.0,0.0,0.0,0.0,0.0,0.0,0.0,0.0,-0.009531393597059278,0.06537011596942202,-0.0029631987129535475,0.0,0.0,0.0,0.0,0.0,0.0,0.0,0.0,0.0
5.074,136,5,74000000,base_footprint,0.003573949690283213,0.0014950980565435867,-0.9231716840040842,0.38436835642190426,0.0,0.0,0.0,0.0,0.0,0.0,0.0,0.0,0.0,-0.00035460490402799505,-0.000341884424528223,0.05993573758425492,0.0,0.0,0.0,0.0,0.0,0.0,0.0,0.0,0.0,-0.009217637543377585,0.050600790254262604,0.0017348524106726793,0.0,0.0,0.0,0.0,0.0,0.0,0.0,0.0,0.0
5.108,137,5,108000000,base_footprint,0.0035744167423182784,0.0014973735774420792,-0.922947949302055,0.3849052666520078,0.0,0.0,0.0,0.0,0.0,0.0,0.0,0.0,0.0,0.0003732497772889914,-0.0009217820055382538,0.013287453344067154,0.0,0.0,0.0,0.0,0.0,0.0,0.0,0.0,0.0,-0.010028190376973719,0.00521766675625559,0.00041995964414840527,0.0,0.0,0.0,0.0,0.0,0.0,0.0,0.0,0.0
5.142,138,5,142000000,base_footprint,0.003572676898227701,0.00150051568200675,-0.9228586960740044,0.38511921727311565,0.0,0.0,0.0,0.0,0.0,0.0,0.0,0.0,0.0,0.00035668707994941185,-0.0003196264299423644,0.011230521545119648,0.0,0.0,0.0,0.0,0.0,0.0,0.0,0.0,0.0,1.1766404201512832e-05,-0.0071083890245187565,0.00030516180544085965,0.0,0.0,0.0,0.0,0.0,0.0,0.0,0.0,0.0
5.176,139,5,176000000,base_footprint,0.003570472224113342,0.0015014317389601389,-0.9228512445669154,0.3851370896604554,0.0,0.0,0.0,0.0,0.0,0.0,0.0,0.0,0.0,-0.0001294518626545682,-4.3167355330524406e-05,-0.006252176012174109,0.0,0.0,0.0,0.0,0.0,0.0,0.0,0.0,0.0,0.00129176386235446,-0.05419605108337723,-0.0003323334426128408,0.0,0.0,0.0,0.0,0.0,0.0,0.0,0.0,0.0
5.21,140,5,210000000,base_footprint,0.003555232720061062,0.0014959482841228238,-0.9227653806909661,0.3853429312408545,0.0,0.0,0.0,0.0,0.0,0.0,0.0,0.0,0.0,0.0007610675294095835,0.0001464540850968515,0.041254931287182335,0.0,0.0,0.0,0.0,0.0,0.0,0.0,0.0,0.0,-0.010030649420487295,0.021476557649610532,0.0027785404031476133,0.0,0.0,0.0,0.0,0.0,0.0,0.0,0.0,0.0
5.244,141,5,244000000,base_footprint,0.0035616367651710107,0.0014868101071508362,-0.9223393682745982,0.38636148083119465,0.0,0.0,0.0,0.0,0.0,0.0,0.0,0.0,0.0,-7.726823053254193e-05,-0.0005520132117999777,0.06737316093536465,0.0,0.0,0.0,0.0,0.0,0.0,0.0,0.0,0.0,-0.01265741646579125,0.13730384654835084,-0.002169093034438495,0.0,0.0,0.0,0.0,0.0,0.0,0.0,0.0,0.0
5.2780000000000005,142,5,278000000,base_footprint,0.0035599265290893393,0.0014918530712226849,-0.9221068315423099,0.3869161311195539,0.0,0.0,0.0,0.0,0.0,0.0,0.0,0.0,0.0,-0.0016246696104078948,-0.0008774538227872846,-0.00023108049313633788,0.0,0.0,0.0,0.0,0.0,0.0,0.0,0.0,0.0,-0.008504413810598736,0.17477682555351887,-0.0023929504822718384,0.0,0.0,0.0,0.0,0.0,0.0,0.0,0.0,0.0
5.312,143,5,312000000,base_footprint,0.0035628617196659823,0.0015038410303068216,-0.9219712303009721,0.38723906695455473,0.0,0.0,0.0,0.0,0.0,0.0,0.0,0.0,0.0,0.000237958671653972,-0.00033283825849844174,0.037658327102484124,0.0,0.0,0.0,0.0,0.0,0.0,0.0,0.0,0.0,-0.005942935990400966,0.0360756624708682,0.0038954238873812677,0.0,0.0,0.0,0.0,0.0,0.0,0.0,0.0,0.0
5.346,144,5,346000000,base_footprint,0.003559478456616547,0.0015055082147844285,-0.9217221733408243,0.3878315339551433,0.0,0.0,0.0,0.0,0.0,0.0,0.0,0.0,0.0,2.4354431999493433e-05,-0.0002964126743787473,0.037784472960805594,0.0,0.0,0.0,0.0,0.0,0.0,0.0,0.0,0.0,-0.0085548410405289,0.003470372557875341,-0.0003586018106108432,0.0,0.0,0.0,0.0,0.0,0.0,0.0,0.0,0.0
5.38,145,5,380000000,base_footprint,0.003556623921384886,0.0015058149916275278,-0.9214747406177822,0.38841908468931335,0.0,0.0,0.0,0.0,0.0,0.0,0.0,0.0,0.0,7.568165220269948e-05,-0.00010709246526384562,0.037238674709337574,0.0,0.0,0.0,0.0,0.0,0.0,0.0,0.0,0.0,-0.00821175373068325,0.005435137127591028,0.0002336607669155141,0.0,0.0,0.0,0.0,0.0,0.0,0.0,0.0,0.0
5.414,146,5,414000000,base_footprint,0.003556430430469092,0.0015052384398751596,-0.9214487422897492,0.38848076064648557,0.0,0.0,0.0,0.0,0.0,0.0,0.0,0.0,0.0,0.0002771095960313874,0.00013624892764344941,-0.0086109969810601,0.0,0.0,0.0,0.0,0.0,0.0,0.0,0.0,0.0,-0.0015785041356221339,0.017854498752199514,-1.933252045485675e-05,0.0,0.0,0.0,0.0,0.0,0.0,0.0,0.0,0.0
5.448,147,5,448000000,base_footprint,0.003557486659264966,0.0015045981801767132,-0.9215077858346203,0.38834067662190747,0.0,0.0,0.0,0.0,0.0,0.0,0.0,0.0,0.0,0.00015857726924311822,0.00011593764519409362,-0.009213000553480583,0.0,0.0,0.0,0.0,0.0,0.0,0.0,0.0,0.0,0.001722876174285808,0.0057413119535611075,-0.00019984898016038664,0.0,0.0,0.0,0.0,0.0,0.0,0.0,0.0,0.0
5.482,148,5,482000000,base_footprint,0.0035601360018343905,0.0015048504114089942,-0.9215709438392384,0.38819074734998904,0.0,0.0,0.0,0.0,0.0,0.0,0.0,0.0,0.0,5.890827968921544e-05,0.00011031958530679695,-0.009855246195806161,0.0,0.0,0.0,0.0,0.0,0.0,0.0,0.0,0.0,0.0021044337795722446,0.005641172323071706,-0.00018412838641335418,0.0,0.0,0.0,0.0,0.0,0.0,0.0,0.0,0.0
5.516,149,5,516000000,base_footprint,0.0035651615022564203,0.0015049539166240987,-0.9217625377103651,0.3877355397831358,0.0,0.0,0.0,0.0,0.0,0.0,0.0,0.0,0.0,7.410094486712165e-05,0.0002313165570475412,-0.03418558387208621,0.0,0.0,0.0,0.0,0.0,0.0,0.0,0.0,0.0,0.006246154045425164,0.011155154141279862,-0.0001744581736355383,0.0,0.0,0.0,0.0,0.0,0.0,0.0,0.0,0.0
5.55,150,5,550000000,base_footprint,0.003569749236683604,0.001504518057461315,-0.92199089252304,0.38719218408998163,0.0,0.0,0.0,0.0,0.0,0.0,0.0,0.0,0.0,0.00018394203952653573,0.0001995789345952051,-0.03531055514065328,0.0,0.0,0.0,0.0,0.0,0.0,0.0,0.0,0.0,0.00821261791001214,0.0017930209432921616,2.177481712243473e-05,0.0,0.0,0.0,0.0,0.0,0.0,0.0,0.0,0.0
5.584,151,5,584000000,base_footprint,0.003572466512457697,0.0015040971198983343,-0.9222284538508718,0.38662598733491993,0.0,0.0,0.0,0.0,0.0,0.0,0.0,0.0,0.0,0.0002292832001616307,0.00015281288074089845,-0.03682520168042817,0.0,0.0,0.0,0.0,0.0,0.0,0.0,0.0,0.0,0.00865125423018233,-0.0034281992982706177,7.420709915090622e-05,0.0,0.0,0.0,0.0,0.0,0.0,0.0,0.0,0.0
5.618,152,5,618000000,base_footprint,0.0035680811914013066,0.001505769962738554,-0.9223457931886261,0.38634600973825933,0.0,0.0,0.0,0.0,0.0,0.0,0.0,0.0,0.0,0.00011806203984905461,-4.433640704403316e-05,-0.015133275124164857,0.0,0.0,0.0,0.0,0.0,0.0,0.0,0.0,0.0,0.002215972775030267,-0.013312340820550078,-3.0806522793545084e-05,0.0,0.0,0.0,0.0,0.0,0.0,0.0,0.0,0.0
5.652,153,5,652000000,base_footprint,0.003568986507486039,0.001504679404102214,-0.922511117564084,0.38595108012009144,0.0,0.0,0.0,0.0,0.0,0.0,0.0,0.0,0.0,0.0002582004685976853,0.000763153971201829,-0.02966120111610713,0.0,0.0,0.0,0.0,0.0,0.0,0.0,0.0,0.0,0.008337608663356295,-0.056049519117738436,-0.00016663370348417696,0.0,0.0,0.0,0.0,0.0,0.0,0.0,0.0,0.0
5.686,154,5,686000000,base_footprint,0.0035736088165882916,0.0014990305718349632,-0.9225760284484791,0.38579587084312095,0.0,0.0,0.0,0.0,0.0,0.0,0.0,0.0,0.0,-0.00014626549941815388,-0.0005120379467963696,0.009354089596957027,0.0,0.0,0.0,0.0,0.0,0.0,0.0,0.0,0.0,0.0013915556626677432,-0.008219985874340887,-0.0005707947409657707,0.0,0.0,0.0,0.0,0.0,0.0,0.0,0.0,0.0
5.72,155,5,720000000,base_footprint,0.003571636167019616,0.0015045696255418031,-0.922560339155654,0.38583338412109586,0.0,0.0,0.0,0.0,0.0,0.0,0.0,0.0,0.0,0.0004160421023237747,0.00027201520556781686,-0.0006045796046050035,0.0,0.0,0.0,0.0,0.0,0.0,0.0,0.0,0.0,-0.0055847912347751355,0.04048173289180511,0.0015478663748733018,0.0,0.0,0.0,0.0,0.0,0.0,0.0,0.0,0.0
5.754,156,5,754000000,base_footprint,0.003568028121841607,0.001502621858629405,-0.9225499536408844,0.3858582567991437,0.0,0.0,0.0,0.0,0.0,0.0,0.0,0.0,0.0,0.0004124259367250228,-7.139326068339075e-05,0.0018457755269065414,0.0,0.0,0.0,0.0,0.0,0.0,0.0,0.0,0.0,0.003390964528906127,-0.004984831797540646,-4.07076049559061e-05,0.0,0.0,0.0,0.0,0.0,0.0,0.0,0.0,0.0
5.788,157,5,788000000,base_footprint,0.003564204654370945,0.0015016418292822912,-0.9225366835219239,0.3858900219924945,0.0,0.0,0.0,0.0,0.0,0.0,0.0,0.0,0.0,0.0002760287682588466,-0.00010460052449410439,0.0021897024715839043,0.0,0.0,0.0,0.0,0.0,0.0,0.0,0.0,0.0,-0.0004665883648592539,0.0037672061086845058,-0.00022168623270745925,0.0,0.0,0.0,0.0,0.0,0.0,0.0,0.0,0.0
5.822,158,5,822000000,base_footprint,0.003565005091761497,0.0014986314019880057,-0.9226435936398849,0.38563433970264593,0.0,0.0,0.0,0.0,0.0,0.0,0.0,0.0,0.0,0.010527790584708046,0.0015503642225108152,-0.029810700342764257,0.0,0.0,0.0,0.0,0.0,0.0,0.0,0.0,0.0,0.012490038421935468,-0.8264271095950558,0.011700849293040567,0.0,0.0,0.0,0.0,0.0,0.0,0.0,0.0,0.0
5.856,159,5,856000000,base_footprint,0.003561949709439538,0.0014967155606160107,-0.9227796856617301,0.38530860889271185,0.0,0.0,0.0,0.0,0.0,0.0,0.0,0.0,0.0,0.001709645838019353,0.00013427741845208215,-0.006337356462052252,0.0,0.0,0.0,0.0,0.0,0.0,0.0,0.0,0.0,-0.0009111636655496913,0.497067748365556,-0.011647335433944795,0.0,0.0,0.0,0.0,0.0,0.0,0.0,0.0,0.0
5.89,160,5,890000000,base_footprint,0.0035571831834380224,0.0014924619848073716,-0.9228124621541793,0.38523016327640397,0.0,0.0,0.0,0.0,0.0,0.0,0.0,0.0,0.0,0.004515365828679882,0.0007097064111934125,-0.005870834713804915,0.0,0.0,0.0,0.0,0.0,0.0,0.0,0.0,0.0,0.001674364777951881,0.05480535689161674,0.003188441861244782,0.0,0.0,0.0,0.0,0.0,0.0,0.0,0.0,0.0
5.924,161,5,924000000,base_footprint,0.003561202003753404,0.0014941768136261353,-0.922808104196817,0.3852405587481859,0.0,0.0,0.0,0.0,0.0,0.0,0.0,0.0,0.0,0.0004054159276230032,-0.00021174371995202732,0.010289080079921844,0.0,0.0,0.0,0.0,0.0,0.0,0.0,0.0,0.0,-0.0031443819866614486,0.29023538511242664,-0.0025302197997643027,0.0,0.0,0.0,0.0,0.0,0.0,0.0,0.0,0.0
5.958,162,5,958000000,base_footprint,0.0035636246656445742,0.0014954717807881225,-0.9227368110272842,0.38541126309254803,0.0,0.0,0.0,0.0,0.0,0.0,0.0,0.0,0.0,-4.458048847670616e-05,1.2402126502700982e-05,0.010593152733537151,0.0,0.0,0.0,0.0,0.0,0.0,0.0,0.0,0.0,-0.002477847515070764,0.008065569594682038,-0.0009467854104227155,0.0,0.0,0.0,0.0,0.0,0.0,0.0,0.0,0.0
5.992,163,5,992000000,base_footprint,0.0035675417314555494,0.0014976119927111993,-0.9226682454914639,0.385575334488628,0.0,0.0,0.0,0.0,0.0,0.0,0.0,0.0,0.0,-0.00017783137857353535,-0.00026356281145472547,0.012377700987076199,0.0,0.0,0.0,0.0,0.0,0.0,0.0,0.0,0.0,-0.0020787351958856727,0.004572777644621809,-0.0003093686728590137,0.0,0.0,0.0,0.0,0.0,0.0,0.0,0.0,0.0
6.026,164,6,26000000,base_footprint,0.00357103921010286,0.001500327408914949,-0.9225887564336429,0.38576545101764936,0.0,0.0,0.0,0.0,0.0,0.0,0.0,0.0,0.0,-0.00010850364188984098,-3.07969794629773e-05,0.011445972521196168,0.0,0.0,0.0,0.0,0.0,0.0,0.0,0.0,0.0,-0.0013889028714015538,0.003046328194584209,-5.412946588027775e-05,0.0,0.0,0.0,0.0,0.0,0.0,0.0,0.0,0.0
6.06,165,6,60000000,base_footprint,0.0035728604496169667,0.001502076461463154,-0.9225184639237154,0.3859334944706666,0.0,0.0,0.0,0.0,0.0,0.0,0.0,0.0,0.0,-3.192316725929539e-05,-7.426836963976444e-05,0.010032623894572122,0.0,0.0,0.0,0.0,0.0,0.0,0.0,0.0,0.0,-0.0017806565176573383,-0.0024923489613317908,7.86856994954241e-05,0.0,0.0,0.0,0.0,0.0,0.0,0.0,0.0,0.0
6.094,166,6,94000000,base_footprint,0.0035612927062622993,0.0014912322262843041,-0.9224498716610756,0.38609756240252646,0.0,0.0,0.0,0.0,0.0,0.0,0.0,0.0,0.0,0.008184070001515314,0.003513800248347072,0.020282312711605396,0.0,0.0,0.0,0.0,0.0,0.0,0.0,0.0,0.0,-0.01064054533471479,-0.044077738275524296,0.013510478609653835,0.0,0.0,0.0,0.0,0.0,0.0,0.0,0.0,0.0
6.128,167,6,128000000,base_footprint,0.0035668765916346263,0.0015116109016006108,-0.9221624097493442,0.38678350852789084,0.0,0.0,0.0,0.0,0.0,0.0,0.0,0.0,0.0,-0.0007950088471293736,-0.0008890680464380546,0.051811707533577105,0.0,0.0,0.0,0.0,0.0,0.0,0.0,0.0,0.0,0.0033195303717890173,-0.20002924138113728,-0.015196018018269315,0.0,0.0,0.0,0.0,0.0,0.0,0.0,0.0,0.0
6.162,168,6,162000000,base_footprint,0.003568325121845117,0.0015115357249963642,-0.9220135173047652,0.3871382908249613,0.0,0.0,0.0,0.0,0.0,0.0,0.0,0.0,0.0,-0.0005499865251018331,0.0010502360763919776,5.083437085424074e-05,0.0,0.0,0.0,0.0,0.0,0.0,0.0,0.0,0.0,-0.0029211558352628536,-0.15559760218735483,-0.001615604947280818,0.0,0.0,0.0,0.0,0.0,0.0,0.0,0.0,0.0
6.196,169,6,196000000,base_footprint,0.003549979398595055,0.0014992972591557343,-0.921967317870366,0.38724851779305985,0.0,0.0,0.0,0.0,0.0,0.0,0.0,0.0,0.0,0.0071161578596350755,0.0013065929874964313,0.0133177587501148,0.0,0.0,0.0,0.0,0.0,0.0,0.0,0.0,0.0,-0.013665403024725055,0.09113265533286577,0.012438807441939745,0.0,0.0,0.0,0.0,0.0,0.0,0.0,0.0,0.0
6.23,170,6,230000000,base_footprint,0.0035578244848957197,0.0014938085958096602,-0.921895114163068,0.38742032587756353,0.0,0.0,0.0,0.0,0.0,0.0,0.0,0.0,0.0,0.0008652960577598266,0.0009527054133677583,-0.018363715360080666,0.0,0.0,0.0,0.0,0.0,0.0,0.0,0.0,0.0,0.0006241671136076044,0.20153092322114866,-0.007635563856595187,0.0,0.0,0.0,0.0,0.0,0.0,0.0,0.0,0.0
6.264,171,6,264000000,base_footprint,0.0035642221230518735,0.001505394173329451,-0.9221889018151272,0.38672038927117636,0.0,0.0,0.0,0.0,0.0,0.0,0.0,0.0,0.0,0.0003677005134930616,0.00015336766143869213,-0.05051419448227638,0.0,0.0,0.0,0.0,0.0,0.0,0.0,0.0,0.0,0.009636930988273219,0.09043297861190698,-0.001264556210502819,0.0,0.0,0.0,0.0,0.0,0.0,0.0,0.0,0.0
6.298,172,6,298000000,base_footprint,0.003563558229203937,0.0015026890560517485,-0.9224870390407854,0.38600868614593675,0.0,0.0,0.0,0.0,0.0,0.0,0.0,0.0,0.0,0.0028194464706636302,0.00043878322017785326,-0.008547070350103356,0.0,0.0,0.0,0.0,0.0,0.0,0.0,0.0,0.0,0.011212133833971405,-0.1865733151687862,0.0025493526433455777,0.0,0.0,0.0,0.0,0.0,0.0,0.0,0.0,0.0
6.332,173,6,332000000,base_footprint,0.0035583664951851814,0.0015013815991646298,-0.9221617749317033,0.3867851402729822,0.0,0.0,0.0,0.0,0.0,0.0,0.0,0.0,0.0,-0.0002568349798925286,-0.00023932588123184328,0.05804737159920751,0.0,0.0,0.0,0.0,0.0,0.0,0.0,0.0,0.0,-0.005567629177613012,-0.17285872021535645,-0.004359789855347307,0.0,0.0,0.0,0.0,0.0,0.0,0.0,0.0,0.0
6.365,174,6,366000000,base_footprint,0.003556502400284656,0.0015038285397753627,-0.9217812212206852,0.3876912044337633,0.0,0.0,0.0,0.0,0.0,0.0,0.0,0.0,0.0,-0.0001029198758397012,-0.0002326366310289004,0.05763869998243078,0.0,0.0,0.0,0.0,0.0,0.0,0.0,0.0,0.0,-0.011921222380959143,0.005510558228603439,0.00010795459796384317,0.0,0.0,0.0,0.0,0.0,0.0,0.0,0.0,0.0
6.4,175,6,400000000,base_footprint,0.0035518924762774967,0.0015056802500260336,-0.9214211819728554,0.3885461650802487,0.0,0.0,0.0,0.0,0.0,0.0,0.0,0.0,0.0,-0.0001399051930048973,-0.00018474555345319863,0.031523330199998284,0.0,0.0,0.0,0.0,0.0,0.0,0.0,0.0,0.0,-0.017231512844746097,0.23950992387641576,0.0010127431332502051,0.0,0.0,0.0,0.0,0.0,0.0,0.0,0.0,0.0
6.434,176,6,434000000,base_footprint,0.0035584317046045417,0.0015068046738480718,-0.9214856341966485,0.388393219653329,0.0,0.0,0.0,0.0,0.0,0.0,0.0,0.0,0.0,0.00014723953783688155,0.00015814342608636467,-0.015040002643933209,0.0,0.0,0.0,0.0,0.0,0.0,0.0,0.0,0.0,-0.0016850156051020707,0.13077921833738432,0.000622988938248757,0.0,0.0,0.0,0.0,0.0,0.0,0.0,0.0,0.0
6.468,177,6,468000000,base_footprint,0.003562583695425485,0.0015071555200636116,-0.9215871111093276,0.38815233236039604,0.0,0.0,0.0,0.0,0.0,0.0,0.0,0.0,0.0,-4.89627264542753e-06,0.0001508334826380201,-0.01566403896560413,0.0,0.0,0.0,0.0,0.0,0.0,0.0,0.0,0.0,0.0032099047538705176,0.005266106676718537,-0.00028471978801874044,0.0,0.0,0.0,0.0,0.0,0.0,0.0,0.0,0.0
6.502,178,6,502000000,base_footprint,0.003567283250131399,0.0015069782988932552,-0.9217564670742153,0.3877499437955872,0.0,0.0,0.0,0.0,0.0,0.0,0.0,0.0,0.0,0.00021465907747417133,-0.00022330150333046592,-0.04170774329389851,0.0,0.0,0.0,0.0,0.0,0.0,0.0,0.0,0.0,0.004149126461644995,0.009959457926429442,-0.0002996820239907931,0.0,0.0,0.0,0.0,0.0,0.0,0.0,0.0,0.0
6.536,179,6,536000000,base_footprint,0.003570948536325404,0.0015065843941654616,-0.9220337352356665,0.3870901311288874,0.0,0.0,0.0,0.0,0.0,0.0,0.0,0.0,0.0,0.0002039784783896807,0.00021110322910935958,-0.04282491485651955,0.0,0.0,0.0,0.0,0.0,0.0,0.0,0.0,0.0,0.011417080927661511,-0.002094972838329598,0.00028084192476716344,0.0,0.0,0.0,0.0,0.0,0.0,0.0,0.0,0.0
6.57,180,6,570000000,base_footprint,0.003572201352061149,0.0015052783246921754,-0.9223201367040341,0.38640721906418557,0.0,0.0,0.0,0.0,0.0,0.0,0.0,0.0,0.0,0.00040442710735382305,0.000163351096334855,-0.04492192201462687,0.0,0.0,0.0,0.0,0.0,0.0,0.0,0.0,0.0,0.010865081836226984,-0.010176071295677241,0.00034681860701175405,0.0,0.0,0.0,0.0,0.0,0.0,0.0,0.0,0.0
6.604,181,6,604000000,base_footprint,0.0035592136986285776,0.001490571817190399,-0.9226119969192269,0.3857100119704205,0.0,0.0,0.0,0.0,0.0,0.0,0.0,0.0,0.0,-0.002631569606481432,-0.0004188620366290546,-0.037989494891871464,0.0,0.0,0.0,0.0,0.0,0.0,0.0,0.0,0.0,0.008040095742191191,-0.10648068321506904,-0.0032210057781162475,0.0,0.0,0.0,0.0,0.0,0.0,0.0,0.0,0.0
6.638,182,6,638000000,base_footprint,0.0035783743080582265,0.0015039643774092963,-0.9228982980399457,0.3850242392414203,0.0,0.0,0.0,0.0,0.0,0.0,0.0,0.0,0.0,-0.0005496481365245686,0.0003899059756316353,-0.03116618397709424,0.0,0.0,0.0,0.0,0.0,0.0,0.0,0.0,0.0,0.016240414410870378,-0.09278910137658014,0.0009500190128506626,0.0,0.0,0.0,0.0,0.0,0.0,0.0,0.0,0.0
6.672,183,6,672000000,base_footprint,0.0035712015863808193,0.0014958314185954849,-0.9229214397955774,0.38496886234246924,0.0,0.0,0.0,0.0,0.0,0.0,0.0,0.0,0.0,6.791013267574128e-05,-0.00018537272215160327,0.02921188645603875,0.0,0.0,0.0,0.0,0.0,0.0,0.0,0.0,0.0,-0.00375748232219994,-0.1510026507855552,0.0007789704672268074,0.0,0.0,0.0,0.0,0.0,0.0,0.0,0.0,0.0
6.706,184,6,706000000,base_footprint,0.00356676374608,0.0015018422767068226,-0.9226644408673739,0.38558442943803095,0.0,0.0,0.0,0.0,0.0,0.0,0.0,0.0,0.0,-0.0001860192855960119,0.00024234813642344945,0.03659970372761337,0.0,0.0,0.0,0.0,0.0,0.0,0.0,0.0,0.0,-0.00469954358444874,-0.33233558500411814,-0.0023311207099226106,0.0,0.0,0.0,0.0,0.0,0.0,0.0,0.0,0.0
6.74,185,6,740000000,base_footprint,0.0035647095573915336,0.001504298022604252,-0.9222865170015457,0.3864875295405898,0.0,0.0,0.0,0.0,0.0,0.0,0.0,0.0,0.0,1.2129405092518752e-05,-0.00034955665834440915,0.05799792238300698,0.0,0.0,0.0,0.0,0.0,0.0,0.0,0.0,0.0,-0.00872276068281681,-0.048157849882705606,0.00033423653721225067,0.0,0.0,0.0,0.0,0.0,0.0,0.0,0.0,0.0
6.774,186,6,774000000,base_footprint,0.0035606922265391324,0.0015072205564646431,-0.9219054218026232,0.3873957188818551,0.0,0.0,0.0,0.0,0.0,0.0,0.0,0.0,0.0,-6.701388522859379e-05,-0.00041733398586722746,0.05805500046305203,0.0,0.0,0.0,0.0,0.0,0.0,0.0,0.0,0.0,-0.010831106080125294,0.004082740140930028,-0.00018711288984621822,0.0,0.0,0.0,0.0,0.0,0.0,0.0,0.0,0.0
6.808,187,6,808000000,base_footprint,0.003548562357037238,0.0015025243285281405,-0.921500896138474,0.3883571147047908,0.0,0.0,0.0,0.0,0.0,0.0,0.0,0.0,0.0,-0.0006228120245806524,-0.0003190193883652054,0.06843896409441161,0.0,0.0,0.0,0.0,0.0,0.0,0.0,0.0,0.0,-0.021247374984663378,0.37663245719819727,0.0014716181158351631,0.0,0.0,0.0,0.0,0.0,0.0,0.0,0.0,0.0
6.8420000000000005,188,6,842000000,base_footprint,0.0035529855733865,0.0015123320847097272,-0.9208884997926925,0.38980695234275287,0.0,0.0,0.0,0.0,0.0,0.0,0.0,0.0,0.0,-0.00022803895232175231,-0.000501242329368441,0.10856783062198712,0.0,0.0,0.0,0.0,0.0,0.0,0.0,0.0,0.0,-0.02768565595721717,0.30127749593147274,0.00232989832762526,0.0,0.0,0.0,0.0,0.0,0.0,0.0,0.0,0.0
6.876,189,6,876000000,base_footprint,0.0035504904012171215,0.001518072387392712,-0.9201695018956556,0.39150118423223024,0.0,0.0,0.0,0.0,0.0,0.0,0.0,0.0,0.0,-0.0004274337089695663,-0.0005078256283168985,0.10809816021761627,0.0,0.0,0.0,0.0,0.0,0.0,0.0,0.0,0.0,-0.024114734791006818,0.004676184731298466,-0.00042956837662561586,0.0,0.0,0.0,0.0,0.0,0.0,0.0,0.0,0.0
6.91,190,6,910000000,base_footprint,0.003551052028635787,0.0015221636585485943,-0.9197438512326832,0.3925000906585354,0.0,0.0,0.0,0.0,0.0,0.0,0.0,0.0,0.0,-0.00034364173083244995,-0.0001205596341726253,0.032243747572501855,0.0,0.0,0.0,0.0,0.0,0.0,0.0,0.0,0.0,-0.016225824249520796,0.024981245141610233,-0.00044230525369702003,0.0,0.0,0.0,0.0,0.0,0.0,0.0,0.0,0.0
6.944,191,6,944000000,base_footprint,0.003553515190403623,0.001524792951394302,-0.9195295490372324,0.3930018523921118,0.0,0.0,0.0,0.0,0.0,0.0,0.0,0.0,0.0,-0.0002259379757134478,-8.854730377358036e-05,0.03183472482539832,0.0,0.0,0.0,0.0,0.0,0.0,0.0,0.0,0.0,-0.0067020795616914075,0.004858478649030329,3.972160419248633e-05,0.0,0.0,0.0,0.0,0.0,0.0,0.0,0.0,0.0
6.978,192,6,978000000,base_footprint,0.0035568449410001706,0.0015286296982057468,-0.9193199644221628,0.39349182349846223,0.0,0.0,0.0,0.0,0.0,0.0,0.0,0.0,0.0,-0.00027239696073511684,-9.92917723591112e-05,0.030825403160413618,0.0,0.0,0.0,0.0,0.0,0.0,0.0,0.0,0.0,-0.006485973704760792,0.003695009092872616,-0.0002457303163062708,0.0,0.0,0.0,0.0,0.0,0.0,0.0,0.0,0.0
7.012,193,7,12000000,base_footprint,0.0035590084286851523,0.0015300164702926338,-0.9193036980169327,0.3935297997877638,0.0,0.0,0.0,0.0,0.0,0.0,0.0,0.0,0.0,-0.00028238530897991697,-4.587630283004062e-05,-0.011002736143615292,0.0,0.0,0.0,0.0,0.0,0.0,0.0,0.0,0.0,-0.0025113070490753197,0.009913895712018795,-0.00044374919394388006,0.0,0.0,0.0,0.0,0.0,0.0,0.0,0.0,0.0
7.046,194,7,46000000,base_footprint,0.003560425469136888,0.0015308325295084217,-0.91938889132251,0.3933307087363142,0.0,0.0,0.0,0.0,0.0,0.0,0.0,0.0,0.0,0.00021537206539320476,-1.566225355760815e-05,-0.01423744466803602,0.0,0.0,0.0,0.0,0.0,0.0,0.0,0.0,0.0,0.0053419810656875275,-0.007951365749217912,0.00075843335861942,0.0,0.0,0.0,0.0,0.0,0.0,0.0,0.0,0.0
7.08,195,7,80000000,base_footprint,0.0035558693305104204,0.0015346094875057575,-0.9195240517352009,0.39301465500348076,0.0,0.0,0.0,0.0,0.0,0.0,0.0,0.0,0.0,0.00015670767428942292,0.00023874682514672896,-0.03198947771798245,0.0,0.0,0.0,0.0,0.0,0.0,0.0,0.0,0.0,0.005826125065907841,-0.045618598029986274,-0.0005025913130617249,0.0,0.0,0.0,0.0,0.0,0.0,0.0,0.0,0.0
7.114,196,7,114000000,base_footprint,0.0035473418148459727,0.0015367286046027722,-0.9196057018247951,0.3928236347301046,0.0,0.0,0.0,0.0,0.0,0.0,0.0,0.0,0.0,-0.0008338187306182144,-0.0007632356234688214,0.02247375828006467,0.0,0.0,0.0,0.0,0.0,0.0,0.0,0.0,0.0,-0.006544895320643968,-0.039973738767952814,-0.0021130718140614244,0.0,0.0,0.0,0.0,0.0,0.0,0.0,0.0,0.0
7.148,197,7,148000000,base_footprint,0.003557702093191689,0.0015321223645733241,-0.9191539119304802,0.39387952668267895,0.0,0.0,0.0,0.0,0.0,0.0,0.0,0.0,0.0,-0.0007351553060089648,0.00029182530499354247,0.11127640781838256,0.0,0.0,0.0,0.0,0.0,0.0,0.0,0.0,0.0,-0.005271314171861588,0.02917182977257395,0.0025437737064922202,0.0,0.0,0.0,0.0,0.0,0.0,0.0,0.0,0.0
7.182,198,7,182000000,base_footprint,0.003553659671392792,0.0015423277598808117,-0.9184089531314678,0.3956134319458613,0.0,0.0,0.0,0.0,0.0,0.0,0.0,0.0,0.0,-0.00022366857161839514,-0.00033621469828912893,0.10760543186233906,0.0,0.0,0.0,0.0,0.0,0.0,0.0,0.0,0.0,-0.028172563540790976,0.0006487864459849731,0.0002124211792330045,0.0,0.0,0.0,0.0,0.0,0.0,0.0,0.0,0.0
7.216,199,7,216000000,base_footprint,0.0035479210923504874,0.0015440097512361547,-0.9180009929445557,0.39655920773904635,0.0,0.0,0.0,0.0,0.0,0.0,0.0,0.0,0.0,0.0004910153763063445,1.4868778096877261e-05,0.04179477138343855,0.0,0.0,0.0,0.0,0.0,0.0,0.0,0.0,0.0,-0.013568330548737581,0.014295535313678318,0.0006196986592498556,0.0,0.0,0.0,0.0,0.0,0.0,0.0,0.0,0.0
7.25,200,7,250000000,base_footprint,0.003544184909391222,0.0015450481392269714,-0.9177182340673427,0.39721315995305784,0.0,0.0,0.0,0.0,0.0,0.0,0.0,0.0,0.0,2.8764006692111937e-05,-0.0003024417607480522,0.041972528765589164,0.0,0.0,0.0,0.0,0.0,0.0,0.0,0.0,0.0,-0.0070338468564784505,0.0033482720591158544,-0.0008466602661839648,0.0,0.0,0.0,0.0,0.0,0.0,0.0,0.0,0.0
7.284,201,7,284000000,base_footprint,0.0035409812477728204,0.0015453853523094215,-0.9174351673975164,0.3978665440297875,0.0,0.0,0.0,0.0,0.0,0.0,0.0,0.0,0.0,0.00010250674250220836,-8.76616038457611e-05,0.041761745259649236,0.0,0.0,0.0,0.0,0.0,0.0,0.0,0.0,0.0,-0.009273044006597559,0.004519910808008864,0.00030400110888724116,0.0,0.0,0.0,0.0,0.0,0.0,0.0,0.0,0.0
7.318,202,7,318000000,base_footprint,0.0035381925861166846,0.0015402902989407397,-0.9176349732265873,0.3974055417460345,0.0,0.0,0.0,0.0,0.0,0.0,0.0,0.0,0.0,-0.0012837322805838332,-0.0006546471322745605,-0.10443097678019983,0.0,0.0,0.0,0.0,0.0,0.0,0.0,0.0,0.0,-0.01987754625439861,0.37188640353087826,-0.0017985718987411383,0.0,0.0,0.0,0.0,0.0,0.0,0.0,0.0,0.0
7.352,203,7,352000000,base_footprint,0.0035447775153447094,0.0015344708061562496,-0.9183815258878703,0.3956772079101587,0.0,0.0,0.0,0.0,0.0,0.0,0.0,0.0,0.0,0.0005138232543900731,0.0007039278353891681,-0.11471831909548391,0.0,0.0,0.0,0.0,0.0,0.0,0.0,0.0,0.0,0.04411570569548999,-0.31445844080190233,0.001608637529324249,0.0,0.0,0.0,0.0,0.0,0.0,0.0,0.0,0.0
7.386,204,7,386000000,base_footprint,0.0035497843584239254,0.0015278329292658602,-0.919139441845233,0.3939133803286993,0.0,0.0,0.0,0.0,0.0,0.0,0.0,0.0,0.0,0.0006472316071587548,0.0007201791947466915,-0.11299663516330503,0.0,0.0,0.0,0.0,0.0,0.0,0.0,0.0,0.0,0.025272595376837195,0.0033256005132514324,0.0002190799957611152,0.0,0.0,0.0,0.0,0.0,0.0,0.0,0.0,0.0
7.42,205,7,420000000,base_footprint,0.0035542829688592534,0.0015251944853266106,-0.9194836701251011,0.3931091721489508,0.0,0.0,0.0,0.0,0.0,0.0,0.0,0.0,0.0,0.0002592256162068436,0.00017150571435280327,-0.01545352033866233,0.0,0.0,0.0,0.0,0.0,0.0,0.0,0.0,0.0,0.030130434036236692,-0.36244014907896493,-0.0015414301560644377,0.0,0.0,0.0,0.0,0.0,0.0,0.0,0.0,0.0
7.454,206,7,454000000,base_footprint,0.0035583792102733326,0.0015263414494384147,-0.9195917757919324,0.39285617484649016,0.0,0.0,0.0,0.0,0.0,0.0,0.0,0.0,0.0,1.7821186736401147e-05,0.00013341484106103787,-0.016877893527006062,0.0,0.0,0.0,0.0,0.0,0.0,0.0,0.0,0.0,0.002505467665267736,0.005331280898924335,-0.0006885097559412885,0.0,0.0,0.0,0.0,0.0,0.0,0.0,0.0,0.0
7.488,207,7,488000000,base_footprint,0.0035612708205575486,0.0015266571609471237,-0.9197100813734578,0.3925791039880796,0.0,0.0,0.0,0.0,0.0,0.0,0.0,0.0,0.0,9.009103450772e-05,9.001943452016585e-05,-0.01863380589756113,0.0,0.0,0.0,0.0,0.0,0.0,0.0,0.0,0.0,0.0042090868554254075,-0.0008376560396202749,6.448304408813711e-06,0.0,0.0,0.0,0.0,0.0,0.0,0.0,0.0,0.0
7.522,208,7,522000000,base_footprint,0.0035539778091605973,0.0015202482781923204,-0.9201765715067876,0.3914845275830432,0.0,0.0,0.0,0.0,0.0,0.0,0.0,0.0,0.0,0.000843113577379859,-0.00014595957787083493,-0.11431905230287792,0.0,0.0,0.0,0.0,0.0,0.0,0.0,0.0,0.0,2.9509511370290342e-05,0.2908544433979128,0.0015470825942658492,0.0,0.0,0.0,0.0,0.0,0.0,0.0,0.0,0.0
7.556,209,7,556000000,base_footprint,0.003560304222207947,0.0015226070292450016,-0.9209359526650946,0.3896947228158402,0.0,0.0,0.0,0.0,0.0,0.0,0.0,0.0,0.0,0.00040387480338611477,0.001180188365539906,-0.12245174458729431,0.0,0.0,0.0,0.0,0.0,0.0,0.0,0.0,0.0,0.02806910040064302,-0.0453098541446584,-0.0005027903451300844,0.0,0.0,0.0,0.0,0.0,0.0,0.0,0.0,0.0
7.59,210,7,590000000,base_footprint,0.003557003086442916,0.001510323825021432,-0.9216842107195784,0.3879217477291193,0.0,0.0,0.0,0.0,0.0,0.0,0.0,0.0,0.0,-0.00012776892528778715,0.0016661256609196609,-0.09495883112031327,0.0,0.0,0.0,0.0,0.0,0.0,0.0,0.0,0.0,0.011132668146784156,0.006857992621599388,-0.0004931408780391314,0.0,0.0,0.0,0.0,0.0,0.0,0.0,0.0,0.0
7.624,211,7,624000000,base_footprint,0.0035690066305320046,0.0015012387502036176,-0.922164869247884,0.38677766533102625,0.0,0.0,0.0,0.0,0.0,0.0,0.0,0.0,0.0,0.0003419779856510926,-5.727413150399168e-06,-0.07227305018222846,0.0,0.0,0.0,0.0,0.0,0.0,0.0,0.0,0.0,0.028687535954027878,0.01859333801069093,0.0001557260113237483,0.0,0.0,0.0,0.0,0.0,0.0,0.0,0.0,0.0
7.658,212,7,658000000,base_footprint,0.003572008813797814,0.0015007488540988631,-0.922719071780596,0.38545363285130235,0.0,0.0,0.0,0.0,0.0,0.0,0.0,0.0,0.0,0.001234621898140746,0.00034031388933474264,-0.08845704078443979,0.0,0.0,0.0,0.0,0.0,0.0,0.0,0.0,0.0,0.015620090732532035,0.05165907149793661,0.0029229437838751995,0.0,0.0,0.0,0.0,0.0,0.0,0.0,0.0,0.0
7.692,213,7,692000000,base_footprint,0.003569027094144748,0.0015007163417322194,-0.9232782486770388,0.38411233437097936,0.0,0.0,0.0,0.0,0.0,0.0,0.0,0.0,0.0,0.0008871933283391057,-3.805223777441486e-05,-0.04347850914227923,0.0,0.0,0.0,0.0,0.0,0.0,0.0,0.0,0.0,0.01753329914287355,-0.007342207585422045,0.0018970622450474892,0.0,0.0,0.0,0.0,0.0,0.0,0.0,0.0,0.0
7.726,214,7,726000000,base_footprint,0.0035663989608306916,0.0014932739910957051,-0.923353892284058,0.3839305152434745,0.0,0.0,0.0,0.0,0.0,0.0,0.0,0.0,0.0,0.00039390397270576893,0.00011345295573447227,-0.01122015012861592,0.0,0.0,0.0,0.0,0.0,0.0,0.0,0.0,0.0,0.006981090737488037,-0.002402283814794132,-0.002213550708426812,0.0,0.0,0.0,0.0,0.0,0.0,0.0,0.0,0.0
7.76,215,7,760000000,base_footprint,0.003564149190927535,0.0014900388719155835,-0.9234288721787749,0.3837501721841188,0.0,0.0,0.0,0.0,0.0,0.0,0.0,0.0,0.0,0.00037653500428421393,0.00017065888666545234,-0.011696590066578472,0.0,0.0,0.0,0.0,0.0,0.0,0.0,0.0,0.0,0.0024478155580270533,0.0055659539583405105,1.896218475424472e-05,0.0,0.0,0.0,0.0,0.0,0.0,0.0,0.0,0.0
7.7940000000000005,216,7,794000000,base_footprint,0.003569980242601381,0.0014897646493221082,-0.9235236406620211,0.3835219954327565,0.0,0.0,0.0,0.0,0.0,0.0,0.0,0.0,0.0,0.0018842969789865695,0.0006364525026342122,-0.04032539756337456,0.0,0.0,0.0,0.0,0.0,0.0,0.0,0.0,0.0,0.0027604842885215336,-0.11563489881266216,0.0010512823115276064,0.0,0.0,0.0,0.0,0.0,0.0,0.0,0.0,0.0
7.828,217,7,828000000,base_footprint,0.003568809735436986,0.0014830996286162063,-0.9241544057657853,0.38199960512578013,0.0,0.0,0.0,0.0,0.0,0.0,0.0,0.0,0.0,0.0012221497799134865,-6.339011393025648e-05,-0.026101010037087573,0.0,0.0,0.0,0.0,0.0,0.0,0.0,0.0,0.0,0.019580757100366955,-0.2074472336149096,-0.0016933211072277985,0.0,0.0,0.0,0.0,0.0,0.0,0.0,0.0,0.0
7.862,218,7,862000000,base_footprint,0.0035687006931092806,0.0014807746652458736,-0.9242746316368539,0.38170862839908654,0.0,0.0,0.0,0.0,0.0,0.0,0.0,0.0,0.0,0.00015595760194943775,0.000166259964817571,-0.019026900703437873,0.0,0.0,0.0,0.0,0.0,0.0,0.0,0.0,0.0,0.005581822552585231,0.0006727164104426869,-0.0015056550062846066,0.0,0.0,0.0,0.0,0.0,0.0,0.0,0.0,0.0
7.896,219,7,896000000,base_footprint,0.0035729873129507397,0.0014783984413445407,-0.9244386740425212,0.3813111407161027,0.0,0.0,0.0,0.0,0.0,0.0,0.0,0.0,0.0,-0.0001467425930740637,-0.00026162301111651927,-0.050585829393524386,0.0,0.0,0.0,0.0,0.0,0.0,0.0,0.0,0.0,0.005942349612446362,0.011963309263207121,-0.000687273956739616,0.0,0.0,0.0,0.0,0.0,0.0,0.0,0.0,0.0
7.93,220,7,930000000,base_footprint,0.0035782256045597365,0.001479621491200962,-0.9247591178024891,0.3805332850920243,0.0,0.0,0.0,0.0,0.0,0.0,0.0,0.0,0.0,0.00012168702349044963,0.0002399040941214515,-0.04965592792195826,0.0,0.0,0.0,0.0,0.0,0.0,0.0,0.0,0.0,0.009986473804531265,0.004517999149146481,0.00023191303176077027,0.0,0.0,0.0,0.0,0.0,0.0,0.0,0.0,0.0
7.964,221,7,964000000,base_footprint,0.0035821147191130785,0.0014776936200598713,-0.9250832710347976,0.37974455430889814,0.0,0.0,0.0,0.0,0.0,0.0,0.0,0.0,0.0,0.0002528084521623295,0.0002722859319333842,-0.05075485209112946,0.0,0.0,0.0,0.0,0.0,0.0,0.0,0.0,0.0,0.011036483331652908,-0.0001723627480489597,0.00024277736536115025,0.0,0.0,0.0,0.0,0.0,0.0,0.0,0.0,0.0
7.998,222,7,998000000,base_footprint,0.0035692594157239314,0.0014736679947749687,-0.9253995814918627,0.37897322235818964,0.0,0.0,0.0,0.0,0.0,0.0,0.0,0.0,0.0,-0.0020013008703809094,-0.0009998605439868887,-0.03914894021020743,0.0,0.0,0.0,0.0,0.0,0.0,0.0,0.0,0.0,0.008953540035952494,-0.11401103201335477,-0.0036089351871916612,0.0,0.0,0.0,0.0,0.0,0.0,0.0,0.0,0.0
8.032,223,8,32000000,base_footprint,0.0035858564081607315,0.0014711720987893877,-0.925692922386634,0.37825598571571734,0.0,0.0,0.0,0.0,0.0,0.0,0.0,0.0,0.0,-0.0011824468019348863,0.0005432037938738753,-0.044285206172729685,0.0,0.0,0.0,0.0,0.0,0.0,0.0,0.0,0.0,0.010868951466997227,-0.1704752476716138,-0.00033535414236103805,0.0,0.0,0.0,0.0,0.0,0.0,0.0,0.0,0.0
8.066,224,8,66000000,base_footprint,0.003583178597018209,0.0014712137973992249,-0.9259047894975034,0.3777371005695473,0.0,0.0,0.0,0.0,0.0,0.0,0.0,0.0,0.0,0.0010526827065157058,0.00014823328126513797,-0.037181482136595764,0.0,0.0,0.0,0.0,0.0,0.0,0.0,0.0,0.0,-0.004327729600987061,-0.11519459710184697,0.003522350834195709,0.0,0.0,0.0,0.0,0.0,0.0,0.0,0.0,0.0
8.1,225,8,100000000,base_footprint,0.0035677847722415316,0.0014635956255233445,-0.9260780964991612,0.3773121890214448,0.0,0.0,0.0,0.0,0.0,0.0,0.0,0.0,0.0,-0.0003106781393625987,0.0006325573361092044,-0.008510589236856898,0.0,0.0,0.0,0.0,0.0,0.0,0.0,0.0,0.0,-0.001668964325489621,0.0040738684594646,0.0007458005051044791,0.0,0.0,0.0,0.0,0.0,0.0,0.0,0.0,0.0
8.134,226,8,134000000,base_footprint,0.0035654295457445435,0.0014617574310968608,-0.9260132638995,0.377471304948551,0.0,0.0,0.0,0.0,0.0,0.0,0.0,0.0,0.0,0.0006451383516351955,-0.0012853333977092569,0.027365925753433374,0.0,0.0,0.0,0.0,0.0,0.0,0.0,0.0,0.0,0.012831962167039579,0.19732606075091713,-0.00265879202522307,0.0,0.0,0.0,0.0,0.0,0.0,0.0,0.0,0.0
8.168,227,8,168000000,base_footprint,0.003581651889270431,0.0014718107062743294,-0.9258599717125006,0.3778469509252613,0.0,0.0,0.0,0.0,0.0,0.0,0.0,0.0,0.0,0.00035426606627018324,6.072743719588101e-05,0.015745628427269853,0.0,0.0,0.0,0.0,0.0,0.0,0.0,0.0,0.0,-0.0054623433540884545,0.146446871845659,0.003062016043752929,0.0,0.0,0.0,0.0,0.0,0.0,0.0,0.0,0.0
8.202,228,8,202000000,base_footprint,0.0035676037194988203,0.001462699362251705,-0.9259664995856032,0.3775859827369942,0.0,0.0,0.0,0.0,0.0,0.0,0.0,0.0,0.0,-0.0026507007453594822,-0.0003603335444031855,-0.10363150499873056,0.0,0.0,0.0,0.0,0.0,0.0,0.0,0.0,0.0,0.004699405780110091,0.018979426737964128,-0.006336518111133381,0.0,0.0,0.0,0.0,0.0,0.0,0.0,0.0,0.0
8.236,229,8,236000000,base_footprint,0.003574012619653959,0.0014632337759120442,-0.9265520930411006,0.37614665259957747,0.0,0.0,0.0,0.0,0.0,0.0,0.0,0.0,0.0,0.0013019064253752598,0.0004998668278746165,-0.03914676410114964,0.0,0.0,0.0,0.0,0.0,0.0,0.0,0.0,0.0,0.025807068203363065,0.18999465534082616,0.008730307723302359,0.0,0.0,0.0,0.0,0.0,0.0,0.0,0.0,0.0
8.27,230,8,270000000,base_footprint,0.0035751212492641073,0.0014611411547240754,-0.926470562559207,0.37634741966141544,0.0,0.0,0.0,0.0,0.0,0.0,0.0,0.0,0.0,0.00013164683217166805,-5.017573458523043e-05,0.023303252846310598,0.0,0.0,0.0,0.0,0.0,0.0,0.0,0.0,0.0,0.0018782765598009052,0.1405792249238301,-0.00033815358135783806,0.0,0.0,0.0,0.0,0.0,0.0,0.0,0.0,0.0
8.304,231,8,304000000,base_footprint,0.0035753532548302887,0.0014598377349002152,-0.9265493722381688,0.3761533550667153,0.0,0.0,0.0,0.0,0.0,0.0,0.0,0.0,0.0,0.00035114146973690407,0.000394893728567596,-0.06685078281950205,0.0,0.0,0.0,0.0,0.0,0.0,0.0,0.0,0.0,2.19401283365981e-05,0.030557780393070822,-0.0003712748662862608,0.0,0.0,0.0,0.0,0.0,0.0,0.0,0.0,0.0
8.338,232,8,338000000,base_footprint,0.0035778512823193076,0.001455696640644918,-0.9269736263144821,0.37510661956951785,0.0,0.0,0.0,0.0,0.0,0.0,0.0,0.0,0.0,0.0004766495929496196,0.0004104549112195746,-0.06658038831802238,0.0,0.0,0.0,0.0,0.0,0.0,0.0,0.0,0.0,0.01760101767525861,0.0037259173237871477,0.0003234168085024437,0.0,0.0,0.0,0.0,0.0,0.0,0.0,0.0,0.0
8.372,233,8,372000000,base_footprint,0.0035818597450099684,0.0014525405367410687,-0.9273994330472272,0.37405260591317635,0.0,0.0,0.0,0.0,0.0,0.0,0.0,0.0,0.0,0.0003842310981348257,0.00040181848729508175,-0.06711055797854794,0.0,0.0,0.0,0.0,0.0,0.0,0.0,0.0,0.0,0.015132905187115187,0.005031115078927663,-0.00010418898047721061,0.0,0.0,0.0,0.0,0.0,0.0,0.0,0.0,0.0
8.406,234,8,406000000,base_footprint,0.00358750738309622,0.0014448316873399765,-0.9277259036887946,0.3732421330409806,0.0,0.0,0.0,0.0,0.0,0.0,0.0,0.0,0.0,0.0010840159713939531,0.0007163016132832859,0.00655001669428917,0.0,0.0,0.0,0.0,0.0,0.0,0.0,0.0,0.0,-0.0015026704361635612,-0.30988966923479355,-0.00023603088195445074,0.0,0.0,0.0,0.0,0.0,0.0,0.0,0.0,0.0
8.44,235,8,440000000,base_footprint,0.003590202021206297,0.0014541047116610358,-0.9275854309382091,0.3735910388916085,0.0,0.0,0.0,0.0,0.0,0.0,0.0,0.0,0.0,-0.00018332907420452017,-0.0001299229383103128,0.0224975631921446,0.0,0.0,0.0,0.0,0.0,0.0,0.0,0.0,0.0,-0.0035880455442665656,-0.04556151888411681,-0.0021021385134669165,0.0,0.0,0.0,0.0,0.0,0.0,0.0,0.0,0.0
8.474,236,8,474000000,base_footprint,0.003592014091191328,0.0014566012323741617,-0.9274441771044815,0.3739415383487236,0.0,0.0,0.0,0.0,0.0,0.0,0.0,0.0,0.0,-0.000132060261333387,-0.00012356309978696334,0.02197201624061183,0.0,0.0,0.0,0.0,0.0,0.0,0.0,0.0,0.0,-0.004068629329295951,-0.0011885864823128344,5.345702013082802e-05,0.0,0.0,0.0,0.0,0.0,0.0,0.0,0.0,0.0
8.508,237,8,508000000,base_footprint,0.0035834458888723,0.0014546108011151493,-0.9273649976119618,0.3741379481249461,0.0,0.0,0.0,0.0,0.0,0.0,0.0,0.0,0.0,0.0009583288445303771,6.578641269092247e-05,-0.008742374255867921,0.0,0.0,0.0,0.0,0.0,0.0,0.0,0.0,0.0,0.0015654466678585235,0.1160008654962097,0.002427978848815019,0.0,0.0,0.0,0.0,0.0,0.0,0.0,0.0,0.0
8.542,238,8,542000000,base_footprint,0.003580301796871429,0.0014529304263548376,-0.9275887390009636,0.37358292481164346,0.0,0.0,0.0,0.0,0.0,0.0,0.0,0.0,0.0,0.00040507299203817223,0.0007707432230025246,-0.058297756456376304,0.0,0.0,0.0,0.0,0.0,0.0,0.0,0.0,0.0,0.006005481316403971,0.03855001226216758,-0.0012343837818683727,0.0,0.0,0.0,0.0,0.0,0.0,0.0,0.0,0.0
8.576,239,8,576000000,base_footprint,0.0035799813708886708,0.0014515340815698123,-0.927887982219349,0.3728390661332303,0.0,0.0,0.0,0.0,0.0,0.0,0.0,0.0,0.0,8.911033168712909e-05,0.0011806652102097403,-0.029870824414788638,0.0,0.0,0.0,0.0,0.0,0.0,0.0,0.0,0.0,0.00725760934604633,-0.007866651281232479,-0.001061552700097734,0.0,0.0,0.0,0.0,0.0,0.0,0.0,0.0,0.0
8.61,240,8,610000000,base_footprint,0.0035899716533371847,0.0014435897302980639,-0.9280055912379958,0.37254617268633544,0.0,0.0,0.0,0.0,0.0,0.0,0.0,0.0,0.0,-0.0005214469309271395,-0.0004828647360381838,-0.018628676234439687,0.0,0.0,0.0,0.0,0.0,0.0,0.0,0.0,0.0,0.012887469091929442,0.12824178137227382,0.0010610572943663633,0.0,0.0,0.0,0.0,0.0,0.0,0.0,0.0,0.0
8.644,241,8,644000000,base_footprint,0.003591439454813689,0.0014485982699067438,-0.9282193551711633,0.37201321456545705,0.0,0.0,0.0,0.0,0.0,0.0,0.0,0.0,0.0,0.00042206467636617475,4.639843608942489e-05,-0.034458799740074555,0.0,0.0,0.0,0.0,0.0,0.0,0.0,0.0,0.0,0.009437688265442971,0.038461976503818246,0.0013076044423281125,0.0,0.0,0.0,0.0,0.0,0.0,0.0,0.0,0.0
8.678,242,8,678000000,base_footprint,0.0035884299587984076,0.0014466086632113637,-0.928439413983135,0.37146370624390673,0.0,0.0,0.0,0.0,0.0,0.0,0.0,0.0,0.0,0.0005384247360486147,7.073041698049879e-05,-0.03523758352292642,0.0,0.0,0.0,0.0,0.0,0.0,0.0,0.0,0.0,0.006946631932724321,0.0061475142145283445,0.00032041208825604837,0.0,0.0,0.0,0.0,0.0,0.0,0.0,0.0,0.0
8.712,243,8,712000000,base_footprint,0.0035840973826951087,0.0014439217533997277,-0.9284261281093313,0.37149696362128876,0.0,0.0,0.0,0.0,0.0,0.0,0.0,0.0,0.0,0.00037436181456457354,-5.254054703337911e-05,0.02161969823680355,0.0,0.0,0.0,0.0,0.0,0.0,0.0,0.0,0.0,-0.0007208455169872671,-0.010480254303772404,0.00026220967138794135,0.0,0.0,0.0,0.0,0.0,0.0,0.0,0.0,0.0
8.746,244,8,746000000,base_footprint,0.0035819564295667163,0.0014437074574129999,-0.9282911239337147,0.3718342030028906,0.0,0.0,0.0,0.0,0.0,0.0,0.0,0.0,0.0,0.00015495030656602368,-4.661904639984383e-05,0.021181267530153536,0.0,0.0,0.0,0.0,0.0,0.0,0.0,0.0,0.0,-0.004162121375651161,0.006262018621008356,-0.00029580016434848765,0.0,0.0,0.0,0.0,0.0,0.0,0.0,0.0,0.0
8.779,245,8,780000000,base_footprint,0.003581026752377386,0.0014442641489070672,-0.9281586453098877,0.3721647746428739,0.0,0.0,0.0,0.0,0.0,0.0,0.0,0.0,0.0,7.878466152764e-05,-5.383374316113787e-05,0.020755480154217704,0.0,0.0,0.0,0.0,0.0,0.0,0.0,0.0,0.0,-0.004283557859912891,0.005998009513087906,-0.00015150494336602219,0.0,0.0,0.0,0.0,0.0,0.0,0.0,0.0,0.0
8.814,246,8,814000000,base_footprint,0.003583247720983148,0.001446038753974452,-0.9281603218660597,0.3721605651075685,0.0,0.0,0.0,0.0,0.0,0.0,0.0,0.0,0.0,0.0006292617857634227,0.000370306211880318,-0.07624570573989611,0.0,0.0,0.0,0.0,0.0,0.0,0.0,0.0,0.0,-0.02583330415663565,-0.5465078099777231,-0.0030882968784672056,0.0,0.0,0.0,0.0,0.0,0.0,0.0,0.0,0.0
8.848,247,8,848000000,base_footprint,0.0035824494518005307,0.0014416733370847259,-0.9285175631415741,0.3712683969469357,0.0,0.0,0.0,0.0,0.0,0.0,0.0,0.0,0.0,2.3052896673543544e-05,-0.0006687248286349864,0.013413568535594856,0.0,0.0,0.0,0.0,0.0,0.0,0.0,0.0,0.0,0.024287640311483435,0.2172615711007823,0.0016945762880477733,0.0,0.0,0.0,0.0,0.0,0.0,0.0,0.0,0.0
8.882,248,8,882000000,base_footprint,0.0035886002287935943,0.0014442323511108918,-0.9284363300860886,0.3714714216700788,0.0,0.0,0.0,0.0,0.0,0.0,0.0,0.0,0.0,-0.00014931380966056395,-3.056997472115731e-05,0.012509220147498133,0.0,0.0,0.0,0.0,0.0,0.0,0.0,0.0,0.0,-0.003231557721277117,0.005860551740483643,-0.0009650843226161395,0.0,0.0,0.0,0.0,0.0,0.0,0.0,0.0,0.0
8.916,249,8,916000000,base_footprint,0.0035952300791396528,0.0014418219856676957,-0.9289168301852949,0.3702681704772144,0.0,0.0,0.0,0.0,0.0,0.0,0.0,0.0,0.0,0.00017992918893824393,0.0005805430968028334,-0.11656075129077145,0.0,0.0,0.0,0.0,0.0,0.0,0.0,0.0,0.0,0.015593570301524433,0.025884149448033904,-0.0007226457996876533,0.0,0.0,0.0,0.0,0.0,0.0,0.0,0.0,0.0
8.95,250,8,950000000,base_footprint,0.0035945460557960953,0.0014386792171077988,-0.929468287983611,0.3688817033597332,0.0,0.0,0.0,0.0,0.0,0.0,0.0,0.0,0.0,0.00027873255796802873,0.00010245026843560663,-0.04601458989640262,0.0,0.0,0.0,0.0,0.0,0.0,0.0,0.0,0.0,0.031871197295783374,0.1917612077440695,0.002304260982473343,0.0,0.0,0.0,0.0,0.0,0.0,0.0,0.0,0.0
8.984,251,8,984000000,base_footprint,0.0035937011397381103,0.0014393860712459592,-0.9295537050959274,0.36866641130199246,0.0,0.0,0.0,0.0,0.0,0.0,0.0,0.0,0.0,0.0008968566903951637,-0.0007131885514940067,0.00881707230322002,0.0,0.0,0.0,0.0,0.0,0.0,0.0,0.0,0.0,0.012287232321991276,0.10927429801699637,0.002118906912158229,0.0,0.0,0.0,0.0,0.0,0.0,0.0,0.0,0.0
9.018,252,9,18000000,base_footprint,0.003590842457736082,0.0014403023157743898,-0.9293804394620921,0.3691030074720762,0.0,0.0,0.0,0.0,0.0,0.0,0.0,0.0,0.0,0.000646661896227344,0.00013801342195006732,0.03299532897777607,0.0,0.0,0.0,0.0,0.0,0.0,0.0,0.0,0.0,-0.005570916856078733,-0.04465636985937607,-0.00020078239033869855,0.0,0.0,0.0,0.0,0.0,0.0,0.0,0.0,0.0
9.052,253,9,52000000,base_footprint,0.0035922504518435443,0.0014368491083943868,-0.9291873161318472,0.36958891046813813,0.0,0.0,0.0,0.0,0.0,0.0,0.0,0.0,0.0,-0.0006681262196204473,-0.0006971047578449434,0.043816554202620366,0.0,0.0,0.0,0.0,0.0,0.0,0.0,0.0,0.0,-0.01838915486836134,-0.059796449217866504,-0.002703188593149675,0.0,0.0,0.0,0.0,0.0,0.0,0.0,0.0,0.0
9.086,254,9,86000000,base_footprint,0.003595911858252965,0.0014441767251935013,-0.9288898001919624,0.37033595946225645,0.0,0.0,0.0,0.0,0.0,0.0,0.0,0.0,0.0,-0.0006388104611080192,-0.0007115289051271366,0.03702056409782133,0.0,0.0,0.0,0.0,0.0,0.0,0.0,0.0,0.0,-0.00619444451425101,0.07689234644274617,0.00015654251747600133,0.0,0.0,0.0,0.0,0.0,0.0,0.0,0.0,0.0
9.12,255,9,120000000,base_footprint,0.0035920342981080465,0.0014425368520013747,-0.9287812424903369,0.37060817580719646,0.0,0.0,0.0,0.0,0.0,0.0,0.0,0.0,0.0,-0.0006425985877217712,-0.0003498051970421106,-0.029491377199596783,0.0,0.0,0.0,0.0,0.0,0.0,0.0,0.0,0.0,-0.024241233204964213,-0.46295866844505473,-0.003106178316856915,0.0,0.0,0.0,0.0,0.0,0.0,0.0,0.0,0.0
9.154,256,9,154000000,base_footprint,0.003589102000287448,0.0014442714588600945,-0.9286632869640561,0.37090366926184487,0.0,0.0,0.0,0.0,0.0,0.0,0.0,0.0,0.0,0.0008745270171531968,-0.0004125836864348367,0.04006387971426032,0.0,0.0,0.0,0.0,0.0,0.0,0.0,0.0,0.0,-0.0010681052305954314,0.12276448083962957,0.0035370740792805,0.0,0.0,0.0,0.0,0.0,0.0,0.0,0.0,0.0
9.188,257,9,188000000,base_footprint,0.0035851639749610873,0.0014450687457392413,-0.928408611053833,0.37154072360467516,0.0,0.0,0.0,0.0,0.0,0.0,0.0,0.0,0.0,0.00018881077554107258,-0.00013952480298955953,0.040268006100401016,0.0,0.0,0.0,0.0,0.0,0.0,0.0,0.0,0.0,-0.006230196503190136,0.005190000363702005,-0.0005788492906804439,0.0,0.0,0.0,0.0,0.0,0.0,0.0,0.0,0.0
9.222,258,9,222000000,base_footprint,0.0035846440983277935,0.0014387306241322028,-0.9289438298385665,0.3702005421197221,0.0,0.0,0.0,0.0,0.0,0.0,0.0,0.0,0.0,0.0020090603534068238,-0.0009347730162486025,-0.09674323525646421,0.0,0.0,0.0,0.0,0.0,0.0,0.0,0.0,0.0,0.020771512526398642,0.07015770036017299,0.0006254413850820932,0.0,0.0,0.0,0.0,0.0,0.0,0.0,0.0,0.0
9.256,259,9,256000000,base_footprint,0.0035844961273264553,0.0014371997598717006,-0.9289464528610798,0.37019396748350897,0.0,0.0,0.0,0.0,0.0,0.0,0.0,0.0,0.0,0.0004048349730445142,-0.000200346739999803,0.04896536714063025,0.0,0.0,0.0,0.0,0.0,0.0,0.0,0.0,0.0,0.01633486077278061,0.280386343915566,0.0017165713900976053,0.0,0.0,0.0,0.0,0.0,0.0,0.0,0.0,0.0
9.29,260,9,290000000,base_footprint,0.0035830770785908015,0.0014396265614052392,-0.9286412490674287,0.3709589189714927,0.0,0.0,0.0,0.0,0.0,0.0,0.0,0.0,0.0,-2.827876218062126e-05,-0.00011691281070207515,0.04353473040626485,0.0,0.0,0.0,0.0,0.0,0.0,0.0,0.0,0.0,-0.010435411637803356,0.004163833272994967,-0.0007538317773653747,0.0,0.0,0.0,0.0,0.0,0.0,0.0,0.0,0.0
9.324,261,9,324000000,base_footprint,0.00358398197853229,0.001442757155519531,-0.9283835422612509,0.37160337994079157,0.0,0.0,0.0,0.0,0.0,0.0,0.0,0.0,0.0,-0.00017449976713344373,-0.00017157378383803935,0.04066442131857265,0.0,0.0,0.0,0.0,0.0,0.0,0.0,0.0,0.0,-0.00886051185598508,0.007554022204513986,-0.00027334577104595,0.0,0.0,0.0,0.0,0.0,0.0,0.0,0.0,0.0
9.358,262,9,358000000,base_footprint,0.0035864615964179684,0.0014466616306566397,-0.9281278680707681,0.3722414605786877,0.0,0.0,0.0,0.0,0.0,0.0,0.0,0.0,0.0,-0.0002939626050179766,-0.00017274558986622585,0.04023324605796621,0.0,0.0,0.0,0.0,0.0,0.0,0.0,0.0,0.0,-0.008484880105977886,0.005703848809713507,-0.00028589675746447634,0.0,0.0,0.0,0.0,0.0,0.0,0.0,0.0,0.0
9.392,263,9,392000000,base_footprint,0.003588706158701256,0.0014504693779112854,-0.9278730208387159,0.3728762187728338,0.0,0.0,0.0,0.0,0.0,0.0,0.0,0.0,0.0,0.00475953550360919,-0.0002518069058627698,0.04321285602788278,0.0,0.0,0.0,0.0,0.0,0.0,0.0,0.0,0.0,-0.013738412140467175,-0.06645409595987281,0.007643345342197142,0.0,0.0,0.0,0.0,0.0,0.0,0.0,0.0,0.0
9.426,264,9,426000000,base_footprint,0.003588556995806172,0.0014564724802000318,-0.9277345973007972,0.3732204682459551,0.0,0.0,0.0,0.0,0.0,0.0,0.0,0.0,0.0,-0.002401107758628992,-4.067474648200358e-05,0.00046348521677626103,0.0,0.0,0.0,0.0,0.0,0.0,0.0,0.0,0.0,-0.01596130695276475,-0.3402634235081839,-0.01166203299770803,0.0,0.0,0.0,0.0,0.0,0.0,0.0,0.0,0.0
9.46,265,9,460000000,base_footprint,0.0035927764155390314,0.0014577787636772589,-0.9275659213385293,0.3736394363689534,0.0,0.0,0.0,0.0,0.0,0.0,0.0,0.0,0.0,-0.00014871306438873016,-2.9448968205601935e-05,0.030368074047471518,0.0,0.0,0.0,0.0,0.0,0.0,0.0,0.0,0.0,0.0012603522069988757,0.07254127371964235,0.0019731794391413394,0.0,0.0,0.0,0.0,0.0,0.0,0.0,0.0,0.0
9.494,266,9,494000000,base_footprint,0.003587716199973024,0.0014593984602814982,-0.9273817721970384,0.3740963071794255,0.0,0.0,0.0,0.0,0.0,0.0,0.0,0.0,0.0,0.002837945587167543,0.0010737832376882803,0.02066925162634311,0.0,0.0,0.0,0.0,0.0,0.0,0.0,0.0,0.0,-0.00556555945053614,-0.0024378304347560916,0.0068956570218089526,0.0,0.0,0.0,0.0,0.0,0.0,0.0,0.0,0.0
9.528,267,9,528000000,base_footprint,0.0035686025931387696,0.001454331398057681,-0.9273218663834452,0.37424498142639234,0.0,0.0,0.0,0.0,0.0,0.0,0.0,0.0,0.0,-0.00029359733872968833,0.0001586086273608502,0.017881242224839996,0.0,0.0,0.0,0.0,0.0,0.0,0.0,0.0,0.0,-0.01819574960318528,-0.02599756401168063,-0.007936517334134668,0.0,0.0,0.0,0.0,0.0,0.0,0.0,0.0,0.0
9.562,268,9,562000000,base_footprint,0.003572323797889508,0.0014554754535302786,-0.9270723865162874,0.374862521803504,0.0,0.0,0.0,0.0,0.0,0.0,0.0,0.0,0.0,-0.0007053083206610517,-0.0011276354199403072,0.05702301445900641,0.0,0.0,0.0,0.0,0.0,0.0,0.0,0.0,0.0,0.003156705419466492,0.08220306287225101,-0.0005865485678626876,0.0,0.0,0.0,0.0,0.0,0.0,0.0,0.0,0.0
9.596,269,9,596000000,base_footprint,0.003596941021227377,0.0014700929904956138,-0.9266084067202857,0.3760076614075608,0.0,0.0,0.0,0.0,0.0,0.0,0.0,0.0,0.0,0.0017051947062239744,-3.678358389017696e-06,0.07450473639608864,0.0,0.0,0.0,0.0,0.0,0.0,0.0,0.0,0.0,-0.015885063685226134,0.041948469876857276,0.008340005269586032,0.0,0.0,0.0,0.0,0.0,0.0,0.0,0.0,0.0
9.63,270,9,630000000,base_footprint,0.003580521171708424,0.0014677863848530732,-0.9261709780356487,0.37708400246597235,0.0,0.0,0.0,0.0,0.0,0.0,0.0,0.0,0.0,0.00012230764752490627,-0.00041023948390374673,0.06745017944078857,0.0,0.0,0.0,0.0,0.0,0.0,0.0,0.0,0.0,-0.01570663200047722,-0.13987677171389595,-0.00624640800687121,0.0,0.0,0.0,0.0,0.0,0.0,0.0,0.0,0.0
9.664,271,9,664000000,base_footprint,0.003575816776616976,0.0014713806024484195,-0.9257374794929328,0.378147018546457,0.0,0.0,0.0,0.0,0.0,0.0,0.0,0.0,0.0,-6.615561683339799e-05,-0.0003985118541128073,0.06763176190419606,0.0,0.0,0.0,0.0,0.0,0.0,0.0,0.0,0.0,-0.012956508606071825,0.004548957590591368,-0.00022542316634270704,0.0,0.0,0.0,0.0,0.0,0.0,0.0,0.0,0.0
9.698,272,9,698000000,base_footprint,0.0035640861018341845,0.001468118096688497,-0.9253012378336545,0.3792133452069163,0.0,0.0,0.0,0.0,0.0,0.0,0.0,0.0,0.0,-0.0020368819499198294,0.00022537125471965014,0.06670135666671839,0.0,0.0,0.0,0.0,0.0,0.0,0.0,0.0,0.0,-0.009901881967617196,0.1886612029607791,-0.00129973456491964,0.0,0.0,0.0,0.0,0.0,0.0,0.0,0.0,0.0
9.732,273,9,732000000,base_footprint,0.003569968913650716,0.0014731196182722526,-0.925167485935676,0.3795394685773884,0.0,0.0,0.0,0.0,0.0,0.0,0.0,0.0,0.0,0.00026719676779080346,2.7534131880478656e-05,0.010196093544716138,0.0,0.0,0.0,0.0,0.0,0.0,0.0,0.0,0.0,-0.0034435986580159117,0.17850014440127102,0.0032983490482064045,0.0,0.0,0.0,0.0,0.0,0.0,0.0,0.0,0.0
9.766,274,9,766000000,base_footprint,0.0035696243517697505,0.001473038796251059,-0.9251033302355364,0.37969582079055375,0.0,0.0,0.0,0.0,0.0,0.0,0.0,0.0,0.0,0.00010960841914562794,1.6004464009814588e-05,0.009739320361740158,0.0,0.0,0.0,0.0,0.0,0.0,0.0,0.0,0.0,-0.002391222889701553,0.005548865183356336,-0.0002751950127221494,0.0,0.0,0.0,0.0,0.0,0.0,0.0,0.0,0.0
9.8,275,9,800000000,base_footprint,0.0035712008747911055,0.0014751285715410198,-0.9250328055319684,0.379867581151202,0.0,0.0,0.0,0.0,0.0,0.0,0.0,0.0,0.0,1.4650485966942093e-05,-1.3886814457662512e-05,0.016866446662942347,0.0,0.0,0.0,0.0,0.0,0.0,0.0,0.0,0.0,-0.0064688504440199995,-0.3208856958402927,-0.001816437421335414,0.0,0.0,0.0,0.0,0.0,0.0,0.0,0.0,0.0
9.834,276,9,834000000,base_footprint,0.0035681103123528504,0.001473133093007482,-0.9250713300763747,0.37977379153703633,0.0,0.0,0.0,0.0,0.0,0.0,0.0,0.0,0.0,0.0008923320956275223,0.0002891118120175345,-0.039149920734710665,0.0,0.0,0.0,0.0,0.0,0.0,0.0,0.0,0.0,-0.0015875198026753384,-0.18288440966434727,-0.0003473809560957593,0.0,0.0,0.0,0.0,0.0,0.0,0.0,0.0,0.0
9.868,277,9,868000000,base_footprint,0.0035777621116012794,0.0014760006837180643,-0.925126242902817,0.37963990271410164,0.0,0.0,0.0,0.0,0.0,0.0,0.0,0.0,0.0,-0.0003839677916288418,4.585791631006448e-05,-0.0008400707336145987,0.0,0.0,0.0,0.0,0.0,0.0,0.0,0.0,0.0,0.004890889990718197,0.180776252120233,-0.0006854450471940809,0.0,0.0,0.0,0.0,0.0,0.0,0.0,0.0,0.0
9.902,278,9,902000000,base_footprint,0.003572057576558384,0.0014740054218685798,-0.9251635502009354,0.3795490391139031,0.0,0.0,0.0,0.0,0.0,0.0,0.0,0.0,0.0,-0.0005758244524147013,0.0001736189619889042,-0.02278102845926503,0.0,0.0,0.0,0.0,0.0,0.0,0.0,0.0,0.0,0.0035760152422080888,0.19940425775843046,0.0014543910134830786,0.0,0.0,0.0,0.0,0.0,0.0,0.0,0.0,0.0
9.936,279,9,936000000,base_footprint,0.0035826588956937144,0.0014779119794667292,-0.925211304233124,0.3794325010468394,0.0,0.0,0.0,0.0,0.0,0.0,0.0,0.0,0.0,-0.0005643578113860961,0.00020292466494254753,-0.002986243612029596,0.0,0.0,0.0,0.0,0.0,0.0,0.0,0.0,0.0,0.007392828913886797,0.14391302326418837,5.522060537365244e-05,0.0,0.0,0.0,0.0,0.0,0.0,0.0,0.0,0.0
9.97,280,9,970000000,base_footprint,0.0035821251043049434,0.0014784071623295727,-0.92523431173511,0.3793763976317674,0.0,0.0,0.0,0.0,0.0,0.0,0.0,0.0,0.0,0.0003782643890901935,-7.85064590438143e-05,-0.006116989320953677,0.0,0.0,0.0,0.0,0.0,0.0,0.0,0.0,0.0,0.0007967866988857495,-0.021379731304534487,0.0013765226305405744,0.0,0.0,0.0,0.0,0.0,0.0,0.0,0.0,0.0
10.004,281,10,4000000,base_footprint,0.003579641246195095,0.001477604488626753,-0.92532739601446,0.37914932815267194,0.0,0.0,0.0,0.0,0.0,0.0,0.0,0.0,0.0,0.0003411821584728757,2.0239980592763422e-06,-0.017156429770359322,0.0,0.0,0.0,0.0,0.0,0.0,0.0,0.0,0.0,-0.0017186059993679857,-0.05534261347245065,-0.0007954982029039718,0.0,0.0,0.0,0.0,0.0,0.0,0.0,0.0,0.0
10.038,282,10,38000000,base_footprint,0.0035822973595810844,0.0014767747496911422,-0.9253100480188975,0.37919164194010396,0.0,0.0,0.0,0.0,0.0,0.0,0.0,0.0,0.0,-0.0012501687785166637,0.0004901971585646492,0.022062058767107498,0.0,0.0,0.0,0.0,0.0,0.0,0.0,0.0,0.0,0.0016454740659061031,0.009723870700205908,-0.0019465225117104553,0.0,0.0,0.0,0.0,0.0,0.0,0.0,0.0,0.0
10.072,283,10,72000000,base_footprint,0.003581064332230141,0.0014791535043684407,-0.9252111266503631,0.37943294428070534,0.0,0.0,0.0,0.0,0.0,0.0,0.0,0.0,0.0,0.00042544231024427466,-4.1182983780234725e-05,0.015842390889706764,0.0,0.0,0.0,0.0,0.0,0.0,0.0,0.0,0.0,-0.006870072524149239,0.020763950717379243,0.0028768736862273213,0.0,0.0,0.0,0.0,0.0,0.0,0.0,0.0,0.0
10.106,284,10,106000000,base_footprint,0.0035779245851520224,0.0014784754642988196,-0.9251527329260095,0.37957533287280415,0.0,0.0,0.0,0.0,0.0,0.0,0.0,0.0,0.0,0.0027108027257534513,-0.00039941289504062867,-0.0015726636223028646,0.0,0.0,0.0,0.0,0.0,0.0,0.0,0.0,0.0,-0.005900478160241113,-0.33532244436410297,0.0021088439072645296,0.0,0.0,0.0,0.0,0.0,0.0,0.0,0.0,0.0
10.14,285,10,140000000,base_footprint,0.0035742203722833603,0.0014781933422496661,-0.9251145977585324,0.3796683037958822,0.0,0.0,0.0,0.0,0.0,0.0,0.0,0.0,0.0,0.00012469113475732142,-0.00014689513687656165,0.010520327914859604,0.0,0.0,0.0,0.0,0.0,0.0,0.0,0.0,0.0,0.00017795116333280678,0.002671179695781016,-0.004280282972221427,0.0,0.0,0.0,0.0,0.0,0.0,0.0,0.0,0.0
10.174,286,10,174000000,base_footprint,0.0035709033822899274,0.0014765060711274972,-0.9250475989707574,0.3798315524246152,0.0,0.0,0.0,0.0,0.0,0.0,0.0,0.0,0.0,0.0002893567374748984,4.188443018371961e-05,0.010241891119295025,0.0,0.0,0.0,0.0,0.0,0.0,0.0,0.0,0.0,-0.0021945953653209026,0.005162479053507473,0.00040581264235477064,0.0,0.0,0.0,0.0,0.0,0.0,0.0,0.0,0.0
10.208,287,10,208000000,base_footprint,0.003567842577590998,0.0014759870365939909,-0.9249521253704461,0.38006401794211464,0.0,0.0,0.0,0.0,0.0,0.0,0.0,0.0,0.0,-0.0014039922015696698,0.0004100263358866888,0.039096487515909675,0.0,0.0,0.0,0.0,0.0,0.0,0.0,0.0,0.0,-0.0008045668460800043,0.3325009242949838,-6.828923898198993e-05,0.0,0.0,0.0,0.0,0.0,0.0,0.0,0.0,0.0
10.242,288,10,242000000,base_footprint,0.003567579303175558,0.001477263963247994,-0.9246877742932451,0.38070672458166954,0.0,0.0,0.0,0.0,0.0,0.0,0.0,0.0,0.0,-3.6993350793917775e-05,-0.0001476323238459077,0.04081345197916346,0.0,0.0,0.0,0.0,0.0,0.0,0.0,0.0,0.0,-0.007012594564840369,0.011250044968373325,0.0015792014994248538,0.0,0.0,0.0,0.0,0.0,0.0,0.0,0.0,0.0
10.276,289,10,276000000,base_footprint,0.0035677074322639796,0.0014796736242554357,-0.9244249336802255,0.3813444952008017,0.0,0.0,0.0,0.0,0.0,0.0,0.0,0.0,0.0,-0.00012089025871108647,-0.0001513007051878603,0.040393859873474165,0.0,0.0,0.0,0.0,0.0,0.0,0.0,0.0,0.0,-0.008761703338735197,0.00578382710514238,-0.0001956255550057151,0.0,0.0,0.0,0.0,0.0,0.0,0.0,0.0,0.0
10.31,290,10,310000000,base_footprint,0.0035712653557638083,0.0014831743557782101,-0.9241995607868863,0.3818903220807197,0.0,0.0,0.0,0.0,0.0,0.0,0.0,0.0,0.0,0.0010518097369782954,-0.00028539256917685575,0.016821965545276655,0.0,0.0,0.0,0.0,0.0,0.0,0.0,0.0,0.0,-0.007824496664821948,-0.3306953969665526,-0.0005245486047820895,0.0,0.0,0.0,0.0,0.0,0.0,0.0,0.0,0.0
10.344,291,10,344000000,base_footprint,0.003573198627789884,0.0014850965015796816,-0.9240943655854449,0.382144776535257,0.0,0.0,0.0,0.0,0.0,0.0,0.0,0.0,0.0,-0.00017136802409321042,-5.240760413520318e-05,0.015928996030438937,0.0,0.0,0.0,0.0,0.0,0.0,0.0,0.0,0.0,-0.004230656183923544,0.006417561485970632,-0.0017458779224266612,0.0,0.0,0.0,0.0,0.0,0.0,0.0,0.0,0.0
10.378,292,10,378000000,base_footprint,0.003576419574187165,0.0014879377817349111,-0.923993175403537,0.38238933964204036,0.0,0.0,0.0,0.0,0.0,0.0,0.0,0.0,0.0,-0.00012361578777850642,-4.741797372870846e-05,0.015016450705892925,0.0,0.0,0.0,0.0,0.0,0.0,0.0,0.0,0.0,-0.0017071349759376503,0.0034598869202126857,-0.00011910671730017936,0.0,0.0,0.0,0.0,0.0,0.0,0.0,0.0,0.0
10.411,293,10,412000000,base_footprint,0.0035781686561867764,0.0014902344481472801,-0.923865987492731,0.3826965025505701,0.0,0.0,0.0,0.0,0.0,0.0,0.0,0.0,0.0,-0.00010099243917770237,-0.00010397468016001611,0.02123278882220301,0.0,0.0,0.0,0.0,0.0,0.0,0.0,0.0,0.0,-0.002918503553990055,-0.003008352120926168,4.406701981202416e-05,0.0,0.0,0.0,0.0,0.0,0.0,0.0,0.0,0.0
10.446,294,10,446000000,base_footprint,0.003576979028087507,0.0014924536155823235,-0.9237301364393776,0.38302429797197807,0.0,0.0,0.0,0.0,0.0,0.0,0.0,0.0,0.0,7.477185681804726e-05,-0.00015343580453170718,0.01961760593268339,0.0,0.0,0.0,0.0,0.0,0.0,0.0,0.0,0.0,-0.0036604068140173567,-0.009691638054965764,0.0002385770794013361,0.0,0.0,0.0,0.0,0.0,0.0,0.0,0.0,0.0
10.48,295,10,480000000,base_footprint,0.0035716715918785425,0.0014943962746869685,-0.9236513780527005,0.38321422437477637,0.0,0.0,0.0,0.0,0.0,0.0,0.0,0.0,0.0,1.470421919587193e-05,0.00022532624825413123,0.0006195794115643349,0.0,0.0,0.0,0.0,0.0,0.0,0.0,0.0,0.0,-0.0046282843922894265,-0.05203028345325852,-0.0006092530433381021,0.0,0.0,0.0,0.0,0.0,0.0,0.0,0.0,0.0
10.514,296,10,514000000,base_footprint,0.003555647688321581,0.0014884465802204058,-0.923567081551995,0.38341751103702226,0.0,0.0,0.0,0.0,0.0,0.0,0.0,0.0,0.0,-0.0009546362086254314,0.002277768859847373,0.03496818256994709,0.0,0.0,0.0,0.0,0.0,0.0,0.0,0.0,0.0,-0.012475999523136548,0.0048989803020405365,-0.004640869594240078,0.0,0.0,0.0,0.0,0.0,0.0,0.0,0.0,0.0
10.548,297,10,548000000,base_footprint,0.003565913912862747,0.0014791778140625404,-0.9232169578848869,0.38425973633043514,0.0,0.0,0.0,0.0,0.0,0.0,0.0,0.0,0.0,4.778818401456873e-05,-0.0004605589064485219,0.054792553902998135,0.0,0.0,0.0,0.0,0.0,0.0,0.0,0.0,0.0,-0.005049859112805581,0.12765080110609744,0.005908452514595651,0.0,0.0,0.0,0.0,0.0,0.0,0.0,0.0,0.0
10.582,298,10,582000000,base_footprint,0.0035625246078235862,0.0014792081992586789,-0.9230699046759925,0.3846128851754402,0.0,0.0,0.0,0.0,0.0,0.0,0.0,0.0,0.0,0.0014492038410073428,0.00108113682752274,-0.013481716477244311,0.0,0.0,0.0,0.0,0.0,0.0,0.0,0.0,0.0,-0.00632710964785118,0.17558028638542228,0.003097040360748469,0.0,0.0,0.0,0.0,0.0,0.0,0.0,0.0,0.0
10.616,299,10,616000000,base_footprint,0.0035687869632600733,0.001492351106010304,-0.9233208342404681,0.38400999167375005,0.0,0.0,0.0,0.0,0.0,0.0,0.0,0.0,0.0,0.0003747045733357915,4.9666171760370245e-05,-0.042796352266651586,0.0,0.0,0.0,0.0,0.0,0.0,0.0,0.0,0.0,0.009423422373688203,0.07561595096211457,-0.0019062780906671153,0.0,0.0,0.0,0.0,0.0,0.0,0.0,0.0,0.0
10.65,300,10,650000000,base_footprint,0.003566958872030126,0.0014887492138237488,-0.9236043370159484,0.3833276523752416,0.0,0.0,0.0,0.0,0.0,0.0,0.0,0.0,0.0,0.0006575092245029316,0.000347973668268725,-0.043566959835912376,0.0,0.0,0.0,0.0,0.0,0.0,0.0,0.0,0.0,0.008751734796085382,0.0060648296311060015,0.00072925489465461,0.0,0.0,0.0,0.0,0.0,0.0,0.0,0.0,0.0
10.684,301,10,684000000,base_footprint,0.003566059977407349,0.001484105215021702,-0.9238902123180492,0.38263815313015803,0.0,0.0,0.0,0.0,0.0,0.0,0.0,0.0,0.0,0.0005249181785038781,0.0003280519610643664,-0.04418358230670279,0.0,0.0,0.0,0.0,0.0,0.0,0.0,0.0,0.0,0.009553041829657433,0.005802824075917433,-0.00015170547415960017,0.0,0.0,0.0,0.0,0.0,0.0,0.0,0.0,0.0
10.718,302,10,718000000,base_footprint,0.0035655447531455077,0.001482656330273227,-0.9239448372352552,0.3825062435662159,0.0,0.0,0.0,0.0,0.0,0.0,0.0,0.0,0.0,0.0001840883468089563,7.537447148891868e-05,-0.002359552065758315,0.0,0.0,0.0,0.0,0.0,0.0,0.0,0.0,0.0,0.002179926638703471,-0.005369267471443435,-0.00023301597314601656,0.0,0.0,0.0,0.0,0.0,0.0,0.0,0.0,0.0
10.752,303,10,752000000,base_footprint,0.0035664005618642894,0.0014825564827473723,-0.9239622431127404,0.3824641893241524,0.0,0.0,0.0,0.0,0.0,0.0,0.0,0.0,0.0,0.0001328517671834098,6.757503500317228e-05,-0.0029315874005216174,0.0,0.0,0.0,0.0,0.0,0.0,0.0,0.0,0.0,0.0008503948173396417,0.005758612122369683,-9.572838729373619e-05,0.0,0.0,0.0,0.0,0.0,0.0,0.0,0.0,0.0
10.786,304,10,786000000,base_footprint,0.0035686910712431075,0.001483285891159941,-0.9239833209271364,0.3824132410828156,0.0,0.0,0.0,0.0,0.0,0.0,0.0,0.0,0.0,3.677051190354509e-05,5.993327088879223e-05,-0.003500103177078947,0.0,0.0,0.0,0.0,0.0,0.0,0.0,0.0,0.0,0.0008550466704263784,0.005622133374799727,-0.00018275656237304474,0.0,0.0,0.0,0.0,0.0,0.0,0.0,0.0,0.0
10.82,305,10,820000000,base_footprint,0.003566607886781163,0.0014839321950679328,-0.9239184920360918,0.382569859407634,0.0,0.0,0.0,0.0,0.0,0.0,0.0,0.0,0.0,0.0003172904965600195,-8.990107610676285e-05,0.025190531335249927,0.0,0.0,0.0,0.0,0.0,0.0,0.0,0.0,0.0,-0.0025900069482763244,-0.7550352808350701,-0.0034321697261768583,0.0,0.0,0.0,0.0,0.0,0.0,0.0,0.0,0.0
10.854,306,10,854000000,base_footprint,0.003575369742646666,0.001488722321097272,-0.9237788665646767,0.38290678516518284,0.0,0.0,0.0,0.0,0.0,0.0,0.0,0.0,0.0,-9.030452798578642e-05,-0.0001259678048888971,0.020780017825614526,0.0,0.0,0.0,0.0,0.0,0.0,0.0,0.0,0.0,-0.0026856073087245663,0.07495269509500971,-0.0006175777631938291,0.0,0.0,0.0,0.0,0.0,0.0,0.0,0.0,0.0
10.888,307,10,888000000,base_footprint,0.003576932003555409,0.0014912262365121337,-0.9236458229230322,0.3832275767720641,0.0,0.0,0.0,0.0,0.0,0.0,0.0,0.0,0.0,-0.00012003750308857408,-0.00011165718067691453,0.020046457038535276,0.0,0.0,0.0,0.0,0.0,0.0,0.0,0.0,0.0,-0.0031687401422307243,0.0012400537768160352,-4.980787784381177e-05,0.0,0.0,0.0,0.0,0.0,0.0,0.0,0.0,0.0
10.921,308,10,922000000,base_footprint,0.0035691277709563414,0.0014878488707958325,-0.9237242716040415,0.3830385328948976,0.0,0.0,0.0,0.0,0.0,0.0,0.0,0.0,0.0,0.0005478834270958054,0.00028654757087784625,-0.04308480775589319,0.0,0.0,0.0,0.0,0.0,0.0,0.0,0.0,0.0,0.0007443582897825041,0.29124148828457136,0.002494589635564472,0.0,0.0,0.0,0.0,0.0,0.0,0.0,0.0,0.0
10.956,309,10,956000000,base_footprint,0.003566644000935277,0.0014865693568455757,-0.9242236850614673,0.3818319645256531,0.0,0.0,0.0,0.0,0.0,0.0,0.0,0.0,0.0,0.0009095261843485672,0.0005381011171492905,-0.10866499627284977,0.0,0.0,0.0,0.0,0.0,0.0,0.0,0.0,0.0,0.012701033573852862,0.0962964853129727,0.0005245562402188802,0.0,0.0,0.0,0.0,0.0,0.0,0.0,0.0,0.0
10.99,310,10,990000000,base_footprint,0.003564637883697564,0.001477854711592444,-0.9249488302279423,0.38007205995991167,0.0,0.0,0.0,0.0,0.0,0.0,0.0,0.0,0.0,-0.0004555772533938958,0.0002556253250004584,-0.09450042171809447,0.0,0.0,0.0,0.0,0.0,0.0,0.0,0.0,0.0,0.015607394531462399,-0.00629081163483252,-0.0026783721350059297,0.0,0.0,0.0,0.0,0.0,0.0,0.0,0.0,0.0
11.024,311,11,24000000,base_footprint,0.003569626473070062,0.0014775441775573227,-0.9253427131231939,0.3791120387165945,0.0,0.0,0.0,0.0,0.0,0.0,0.0,0.0,0.0,0.0003248586257806389,1.642396843232682e-05,-0.03577579456163994,0.0,0.0,0.0,0.0,0.0,0.0,0.0,0.0,0.0,0.022808074862306526,0.09156534035749943,0.002497127574374404,0.0,0.0,0.0,0.0,0.0,0.0,0.0,0.0,0.0
11.058,312,11,58000000,base_footprint,0.00358172290053478,0.0014770929311839522,-0.9253921510981981,0.3789912349163059,0.0,0.0,0.0,0.0,0.0,0.0,0.0,0.0,0.0,-0.00021736452084523386,0.00024847341571018045,0.018094176249654762,0.0,0.0,0.0,0.0,0.0,0.0,0.0,0.0,0.0,0.007276430454733279,0.17289740889243815,0.0011371559661949827,0.0,0.0,0.0,0.0,0.0,0.0,0.0,0.0,0.0
11.092,313,11,92000000,base_footprint,0.0035764237868921474,0.0014752703750323128,-0.9252880216023678,0.37924544802725496,0.0,0.0,0.0,0.0,0.0,0.0,0.0,0.0,0.0,0.0011864072818035748,-0.0014007170821032711,-0.002753391260387767,0.0,0.0,0.0,0.0,0.0,0.0,0.0,0.0,0.0,-0.002430954777081596,0.0009662878877313343,0.00204805567783636,0.0,0.0,0.0,0.0,0.0,0.0,0.0,0.0,0.0
11.126,314,11,126000000,base_footprint,0.0035733830403471426,0.0014747980821916925,-0.9253215529096814,0.3791636581017219,0.0,0.0,0.0,0.0,0.0,0.0,0.0,0.0,0.0,0.00045531014012460534,0.0001346912193635237,-0.004812311067043147,0.0,0.0,0.0,0.0,0.0,0.0,0.0,0.0,0.0,-0.0011586144168327574,0.008377583371621406,-0.0009710142316448282,0.0,0.0,0.0,0.0,0.0,0.0,0.0,0.0,0.0
11.16,315,11,160000000,base_footprint,0.0035711762738052464,0.0014722332664055407,-0.925354133528009,0.3790841684795852,0.0,0.0,0.0,0.0,0.0,0.0,0.0,0.0,0.0,0.00033262878569628203,0.00011919319727111365,-0.005239205455212414,0.0,0.0,0.0,0.0,0.0,0.0,0.0,0.0,0.0,0.0010480473783573505,0.005723366463005404,-0.00018680431000054856,0.0,0.0,0.0,0.0,0.0,0.0,0.0,0.0,0.0
11.194,316,11,194000000,base_footprint,0.0035699708491419187,0.0014701993638279256,-0.9254253725693972,0.37891024481631463,0.0,0.0,0.0,0.0,0.0,0.0,0.0,0.0,0.0,0.00025693196787301585,-0.0003894732900286216,-0.04565499332180238,0.0,0.0,0.0,0.0,0.0,0.0,0.0,0.0,0.0,0.002955492581077525,0.013107858043383028,-0.0005248548215625688,0.0,0.0,0.0,0.0,0.0,0.0,0.0,0.0,0.0
11.228,317,11,228000000,base_footprint,0.0035725432805071397,0.0014673910091006703,-0.9257200171774976,0.3781898114638056,0.0,0.0,0.0,0.0,0.0,0.0,0.0,0.0,0.0,0.00038920876751113016,0.00030915849237943944,-0.04569510196731487,0.0,0.0,0.0,0.0,0.0,0.0,0.0,0.0,0.0,0.009607525121442802,0.008647117436200037,0.0003725042317647305,0.0,0.0,0.0,0.0,0.0,0.0,0.0,0.0,0.0
11.262,318,11,262000000,base_footprint,0.0035756392161837855,0.0014651658754366373,-0.9260153632627844,0.37746604495563135,0.0,0.0,0.0,0.0,0.0,0.0,0.0,0.0,0.0,0.0002979942943642895,0.00030231004834352897,-0.04621560016276362,0.0,0.0,0.0,0.0,0.0,0.0,0.0,0.0,0.0,0.010398670897891437,0.005425502537583238,-0.00011963215247079411,0.0,0.0,0.0,0.0,0.0,0.0,0.0,0.0,0.0
11.296,319,11,296000000,base_footprint,0.0035775017953937767,0.0014664661471321735,-0.9262355421874012,0.3769254188122026,0.0,0.0,0.0,0.0,0.0,0.0,0.0,0.0,0.0,0.0002739343945233392,-0.0024933156753598903,0.029966893795571117,0.0,0.0,0.0,0.0,0.0,0.0,0.0,0.0,0.0,0.00959635508228926,-0.013265352436769016,-0.00036880661131755843,0.0,0.0,0.0,0.0,0.0,0.0,0.0,0.0,0.0
11.33,320,11,330000000,base_footprint,0.0035836551748087515,0.0014684974427775286,-0.9260562839164961,0.3773655521501914,0.0,0.0,0.0,0.0,0.0,0.0,0.0,0.0,0.0,-0.00023778216747542724,-0.00013526945618841848,0.027178801139115184,0.0,0.0,0.0,0.0,0.0,0.0,0.0,0.0,0.0,-0.006453876502059915,0.002648837548475008,-0.00021209572396927568,0.0,0.0,0.0,0.0,0.0,0.0,0.0,0.0,0.0
11.364,321,11,364000000,base_footprint,0.0035855903282909227,0.0014713215638365858,-0.9258851539858393,0.37778520402931637,0.0,0.0,0.0,0.0,0.0,0.0,0.0,0.0,0.0,-0.00017201593370707577,-0.00014239441037344565,0.02619605123226861,0.0,0.0,0.0,0.0,0.0,0.0,0.0,0.0,0.0,-0.004429904040702501,0.0018153460199517354,9.956527643788011e-05,0.0,0.0,0.0,0.0,0.0,0.0,0.0,0.0,0.0
11.398,322,11,398000000,base_footprint,0.0035856218597458975,0.0014713385375767362,-0.9257479166278838,0.378121373817878,0.0,0.0,0.0,0.0,0.0,0.0,0.0,0.0,0.0,0.00014378214338458764,0.001375909317518004,-0.0026686466738134597,0.0,0.0,0.0,0.0,0.0,0.0,0.0,0.0,0.0,-0.003745164780410662,0.006757789067386077,0.0006945486439982563,0.0,0.0,0.0,0.0,0.0,0.0,0.0,0.0,0.0
11.432,323,11,432000000,base_footprint,0.003582585177760156,0.0014726023408360286,-0.9258273749428632,0.37792680287616154,0.0,0.0,0.0,0.0,0.0,0.0,0.0,0.0,0.0,0.0005499620655068064,6.481959886847904e-05,-0.018362150217571167,0.0,0.0,0.0,0.0,0.0,0.0,0.0,0.0,0.0,-0.0010328568550236686,-0.06220366703289371,-0.00012422255684177205,0.0,0.0,0.0,0.0,0.0,0.0,0.0,0.0,0.0
11.466,324,11,466000000,base_footprint,0.0035803285180889986,0.0014683389827207626,-0.9259088894077522,0.3777270889730276,0.0,0.0,0.0,0.0,0.0,0.0,0.0,0.0,0.0,-0.0005640486830266492,0.0004264458693991498,0.005934459194781489,0.0,0.0,0.0,0.0,0.0,0.0,0.0,0.0,0.0,-0.0020365847605105965,-0.031177280102049544,-0.002172574101861631,0.0,0.0,0.0,0.0,0.0,0.0,0.0,0.0,0.0
11.5,325,11,500000000,base_footprint,0.0035776279537838326,0.0014750253568416533,-0.9257703039570121,0.37806662004171,0.0,0.0,0.0,0.0,0.0,0.0,0.0,0.0,0.0,-0.0010596811618003945,0.0015139826169381387,0.05812017536539275,0.0,0.0,0.0,0.0,0.0,0.0,0.0,0.0,0.0,-0.006799761105577,0.02544004811355196,0.0006782713414581693,0.0,0.0,0.0,0.0,0.0,0.0,0.0,0.0,0.0
11.534,326,11,534000000,base_footprint,0.003579531682760792,0.0014768124112640925,-0.9253510883150691,0.37909150522288343,0.0,0.0,0.0,0.0,0.0,0.0,0.0,0.0,0.0,3.611127071341442e-05,-0.0002990040339970442,0.0641339325203832,0.0,0.0,0.0,0.0,0.0,0.0,0.0,0.0,0.0,-0.009306105833641595,0.010950920669409442,0.0013369310219053436,0.0,0.0,0.0,0.0,0.0,0.0,0.0,0.0,0.0
11.568,327,11,568000000,base_footprint,0.0035744022531303747,0.0014796423785470587,-0.9249369190638791,0.38010094719637827,0.0,0.0,0.0,0.0,0.0,0.0,0.0,0.0,0.0,-2.466730419789156e-05,-0.0004583720680390823,0.06439171513338586,0.0,0.0,0.0,0.0,0.0,0.0,0.0,0.0,0.0,-0.0129217426745508,0.00398557985446715,-1.1997582281041963e-05,0.0,0.0,0.0,0.0,0.0,0.0,0.0,0.0,0.0
11.602,328,11,602000000,base_footprint,0.0035700774390297315,0.0014787997196481256,-0.9245415270990669,0.3810617172687307,0.0,0.0,0.0,0.0,0.0,0.0,0.0,0.0,0.0,0.004679568790044506,0.0004280167354533725,0.045442085836854905,0.0,0.0,0.0,0.0,0.0,0.0,0.0,0.0,0.0,-0.014910105867481926,-0.32313523776370795,0.005305438752831895,0.0,0.0,0.0,0.0,0.0,0.0,0.0,0.0,0.0
