Time,header.seq,header.stamp.secs,header.stamp.nsecs,header.frame_id,orientation.x,orientation.y,orientation.z,orientation.w,orientation_covariance_0,orientation_covariance_1,orientation_covariance_2,orientation_covariance_3,orientation_covariance_4,orientation_covariance_5,orientation_covariance_6,orientation_covariance_7,orientation_covariance_8,angular_velocity.x,angular_velocity.y,angular_velocity.z,angular_velocity_covariance_0,angular_velocity_covariance_1,angular_velocity_covariance_2,angular_velocity_covariance_3,angular_velocity_covariance_4,angular_velocity_covariance_5,angular_velocity_covariance_6,angular_velocity_covariance_7,angular_velocity_covariance_8,linear_acceleration.x,linear_acceleration.y,linear_acceleration.z,linear_acceleration_covariance_0,linear_acceleration_covariance_1,linear_acceleration_covariance_2,linear_acceleration_covariance_3,linear_acceleration_covariance_4,linear_acceleration_covariance_5,linear_acceleration_covariance_6,linear_acceleration_covariance_7,linear_acceleration_covariance_8
0.193,0,0,193000000,base_footprint,-0.0009399992195042036,-0.0009275886438176795,-0.7079528345282616,0.7062584796405458,0.0,0.0,0.0,0.0,0.0,0.0,0.0,0.0,0.0,0.0008477610972250776,0.15725208481532496,-0.0004929989035538228,0.0,0.0,0.0,0.0,0.0,0.0,0.0,0.0,0.0,-0.0032022457166834715,-0.0003582068115719956,-0.1395151159109747,0.0,0.0,0.0,0.0,0.0,0.0,0.0,0.0,0.0
0.227,1,0,227000000,base_footprint,-0.0006913962845924705,-0.0006601935849935426,-0.7079535732361486,0.7062583268590731,0.0,0.0,0.0,0.0,0.0,0.0,0.0,0.0,0.0,0.0002199358450959074,-0.04766519905206569,4.053524000729066e-05,0.0,0.0,0.0,0.0,0.0,0.0,0.0,0.0,0.0,0.00202591090766111,0.0001485637524883029,0.005214459474864713,0.0,0.0,0.0,0.0,0.0,0.0,0.0,0.0,0.0
0.261,2,0,261000000,base_footprint,-0.00012138696307613703,-8.06216357009585e-05,-0.707954105190261,0.7062584255848661,0.0,0.0,0.0,0.0,0.0,0.0,0.0,0.0,0.0,0.00021480221457342158,-0.047642695582049574,6.191453907713609e-06,0.0,0.0,0.0,0.0,0.0,0.0,0.0,0.0,0.0,0.00020977238986519319,-0.00012128980327870002,6.60709207696689e-05,0.0,0.0,0.0,0.0,0.0,0.0,0.0,0.0,0.0
0.29500000000000004,3,0,295000000,base_footprint,0.0006390852637600886,0.0006933456529164742,-0.7079541189563178,0.7062577973336757,0.0,0.0,0.0,0.0,0.0,0.0,0.0,0.0,0.0,0.00028163475509054847,-0.06780640006677216,-0.0001505530034876768,0.0,0.0,0.0,0.0,0.0,0.0,0.0,0.0,0.0,0.0011871715959740833,1.8436232207006916e-05,0.002980274773908784,0.0,0.0,0.0,0.0,0.0,0.0,0.0,0.0,0.0
0.329,4,0,329000000,base_footprint,0.0014489901392836155,0.001516130264471416,-0.7079529631223257,0.7062564716750682,0.0,0.0,0.0,0.0,0.0,0.0,0.0,0.0,0.0,0.00027909900906061824,-0.06773045898685613,-0.000285588483281147,0.0,0.0,0.0,0.0,0.0,0.0,0.0,0.0,0.0,0.00023078510044837657,-4.0597759525291515e-05,0.00014937585674124477,0.0,0.0,0.0,0.0,0.0,0.0,0.0,0.0,0.0
0.36300000000000004,5,0,363000000,base_footprint,0.002257996549846082,0.002337982203838721,-0.707950721955059,0.7062543526054237,0.0,0.0,0.0,0.0,0.0,0.0,0.0,0.0,0.0,0.00027889838034417247,-0.06765356978196363,-0.00043471105060338184,0.0,0.0,0.0,0.0,0.0,0.0,0.0,0.0,0.0,0.0002329133565747882,-1.2434178895960406e-05,0.00015133527158880063,0.0,0.0,0.0,0.0,0.0,0.0,0.0,0.0,0.0
0.397,6,0,397000000,base_footprint,0.0027481202277652803,0.0027527553784414535,-0.7079532085957626,0.7062486280425648,0.0,0.0,0.0,0.0,0.0,0.0,0.0,0.0,0.0,0.0001661589220079071,0.029947853000837202,-0.00036877318108247993,0.0,0.0,0.0,0.0,0.0,0.0,0.0,0.0,0.0,-0.0069102982785169,-0.006441163753150921,0.13094226283622185,0.0,0.0,0.0,0.0,0.0,0.0,0.0,0.0,0.0
0.43100000000000005,7,0,431000000,base_footprint,0.0027279808916199537,0.002731603739342606,-0.7079570755532245,0.706244911935932,0.0,0.0,0.0,0.0,0.0,0.0,0.0,0.0,0.0,-4.520791896577528e-05,-0.00010391899623361835,7.015638698318248e-05,0.0,0.0,0.0,0.0,0.0,0.0,0.0,0.0,0.0,0.006251045684647633,0.005288376112379593,0.0007836028108006138,0.0,0.0,0.0,0.0,0.0,0.0,0.0,0.0,0.0
0.465,8,0,465000000,base_footprint,0.0027280452347686617,0.0027318543244279057,-0.7079547224716608,0.706247269496471,0.0,0.0,0.0,0.0,0.0,0.0,0.0,0.0,0.0,-2.844704475183236e-05,0.0001906820319584942,0.0002856521394489637,0.0,0.0,0.0,0.0,0.0,0.0,0.0,0.0,0.0,5.067018397279715e-05,-0.00041856431667058533,0.0002936893038540789,0.0,0.0,0.0,0.0,0.0,0.0,0.0,0.0,0.0
0.49900000000000005,9,0,499000000,base_footprint,0.0027279295744110713,0.0027318207304756295,-0.7079512118218436,0.7062507891929868,0.0,0.0,0.0,0.0,0.0,0.0,0.0,0.0,0.0,-3.100689409841139e-05,0.0001785647348111914,0.00032972715989486204,0.0,0.0,0.0,0.0,0.0,0.0,0.0,0.0,0.0,1.2546586781853567e-05,-8.659982478330225e-05,-1.905300940126912e-05,0.0,0.0,0.0,0.0,0.0,0.0,0.0,0.0,0.0
0.533,10,0,533000000,base_footprint,0.0027278874336862154,0.002731829634691416,-0.7079474148067683,0.7062545954579056,0.0,0.0,0.0,0.0,0.0,0.0,0.0,0.0,0.0,-3.1648500651036544e-05,0.00017657660616849353,0.00034118105441190735,0.0,0.0,0.0,0.0,0.0,0.0,0.0,0.0,0.0,3.212219165563255e-06,-2.2542238027200518e-05,-3.6053011169105946e-06,0.0,0.0,0.0,0.0,0.0,0.0,0.0,0.0,0.0
0.5670000000000001,11,0,567000000,base_footprint,0.002727862601849171,0.00273184587846585,-0.7079435430322962,0.7062584765244245,0.0,0.0,0.0,0.0,0.0,0.0,0.0,0.0,0.0,-3.185100236577567e-05,0.00017604389389774691,0.0003442201693593225,0.0,0.0,0.0,0.0,0.0,0.0,0.0,0.0,0.0,8.598835326850387e-07,-5.977312552456329e-06,-9.549853832168072e-07,0.0,0.0,0.0,0.0,0.0,0.0,0.0,0.0,0.0
0.6010000000000001,12,0,601000000,base_footprint,0.0027278426622611707,0.002731863862613957,-0.7079396513494115,0.7062623774784551,0.0,0.0,0.0,0.0,0.0,0.0,0.0,0.0,0.0,-3.1930175026486415e-05,0.00017590213817878094,0.0003450364664732907,0.0,0.0,0.0,0.0,0.0,0.0,0.0,0.0,0.0,2.381286127628526e-07,-1.6014776667704827e-06,-2.486510328233775e-07,0.0,0.0,0.0,0.0,0.0,0.0,0.0,0.0,0.0
0.635,13,0,635000000,base_footprint,0.0027278242512638975,0.0027318820729143782,-0.7079357542618829,0.706266283800135,0.0,0.0,0.0,0.0,0.0,0.0,0.0,0.0,0.0,-3.1974917315243516e-05,0.00017586395456713682,0.0003452649540613216,0.0,0.0,0.0,0.0,0.0,0.0,0.0,0.0,0.0,7.36739822460427e-08,-4.4427559755423057e-07,-6.220041045168367e-08,0.0,0.0,0.0,0.0,0.0,0.0,0.0,0.0,0.0
0.669,14,0,669000000,base_footprint,0.0027278064585802416,0.0027319001318070295,-0.7079318556049273,0.7062701916500219,0.0,0.0,0.0,0.0,0.0,0.0,0.0,0.0,0.0,-3.200881570344237e-05,0.00017585315200957473,0.0003453380167175281,0.0,0.0,0.0,0.0,0.0,0.0,0.0,0.0,0.0,3.0178317664773406e-08,-1.3825616268370697e-07,-1.3387153183487834e-08,0.0,0.0,0.0,0.0,0.0,0.0,0.0,0.0,0.0
0.7030000000000001,15,0,703000000,base_footprint,0.0027277890235616453,0.002731917959101742,-0.7079279563926963,0.706274100012855,0.0,0.0,0.0,0.0,0.0,0.0,0.0,0.0,0.0,-3.203826998254658e-05,0.00017584959408969416,0.0003453699851697513,0.0,0.0,0.0,0.0,0.0,0.0,0.0,0.0,0.0,1.867167142801191e-08,-5.7308559670835445e-08,-9.12143954895771e-10,0.0,0.0,0.0,0.0,0.0,0.0,0.0,0.0,0.0
0.7370000000000001,16,0,737000000,base_footprint,0.002727771859204093,0.0027319355514315836,-0.7079240568933878,0.7062780086201428,0.0,0.0,0.0,0.0,0.0,0.0,0.0,0.0,0.0,-3.2065118721225395e-05,0.00017584795571387563,0.000345391090229507,0.0,0.0,0.0,0.0,0.0,0.0,0.0,0.0,0.0,1.5625266432079608e-08,-3.587659317878011e-08,1.9945879044485753e-09,0.0,0.0,0.0,0.0,0.0,0.0,0.0,0.0,0.0
0.771,17,0,771000000,base_footprint,0.002727754926096926,0.002731952924085231,-0.7079201571779519,0.7062819174008547,0.0,0.0,0.0,0.0,0.0,0.0,0.0,0.0,0.0,-3.208998100728354e-05,0.0001758468286401018,0.00034540932534404194,0.0,0.0,0.0,0.0,0.0,0.0,0.0,0.0,0.0,1.4816708275501365e-08,-3.0184371785113624e-08,2.407743379826038e-09,0.0,0.0,0.0,0.0,0.0,0.0,0.0,0.0,0.0
0.805,18,0,805000000,base_footprint,0.002727738198937588,0.0027319700957809897,-0.707916257265179,0.7062858263361758,0.0,0.0,0.0,0.0,0.0,0.0,0.0,0.0,0.0,-3.21131410577678e-05,0.00017584583996923555,0.0003454268038350009,0.0,0.0,0.0,0.0,0.0,0.0,0.0,0.0,0.0,1.4600351561245673e-08,-2.8656194971735243e-08,2.194500041273348e-09,0.0,0.0,0.0,0.0,0.0,0.0,0.0,0.0,0.0
0.8390000000000001,19,0,839000000,base_footprint,0.002727721657535867,0.0027319870847805853,-0.7079123571600638,0.7062897354211018,0.0,0.0,0.0,0.0,0.0,0.0,0.0,0.0,0.0,-3.213478337837148e-05,0.00017584489109473338,0.0003454440844262286,0.0,0.0,0.0,0.0,0.0,0.0,0.0,0.0,0.0,1.4540992215435149e-08,-2.82314059107333e-08,1.8456312483494115e-09,0.0,0.0,0.0,0.0,0.0,0.0,0.0,0.0,0.0
0.8730000000000001,20,0,873000000,base_footprint,0.0027277052843077093,0.002732003907988494,-0.7079084568639503,0.7062936446542822,0.0,0.0,0.0,0.0,0.0,0.0,0.0,0.0,0.0,-3.215505585171226e-05,0.00017584395538294752,0.00034546131463643185,0.0,0.0,0.0,0.0,0.0,0.0,0.0,0.0,0.0,1.4523477466360122e-08,-2.8100210551105928e-08,1.4880966237795682e-09,0.0,0.0,0.0,0.0,0.0,0.0,0.0,0.0,0.0
0.907,21,0,907000000,base_footprint,0.0027276890634952327,0.0027320205808282053,-0.7079045563772136,0.7062975540353368,0.0,0.0,0.0,0.0,0.0,0.0,0.0,0.0,0.0,-3.217408770121881e-05,0.00017584302569414854,0.00034547853341701523,0.0,0.0,0.0,0.0,0.0,0.0,0.0,0.0,0.0,1.4517350468382306e-08,-2.804859256104518e-08,1.1527260284040182e-09,0.0,0.0,0.0,0.0,0.0,0.0,0.0,0.0,0.0
0.9410000000000001,22,0,941000000,base_footprint,0.0027276729808555626,0.00273203711731413,-0.7079006556999708,0.7063014635641431,0.0,0.0,0.0,0.0,0.0,0.0,0.0,0.0,0.0,-3.219199472944411e-05,0.00017584209984949722,0.0003454957509344156,0.0,0.0,0.0,0.0,0.0,0.0,0.0,0.0,0.0,1.451450957554514e-08,-2.801962156233128e-08,8.456441860611628e-10,0.0,0.0,0.0,0.0,0.0,0.0,0.0,0.0,0.0
0.9750000000000001,23,0,975000000,base_footprint,0.0027276570234822006,0.002732053530165255,-0.7078967548322681,0.7063053732406503,0.0,0.0,0.0,0.0,0.0,0.0,0.0,0.0,0.0,-3.2208881430651206e-05,0.00017584117708635213,0.0003455129697883995,0.0,0.0,0.0,0.0,0.0,0.0,0.0,0.0,0.0,1.451279420002065e-08,-2.7998148551307856e-08,5.662969625518564e-10,0.0,0.0,0.0,0.0,0.0,0.0,0.0,0.0,0.0
1.009,24,1,9000000,base_footprint,0.0027276411796712204,0.0027320698309203895,-0.7078928537741302,0.7063092830648284,0.0,0.0,0.0,0.0,0.0,0.0,0.0,0.0,0.0,-3.2224842786513614e-05,0.00017584025704792805,0.0003455301905744444,0.0,0.0,0.0,0.0,0.0,0.0,0.0,0.0,0.0,1.4511603360388346e-08,-2.7980020596152687e-08,3.12845498838737e-10,0.0,0.0,0.0,0.0,0.0,0.0,0.0,0.0,0.0
1.043,25,1,43000000,base_footprint,0.002727625438806589,0.002732086030046939,-0.7078889525255748,0.7063131930366547,0.0,0.0,0.0,0.0,0.0,0.0,0.0,0.0,0.0,-3.223996471970724e-05,0.00017583933943797513,0.00034554741340553244,0.0,0.0,0.0,0.0,0.0,0.0,0.0,0.0,0.0,1.4510771726901288e-08,-2.7964073930583098e-08,8.271355782627831e-11,0.0,0.0,0.0,0.0,0.0,0.0,0.0,0.0,0.0
1.077,26,1,77000000,base_footprint,0.0027276097912588256,0.0027321021370399373,-0.7078850510866155,0.7063171031561104,0.0,0.0,0.0,0.0,0.0,0.0,0.0,0.0,0.0,-3.2254325200832646e-05,0.00017583842396100058,0.0003455646381429751,0.0,0.0,0.0,0.0,0.0,0.0,0.0,0.0,0.0,1.4510198704540862e-08,-2.7949638534397794e-08,-1.260716602900633e-10,0.0,0.0,0.0,0.0,0.0,0.0,0.0,0.0,0.0
1.111,27,1,111000000,base_footprint,0.0027275942282928454,0.002732118160512436,-0.707881149457263,0.7063210134231793,0.0,0.0,0.0,0.0,0.0,0.0,0.0,0.0,0.0,-3.2267995084047125e-05,0.0001758375103965753,0.0003455818647834745,0.0,0.0,0.0,0.0,0.0,0.0,0.0,0.0,0.0,1.4509893207929638e-08,-2.793681436023915e-08,-3.1566469293573465e-10,0.0,0.0,0.0,0.0,0.0,0.0,0.0,0.0,0.0
1.145,28,1,145000000,base_footprint,0.0027275787419852363,0.0027321341082774675,-0.7078772476375261,0.7063249238378477,0.0,0.0,0.0,0.0,0.0,0.0,0.0,0.0,0.0,-3.2281038487711104e-05,0.00017583659862070532,0.0003455990932042285,0.0,0.0,0.0,0.0,0.0,0.0,0.0,0.0,0.0,1.450979498974157e-08,-2.792521438054197e-08,-4.873278702362896e-10,0.0,0.0,0.0,0.0,0.0,0.0,0.0,0.0,0.0
1.179,29,1,179000000,base_footprint,0.0027275633251481555,0.00273214998742209,-0.7078733456274117,0.7063288344001034,0.0,0.0,0.0,0.0,0.0,0.0,0.0,0.0,0.0,-3.229351367282663e-05,0.00017583568849888133,0.0003456163233671888,0.0,0.0,0.0,0.0,0.0,0.0,0.0,0.0,0.0,1.4509905055588498e-08,-2.791486965305756e-08,-6.432288264612897e-10,0.0,0.0,0.0,0.0,0.0,0.0,0.0,0.0,0.0
1.213,30,1,213000000,base_footprint,0.0027275479712617337,0.0027321658043749156,-0.7078694434269247,0.706332745109936,0.0,0.0,0.0,0.0,0.0,0.0,0.0,0.0,0.0,-3.2305473486015e-05,0.00017583477980881055,0.0003456335551738389,0.0,0.0,0.0,0.0,0.0,0.0,0.0,0.0,0.0,1.4510189632607516e-08,-2.7905538940782445e-08,-7.848386037660794e-10,0.0,0.0,0.0,0.0,0.0,0.0,0.0,0.0,0.0
1.247,31,1,247000000,base_footprint,0.002727532674411705,0.0027321815649676245,-0.7078655410360686,0.706336655967337,0.0,0.0,0.0,0.0,0.0,0.0,0.0,0.0,0.0,-3.231696571075711e-05,0.00017583387230991698,0.00034565078859407814,0.0,0.0,0.0,0.0,0.0,0.0,0.0,0.0,0.0,1.4510650632814714e-08,-2.7897240441568124e-08,-9.132848075007207e-10,0.0,0.0,0.0,0.0,0.0,0.0,0.0,0.0,0.0
1.2810000000000001,32,1,281000000,base_footprint,0.0027275174292330476,0.002732197274489864,-0.7078616384548452,0.7063405669722989,0.0,0.0,0.0,0.0,0.0,0.0,0.0,0.0,0.0,-3.2328033930384604e-05,0.0001758329660195554,0.00034566802349947346,0.0,0.0,0.0,0.0,0.0,0.0,0.0,0.0,0.0,1.4511234852474325e-08,-2.7889688392493693e-08,-1.0295501116812974e-09,0.0,0.0,0.0,0.0,0.0,0.0,0.0,0.0,0.0
1.315,33,1,315000000,base_footprint,0.002727502230859143,0.0027322129377400535,-0.7078577356832554,0.7063444781248157,0.0,0.0,0.0,0.0,0.0,0.0,0.0,0.0,0.0,-3.233871743242987e-05,0.00017583206082903615,0.0003456852599129154,0.0,0.0,0.0,0.0,0.0,0.0,0.0,0.0,0.0,1.4511974598976623e-08,-2.7883074361371916e-08,-1.1352877912252888e-09,0.0,0.0,0.0,0.0,0.0,0.0,0.0,0.0,0.0
1.348,34,1,349000000,base_footprint,0.0027242396036504172,0.002728678667802679,-0.7078548656745658,0.7063473805233177,0.0,0.0,0.0,0.0,0.0,0.0,0.0,0.0,0.0,-3.6488873625441425e-05,1.76514054283461e-05,-0.00017166670815152026,0.0,0.0,0.0,0.0,0.0,0.0,0.0,0.0,0.0,-0.5291071014220765,0.0021347864537729633,-0.00018340147314832968,0.0,0.0,0.0,0.0,0.0,0.0,0.0,0.0,0.0
1.383,35,1,383000000,base_footprint,0.002724372431837575,0.0027287972555556125,-0.7078635380434213,0.7063386885687635,0.0,0.0,0.0,0.0,0.0,0.0,0.0,0.0,0.0,-3.6397451781155615e-05,0.00031239111346930944,-0.0010376603040383853,0.0,0.0,0.0,0.0,0.0,0.0,0.0,0.0,0.0,-0.7864397314491889,0.003379263854717318,0.00032854760855525263,0.0,0.0,0.0,0.0,0.0,0.0,0.0,0.0,0.0
1.417,36,1,417000000,base_footprint,0.0027248910596701166,0.002729258105722468,-0.7078831770856261,0.7063190028011886,0.0,0.0,0.0,0.0,0.0,0.0,0.0,0.0,0.0,-3.494974736862469e-05,0.00030656598721580104,-0.0020064303690491055,0.0,0.0,0.0,0.0,0.0,0.0,0.0,0.0,0.0,-0.7860611290930104,0.0036198480787662524,3.5179031154066506e-06,0.0,0.0,0.0,0.0,0.0,0.0,0.0,0.0,0.0
1.451,37,1,451000000,base_footprint,0.002725634605009107,0.002729885175405411,-0.7079150418603521,0.7062870607272831,0.0,0.0,0.0,0.0,0.0,0.0,0.0,0.0,0.0,-3.425526550997546e-05,0.0003145659479751927,-0.0030902281564470077,0.0,0.0,0.0,0.0,0.0,0.0,0.0,0.0,0.0,-0.777709515284849,0.003895042602760801,1.9814895946126693e-05,0.0,0.0,0.0,0.0,0.0,0.0,0.0,0.0,0.0
1.485,38,1,485000000,base_footprint,0.0027267344696618187,0.002730793273397028,-0.7079607654968817,0.7062412209750286,0.0,0.0,0.0,0.0,0.0,0.0,0.0,0.0,0.0,-3.363130865810308e-05,0.0002855032734248055,-0.004322988605514552,0.0,0.0,0.0,0.0,0.0,0.0,0.0,0.0,0.0,-0.7504688078501471,0.004218621537036282,-1.8108424406678824e-05,0.0,0.0,0.0,0.0,0.0,0.0,0.0,0.0,0.0
1.5190000000000001,39,1,519000000,base_footprint,0.0027282944026773156,0.0027320590930188073,-0.708022499847958,0.7061793199831139,0.0,0.0,0.0,0.0,0.0,0.0,0.0,0.0,0.0,-3.3260893516580606e-05,0.00028320157645393847,-0.005747109250703572,0.0,0.0,0.0,0.0,0.0,0.0,0.0,0.0,0.0,-0.691089595893539,0.0045669688324630475,1.7652605234601097e-05,0.0,0.0,0.0,0.0,0.0,0.0,0.0,0.0,0.0
1.553,40,1,553000000,base_footprint,0.00273014834112799,0.00273360015804781,-0.7081016701649675,0.70609992099546,0.0,0.0,0.0,0.0,0.0,0.0,0.0,0.0,0.0,-2.621725276790067e-05,0.00017825009492315123,-0.007248958847241976,0.0,0.0,0.0,0.0,0.0,0.0,0.0,0.0,0.0,-0.587632686051212,0.0045799418874717945,-9.682839985091733e-05,0.0,0.0,0.0,0.0,0.0,0.0,0.0,0.0,0.0
1.5870000000000002,41,1,587000000,base_footprint,0.0027321990285494127,0.0027352511751876476,-0.7081980607582236,0.7060032296156785,0.0,0.0,0.0,0.0,0.0,0.0,0.0,0.0,0.0,-2.4578557378279755e-05,0.00011994630541917578,-0.008717427005495562,0.0,0.0,0.0,0.0,0.0,0.0,0.0,0.0,0.0,-0.43851397863654806,0.004213203900398976,-3.305813817418258e-05,0.0,0.0,0.0,0.0,0.0,0.0,0.0,0.0,0.0
1.621,42,1,621000000,base_footprint,0.0027332445269700025,0.002735759937118713,-0.7083209361744357,0.7058799447277796,0.0,0.0,0.0,0.0,0.0,0.0,0.0,0.0,0.0,-1.6817605926791596e-05,0.00040130579383670006,-0.012264110367462534,0.0,0.0,0.0,0.0,0.0,0.0,0.0,0.0,0.0,-0.2534343205669889,0.00776154151051657,0.0005548253678288906,0.0,0.0,0.0,0.0,0.0,0.0,0.0,0.0,0.0
1.655,43,1,655000000,base_footprint,0.0027308452313054388,0.002729758827162054,-0.7084980435031561,0.7057022128725886,0.0,0.0,0.0,0.0,0.0,0.0,0.0,0.0,0.0,-7.1062246315923e-05,0.0009771317789396517,-0.016281082998193544,0.0,0.0,0.0,0.0,0.0,0.0,0.0,0.0,0.0,-0.044278800857207534,0.007964630803231943,0.001075471631922298,0.0,0.0,0.0,0.0,0.0,0.0,0.0,0.0,0.0
1.689,44,1,689000000,base_footprint,0.0027225778568546973,0.002718692635535683,-0.7086545701135788,0.7055451059551797,0.0,0.0,0.0,0.0,0.0,0.0,0.0,0.0,0.0,3.054743722924415e-05,-0.0015671618641787842,-0.006837426263073966,0.0,0.0,0.0,0.0,0.0,0.0,0.0,0.0,0.0,-0.034428428283740965,-0.018181677463304007,-0.004321550169522884,0.0,0.0,0.0,0.0,0.0,0.0,0.0,0.0,0.0
1.723,45,1,723000000,base_footprint,0.0027265579423697123,0.0027217019300407627,-0.7087826023871086,0.7054164591032371,0.0,0.0,0.0,0.0,0.0,0.0,0.0,0.0,0.0,-2.0818333282462178e-05,0.0002462135315684735,-0.013174499350756368,0.0,0.0,0.0,0.0,0.0,0.0,0.0,0.0,0.0,-0.2170212669576903,0.013351444166178672,0.0027690490953329707,0.0,0.0,0.0,0.0,0.0,0.0,0.0,0.0,0.0
1.7570000000000001,46,1,757000000,base_footprint,0.002737235235732574,0.0027220409114077342,-0.7090017560474854,0.7051961485701145,0.0,0.0,0.0,0.0,0.0,0.0,0.0,0.0,0.0,-7.331419866140584e-05,0.0004934846474640196,-0.04004474718870657,0.0,0.0,0.0,0.0,0.0,0.0,0.0,0.0,0.0,-0.33532976190697483,0.008781660713638728,1.041345109638206e-05,0.0,0.0,0.0,0.0,0.0,0.0,0.0,0.0,0.0
1.791,47,1,791000000,base_footprint,0.0027434364265526263,0.0027280203429803696,-0.7101810126402927,0.7040084947973215,0.0,0.0,0.0,0.0,0.0,0.0,0.0,0.0,0.0,0.0006277814507542221,0.0002926017040015972,-0.13896391234640987,0.0,0.0,0.0,0.0,0.0,0.0,0.0,0.0,0.0,-0.26571735486577874,0.021114545711350685,-0.0013918771382064692,0.0,0.0,0.0,0.0,0.0,0.0,0.0,0.0,0.0
1.8250000000000002,48,1,825000000,base_footprint,0.002745846839924802,0.002718351462961726,-0.711839170221824,0.7023318778386473,0.0,0.0,0.0,0.0,0.0,0.0,0.0,0.0,0.0,-4.2417243213652665e-05,0.0014327593915943833,-0.1389408986271845,0.0,0.0,0.0,0.0,0.0,0.0,0.0,0.0,0.0,-0.000313155426277939,0.033578090600100044,0.002339785395257616,0.0,0.0,0.0,0.0,0.0,0.0,0.0,0.0,0.0
1.859,49,1,859000000,base_footprint,0.002750665359011975,0.002710482498925203,-0.7134663400908962,0.7006788627338544,0.0,0.0,0.0,0.0,0.0,0.0,0.0,0.0,0.0,-1.6748580473243768e-05,0.0013084630006014735,-0.13662679835623015,0.0,0.0,0.0,0.0,0.0,0.0,0.0,0.0,0.0,-0.004042373321389223,0.030410459982596453,3.8245374060017983e-05,0.0,0.0,0.0,0.0,0.0,0.0,0.0,0.0,0.0
1.893,50,1,893000000,base_footprint,0.002756470660617399,0.0027040980874049555,-0.715095259653385,0.6990163512710477,0.0,0.0,0.0,0.0,0.0,0.0,0.0,0.0,0.0,1.1120976273041022e-05,0.0012321785038210851,-0.13724364564655794,0.0,0.0,0.0,0.0,0.0,0.0,0.0,0.0,0.0,-0.004578647904616607,0.03058789406230069,6.737699950578384e-05,0.0,0.0,0.0,0.0,0.0,0.0,0.0,0.0,0.0
1.927,51,1,927000000,base_footprint,0.0027634118784376945,0.002698893829857431,-0.7167215810263333,0.6973487325707264,0.0,0.0,0.0,0.0,0.0,0.0,0.0,0.0,0.0,-0.0006938731295209426,0.0009045122238870164,-0.12164162829327671,0.0,0.0,0.0,0.0,0.0,0.0,0.0,0.0,0.0,0.0002662005413737057,0.02836258449274439,0.001321934555550726,0.0,0.0,0.0,0.0,0.0,0.0,0.0,0.0,0.0
1.961,52,1,961000000,base_footprint,0.0027673931033547292,0.002700530742305878,-0.717347790605497,0.69670452559355,0.0,0.0,0.0,0.0,0.0,0.0,0.0,0.0,0.0,7.697608599495405e-05,0.0002913277496181218,-0.04878729715283503,0.0,0.0,0.0,0.0,0.0,0.0,0.0,0.0,0.0,0.014425343066346154,0.013934112370289579,-0.001509545147397778,0.0,0.0,0.0,0.0,0.0,0.0,0.0,0.0,0.0
1.995,53,1,995000000,base_footprint,0.002771991926670726,0.0027020495597756444,-0.7179264248883778,0.6961082268124171,0.0,0.0,0.0,0.0,0.0,0.0,0.0,0.0,0.0,7.532714770798468e-05,0.00033273914246035745,-0.04881539706808956,0.0,0.0,0.0,0.0,0.0,0.0,0.0,0.0,0.0,-0.0035936102754040066,0.01178763066250577,5.646658540790064e-06,0.0,0.0,0.0,0.0,0.0,0.0,0.0,0.0,0.0
2.029,54,2,29000000,base_footprint,0.0027776900282881394,0.0027023893823273594,-0.7184980536574311,0.6955181726024249,0.0,0.0,0.0,0.0,0.0,0.0,0.0,0.0,0.0,0.00018280544743562557,0.0002985975816074784,-0.0442097213555946,0.0,0.0,0.0,0.0,0.0,0.0,0.0,0.0,0.0,-0.001698010206334981,0.011157996435022136,0.00029741479456601007,0.0,0.0,0.0,0.0,0.0,0.0,0.0,0.0,0.0
2.063,55,2,63000000,base_footprint,0.002781385592566706,0.0027028453311855453,-0.7189881292791921,0.6950115311826912,0.0,0.0,0.0,0.0,0.0,0.0,0.0,0.0,0.0,2.1488795415982234e-05,0.00030841705615232233,-0.04107815765519163,0.0,0.0,0.0,0.0,0.0,0.0,0.0,0.0,0.0,0.007079790315123459,0.009516272070173377,-0.00019613156428552314,0.0,0.0,0.0,0.0,0.0,0.0,0.0,0.0,0.0
2.097,56,2,97000000,base_footprint,0.002783594549124932,0.0026990628249012323,-0.7194715037024444,0.6945111388749621,0.0,0.0,0.0,0.0,0.0,0.0,0.0,0.0,0.0,-0.0003505165886353148,0.0007381339387097175,-0.04129696163653483,0.0,0.0,0.0,0.0,0.0,0.0,0.0,0.0,0.0,0.0074098021946433935,0.005570150936294072,0.0008942666985525746,0.0,0.0,0.0,0.0,0.0,0.0,0.0,0.0,0.0
2.1310000000000002,57,2,131000000,base_footprint,0.0027838903759150923,0.0026939481457932996,-0.7199684408204255,0.6939959919339362,0.0,0.0,0.0,0.0,0.0,0.0,0.0,0.0,0.0,0.0006338820072198529,0.001390982953423533,-0.04013193534316844,0.0,0.0,0.0,0.0,0.0,0.0,0.0,0.0,0.0,0.027639050160910783,0.006063301888558026,0.001528580644286554,0.0,0.0,0.0,0.0,0.0,0.0,0.0,0.0,0.0
2.165,58,2,165000000,base_footprint,0.002782325473837389,0.0026964311939023373,-0.7205458934595622,0.6933964258217197,0.0,0.0,0.0,0.0,0.0,0.0,0.0,0.0,0.0,-0.00026869963716564453,0.000948521616117598,-0.060688477056041516,0.0,0.0,0.0,0.0,0.0,0.0,0.0,0.0,0.0,0.06582623332517319,0.008943654383713844,-0.0012167360870241847,0.0,0.0,0.0,0.0,0.0,0.0,0.0,0.0,0.0
2.199,59,2,199000000,base_footprint,0.0027776501708436127,0.0026894196054768602,-0.7212035592713497,0.6927124062524439,0.0,0.0,0.0,0.0,0.0,0.0,0.0,0.0,0.0,-0.0001924256149616918,0.00016073473753714816,-0.04796164297607987,0.0,0.0,0.0,0.0,0.0,0.0,0.0,0.0,0.0,-0.02878268245101402,0.01355209970496528,-0.0010222865884124562,0.0,0.0,0.0,0.0,0.0,0.0,0.0,0.0,0.0
2.229,60,2,233000000,base_footprint,0.002784670370581516,0.0026859958238516115,-0.7216336137774966,0.6922643703844599,0.0,0.0,0.0,0.0,0.0,0.0,0.0,0.0,0.0,-8.397576066065626e-06,0.0003147869350839602,-0.035497710497956074,0.0,0.0,0.0,0.0,0.0,0.0,0.0,0.0,0.0,-0.03254290803134744,0.010816542962608568,0.00047021694005040484,0.0,0.0,0.0,0.0,0.0,0.0,0.0,0.0,0.0
2.267,61,2,267000000,base_footprint,0.0027853763824443154,0.002682749108153783,-0.722048462609234,0.6918316718532569,0.0,0.0,0.0,0.0,0.0,0.0,0.0,0.0,0.0,-4.314187407654664e-05,0.0004658440889119659,-0.03485958319682274,0.0,0.0,0.0,0.0,0.0,0.0,0.0,0.0,0.0,-0.005163175254235853,0.008086581346052744,0.0002719913436864113,0.0,0.0,0.0,0.0,0.0,0.0,0.0,0.0,0.0
2.301,62,2,301000000,base_footprint,0.00278522317949167,0.0026794709067963682,-0.72245970120315,0.691402229606584,0.0,0.0,0.0,0.0,0.0,0.0,0.0,0.0,0.0,0.00011713121807220426,0.0005448597005420315,-0.03513808434631045,0.0,0.0,0.0,0.0,0.0,0.0,0.0,0.0,0.0,-0.004459255096016745,0.008135649406893531,0.00030167754346173783,0.0,0.0,0.0,0.0,0.0,0.0,0.0,0.0,0.0
2.335,63,2,335000000,base_footprint,0.0027894756373829316,0.0026785645139626984,-0.7230157407101752,0.6908207313067043,0.0,0.0,0.0,0.0,0.0,0.0,0.0,0.0,0.0,0.0005207860759052522,0.002480336412322426,-0.11210474575967311,0.0,0.0,0.0,0.0,0.0,0.0,0.0,0.0,0.0,0.11526555007432521,0.00022083359090611238,0.0014549771953869407,0.0,0.0,0.0,0.0,0.0,0.0,0.0,0.0,0.0
2.369,64,2,369000000,base_footprint,0.002792851260905586,0.0026669540978906292,-0.7251288490264414,0.688602381383671,0.0,0.0,0.0,0.0,0.0,0.0,0.0,0.0,0.0,4.4706252410721e-05,0.0015106222847057402,-0.19238376322894263,0.0,0.0,0.0,0.0,0.0,0.0,0.0,0.0,0.0,0.17666128079610813,0.01892047965677683,-0.0014611372923580578,0.0,0.0,0.0,0.0,0.0,0.0,0.0,0.0,0.0
2.402,65,2,403000000,base_footprint,0.0028020578991348076,0.0026593090213774965,-0.7273784703238846,0.6862256461662918,0.0,0.0,0.0,0.0,0.0,0.0,0.0,0.0,0.0,0.00010126898722100878,0.0015748884824073033,-0.1926681509522807,0.0,0.0,0.0,0.0,0.0,0.0,0.0,0.0,0.0,-0.0009829839757000726,0.04109850234653831,0.0003054948902244956,0.0,0.0,0.0,0.0,0.0,0.0,0.0,0.0,0.0
2.437,66,2,437000000,base_footprint,0.0028106369263540504,0.0026522708395995743,-0.7293422071268477,0.6841381517521151,0.0,0.0,0.0,0.0,0.0,0.0,0.0,0.0,0.0,0.0022486363371465646,-0.0017969335594456763,-0.06203798704150155,0.0,0.0,0.0,0.0,0.0,0.0,0.0,0.0,0.0,0.006387324870731816,0.03801198940878843,-0.0049740840162057825,0.0,0.0,0.0,0.0,0.0,0.0,0.0,0.0,0.0
2.471,67,2,471000000,base_footprint,0.0028110309724474034,0.002660018288478228,-0.7292692550055919,0.6842158841412306,0.0,0.0,0.0,0.0,0.0,0.0,0.0,0.0,0.0,0.0003417751344965222,-4.4131121211177585e-05,-0.021400477695517447,0.0,0.0,0.0,0.0,0.0,0.0,0.0,0.0,0.0,-0.06853860942947712,0.007484316678058215,0.004645161108675135,0.0,0.0,0.0,0.0,0.0,0.0,0.0,0.0,0.0
2.505,68,2,505000000,base_footprint,0.0028191692341502685,0.002659386998105604,-0.7299419407977438,0.6834981660619485,0.0,0.0,0.0,0.0,0.0,0.0,0.0,0.0,0.0,6.564016329201514e-06,0.00039736373205325544,-0.06099729590404939,0.0,0.0,0.0,0.0,0.0,0.0,0.0,0.0,0.0,0.09264002514654474,-0.0004780079408240531,0.00013502049769072602,0.0,0.0,0.0,0.0,0.0,0.0,0.0,0.0,0.0
2.539,69,2,539000000,base_footprint,0.002821435673780963,0.0026579159091125273,-0.7304669759052318,0.6829370191281364,0.0,0.0,0.0,0.0,0.0,0.0,0.0,0.0,0.0,-0.0002698015857658224,-0.0027368140887062465,-0.001566389554983423,0.0,0.0,0.0,0.0,0.0,0.0,0.0,0.0,0.0,0.007920168913743583,0.010680527384329699,-0.003908726625381678,0.0,0.0,0.0,0.0,0.0,0.0,0.0,0.0,0.0
2.573,70,2,573000000,base_footprint,0.0028248092934996054,0.0026514760973112344,-0.7304337974051918,0.6829725160906494,0.0,0.0,0.0,0.0,0.0,0.0,0.0,0.0,0.0,-0.0005665962006450277,0.00046380587465797297,0.000603248701986578,0.0,0.0,0.0,0.0,0.0,0.0,0.0,0.0,0.0,0.02268697583524872,-0.010714675252815374,0.004981823550588729,0.0,0.0,0.0,0.0,0.0,0.0,0.0,0.0,0.0
2.607,71,2,607000000,base_footprint,0.002826996357400476,0.002648971905045948,-0.7303903117918933,0.6830190213163778,0.0,0.0,0.0,0.0,0.0,0.0,0.0,0.0,0.0,3.223998879268987e-05,-0.00021070468490042889,0.009598748191946185,0.0,0.0,0.0,0.0,0.0,0.0,0.0,0.0,0.0,0.03336382385266873,-0.0005145990731062512,-0.0013088321823743823,0.0,0.0,0.0,0.0,0.0,0.0,0.0,0.0,0.0
2.641,72,2,641000000,base_footprint,0.0028126374887943962,0.002639893617708476,-0.7305287370720029,0.6828710598231765,0.0,0.0,0.0,0.0,0.0,0.0,0.0,0.0,0.0,0.0008421423954797554,0.00017420529816161923,-0.05575202166732468,0.0,0.0,0.0,0.0,0.0,0.0,0.0,0.0,0.0,-0.05448718671775094,-0.0051287188762933755,0.000877863193523391,0.0,0.0,0.0,0.0,0.0,0.0,0.0,0.0,0.0
2.675,73,2,675000000,base_footprint,0.0028112805693831996,0.0026470602567499396,-0.7316758394332389,0.6816418089900461,0.0,0.0,0.0,0.0,0.0,0.0,0.0,0.0,0.0,9.010986791859696e-05,-0.0005553236775753662,-0.10411848010774483,0.0,0.0,0.0,0.0,0.0,0.0,0.0,0.0,0.0,-0.07202116827902058,0.042486720676418274,-0.002035497010135978,0.0,0.0,0.0,0.0,0.0,0.0,0.0,0.0,0.0
2.709,74,2,709000000,base_footprint,0.002816177874275768,0.00263913963508007,-0.7326643725584737,0.680579180748034,0.0,0.0,0.0,0.0,0.0,0.0,0.0,0.0,0.0,-3.993263627940038e-05,0.0007342146612792861,-0.060707768210698426,0.0,0.0,0.0,0.0,0.0,0.0,0.0,0.0,0.0,-0.09197897833874959,0.03301950002951507,0.002639666251626944,0.0,0.0,0.0,0.0,0.0,0.0,0.0,0.0,0.0
2.743,75,2,743000000,base_footprint,0.0028161945144851157,0.0026301882461630837,-0.7332199229067782,0.6799806584093585,0.0,0.0,0.0,0.0,0.0,0.0,0.0,0.0,0.0,4.171298121375845e-05,0.0007556887717867617,-0.08081832887783158,0.0,0.0,0.0,0.0,0.0,0.0,0.0,0.0,0.0,-0.34155614270542217,0.06276767585639037,0.000112100812349859,0.0,0.0,0.0,0.0,0.0,0.0,0.0,0.0,0.0
2.777,76,2,777000000,base_footprint,0.0028331203134338984,0.002632157141616707,-0.7343160148217922,0.6787967557040273,0.0,0.0,0.0,0.0,0.0,0.0,0.0,0.0,0.0,0.0005356598315753966,0.00045888925402671284,-0.14572505553070303,0.0,0.0,0.0,0.0,0.0,0.0,0.0,0.0,0.0,0.1636670437878165,-0.005126754147948248,0.00034156548072631775,0.0,0.0,0.0,0.0,0.0,0.0,0.0,0.0,0.0
2.811,77,2,811000000,base_footprint,0.0028358877994814043,0.002622546918065702,-0.7360376133075024,0.6769296209981115,0.0,0.0,0.0,0.0,0.0,0.0,0.0,0.0,0.0,0.00024758103927761255,0.0014051458170903652,-0.1491242367652349,0.0,0.0,0.0,0.0,0.0,0.0,0.0,0.0,0.0,0.010953058158269876,0.032683347687461346,0.00011692130142732414,0.0,0.0,0.0,0.0,0.0,0.0,0.0,0.0,0.0
2.845,78,2,845000000,base_footprint,0.002839302457980972,0.002617600387436999,-0.7372553148351204,0.6756032025361717,0.0,0.0,0.0,0.0,0.0,0.0,0.0,0.0,0.0,0.0003558484759325191,0.0008771939065408731,-0.058757523937601336,0.0,0.0,0.0,0.0,0.0,0.0,0.0,0.0,0.0,0.023298092956961284,0.021672088249040378,0.0003291478672480531,0.0,0.0,0.0,0.0,0.0,0.0,0.0,0.0,0.0
2.879,79,2,879000000,base_footprint,0.002842566771264456,0.0026162860698485096,-0.737933003766479,0.6748629170531846,0.0,0.0,0.0,0.0,0.0,0.0,0.0,0.0,0.0,0.00016302689914128723,0.0004965923663833327,-0.05914504072535021,0.0,0.0,0.0,0.0,0.0,0.0,0.0,0.0,0.0,-0.004108405928469511,0.013176925317621036,-0.00042518407378855784,0.0,0.0,0.0,0.0,0.0,0.0,0.0,0.0,0.0
2.9130000000000003,80,2,913000000,base_footprint,0.002846451616256075,0.0026158600686782816,-0.7386112347233635,0.674120537389068,0.0,0.0,0.0,0.0,0.0,0.0,0.0,0.0,0.0,0.00017061240800735885,0.0004045029299552257,-0.05917432181025519,0.0,0.0,0.0,0.0,0.0,0.0,0.0,0.0,0.0,-0.00261005259913835,0.013953688648017524,-9.210772356622445e-05,0.0,0.0,0.0,0.0,0.0,0.0,0.0,0.0,0.0
2.947,81,2,947000000,base_footprint,0.0028512142492915175,0.002617038701459867,-0.7392478746485697,0.6734223054765207,0.0,0.0,0.0,0.0,0.0,0.0,0.0,0.0,0.0,0.00016561844057469332,0.00023269612814627602,-0.05301681580962484,0.0,0.0,0.0,0.0,0.0,0.0,0.0,0.0,0.0,-0.0001312838090274807,0.012811465382132145,-0.00015146746979195243,0.0,0.0,0.0,0.0,0.0,0.0,0.0,0.0,0.0
2.981,82,2,981000000,base_footprint,0.0028567489383138117,0.002618898140116929,-0.7398467347454785,0.6727642896620545,0.0,0.0,0.0,0.0,0.0,0.0,0.0,0.0,0.0,4.457545828725156e-05,0.00031262606708606325,-0.05142960335778603,0.0,0.0,0.0,0.0,0.0,0.0,0.0,0.0,0.0,0.002317724344214899,0.01172609709063623,0.00011298588805438582,0.0,0.0,0.0,0.0,0.0,0.0,0.0,0.0,0.0
3.015,83,3,15000000,base_footprint,0.002860957441106844,0.002615853790121615,-0.7404220361156195,0.6721310740219272,0.0,0.0,0.0,0.0,0.0,0.0,0.0,0.0,0.0,-0.0003551652361092291,0.0007879347480700865,-0.049567432583764004,0.0,0.0,0.0,0.0,0.0,0.0,0.0,0.0,0.0,0.004947119369962751,0.008478956115885793,0.0009986270739900751,0.0,0.0,0.0,0.0,0.0,0.0,0.0,0.0,0.0
3.049,84,3,49000000,base_footprint,0.0028672896882479815,0.002615509216742764,-0.7406942059733126,0.6718311030303262,0.0,0.0,0.0,0.0,0.0,0.0,0.0,0.0,0.0,-0.0010522456994158788,-0.001593055971707756,0.003779055464078099,0.0,0.0,0.0,0.0,0.0,0.0,0.0,0.0,0.0,-0.05210028160745009,0.019934765840073504,-0.003183694207517522,0.0,0.0,0.0,0.0,0.0,0.0,0.0,0.0,0.0
3.083,85,3,83000000,base_footprint,0.0028650641586943286,0.00260345611431765,-0.740506694568254,0.6720378328064767,0.0,0.0,0.0,0.0,0.0,0.0,0.0,0.0,0.0,4.706944430255767e-05,0.0002962354050285837,0.040905019171552655,0.0,0.0,0.0,0.0,0.0,0.0,0.0,0.0,0.0,0.10191478337515054,-0.02868655504024637,0.0032050259367514405,0.0,0.0,0.0,0.0,0.0,0.0,0.0,0.0,0.0
3.117,86,3,117000000,base_footprint,0.0028560331773102897,0.002612502230843387,-0.7401504468286155,0.67243017032699,0.0,0.0,0.0,0.0,0.0,0.0,0.0,0.0,0.0,0.00045555862355258576,0.0003817919122106595,0.018019673333005838,0.0,0.0,0.0,0.0,0.0,0.0,0.0,0.0,0.0,0.03093207508744933,-0.017788227822519893,4.057096656960978e-05,0.0,0.0,0.0,0.0,0.0,0.0,0.0,0.0,0.0
3.151,87,3,151000000,base_footprint,0.0028596883754334413,0.0026104560611261915,-0.7404256766974576,0.6721270899083449,0.0,0.0,0.0,0.0,0.0,0.0,0.0,0.0,0.0,-0.00031131670279614296,0.000867121115211979,-0.04490683400811612,0.0,0.0,0.0,0.0,0.0,0.0,0.0,0.0,0.0,-0.02325784904329845,0.014125976290422261,-0.0003478640959136038,0.0,0.0,0.0,0.0,0.0,0.0,0.0,0.0,0.0
3.185,88,3,185000000,base_footprint,0.002861841653965891,0.0026057581881873816,-0.7408666002856045,0.6716410503147219,0.0,0.0,0.0,0.0,0.0,0.0,0.0,0.0,0.0,0.00012448721626565735,0.0008850056625448954,-0.03757492492268025,0.0,0.0,0.0,0.0,0.0,0.0,0.0,0.0,0.0,-0.01914649820698277,0.013724745706161964,0.0007712627418731196,0.0,0.0,0.0,0.0,0.0,0.0,0.0,0.0,0.0
3.219,89,3,219000000,base_footprint,0.002862063934197511,0.0026013220167481047,-0.7412913326833293,0.6711722594106341,0.0,0.0,0.0,0.0,0.0,0.0,0.0,0.0,0.0,-0.00015036436444064037,0.0005325825403255393,-0.0369389667675917,0.0,0.0,0.0,0.0,0.0,0.0,0.0,0.0,0.0,-0.004916535305884002,0.01057675465726358,-0.0004704010533218817,0.0,0.0,0.0,0.0,0.0,0.0,0.0,0.0,0.0
3.253,90,3,253000000,base_footprint,0.0028630080450649446,0.0025964144686623156,-0.7420746461126297,0.6703061102314795,0.0,0.0,0.0,0.0,0.0,0.0,0.0,0.0,0.0,7.920442392824698e-05,0.0008573863233856142,-0.07893672636041135,0.0,0.0,0.0,0.0,0.0,0.0,0.0,0.0,0.0,-0.0281018553005674,0.020499099485443917,0.0002785942182715845,0.0,0.0,0.0,0.0,0.0,0.0,0.0,0.0,0.0
3.287,91,3,287000000,base_footprint,0.002863450573861924,0.002593153151073696,-0.7427308167763748,0.6695789796717379,0.0,0.0,0.0,0.0,0.0,0.0,0.0,0.0,0.0,0.00011812179429638052,0.000876504835618906,-0.037100041867388356,0.0,0.0,0.0,0.0,0.0,0.0,0.0,0.0,0.0,0.3578748480949795,-0.06084277746111269,0.00017572488508061084,0.0,0.0,0.0,0.0,0.0,0.0,0.0,0.0,0.0
3.321,92,3,321000000,base_footprint,0.0028644408546876776,0.0025921560559329063,-0.7431563775094556,0.6691066239939605,0.0,0.0,0.0,0.0,0.0,0.0,0.0,0.0,0.0,8.7837118013097e-05,0.0004363980938072613,-0.03761178076068802,0.0,0.0,0.0,0.0,0.0,0.0,0.0,0.0,0.0,-0.00517767505718662,0.008369157820339432,-0.0005287197271338386,0.0,0.0,0.0,0.0,0.0,0.0,0.0,0.0,0.0
3.355,93,3,355000000,base_footprint,0.002863447218733609,0.0025877094949383773,-0.7438161630856496,0.6683731143322102,0.0,0.0,0.0,0.0,0.0,0.0,0.0,0.0,0.0,-9.552966232777906e-05,0.0006157748967852271,-0.07839197742636175,0.0,0.0,0.0,0.0,0.0,0.0,0.0,0.0,0.0,-0.6192294579088546,0.14573874110718346,0.0008360451882741034,0.0,0.0,0.0,0.0,0.0,0.0,0.0,0.0,0.0
3.3890000000000002,94,3,389000000,base_footprint,0.0028706527024326017,0.0025930150489384234,-0.7443881395974928,0.6677359757064176,0.0,0.0,0.0,0.0,0.0,0.0,0.0,0.0,0.0,9.130853045425194e-06,0.0008610191964096129,-0.024892640122121362,0.0,0.0,0.0,0.0,0.0,0.0,0.0,0.0,0.0,0.28558761015662515,-0.04991477531931279,0.00027141679893095467,0.0,0.0,0.0,0.0,0.0,0.0,0.0,0.0,0.0
3.423,95,3,423000000,base_footprint,0.0028738024685680615,0.002594488703712759,-0.7446673187398954,0.667424598204526,0.0,0.0,0.0,0.0,0.0,0.0,0.0,0.0,0.0,0.0001142930849833604,0.00013363269834505378,-0.024183753207475317,0.0,0.0,0.0,0.0,0.0,0.0,0.0,0.0,0.0,-0.0030864271870762166,0.007097946080928143,-0.001122801873660979,0.0,0.0,0.0,0.0,0.0,0.0,0.0,0.0,0.0
3.456,96,3,457000000,base_footprint,0.002877181355554125,0.0025960740793721415,-0.7448300377379776,0.6672429820613063,0.0,0.0,0.0,0.0,0.0,0.0,0.0,0.0,0.0,3.705701405865977e-05,-8.372613746901555e-06,-0.012168800700699867,0.0,0.0,0.0,0.0,0.0,0.0,0.0,0.0,0.0,0.0042568320716365095,0.0025413460090143586,-0.00010583144016021216,0.0,0.0,0.0,0.0,0.0,0.0,0.0,0.0,0.0
3.491,97,3,491000000,base_footprint,0.002879306888734626,0.002595248232364819,-0.7449532614724692,0.6671053983442077,0.0,0.0,0.0,0.0,0.0,0.0,0.0,0.0,0.0,-0.0002781553922880697,0.0005424144716544183,-0.009996898848530805,0.0,0.0,0.0,0.0,0.0,0.0,0.0,0.0,0.0,0.0038624262770924605,0.0008027136182530176,0.0009207117598749339,0.0,0.0,0.0,0.0,0.0,0.0,0.0,0.0,0.0
3.525,98,3,525000000,base_footprint,0.002883922146044288,0.0025892355532650176,-0.7450665531772283,0.666978867872821,0.0,0.0,0.0,0.0,0.0,0.0,0.0,0.0,0.0,-6.655463389144877e-05,0.00029552394521707823,-0.007191511220769138,0.0,0.0,0.0,0.0,0.0,0.0,0.0,0.0,0.0,0.013467749321570351,0.0009227241719538919,-0.0003419239961530262,0.0,0.0,0.0,0.0,0.0,0.0,0.0,0.0,0.0
3.559,99,3,559000000,base_footprint,0.002884808870741093,0.002590904437459672,-0.7450441976711785,0.6670038295305998,0.0,0.0,0.0,0.0,0.0,0.0,0.0,0.0,0.0,0.00030285106854220417,-9.91744928154481e-05,-0.00137270967876113,0.0,0.0,0.0,0.0,0.0,0.0,0.0,0.0,0.0,0.015082238969426039,-0.004811447613444031,-0.0005380907380043911,0.0,0.0,0.0,0.0,0.0,0.0,0.0,0.0,0.0
3.593,100,3,593000000,base_footprint,0.0028734211929637536,0.0025918491550791815,-0.7451024049757331,0.666938851670814,0.0,0.0,0.0,0.0,0.0,0.0,0.0,0.0,0.0,0.0002097891633540681,4.849591638612547e-05,-0.014273116345187926,0.0,0.0,0.0,0.0,0.0,0.0,0.0,0.0,0.0,0.025351439071543642,-0.009590657383290593,0.00019324170330036795,0.0,0.0,0.0,0.0,0.0,0.0,0.0,0.0,0.0
3.627,101,3,627000000,base_footprint,0.002873906950885154,0.002587590575063467,-0.7454092228147845,0.6665959312630948,0.0,0.0,0.0,0.0,0.0,0.0,0.0,0.0,0.0,0.0004343137549624451,0.000456737603255178,-0.028377878439011125,0.0,0.0,0.0,0.0,0.0,0.0,0.0,0.0,0.0,0.03303299469547581,0.0012062089246896723,0.0017159618039676414,0.0,0.0,0.0,0.0,0.0,0.0,0.0,0.0,0.0
3.661,102,3,661000000,base_footprint,0.002879592554155119,0.0025846848056335974,-0.7455813094229633,0.6664034351579508,0.0,0.0,0.0,0.0,0.0,0.0,0.0,0.0,0.0,-0.00080441366688612,-0.0010849162569527017,0.00019821873050466366,0.0,0.0,0.0,0.0,0.0,0.0,0.0,0.0,0.0,-0.05664568224192016,0.019213408410133533,-0.0033261449160689165,0.0,0.0,0.0,0.0,0.0,0.0,0.0,0.0,0.0
3.6950000000000003,103,3,695000000,base_footprint,0.0028761711607773422,0.0025830843493825162,-0.7456021480131804,0.6663801409051965,0.0,0.0,0.0,0.0,0.0,0.0,0.0,0.0,0.0,9.985502760191114e-05,0.00026703088181726723,-0.0024492993226092104,0.0,0.0,0.0,0.0,0.0,0.0,0.0,0.0,0.0,-0.0006628793466290624,-0.001356017125891733,0.002105339390088201,0.0,0.0,0.0,0.0,0.0,0.0,0.0,0.0,0.0
3.729,104,3,729000000,base_footprint,0.0028747292686075536,0.0025825015430255152,-0.7456266803955935,0.6663526994765311,0.0,0.0,0.0,0.0,0.0,0.0,0.0,0.0,0.0,-8.652377061777754e-05,0.00026083285443448715,0.0031258872969071026,0.0,0.0,0.0,0.0,0.0,0.0,0.0,0.0,0.0,-0.0036933208839072234,0.001105224627160797,-0.00015059954560430207,0.0,0.0,0.0,0.0,0.0,0.0,0.0,0.0,0.0
3.763,105,3,763000000,base_footprint,0.0028733214009289466,0.0025825305115325875,-0.7455765404615468,0.6664088061195437,0.0,0.0,0.0,0.0,0.0,0.0,0.0,0.0,0.0,0.0001553203484224373,0.00013900980356690082,0.004312099247430722,0.0,0.0,0.0,0.0,0.0,0.0,0.0,0.0,0.0,-0.004434455801133674,0.0009062094879143806,0.00014031712054325405,0.0,0.0,0.0,0.0,0.0,0.0,0.0,0.0,0.0
3.797,106,3,797000000,base_footprint,0.002872277459787004,0.0025833324847808294,-0.7455279708524336,0.6664631430860376,0.0,0.0,0.0,0.0,0.0,0.0,0.0,0.0,0.0,0.0001454007042210829,7.056572128261323e-05,0.0041877286632936534,0.0,0.0,0.0,0.0,0.0,0.0,0.0,0.0,0.0,-0.0056107690279575875,0.0004561421655114792,-0.00014835454546234994,0.0,0.0,0.0,0.0,0.0,0.0,0.0,0.0,0.0
3.831,107,3,831000000,base_footprint,0.002871067635896962,0.0025840213262125033,-0.7454179331337879,0.6665862170544539,0.0,0.0,0.0,0.0,0.0,0.0,0.0,0.0,0.0,0.0016416440140583338,-0.0009701427595134946,0.06036091547599723,0.0,0.0,0.0,0.0,0.0,0.0,0.0,0.0,0.0,0.004265788717599889,-0.0030005944111246843,-0.0033814449434833613,0.0,0.0,0.0,0.0,0.0,0.0,0.0,0.0,0.0
3.865,108,3,865000000,base_footprint,0.002870232456929737,0.0025920615362014614,-0.7446436310038798,0.6674510512299711,0.0,0.0,0.0,0.0,0.0,0.0,0.0,0.0,0.0,9.717352834157245e-05,-0.000610309091275207,0.06818649183248192,0.0,0.0,0.0,0.0,0.0,0.0,0.0,0.0,0.0,-0.0016400564109031483,-0.014179359523108812,0.0028500195372459618,0.0,0.0,0.0,0.0,0.0,0.0,0.0,0.0,0.0
3.899,109,3,899000000,base_footprint,0.002869359844339346,0.0025980424169787827,-0.7438661484884885,0.6683174171623731,0.0,0.0,0.0,0.0,0.0,0.0,0.0,0.0,0.0,3.2375386772316906e-05,-0.0005859553542535037,0.06881351223903516,0.0,0.0,0.0,0.0,0.0,0.0,0.0,0.0,0.0,-0.006529901483877812,-0.012984512311438696,-7.760243535823277e-05,0.0,0.0,0.0,0.0,0.0,0.0,0.0,0.0,0.0
3.933,110,3,933000000,base_footprint,0.002860260559068576,0.0025936333677601094,-0.7431119384193057,0.6691559900009787,0.0,0.0,0.0,0.0,0.0,0.0,0.0,0.0,0.0,0.0018464061392405257,0.0016811207432387695,0.04348877560727957,0.0,0.0,0.0,0.0,0.0,0.0,0.0,0.0,0.0,0.09425136497321798,-0.035580170116896334,0.0026946796307960206,0.0,0.0,0.0,0.0,0.0,0.0,0.0,0.0,0.0
3.967,111,3,967000000,base_footprint,0.002874183351656632,0.00260666966565302,-0.7430195690978425,0.6692584435634502,0.0,0.0,0.0,0.0,0.0,0.0,0.0,0.0,0.0,-1.3602298140916641e-05,-0.00048575438133985615,0.01428764999074793,0.0,0.0,0.0,0.0,0.0,0.0,0.0,0.0,0.0,0.2277345401916721,-0.05308891304473494,-0.004015225600571341,0.0,0.0,0.0,0.0,0.0,0.0,0.0,0.0,0.0
4.001,112,4,1000000,base_footprint,0.002876084351049541,0.0026028464780190022,-0.7427987121546219,0.6695035672425149,0.0,0.0,0.0,0.0,0.0,0.0,0.0,0.0,0.0,-7.268969379862262e-05,9.471000582538616e-05,0.021392578524552834,0.0,0.0,0.0,0.0,0.0,0.0,0.0,0.0,0.0,0.02456930286643634,-0.003213681784852566,0.0013325494474657775,0.0,0.0,0.0,0.0,0.0,0.0,0.0,0.0,0.0
4.035,113,4,35000000,base_footprint,0.0028701524504243098,0.0026021730770048835,-0.7425676999016783,0.6697598091726016,0.0,0.0,0.0,0.0,0.0,0.0,0.0,0.0,0.0,0.0008480007453525979,0.002561721740953305,0.03600083592344135,0.0,0.0,0.0,0.0,0.0,0.0,0.0,0.0,0.0,-0.0029135356462354385,-0.013476049375044645,0.005135313749068336,0.0,0.0,0.0,0.0,0.0,0.0,0.0,0.0,0.0
4.069,114,4,69000000,base_footprint,0.0028614949197619272,0.002604595929631493,-0.7420546516699916,0.6703282195028009,0.0,0.0,0.0,0.0,0.0,0.0,0.0,0.0,0.0,-2.6681913700460802e-05,0.00023877386834137652,0.03420245072585548,0.0,0.0,0.0,0.0,0.0,0.0,0.0,0.0,0.0,0.03911480604363124,-0.016993757830969285,-0.0048151802655103555,0.0,0.0,0.0,0.0,0.0,0.0,0.0,0.0,0.0
4.103,115,4,103000000,base_footprint,0.0028602711983226167,0.002604241338950406,-0.7418082928792271,0.6706008450571229,0.0,0.0,0.0,0.0,0.0,0.0,0.0,0.0,0.0,0.0008750412369464098,3.262805025976742e-05,0.020380648148184896,0.0,0.0,0.0,0.0,0.0,0.0,0.0,0.0,0.0,0.026594896847877393,-0.00725061644241046,0.0003403175687661373,0.0,0.0,0.0,0.0,0.0,0.0,0.0,0.0,0.0
4.1370000000000005,116,4,137000000,base_footprint,0.0028501551165687525,0.00259369131596265,-0.7415564022030907,0.6708794614032964,0.0,0.0,0.0,0.0,0.0,0.0,0.0,0.0,0.0,-0.0001380982382417985,-0.0003244237620345272,-0.008554595114298694,0.0,0.0,0.0,0.0,0.0,0.0,0.0,0.0,0.0,-0.17028235944157744,0.028694746661376405,-0.000885233172509529,0.0,0.0,0.0,0.0,0.0,0.0,0.0,0.0,0.0
4.171,117,4,171000000,base_footprint,0.0028603034019037644,0.0026001441294940353,-0.7417363778662324,0.6706804035193193,0.0,0.0,0.0,0.0,0.0,0.0,0.0,0.0,0.0,-0.001883331554152698,-0.0024576138010878796,0.013445484977465698,0.0,0.0,0.0,0.0,0.0,0.0,0.0,0.0,0.0,-0.23230382626168433,0.05688957592574921,-0.0036152117853300203,0.0,0.0,0.0,0.0,0.0,0.0,0.0,0.0,0.0
4.205,118,4,205000000,base_footprint,0.002860066212744538,0.002599402253516749,-0.741588263864852,0.6708441771582264,0.0,0.0,0.0,0.0,0.0,0.0,0.0,0.0,0.0,-3.9174023222557356e-05,0.00012628779185128628,0.012598317124965884,0.0,0.0,0.0,0.0,0.0,0.0,0.0,0.0,0.0,-0.00537959304427376,-0.005280068644955519,0.004122855670754794,0.0,0.0,0.0,0.0,0.0,0.0,0.0,0.0,0.0
4.239,119,4,239000000,base_footprint,0.002857672209612347,0.0025993557255769946,-0.7414606847827163,0.6709851935630918,0.0,0.0,0.0,0.0,0.0,0.0,0.0,0.0,0.0,1.7297591211385153e-05,6.813123693625862e-05,0.008558891253733053,0.0,0.0,0.0,0.0,0.0,0.0,0.0,0.0,0.0,-0.0070787451845320684,-0.0008791844020933737,-8.083789549955561e-05,0.0,0.0,0.0,0.0,0.0,0.0,0.0,0.0,0.0
4.273,120,4,273000000,base_footprint,0.002856490954146841,0.0026003532905088515,-0.7413632933783509,0.671092799732942,0.0,0.0,0.0,0.0,0.0,0.0,0.0,0.0,0.0,4.2287912062643756e-05,9.307911046691869e-05,0.0084028472795026,0.0,0.0,0.0,0.0,0.0,0.0,0.0,0.0,0.0,-0.005846501600229103,-0.0005265637421550244,-3.405300772530315e-05,0.0,0.0,0.0,0.0,0.0,0.0,0.0,0.0,0.0
4.307,121,4,307000000,base_footprint,0.002856396621842754,0.002602687175380191,-0.7412683021410275,0.6711977139850556,0.0,0.0,0.0,0.0,0.0,0.0,0.0,0.0,0.0,9.007246198829941e-05,-6.205527174813094e-05,0.008222132363297259,0.0,0.0,0.0,0.0,0.0,0.0,0.0,0.0,0.0,-0.005681707310874396,-0.0005924939046419273,-0.00033354064360217455,0.0,0.0,0.0,0.0,0.0,0.0,0.0,0.0,0.0
4.341,122,4,341000000,base_footprint,0.002856936920893736,0.0026052754680044965,-0.7411478579484594,0.6713306957897696,0.0,0.0,0.0,0.0,0.0,0.0,0.0,0.0,0.0,0.0001163979515538034,-5.917060414597386e-05,0.013924760759802549,0.0,0.0,0.0,0.0,0.0,0.0,0.0,0.0,0.0,-0.0036393637691684764,-0.0004599895684848272,-2.772830643138745e-05,0.0,0.0,0.0,0.0,0.0,0.0,0.0,0.0,0.0
4.375,123,4,375000000,base_footprint,0.0028581698883818705,0.002609253073189162,-0.7409875633014029,0.6715075976457293,0.0,0.0,0.0,0.0,0.0,0.0,0.0,0.0,0.0,0.00012658899306435713,-0.00024161023092178046,0.014280038977207178,0.0,0.0,0.0,0.0,0.0,0.0,0.0,0.0,0.0,-0.0047902074240202454,-0.002178997705415498,-0.00038510117240572153,0.0,0.0,0.0,0.0,0.0,0.0,0.0,0.0,0.0
4.409,124,4,409000000,base_footprint,0.0028600116454750952,0.0026138026330711716,-0.7408159810667337,0.6716968591301554,0.0,0.0,0.0,0.0,0.0,0.0,0.0,0.0,0.0,4.753201394523734e-05,-0.00021126531622769724,0.01603241226890863,0.0,0.0,0.0,0.0,0.0,0.0,0.0,0.0,0.0,-0.0009553833137324212,-0.0027458120190257986,-8.028495834190822e-05,0.0,0.0,0.0,0.0,0.0,0.0,0.0,0.0,0.0
4.443,125,4,443000000,base_footprint,0.0028613858876011763,0.0026151982288855303,-0.7406234260458423,0.6719091560628897,0.0,0.0,0.0,0.0,0.0,0.0,0.0,0.0,0.0,-0.00032166128905622925,0.00023801679084768684,0.017053355978839207,0.0,0.0,0.0,0.0,0.0,0.0,0.0,0.0,0.0,0.00015844666407302185,-0.004903207749198547,0.0007850256662613811,0.0,0.0,0.0,0.0,0.0,0.0,0.0,0.0,0.0
4.477,126,4,477000000,base_footprint,0.0028658755366223984,0.0026095017745846817,-0.740448142595325,0.6721023176459299,0.0,0.0,0.0,0.0,0.0,0.0,0.0,0.0,0.0,-0.0002609384063050988,-3.8137903421538795e-05,0.015594049334571706,0.0,0.0,0.0,0.0,0.0,0.0,0.0,0.0,0.0,0.00395269779772959,-0.005350621160405861,-0.0005196504271499577,0.0,0.0,0.0,0.0,0.0,0.0,0.0,0.0,0.0
4.51,127,4,511000000,base_footprint,0.0028657286839118275,0.002609824982963789,-0.7401957014641656,0.672380323884214,0.0,0.0,0.0,0.0,0.0,0.0,0.0,0.0,0.0,0.00031907530725296335,-0.00026021527890751416,0.022440053710090394,0.0,0.0,0.0,0.0,0.0,0.0,0.0,0.0,0.0,0.034390924703144934,-0.010276665608001188,-0.0004868838789898295,0.0,0.0,0.0,0.0,0.0,0.0,0.0,0.0,0.0
4.545,128,4,545000000,base_footprint,0.002854547494753085,0.0026144625077018026,-0.7400562526112507,0.6725338349223693,0.0,0.0,0.0,0.0,0.0,0.0,0.0,0.0,0.0,-2.6891471658236363e-07,-0.0005328519775131666,0.0014397695903722316,0.0,0.0,0.0,0.0,0.0,0.0,0.0,0.0,0.0,0.04248036448554416,-0.013673411980338224,-0.0007135239628874725,0.0,0.0,0.0,0.0,0.0,0.0,0.0,0.0,0.0
4.579,129,4,579000000,base_footprint,0.002852187998704574,0.0026118617377193713,-0.7401140688969068,0.6724702285029038,0.0,0.0,0.0,0.0,0.0,0.0,0.0,0.0,0.0,-0.0001165670062101455,0.0008607165699007873,-0.001336382707979087,0.0,0.0,0.0,0.0,0.0,0.0,0.0,0.0,0.0,0.004435362843873976,-4.918262998448346e-05,0.0017964564422425738,0.0,0.0,0.0,0.0,0.0,0.0,0.0,0.0,0.0
4.6129999999999995,130,4,613000000,base_footprint,0.0028585703990075036,0.002610331210663266,-0.7399717902798855,0.6726267645107692,0.0,0.0,0.0,0.0,0.0,0.0,0.0,0.0,0.0,-1.266568274368841e-05,0.00033817561643549555,0.023215360982102553,0.0,0.0,0.0,0.0,0.0,0.0,0.0,0.0,0.0,-0.055772296852538955,0.010195145007913825,0.00034655497253487577,0.0,0.0,0.0,0.0,0.0,0.0,0.0,0.0,0.0
4.647,131,4,647000000,base_footprint,0.0028574842689653075,0.002607448240838661,-0.7402537838684408,0.6723164221300711,0.0,0.0,0.0,0.0,0.0,0.0,0.0,0.0,0.0,-0.00023394171433240813,0.0006325597278776798,-0.06480411802331035,0.0,0.0,0.0,0.0,0.0,0.0,0.0,0.0,0.0,-0.051669470372647464,0.01576164597796006,-0.0008529014280214313,0.0,0.0,0.0,0.0,0.0,0.0,0.0,0.0,0.0
4.681,132,4,681000000,base_footprint,0.0028569045469516597,0.002603818749392166,-0.7407007717293056,0.6718239538628712,0.0,0.0,0.0,0.0,0.0,0.0,0.0,0.0,0.0,0.0012451205898593965,0.002007774924769529,0.017596138869266725,0.0,0.0,0.0,0.0,0.0,0.0,0.0,0.0,0.0,0.3826250297331396,-0.06468656540389037,0.002114578959196488,0.0,0.0,0.0,0.0,0.0,0.0,0.0,0.0,0.0
4.715,133,4,715000000,base_footprint,0.002853702176657692,0.002603466811721278,-0.7405008605301615,0.6720443094756011,0.0,0.0,0.0,0.0,0.0,0.0,0.0,0.0,0.0,3.4395741109267134e-05,0.00012732946684293147,0.017275804080851716,0.0,0.0,0.0,0.0,0.0,0.0,0.0,0.0,0.0,-0.007066168590433383,-0.004576292075273767,-0.0018495733060125577,0.0,0.0,0.0,0.0,0.0,0.0,0.0,0.0,0.0
4.749,134,4,749000000,base_footprint,0.0028520990487869518,0.00260498141443072,-0.740262231662449,0.6723071530014961,0.0,0.0,0.0,0.0,0.0,0.0,0.0,0.0,0.0,2.0716628241533946e-05,-2.3799483340747146e-05,0.022728934366905144,0.0,0.0,0.0,0.0,0.0,0.0,0.0,0.0,0.0,-0.004642184310047908,-0.0034195017843213437,-0.00022088840857553793,0.0,0.0,0.0,0.0,0.0,0.0,0.0,0.0,0.0
4.783,135,4,783000000,base_footprint,0.0028513562982402352,0.002607706377235716,-0.7400033623549047,0.6725920705287466,0.0,0.0,0.0,0.0,0.0,0.0,0.0,0.0,0.0,4.7047271328141783e-05,-0.00011306554982101397,0.022530039927174107,0.0,0.0,0.0,0.0,0.0,0.0,0.0,0.0,0.0,-0.0060260094724086215,-0.0035133741430041,-0.00023751360180120968,0.0,0.0,0.0,0.0,0.0,0.0,0.0,0.0,0.0
4.817,136,4,817000000,base_footprint,0.00285138246039343,0.0026103866294835735,-0.7397452545099812,0.6728759275896801,0.0,0.0,0.0,0.0,0.0,0.0,0.0,0.0,0.0,8.849746266922508e-05,-7.37980503292086e-05,0.022455999282008865,0.0,0.0,0.0,0.0,0.0,0.0,0.0,0.0,0.0,-0.005499524477889603,-0.0025667252681571824,-5.8980036058558504e-05,0.0,0.0,0.0,0.0,0.0,0.0,0.0,0.0,0.0
4.851,137,4,851000000,base_footprint,0.002848267703842126,0.0026082814644733786,-0.7394924778905867,0.6731537412672751,0.0,0.0,0.0,0.0,0.0,0.0,0.0,0.0,0.0,-1.7091952561118586e-05,-0.0001383009443364759,0.02460946427064093,0.0,0.0,0.0,0.0,0.0,0.0,0.0,0.0,0.0,-0.46514590548911383,0.08248069630740054,0.0003074839132815279,0.0,0.0,0.0,0.0,0.0,0.0,0.0,0.0,0.0
4.885,138,4,885000000,base_footprint,0.0028565027086931696,0.00262207384066345,-0.7393566078295783,0.673302882497757,0.0,0.0,0.0,0.0,0.0,0.0,0.0,0.0,0.0,0.0003053160957848586,-9.598844521435887e-05,0.03321379784954259,0.0,0.0,0.0,0.0,0.0,0.0,0.0,0.0,0.0,0.13378517225784825,-0.0259124661501701,-0.0007413471207741452,0.0,0.0,0.0,0.0,0.0,0.0,0.0,0.0,0.0
4.9190000000000005,139,4,919000000,base_footprint,0.0028558070046406005,0.0026226903879367795,-0.7390076636555614,0.6736858607094482,0.0,0.0,0.0,0.0,0.0,0.0,0.0,0.0,0.0,-7.35581566057827e-05,-0.00017297970229217908,0.03170304059641292,0.0,0.0,0.0,0.0,0.0,0.0,0.0,0.0,0.0,-0.008824390224647068,-0.0034525462629419815,0.0003628784528029791,0.0,0.0,0.0,0.0,0.0,0.0,0.0,0.0,0.0
4.953,140,4,953000000,base_footprint,0.002858054367617255,0.0026162505057662475,-0.7386985368167497,0.6740248203614729,0.0,0.0,0.0,0.0,0.0,0.0,0.0,0.0,0.0,-0.00045134770097295595,-6.831485415894327e-05,0.02462421689221868,0.0,0.0,0.0,0.0,0.0,0.0,0.0,0.0,0.0,0.001962099199299223,-0.013619888642691298,4.328394655135608e-05,0.0,0.0,0.0,0.0,0.0,0.0,0.0,0.0,0.0
4.987,141,4,987000000,base_footprint,0.0028585419219745033,0.002616471940362607,-0.7383414786931163,0.6744159277878364,0.0,0.0,0.0,0.0,0.0,0.0,0.0,0.0,0.0,0.00030758601017028887,-0.0003547074426893839,0.03371634480081584,0.0,0.0,0.0,0.0,0.0,0.0,0.0,0.0,0.0,0.04081607734583291,-0.010596329267991615,-0.0006582640694194055,0.0,0.0,0.0,0.0,0.0,0.0,0.0,0.0,0.0
5.021,142,5,21000000,base_footprint,0.0028472872331259703,0.002622692506262182,-0.7381348995418786,0.6746420417656541,0.0,0.0,0.0,0.0,0.0,0.0,0.0,0.0,0.0,-4.7460013108027585e-05,-0.00047337028011837444,0.00448763020723365,0.0,0.0,0.0,0.0,0.0,0.0,0.0,0.0,0.0,0.030308487084850212,-0.013781762161930614,-0.0005277185442734893,0.0,0.0,0.0,0.0,0.0,0.0,0.0,0.0,0.0
5.055,143,5,55000000,base_footprint,0.0028424819743648124,0.0026212302000667327,-0.7380674815357963,0.6747158232529239,0.0,0.0,0.0,0.0,0.0,0.0,0.0,0.0,0.0,0.0006481471914880221,0.0005646928901204256,0.01137010128316323,0.0,0.0,0.0,0.0,0.0,0.0,0.0,0.0,0.0,0.020282622178695198,-0.0039539851773532034,0.0024018899680750203,0.0,0.0,0.0,0.0,0.0,0.0,0.0,0.0,0.0
5.089,144,5,89000000,base_footprint,0.0028505741032612366,0.0026201853385337463,-0.7377494920721411,0.6750634753883307,0.0,0.0,0.0,0.0,0.0,0.0,0.0,0.0,0.0,-0.00010971733801579952,1.4216093983188854e-05,0.04055523958107765,0.0,0.0,0.0,0.0,0.0,0.0,0.0,0.0,0.0,-0.0651679768326538,0.009129360338002296,-0.0006539842818115976,0.0,0.0,0.0,0.0,0.0,0.0,0.0,0.0,0.0
5.123,145,5,123000000,base_footprint,0.002844412210835442,0.002618890759153435,-0.7373055993289372,0.6755482987385604,0.0,0.0,0.0,0.0,0.0,0.0,0.0,0.0,0.0,-0.00011216548133173941,-2.0151219675081515e-05,0.038425738346314436,0.0,0.0,0.0,0.0,0.0,0.0,0.0,0.0,0.0,-0.0015080531951235671,-0.00958699405770981,-0.0002921885973962307,0.0,0.0,0.0,0.0,0.0,0.0,0.0,0.0,0.0
5.157,146,5,157000000,base_footprint,0.00284135610872853,0.002619295389459701,-0.7368735668547871,0.6760195355593135,0.0,0.0,0.0,0.0,0.0,0.0,0.0,0.0,0.0,-1.5430856351326405e-05,8.193575617892958e-06,0.037363392710513546,0.0,0.0,0.0,0.0,0.0,0.0,0.0,0.0,0.0,-0.006594058498402585,-0.006835821823356719,7.853816880198572e-05,0.0,0.0,0.0,0.0,0.0,0.0,0.0,0.0,0.0
5.191,147,5,191000000,base_footprint,0.002837860961880331,0.0026203852268656615,-0.7364449534144344,0.6764864453311947,0.0,0.0,0.0,0.0,0.0,0.0,0.0,0.0,0.0,8.938063195064268e-06,-4.352638835227235e-05,0.037166579952225956,0.0,0.0,0.0,0.0,0.0,0.0,0.0,0.0,0.0,-0.006979740887140829,-0.00702526704914897,-0.00016181616137678223,0.0,0.0,0.0,0.0,0.0,0.0,0.0,0.0,0.0
5.225,148,5,225000000,base_footprint,0.0028355980594427046,0.0026226206663487726,-0.7360183717119144,0.6769505430583743,0.0,0.0,0.0,0.0,0.0,0.0,0.0,0.0,0.0,7.460962208337458e-06,-0.0001270661135428816,0.03695321074338988,0.0,0.0,0.0,0.0,0.0,0.0,0.0,0.0,0.0,-0.0069440411481764865,-0.007011073046396936,-0.00022996196080020265,0.0,0.0,0.0,0.0,0.0,0.0,0.0,0.0,0.0
5.259,149,5,259000000,base_footprint,0.0028348623200286547,0.002625655988808787,-0.7357032856994639,0.6772929535269566,0.0,0.0,0.0,0.0,0.0,0.0,0.0,0.0,0.0,2.6829155877376968e-05,-0.0001275961398778889,0.02670800430351281,0.0,0.0,0.0,0.0,0.0,0.0,0.0,0.0,0.0,-0.009092906717397651,-0.004546673095378875,-0.00021954464153608555,0.0,0.0,0.0,0.0,0.0,0.0,0.0,0.0,0.0
5.293,150,5,293000000,base_footprint,0.002835243972139512,0.0026299545343586098,-0.735396048046854,0.6776265175211453,0.0,0.0,0.0,0.0,0.0,0.0,0.0,0.0,0.0,7.417240638333995e-05,-0.00020732436870035204,0.026697706368755486,0.0,0.0,0.0,0.0,0.0,0.0,0.0,0.0,0.0,-0.005790942979866807,-0.004648418493131286,-0.0003120112445371214,0.0,0.0,0.0,0.0,0.0,0.0,0.0,0.0,0.0
5.327,151,5,327000000,base_footprint,0.00283509035545532,0.002634016273659085,-0.7350931685619198,0.6779550558514505,0.0,0.0,0.0,0.0,0.0,0.0,0.0,0.0,0.0,0.0027041135182403675,-0.0011417651959520422,0.014196784611286716,0.0,0.0,0.0,0.0,0.0,0.0,0.0,0.0,0.0,-0.0018035368492596562,-0.0008027750149009074,-0.0021476778866233994,0.0,0.0,0.0,0.0,0.0,0.0,0.0,0.0,0.0
5.361,152,5,361000000,base_footprint,0.002841935182239609,0.0026367576729412106,-0.7356323418830126,0.6773699347395843,0.0,0.0,0.0,0.0,0.0,0.0,0.0,0.0,0.0,-0.00026976383855586457,0.001036977678535255,-0.05478512258895834,0.0,0.0,0.0,0.0,0.0,0.0,0.0,0.0,0.0,0.00844352395314108,0.004013902184047951,0.00989865869739378,0.0,0.0,0.0,0.0,0.0,0.0,0.0,0.0,0.0
5.395,153,5,395000000,base_footprint,0.0028450297170879734,0.0026214164492219215,-0.7360611428740469,0.676904002006681,0.0,0.0,0.0,0.0,0.0,0.0,0.0,0.0,0.0,0.0001617859044670169,-0.00023724369748430473,-0.0076639544981099185,0.0,0.0,0.0,0.0,0.0,0.0,0.0,0.0,0.0,0.21796000590656045,-0.028005579834651795,-0.009037302107268632,0.0,0.0,0.0,0.0,0.0,0.0,0.0,0.0,0.0
5.429,154,5,429000000,base_footprint,0.002849931784508971,0.002634140032484789,-0.7359839420814114,0.6769878700489536,0.0,0.0,0.0,0.0,0.0,0.0,0.0,0.0,0.0,0.00015976224670563626,-0.0008582319787286615,0.015340900578245414,0.0,0.0,0.0,0.0,0.0,0.0,0.0,0.0,0.0,0.06434339172953209,-0.01630144507781856,-0.0003256231231561316,0.0,0.0,0.0,0.0,0.0,0.0,0.0,0.0,0.0
5.463,155,5,463000000,base_footprint,0.0028447773749965626,0.002624999782595475,-0.7357242220582263,0.6772701718624894,0.0,0.0,0.0,0.0,0.0,0.0,0.0,0.0,0.0,-2.1954885797428205e-06,-0.00019090195030054365,0.03779156213277571,0.0,0.0,0.0,0.0,0.0,0.0,0.0,0.0,0.0,0.04839770151598988,-0.012106963234930237,0.0022028357018945835,0.0,0.0,0.0,0.0,0.0,0.0,0.0,0.0,0.0
5.497,156,5,497000000,base_footprint,0.00283888379462242,0.0026364491859387964,-0.7352661054326352,0.6777674705062317,0.0,0.0,0.0,0.0,0.0,0.0,0.0,0.0,0.0,-0.00018830540772899715,0.00030503048348661275,0.018656372254768475,0.0,0.0,0.0,0.0,0.0,0.0,0.0,0.0,0.0,0.06517151677610865,-0.018086205362906754,-0.00013114135513268797,0.0,0.0,0.0,0.0,0.0,0.0,0.0,0.0,0.0
5.531,157,5,531000000,base_footprint,0.002832172534304996,0.00262479449747536,-0.7350795230056304,0.6779698991182402,0.0,0.0,0.0,0.0,0.0,0.0,0.0,0.0,0.0,0.0009934223591474536,0.003988802381868651,0.002310186052551826,0.0,0.0,0.0,0.0,0.0,0.0,0.0,0.0,0.0,-0.03231384942908239,0.0006287994212568274,0.007622823880975876,0.0,0.0,0.0,0.0,0.0,0.0,0.0,0.0,0.0
5.565,158,5,565000000,base_footprint,0.0028345569279941,0.0026278896350831965,-0.7356423912827017,0.6773590861802594,0.0,0.0,0.0,0.0,0.0,0.0,0.0,0.0,0.0,-0.0003086912895532954,0.0010936291713719189,-0.033739076265791236,0.0,0.0,0.0,0.0,0.0,0.0,0.0,0.0,0.0,-0.24345667852463043,0.05291449916776367,-0.007371840960287352,0.0,0.0,0.0,0.0,0.0,0.0,0.0,0.0,0.0
5.599,159,5,599000000,base_footprint,0.0028378630580078944,0.0026275690705457218,-0.7354133827053002,0.6776077028428701,0.0,0.0,0.0,0.0,0.0,0.0,0.0,0.0,0.0,2.397708183527077e-05,0.0009068450437591893,0.03930088166888023,0.0,0.0,0.0,0.0,0.0,0.0,0.0,0.0,0.0,-0.09779208116983479,0.012216339749481879,0.0011564864435905996,0.0,0.0,0.0,0.0,0.0,0.0,0.0,0.0,0.0
5.633,160,5,633000000,base_footprint,0.0028341600927388032,0.0026273870656400656,-0.734957128773979,0.6781025610024526,0.0,0.0,0.0,0.0,0.0,0.0,0.0,0.0,0.0,-3.765510307717298e-05,-4.6451729576433385e-05,0.04241466060820891,0.0,0.0,0.0,0.0,0.0,0.0,0.0,0.0,0.0,-0.004722787555406016,-0.007654604399732564,-0.0012019611537150555,0.0,0.0,0.0,0.0,0.0,0.0,0.0,0.0,0.0
5.667,161,5,667000000,base_footprint,0.002830194991328785,0.0026285294626977583,-0.7344712354034547,0.6786288272642844,0.0,0.0,0.0,0.0,0.0,0.0,0.0,0.0,0.0,-2.342052822036769e-06,-7.188927761706996e-05,0.041994570423613084,0.0,0.0,0.0,0.0,0.0,0.0,0.0,0.0,0.0,-0.00692350112826066,-0.008370879277066347,-0.00017426139286917073,0.0,0.0,0.0,0.0,0.0,0.0,0.0,0.0,0.0
5.7010000000000005,162,5,701000000,base_footprint,0.002827743970108552,0.002630796917907335,-0.733987680865344,0.6791517997543186,0.0,0.0,0.0,0.0,0.0,0.0,0.0,0.0,0.0,-4.226548929178388e-06,-0.0001559877826363011,0.04177357614453749,0.0,0.0,0.0,0.0,0.0,0.0,0.0,0.0,0.0,-0.007025488140641598,-0.008141003346427587,-0.00023722972228014028,0.0,0.0,0.0,0.0,0.0,0.0,0.0,0.0,0.0
5.735,163,5,735000000,base_footprint,0.0028262081373549,0.0026336370754288514,-0.7335331184313417,0.6796427301661592,0.0,0.0,0.0,0.0,0.0,0.0,0.0,0.0,0.0,0.0001425663712423747,-0.0002163096955565995,0.03125864465805757,0.0,0.0,0.0,0.0,0.0,0.0,0.0,0.0,0.0,-0.00946366961109478,-0.007486866217207927,-0.0003909302438149865,0.0,0.0,0.0,0.0,0.0,0.0,0.0,0.0,0.0
5.769,164,5,769000000,base_footprint,0.0028265571241357468,0.002638576660177428,-0.7331685480315767,0.6800359760081096,0.0,0.0,0.0,0.0,0.0,0.0,0.0,0.0,0.0,3.0387821019924273e-05,-0.00027762895490497717,0.031510521729548824,0.0,0.0,0.0,0.0,0.0,0.0,0.0,0.0,0.0,-0.006209634619274528,-0.005725183414458064,-0.00015239512544897496,0.0,0.0,0.0,0.0,0.0,0.0,0.0,0.0,0.0
5.803,165,5,803000000,base_footprint,0.00282747543933806,0.002642141994180509,-0.7328042533341067,0.6804285052551554,0.0,0.0,0.0,0.0,0.0,0.0,0.0,0.0,0.0,3.457111539173068e-05,-0.0002828864616307973,0.031384805963379295,0.0,0.0,0.0,0.0,0.0,0.0,0.0,0.0,0.0,-0.005833539431953102,-0.004532514281206814,-0.00012451077820522074,0.0,0.0,0.0,0.0,0.0,0.0,0.0,0.0,0.0
5.837,166,5,837000000,base_footprint,0.0028282608704388538,0.0026475377653041154,-0.7324174143781063,0.6808448594209401,0.0,0.0,0.0,0.0,0.0,0.0,0.0,0.0,0.0,-0.00021382621825193627,7.810000683654695e-05,0.03855781258410408,0.0,0.0,0.0,0.0,0.0,0.0,0.0,0.0,0.0,-0.0016088369543615071,-0.006194319429510291,0.00034483394620671195,0.0,0.0,0.0,0.0,0.0,0.0,0.0,0.0,0.0
5.871,167,5,871000000,base_footprint,0.0028285112752853988,0.002652189180564145,-0.7319638368002489,0.6813324497139225,0.0,0.0,0.0,0.0,0.0,0.0,0.0,0.0,0.0,4.493237165428536e-05,-0.0005041885857807269,0.03992463271620665,0.0,0.0,0.0,0.0,0.0,0.0,0.0,0.0,0.0,-0.0003030130303166203,-0.008079144034214052,-0.0009371251814681162,0.0,0.0,0.0,0.0,0.0,0.0,0.0,0.0,0.0
5.905,168,5,905000000,base_footprint,0.0028297419427372465,0.0026487367984805526,-0.7315165737702356,0.681812642192388,0.0,0.0,0.0,0.0,0.0,0.0,0.0,0.0,0.0,-0.00044289360467278057,-0.00010537280840375762,0.036405825441895634,0.0,0.0,0.0,0.0,0.0,0.0,0.0,0.0,0.0,-0.0010352574685162453,-0.014102403084788617,0.0006066624966154668,0.0,0.0,0.0,0.0,0.0,0.0,0.0,0.0,0.0
5.939,169,5,939000000,base_footprint,0.002829931448913585,0.0026437799242126593,-0.7311389695771313,0.6822175672623783,0.0,0.0,0.0,0.0,0.0,0.0,0.0,0.0,0.0,-0.0011187478126915785,-0.0011281547870604844,0.01193695525053298,0.0,0.0,0.0,0.0,0.0,0.0,0.0,0.0,0.0,0.03761895391967392,-0.014721406743232945,-0.0019036563486524213,0.0,0.0,0.0,0.0,0.0,0.0,0.0,0.0,0.0
5.974,170,5,973000000,base_footprint,0.002832909758999842,0.00265061709237632,-0.7314585097863913,0.6818749132446499,0.0,0.0,0.0,0.0,0.0,0.0,0.0,0.0,0.0,0.000484947096446418,0.0016770902571641827,-0.042527840610897844,0.0,0.0,0.0,0.0,0.0,0.0,0.0,0.0,0.0,-0.00025280933081314695,0.007985861232433777,0.004187039691290227,0.0,0.0,0.0,0.0,0.0,0.0,0.0,0.0,0.0
6.007,171,6,7000000,base_footprint,0.002832075414081849,0.0026469418962591132,-0.7319004109457865,0.6814005881306795,0.0,0.0,0.0,0.0,0.0,0.0,0.0,0.0,0.0,-6.009171793119381e-05,9.300802696031855e-05,-0.03168732170081431,0.0,0.0,0.0,0.0,0.0,0.0,0.0,0.0,0.0,-0.018543581211549913,0.013745166669391344,-0.0025952404755209884,0.0,0.0,0.0,0.0,0.0,0.0,0.0,0.0,0.0
6.041,172,6,41000000,base_footprint,0.0028286270505786166,0.0026426932802171457,-0.732082000920019,0.6812055188929234,0.0,0.0,0.0,0.0,0.0,0.0,0.0,0.0,0.0,-0.0002526132339837385,-0.0027055579909314163,0.019525479773523452,0.0,0.0,0.0,0.0,0.0,0.0,0.0,0.0,0.0,0.011103106266034233,0.004862595533781287,-0.0033532759052941202,0.0,0.0,0.0,0.0,0.0,0.0,0.0,0.0,0.0
6.075,173,6,75000000,base_footprint,0.0028248876133816535,0.002641167035160974,-0.7318825240816647,0.6814198523601407,0.0,0.0,0.0,0.0,0.0,0.0,0.0,0.0,0.0,-0.0001315724056660562,0.00014012627181412028,0.016718688965213214,0.0,0.0,0.0,0.0,0.0,0.0,0.0,0.0,0.0,-0.0022379526138515617,-0.007331806902155697,0.004110909782805796,0.0,0.0,0.0,0.0,0.0,0.0,0.0,0.0,0.0
6.109,174,6,109000000,base_footprint,0.002821677506816952,0.002639926582444201,-0.7316905673309484,0.6816259843951094,0.0,0.0,0.0,0.0,0.0,0.0,0.0,0.0,0.0,1.142984199244601e-05,0.0002014779239847252,0.016401149923963205,0.0,0.0,0.0,0.0,0.0,0.0,0.0,0.0,0.0,-0.006042781211000135,-0.0023387522839711655,0.00018199078615119886,0.0,0.0,0.0,0.0,0.0,0.0,0.0,0.0,0.0
6.143,175,6,143000000,base_footprint,0.0028200383931853805,0.0026401082509946465,-0.7316307579368581,0.6816901871470814,0.0,0.0,0.0,0.0,0.0,0.0,0.0,0.0,0.0,0.001132582019853958,0.0006243389818742914,-0.041087819254339304,0.0,0.0,0.0,0.0,0.0,0.0,0.0,0.0,0.0,0.3156599216913403,-0.0472853781802737,-9.334329622497583e-05,0.0,0.0,0.0,0.0,0.0,0.0,0.0,0.0,0.0
6.177,176,6,177000000,base_footprint,0.0028215686646223784,0.0026379758132254287,-0.7321185962028228,0.6811662358983215,0.0,0.0,0.0,0.0,0.0,0.0,0.0,0.0,0.0,4.395515190079783e-05,0.00048721188680376885,-0.04220389589470293,0.0,0.0,0.0,0.0,0.0,0.0,0.0,0.0,0.0,-0.003427373717403169,0.010072056159960204,-0.0003577764474944362,0.0,0.0,0.0,0.0,0.0,0.0,0.0,0.0,0.0
6.211,177,6,211000000,base_footprint,0.0028239254300679454,0.0026375144030942473,-0.7326091000603376,0.6806386526430313,0.0,0.0,0.0,0.0,0.0,0.0,0.0,0.0,0.0,5.9224081914162425e-05,0.0004061965089262828,-0.04255838012152569,0.0,0.0,0.0,0.0,0.0,0.0,0.0,0.0,0.0,-0.003928335955043239,0.009664308342951504,-0.00010071952054252275,0.0,0.0,0.0,0.0,0.0,0.0,0.0,0.0,0.0
6.245,178,6,245000000,base_footprint,0.0028271499083070226,0.0026383652105970564,-0.7331082953175605,0.6801009289723049,0.0,0.0,0.0,0.0,0.0,0.0,0.0,0.0,0.0,8.648323743512795e-05,0.00031691509019352867,-0.04370371715698089,0.0,0.0,0.0,0.0,0.0,0.0,0.0,0.0,0.0,-0.0038321870565471133,0.009833364839269165,-0.0001487744840723408,0.0,0.0,0.0,0.0,0.0,0.0,0.0,0.0,0.0
6.279,179,6,279000000,base_footprint,0.0028314634807738966,0.0026401737694061477,-0.7336135658364399,0.6795558463568451,0.0,0.0,0.0,0.0,0.0,0.0,0.0,0.0,0.0,9.348357465493641e-05,0.00029584785667878354,-0.0436176338254196,0.0,0.0,0.0,0.0,0.0,0.0,0.0,0.0,0.0,-0.002476367365527451,0.010117086921771747,-9.262189110386875e-05,0.0,0.0,0.0,0.0,0.0,0.0,0.0,0.0,0.0
6.313,180,6,313000000,base_footprint,0.002836508635779987,0.0026404697940189976,-0.7341125618689134,0.6790167366451926,0.0,0.0,0.0,0.0,0.0,0.0,0.0,0.0,0.0,4.602749133412663e-05,0.00023665769555373235,-0.042554919159261684,0.0,0.0,0.0,0.0,0.0,0.0,0.0,0.0,0.0,0.0002744002215462806,0.009466212058440747,-3.9638787963546885e-05,0.0,0.0,0.0,0.0,0.0,0.0,0.0,0.0,0.0
6.347,181,6,347000000,base_footprint,0.0028335981148432158,0.002631384300904212,-0.7345361360118843,0.6785585541654569,0.0,0.0,0.0,0.0,0.0,0.0,0.0,0.0,0.0,0.00019719321360113786,0.0006452334370382598,-0.023135565488790272,0.0,0.0,0.0,0.0,0.0,0.0,0.0,0.0,0.0,-0.2204762512994581,0.04439307707836129,0.0012262013715914712,0.0,0.0,0.0,0.0,0.0,0.0,0.0,0.0,0.0
6.381,182,6,381000000,base_footprint,0.002839564322361632,0.002628101990481252,-0.7348186989905348,0.6782525411439642,0.0,0.0,0.0,0.0,0.0,0.0,0.0,0.0,0.0,0.00011743923708284486,7.8540602262717e-05,-0.036560984138064634,0.0,0.0,0.0,0.0,0.0,0.0,0.0,0.0,0.0,-0.10665484009435092,0.012102480650479704,-0.0010806665314176808,0.0,0.0,0.0,0.0,0.0,0.0,0.0,0.0,0.0
6.415,183,6,415000000,base_footprint,0.0028428192983260985,0.0026278588282798157,-0.7351737369251474,0.6778676782912206,0.0,0.0,0.0,0.0,0.0,0.0,0.0,0.0,0.0,0.0005668617949609253,0.00021039071790974638,-0.021825158172107638,0.0,0.0,0.0,0.0,0.0,0.0,0.0,0.0,0.0,0.05146336458469168,0.001028537708571066,0.00015186394612772593,0.0,0.0,0.0,0.0,0.0,0.0,0.0,0.0,0.0
6.449,184,6,449000000,base_footprint,0.002838721093491657,0.0026333504682433985,-0.7355950328942817,0.6774104772655392,0.0,0.0,0.0,0.0,0.0,0.0,0.0,0.0,0.0,-0.00040855338673332015,-7.423731030171214e-05,-0.04538743067780103,0.0,0.0,0.0,0.0,0.0,0.0,0.0,0.0,0.0,0.06084082905453829,0.003865270659115627,-0.0009065185762038546,0.0,0.0,0.0,0.0,0.0,0.0,0.0,0.0,0.0
6.483,185,6,483000000,base_footprint,0.0028351403265866938,0.0026260323354140094,-0.7361293220792477,0.6768298804785803,0.0,0.0,0.0,0.0,0.0,0.0,0.0,0.0,0.0,-0.0010220244818287777,0.00034106960893071146,-0.039554489971948825,0.0,0.0,0.0,0.0,0.0,0.0,0.0,0.0,0.0,-0.01923698173861777,0.012668509919209859,0.00028008057136846723,0.0,0.0,0.0,0.0,0.0,0.0,0.0,0.0,0.0
6.517,186,6,517000000,base_footprint,0.00284246806387713,0.0026237133900290153,-0.7364072561071492,0.6765274492997994,0.0,0.0,0.0,0.0,0.0,0.0,0.0,0.0,0.0,0.0004837897521697447,0.001048508822491953,-0.017928566180225626,0.0,0.0,0.0,0.0,0.0,0.0,0.0,0.0,0.0,-0.05213960759892522,0.014063853365733191,0.0024980883097239187,0.0,0.0,0.0,0.0,0.0,0.0,0.0,0.0,0.0
6.551,187,6,551000000,base_footprint,0.0028376787175249246,0.002624002214971204,-0.7360669890490164,0.6768976656956259,0.0,0.0,0.0,0.0,0.0,0.0,0.0,0.0,0.0,0.0003047797589051663,0.00023497279552681154,0.055357277646422356,0.0,0.0,0.0,0.0,0.0,0.0,0.0,0.0,0.0,0.013869951957889131,-0.009090920533713538,-0.0005273415265751194,0.0,0.0,0.0,0.0,0.0,0.0,0.0,0.0,0.0
6.585,188,6,585000000,base_footprint,0.0028345887648063683,0.002625800876726656,-0.7354267881438303,0.6775931740777351,0.0,0.0,0.0,0.0,0.0,0.0,0.0,0.0,0.0,-9.29841788223325e-06,-0.00027257661819192464,0.05553070560330596,0.0,0.0,0.0,0.0,0.0,0.0,0.0,0.0,0.0,-0.00801784701756525,-0.009607496172501664,-0.0007700867263529284,0.0,0.0,0.0,0.0,0.0,0.0,0.0,0.0,0.0
6.619,189,6,619000000,base_footprint,0.0028306477974560746,0.002628029132611393,-0.7347868213373175,0.6782871133118527,0.0,0.0,0.0,0.0,0.0,0.0,0.0,0.0,0.0,9.705904731596863e-05,-0.0002528545862341416,0.05554336093458822,0.0,0.0,0.0,0.0,0.0,0.0,0.0,0.0,0.0,-0.007293520158795967,-0.010759180681430601,2.6774198021046553e-05,0.0,0.0,0.0,0.0,0.0,0.0,0.0,0.0,0.0
6.6530000000000005,190,6,653000000,base_footprint,0.002827441010862339,0.002631337475134182,-0.7340877283837289,0.6790436574159565,0.0,0.0,0.0,0.0,0.0,0.0,0.0,0.0,0.0,8.113679539957423e-05,-0.00036660561302987886,0.06209696442305616,0.0,0.0,0.0,0.0,0.0,0.0,0.0,0.0,0.0,-0.005789561213319177,-0.01240805658728993,-0.00023152816834892827,0.0,0.0,0.0,0.0,0.0,0.0,0.0,0.0,0.0
6.687,191,6,687000000,base_footprint,0.0028252591482262517,0.002635636058164658,-0.7333712462747484,0.6798173920037179,0.0,0.0,0.0,0.0,0.0,0.0,0.0,0.0,0.0,7.404480653519216e-05,-0.00044837538864580037,0.061994408029570736,0.0,0.0,0.0,0.0,0.0,0.0,0.0,0.0,0.0,-0.007480402100124751,-0.012479824781360303,-0.0002658836320536021,0.0,0.0,0.0,0.0,0.0,0.0,0.0,0.0,0.0
6.721,192,6,721000000,base_footprint,0.00282412081883537,0.002641056781204105,-0.7326551148190965,0.6805891065026648,0.0,0.0,0.0,0.0,0.0,0.0,0.0,0.0,0.0,7.456574639518969e-05,-0.0005431613443489286,0.06191778900747634,0.0,0.0,0.0,0.0,0.0,0.0,0.0,0.0,0.0,-0.007195075915670656,-0.012507808685625621,-0.0003081479951529077,0.0,0.0,0.0,0.0,0.0,0.0,0.0,0.0,0.0
6.755,193,6,755000000,base_footprint,0.002823874308839195,0.002647539582039841,-0.7318773105619825,0.6814254313955483,0.0,0.0,0.0,0.0,0.0,0.0,0.0,0.0,0.0,1.6104411467362644e-05,-0.0006326490999845477,0.0684178422549418,0.0,0.0,0.0,0.0,0.0,0.0,0.0,0.0,0.0,-0.00465287665916811,-0.013633551084926393,-0.00021640345045210042,0.0,0.0,0.0,0.0,0.0,0.0,0.0,0.0,0.0
6.789,194,6,789000000,base_footprint,0.002823163805465144,0.0026531637013151293,-0.731081259996331,0.6822794015289328,0.0,0.0,0.0,0.0,0.0,0.0,0.0,0.0,0.0,-3.214181505099026e-05,-0.0005556522728963236,0.06888493521474175,0.0,0.0,0.0,0.0,0.0,0.0,0.0,0.0,0.0,-0.005024142746539819,-0.013229620333439017,-7.308304337547744e-05,0.0,0.0,0.0,0.0,0.0,0.0,0.0,0.0,0.0
6.823,195,6,823000000,base_footprint,0.00282186741077064,0.002657775691622323,-0.7302844638819024,0.6831321798198439,0.0,0.0,0.0,0.0,0.0,0.0,0.0,0.0,0.0,7.536633494590228e-05,-0.0006702137495967833,0.06894342852848176,0.0,0.0,0.0,0.0,0.0,0.0,0.0,0.0,0.0,-0.0034486205363653136,-0.013800775696314427,-0.0003660099297056249,0.0,0.0,0.0,0.0,0.0,0.0,0.0,0.0,0.0
6.857,196,6,857000000,base_footprint,0.0028099586545554923,0.002661434605568642,-0.72994671193717,0.6834931006457303,0.0,0.0,0.0,0.0,0.0,0.0,0.0,0.0,0.0,8.377743588811162e-05,0.0004493555370897962,-0.015030607549439315,0.0,0.0,0.0,0.0,0.0,0.0,0.0,0.0,0.0,0.22572447579484262,-0.044352614553572076,-0.000332830519211119,0.0,0.0,0.0,0.0,0.0,0.0,0.0,0.0,0.0
6.891,197,6,891000000,base_footprint,0.0028153248916150645,0.0026485198702512684,-0.7299834103784211,0.6834539339710771,0.0,0.0,0.0,0.0,0.0,0.0,0.0,0.0,0.0,-0.00034274009279703434,-0.0005182160761164344,0.01707018848261688,0.0,0.0,0.0,0.0,0.0,0.0,0.0,0.0,0.0,0.0343950316893564,-0.004847078933165128,0.00010907186876443811,0.0,0.0,0.0,0.0,0.0,0.0,0.0,0.0,0.0
6.924,198,6,925000000,base_footprint,0.002815866382420414,0.0026559095960326197,-0.7295520670596657,0.6839143210152155,0.0,0.0,0.0,0.0,0.0,0.0,0.0,0.0,0.0,-3.7294434740484605e-05,-0.0011389490094092713,0.04016535072615124,0.0,0.0,0.0,0.0,0.0,0.0,0.0,0.0,0.0,0.1613399378352674,-0.021619788064713985,-0.0018437196102520851,0.0,0.0,0.0,0.0,0.0,0.0,0.0,0.0,0.0
6.959,199,6,959000000,base_footprint,0.0028140573330770824,0.0026593430907317734,-0.7291108553724329,0.6843846649025176,0.0,0.0,0.0,0.0,0.0,0.0,0.0,0.0,0.0,-0.00048290772743696356,-0.0003915957077710616,0.046210504471902794,0.0,0.0,0.0,0.0,0.0,0.0,0.0,0.0,0.0,-0.03360882051617695,-0.005945606629423197,0.0013229329430299577,0.0,0.0,0.0,0.0,0.0,0.0,0.0,0.0,0.0
6.993,200,6,993000000,base_footprint,0.0028130096480463193,0.002660222827480213,-0.7284918575301527,0.6850435195690097,0.0,0.0,0.0,0.0,0.0,0.0,0.0,0.0,0.0,-0.00013928656275525504,-0.00013521828212256415,0.05353407812579757,0.0,0.0,0.0,0.0,0.0,0.0,0.0,0.0,0.0,-0.01847443592401122,-0.007953427691992044,0.0013361848000328189,0.0,0.0,0.0,0.0,0.0,0.0,0.0,0.0,0.0
7.027,201,7,27000000,base_footprint,0.002806747128669485,0.0026576452318761382,-0.7278731106155746,0.6857009508052216,0.0,0.0,0.0,0.0,0.0,0.0,0.0,0.0,0.0,-0.00019925869136067,0.004205696022361727,0.0507457048999012,0.0,0.0,0.0,0.0,0.0,0.0,0.0,0.0,0.0,-0.02742098704285346,-0.009208516799798751,0.006638522700883739,0.0,0.0,0.0,0.0,0.0,0.0,0.0,0.0,0.0
7.061,202,7,61000000,base_footprint,0.0028067105928720284,0.0026592249218577633,-0.7280050002076821,0.6855609167470647,0.0,0.0,0.0,0.0,0.0,0.0,0.0,0.0,0.0,0.002200090735706082,0.001225860411698831,-0.023384421917942766,0.0,0.0,0.0,0.0,0.0,0.0,0.0,0.0,0.0,-0.34241322930135604,0.04316716746290439,-0.004142191218818915,0.0,0.0,0.0,0.0,0.0,0.0,0.0,0.0,0.0
7.095,203,7,95000000,base_footprint,0.0028029651039409246,0.0026573480827175424,-0.7274479672714472,0.6861519779177444,0.0,0.0,0.0,0.0,0.0,0.0,0.0,0.0,0.0,-9.7838129104468e-06,-6.58411348148224e-05,0.05324429052739227,0.0,0.0,0.0,0.0,0.0,0.0,0.0,0.0,0.0,0.015178349648868463,-0.010712626993396816,-0.0023535062697547203,0.0,0.0,0.0,0.0,0.0,0.0,0.0,0.0,0.0
7.129,204,7,129000000,base_footprint,0.002799830501896099,0.002660098385859971,-0.7268164460048505,0.6868208926951892,0.0,0.0,0.0,0.0,0.0,0.0,0.0,0.0,0.0,1.944177369725346e-06,-0.0004690811306751041,0.0675645902002655,0.0,0.0,0.0,0.0,0.0,0.0,0.0,0.0,0.0,-0.005017555113977267,-0.011911911177854553,-0.0008927406072547037,0.0,0.0,0.0,0.0,0.0,0.0,0.0,0.0,0.0
7.163,205,7,163000000,base_footprint,0.002797294479178891,0.0026642652710321597,-0.7259938512867232,0.6876903407261394,0.0,0.0,0.0,0.0,0.0,0.0,0.0,0.0,0.0,-2.238904457500858e-05,-0.00044579111813014663,0.07014681799791905,0.0,0.0,0.0,0.0,0.0,0.0,0.0,0.0,0.0,-0.00462363272892579,-0.014026729861262525,0.00026045700886139867,0.0,0.0,0.0,0.0,0.0,0.0,0.0,0.0,0.0
7.197,206,7,197000000,base_footprint,0.0027956325493417276,0.0026699958725935977,-0.725174559916096,0.6885542195144737,0.0,0.0,0.0,0.0,0.0,0.0,0.0,0.0,0.0,-6.956342320408584e-06,-0.0005488276305771644,0.06993187252893086,0.0,0.0,0.0,0.0,0.0,0.0,0.0,0.0,0.0,-0.006977451543743969,-0.014577824570003676,-0.00034285961919648883,0.0,0.0,0.0,0.0,0.0,0.0,0.0,0.0,0.0
7.231,207,7,231000000,base_footprint,0.0027956763307737426,0.002676806684290694,-0.724368585785427,0.6894020386008799,0.0,0.0,0.0,0.0,0.0,0.0,0.0,0.0,0.0,-0.0008121832713730772,-0.0003931692512156235,0.059768812475397316,0.0,0.0,0.0,0.0,0.0,0.0,0.0,0.0,0.0,-0.008059302992095226,-0.014496360173739113,0.00016095294765047167,0.0,0.0,0.0,0.0,0.0,0.0,0.0,0.0,0.0
7.265,208,7,265000000,base_footprint,0.0027953799105349506,0.002681626641146971,-0.7236660277719301,0.6901394605284569,0.0,0.0,0.0,0.0,0.0,0.0,0.0,0.0,0.0,-9.746340360866236e-05,-0.0003247895252736608,0.05950584035416537,0.0,0.0,0.0,0.0,0.0,0.0,0.0,0.0,0.0,-0.0066781565997324046,-0.010172524398300225,-0.00027302773075876975,0.0,0.0,0.0,0.0,0.0,0.0,0.0,0.0,0.0
7.299,209,7,299000000,base_footprint,0.002794049927561714,0.0026870619832440067,-0.7229647950754878,0.6908739957939932,0.0,0.0,0.0,0.0,0.0,0.0,0.0,0.0,0.0,7.52106410589628e-05,-0.0005472992427236742,0.06037965584161685,0.0,0.0,0.0,0.0,0.0,0.0,0.0,0.0,0.0,-0.0013687258345122704,-0.012569369011051445,-0.0006228045546059265,0.0,0.0,0.0,0.0,0.0,0.0,0.0,0.0,0.0
7.333,210,7,333000000,base_footprint,0.0027920535264533445,0.0026906900692326213,-0.7222549627707884,0.691616030306574,0.0,0.0,0.0,0.0,0.0,0.0,0.0,0.0,0.0,-0.0006713838923242833,-0.00029135826263986854,0.0545280227181414,0.0,0.0,0.0,0.0,0.0,0.0,0.0,0.0,0.0,0.0038603430934769888,-0.013684574768463968,0.0005064714380473252,0.0,0.0,0.0,0.0,0.0,0.0,0.0,0.0,0.0
7.367,211,7,367000000,base_footprint,0.002787405308868479,0.0026842837855853064,-0.7217122843785219,0.6921823484959279,0.0,0.0,0.0,0.0,0.0,0.0,0.0,0.0,0.0,0.00045114216974065244,0.00038297208989781015,0.04415168119185572,0.0,0.0,0.0,0.0,0.0,0.0,0.0,0.0,0.0,0.024623531684616652,-0.01939856965731348,0.0008929177004230242,0.0,0.0,0.0,0.0,0.0,0.0,0.0,0.0,0.0
7.401,212,7,401000000,base_footprint,0.00278505043671713,0.0026918941176239464,-0.721272990845118,0.6926400723878621,0.0,0.0,0.0,0.0,0.0,0.0,0.0,0.0,0.0,0.0008603644249427046,-7.371597263660344e-05,0.025618941615470396,0.0,0.0,0.0,0.0,0.0,0.0,0.0,0.0,0.0,0.05820940251186042,-0.008538625044182568,-0.0005624523595378331,0.0,0.0,0.0,0.0,0.0,0.0,0.0,0.0,0.0
7.4350000000000005,213,7,435000000,base_footprint,0.00278378030196407,0.0026931587446287113,-0.7208584505875902,0.6930714910308067,0.0,0.0,0.0,0.0,0.0,0.0,0.0,0.0,0.0,-0.0007023395454169827,-0.0006958040013031908,0.0488690821234459,0.0,0.0,0.0,0.0,0.0,0.0,0.0,0.0,0.0,-0.04268908326324333,-0.004264491722719366,-0.0017192539840695598,0.0,0.0,0.0,0.0,0.0,0.0,0.0,0.0,0.0
7.469,214,7,469000000,base_footprint,0.002781223616188721,0.0026939692826583135,-0.7202399273319806,0.6937142454941547,0.0,0.0,0.0,0.0,0.0,0.0,0.0,0.0,0.0,8.42760480740588e-05,-0.0001400737202753539,0.052461067439686954,0.0,0.0,0.0,0.0,0.0,0.0,0.0,0.0,0.0,-0.010084259685394954,-0.011845972219355908,0.001220429800786353,0.0,0.0,0.0,0.0,0.0,0.0,0.0,0.0,0.0
7.503,215,7,503000000,base_footprint,0.0027765699117082362,0.002692753670444212,-0.7196229420409377,0.6943542763068008,0.0,0.0,0.0,0.0,0.0,0.0,0.0,0.0,0.0,-9.213574570402229e-05,1.3396250081393113e-05,0.05211686728735482,0.0,0.0,0.0,0.0,0.0,0.0,0.0,0.0,0.0,-0.0047091740811912725,-0.010913219370081799,0.0003952867273771202,0.0,0.0,0.0,0.0,0.0,0.0,0.0,0.0,0.0
7.537,216,7,537000000,base_footprint,0.0027737521186039895,0.0026911306598032397,-0.7191191746682682,0.6948760153720844,0.0,0.0,0.0,0.0,0.0,0.0,0.0,0.0,0.0,3.309348098802598e-05,0.002209128273630335,-0.008281346054247025,0.0,0.0,0.0,0.0,0.0,0.0,0.0,0.0,0.0,0.18541270621306954,-0.021997144253401324,0.0018799012271280514,0.0,0.0,0.0,0.0,0.0,0.0,0.0,0.0,0.0
7.571,217,7,571000000,base_footprint,0.0027736433784621446,0.0026899326067641107,-0.7194481729326907,0.69453538256074,0.0,0.0,0.0,0.0,0.0,0.0,0.0,0.0,0.0,-6.805742476577946e-05,0.00013661799485779042,0.04472730181473128,0.0,0.0,0.0,0.0,0.0,0.0,0.0,0.0,0.0,0.14187410756053997,-0.0004685912882637505,-0.0016796901565577897,0.0,0.0,0.0,0.0,0.0,0.0,0.0,0.0,0.0
7.605,218,7,605000000,base_footprint,0.0027700268994232673,0.0026910899178972584,-0.7189329044306142,0.6950687476163718,0.0,0.0,0.0,0.0,0.0,0.0,0.0,0.0,0.0,-3.350947522217882e-05,-0.00014418619813340587,0.04326836633767392,0.0,0.0,0.0,0.0,0.0,0.0,0.0,0.0,0.0,-0.006650276930023251,-0.012153624517137234,-0.0007747742148053196,0.0,0.0,0.0,0.0,0.0,0.0,0.0,0.0,0.0
7.639,219,7,639000000,base_footprint,0.002768640826700173,0.0026939526474032715,-0.7184247465678255,0.6955939625716011,0.0,0.0,0.0,0.0,0.0,0.0,0.0,0.0,0.0,-2.2869268630430184e-05,-0.00022630018211714553,0.04263204377904492,0.0,0.0,0.0,0.0,0.0,0.0,0.0,0.0,0.0,-0.005986462303189438,-0.00853752915235202,-0.00024265437188674628,0.0,0.0,0.0,0.0,0.0,0.0,0.0,0.0,0.0
7.673,220,7,673000000,base_footprint,0.00276816042092829,0.002697971854207009,-0.7179222846681499,0.6961125278377209,0.0,0.0,0.0,0.0,0.0,0.0,0.0,0.0,0.0,-9.334549172061046e-06,-0.00030893304560257776,0.04234111911211026,0.0,0.0,0.0,0.0,0.0,0.0,0.0,0.0,0.0,-0.005706390062334816,-0.008363836038645177,-0.00025776775329147027,0.0,0.0,0.0,0.0,0.0,0.0,0.0,0.0,0.0
7.707,221,7,707000000,base_footprint,0.0027687426089520397,0.0027034188911717,-0.7174227593329684,0.696627310677477,0.0,0.0,0.0,0.0,0.0,0.0,0.0,0.0,0.0,8.647931294939441e-06,-0.0004255273387608681,0.042087193078205756,0.0,0.0,0.0,0.0,0.0,0.0,0.0,0.0,0.0,-0.005203139677052854,-0.008320601506440406,-0.0003324051141543993,0.0,0.0,0.0,0.0,0.0,0.0,0.0,0.0,0.0
7.741,222,7,741000000,base_footprint,0.0027651913871670833,0.0027085126908332822,-0.7167263661079246,0.6973437701746,0.0,0.0,0.0,0.0,0.0,0.0,0.0,0.0,0.0,6.726053845459191e-05,-0.0007296211182148122,0.10639006572502654,0.0,0.0,0.0,0.0,0.0,0.0,0.0,0.0,0.0,-0.10960260946221359,-0.004994064693300541,0.0003893163039304569,0.0,0.0,0.0,0.0,0.0,0.0,0.0,0.0,0.0
7.775,223,7,775000000,base_footprint,0.0027580532597712127,0.002718231851351164,-0.7148177779721337,0.6993000419367926,0.0,0.0,0.0,0.0,0.0,0.0,0.0,0.0,0.0,-0.0005383423674504532,-0.002152258175712438,0.19955290973920484,0.0,0.0,0.0,0.0,0.0,0.0,0.0,0.0,0.0,-0.20028990469684257,-0.024051310646302906,-0.001865796250251469,0.0,0.0,0.0,0.0,0.0,0.0,0.0,0.0,0.0
7.809,224,7,809000000,base_footprint,0.0027564000055902505,0.002730320875887837,-0.7124783632448292,0.7016833541668872,0.0,0.0,0.0,0.0,0.0,0.0,0.0,0.0,0.0,6.051241048474833e-05,-0.0013187287645212889,0.19554096305027868,0.0,0.0,0.0,0.0,0.0,0.0,0.0,0.0,0.0,0.012240262120334012,-0.04155700505003093,0.0011939059306308225,0.0,0.0,0.0,0.0,0.0,0.0,0.0,0.0,0.0
7.843,225,7,843000000,base_footprint,0.002740047745270817,0.002735863058573316,-0.7101817709726314,0.704007712578389,0.0,0.0,0.0,0.0,0.0,0.0,0.0,0.0,0.0,0.00045122458071183855,-0.0019237452301018925,0.18810893109539592,0.0,0.0,0.0,0.0,0.0,0.0,0.0,0.0,0.0,0.03597786252444456,-0.038283822981446745,-0.0015281347985459832,0.0,0.0,0.0,0.0,0.0,0.0,0.0,0.0,0.0
7.877,226,7,877000000,base_footprint,0.0027237575630977466,0.0027368199926938275,-0.7079712848273304,0.7062306640333625,0.0,0.0,0.0,0.0,0.0,0.0,0.0,0.0,0.0,-0.002156921856525916,-0.0014995829335534173,0.20225044074289744,0.0,0.0,0.0,0.0,0.0,0.0,0.0,0.0,0.0,0.04268973108305179,-0.05542868439124933,0.0007146621545076224,0.0,0.0,0.0,0.0,0.0,0.0,0.0,0.0,0.0
7.911,227,7,911000000,base_footprint,0.0027242089413325042,0.0027550551233369264,-0.7049747235190343,0.7092218465023284,0.0,0.0,0.0,0.0,0.0,0.0,0.0,0.0,0.0,-0.00036049250785964997,-0.004005303786679931,0.2709580942694765,0.0,0.0,0.0,0.0,0.0,0.0,0.0,0.0,0.0,-0.03270148417033393,-0.04097793535390969,-0.003334149944498047,0.0,0.0,0.0,0.0,0.0,0.0,0.0,0.0,0.0
7.945,228,7,945000000,base_footprint,0.002710410547181814,0.0027506947347155533,-0.7023713471688416,0.7118002374468336,0.0,0.0,0.0,0.0,0.0,0.0,0.0,0.0,0.0,-3.990938489034204e-05,0.00012121920772262558,0.07835778613857339,0.0,0.0,0.0,0.0,0.0,0.0,0.0,0.0,0.0,0.06157297334926745,-0.05322076468945526,0.00367753419142002,0.0,0.0,0.0,0.0,0.0,0.0,0.0,0.0,0.0
7.979,229,7,979000000,base_footprint,0.002704659166808263,0.0027598210573000726,-0.7022011793981906,0.711968097500382,0.0,0.0,0.0,0.0,0.0,0.0,0.0,0.0,0.0,-0.0009190570301542201,-0.0028594986662801637,0.06174505815345581,0.0,0.0,0.0,0.0,0.0,0.0,0.0,0.0,0.0,-0.05324777713581738,-0.005781313321214756,-0.006143880194717708,0.0,0.0,0.0,0.0,0.0,0.0,0.0,0.0,0.0
8.013,230,8,13000000,base_footprint,0.0027030960690695915,0.002761081774516828,-0.7012530941834715,0.7129019340675007,0.0,0.0,0.0,0.0,0.0,0.0,0.0,0.0,0.0,-0.0001050111713069068,3.8393378591948085e-05,0.0888029004598911,0.0,0.0,0.0,0.0,0.0,0.0,0.0,0.0,0.0,-0.05910350727365455,-0.016167655917147503,0.0061435119146799645,0.0,0.0,0.0,0.0,0.0,0.0,0.0,0.0,0.0
8.046,231,8,47000000,base_footprint,0.002695314361604944,0.0027653721932483035,-0.699483298225049,0.7146385124672,0.0,0.0,0.0,0.0,0.0,0.0,0.0,0.0,0.0,0.0001030778399359973,-0.0020285948160901203,0.2001649960003889,0.0,0.0,0.0,0.0,0.0,0.0,0.0,0.0,0.0,0.07106404124177702,-0.027221462623395615,-0.001810575362223427,0.0,0.0,0.0,0.0,0.0,0.0,0.0,0.0,0.0
8.081,232,8,81000000,base_footprint,0.002685171520769851,0.0027744908257261412,-0.6968808269364457,0.7171765508596455,0.0,0.0,0.0,0.0,0.0,0.0,0.0,0.0,0.0,-5.6436065316956365e-06,-0.0017152030003140988,0.22293770093052562,0.0,0.0,0.0,0.0,0.0,0.0,0.0,0.0,0.0,-0.04371006269482387,-0.04925187717953573,0.00023136417678608492,0.0,0.0,0.0,0.0,0.0,0.0,0.0,0.0,0.0
8.115,233,8,115000000,base_footprint,0.0026756805244037675,0.0027849478051702606,-0.6941600605942884,0.7198103188168308,0.0,0.0,0.0,0.0,0.0,0.0,0.0,0.0,0.0,-1.3391112127959554e-05,-0.0016088174118833998,0.2226457469703546,0.0,0.0,0.0,0.0,0.0,0.0,0.0,0.0,0.0,-0.002450397122066239,-0.04884035593781191,-0.0003437375930296154,0.0,0.0,0.0,0.0,0.0,0.0,0.0,0.0,0.0
8.149000000000001,234,8,149000000,base_footprint,0.002668941163244723,0.0027973172199473526,-0.6914829149228502,0.7223824680453123,0.0,0.0,0.0,0.0,0.0,0.0,0.0,0.0,0.0,0.0002841273959646651,-0.0010608175350444817,0.20092329275726079,0.0,0.0,0.0,0.0,0.0,0.0,0.0,0.0,0.0,0.38698560111748115,-0.014401969741570292,0.00019426884156008197,0.0,0.0,0.0,0.0,0.0,0.0,0.0,0.0,0.0
8.183,235,8,183000000,base_footprint,0.002660065547593235,0.002808290253274755,-0.6888266203912147,0.7249158051784728,0.0,0.0,0.0,0.0,0.0,0.0,0.0,0.0,0.0,3.282698866147052e-05,-0.0018949726956214645,0.22383420956032796,0.0,0.0,0.0,0.0,0.0,0.0,0.0,0.0,0.0,-0.04882684606153556,-0.0486641715928157,-0.0013269532630602661,0.0,0.0,0.0,0.0,0.0,0.0,0.0,0.0,0.0
8.217,236,8,217000000,base_footprint,0.0026521482465150146,0.002821799877902543,-0.6860696100095335,0.7275255966469457,0.0,0.0,0.0,0.0,0.0,0.0,0.0,0.0,0.0,0.00010940864632023628,-0.0018496830714465075,0.22265952602341865,0.0,0.0,0.0,0.0,0.0,0.0,0.0,0.0,0.0,0.0026689362135176135,-0.045925303723238976,-0.0005439894845735239,0.0,0.0,0.0,0.0,0.0,0.0,0.0,0.0,0.0
8.251,237,8,251000000,base_footprint,0.002626854989333477,0.0028334672726096407,-0.6831649590060814,0.7302538667356027,0.0,0.0,0.0,0.0,0.0,0.0,0.0,0.0,0.0,-0.0021869295297247226,-0.0016475247187474691,0.23169435280571668,0.0,0.0,0.0,0.0,0.0,0.0,0.0,0.0,0.0,0.31780333740914984,-0.007476551843215301,-0.004415133778983799,0.0,0.0,0.0,0.0,0.0,0.0,0.0,0.0,0.0
8.285,238,8,285000000,base_footprint,0.0026300660634052107,0.0028434824426592604,-0.6805204571192004,0.7327188443068563,0.0,0.0,0.0,0.0,0.0,0.0,0.0,0.0,0.0,-7.269706804211284e-05,-0.0014166095955982269,0.21456816987441168,0.0,0.0,0.0,0.0,0.0,0.0,0.0,0.0,0.0,0.024158454844229894,-0.03370127848786737,0.004666790915307936,0.0,0.0,0.0,0.0,0.0,0.0,0.0,0.0,0.0
8.319,239,8,319000000,base_footprint,0.0026161026213345137,0.0028544480290805503,-0.6778724093196518,0.7351693715169957,0.0,0.0,0.0,0.0,0.0,0.0,0.0,0.0,0.0,0.00028761107851993015,-0.0014565347694636265,0.20379355701640678,0.0,0.0,0.0,0.0,0.0,0.0,0.0,0.0,0.0,0.03335763738881886,-0.04130000577398103,-0.0007913119130153069,0.0,0.0,0.0,0.0,0.0,0.0,0.0,0.0,0.0
8.353,240,8,353000000,base_footprint,0.0026098004866444715,0.002855699647924914,-0.6753802444882189,0.7374595306021712,0.0,0.0,0.0,0.0,0.0,0.0,0.0,0.0,0.0,0.00014602087652584107,-0.001688067078664243,0.20493082642047739,0.0,0.0,0.0,0.0,0.0,0.0,0.0,0.0,0.0,-0.061007475999783865,-0.04758279773122608,-0.00013978451824968565,0.0,0.0,0.0,0.0,0.0,0.0,0.0,0.0,0.0
8.387,241,8,387000000,base_footprint,0.0025984138985689865,0.0028621784256513292,-0.6727857076528523,0.7398273094161383,0.0,0.0,0.0,0.0,0.0,0.0,0.0,0.0,0.0,-0.0008631511202961803,-0.001307255881587656,0.21386714680807944,0.0,0.0,0.0,0.0,0.0,0.0,0.0,0.0,0.0,0.046280017953851,-0.04113335180312177,0.000978797134546091,0.0,0.0,0.0,0.0,0.0,0.0,0.0,0.0,0.0
8.421,242,8,421000000,base_footprint,0.0025853336751984666,0.002860974583855852,-0.6701412677857702,0.7422235593705573,0.0,0.0,0.0,0.0,0.0,0.0,0.0,0.0,0.0,0.00019377917610733958,-0.0016201183090925756,0.20007165734263171,0.0,0.0,0.0,0.0,0.0,0.0,0.0,0.0,0.0,-0.029818194332305956,-0.045378395520648145,-0.0020011572114151926,0.0,0.0,0.0,0.0,0.0,0.0,0.0,0.0,0.0
8.455,243,8,455000000,base_footprint,0.0025775854901857707,0.0028832495004670667,-0.6680637801365138,0.744093964896283,0.0,0.0,0.0,0.0,0.0,0.0,0.0,0.0,0.0,8.25985109852421e-05,-0.00295191364345868,0.1690633904994387,0.0,0.0,0.0,0.0,0.0,0.0,0.0,0.0,0.0,0.42112546977908527,0.06186363386192159,-0.0012946874416364228,0.0,0.0,0.0,0.0,0.0,0.0,0.0,0.0,0.0
8.489,244,8,489000000,base_footprint,0.002565117868292195,0.00287822015018608,-0.665755613062992,0.7461599022288778,0.0,0.0,0.0,0.0,0.0,0.0,0.0,0.0,0.0,2.795225200239321e-05,-0.00044338176336956175,0.1476815729553737,0.0,0.0,0.0,0.0,0.0,0.0,0.0,0.0,0.0,-0.19395408419315358,-0.08043606591387177,0.0022001010891590927,0.0,0.0,0.0,0.0,0.0,0.0,0.0,0.0,0.0
8.523,245,8,523000000,base_footprint,0.002561205174907238,0.00289318583917462,-0.6644594243793769,0.7473143535736346,0.0,0.0,0.0,0.0,0.0,0.0,0.0,0.0,0.0,-2.1126137671161618e-05,-0.00032030833222570685,0.08296172662315841,0.0,0.0,0.0,0.0,0.0,0.0,0.0,0.0,0.0,-0.1664659258585127,-0.06219584380557708,-0.0008668348782623041,0.0,0.0,0.0,0.0,0.0,0.0,0.0,0.0,0.0
8.557,246,8,557000000,base_footprint,0.002554567831298013,0.0028972769127123123,-0.6628367467086557,0.7487539830828093,0.0,0.0,0.0,0.0,0.0,0.0,0.0,0.0,0.0,-0.0002165830718127932,-0.000765341036033888,0.15340417367213804,0.0,0.0,0.0,0.0,0.0,0.0,0.0,0.0,0.0,-0.2599908776595351,-0.08740756334439354,0.0001043622132826616,0.0,0.0,0.0,0.0,0.0,0.0,0.0,0.0,0.0
8.591,247,8,591000000,base_footprint,0.0025475564328610485,0.0028978631056644135,-0.6613871234560047,0.7500347893746223,0.0,0.0,0.0,0.0,0.0,0.0,0.0,0.0,0.0,0.0014393212327916845,-0.002329014888225193,0.050737401134285126,0.0,0.0,0.0,0.0,0.0,0.0,0.0,0.0,0.0,-0.4012243773219418,-0.12906295181211255,-0.00474924245409733,0.0,0.0,0.0,0.0,0.0,0.0,0.0,0.0,0.0
8.625,248,8,625000000,base_footprint,0.002548703172876097,0.0029019930255469104,-0.6607668345382239,0.7505812900165789,0.0,0.0,0.0,0.0,0.0,0.0,0.0,0.0,0.0,-0.00011667435742018964,-0.00028860079863171715,0.048447861026254424,0.0,0.0,0.0,0.0,0.0,0.0,0.0,0.0,0.0,-0.00937461471132196,-0.012016391494336925,0.003439624399837981,0.0,0.0,0.0,0.0,0.0,0.0,0.0,0.0,0.0
8.659,249,8,659000000,base_footprint,0.0025509102290015434,0.002909905734477872,-0.659673928898159,0.7515419701105767,0.0,0.0,0.0,0.0,0.0,0.0,0.0,0.0,0.0,-0.0004120175809586023,0.00043948878312717306,0.13236796360848474,0.0,0.0,0.0,0.0,0.0,0.0,0.0,0.0,0.0,0.7328254220002038,0.17917528229634339,0.002002463964352108,0.0,0.0,0.0,0.0,0.0,0.0,0.0,0.0,0.0
8.693,250,8,693000000,base_footprint,0.0025444599543321283,0.002910597966010571,-0.6586632209271274,0.7524279470759466,0.0,0.0,0.0,0.0,0.0,0.0,0.0,0.0,0.0,0.00025952464654877,-0.001088493122680438,0.03126349055469612,0.0,0.0,0.0,0.0,0.0,0.0,0.0,0.0,0.0,-0.41056518154801735,-0.13333239525798746,-0.0037437682362514903,0.0,0.0,0.0,0.0,0.0,0.0,0.0,0.0,0.0
8.727,251,8,727000000,base_footprint,0.002548762791491996,0.0029177373768992402,-0.658265344044378,0.752776014128352,0.0,0.0,0.0,0.0,0.0,0.0,0.0,0.0,0.0,0.0015625953051812387,-0.006584223359260113,0.034388017374339566,0.0,0.0,0.0,0.0,0.0,0.0,0.0,0.0,0.0,0.024840944924610423,0.0012555408956172638,0.0015949906826063713,0.0,0.0,0.0,0.0,0.0,0.0,0.0,0.0,0.0
8.761,252,8,761000000,base_footprint,0.0025290663741564575,0.002913058201828197,-0.6568445609515676,0.7540161408507979,0.0,0.0,0.0,0.0,0.0,0.0,0.0,0.0,0.0,7.830563613385333e-05,-0.000933855198589666,0.1865600070414392,0.0,0.0,0.0,0.0,0.0,0.0,0.0,0.0,0.0,0.5303562649396936,0.1280997994669026,0.0011532405562865154,0.0,0.0,0.0,0.0,0.0,0.0,0.0,0.0,0.0
8.795,253,8,795000000,base_footprint,0.0025113685331393516,0.0029316269482930735,-0.6535703687304484,0.7568559121187284,0.0,0.0,0.0,0.0,0.0,0.0,0.0,0.0,0.0,-0.0012727590021524397,-0.005574322489184241,0.27752740195308295,0.0,0.0,0.0,0.0,0.0,0.0,0.0,0.0,0.0,0.30451119785395914,0.04075343224037406,-0.005900317810893507,0.0,0.0,0.0,0.0,0.0,0.0,0.0,0.0,0.0
8.829,254,8,829000000,base_footprint,0.0025033948266481453,0.002946004542865557,-0.650116562873071,0.7598246565818193,0.0,0.0,0.0,0.0,0.0,0.0,0.0,0.0,0.0,0.0008094488401885187,-0.0007048202523723337,0.24580113178622284,0.0,0.0,0.0,0.0,0.0,0.0,0.0,0.0,0.0,0.030519241586021557,-0.03732734637662196,0.007136798494077456,0.0,0.0,0.0,0.0,0.0,0.0,0.0,0.0,0.0
8.863,255,8,863000000,base_footprint,0.0024921904058136197,0.002949151886372726,-0.6473900480073397,0.762149078088524,0.0,0.0,0.0,0.0,0.0,0.0,0.0,0.0,0.0,0.001992147589810764,-0.0003576903291763127,0.1961790260893934,0.0,0.0,0.0,0.0,0.0,0.0,0.0,0.0,0.0,-0.2013213349498485,-0.10923364269258821,-0.0005914322803122446,0.0,0.0,0.0,0.0,0.0,0.0,0.0,0.0,0.0
8.897,256,8,897000000,base_footprint,0.0024726064110766983,0.00295978249943865,-0.6445364792923637,0.7645638317148519,0.0,0.0,0.0,0.0,0.0,0.0,0.0,0.0,0.0,9.326549710425382e-05,-0.0010957749692670493,0.2611079702842459,0.0,0.0,0.0,0.0,0.0,0.0,0.0,0.0,0.0,-0.18359147771369183,-0.10399800544502513,-0.0025248647018685853,0.0,0.0,0.0,0.0,0.0,0.0,0.0,0.0,0.0
8.931000000000001,257,8,931000000,base_footprint,0.002476928354359402,0.0029620878041406607,-0.6408331814278249,0.7676704530219073,0.0,0.0,0.0,0.0,0.0,0.0,0.0,0.0,0.0,-0.0013170946072019693,-0.0014424628979744075,0.2617117843773119,0.0,0.0,0.0,0.0,0.0,0.0,0.0,0.0,0.0,0.06252380944233238,-0.04449094750108456,0.004955968010206641,0.0,0.0,0.0,0.0,0.0,0.0,0.0,0.0,0.0
8.965,258,8,965000000,base_footprint,0.0024620069651307146,0.0029644776370928118,-0.6390266500297498,0.7691749417042903,0.0,0.0,0.0,0.0,0.0,0.0,0.0,0.0,0.0,0.00013006959917009062,-0.0015941373556103981,0.051929665283350364,0.0,0.0,0.0,0.0,0.0,0.0,0.0,0.0,0.0,0.21379164556991423,0.05353214810142752,-0.007362563245738117,0.0,0.0,0.0,0.0,0.0,0.0,0.0,0.0,0.0
8.999,259,8,999000000,base_footprint,0.0024623167340798355,0.0029678642708212796,-0.6386763961196034,0.7694657820966744,0.0,0.0,0.0,0.0,0.0,0.0,0.0,0.0,0.0,-3.521334598207027e-05,0.0001709319658809666,-0.004063852648823651,0.0,0.0,0.0,0.0,0.0,0.0,0.0,0.0,0.0,-0.1435037263478367,-0.06039473893150311,0.0016244884379589004,0.0,0.0,0.0,0.0,0.0,0.0,0.0,0.0,0.0
9.033,260,9,33000000,base_footprint,0.0024615595093911507,0.0029665567045814344,-0.6392497048006252,0.7689895676655268,0.0,0.0,0.0,0.0,0.0,0.0,0.0,0.0,0.0,-0.0010844673392916711,0.00028505118484570415,-0.05225542598938054,0.0,0.0,0.0,0.0,0.0,0.0,0.0,0.0,0.0,-0.2874751515514602,-0.10238446612100136,0.000563425941746091,0.0,0.0,0.0,0.0,0.0,0.0,0.0,0.0,0.0
9.067,261,9,67000000,base_footprint,0.0024631832292381912,0.0029657290906491434,-0.6393607543286912,0.7688972382598258,0.0,0.0,0.0,0.0,0.0,0.0,0.0,0.0,0.0,0.00040518373912537954,0.0008329002196020827,-0.011317432113044385,0.0,0.0,0.0,0.0,0.0,0.0,0.0,0.0,0.0,-0.5216823637521137,-0.1961243402025673,-0.002744249467755358,0.0,0.0,0.0,0.0,0.0,0.0,0.0,0.0,0.0
9.101,262,9,101000000,base_footprint,0.0024663366143518506,0.002972639894467382,-0.6396451514611825,0.7686606278507853,0.0,0.0,0.0,0.0,0.0,0.0,0.0,0.0,0.0,-0.0002457152805896539,0.000347521244735234,-0.022317802568239814,0.0,0.0,0.0,0.0,0.0,0.0,0.0,0.0,0.0,-0.03506581836554794,-0.008578794918684953,0.001346478662466209,0.0,0.0,0.0,0.0,0.0,0.0,0.0,0.0,0.0
9.135,263,9,135000000,base_footprint,0.0024696330157222665,0.002976536428745024,-0.639919820444668,0.7684319517990645,0.0,0.0,0.0,0.0,0.0,0.0,0.0,0.0,0.0,-0.0013256585212893604,0.0032198152471351145,-0.011113198937524216,0.0,0.0,0.0,0.0,0.0,0.0,0.0,0.0,0.0,0.22080599297490092,0.08572774921327941,0.003376048660080122,0.0,0.0,0.0,0.0,0.0,0.0,0.0,0.0,0.0
9.169,264,9,169000000,base_footprint,0.0024652172040663706,0.002972806987213068,-0.6397149040337916,0.7686025804535075,0.0,0.0,0.0,0.0,0.0,0.0,0.0,0.0,0.0,-0.000535397127965257,0.0011042459027246253,0.013254607184151848,0.0,0.0,0.0,0.0,0.0,0.0,0.0,0.0,0.0,0.7631032868629984,0.29484364589656104,-0.0006438744685507039,0.0,0.0,0.0,0.0,0.0,0.0,0.0,0.0,0.0
9.203,265,9,203000000,base_footprint,0.0024761999754657907,0.0029712135212536087,-0.6406466308688041,0.767826109663082,0.0,0.0,0.0,0.0,0.0,0.0,0.0,0.0,0.0,-0.00047804450852529095,0.001953506262267313,-0.11754424509705394,0.0,0.0,0.0,0.0,0.0,0.0,0.0,0.0,0.0,0.2477569841263163,0.1023756302874571,2.719435433919321e-05,0.0,0.0,0.0,0.0,0.0,0.0,0.0,0.0,0.0
9.237,266,9,237000000,base_footprint,0.002476571229117647,0.0029622905558674886,-0.6422350248332274,0.7664980523830923,0.0,0.0,0.0,0.0,0.0,0.0,0.0,0.0,0.0,-0.00039934117908580207,0.0018625607596171492,-0.14080760215876517,0.0,0.0,0.0,0.0,0.0,0.0,0.0,0.0,0.0,-0.19419516073345472,-0.04752752132575831,-3.693485412538367e-05,0.0,0.0,0.0,0.0,0.0,0.0,0.0,0.0,0.0
9.271,267,9,271000000,base_footprint,0.002488212380034034,0.0029614346686388016,-0.6444802403481459,0.7646111812579329,0.0,0.0,0.0,0.0,0.0,0.0,0.0,0.0,0.0,0.00018825025195133615,0.0009976792791567305,-0.16460910174086424,0.0,0.0,0.0,0.0,0.0,0.0,0.0,0.0,0.0,-0.40358597952662734,-0.11125092764700473,-0.0025476928953698788,0.0,0.0,0.0,0.0,0.0,0.0,0.0,0.0,0.0
9.305,268,9,305000000,base_footprint,0.002499146057352071,0.0029585988728073323,-0.6462660730968516,0.7631023284761153,0.0,0.0,0.0,0.0,0.0,0.0,0.0,0.0,0.0,-0.0004586927903142999,0.000647532475016125,-0.12877253704553945,0.0,0.0,0.0,0.0,0.0,0.0,0.0,0.0,0.0,-0.08737293153817115,0.0009071855978610502,0.00022535153598495934,0.0,0.0,0.0,0.0,0.0,0.0,0.0,0.0,0.0
9.339,269,9,339000000,base_footprint,0.0024919027417836664,0.002947847103510963,-0.6481116145670645,0.761535577423309,0.0,0.0,0.0,0.0,0.0,0.0,0.0,0.0,0.0,0.0021175200138131302,0.003997356183021488,-0.18070848639428666,0.0,0.0,0.0,0.0,0.0,0.0,0.0,0.0,0.0,-0.06963566579555405,0.002904259343339745,0.006298212585737325,0.0,0.0,0.0,0.0,0.0,0.0,0.0,0.0,0.0
9.373,270,9,373000000,base_footprint,0.002497886402585089,0.0029391581852780207,-0.6508819782794515,0.7591691328443942,0.0,0.0,0.0,0.0,0.0,0.0,0.0,0.0,0.0,-0.0002993014628416167,0.001643412778944738,-0.22647651583486475,0.0,0.0,0.0,0.0,0.0,0.0,0.0,0.0,0.0,-0.1893498102846324,-0.013718677932736734,-0.005438232911806172,0.0,0.0,0.0,0.0,0.0,0.0,0.0,0.0,0.0
9.407,271,9,407000000,base_footprint,0.002512401325724584,0.002926786775964633,-0.6534328988228625,0.7569746154889854,0.0,0.0,0.0,0.0,0.0,0.0,0.0,0.0,0.0,-0.0007292504073183253,0.0010858804540597876,-0.15170158291410968,0.0,0.0,0.0,0.0,0.0,0.0,0.0,0.0,0.0,-0.1426809087814649,-0.008569421128672094,0.00044558801047551625,0.0,0.0,0.0,0.0,0.0,0.0,0.0,0.0,0.0
9.441,272,9,441000000,base_footprint,0.002518395261862789,0.002927733467469672,-0.6543982063206927,0.7561402473260557,0.0,0.0,0.0,0.0,0.0,0.0,0.0,0.0,0.0,-0.0013071230772029258,-6.73781459523279e-05,-0.00375623324436179,0.0,0.0,0.0,0.0,0.0,0.0,0.0,0.0,0.0,-0.16343193482637158,-0.02239947057893768,-0.0007494323434205934,0.0,0.0,0.0,0.0,0.0,0.0,0.0,0.0,0.0
9.475,273,9,475000000,base_footprint,0.0025303734299414846,0.002932458945405788,-0.6546659258298883,0.7559084094334009,0.0,0.0,0.0,0.0,0.0,0.0,0.0,0.0,0.0,-0.0006618624909563073,0.000667545135188978,-0.08285662769270472,0.0,0.0,0.0,0.0,0.0,0.0,0.0,0.0,0.0,0.1753671411339882,0.05261566562373918,0.0014089612859472225,0.0,0.0,0.0,0.0,0.0,0.0,0.0,0.0,0.0
9.509,274,9,509000000,base_footprint,0.002531335821025116,0.0029257433375499205,-0.6561832333315523,0.7545916754506596,0.0,0.0,0.0,0.0,0.0,0.0,0.0,0.0,0.0,-0.00030226768131474003,0.0013875105532241093,-0.12218486637666395,0.0,0.0,0.0,0.0,0.0,0.0,0.0,0.0,0.0,0.06055578444686864,0.04721708129010242,0.0003888897031690187,0.0,0.0,0.0,0.0,0.0,0.0,0.0,0.0,0.0
9.543,275,9,543000000,base_footprint,0.0025302247758228658,0.0029055469145108227,-0.6576022104594111,0.7533554861807326,0.0,0.0,0.0,0.0,0.0,0.0,0.0,0.0,0.0,-0.0003478041989855327,0.001202154532359088,-0.07910811126321726,0.0,0.0,0.0,0.0,0.0,0.0,0.0,0.0,0.0,-0.30330180033341936,-0.05983949991690217,-3.843435529018785e-06,0.0,0.0,0.0,0.0,0.0,0.0,0.0,0.0,0.0
9.577,276,9,577000000,base_footprint,0.0025386541329306747,0.002911779197445532,-0.6584572192093014,0.7526082428782271,0.0,0.0,0.0,0.0,0.0,0.0,0.0,0.0,0.0,0.00028762321585762147,0.00044516248754575635,-0.10565797978687805,0.0,0.0,0.0,0.0,0.0,0.0,0.0,0.0,0.0,-0.039143201077418074,0.00507839970313086,-0.0013898908325134201,0.0,0.0,0.0,0.0,0.0,0.0,0.0,0.0,0.0
9.611,277,9,611000000,base_footprint,0.002543661576292076,0.002905881786072664,-0.6598172129358404,0.7514162169865717,0.0,0.0,0.0,0.0,0.0,0.0,0.0,0.0,0.0,-0.00026841148772101497,0.0009944508644814712,-0.10667092807885523,0.0,0.0,0.0,0.0,0.0,0.0,0.0,0.0,0.0,-0.013521948467413104,0.019945244510613178,0.0011529984704167716,0.0,0.0,0.0,0.0,0.0,0.0,0.0,0.0,0.0
9.645,278,9,645000000,base_footprint,0.0025475870219372797,0.0029031458885866363,-0.6605638795513193,0.7507599100754017,0.0,0.0,0.0,0.0,0.0,0.0,0.0,0.0,0.0,-0.00020788282815320663,0.00022098903345858342,-0.004900530009723509,0.0,0.0,0.0,0.0,0.0,0.0,0.0,0.0,0.0,-0.012641251607100112,0.012819069688881534,0.00010074010879200308,0.0,0.0,0.0,0.0,0.0,0.0,0.0,0.0,0.0
9.679,279,9,679000000,base_footprint,0.002546567399010501,0.002904482508963449,-0.660888076272486,0.750474536288001,0.0,0.0,0.0,0.0,0.0,0.0,0.0,0.0,0.0,-8.978407093459937e-05,0.0012672010006335665,-0.08861578883374481,0.0,0.0,0.0,0.0,0.0,0.0,0.0,0.0,0.0,0.2705208959115021,0.07371758737347474,0.0007130675206943292,0.0,0.0,0.0,0.0,0.0,0.0,0.0,0.0,0.0
9.713000000000001,280,9,713000000,base_footprint,0.0025594764690627303,0.0029015144851602392,-0.6623134804462036,0.7492168470563999,0.0,0.0,0.0,0.0,0.0,0.0,0.0,0.0,0.0,-0.00018974421257068858,0.0007325345728287078,-0.11383981704958304,0.0,0.0,0.0,0.0,0.0,0.0,0.0,0.0,0.0,0.04427721789630052,0.03532040865190035,-0.0009169991533491587,0.0,0.0,0.0,0.0,0.0,0.0,0.0,0.0,0.0
9.747,281,9,747000000,base_footprint,0.002559502732815461,0.0029008896069561215,-0.6630190592988696,0.7485925198608995,0.0,0.0,0.0,0.0,0.0,0.0,0.0,0.0,0.0,-0.0007830648153024837,-0.0011432891884742267,0.013358219136909023,0.0,0.0,0.0,0.0,0.0,0.0,0.0,0.0,0.0,0.00765810539039208,0.01741573711859764,-0.0006438899435344697,0.0,0.0,0.0,0.0,0.0,0.0,0.0,0.0,0.0
9.781,282,9,781000000,base_footprint,0.0025509079392283533,0.0029026790499076037,-0.662920126915021,0.748680153773286,0.0,0.0,0.0,0.0,0.0,0.0,0.0,0.0,0.0,0.00019287451012848155,0.00036733851409164646,-0.014562906618860196,0.0,0.0,0.0,0.0,0.0,0.0,0.0,0.0,0.0,0.151056708309106,0.03383279249685527,0.0015147241090392228,0.0,0.0,0.0,0.0,0.0,0.0,0.0,0.0,0.0
9.815,283,9,815000000,base_footprint,0.002561309081191722,0.002903510579445746,-0.6634136916740805,0.7482427968390166,0.0,0.0,0.0,0.0,0.0,0.0,0.0,0.0,0.0,-0.0008662421050694338,-0.0003588212317790969,-0.05386031163844736,0.0,0.0,0.0,0.0,0.0,0.0,0.0,0.0,0.0,0.08414383820329781,0.02851291123587532,-0.0019000709975682073,0.0,0.0,0.0,0.0,0.0,0.0,0.0,0.0,0.0
9.849,284,9,849000000,base_footprint,0.0025498088740965753,0.0029009554664610154,-0.6640012786781447,0.7477214620738634,0.0,0.0,0.0,0.0,0.0,0.0,0.0,0.0,0.0,-0.00014855042657038763,0.00011041305521467834,-0.031389988858428454,0.0,0.0,0.0,0.0,0.0,0.0,0.0,0.0,0.0,0.0330644601793885,0.014078555789297151,0.002251269288619198,0.0,0.0,0.0,0.0,0.0,0.0,0.0,0.0,0.0
9.883,285,9,883000000,base_footprint,0.0025502581558092007,0.0028911949601728264,-0.6641051570322654,0.7476292380439594,0.0,0.0,0.0,0.0,0.0,0.0,0.0,0.0,0.0,-0.001289177446527959,0.0005029342748334752,0.028294937468454632,0.0,0.0,0.0,0.0,0.0,0.0,0.0,0.0,0.0,-0.07882666960447299,-0.02436023321259179,0.001430731296536109,0.0,0.0,0.0,0.0,0.0,0.0,0.0,0.0,0.0
9.917,286,9,917000000,base_footprint,0.0025492822254055405,0.0028968112731886657,-0.6628545873590078,0.7487382090301671,0.0,0.0,0.0,0.0,0.0,0.0,0.0,0.0,0.0,0.0003741315678947005,-0.0004539993790684834,0.16509668956406837,0.0,0.0,0.0,0.0,0.0,0.0,0.0,0.0,0.0,-0.12008136269602612,-0.038072948643593375,-0.002619401762288985,0.0,0.0,0.0,0.0,0.0,0.0,0.0,0.0,0.0
9.951,287,9,951000000,base_footprint,0.002553263937102239,0.0029127265909517025,-0.6611293407779298,0.7502619486750036,0.0,0.0,0.0,0.0,0.0,0.0,0.0,0.0,0.0,-0.0003937165588837715,-1.7648118928129542e-05,0.0518280788253388,0.0,0.0,0.0,0.0,0.0,0.0,0.0,0.0,0.0,0.20636021057250736,0.017944676046201966,0.0011924288870444133,0.0,0.0,0.0,0.0,0.0,0.0,0.0,0.0,0.0
9.985,288,9,985000000,base_footprint,0.002538742976053235,0.0029104524813735617,-0.6598764597267499,0.7513641872946477,0.0,0.0,0.0,0.0,0.0,0.0,0.0,0.0,0.0,0.00047077292971890955,-0.0013210742876191492,0.18471095551991062,0.0,0.0,0.0,0.0,0.0,0.0,0.0,0.0,0.0,-0.08896532576565705,-0.036274489312140126,-0.001071413466010684,0.0,0.0,0.0,0.0,0.0,0.0,0.0,0.0,0.0
10.019,289,10,19000000,base_footprint,0.002532159382128634,0.0029194216165793836,-0.6571191923429391,0.7537767787620228,0.0,0.0,0.0,0.0,0.0,0.0,0.0,0.0,0.0,0.00021533179935403913,-0.0013993154656272231,0.21883796319377777,0.0,0.0,0.0,0.0,0.0,0.0,0.0,0.0,0.0,-0.059892052489830504,-0.06354258999635165,4.432063078036954e-05,0.0,0.0,0.0,0.0,0.0,0.0,0.0,0.0,0.0
10.053,290,10,53000000,base_footprint,0.002526214942599654,0.0029266149586289233,-0.6550081808320979,0.7556118952253025,0.0,0.0,0.0,0.0,0.0,0.0,0.0,0.0,0.0,-0.00035791478206646674,0.00012302886949885333,0.06013960241387269,0.0,0.0,0.0,0.0,0.0,0.0,0.0,0.0,0.0,0.4627437990124891,0.09659354779601231,0.000843717296469288,0.0,0.0,0.0,0.0,0.0,0.0,0.0,0.0,0.0
10.087,291,10,87000000,base_footprint,0.0025158551635235554,0.002928810612516764,-0.6532908523317209,0.757097189798566,0.0,0.0,0.0,0.0,0.0,0.0,0.0,0.0,0.0,0.0003724980543338683,-0.0026103386632063998,0.22047266470973198,0.0,0.0,0.0,0.0,0.0,0.0,0.0,0.0,0.0,-0.1284270757613532,-0.06150377863192555,-0.0020457127655309796,0.0,0.0,0.0,0.0,0.0,0.0,0.0,0.0,0.0
10.121,292,10,121000000,base_footprint,0.002506655595201424,0.0029367662813042776,-0.6504529353793425,0.7595367475889058,0.0,0.0,0.0,0.0,0.0,0.0,0.0,0.0,0.0,8.38196215931236e-05,-0.0015489367067695234,0.22002167054452132,0.0,0.0,0.0,0.0,0.0,0.0,0.0,0.0,0.0,0.009005835010292007,-0.042440867173822186,0.000733062522621042,0.0,0.0,0.0,0.0,0.0,0.0,0.0,0.0,0.0
10.155,293,10,155000000,base_footprint,0.002494689296939006,0.0029490348707312147,-0.6474012948078094,0.7621395168863867,0.0,0.0,0.0,0.0,0.0,0.0,0.0,0.0,0.0,-0.0004772671630733855,-0.00029244985067116867,0.24098999071246913,0.0,0.0,0.0,0.0,0.0,0.0,0.0,0.0,0.0,0.7144920811355611,0.19475398988510456,0.002412047820112065,0.0,0.0,0.0,0.0,0.0,0.0,0.0,0.0,0.0
10.189,294,10,189000000,base_footprint,0.002487463175653785,0.0029584678571027687,-0.6443117580999528,0.7647531748015409,0.0,0.0,0.0,0.0,0.0,0.0,0.0,0.0,0.0,0.0001430168519408442,-0.0030600342619121106,0.23112097617797617,0.0,0.0,0.0,0.0,0.0,0.0,0.0,0.0,0.0,0.6002863679931536,0.17153508515993487,-0.00316353430365835,0.0,0.0,0.0,0.0,0.0,0.0,0.0,0.0,0.0
10.223,295,10,223000000,base_footprint,0.0024767815547400763,0.0029679958401765427,-0.6413199844043137,0.7672637969808517,0.0,0.0,0.0,0.0,0.0,0.0,0.0,0.0,0.0,0.00010937488057427075,-0.0017504948512825948,0.2293325674681303,0.0,0.0,0.0,0.0,0.0,0.0,0.0,0.0,0.0,0.004156329718892123,-0.03843907515177512,0.0012309026667979674,0.0,0.0,0.0,0.0,0.0,0.0,0.0,0.0,0.0
10.257,296,10,257000000,base_footprint,0.002468630610832736,0.0029799702797578854,-0.6381504884213425,0.7699019286686071,0.0,0.0,0.0,0.0,0.0,0.0,0.0,0.0,0.0,-0.00022446082776749436,-0.0009372559594790815,0.22682206521049897,0.0,0.0,0.0,0.0,0.0,0.0,0.0,0.0,0.0,0.3435754043238861,0.09631443261989098,0.0010749343798042504,0.0,0.0,0.0,0.0,0.0,0.0,0.0,0.0,0.0
10.291,297,10,291000000,base_footprint,0.002456786939805442,0.0029901274405497976,-0.6351600474092766,0.7723708549077103,0.0,0.0,0.0,0.0,0.0,0.0,0.0,0.0,0.0,0.00017742213511251763,-0.0017034583820422407,0.2274035224952847,0.0,0.0,0.0,0.0,0.0,0.0,0.0,0.0,0.0,-0.003963783266639886,-0.03555999442220685,-0.0011194099272566747,0.0,0.0,0.0,0.0,0.0,0.0,0.0,0.0,0.0
10.325,298,10,325000000,base_footprint,0.0024462766245230486,0.0030008580861748896,-0.6321805424092524,0.774811443114108,0.0,0.0,0.0,0.0,0.0,0.0,0.0,0.0,0.0,0.00026821707986086164,-0.0016599176221402173,0.22558623430613378,0.0,0.0,0.0,0.0,0.0,0.0,0.0,0.0,0.0,0.012280476410043624,-0.028033890134554672,-0.0003658729010771669,0.0,0.0,0.0,0.0,0.0,0.0,0.0,0.0,0.0
10.359,299,10,359000000,base_footprint,0.002424670797456085,0.0030125855116746626,-0.6285837512621169,0.7777322887403505,0.0,0.0,0.0,0.0,0.0,0.0,0.0,0.0,0.0,-5.837152417693405e-05,-0.002960631836365313,0.2754231084477833,0.0,0.0,0.0,0.0,0.0,0.0,0.0,0.0,0.0,0.20768039459948157,0.051298819429589484,-0.0013023068770596075,0.0,0.0,0.0,0.0,0.0,0.0,0.0,0.0,0.0
10.393,300,10,393000000,base_footprint,0.002410183220228901,0.0030243817662605303,-0.6251322925751439,0.780509231791349,0.0,0.0,0.0,0.0,0.0,0.0,0.0,0.0,0.0,0.000764813407035807,-0.0016754539764175687,0.24917112959329699,0.0,0.0,0.0,0.0,0.0,0.0,0.0,0.0,0.0,0.035464150430219256,-0.02233666215983531,0.0013843754629063183,0.0,0.0,0.0,0.0,0.0,0.0,0.0,0.0,0.0
10.426,301,10,427000000,base_footprint,0.0023993157415099437,0.0030378999947923064,-0.6221651176353747,0.7828764786640066,0.0,0.0,0.0,0.0,0.0,0.0,0.0,0.0,0.0,0.00026757008972758426,-0.0033394695888672747,0.19805210904393517,0.0,0.0,0.0,0.0,0.0,0.0,0.0,0.0,0.0,0.12544361615305594,0.027048537654186335,0.0003859093762413425,0.0,0.0,0.0,0.0,0.0,0.0,0.0,0.0,0.0
10.461,302,10,461000000,base_footprint,0.0023870859691469816,0.0030510024684603097,-0.619221345908998,0.785206926851236,0.0,0.0,0.0,0.0,0.0,0.0,0.0,0.0,0.0,0.001067137436743669,-0.0002304251401001221,0.1998756512232384,0.0,0.0,0.0,0.0,0.0,0.0,0.0,0.0,0.0,0.32575112533110256,0.13880032116043264,0.0006977288789794429,0.0,0.0,0.0,0.0,0.0,0.0,0.0,0.0,0.0
10.495,303,10,495000000,base_footprint,0.002380611304841223,0.0030575024998606426,-0.6166511414153489,0.7872270029409726,0.0,0.0,0.0,0.0,0.0,0.0,0.0,0.0,0.0,0.00043478512760497274,-0.0014963476773373991,0.19408276261049587,0.0,0.0,0.0,0.0,0.0,0.0,0.0,0.0,0.0,-0.010422980337086434,-0.0309823181435488,-0.0013953503666264252,0.0,0.0,0.0,0.0,0.0,0.0,0.0,0.0,0.0
10.529,304,10,529000000,base_footprint,0.0023709987764451382,0.003067996853485639,-0.614056835281065,0.7892522846369924,0.0,0.0,0.0,0.0,0.0,0.0,0.0,0.0,0.0,0.0015807027298144218,-0.0029908676277703157,0.17867147033628614,0.0,0.0,0.0,0.0,0.0,0.0,0.0,0.0,0.0,0.021918437297332043,-0.011699124360072173,-0.0007302409103978993,0.0,0.0,0.0,0.0,0.0,0.0,0.0,0.0,0.0
10.563,305,10,563000000,base_footprint,0.002359066371440982,0.003072604805498061,-0.6118916784312325,0.7909320879646833,0.0,0.0,0.0,0.0,0.0,0.0,0.0,0.0,0.0,0.000619752355023859,-0.0011559103144372462,0.16257829450741898,0.0,0.0,0.0,0.0,0.0,0.0,0.0,0.0,0.0,-0.009245031256978103,-0.02687820248456485,0.00023920294887365417,0.0,0.0,0.0,0.0,0.0,0.0,0.0,0.0,0.0
10.597,306,10,597000000,base_footprint,0.002348240100145709,0.003076561448404954,-0.6096616159553855,0.7926523415525588,0.0,0.0,0.0,0.0,0.0,0.0,0.0,0.0,0.0,0.00011715503147685045,-0.0009891782242820604,0.16777458663283984,0.0,0.0,0.0,0.0,0.0,0.0,0.0,0.0,0.0,0.01969108261135018,-0.011190487014185256,0.0008465893862651987,0.0,0.0,0.0,0.0,0.0,0.0,0.0,0.0,0.0
10.631,307,10,631000000,base_footprint,0.0023396457482602,0.003073498650794963,-0.6073516414608866,0.7944237303093249,0.0,0.0,0.0,0.0,0.0,0.0,0.0,0.0,0.0,9.24127526602818e-05,-0.0002759133282183861,0.17000518007751497,0.0,0.0,0.0,0.0,0.0,0.0,0.0,0.0,0.0,0.04270153943707248,-8.95165850899049e-06,0.00115742619496915,0.0,0.0,0.0,0.0,0.0,0.0,0.0,0.0,0.0
10.665,308,10,665000000,base_footprint,0.0023317073297879245,0.0030846572910756542,-0.6048686540382947,0.7963158665958042,0.0,0.0,0.0,0.0,0.0,0.0,0.0,0.0,0.0,0.0007542513870875561,-0.0015852958728454158,0.19407407405833837,0.0,0.0,0.0,0.0,0.0,0.0,0.0,0.0,0.0,0.062414914363690274,0.014581978181411898,-0.0016853732355456325,0.0,0.0,0.0,0.0,0.0,0.0,0.0,0.0,0.0
10.699,309,10,699000000,base_footprint,0.0023208755339261117,0.0030873096903281734,-0.6022302097309987,0.7983131318868488,0.0,0.0,0.0,0.0,0.0,0.0,0.0,0.0,0.0,-6.086560377514523e-05,-0.0013053444503908244,0.1919778306203369,0.0,0.0,0.0,0.0,0.0,0.0,0.0,0.0,0.0,0.004833573590607742,-0.022793816284099083,0.0008542866719862359,0.0,0.0,0.0,0.0,0.0,0.0,0.0,0.0,0.0
10.733,310,10,733000000,base_footprint,0.002310908725996936,0.003091571804226674,-0.599791255154525,0.8001472065343969,0.0,0.0,0.0,0.0,0.0,0.0,0.0,0.0,0.0,-0.0009700285403061288,0.0011973119609334408,0.14967145917260058,0.0,0.0,0.0,0.0,0.0,0.0,0.0,0.0,0.0,-0.012606913571397649,-0.032762362784990354,0.001499860970258228,0.0,0.0,0.0,0.0,0.0,0.0,0.0,0.0,0.0
10.767,311,10,767000000,base_footprint,0.002303987510062757,0.003108590363690649,-0.5979612507764869,0.8015156710116925,0.0,0.0,0.0,0.0,0.0,0.0,0.0,0.0,0.0,0.00042914453206162806,-0.0008570097338640321,0.12082797573593487,0.0,0.0,0.0,0.0,0.0,0.0,0.0,0.0,0.0,-0.06104991870226934,-0.05826113480534741,-0.0031457297604681224,0.0,0.0,0.0,0.0,0.0,0.0,0.0,0.0,0.0
10.801,312,10,801000000,base_footprint,0.00229776569306542,0.003110911135579213,-0.5962698833717218,0.8027747309728923,0.0,0.0,0.0,0.0,0.0,0.0,0.0,0.0,0.0,0.00016729710329654003,-0.0007258410615656566,0.1244961374454434,0.0,0.0,0.0,0.0,0.0,0.0,0.0,0.0,0.0,0.013306160257445736,-0.006130317974774116,0.0003281199622595344,0.0,0.0,0.0,0.0,0.0,0.0,0.0,0.0,0.0
10.835,313,10,835000000,base_footprint,0.0022913235475950353,0.0031145471862418688,-0.5945619724832827,0.804040490466129,0.0,0.0,0.0,0.0,0.0,0.0,0.0,0.0,0.0,0.00015991080614261575,-0.0007508336603863653,0.12691734437040095,0.0,0.0,0.0,0.0,0.0,0.0,0.0,0.0,0.0,0.00721077961619696,-0.012267063543611994,-0.00013672111829293588,0.0,0.0,0.0,0.0,0.0,0.0,0.0,0.0,0.0
10.869,314,10,869000000,base_footprint,0.0022850607564544505,0.003118707249365125,-0.5928280791733817,0.80531976301717,0.0,0.0,0.0,0.0,0.0,0.0,0.0,0.0,0.0,0.00023204583587070772,-0.0007990730251683289,0.12690245424675242,0.0,0.0,0.0,0.0,0.0,0.0,0.0,0.0,0.0,0.006228067241096537,-0.013210152322219695,-0.00023157340374612348,0.0,0.0,0.0,0.0,0.0,0.0,0.0,0.0,0.0
10.903,315,10,903000000,base_footprint,0.0022791521467415625,0.0031232203483911934,-0.5910905179166738,0.8065959648976343,0.0,0.0,0.0,0.0,0.0,0.0,0.0,0.0,0.0,0.0002450946955519226,-0.0008262717945717892,0.12695727565823883,0.0,0.0,0.0,0.0,0.0,0.0,0.0,0.0,0.0,0.006446240380574218,-0.013227313489487203,-0.00017271191181437314,0.0,0.0,0.0,0.0,0.0,0.0,0.0,0.0,0.0
10.937,316,10,937000000,base_footprint,0.0022720298174185656,0.0031257773938878136,-0.5892241718342364,0.8079603596232003,0.0,0.0,0.0,0.0,0.0,0.0,0.0,0.0,0.0,0.0007618629144770679,-0.0019135430840433267,0.15944128312108663,0.0,0.0,0.0,0.0,0.0,0.0,0.0,0.0,0.0,0.015366918197726837,-0.005126541460850613,-0.0014514809569218428,0.0,0.0,0.0,0.0,0.0,0.0,0.0,0.0,0.0
10.971,317,10,971000000,base_footprint,0.002266432580780897,0.0031332570853772617,-0.5870531594050892,0.8095391491558,0.0,0.0,0.0,0.0,0.0,0.0,0.0,0.0,0.0,0.00015038714606157064,-0.0011418325833567544,0.15779640459806737,0.0,0.0,0.0,0.0,0.0,0.0,0.0,0.0,0.0,0.006760452015347926,-0.01994445230736265,0.0014118626581513822,0.0,0.0,0.0,0.0,0.0,0.0,0.0,0.0,0.0
11.005,318,11,5000000,base_footprint,0.0022596365608438824,0.0031383929566120993,-0.5848834257365867,0.8111081449664388,0.0,0.0,0.0,0.0,0.0,0.0,0.0,0.0,0.0,0.00012044084570714958,-0.001168387682651976,0.15736282782247862,0.0,0.0,0.0,0.0,0.0,0.0,0.0,0.0,0.0,0.00877318912658945,-0.01576308171256983,-0.0002142334346303658,0.0,0.0,0.0,0.0,0.0,0.0,0.0,0.0,0.0
11.039,319,11,39000000,base_footprint,0.002252013080907314,0.0031434869804151007,-0.5830648910063987,0.8124163832680775,0.0,0.0,0.0,0.0,0.0,0.0,0.0,0.0,0.0,0.0020047928062039604,-0.005190204594585156,0.05633300925146705,0.0,0.0,0.0,0.0,0.0,0.0,0.0,0.0,0.0,-0.013900251315566013,-0.0300331294390853,-0.007166782129883533,0.0,0.0,0.0,0.0,0.0,0.0,0.0,0.0,0.0
11.073,320,11,73000000,base_footprint,0.0022525463879441887,0.0031444657788211867,-0.5822780725120188,0.8129804946254395,0.0,0.0,0.0,0.0,0.0,0.0,0.0,0.0,0.0,-0.00011967235902760627,-0.0004395392205948289,0.05677024128019439,0.0,0.0,0.0,0.0,0.0,0.0,0.0,0.0,0.0,0.004985832867004892,-0.0049720726355934625,0.006882228163092976,0.0,0.0,0.0,0.0,0.0,0.0,0.0,0.0,0.0
11.107,321,11,107000000,base_footprint,0.0022503076251502614,0.0031460478735728693,-0.581504216351306,0.8135341940349053,0.0,0.0,0.0,0.0,0.0,0.0,0.0,0.0,0.0,-0.00012015942513517443,-0.0004011399132933291,0.0553120250321793,0.0,0.0,0.0,0.0,0.0,0.0,0.0,0.0,0.0,0.003390308709789046,-0.00513151228472863,-1.3085681457055647e-05,0.0,0.0,0.0,0.0,0.0,0.0,0.0,0.0,0.0
11.141,322,11,141000000,base_footprint,0.0022465237019722406,0.0031478251871591514,-0.5808380959113414,0.814009920496019,0.0,0.0,0.0,0.0,0.0,0.0,0.0,0.0,0.0,-9.782600433663571e-05,-0.00019864032874096984,0.0346107230773728,0.0,0.0,0.0,0.0,0.0,0.0,0.0,0.0,0.0,-0.0026170634135068054,-0.01393068526289263,-0.0002921448920308146,0.0,0.0,0.0,0.0,0.0,0.0,0.0,0.0,0.0
11.175,323,11,175000000,base_footprint,0.002239029911142497,0.0031494654223045166,-0.5804124863373404,0.8143134613380265,0.0,0.0,0.0,0.0,0.0,0.0,0.0,0.0,0.0,2.83410234490407e-06,0.00016298848183644187,0.027659883178090504,0.0,0.0,0.0,0.0,0.0,0.0,0.0,0.0,0.0,0.012452740683413899,0.006030120366409071,0.000443788151578255,0.0,0.0,0.0,0.0,0.0,0.0,0.0,0.0,0.0
11.209,324,11,209000000,base_footprint,0.002237591559971598,0.0031512460246674477,-0.5801419648357468,0.81450620836739,0.0,0.0,0.0,0.0,0.0,0.0,0.0,0.0,0.0,-0.0002515439385900112,-0.0005461989376901807,0.01083881342247946,0.0,0.0,0.0,0.0,0.0,0.0,0.0,0.0,0.0,0.025139918264780955,0.019383889734098193,-0.0008066408710801169,0.0,0.0,0.0,0.0,0.0,0.0,0.0,0.0,0.0
11.243,325,11,243000000,base_footprint,0.0022398233448253798,0.0031533218734885733,-0.5799037916306619,0.814675783489928,0.0,0.0,0.0,0.0,0.0,0.0,0.0,0.0,0.0,6.405759237504462e-05,-0.00039651323400022634,0.027773639828769212,0.0,0.0,0.0,0.0,0.0,0.0,0.0,0.0,0.0,-0.017044330977282404,-0.01523197845126678,0.0001866241449305467,0.0,0.0,0.0,0.0,0.0,0.0,0.0,0.0,0.0
11.277,326,11,277000000,base_footprint,0.0022367301277853276,0.003156743010185258,-0.5794490897536104,0.8149992542300978,0.0,0.0,0.0,0.0,0.0,0.0,0.0,0.0,0.0,-5.38943772908698e-05,-0.00024011830561743196,0.03077639893460895,0.0,0.0,0.0,0.0,0.0,0.0,0.0,0.0,0.0,-0.004876060276618926,-0.00970434306674756,0.00010735293449103227,0.0,0.0,0.0,0.0,0.0,0.0,0.0,0.0,0.0
11.311,327,11,311000000,base_footprint,0.002234592510734648,0.003159911565204676,-0.5790116199573613,0.8153101038927234,0.0,0.0,0.0,0.0,0.0,0.0,0.0,0.0,0.0,1.5979714833568238e-05,-0.00018530696913386305,0.031158279973754678,0.0,0.0,0.0,0.0,0.0,0.0,0.0,0.0,0.0,-0.0007100366237863466,-0.004865085398226205,-8.346611222245576e-06,0.0,0.0,0.0,0.0,0.0,0.0,0.0,0.0,0.0
11.345,328,11,345000000,base_footprint,0.002229934800852049,0.0031643262685193975,-0.5780597481142054,0.8159852584699014,0.0,0.0,0.0,0.0,0.0,0.0,0.0,0.0,0.0,-0.0005306018026826534,-0.0011168038144451894,0.11923263209406502,0.0,0.0,0.0,0.0,0.0,0.0,0.0,0.0,0.0,0.01671246916082675,0.008590801401349372,0.0004663038413725241,0.0,0.0,0.0,0.0,0.0,0.0,0.0,0.0,0.0
11.379,329,11,379000000,base_footprint,0.002221659795953703,0.0031702682699901986,-0.5764212516405627,0.8171435334651891,0.0,0.0,0.0,0.0,0.0,0.0,0.0,0.0,0.0,0.00031679926308537075,-0.0007536530821073606,0.11786097809690695,0.0,0.0,0.0,0.0,0.0,0.0,0.0,0.0,0.0,0.011868049459047148,-0.011689429933279556,-0.0006820843369769917,0.0,0.0,0.0,0.0,0.0,0.0,0.0,0.0,0.0
