Time,header.seq,header.stamp.secs,header.stamp.nsecs,header.frame_id,orientation.x,orientation.y,orientation.z,orientation.w,orientation_covariance_0,orientation_covariance_1,orientation_covariance_2,orientation_covariance_3,orientation_covariance_4,orientation_covariance_5,orientation_covariance_6,orientation_covariance_7,orientation_covariance_8,angular_velocity.x,angular_velocity.y,angular_velocity.z,angular_velocity_covariance_0,angular_velocity_covariance_1,angular_velocity_covariance_2,angular_velocity_covariance_3,angular_velocity_covariance_4,angular_velocity_covariance_5,angular_velocity_covariance_6,angular_velocity_covariance_7,angular_velocity_covariance_8,linear_acceleration.x,linear_acceleration.y,linear_acceleration.z,linear_acceleration_covariance_0,linear_acceleration_covariance_1,linear_acceleration_covariance_2,linear_acceleration_covariance_3,linear_acceleration_covariance_4,linear_acceleration_covariance_5,linear_acceleration_covariance_6,linear_acceleration_covariance_7,linear_acceleration_covariance_8
0.222,0,0,222000000,base_footprint,0.0009193279177579047,-0.00040311692379939697,0.9238431516026837,0.3827699355614888,0.0,0.0,0.0,0.0,0.0,0.0,0.0,0.0,0.0,0.047653368904894904,0.0004361596407884624,-0.00038473826810692157,0.0,0.0,0.0,0.0,0.0,0.0,0.0,0.0,0.0,-0.00010115953154093654,-0.0001964164856747609,-0.06916930337778962,0.0,0.0,0.0,0.0,0.0,0.0,0.0,0.0,0.0
0.256,1,0,256000000,base_footprint,0.0001654676361303345,-9.93481907850093e-05,0.9238417116475892,0.38277467859101005,0.0,0.0,0.0,0.0,0.0,0.0,0.0,0.0,0.0,0.047635114460660315,0.0004350961350593936,-0.0003278810297976423,0.0,0.0,0.0,0.0,0.0,0.0,0.0,0.0,0.0,4.1261513359848416e-05,0.00018188913783389116,5.191082515413913e-05,0.0,0.0,0.0,0.0,0.0,0.0,0.0,0.0,0.0
0.29000000000000004,2,0,290000000,base_footprint,-0.0008221665822773875,0.00029805658653307313,0.9238399272474642,0.3827780349338013,0.0,0.0,0.0,0.0,0.0,0.0,0.0,0.0,0.0,0.06779661259263751,0.0005920265229124415,-0.0001547052054475828,0.0,0.0,0.0,0.0,0.0,0.0,0.0,0.0,0.0,-5.552799446077565e-06,0.0010205622515041617,0.002977921394964619,0.0,0.0,0.0,0.0,0.0,0.0,0.0,0.0,0.0
0.324,3,0,324000000,base_footprint,-0.0018926642932667725,0.0007299147124930807,0.9238369431076863,0.3827808610626077,0.0,0.0,0.0,0.0,0.0,0.0,0.0,0.0,0.0,0.06772134249251026,0.0005912071516503657,-5.233925492020489e-05,0.0,0.0,0.0,0.0,0.0,0.0,0.0,0.0,0.0,2.8291809471335817e-05,0.00025342045695226755,0.00014718962087937075,0.0,0.0,0.0,0.0,0.0,0.0,0.0,0.0,0.0
0.35800000000000004,4,0,358000000,base_footprint,-0.0029619622263165764,0.0011612756881255698,0.9238326601865884,0.38278335150724324,0.0,0.0,0.0,0.0,0.0,0.0,0.0,0.0,0.0,0.06764511438243284,0.0005908817550685369,4.5479045178095575e-05,0.0,0.0,0.0,0.0,0.0,0.0,0.0,0.0,0.0,2.462960466001143e-06,0.0002688189086389854,0.0001501377274538021,0.0,0.0,0.0,0.0,0.0,0.0,0.0,0.0,0.0
0.392,5,0,392000000,base_footprint,-0.0036203047904104432,0.0014916115379131453,0.9238276888669681,0.3827885444615095,0.0,0.0,0.0,0.0,0.0,0.0,0.0,0.0,0.0,-0.020304241577651004,5.82267418339881e-05,-0.0007408650511139016,0.0,0.0,0.0,0.0,0.0,0.0,0.0,0.0,0.0,0.009466674694240024,-0.0067856616082094924,0.1305386662900218,0.0,0.0,0.0,0.0,0.0,0.0,0.0,0.0,0.0
0.42600000000000005,6,0,426000000,base_footprint,-0.0035691784157754736,0.0014711756023396846,0.9238260243810205,0.3827931207377448,0.0,0.0,0.0,0.0,0.0,0.0,0.0,0.0,0.0,-0.0004678028675631125,-6.170512162124349e-05,3.609100956618938e-05,0.0,0.0,0.0,0.0,0.0,0.0,0.0,0.0,0.0,-0.0101880158163416,0.006374169490379789,0.0018146812946156813,0.0,0.0,0.0,0.0,0.0,0.0,0.0,0.0,0.0
0.466,7,0,460000000,base_footprint,-0.003569431645026846,0.001471212105329019,0.923827132864895,0.38279044303025667,0.0,0.0,0.0,0.0,0.0,0.0,0.0,0.0,0.0,-0.0001802787478608412,-2.9527248737985176e-05,0.00026838842848453333,0.0,0.0,0.0,0.0,0.0,0.0,0.0,0.0,0.0,0.00044834903599586743,6.694100358790129e-05,-0.0003463215367121192,0.0,0.0,0.0,0.0,0.0,0.0,0.0,0.0,0.0
0.49400000000000005,8,0,494000000,base_footprint,-0.003569350716791682,0.0014711287696436625,0.9238289776771632,0.3827859918016478,0.0,0.0,0.0,0.0,0.0,0.0,0.0,0.0,0.0,-0.00018080840669526586,-3.068440848613029e-05,0.0003199951919455732,0.0,0.0,0.0,0.0,0.0,0.0,0.0,0.0,0.0,0.00010003582816811755,1.301631423550544e-05,-4.1692692464904216e-06,0.0,0.0,0.0,0.0,0.0,0.0,0.0,0.0,0.0
0.528,9,0,528000000,base_footprint,-0.003569341931406953,0.0014710885950599242,0.923830998064629,0.3827811159284558,0.0,0.0,0.0,0.0,0.0,0.0,0.0,0.0,0.0,-0.0001785683018140821,-3.0895473899589155e-05,0.0003326644624826329,0.0,0.0,0.0,0.0,0.0,0.0,0.0,0.0,0.0,2.453771460714141e-05,3.171948472673569e-06,-3.528256218369572e-06,0.0,0.0,0.0,0.0,0.0,0.0,0.0,0.0,0.0
0.562,10,0,562000000,base_footprint,-0.0035693481261895657,0.0014710589181550096,0.9238330616824798,0.38277613546561234,0.0,0.0,0.0,0.0,0.0,0.0,0.0,0.0,0.0,-0.00017807151333264573,-3.098392893353122e-05,0.00033579547323711964,0.0,0.0,0.0,0.0,0.0,0.0,0.0,0.0,0.0,6.062919848673099e-06,7.665723534120154e-07,-7.51894758756299e-07,0.0,0.0,0.0,0.0,0.0,0.0,0.0,0.0,0.0
0.5960000000000001,11,0,596000000,base_footprint,-0.0035693577999771626,0.0014710323433189637,0.9238351359697723,0.38277112913130384,0.0,0.0,0.0,0.0,0.0,0.0,0.0,0.0,0.0,-0.00017794922641713778,-3.104164092997973e-05,0.0003365762492150128,0.0,0.0,0.0,0.0,0.0,0.0,0.0,0.0,0.0,1.5129194206945087e-06,2.0857761501339012e-07,-1.8831501339210052e-07,0.0,0.0,0.0,0.0,0.0,0.0,0.0,0.0,0.0
0.63,12,0,630000000,base_footprint,-0.003569368149023901,0.0014710069774273502,0.9238372129188649,0.3827661162848576,0.0,0.0,0.0,0.0,0.0,0.0,0.0,0.0,0.0,-0.00017792013428122126,-3.10890197035685e-05,0.0003367789248066313,0.0,0.0,0.0,0.0,0.0,0.0,0.0,0.0,0.0,3.936870606182806e-07,7.123790540203611e-08,-4.93034780589236e-08,0.0,0.0,0.0,0.0,0.0,0.0,0.0,0.0,0.0
0.664,13,0,664000000,base_footprint,-0.0035693785006761665,0.0014709823133903608,0.9238392905599782,0.382761101688493,0.0,0.0,0.0,0.0,0.0,0.0,0.0,0.0,0.0,-0.0001779139577937443,-3.113133456611176e-05,0.000336839394802417,0.0,0.0,0.0,0.0,0.0,0.0,0.0,0.0,0.0,1.1832117506030436e-07,3.739640750862209e-08,-1.5778039082257623e-08,0.0,0.0,0.0,0.0,0.0,0.0,0.0,0.0,0.0
0.6980000000000001,14,0,698000000,base_footprint,-0.003569388704675617,0.0014709581888703535,0.923841368408585,0.38275608651363696,0.0,0.0,0.0,0.0,0.0,0.0,0.0,0.0,0.0,-0.00017791342924367948,-3.117011602369289e-05,0.0003368648845091127,0.0,0.0,0.0,0.0,0.0,0.0,0.0,0.0,0.0,5.054113299764031e-08,2.9023236330137527e-08,-8.1172750356905e-09,0.0,0.0,0.0,0.0,0.0,0.0,0.0,0.0,0.0
0.7330000000000001,15,0,732000000,base_footprint,-0.003569398737845502,0.0014709345298231163,0.9238434463455049,0.38275107104842937,0.0,0.0,0.0,0.0,0.0,0.0,0.0,0.0,0.0,-0.00017791429984699399,-3.120595298893813e-05,0.00033688176969999344,0.0,0.0,0.0,0.0,0.0,0.0,0.0,0.0,0.0,3.3827993657927605e-08,2.6920640776948638e-08,-6.764816565592818e-09,0.0,0.0,0.0,0.0,0.0,0.0,0.0,0.0,0.0
0.766,16,0,766000000,base_footprint,-0.0035694086069883763,0.0014709112870894211,0.9238455243414248,0.3827460553637362,0.0,0.0,0.0,0.0,0.0,0.0,0.0,0.0,0.0,-0.00017791552370749236,-3.1239183022164146e-05,0.0003368965384519273,0.0,0.0,0.0,0.0,0.0,0.0,0.0,0.0,0.0,2.968032141404438e-08,2.6364971121156713e-08,-6.91468231317557e-09,0.0,0.0,0.0,0.0,0.0,0.0,0.0,0.0,0.0
0.8,17,0,800000000,base_footprint,-0.0035694183251204787,0.0014708884205044417,0.9238476023891371,0.38274103947697774,0.0,0.0,0.0,0.0,0.0,0.0,0.0,0.0,0.0,-0.00017791684260569282,-3.1270064028943914e-05,0.0003369107867083566,0.0,0.0,0.0,0.0,0.0,0.0,0.0,0.0,0.0,2.862690455844495e-08,2.6193651345947153e-08,-7.389466050602763e-09,0.0,0.0,0.0,0.0,0.0,0.0,0.0,0.0,0.0
0.8340000000000001,18,0,834000000,base_footprint,-0.0035694279057329305,0.0014708658947215178,0.9238496804868721,0.38273602339242924,0.0,0.0,0.0,0.0,0.0,0.0,0.0,0.0,0.0,-0.00017791819245067993,-3.129881794136014e-05,0.0003369249070545418,0.0,0.0,0.0,0.0,0.0,0.0,0.0,0.0,0.0,2.8337723008114575e-08,2.6120302165275896e-08,-7.903718153374504e-09,0.0,0.0,0.0,0.0,0.0,0.0,0.0,0.0,0.0
0.8680000000000001,19,0,868000000,base_footprint,-0.0035694373614786694,0.0014708436779439287,0.9238517586341958,0.3827310071111318,0.0,0.0,0.0,0.0,0.0,0.0,0.0,0.0,0.0,-0.00017791955668704484,-3.13256433691324e-05,0.0003369389961036997,0.0,0.0,0.0,0.0,0.0,0.0,0.0,0.0,0.0,2.8239409334206392e-08,2.6074149075300012e-08,-8.390561852687997e-09,0.0,0.0,0.0,0.0,0.0,0.0,0.0,0.0,0.0
0.902,20,0,902000000,base_footprint,-0.0035694467039373646,0.001470821741392547,0.9238538368310039,0.38272599063333224,0.0,0.0,0.0,0.0,0.0,0.0,0.0,0.0,0.0,-0.00017792093074101402,-3.135071961812005e-05,0.00033695307761005507,0.0,0.0,0.0,0.0,0.0,0.0,0.0,0.0,0.0,2.819056190186138e-08,2.603746939278219e-08,-8.837706508858117e-09,0.0,0.0,0.0,0.0,0.0,0.0,0.0,0.0,0.0
0.936,21,0,936000000,base_footprint,-0.0035694559436387423,0.0014708000589763448,0.9238559150772726,0.38272097395908217,0.0,0.0,0.0,0.0,0.0,0.0,0.0,0.0,0.0,-0.0001779223128054422,-3.1374209200061586e-05,0.00033696715748007274,0.0,0.0,0.0,0.0,0.0,0.0,0.0,0.0,0.0,2.8156302430043413e-08,2.6005664335038502e-08,-9.244774382331464e-09,0.0,0.0,0.0,0.0,0.0,0.0,0.0,0.0,0.0
0.9700000000000001,22,0,970000000,base_footprint,-0.0035694650901411085,0.0014707786070305101,0.9238579933729972,0.38271595708838485,0.0,0.0,0.0,0.0,0.0,0.0,0.0,0.0,0.0,-0.00017792370209833945,-3.139625932071039e-05,0.00033698123710577255,0.0,0.0,0.0,0.0,0.0,0.0,0.0,0.0,0.0,2.812759328618139e-08,2.597731290147028e-08,-9.614107255581308e-09,0.0,0.0,0.0,0.0,0.0,0.0,0.0,0.0,0.0
1.001,23,1,4000000,base_footprint,-0.0035694741521164687,0.00147075736408818,0.9238600717181787,0.3827109400212324,0.0,0.0,0.0,0.0,0.0,0.0,0.0,0.0,0.0,-0.00017792509784238762,-3.14170038937692e-05,0.00033699531698471173,0.0,0.0,0.0,0.0,0.0,0.0,0.0,0.0,0.0,2.8102446798938647e-08,2.595192667853755e-08,-9.949552168534984e-09,0.0,0.0,0.0,0.0,0.0,0.0,0.0,0.0,0.0
1.038,24,1,38000000,base_footprint,-0.003569483137432479,0.0014707363106758104,0.9238621501128181,0.3827059227576141,0.0,0.0,0.0,0.0,0.0,0.0,0.0,0.0,0.0,-0.00017792649937620393,-3.143656414612994e-05,0.00033700939714153666,0.0,0.0,0.0,0.0,0.0,0.0,0.0,0.0,0.0,2.8079697930101088e-08,2.5929103082372713e-08,-1.0254052981697017e-08,0.0,0.0,0.0,0.0,0.0,0.0,0.0,0.0,0.0
1.072,25,1,72000000,base_footprint,-0.0035694920532259554,0.0014707154291275666,0.9238642285569172,0.3827009052975192,0.0,0.0,0.0,0.0,0.0,0.0,0.0,0.0,0.0,-0.00017792790626028546,-3.145505003674565e-05,0.00033702347767112617,0.0,0.0,0.0,0.0,0.0,0.0,0.0,0.0,0.0,2.8059264406394025e-08,2.5908625013995565e-08,-1.0530119181833634e-08,0.0,0.0,0.0,0.0,0.0,0.0,0.0,0.0,0.0
1.106,26,1,106000000,base_footprint,-0.0035695009059714005,0.0014706947034177954,0.9238663070504776,0.3826958876409368,0.0,0.0,0.0,0.0,0.0,0.0,0.0,0.0,0.0,-0.00017792931801662482,-3.147256135172215e-05,0.00033703755857359395,0.0,0.0,0.0,0.0,0.0,0.0,0.0,0.0,0.0,2.8040766064394744e-08,2.5890239433769525e-08,-1.0780914207550402e-08,0.0,0.0,0.0,0.0,0.0,0.0,0.0,0.0,0.0
1.1400000000000001,27,1,140000000,base_footprint,-0.003569509701541878,0.00147067411900872,0.9238683855935003,0.38269086978785577,0.0,0.0,0.0,0.0,0.0,0.0,0.0,0.0,0.0,-0.00017793073414233614,-3.148918869213497e-05,0.00033705163988279296,0.0,0.0,0.0,0.0,0.0,0.0,0.0,0.0,0.0,2.8024087751179663e-08,2.587376253984498e-08,-1.1008527222435945e-08,0.0,0.0,0.0,0.0,0.0,0.0,0.0,0.0,0.0
1.174,28,1,174000000,base_footprint,-0.0035695184452653223,0.0014706536627120362,0.9238704641859872,0.38268585173826586,0.0,0.0,0.0,0.0,0.0,0.0,0.0,0.0,0.0,-0.00017793215434964207,-3.150501407246035e-05,0.00033706572159054307,0.0,0.0,0.0,0.0,0.0,0.0,0.0,0.0,0.0,2.8008981250178196e-08,2.5858997380948422e-08,-1.1214818360377309e-08,0.0,0.0,0.0,0.0,0.0,0.0,0.0,0.0,0.0
1.208,29,1,208000000,base_footprint,-0.003569527141974922,0.001470633322563883,0.9238725428279388,0.38268083349215626,0.0,0.0,0.0,0.0,0.0,0.0,0.0,0.0,0.0,-0.00017793357816530653,-3.152011205820584e-05,0.00033707980376869494,0.0,0.0,0.0,0.0,0.0,0.0,0.0,0.0,0.0,2.7995457876500456e-08,2.584580512436189e-08,-1.1402337793801723e-08,0.0,0.0,0.0,0.0,0.0,0.0,0.0,0.0,0.0
1.242,30,1,242000000,base_footprint,-0.0035695357960552655,0.0014706130877111924,0.923874621519357,0.38267581504951687,0.0,0.0,0.0,0.0,0.0,0.0,0.0,0.0,0.0,-0.00017793500524519346,-3.153455016488616e-05,0.00033709388636713703,0.0,0.0,0.0,0.0,0.0,0.0,0.0,0.0,0.0,2.7983142869476434e-08,2.5834002351198967e-08,-1.157245291526366e-08,0.0,0.0,0.0,0.0,0.0,0.0,0.0,0.0,0.0
1.276,31,1,276000000,base_footprint,-0.003569544411483556,0.0014705929483084066,0.923876700260242,0.3826707964103375,0.0,0.0,0.0,0.0,0.0,0.0,0.0,0.0,0.0,-0.00017793643534790078,-3.15483896944226e-05,0.00033710796945935243,0.0,0.0,0.0,0.0,0.0,0.0,0.0,0.0,0.0,2.7972156179288176e-08,2.5823489267381553e-08,-1.172676475459987e-08,0.0,0.0,0.0,0.0,0.0,0.0,0.0,0.0,0.0
1.31,32,1,310000000,base_footprint,-0.003569552991867876,0.0014705728954239401,0.923878779050595,0.38266577757460807,0.0,0.0,0.0,0.0,0.0,0.0,0.0,0.0,0.0,-0.00017793786820273594,-3.1561686427001514e-05,0.0003371220530494366,0.0,0.0,0.0,0.0,0.0,0.0,0.0,0.0,0.0,2.7962255584414314e-08,2.5814125090965057e-08,-1.1866783114307386e-08,0.0,0.0,0.0,0.0,0.0,0.0,0.0,0.0,0.0
1.344,33,1,344000000,base_footprint,-0.0035695615404812402,0.0014705529209554774,0.923880857890417,0.3826607585423187,0.0,0.0,0.0,0.0,0.0,0.0,0.0,0.0,0.0,-0.00017793930349504708,-3.1574490638028875e-05,0.00033713613711814554,0.0,0.0,0.0,0.0,0.0,0.0,0.0,0.0,0.0,2.7953289976912144e-08,2.580579342962715e-08,-1.1994144732610927e-08,0.0,0.0,0.0,0.0,0.0,0.0,0.0,0.0,0.0
1.3780000000000001,34,1,378000000,base_footprint,-0.003569570060292831,0.0014705330175528123,0.9238829367797085,0.38265573931345925,0.0,0.0,0.0,0.0,0.0,0.0,0.0,0.0,0.0,-0.00017794074104195373,-3.158684810773284e-05,0.00033715022170642084,0.0,0.0,0.0,0.0,0.0,0.0,0.0,0.0,0.0,2.7945285952686614e-08,2.579841330013923e-08,-1.210929373408957e-08,0.0,0.0,0.0,0.0,0.0,0.0,0.0,0.0,0.0
1.412,35,1,412000000,base_footprint,-0.0035695785539960087,0.0014705131785481761,0.9238850157184705,0.38265071988801996,0.0,0.0,0.0,0.0,0.0,0.0,0.0,0.0,0.0,-0.00017794218056955402,-3.1598800453979485e-05,0.0003371643068434026,0.0,0.0,0.0,0.0,0.0,0.0,0.0,0.0,0.0,2.7938145100537416e-08,2.579188975579069e-08,-1.2214472967565872e-08,0.0,0.0,0.0,0.0,0.0,0.0,0.0,0.0,0.0
1.446,36,1,446000000,base_footprint,-0.003569587024034232,0.0014704933978929185,0.9238870947067037,0.3826457002659911,0.0,0.0,0.0,0.0,0.0,0.0,0.0,0.0,0.0,-0.00017794362191954398,-3.161038523062424e-05,0.0003371783924870808,0.0,0.0,0.0,0.0,0.0,0.0,0.0,0.0,0.0,2.7931644575273458e-08,2.578612588406601e-08,-1.230936027488321e-08,0.0,0.0,0.0,0.0,0.0,0.0,0.0,0.0,0.0
1.48,37,1,480000000,base_footprint,-0.0035655806694270976,0.0014686723509948574,0.9238594404894784,0.3827125080977668,0.0,0.0,0.0,0.0,0.0,0.0,0.0,0.0,0.0,-0.0001693116316186932,-0.00010721154584649456,-0.011982876330001314,0.0,0.0,0.0,0.0,0.0,0.0,0.0,0.0,0.0,-1.6043619018718536e-05,-0.5264253152851747,0.002927663449010557,0.0,0.0,0.0,0.0,0.0,0.0,0.0,0.0,0.0
1.514,38,1,514000000,base_footprint,-0.0035652972163489702,0.001469990972062173,0.9237229113377827,0.38304191787838576,0.0,0.0,0.0,0.0,0.0,0.0,0.0,0.0,0.0,-0.0001600358874291542,-0.0002004797036925205,-0.029348507683410352,0.0,0.0,0.0,0.0,0.0,0.0,0.0,0.0,0.0,-0.001291483846903585,-0.74911451664768,0.004141182823160807,0.0,0.0,0.0,0.0,0.0,0.0,0.0,0.0,0.0
1.548,39,1,548000000,base_footprint,-0.0035649671158144293,0.0014725042458964433,0.923472742253166,0.3836446494558823,0.0,0.0,0.0,0.0,0.0,0.0,0.0,0.0,0.0,-5.351605622356392e-05,-0.00029469872810346487,-0.04676601265602753,0.0,0.0,0.0,0.0,0.0,0.0,0.0,0.0,0.0,-0.00471879900378136,-0.7490635850451861,0.004035989394714933,0.0,0.0,0.0,0.0,0.0,0.0,0.0,0.0,0.0
1.582,40,1,582000000,base_footprint,-0.0035645622978902115,0.0014762072468381337,0.9231084850018711,0.38452027206031575,0.0,0.0,0.0,0.0,0.0,0.0,0.0,0.0,0.0,8.83864307056788e-05,-0.0003894512847420683,-0.06409842157359362,0.0,0.0,0.0,0.0,0.0,0.0,0.0,0.0,0.0,-0.009716780095011535,-0.7404567608651982,0.003932618238341137,0.0,0.0,0.0,0.0,0.0,0.0,0.0,0.0,0.0
1.615,41,1,616000000,base_footprint,-0.003564187052306748,0.0014811424989944846,0.9226308352174426,0.385664938377237,0.0,0.0,0.0,0.0,0.0,0.0,0.0,0.0,0.0,0.00019390433045067827,-0.00048285661200478435,-0.08105584191214965,0.0,0.0,0.0,0.0,0.0,0.0,0.0,0.0,0.0,-0.01613553951986335,-0.7131983825824786,0.00380155458998473,0.0,0.0,0.0,0.0,0.0,0.0,0.0,0.0,0.0
1.65,42,1,650000000,base_footprint,-0.003563791642964928,0.0014872722271537483,0.9220428373940338,0.38706859007262184,0.0,0.0,0.0,0.0,0.0,0.0,0.0,0.0,0.0,0.0003468950810329348,-0.0005751947871983675,-0.09712399099834983,0.0,0.0,0.0,0.0,0.0,0.0,0.0,0.0,0.0,-0.023278793025760858,-0.6537227913047277,0.003394465757964481,0.0,0.0,0.0,0.0,0.0,0.0,0.0,0.0,0.0
1.6840000000000002,43,1,684000000,base_footprint,-0.003563262796727907,0.001494583400295834,0.9213520193301268,0.38871007943581654,0.0,0.0,0.0,0.0,0.0,0.0,0.0,0.0,0.0,0.0005234345115965656,-0.000669772295650225,-0.11181529704020883,0.0,0.0,0.0,0.0,0.0,0.0,0.0,0.0,0.0,-0.02923351600265328,-0.5549141430566029,0.0028107630211706668,0.0,0.0,0.0,0.0,0.0,0.0,0.0,0.0,0.0
1.718,44,1,718000000,base_footprint,-0.0035622774766798557,0.00150291659160723,0.9205628612410858,0.3905753063424816,0.0,0.0,0.0,0.0,0.0,0.0,0.0,0.0,0.0,0.0006026656008736816,-0.0007625354958916482,-0.12597632044579615,0.0,0.0,0.0,0.0,0.0,0.0,0.0,0.0,0.0,-0.03322101822368183,-0.4162235942737431,0.002144400426427196,0.0,0.0,0.0,0.0,0.0,0.0,0.0,0.0,0.0
1.752,45,1,752000000,base_footprint,-0.003559655609230171,0.0015120073038786296,0.9196761890341273,0.3926585667084329,0.0,0.0,0.0,0.0,0.0,0.0,0.0,0.0,0.0,0.00047092182534599496,-0.000880760524192105,-0.1399743434421223,0.0,0.0,0.0,0.0,0.0,0.0,0.0,0.0,0.0,-0.03689593408005256,-0.24628394888969465,0.0015875568536807489,0.0,0.0,0.0,0.0,0.0,0.0,0.0,0.0,0.0
1.786,46,1,786000000,base_footprint,-0.0035560590462854064,0.0015180067736625849,0.9189584357257323,0.39433544541165655,0.0,0.0,0.0,0.0,0.0,0.0,0.0,0.0,0.0,0.0008592990918932297,0.0006719982055796855,-0.07980905344458686,0.0,0.0,0.0,0.0,0.0,0.0,0.0,0.0,0.0,-0.01582104801251089,0.058509720906638175,-0.00271040411207117,0.0,0.0,0.0,0.0,0.0,0.0,0.0,0.0,0.0
1.82,47,1,820000000,base_footprint,-0.0035578317419854223,0.001509591461394615,0.9184489953101164,0.3955205506427614,0.0,0.0,0.0,0.0,0.0,0.0,0.0,0.0,0.0,4.583966274485183e-06,-0.0009973857183491319,-0.06646873108565773,0.0,0.0,0.0,0.0,0.0,0.0,0.0,0.0,0.0,-0.000988864013248679,0.06884122398226847,0.0027404840031325923,0.0,0.0,0.0,0.0,0.0,0.0,0.0,0.0,0.0
1.854,48,1,854000000,base_footprint,-0.0035550868911828947,0.0015135079443679784,0.9182707400165789,0.39593423529710475,0.0,0.0,0.0,0.0,0.0,0.0,0.0,0.0,0.0,6.522154442910159e-05,0.0005303071959545001,-0.002245542897334695,0.0,0.0,0.0,0.0,0.0,0.0,0.0,0.0,0.0,-0.011812048765386024,0.013373939689472175,-0.0025171027800802203,0.0,0.0,0.0,0.0,0.0,0.0,0.0,0.0,0.0
1.888,49,1,888000000,base_footprint,-0.0035421507467446917,0.0015172284083981448,0.9182713588990966,0.39593290165336165,0.0,0.0,0.0,0.0,0.0,0.0,0.0,0.0,0.0,-0.000282492263903656,-2.906832223854184e-05,0.0018442589365044522,0.0,0.0,0.0,0.0,0.0,0.0,0.0,0.0,0.0,-0.011616779255120571,-0.23828909433002204,0.002564067405722206,0.0,0.0,0.0,0.0,0.0,0.0,0.0,0.0,0.0
1.9220000000000002,50,1,922000000,base_footprint,-0.0035418980885597398,0.0015169300686308925,0.9182925053483727,0.39588385733963166,0.0,0.0,0.0,0.0,0.0,0.0,0.0,0.0,0.0,-0.00021038469067227784,-1.1498129866542654e-05,0.004259753238911778,0.0,0.0,0.0,0.0,0.0,0.0,0.0,0.0,0.0,-0.022351830714661902,-0.3892131819182732,0.0019693627861835693,0.0,0.0,0.0,0.0,0.0,0.0,0.0,0.0,0.0
1.956,51,1,956000000,base_footprint,-0.003552447211479219,0.0015156420426807472,0.9183400889817511,0.3957733744417349,0.0,0.0,0.0,0.0,0.0,0.0,0.0,0.0,0.0,0.0011761614216057713,0.0008147153496644764,0.02618093937602184,0.0,0.0,0.0,0.0,0.0,0.0,0.0,0.0,0.0,-0.024955189087626367,-0.4848095153238042,2.8537111258190406e-05,0.0,0.0,0.0,0.0,0.0,0.0,0.0,0.0,0.0
1.9900000000000002,52,1,990000000,base_footprint,-0.0035530641214049875,0.0015161554309113718,0.9187228932332081,0.3948839354256666,0.0,0.0,0.0,0.0,0.0,0.0,0.0,0.0,0.0,-0.0008061158269594991,0.00028965777862179835,0.06264202155381551,0.0,0.0,0.0,0.0,0.0,0.0,0.0,0.0,0.0,0.003968249126756002,-0.11960111492193318,0.0037476571351070507,0.0,0.0,0.0,0.0,0.0,0.0,0.0,0.0,0.0
2.024,53,2,24000000,base_footprint,-0.0035527888438508628,0.0015122755886475484,0.919142076928794,0.39390726463597764,0.0,0.0,0.0,0.0,0.0,0.0,0.0,0.0,0.0,-0.0005745601044646174,0.0002852892521196231,0.062398146832443685,0.0,0.0,0.0,0.0,0.0,0.0,0.0,0.0,0.0,0.013202155063299786,-0.006167464647056278,-0.0002312610671015122,0.0,0.0,0.0,0.0,0.0,0.0,0.0,0.0,0.0
2.058,54,2,58000000,base_footprint,-0.0035600486307385605,0.0015112586004828769,0.9195584471347356,0.3929342240812612,0.0,0.0,0.0,0.0,0.0,0.0,0.0,0.0,0.0,0.00552179382996376,0.00021067805129675976,0.06248473165580381,0.0,0.0,0.0,0.0,0.0,0.0,0.0,0.0,0.0,0.016883365162259446,0.05617656019523437,-0.006438783887815871,0.0,0.0,0.0,0.0,0.0,0.0,0.0,0.0,0.0
2.092,55,2,92000000,base_footprint,-0.0035569180430381,0.0015058868708697321,0.9199937051843019,0.3919141016345638,0.0,0.0,0.0,0.0,0.0,0.0,0.0,0.0,0.0,-0.004249551206142834,-7.857396911339649e-05,0.0606335663666748,0.0,0.0,0.0,0.0,0.0,0.0,0.0,0.0,0.0,0.04308191647308662,0.7856837208533789,0.004754898285502784,0.0,0.0,0.0,0.0,0.0,0.0,0.0,0.0,0.0
2.125,56,2,126000000,base_footprint,-0.003561286857866382,0.001502078113766995,0.920535767871791,0.39063916990740755,0.0,0.0,0.0,0.0,0.0,0.0,0.0,0.0,0.0,-0.00048163420764674733,0.0004203852252367706,0.0870949730335971,0.0,0.0,0.0,0.0,0.0,0.0,0.0,0.0,0.0,0.010886949671592379,-0.1718458165097091,-0.0021328170232958526,0.0,0.0,0.0,0.0,0.0,0.0,0.0,0.0,0.0
2.16,57,2,160000000,base_footprint,-0.003564378542681941,0.001497012505467156,0.921109820411959,0.3892836406783771,0.0,0.0,0.0,0.0,0.0,0.0,0.0,0.0,0.0,-0.0018413975446045369,0.0005368601424177354,0.08236674214041571,0.0,0.0,0.0,0.0,0.0,0.0,0.0,0.0,0.0,0.013711863212529183,-0.07708304357163098,0.00504637179035011,0.0,0.0,0.0,0.0,0.0,0.0,0.0,0.0,0.0
2.194,58,2,194000000,base_footprint,-0.00357049720300311,0.0014914789288351005,0.9216495436847674,0.38800405367210844,0.0,0.0,0.0,0.0,0.0,0.0,0.0,0.0,0.0,4.6467452601733125e-06,-0.00043327504682274555,0.09774282510378542,0.0,0.0,0.0,0.0,0.0,0.0,0.0,0.0,0.0,0.006343374305299715,-0.42125626234893315,0.00041706700749128377,0.0,0.0,0.0,0.0,0.0,0.0,0.0,0.0,0.0
2.228,59,2,228000000,base_footprint,-0.003578876996677634,0.00148772330532103,0.9223845904663204,0.3862533437901711,0.0,0.0,0.0,0.0,0.0,0.0,0.0,0.0,0.0,0.00020026442508200683,-9.270002841160058e-05,0.12774673882712598,0.0,0.0,0.0,0.0,0.0,0.0,0.0,0.0,0.0,0.01771060278187621,-0.18502717325842255,-0.0032900763138183184,0.0,0.0,0.0,0.0,0.0,0.0,0.0,0.0,0.0
2.262,60,2,262000000,base_footprint,-0.003580504534446317,0.0014800614296469796,0.9231911889150385,0.3843215035814171,0.0,0.0,0.0,0.0,0.0,0.0,0.0,0.0,0.0,-0.0035210217689205445,-0.00256387314849611,0.10549175878914108,0.0,0.0,0.0,0.0,0.0,0.0,0.0,0.0,0.0,0.02970383434259796,-0.003045466814497133,0.008350658889990528,0.0,0.0,0.0,0.0,0.0,0.0,0.0,0.0,0.0
2.2960000000000003,61,2,296000000,base_footprint,-0.003581047124902588,0.0014802515753513203,0.9236604620698339,0.3831922960677885,0.0,0.0,0.0,0.0,0.0,0.0,0.0,0.0,0.0,-0.0006098184347364361,0.0005385083570795413,0.05879365248809988,0.0,0.0,0.0,0.0,0.0,0.0,0.0,0.0,0.0,0.012257856486991776,0.00798370311880983,-0.00621539153606563,0.0,0.0,0.0,0.0,0.0,0.0,0.0,0.0,0.0
2.33,62,2,330000000,base_footprint,-0.003581966902395086,0.0014739826673470199,0.9241168052025902,0.3820904699549104,0.0,0.0,0.0,0.0,0.0,0.0,0.0,0.0,0.0,-0.000771368066131864,0.00090662103619595,0.08008799255369976,0.0,0.0,0.0,0.0,0.0,0.0,0.0,0.0,0.0,0.02457585372043162,0.04416570277012168,-0.00015947795466867388,0.0,0.0,0.0,0.0,0.0,0.0,0.0,0.0,0.0
2.364,63,2,364000000,base_footprint,-0.0035904037218150524,0.001467827317996051,0.9245856678801289,0.380954455591131,0.0,0.0,0.0,0.0,0.0,0.0,0.0,0.0,0.0,-0.00773518335518233,-0.00017913294583179248,0.05296601931868736,0.0,0.0,0.0,0.0,0.0,0.0,0.0,0.0,0.0,0.021724853993176124,0.07770636851027202,0.010007405471156364,0.0,0.0,0.0,0.0,0.0,0.0,0.0,0.0,0.0
2.398,64,2,398000000,base_footprint,-0.0035855125297448386,0.0014627801234477931,0.924834928364998,0.3803489971727526,0.0,0.0,0.0,0.0,0.0,0.0,0.0,0.0,0.0,-0.00022985473454452466,0.0003453757298022076,0.035087554365316645,0.0,0.0,0.0,0.0,0.0,0.0,0.0,0.0,0.0,-0.0034124417408029906,0.22853555863142716,-0.011743103381031295,0.0,0.0,0.0,0.0,0.0,0.0,0.0,0.0,0.0
2.432,65,2,432000000,base_footprint,-0.0035826605481813632,0.0014589883999048226,0.9250730776584768,0.3797694522835129,0.0,0.0,0.0,0.0,0.0,0.0,0.0,0.0,0.0,-0.0005001262429532137,0.0002942822546331054,0.03718774937086273,0.0,0.0,0.0,0.0,0.0,0.0,0.0,0.0,0.0,0.00775511297355089,0.0013804347164177479,0.0005419406218849461,0.0,0.0,0.0,0.0,0.0,0.0,0.0,0.0,0.0
2.466,66,2,466000000,base_footprint,-0.003576147178878883,0.0014534091412549913,0.9253237204518934,0.37915842485996465,0.0,0.0,0.0,0.0,0.0,0.0,0.0,0.0,0.0,0.003457193826347492,0.000986483255757791,0.05254193686147894,0.0,0.0,0.0,0.0,0.0,0.0,0.0,0.0,0.0,0.00908849330676905,-0.15994173473665033,-0.004153009368511401,0.0,0.0,0.0,0.0,0.0,0.0,0.0,0.0,0.0
2.5,67,2,500000000,base_footprint,-0.0035798193332443194,0.0014490410891247307,0.926053209524021,0.3773732082484432,0.0,0.0,0.0,0.0,0.0,0.0,0.0,0.0,0.0,-0.0008445633449741794,0.0005984904357916498,0.12818072611310205,0.0,0.0,0.0,0.0,0.0,0.0,0.0,0.0,0.0,0.028340090605964943,-0.16620101896499168,0.006101647974644566,0.0,0.0,0.0,0.0,0.0,0.0,0.0,0.0,0.0
2.534,68,2,534000000,base_footprint,-0.003581761743151178,0.0014418386820071166,0.9268721402522715,0.37535733336143023,0.0,0.0,0.0,0.0,0.0,0.0,0.0,0.0,0.0,-0.0009057443455558363,0.000585953012340968,0.1278685325570172,0.0,0.0,0.0,0.0,0.0,0.0,0.0,0.0,0.0,0.027998865843346602,-0.0048223821015141105,0.00018088844150896178,0.0,0.0,0.0,0.0,0.0,0.0,0.0,0.0,0.0
2.568,69,2,568000000,base_footprint,-0.0035872927564885413,0.0014338801730618648,0.9276855679071965,0.3733424197905069,0.0,0.0,0.0,0.0,0.0,0.0,0.0,0.0,0.0,-0.002291113726693509,0.0008268147471902407,0.11592963103649936,0.0,0.0,0.0,0.0,0.0,0.0,0.0,0.0,0.0,0.014891858228750748,0.291542445857098,0.0001297488331766671,0.0,0.0,0.0,0.0,0.0,0.0,0.0,0.0,0.0
2.6020000000000003,70,2,602000000,base_footprint,-0.00358985483862345,0.001430303542942484,0.928352126970106,0.37168184718128616,0.0,0.0,0.0,0.0,0.0,0.0,0.0,0.0,0.0,-0.00060734943271655,0.0004537966465038561,0.10437568765187849,0.0,0.0,0.0,0.0,0.0,0.0,0.0,0.0,0.0,0.02179495467836472,0.033890697690236025,-0.0020213499709353265,0.0,0.0,0.0,0.0,0.0,0.0,0.0,0.0,0.0
2.636,71,2,636000000,base_footprint,-0.0035956452552994922,0.001425978533615265,0.9290083083997781,0.37003864777155704,0.0,0.0,0.0,0.0,0.0,0.0,0.0,0.0,0.0,-0.0005239849867439083,0.0004284682642841582,0.10378771468973691,0.0,0.0,0.0,0.0,0.0,0.0,0.0,0.0,0.0,0.021659498673131043,-0.0035584257058531204,-0.00011471904175038246,0.0,0.0,0.0,0.0,0.0,0.0,0.0,0.0,0.0
2.67,72,2,670000000,base_footprint,-0.003598387594381635,0.0014122881421155615,0.9296882683442717,0.3683270024746407,0.0,0.0,0.0,0.0,0.0,0.0,0.0,0.0,0.0,0.001986879563963993,0.0022719702537635175,0.11319676224246963,0.0,0.0,0.0,0.0,0.0,0.0,0.0,0.0,0.0,0.006046653328905999,0.23155242415191507,-0.005134777840336419,0.0,0.0,0.0,0.0,0.0,0.0,0.0,0.0,0.0
2.704,73,2,704000000,base_footprint,-0.0036070067857667137,0.0014164289865059878,0.9301656412180078,0.3671196850190222,0.0,0.0,0.0,0.0,0.0,0.0,0.0,0.0,0.0,-0.0004169870082588252,0.0004686857651719764,0.06727309095029194,0.0,0.0,0.0,0.0,0.0,0.0,0.0,0.0,0.0,0.010286423415740792,0.10100706133763773,0.0034091031878457647,0.0,0.0,0.0,0.0,0.0,0.0,0.0,0.0,0.0
2.738,74,2,738000000,base_footprint,-0.003609512207700003,0.0014105272390837875,0.9305729968841164,0.36608589061126706,0.0,0.0,0.0,0.0,0.0,0.0,0.0,0.0,0.0,-0.0005688174001318171,0.0004960781967791048,0.06226941878566038,0.0,0.0,0.0,0.0,0.0,0.0,0.0,0.0,0.0,0.009991437787171995,0.004411019669822812,0.00033899332088708616,0.0,0.0,0.0,0.0,0.0,0.0,0.0,0.0,0.0
2.7720000000000002,75,2,772000000,base_footprint,-0.0035972439081015275,0.001392932121495267,0.9308515845592973,0.36537712996274974,0.0,0.0,0.0,0.0,0.0,0.0,0.0,0.0,0.0,0.0018378606074019054,-0.00022953708363940772,0.011652126065922667,0.0,0.0,0.0,0.0,0.0,0.0,0.0,0.0,0.0,0.017843404161570653,-0.02797587910698854,-0.0015391262199985836,0.0,0.0,0.0,0.0,0.0,0.0,0.0,0.0,0.0
2.806,76,2,806000000,base_footprint,-0.0035938673283632877,0.0013966256711920291,0.930873188151422,0.3653221060039596,0.0,0.0,0.0,0.0,0.0,0.0,0.0,0.0,0.0,-0.0002340226061245068,-0.0008244068917617313,0.01622257823174439,0.0,0.0,0.0,0.0,0.0,0.0,0.0,0.0,0.0,0.018789400593831183,-0.09767380539084614,0.0030969978445599174,0.0,0.0,0.0,0.0,0.0,0.0,0.0,0.0,0.0
2.84,77,2,840000000,base_footprint,-0.00359166278371558,0.00139904544772704,0.9312672167427891,0.36431650202869253,0.0,0.0,0.0,0.0,0.0,0.0,0.0,0.0,0.0,-0.0008921155002303827,-0.00035558523642181713,0.11011000444264432,0.0,0.0,0.0,0.0,0.0,0.0,0.0,0.0,0.0,0.006797601807713834,-0.10925909102196081,0.0034863527954637524,0.0,0.0,0.0,0.0,0.0,0.0,0.0,0.0,0.0
2.874,78,2,874000000,base_footprint,-0.003595061246328354,0.0013992618262318715,0.932095249149391,0.36219271681538795,0.0,0.0,0.0,0.0,0.0,0.0,0.0,0.0,0.0,-0.0005029029913558293,0.000624486463404354,0.12325154889925,0.0,0.0,0.0,0.0,0.0,0.0,0.0,0.0,0.0,0.044618301738287326,-0.16271056881675366,-0.0027494266943266558,0.0,0.0,0.0,0.0,0.0,0.0,0.0,0.0,0.0
2.908,79,2,908000000,base_footprint,-0.0035949333112006814,0.0013924736326087147,0.9326284239575221,0.3608176274770667,0.0,0.0,0.0,0.0,0.0,0.0,0.0,0.0,0.0,-7.734157008399133e-05,0.0012349585522424744,0.04570731995643928,0.0,0.0,0.0,0.0,0.0,0.0,0.0,0.0,0.0,0.034727314310578516,-0.20215154986264186,0.0003885797704799826,0.0,0.0,0.0,0.0,0.0,0.0,0.0,0.0,0.0
2.942,80,2,942000000,base_footprint,-0.0036083938691011037,0.0013865989646302558,0.9327983752966463,0.36037792368697286,0.0,0.0,0.0,0.0,0.0,0.0,0.0,0.0,0.0,-0.0004486157787033894,0.00018361292821124272,0.026030405678078874,0.0,0.0,0.0,0.0,0.0,0.0,0.0,0.0,0.0,0.012966076665792848,-0.058962352723281035,0.0019069036241733516,0.0,0.0,0.0,0.0,0.0,0.0,0.0,0.0,0.0
2.976,81,2,976000000,base_footprint,-0.0036069175056034864,0.001385925148338909,0.9328281259227063,0.36030092540142467,0.0,0.0,0.0,0.0,0.0,0.0,0.0,0.0,0.0,-0.0004147858152968027,-0.00030913853789089175,-0.011923208617141533,0.0,0.0,0.0,0.0,0.0,0.0,0.0,0.0,0.0,0.0036963411300486755,-0.01447460810649283,0.0005308958293913077,0.0,0.0,0.0,0.0,0.0,0.0,0.0,0.0,0.0
3.01,82,3,10000000,base_footprint,-0.003604622141562089,0.0013873651309162605,0.932753068013814,0.36049520943838814,0.0,0.0,0.0,0.0,0.0,0.0,0.0,0.0,0.0,-0.00015379043299797567,-0.00019099771849633045,-0.012528778149634903,0.0,0.0,0.0,0.0,0.0,0.0,0.0,0.0,0.0,-0.002824208774457813,-0.006009993934890448,-0.0003548586234407,0.0,0.0,0.0,0.0,0.0,0.0,0.0,0.0,0.0
3.044,83,3,44000000,base_footprint,-0.0036040453499171575,0.0013890752334166064,0.932673826761954,0.36070017216564304,0.0,0.0,0.0,0.0,0.0,0.0,0.0,0.0,0.0,-6.524734040862594e-05,-0.00017393413275056878,-0.01320424330761874,0.0,0.0,0.0,0.0,0.0,0.0,0.0,0.0,0.0,-0.002337401655123674,-0.0060688788350328655,-0.00016333858973615413,0.0,0.0,0.0,0.0,0.0,0.0,0.0,0.0,0.0
3.078,84,3,78000000,base_footprint,-0.003605308649902266,0.0013828579658834933,0.9332067743505498,0.3593190862723932,0.0,0.0,0.0,0.0,0.0,0.0,0.0,0.0,0.0,-0.0011570208107490282,0.00026788758861954554,0.2188492811200006,0.0,0.0,0.0,0.0,0.0,0.0,0.0,0.0,0.0,0.006482515439218442,0.06148190123308421,-0.0004912424140286593,0.0,0.0,0.0,0.0,0.0,0.0,0.0,0.0,0.0
3.112,85,3,112000000,base_footprint,-0.003613621925937697,0.0013769447289983738,0.9342218773111808,0.3566714590669725,0.0,0.0,0.0,0.0,0.0,0.0,0.0,0.0,0.0,-0.0001241459716134707,0.0006291198707540403,0.12728964069965323,0.0,0.0,0.0,0.0,0.0,0.0,0.0,0.0,0.0,0.045753381303973176,-0.02845731278873729,-0.000609793897923384,0.0,0.0,0.0,0.0,0.0,0.0,0.0,0.0,0.0
3.146,86,3,146000000,base_footprint,-0.0036208932981094824,0.0013703581167239351,0.9349885627097592,0.3546567338318767,0.0,0.0,0.0,0.0,0.0,0.0,0.0,0.0,0.0,-0.0006134257777507346,0.000679965816062836,0.12586121523461233,0.0,0.0,0.0,0.0,0.0,0.0,0.0,0.0,0.0,0.026470978739490135,0.0006297918602989321,0.0006018369190404528,0.0,0.0,0.0,0.0,0.0,0.0,0.0,0.0,0.0
3.18,87,3,180000000,base_footprint,-0.003625834077145702,0.0013706341245747727,0.9353644209173585,0.35366421188929525,0.0,0.0,0.0,0.0,0.0,0.0,0.0,0.0,0.0,0.0001545266789041011,0.00013989788219724716,0.002268975665603708,0.0,0.0,0.0,0.0,0.0,0.0,0.0,0.0,0.0,0.01618027096283641,-0.019386069831263553,-0.00036878110832831343,0.0,0.0,0.0,0.0,0.0,0.0,0.0,0.0,0.0
3.214,88,3,214000000,base_footprint,-0.003623689324910997,0.001355457519871676,0.9353713143699182,0.3536460601568752,0.0,0.0,0.0,0.0,0.0,0.0,0.0,0.0,0.0,-0.00015797930648519325,0.0004830036463038291,-0.003527428156316673,0.0,0.0,0.0,0.0,0.0,0.0,0.0,0.0,0.0,0.0028394741345133933,0.017692594489832857,0.0008277404693294806,0.0,0.0,0.0,0.0,0.0,0.0,0.0,0.0,0.0
3.248,89,3,248000000,base_footprint,-0.0036267390293819868,0.0013569687803843017,0.9352852116311164,0.35387367562999067,0.0,0.0,0.0,0.0,0.0,0.0,0.0,0.0,0.0,-0.0003863636892293153,4.050217923157102e-05,-0.013830875227328468,0.0,0.0,0.0,0.0,0.0,0.0,0.0,0.0,0.0,-0.009437927334162505,0.03317741558991353,-8.197844522072087e-05,0.0,0.0,0.0,0.0,0.0,0.0,0.0,0.0,0.0
3.282,90,3,282000000,base_footprint,-0.003616896237083846,0.0013640125491175587,0.9351786235691673,0.35415533251760295,0.0,0.0,0.0,0.0,0.0,0.0,0.0,0.0,0.0,0.00030466887555727644,-0.00014166705902647926,-0.02428525583534786,0.0,0.0,0.0,0.0,0.0,0.0,0.0,0.0,0.0,0.007905699962069707,-0.04328437383813463,-0.00013025322522715655,0.0,0.0,0.0,0.0,0.0,0.0,0.0,0.0,0.0
3.316,91,3,316000000,base_footprint,-0.003621239869662952,0.001366659115186216,0.935088476205357,0.3543932286777117,0.0,0.0,0.0,0.0,0.0,0.0,0.0,0.0,0.0,0.00021522840428861933,0.0002557578537613656,-0.003190600680803724,0.0,0.0,0.0,0.0,0.0,0.0,0.0,0.0,0.0,-0.016232939924978408,0.05029691273132131,-0.0009105375923622538,0.0,0.0,0.0,0.0,0.0,0.0,0.0,0.0,0.0
3.35,92,3,350000000,base_footprint,-0.003626635548715436,0.001363600745250839,0.935010426895009,0.35459905485663296,0.0,0.0,0.0,0.0,0.0,0.0,0.0,0.0,0.0,-0.0004329355940848585,-0.00023419936909264082,-0.021055828476139148,0.0,0.0,0.0,0.0,0.0,0.0,0.0,0.0,0.0,0.006625113586891499,-0.05138078176679024,0.0023253462544757563,0.0,0.0,0.0,0.0,0.0,0.0,0.0,0.0,0.0
3.384,93,3,384000000,base_footprint,-0.003622062002118645,0.0013597620010079242,0.9353940712615915,0.3535858639182546,0.0,0.0,0.0,0.0,0.0,0.0,0.0,0.0,0.0,-0.0007509500796425557,0.000699344001718697,0.14409288978135995,0.0,0.0,0.0,0.0,0.0,0.0,0.0,0.0,0.0,-0.01960232854254733,0.22590094000352828,-0.0021564397995971867,0.0,0.0,0.0,0.0,0.0,0.0,0.0,0.0,0.0
3.418,94,3,418000000,base_footprint,-0.0036220384212454102,0.0013553764172630175,0.9356917154366754,0.3527974737092293,0.0,0.0,0.0,0.0,0.0,0.0,0.0,0.0,0.0,-0.00022494289028885338,0.00020643869152366115,-0.026718559818072442,0.0,0.0,0.0,0.0,0.0,0.0,0.0,0.0,0.0,0.0011192293468598874,0.11211450166879788,-0.0007208568178846458,0.0,0.0,0.0,0.0,0.0,0.0,0.0,0.0,0.0
3.452,95,3,452000000,base_footprint,-0.003618528701017948,0.0013567150372051015,0.9355326115205488,0.3532191930740594,0.0,0.0,0.0,0.0,0.0,0.0,0.0,0.0,0.0,-0.0001487803311116617,-0.00031401097378659193,-0.026718088345123726,0.0,0.0,0.0,0.0,0.0,0.0,0.0,0.0,0.0,-0.008287150221566845,-0.0014781210811866366,0.0005939555345559855,0.0,0.0,0.0,0.0,0.0,0.0,0.0,0.0,0.0
3.486,96,3,486000000,base_footprint,-0.003616069430350535,0.0013581714332087413,0.9354802957606397,0.35335774458163366,0.0,0.0,0.0,0.0,0.0,0.0,0.0,0.0,0.0,-0.0004242651398403646,-0.00023092426895707563,0.009891255055203812,0.0,0.0,0.0,0.0,0.0,0.0,0.0,0.0,0.0,0.03960661774433023,-0.3353531734687504,0.0020417453536697365,0.0,0.0,0.0,0.0,0.0,0.0,0.0,0.0,0.0
3.52,97,3,520000000,base_footprint,-0.003615725482210335,0.001359005850881151,0.93553745116088,0.3532063944887448,0.0,0.0,0.0,0.0,0.0,0.0,0.0,0.0,0.0,-0.0001871919658298566,-9.091268921863048e-05,0.009293878269079705,0.0,0.0,0.0,0.0,0.0,0.0,0.0,0.0,0.0,0.003250109016530309,-0.004112869242761929,-0.0004158128443832188,0.0,0.0,0.0,0.0,0.0,0.0,0.0,0.0,0.0
3.5540000000000003,98,3,554000000,base_footprint,-0.0036171723793445806,0.0013602651807371232,0.9355909537594159,0.3530646300412471,0.0,0.0,0.0,0.0,0.0,0.0,0.0,0.0,0.0,-8.170586965985114e-05,-8.874672065706715e-05,0.008650001897199444,0.0,0.0,0.0,0.0,0.0,0.0,0.0,0.0,0.0,0.002556094555010386,-0.005275475767419266,-0.00017300315081562837,0.0,0.0,0.0,0.0,0.0,0.0,0.0,0.0,0.0
3.588,99,3,588000000,base_footprint,-0.0036199763706677114,0.0013634303268981237,0.9355161454561413,0.35326276115620153,0.0,0.0,0.0,0.0,0.0,0.0,0.0,0.0,0.0,0.000150996115881326,-0.0001618074236185481,-0.014799707116726768,0.0,0.0,0.0,0.0,0.0,0.0,0.0,0.0,0.0,-0.0013976801515222705,-0.010925918442671215,-0.00014485970091029265,0.0,0.0,0.0,0.0,0.0,0.0,0.0,0.0,0.0
3.622,100,3,622000000,base_footprint,-0.0036228842962594027,0.0013649870451429916,0.9354213659919106,0.35351362005666875,0.0,0.0,0.0,0.0,0.0,0.0,0.0,0.0,0.0,0.00014745131595405412,-0.00012625144225095322,-0.016916562370188938,0.0,0.0,0.0,0.0,0.0,0.0,0.0,0.0,0.0,-0.0032370210868439796,-0.002391971540869639,-0.00016450154273216463,0.0,0.0,0.0,0.0,0.0,0.0,0.0,0.0,0.0
3.656,101,3,656000000,base_footprint,-0.0036251491721477915,0.0013659364291390057,0.935311267481864,0.353804784355187,0.0,0.0,0.0,0.0,0.0,0.0,0.0,0.0,0.0,1.8528855660306697e-05,-8.288661761748263e-05,-0.01985756560980541,0.0,0.0,0.0,0.0,0.0,0.0,0.0,0.0,0.0,-0.005470395345822644,0.0015039050184229557,8.195593889116085e-05,0.0,0.0,0.0,0.0,0.0,0.0,0.0,0.0,0.0
3.69,102,3,690000000,base_footprint,-0.0036230492503604946,0.0013559491676330615,0.9355721228165518,0.3531144827453489,0.0,0.0,0.0,0.0,0.0,0.0,0.0,0.0,0.0,0.004473670110729895,0.001690404032107325,0.09835811422560074,0.0,0.0,0.0,0.0,0.0,0.0,0.0,0.0,0.0,-0.043387981431377454,0.3910452195267841,-0.012238807846272078,0.0,0.0,0.0,0.0,0.0,0.0,0.0,0.0,0.0
3.724,103,3,724000000,base_footprint,-0.003628676791567318,0.0013544495796703553,0.9357152112928424,0.35273508689421573,0.0,0.0,0.0,0.0,0.0,0.0,0.0,0.0,0.0,0.000156604695941278,0.0016385623406158863,-0.023204314677851983,0.0,0.0,0.0,0.0,0.0,0.0,0.0,0.0,0.0,0.014159092573644928,-0.04588425756031564,0.00854179658242738,0.0,0.0,0.0,0.0,0.0,0.0,0.0,0.0,0.0
3.757,104,3,758000000,base_footprint,-0.003628815615492524,0.0013584125981659049,0.9355273440388934,0.3532330321020051,0.0,0.0,0.0,0.0,0.0,0.0,0.0,0.0,0.0,-0.001982742204561803,0.0028186424211081446,-0.021983032606071148,0.0,0.0,0.0,0.0,0.0,0.0,0.0,0.0,0.0,-0.0070021546458441455,0.001423024594860984,0.0042414805149652395,0.0,0.0,0.0,0.0,0.0,0.0,0.0,0.0,0.0
3.792,105,3,792000000,base_footprint,-0.003615043045818454,0.001356584636098875,0.9356654477711366,0.35286720021722123,0.0,0.0,0.0,0.0,0.0,0.0,0.0,0.0,0.0,0.0023548308375944847,-0.0016055983806259897,0.07744996782813032,0.0,0.0,0.0,0.0,0.0,0.0,0.0,0.0,0.0,0.020034273204098674,-0.10326768472698192,-0.0050671335719141815,0.0,0.0,0.0,0.0,0.0,0.0,0.0,0.0,0.0
3.826,106,3,826000000,base_footprint,-0.003611816017229858,0.0013586809261994794,0.9361135343934857,0.35167678270897423,0.0,0.0,0.0,0.0,0.0,0.0,0.0,0.0,0.0,-0.00037765253278724544,-0.00023616560513858308,0.059129523165349716,0.0,0.0,0.0,0.0,0.0,0.0,0.0,0.0,0.0,0.027496139201978152,-0.07262782088713643,0.006129776748196161,0.0,0.0,0.0,0.0,0.0,0.0,0.0,0.0,0.0
3.8600000000000003,107,3,860000000,base_footprint,-0.0036384913121529495,0.001355057058274447,0.936299641281535,0.3511807325828244,0.0,0.0,0.0,0.0,0.0,0.0,0.0,0.0,0.0,0.0057033369763638,0.000797160648730006,-0.0012125350855044922,0.0,0.0,0.0,0.0,0.0,0.0,0.0,0.0,0.0,0.012291621238972254,-0.03756899649813621,-0.005082468535691892,0.0,0.0,0.0,0.0,0.0,0.0,0.0,0.0,0.0
3.894,108,3,894000000,base_footprint,-0.0036227915872016547,0.0013506424842034685,0.9362884209866417,0.35121082539172555,0.0,0.0,0.0,0.0,0.0,0.0,0.0,0.0,0.0,-0.0004873664922462641,4.486856258799994e-05,0.0031907225830284415,0.0,0.0,0.0,0.0,0.0,0.0,0.0,0.0,0.0,-0.034865160705444154,0.23893273675095367,0.0022622946266448495,0.0,0.0,0.0,0.0,0.0,0.0,0.0,0.0,0.0
3.928,109,3,928000000,base_footprint,-0.0036212607052459288,0.0013502000103430111,0.936308688327869,0.3511568076979035,0.0,0.0,0.0,0.0,0.0,0.0,0.0,0.0,0.0,-0.0002174983369736156,6.587274214122037e-05,0.003382256887515162,0.0,0.0,0.0,0.0,0.0,0.0,0.0,0.0,0.0,0.0007602968975055663,-0.003032696152280325,-0.0003481376278854173,0.0,0.0,0.0,0.0,0.0,0.0,0.0,0.0,0.0
3.962,110,3,962000000,base_footprint,-0.003618769045395013,0.0013507056385006595,0.9362952652815396,0.351192619962672,0.0,0.0,0.0,0.0,0.0,0.0,0.0,0.0,0.0,0.0007999965719015561,0.000712397113525184,-0.03585255787902864,0.0,0.0,0.0,0.0,0.0,0.0,0.0,0.0,0.0,0.0005834795057129971,-0.01334797795780783,-0.0011556779462257392,0.0,0.0,0.0,0.0,0.0,0.0,0.0,0.0,0.0
3.996,111,3,996000000,base_footprint,-0.0036174630384973117,0.0013541927597185684,0.9360828760896306,0.35175833922580996,0.0,0.0,0.0,0.0,0.0,0.0,0.0,0.0,0.0,3.3776150471883566e-05,-0.0003073436225685228,-0.03541652788277006,0.0,0.0,0.0,0.0,0.0,0.0,0.0,0.0,0.0,-0.005398236569847546,-0.008183361743551623,0.001369863146815305,0.0,0.0,0.0,0.0,0.0,0.0,0.0,0.0,0.0
4.03,112,4,30000000,base_footprint,-0.0036173411483629895,0.001357665664308074,0.9358684835982004,0.35232833124028695,0.0,0.0,0.0,0.0,0.0,0.0,0.0,0.0,0.0,0.00012854132342195873,-0.0002967755901945124,-0.0360966790531121,0.0,0.0,0.0,0.0,0.0,0.0,0.0,0.0,0.0,-0.0068046120296662346,-0.006344428047886821,-0.00019597801769290573,0.0,0.0,0.0,0.0,0.0,0.0,0.0,0.0,0.0
4.064,113,4,64000000,base_footprint,-0.0036133959587096353,0.0013586723419354231,0.9356352477134676,0.3529472773875312,0.0,0.0,0.0,0.0,0.0,0.0,0.0,0.0,0.0,-0.00016874375432758662,-7.679489992159513e-05,-0.05503270762827257,0.0,0.0,0.0,0.0,0.0,0.0,0.0,0.0,0.0,0.011663925767433123,-0.15985851934520962,0.0014920432764171788,0.0,0.0,0.0,0.0,0.0,0.0,0.0,0.0,0.0
4.098,114,4,98000000,base_footprint,-0.0036220208802884113,0.0013643964847807235,0.9355319696946595,0.3532208276223329,0.0,0.0,0.0,0.0,0.0,0.0,0.0,0.0,0.0,-5.5243800252439164e-05,-0.00026412039105992084,-0.0006843503267272999,0.0,0.0,0.0,0.0,0.0,0.0,0.0,0.0,0.0,0.018774473205183037,-0.17988525686173445,-4.8955368272007014e-05,0.0,0.0,0.0,0.0,0.0,0.0,0.0,0.0,0.0
4.132,115,4,132000000,base_footprint,-0.0036252172568352905,0.00136469978336318,0.9355200924049941,0.35325224995871357,0.0,0.0,0.0,0.0,0.0,0.0,0.0,0.0,0.0,4.275156906751375e-06,-4.254044657641008e-06,-0.0032017440737591336,0.0,0.0,0.0,0.0,0.0,0.0,0.0,0.0,0.0,-0.0008996480005476434,0.0019537083586630144,-1.7891334968944826e-05,0.0,0.0,0.0,0.0,0.0,0.0,0.0,0.0,0.0
4.166,116,4,166000000,base_footprint,-0.0036062982280624105,0.0013492919948178282,0.9355277034391228,0.35323234580389645,0.0,0.0,0.0,0.0,0.0,0.0,0.0,0.0,0.0,-0.0010693878963491344,0.0014381548372086194,0.02994579637292781,0.0,0.0,0.0,0.0,0.0,0.0,0.0,0.0,0.0,-0.007531599188256216,0.11810747116708403,0.002036797473595584,0.0,0.0,0.0,0.0,0.0,0.0,0.0,0.0,0.0
4.2,117,4,200000000,base_footprint,-0.003620752370996161,0.0013518079892700383,0.9359874759368345,0.35201208453236643,0.0,0.0,0.0,0.0,0.0,0.0,0.0,0.0,0.0,-0.004015742684080211,8.298041950849291e-05,0.06387390920628136,0.0,0.0,0.0,0.0,0.0,0.0,0.0,0.0,0.0,-0.01396043624468371,0.189120106672874,0.0016555983320379302,0.0,0.0,0.0,0.0,0.0,0.0,0.0,0.0,0.0
4.234,118,4,234000000,base_footprint,-0.003631695544546775,0.0013503886650941073,0.9360870889343765,0.35174699596199804,0.0,0.0,0.0,0.0,0.0,0.0,0.0,0.0,0.0,0.00016962591735519497,-0.0010669537651291962,0.0019372677703462127,0.0,0.0,0.0,0.0,0.0,0.0,0.0,0.0,0.0,-0.0110214416859288,0.08144278393408085,-0.005852399964850519,0.0,0.0,0.0,0.0,0.0,0.0,0.0,0.0,0.0
4.268,119,4,268000000,base_footprint,-0.003613535914048849,0.0013464562433354774,0.9361668520330128,0.3515348554103592,0.0,0.0,0.0,0.0,0.0,0.0,0.0,0.0,0.0,0.0024844841244300205,-0.0010704768348631032,0.041203442281944294,0.0,0.0,0.0,0.0,0.0,0.0,0.0,0.0,0.0,0.022290411048057283,-0.04396150565568884,-0.0019050722696403854,0.0,0.0,0.0,0.0,0.0,0.0,0.0,0.0,0.0
4.302,120,4,302000000,base_footprint,-0.0036106803410834313,0.0013564445687361435,0.9364861913849104,0.35068324224432446,0.0,0.0,0.0,0.0,0.0,0.0,0.0,0.0,0.0,0.0004759833825847381,0.0002785149552919984,0.04617630881493581,0.0,0.0,0.0,0.0,0.0,0.0,0.0,0.0,0.0,0.009634988171552101,-0.04662127837368519,0.0016445851095601323,0.0,0.0,0.0,0.0,0.0,0.0,0.0,0.0,0.0
4.336,121,4,336000000,base_footprint,-0.0036128306585603226,0.0013523498322125524,0.9366141577598212,0.35034131655918743,0.0,0.0,0.0,0.0,0.0,0.0,0.0,0.0,0.0,-0.00028414616301261246,-0.0001644866230070285,-0.008656059613116357,0.0,0.0,0.0,0.0,0.0,0.0,0.0,0.0,0.0,0.023610893397576896,-0.1438411320120201,0.0027093819915918684,0.0,0.0,0.0,0.0,0.0,0.0,0.0,0.0,0.0
4.37,122,4,370000000,base_footprint,-0.00362314863853338,0.0013498064050324566,0.9363199426855172,0.3511267801606736,0.0,0.0,0.0,0.0,0.0,0.0,0.0,0.0,0.0,-0.004946624446465588,2.171142089629676e-05,-0.0750148467851279,0.0,0.0,0.0,0.0,0.0,0.0,0.0,0.0,0.0,-0.033134158578626643,0.17270841275817875,0.005846231507901237,0.0,0.0,0.0,0.0,0.0,0.0,0.0,0.0,0.0
4.404,123,4,404000000,base_footprint,-0.0036209664780084533,0.0013539270842555576,0.9359251179009667,0.35217783741353964,0.0,0.0,0.0,0.0,0.0,0.0,0.0,0.0,0.0,0.0001262736165736852,-0.00034666090882624987,-0.06671689979329704,0.0,0.0,0.0,0.0,0.0,0.0,0.0,0.0,0.0,-0.018268344416709954,0.020169283805805953,-0.007392431994083794,0.0,0.0,0.0,0.0,0.0,0.0,0.0,0.0,0.0
4.438,124,4,438000000,base_footprint,-0.0036166757612098913,0.0013585214256395851,0.9355235215072724,0.3532432798831516,0.0,0.0,0.0,0.0,0.0,0.0,0.0,0.0,0.0,0.00011802306273980573,-0.0004942166208696659,-0.06720962557505743,0.0,0.0,0.0,0.0,0.0,0.0,0.0,0.0,0.0,-0.01329211251504877,-0.006780315561661423,0.00015565983119891102,0.0,0.0,0.0,0.0,0.0,0.0,0.0,0.0,0.0
4.472,125,4,472000000,base_footprint,-0.0036130386346118104,0.0013624711946756962,0.9351424565048453,0.3542508654416417,0.0,0.0,0.0,0.0,0.0,0.0,0.0,0.0,0.0,-0.0005606678061465052,-0.0005436470236570152,-0.031600005192092925,0.0,0.0,0.0,0.0,0.0,0.0,0.0,0.0,0.0,0.022520546970506497,-0.2765750607362578,0.002074051954145722,0.0,0.0,0.0,0.0,0.0,0.0,0.0,0.0,0.0
4.506,126,4,506000000,base_footprint,-0.0036137992000291183,0.0013648023575484616,0.9350877836086474,0.35439513923830024,0.0,0.0,0.0,0.0,0.0,0.0,0.0,0.0,0.0,-4.401533319237741e-05,-0.00014513434604435853,-0.008072696590060257,0.0,0.0,0.0,0.0,0.0,0.0,0.0,0.0,0.0,0.002649060094032287,-0.058865907598925724,-0.0005921056821880181,0.0,0.0,0.0,0.0,0.0,0.0,0.0,0.0,0.0
4.54,127,4,540000000,base_footprint,-0.0036156650926457653,0.001366885349484702,0.9350366627010612,0.3545299676970076,0.0,0.0,0.0,0.0,0.0,0.0,0.0,0.0,0.0,5.441975050605618e-05,-0.00014226542011682746,-0.008794316608035348,0.0,0.0,0.0,0.0,0.0,0.0,0.0,0.0,0.0,-0.0013648372398591827,-0.005738877826046065,-0.00019065075683363369,0.0,0.0,0.0,0.0,0.0,0.0,0.0,0.0,0.0
4.574,128,4,574000000,base_footprint,-0.003618508554639373,0.001370359458305943,0.9348785544277491,0.3549466396261232,0.0,0.0,0.0,0.0,0.0,0.0,0.0,0.0,0.0,0.0006071958729256719,-0.00021586055192442908,-0.04358931824835138,0.0,0.0,0.0,0.0,0.0,0.0,0.0,0.0,0.0,-0.0025851485586326954,-0.013680002846601296,-0.0006295059609785571,0.0,0.0,0.0,0.0,0.0,0.0,0.0,0.0,0.0
4.608,129,4,608000000,base_footprint,-0.00362183216152946,0.0013737692725395198,0.9346105456402094,0.35565168784625467,0.0,0.0,0.0,0.0,0.0,0.0,0.0,0.0,0.0,0.0002726582622567752,-0.00022903957701832253,-0.04535570788409425,0.0,0.0,0.0,0.0,0.0,0.0,0.0,0.0,0.0,-0.011463093545900135,-0.002105892938899358,0.0003069231528080968,0.0,0.0,0.0,0.0,0.0,0.0,0.0,0.0,0.0
4.642,130,4,642000000,base_footprint,-0.0036225607575158755,0.0013761073678453235,0.9343280390443834,0.3563931801221053,0.0,0.0,0.0,0.0,0.0,0.0,0.0,0.0,0.0,0.0001904933147119241,-0.0001773769755289937,-0.04818971087495639,0.0,0.0,0.0,0.0,0.0,0.0,0.0,0.0,0.0,-0.01168896043686742,0.002426766563726302,6.486768341043688e-05,0.0,0.0,0.0,0.0,0.0,0.0,0.0,0.0,0.0
4.676,131,4,676000000,base_footprint,-0.003614470197286228,0.0013831795446210343,0.9341412014612864,0.3568826672059103,0.0,0.0,0.0,0.0,0.0,0.0,0.0,0.0,0.0,0.0016305997186458457,-0.0010736714848146088,0.008738819141300102,0.0,0.0,0.0,0.0,0.0,0.0,0.0,0.0,0.0,-0.024166702148158872,0.17391955223998715,-0.0032639943582102116,0.0,0.0,0.0,0.0,0.0,0.0,0.0,0.0,0.0
4.71,132,4,710000000,base_footprint,-0.003614622370871943,0.00137068548029711,0.934178649534329,0.35678467803515224,0.0,0.0,0.0,0.0,0.0,0.0,0.0,0.0,0.0,0.0012253557916345763,0.0006970296108779145,-0.04359766286148244,0.0,0.0,0.0,0.0,0.0,0.0,0.0,0.0,0.0,-0.012520575702520055,0.12240550526636376,-0.0004206832210071039,0.0,0.0,0.0,0.0,0.0,0.0,0.0,0.0,0.0
4.744,133,4,744000000,base_footprint,-0.003624497371055455,0.0013802499477866452,0.9337961768833423,0.3577843735645016,0.0,0.0,0.0,0.0,0.0,0.0,0.0,0.0,0.0,-0.00022481691125803824,9.915531311945648e-06,-0.05488335361124468,0.0,0.0,0.0,0.0,0.0,0.0,0.0,0.0,0.0,-0.017570208515951924,0.06295883303180008,0.0021749782249327583,0.0,0.0,0.0,0.0,0.0,0.0,0.0,0.0,0.0
4.7780000000000005,134,4,778000000,base_footprint,-0.0036033005748773886,0.001374650229541028,0.9336042121818798,0.35828522375052707,0.0,0.0,0.0,0.0,0.0,0.0,0.0,0.0,0.0,-0.0009159892788287575,0.0003584548990361344,0.007192223402095901,0.0,0.0,0.0,0.0,0.0,0.0,0.0,0.0,0.0,0.0023209446494333527,-0.10162931220662529,-0.0005972489868150231,0.0,0.0,0.0,0.0,0.0,0.0,0.0,0.0,0.0
4.812,135,4,812000000,base_footprint,-0.0036119169998567718,0.001378987304026418,0.9337587138934674,0.35788226650341215,0.0,0.0,0.0,0.0,0.0,0.0,0.0,0.0,0.0,0.0008520814748862041,0.001357772483202983,0.009561226955136037,0.0,0.0,0.0,0.0,0.0,0.0,0.0,0.0,0.0,0.023522302360289266,-0.19635095900647093,-0.0011716869615915626,0.0,0.0,0.0,0.0,0.0,0.0,0.0,0.0,0.0
4.846,136,4,846000000,base_footprint,-0.003615409002677494,0.0013752725435978925,0.933773706370216,0.35784312587334155,0.0,0.0,0.0,0.0,0.0,0.0,0.0,0.0,0.0,-0.0003549139327590939,5.050339330825222e-05,0.0027191473634051483,0.0,0.0,0.0,0.0,0.0,0.0,0.0,0.0,0.0,0.00472186044990325,-0.024231211326015776,0.003637105519169728,0.0,0.0,0.0,0.0,0.0,0.0,0.0,0.0,0.0
4.88,137,4,880000000,base_footprint,-0.003612662228604428,0.0013757850671953613,0.9336316831416835,0.35821353425170555,0.0,0.0,0.0,0.0,0.0,0.0,0.0,0.0,0.0,-9.610459818449594e-05,-0.00035432058678012404,-0.03636591838119938,0.0,0.0,0.0,0.0,0.0,0.0,0.0,0.0,0.0,-0.0031038525996421526,-0.014626643913454593,0.0001957524170767994,0.0,0.0,0.0,0.0,0.0,0.0,0.0,0.0,0.0
4.914,138,4,914000000,base_footprint,-0.0036087798509893305,0.001378599880164724,0.9334082448865332,0.3587953797754358,0.0,0.0,0.0,0.0,0.0,0.0,0.0,0.0,0.0,-6.66464097726051e-05,-0.0003383958606648428,-0.03687489799358975,0.0,0.0,0.0,0.0,0.0,0.0,0.0,0.0,0.0,-0.0074179359293712974,-0.006611465540849482,-5.793216114329767e-05,0.0,0.0,0.0,0.0,0.0,0.0,0.0,0.0,0.0
4.948,139,4,948000000,base_footprint,-0.0036065699834676,0.0013816791405583412,0.9331811211829183,0.3593856962700361,0.0,0.0,0.0,0.0,0.0,0.0,0.0,0.0,0.0,2.1328986764117157e-05,-0.0003134322749542933,-0.03743479714362089,0.0,0.0,0.0,0.0,0.0,0.0,0.0,0.0,0.0,-0.007595632070154909,-0.0065707850754241305,-0.00018798677631358434,0.0,0.0,0.0,0.0,0.0,0.0,0.0,0.0,0.0
4.982,140,4,982000000,base_footprint,-0.0036105511230995913,0.0013840570164326308,0.9329954877204769,0.359867292484316,0.0,0.0,0.0,0.0,0.0,0.0,0.0,0.0,0.0,-0.0003223257849718203,-0.00018922197795211452,-0.017652015591267223,0.0,0.0,0.0,0.0,0.0,0.0,0.0,0.0,0.0,-0.07798754265558808,0.7197708877229231,-0.0039018683156557487,0.0,0.0,0.0,0.0,0.0,0.0,0.0,0.0,0.0
5.016,141,5,16000000,base_footprint,-0.003602348937498853,0.001384528471541203,0.9328529309077785,0.36023674918005133,0.0,0.0,0.0,0.0,0.0,0.0,0.0,0.0,0.0,0.00013009819890454454,-0.00021409071773412423,-0.04386310816929281,0.0,0.0,0.0,0.0,0.0,0.0,0.0,0.0,0.0,0.027582683275494083,-0.32519615065955093,0.001401166998822851,0.0,0.0,0.0,0.0,0.0,0.0,0.0,0.0,0.0
5.05,142,5,50000000,base_footprint,-0.003609514246001279,0.00139144972787986,0.9326115267429276,0.36086115814920905,0.0,0.0,0.0,0.0,0.0,0.0,0.0,0.0,0.0,0.00030623360721467377,-0.000277371172825057,-0.038108138448822784,0.0,0.0,0.0,0.0,0.0,0.0,0.0,0.0,0.0,-0.002055510720291632,-0.07211684040857545,-5.512755020368504e-05,0.0,0.0,0.0,0.0,0.0,0.0,0.0,0.0,0.0
5.084,143,5,84000000,base_footprint,-0.003609378997063663,0.0013920670768407452,0.9322676930312147,0.3617485080311544,0.0,0.0,0.0,0.0,0.0,0.0,0.0,0.0,0.0,0.002246917600199141,-0.000812877749776154,-0.05671002792969552,0.0,0.0,0.0,0.0,0.0,0.0,0.0,0.0,0.0,0.018614229906276702,-0.32191745474688016,-0.0011684823484821732,0.0,0.0,0.0,0.0,0.0,0.0,0.0,0.0,0.0
5.118,144,5,118000000,base_footprint,-0.0036140157792491716,0.0013996984339863022,0.9319388073698235,0.36259486903754207,0.0,0.0,0.0,0.0,0.0,0.0,0.0,0.0,0.0,0.00024331848684763324,-0.0002995154967464568,-0.053321323440929394,0.0,0.0,0.0,0.0,0.0,0.0,0.0,0.0,0.0,-0.012716950804555375,-0.023047840801362306,0.002962171594463178,0.0,0.0,0.0,0.0,0.0,0.0,0.0,0.0,0.0
5.152,145,5,152000000,base_footprint,-0.0036128588778899834,0.0014001830002993935,0.931601985568554,0.36345938868465333,0.0,0.0,0.0,0.0,0.0,0.0,0.0,0.0,0.0,-0.00015223915485735448,7.333064038085055e-05,-0.056691079016869206,0.0,0.0,0.0,0.0,0.0,0.0,0.0,0.0,0.0,-0.010216079099489572,0.010155537745136379,0.0005175353705526774,0.0,0.0,0.0,0.0,0.0,0.0,0.0,0.0,0.0
5.186,146,5,186000000,base_footprint,-0.003610985091606649,0.001398093237491882,0.9313024570235531,0.36422622045078057,0.0,0.0,0.0,0.0,0.0,0.0,0.0,0.0,0.0,-0.0003436827754692837,-7.399740889922858e-05,-0.05253316074607707,0.0,0.0,0.0,0.0,0.0,0.0,0.0,0.0,0.0,-0.018106340641649694,0.08084672594969997,0.00022013135628917892,0.0,0.0,0.0,0.0,0.0,0.0,0.0,0.0,0.0
5.22,147,5,220000000,base_footprint,-0.0036041269618349225,0.001404337506305712,0.9310500398873522,0.3648710201300882,0.0,0.0,0.0,0.0,0.0,0.0,0.0,0.0,0.0,0.0008344821095694231,-0.0012281285414088396,-0.016932308277954312,0.0,0.0,0.0,0.0,0.0,0.0,0.0,0.0,0.0,0.00032150131518917345,-0.023753847220273835,-0.002447408009487127,0.0,0.0,0.0,0.0,0.0,0.0,0.0,0.0,0.0
5.254,148,5,254000000,base_footprint,-0.003608473303584262,0.0014071655913469744,0.9310295544079874,0.3649232352485662,0.0,0.0,0.0,0.0,0.0,0.0,0.0,0.0,0.0,-0.00032519602819006463,-0.00010561717498133086,-0.006822932712007471,0.0,0.0,0.0,0.0,0.0,0.0,0.0,0.0,0.0,-0.0068559879867935054,-0.0006896088684781232,0.0016086575796090625,0.0,0.0,0.0,0.0,0.0,0.0,0.0,0.0,0.0
5.288,149,5,288000000,base_footprint,-0.0036040472285598013,0.0014086453390074914,0.9307463467029446,0.36564499813481,0.0,0.0,0.0,0.0,0.0,0.0,0.0,0.0,0.0,0.0027320031276946185,-0.00017659141665694097,-0.060865954899026846,0.0,0.0,0.0,0.0,0.0,0.0,0.0,0.0,0.0,-0.03896659383194383,0.3294234147354162,-0.006239123493068112,0.0,0.0,0.0,0.0,0.0,0.0,0.0,0.0,0.0
5.322,150,5,322000000,base_footprint,-0.003603947607236137,0.0014073724014586986,0.9305627048395706,0.36611211838210184,0.0,0.0,0.0,0.0,0.0,0.0,0.0,0.0,0.0,-0.0002742418016862291,-6.394738684998812e-05,-0.02508458394007049,0.0,0.0,0.0,0.0,0.0,0.0,0.0,0.0,0.0,-0.0007699540481829019,-0.021234085595005312,0.004723798315811193,0.0,0.0,0.0,0.0,0.0,0.0,0.0,0.0,0.0
5.356,151,5,356000000,base_footprint,-0.0036012789848638136,0.0014075090281321398,0.9304053588251638,0.3665118251536053,0.0,0.0,0.0,0.0,0.0,0.0,0.0,0.0,0.0,-0.0002556895514058542,-0.0002816355259495012,-0.02549189715622198,0.0,0.0,0.0,0.0,0.0,0.0,0.0,0.0,0.0,-0.005117372747722008,-0.0056816112872907325,0.0002261290802428042,0.0,0.0,0.0,0.0,0.0,0.0,0.0,0.0,0.0
5.39,152,5,390000000,base_footprint,-0.00359694555062897,0.0014098160194363813,0.9302009180518548,0.3670304162559061,0.0,0.0,0.0,0.0,0.0,0.0,0.0,0.0,0.0,-0.0006781694432149883,-0.0004866265258621079,-0.04712673061742422,0.0,0.0,0.0,0.0,0.0,0.0,0.0,0.0,0.0,0.017862537019334546,-0.35040268975610445,0.002520607879154156,0.0,0.0,0.0,0.0,0.0,0.0,0.0,0.0,0.0
5.424,153,5,424000000,base_footprint,-0.0035950100788593835,0.0014106777174141168,0.9301655475267225,0.3671200622210986,0.0,0.0,0.0,0.0,0.0,0.0,0.0,0.0,0.0,-0.00020035654526525109,-0.00013514890781284232,-0.00452000265197606,0.0,0.0,0.0,0.0,0.0,0.0,0.0,0.0,0.0,-0.002720120645402156,0.004636009146910498,-0.0009542475558847419,0.0,0.0,0.0,0.0,0.0,0.0,0.0,0.0,0.0
5.458,154,5,458000000,base_footprint,-0.0035990372778094545,0.0014126159930828211,0.9301358654123005,0.36719521146175094,0.0,0.0,0.0,0.0,0.0,0.0,0.0,0.0,0.0,0.0041463572234323514,0.0010412701256974893,-0.0037475472533296467,0.0,0.0,0.0,0.0,0.0,0.0,0.0,0.0,0.0,-0.004607197051196502,0.05436760880033683,-0.004037934600385472,0.0,0.0,0.0,0.0,0.0,0.0,0.0,0.0,0.0
5.492,155,5,492000000,base_footprint,-0.0035965458934965615,0.0014117831637305654,0.9302610352630747,0.3668780151456438,0.0,0.0,0.0,0.0,0.0,0.0,0.0,0.0,0.0,-0.00016440003597976416,6.537692218517099e-05,0.02738534348190494,0.0,0.0,0.0,0.0,0.0,0.0,0.0,0.0,0.0,-0.015382395563718745,0.28336851701486154,0.0017234438321426337,0.0,0.0,0.0,0.0,0.0,0.0,0.0,0.0,0.0
5.526,156,5,526000000,base_footprint,-0.0036004218338433116,0.0014119908698600702,0.9304296262671568,0.3664502064520647,0.0,0.0,0.0,0.0,0.0,0.0,0.0,0.0,0.0,-9.358015396921892e-05,5.751527975927463e-05,0.026786066221375686,0.0,0.0,0.0,0.0,0.0,0.0,0.0,0.0,0.0,0.0055777321391908136,-0.004696813730024133,-0.00011983836204650034,0.0,0.0,0.0,0.0,0.0,0.0,0.0,0.0,0.0
5.5600000000000005,157,5,560000000,base_footprint,-0.0036033032000806595,0.0014108468073463737,0.93058929992754,0.36604450627991364,0.0,0.0,0.0,0.0,0.0,0.0,0.0,0.0,0.0,-0.001467599285448635,0.0003721974467775047,0.016740114712942775,0.0,0.0,0.0,0.0,0.0,0.0,0.0,0.0,0.0,0.00876778977796282,-0.06788945255567509,0.0056123459485628935,0.0,0.0,0.0,0.0,0.0,0.0,0.0,0.0,0.0
5.594,158,5,594000000,base_footprint,-0.0036077475359789684,0.0014133209691025844,0.9304740999672954,0.3663371889006175,0.0,0.0,0.0,0.0,0.0,0.0,0.0,0.0,0.0,0.0008237139284654748,-0.00037532117382874005,-0.03280434013434956,0.0,0.0,0.0,0.0,0.0,0.0,0.0,0.0,0.0,0.0167034370133448,-0.29392002632913183,-0.00517562156119108,0.0,0.0,0.0,0.0,0.0,0.0,0.0,0.0,0.0
5.628,159,5,628000000,base_footprint,-0.0036083392752697106,0.0014148606755368387,0.9302577699828416,0.36688616687399644,0.0,0.0,0.0,0.0,0.0,0.0,0.0,0.0,0.0,7.834973204758498e-05,-0.00010553042669194748,-0.03583593840303246,0.0,0.0,0.0,0.0,0.0,0.0,0.0,0.0,0.0,-0.007998203574120451,0.012229586257782706,0.001544645069837739,0.0,0.0,0.0,0.0,0.0,0.0,0.0,0.0,0.0
5.662,160,5,662000000,base_footprint,-0.0036054424660508437,0.0014110027456589237,0.9300006651439422,0.3675374439260592,0.0,0.0,0.0,0.0,0.0,0.0,0.0,0.0,0.0,0.0008612489503381873,0.00017260751239377885,-0.04351063765401804,0.0,0.0,0.0,0.0,0.0,0.0,0.0,0.0,0.0,-0.0143541943219226,0.06123813021493574,-0.0022625864684705167,0.0,0.0,0.0,0.0,0.0,0.0,0.0,0.0,0.0
5.696,161,5,696000000,base_footprint,-0.003602056488488499,0.0014118689718513346,0.9298928235454045,0.3678102344060256,0.0,0.0,0.0,0.0,0.0,0.0,0.0,0.0,0.0,-9.0491031201384e-05,-0.0008419665639721181,0.00733633826093927,0.0,0.0,0.0,0.0,0.0,0.0,0.0,0.0,0.0,0.009974435258156679,0.03627077902662623,0.0016272316787107727,0.0,0.0,0.0,0.0,0.0,0.0,0.0,0.0,0.0
5.73,162,5,730000000,base_footprint,-0.0036031248162958565,0.0014167774076907127,0.930053636054691,0.3674033808973236,0.0,0.0,0.0,0.0,0.0,0.0,0.0,0.0,0.0,-0.00034982554432707235,-0.00014891244925664985,0.02546127547039642,0.0,0.0,0.0,0.0,0.0,0.0,0.0,0.0,0.0,-0.004596765573142338,-0.016070622441755816,0.0003918293402381922,0.0,0.0,0.0,0.0,0.0,0.0,0.0,0.0,0.0
5.764,163,5,764000000,base_footprint,-0.0035995044455778644,0.0014111939513117985,0.9300848713019931,0.36732435840076433,0.0,0.0,0.0,0.0,0.0,0.0,0.0,0.0,0.0,-0.00406304515341987,0.0019494752386640859,-0.04408121836002989,0.0,0.0,0.0,0.0,0.0,0.0,0.0,0.0,0.0,0.0024977656054441157,-0.035102809348607114,0.003197087732809967,0.0,0.0,0.0,0.0,0.0,0.0,0.0,0.0,0.0
5.797,164,5,798000000,base_footprint,-0.0036020665562422854,0.001414551744322949,0.9298048612719821,0.3680325313268886,0.0,0.0,0.0,0.0,0.0,0.0,0.0,0.0,0.0,-0.00011059446523386903,-8.437038040259772e-05,-0.04385594880788794,0.0,0.0,0.0,0.0,0.0,0.0,0.0,0.0,0.0,-0.009498866313546149,-0.02399991881792902,-0.002584213947308469,0.0,0.0,0.0,0.0,0.0,0.0,0.0,0.0,0.0
5.832,165,5,832000000,base_footprint,-0.0035979534934968958,0.001415912176131645,0.929526195272988,0.3687358163030697,0.0,0.0,0.0,0.0,0.0,0.0,0.0,0.0,0.0,-0.00018498137562172486,-0.00038696957473714354,-0.04455515793555288,0.0,0.0,0.0,0.0,0.0,0.0,0.0,0.0,0.0,-0.008738427112339171,-0.0066532997953312745,0.0003614594576479799,0.0,0.0,0.0,0.0,0.0,0.0,0.0,0.0,0.0
5.866,166,5,866000000,base_footprint,-0.003593038542545748,0.0014188605132605283,0.9292646120551165,0.36939458264967795,0.0,0.0,0.0,0.0,0.0,0.0,0.0,0.0,0.0,-0.00025270608093333957,-8.165392581010707e-05,-0.03282007926676161,0.0,0.0,0.0,0.0,0.0,0.0,0.0,0.0,0.0,-0.009749315926736283,-0.0026162382437985424,-0.00023846939822090484,0.0,0.0,0.0,0.0,0.0,0.0,0.0,0.0,0.0
5.9,167,5,900000000,base_footprint,-0.003590883202525781,0.001421291880006964,0.9290540764528636,0.3699237874394324,0.0,0.0,0.0,0.0,0.0,0.0,0.0,0.0,0.0,-2.6593659700656266e-05,-0.00028312551975477227,-0.0337608287194,0.0,0.0,0.0,0.0,0.0,0.0,0.0,0.0,0.0,-0.00635312772645953,-0.0065438209187407455,-0.00020431681784668893,0.0,0.0,0.0,0.0,0.0,0.0,0.0,0.0,0.0
5.934,168,5,934000000,base_footprint,-0.003590083484701447,0.0014241776626920458,0.9288397848913932,0.370461518948282,0.0,0.0,0.0,0.0,0.0,0.0,0.0,0.0,0.0,5.704586121043572e-05,-0.0002697778897030688,-0.03426418844783025,0.0,0.0,0.0,0.0,0.0,0.0,0.0,0.0,0.0,-0.007252063422883788,-0.006149605788792815,-0.0001804510869274497,0.0,0.0,0.0,0.0,0.0,0.0,0.0,0.0,0.0
5.968,169,5,968000000,base_footprint,-0.0035916266247116957,0.001425041974064514,0.9286329895593411,0.3709795684072663,0.0,0.0,0.0,0.0,0.0,0.0,0.0,0.0,0.0,-0.000554339538882497,0.0012077232204783612,-0.032047639892676824,0.0,0.0,0.0,0.0,0.0,0.0,0.0,0.0,0.0,-0.023745669048622395,0.29336027750547233,-0.0024467750756526534,0.0,0.0,0.0,0.0,0.0,0.0,0.0,0.0,0.0
6.002,170,6,2000000,base_footprint,-0.003593173926584063,0.001430828191433143,0.9284118859176346,0.371532517982856,0.0,0.0,0.0,0.0,0.0,0.0,0.0,0.0,0.0,0.0006983702646640833,-0.0004150136271827234,-0.025730520513129573,0.0,0.0,0.0,0.0,0.0,0.0,0.0,0.0,0.0,-0.008513742528528398,0.03825322786654132,-0.000484100541505287,0.0,0.0,0.0,0.0,0.0,0.0,0.0,0.0,0.0
6.036,171,6,36000000,base_footprint,-0.0035968817172259524,0.0014338556937720836,0.9282448699954191,0.3719495501098897,0.0,0.0,0.0,0.0,0.0,0.0,0.0,0.0,0.0,0.0002484136090287042,-0.00016252840154989829,-0.026950190694211312,0.0,0.0,0.0,0.0,0.0,0.0,0.0,0.0,0.0,-0.005199003283471931,-0.004071948039799397,0.0003126265720670495,0.0,0.0,0.0,0.0,0.0,0.0,0.0,0.0,0.0
6.07,172,6,70000000,base_footprint,-0.0035892707115729766,0.0014333839648284566,0.9280288537827472,0.37248826705394233,0.0,0.0,0.0,0.0,0.0,0.0,0.0,0.0,0.0,0.0009108873298570708,-0.0009568171910265559,-0.055868524948801616,0.0,0.0,0.0,0.0,0.0,0.0,0.0,0.0,0.0,0.002101350664568416,-0.16695105743245872,0.0017273216312850578,0.0,0.0,0.0,0.0,0.0,0.0,0.0,0.0,0.0
6.104,173,6,104000000,base_footprint,-0.0035969061912955133,0.0014340056650370095,0.9278402703820836,0.3729576900278444,0.0,0.0,0.0,0.0,0.0,0.0,0.0,0.0,0.0,-8.053709723887241e-05,6.564620605964232e-05,-0.012249648405831384,0.0,0.0,0.0,0.0,0.0,0.0,0.0,0.0,0.0,-0.006599425754984744,-0.08804598332686425,0.000143670308375724,0.0,0.0,0.0,0.0,0.0,0.0,0.0,0.0,0.0
6.138,174,6,138000000,base_footprint,-0.0035963682464577582,0.0014311374604098189,0.9277601715036374,0.3731569135799932,0.0,0.0,0.0,0.0,0.0,0.0,0.0,0.0,0.0,0.0002512858410724739,-0.0002137580141592202,-0.02124040444746282,0.0,0.0,0.0,0.0,0.0,0.0,0.0,0.0,0.0,-0.0008590631932906944,0.026839233395603197,-0.0009328431939654575,0.0,0.0,0.0,0.0,0.0,0.0,0.0,0.0,0.0
6.172,175,6,172000000,base_footprint,-0.0035982445710249417,0.001437099796428003,0.9275866022903244,0.3735881189648217,0.0,0.0,0.0,0.0,0.0,0.0,0.0,0.0,0.0,0.0031519935246131763,0.0009400761965361081,-0.05120211162576694,0.0,0.0,0.0,0.0,0.0,0.0,0.0,0.0,0.0,0.003148988817937237,0.10749206349359361,-0.005189566217792294,0.0,0.0,0.0,0.0,0.0,0.0,0.0,0.0,0.0
6.206,176,6,206000000,base_footprint,-0.0035848040277033973,0.0014351545617541845,0.9271321169886206,0.37471472770584524,0.0,0.0,0.0,0.0,0.0,0.0,0.0,0.0,0.0,-0.0013200861195525404,5.036039206835017e-05,-0.029468605887155823,0.0,0.0,0.0,0.0,0.0,0.0,0.0,0.0,0.0,-0.03163977248180142,0.1377574953173731,0.006434370600239263,0.0,0.0,0.0,0.0,0.0,0.0,0.0,0.0,0.0
6.24,177,6,240000000,base_footprint,-0.003595961083053324,0.0014416263570128814,0.9273058623109469,0.3742844219321547,0.0,0.0,0.0,0.0,0.0,0.0,0.0,0.0,0.0,0.0004647222445753485,0.0005908093364458697,0.03329752737785571,0.0,0.0,0.0,0.0,0.0,0.0,0.0,0.0,0.0,0.000611796359482315,0.030564232613748667,-0.0035058525073198067,0.0,0.0,0.0,0.0,0.0,0.0,0.0,0.0,0.0
6.274,178,6,274000000,base_footprint,-0.003581366347942223,0.0014414455709564694,0.9275478831172865,0.3736843863133545,0.0,0.0,0.0,0.0,0.0,0.0,0.0,0.0,0.0,-0.0015909085597117698,0.00027834906406200635,0.02780963054485064,0.0,0.0,0.0,0.0,0.0,0.0,0.0,0.0,0.0,0.015933328139472604,-0.1779714633679602,0.0043935721436439154,0.0,0.0,0.0,0.0,0.0,0.0,0.0,0.0,0.0
6.308,179,6,308000000,base_footprint,-0.0035895987643785525,0.0014375442263905038,0.9274197069977821,0.37400231993860156,0.0,0.0,0.0,0.0,0.0,0.0,0.0,0.0,0.0,-0.0002988153229303619,-0.0001582052558068732,-0.04061750091981968,0.0,0.0,0.0,0.0,0.0,0.0,0.0,0.0,0.0,0.005288890409530941,-0.1835116189056848,-0.00041294683361775835,0.0,0.0,0.0,0.0,0.0,0.0,0.0,0.0,0.0
6.342,180,6,342000000,base_footprint,-0.0035853924278306023,0.0014399487434440517,0.9271598792673073,0.37464600596534736,0.0,0.0,0.0,0.0,0.0,0.0,0.0,0.0,0.0,-9.616271190980263e-05,-0.00034197901325897157,-0.041055207367472715,0.0,0.0,0.0,0.0,0.0,0.0,0.0,0.0,0.0,-0.01031015021340519,-0.005501031653765788,-2.5427685957333475e-05,0.0,0.0,0.0,0.0,0.0,0.0,0.0,0.0,0.0
6.376,181,6,376000000,base_footprint,-0.003582500567816625,0.0014424334096884064,0.926933551157006,0.3752056460329486,0.0,0.0,0.0,0.0,0.0,0.0,0.0,0.0,0.0,-8.015427138123167e-05,-0.00025374167769830495,-0.03117615503915122,0.0,0.0,0.0,0.0,0.0,0.0,0.0,0.0,0.0,-0.007885121442441922,-0.0032540568846653674,-0.0001874070621607728,0.0,0.0,0.0,0.0,0.0,0.0,0.0,0.0,0.0
6.41,182,6,410000000,base_footprint,-0.0035814787699799126,0.0014449247331329677,0.9267323236287205,0.37570238959054864,0.0,0.0,0.0,0.0,0.0,0.0,0.0,0.0,0.0,1.9917394721940123e-05,-0.0002473335664997803,-0.031770838164635745,0.0,0.0,0.0,0.0,0.0,0.0,0.0,0.0,0.0,-0.006788020850483368,-0.006039622501469804,-0.00019040509239414327,0.0,0.0,0.0,0.0,0.0,0.0,0.0,0.0,0.0
6.444,183,6,444000000,base_footprint,-0.0035820045197641347,0.0014477948670931497,0.9265272443932051,0.3762078395392333,0.0,0.0,0.0,0.0,0.0,0.0,0.0,0.0,0.0,0.00011234576241833099,-0.00023790969323689997,-0.032333818835216785,0.0,0.0,0.0,0.0,0.0,0.0,0.0,0.0,0.0,-0.007015405508419605,-0.005907920695955497,-0.0002018299996433609,0.0,0.0,0.0,0.0,0.0,0.0,0.0,0.0,0.0
6.478,184,6,478000000,base_footprint,-0.0035876245430688665,0.0014508951310299178,0.9264542904774896,0.37638739552395745,0.0,0.0,0.0,0.0,0.0,0.0,0.0,0.0,0.0,-3.968250266683001e-05,0.0002465897424704435,0.03199388194688402,0.0,0.0,0.0,0.0,0.0,0.0,0.0,0.0,0.0,-0.014208304202138755,0.3537426169941622,-0.0021577619509588067,0.0,0.0,0.0,0.0,0.0,0.0,0.0,0.0,0.0
6.5120000000000005,185,6,512000000,base_footprint,-0.0035897202964591925,0.001449568176726823,0.9266591750611257,0.375882675758445,0.0,0.0,0.0,0.0,0.0,0.0,0.0,0.0,0.0,-2.2291975025269928e-05,0.0001510246894636591,0.03159729662376501,0.0,0.0,0.0,0.0,0.0,0.0,0.0,0.0,0.0,0.007760259303593319,-0.005250238423412376,-0.00037649253256693535,0.0,0.0,0.0,0.0,0.0,0.0,0.0,0.0,0.0
6.546,186,6,546000000,base_footprint,-0.0035936158516675274,0.0014485671510522902,0.9268574840327426,0.37539338282768664,0.0,0.0,0.0,0.0,0.0,0.0,0.0,0.0,0.0,-0.00013536681945867837,0.00020476010322095377,0.030318985594023216,0.0,0.0,0.0,0.0,0.0,0.0,0.0,0.0,0.0,0.004925473370271887,-0.0029144915109003237,0.00015486896743658785,0.0,0.0,0.0,0.0,0.0,0.0,0.0,0.0,0.0
6.58,187,6,580000000,base_footprint,-0.0035861750311361115,0.0014437409995769392,0.9269211507245495,0.37523623932137645,0.0,0.0,0.0,0.0,0.0,0.0,0.0,0.0,0.0,-0.00013402780680130287,-0.0001817407465894962,-0.025546278116554796,0.0,0.0,0.0,0.0,0.0,0.0,0.0,0.0,0.0,0.011422236811813036,-0.2213768042036095,0.0021628483019195716,0.0,0.0,0.0,0.0,0.0,0.0,0.0,0.0,0.0
6.614,188,6,614000000,base_footprint,-0.0035928317177406997,0.0014418804645293427,0.9265958760576383,0.37603868818773406,0.0,0.0,0.0,0.0,0.0,0.0,0.0,0.0,0.0,4.418912209059941e-05,0.00018024857732260355,-0.055293537211898475,0.0,0.0,0.0,0.0,0.0,0.0,0.0,0.0,0.0,-0.011177065230669301,-0.05899819762902281,-0.00021722626806864833,0.0,0.0,0.0,0.0,0.0,0.0,0.0,0.0,0.0
6.648,189,6,648000000,base_footprint,-0.00358502728620969,0.0014460843194624643,0.9262084223062805,0.37699206207612523,0.0,0.0,0.0,0.0,0.0,0.0,0.0,0.0,0.0,-0.0001542586406422681,-0.0004333919000075202,-0.05377834670467828,0.0,0.0,0.0,0.0,0.0,0.0,0.0,0.0,0.0,-0.002938782698763246,0.0334413783868615,0.0014828204625554346,0.0,0.0,0.0,0.0,0.0,0.0,0.0,0.0,0.0
6.682,190,6,682000000,base_footprint,-0.003589295956480773,0.001454439185761652,0.9260847175310527,0.3772957692800467,0.0,0.0,0.0,0.0,0.0,0.0,0.0,0.0,0.0,0.001374584546474221,-0.0008284434917942129,0.012310886576966993,0.0,0.0,0.0,0.0,0.0,0.0,0.0,0.0,0.0,-0.01655388888592567,-0.02630511844108713,-0.0038160996877314537,0.0,0.0,0.0,0.0,0.0,0.0,0.0,0.0,0.0
6.716,191,6,716000000,base_footprint,-0.0035913859575085827,0.0014534281085588228,0.9261030401902609,0.37725077659826445,0.0,0.0,0.0,0.0,0.0,0.0,0.0,0.0,0.0,-0.0005370325423742288,-0.00021263188691301787,0.001789002061101217,0.0,0.0,0.0,0.0,0.0,0.0,0.0,0.0,0.0,0.00874611226441404,-0.034860787826950596,0.003080761414784916,0.0,0.0,0.0,0.0,0.0,0.0,0.0,0.0,0.0
6.75,192,6,750000000,base_footprint,-0.0035876080048360417,0.0014515834762583635,0.9261152090319101,0.377220945301287,0.0,0.0,0.0,0.0,0.0,0.0,0.0,0.0,0.0,-0.00037402986664813635,8.899887240841855e-05,0.002013518690963678,0.0,0.0,0.0,0.0,0.0,0.0,0.0,0.0,0.0,-0.0025998406103042936,-0.002473866211861571,-0.00015808855327955658,0.0,0.0,0.0,0.0,0.0,0.0,0.0,0.0,0.0
6.784,193,6,784000000,base_footprint,-0.0035849456789817857,0.0014489065910777003,0.9262163211023512,0.3769726453707156,0.0,0.0,0.0,0.0,0.0,0.0,0.0,0.0,0.0,-0.0004430936960885262,0.00020083906000206107,0.019266824826298056,0.0,0.0,0.0,0.0,0.0,0.0,0.0,0.0,0.0,0.0034745174991380216,0.00044244966780521383,-8.51925804011278e-05,0.0,0.0,0.0,0.0,0.0,0.0,0.0,0.0,0.0
6.818,194,6,818000000,base_footprint,-0.00358204323460924,0.0014474561940783846,0.9263390652666894,0.3766709571996065,0.0,0.0,0.0,0.0,0.0,0.0,0.0,0.0,0.0,-0.00043117175925121495,-1.309888072290784e-05,0.018975439198693506,0.0,0.0,0.0,0.0,0.0,0.0,0.0,0.0,0.0,0.004011781712809543,-0.005122938346474809,0.0002614123318503776,0.0,0.0,0.0,0.0,0.0,0.0,0.0,0.0,0.0
6.852,195,6,852000000,base_footprint,-0.003580559738954715,0.0014466269928954834,0.9264587970526191,0.3763763863821869,0.0,0.0,0.0,0.0,0.0,0.0,0.0,0.0,0.0,-0.00034096335273979203,5.349935846111277e-06,0.0184957357777178,0.0,0.0,0.0,0.0,0.0,0.0,0.0,0.0,0.0,0.004250103225713455,-0.005667832916217853,-0.00012035806585816777,0.0,0.0,0.0,0.0,0.0,0.0,0.0,0.0,0.0
6.886,196,6,886000000,base_footprint,-0.0035800850765257465,0.0014482336005504936,0.9263607928525892,0.3766175342118383,0.0,0.0,0.0,0.0,0.0,0.0,0.0,0.0,0.0,-6.640924548404148e-05,-0.00019620572709076062,-0.021213031456674285,0.0,0.0,0.0,0.0,0.0,0.0,0.0,0.0,0.0,-0.0027384754986325296,-0.016206347597197416,-5.379402207274093e-05,0.0,0.0,0.0,0.0,0.0,0.0,0.0,0.0,0.0
6.92,197,6,920000000,base_footprint,-0.0035808225471104316,0.0014504931188211029,0.9262229776363597,0.3769563230376087,0.0,0.0,0.0,0.0,0.0,0.0,0.0,0.0,0.0,5.1928005321970805e-05,-0.00018428865396054274,-0.021752099513333144,0.0,0.0,0.0,0.0,0.0,0.0,0.0,0.0,0.0,-0.004535329745592398,-0.005830971722146518,-0.00022895937282058158,0.0,0.0,0.0,0.0,0.0,0.0,0.0,0.0,0.0
6.954,198,6,954000000,base_footprint,-0.0035832874009040024,0.001453293235388462,0.926081436297475,0.3773038846014979,0.0,0.0,0.0,0.0,0.0,0.0,0.0,0.0,0.0,0.00016951138683323792,-0.00017902637589328312,-0.02234310785811153,0.0,0.0,0.0,0.0,0.0,0.0,0.0,0.0,0.0,-0.0048930458103883445,-0.005495859236478684,-0.0002502589389442285,0.0,0.0,0.0,0.0,0.0,0.0,0.0,0.0,0.0
6.988,199,6,988000000,base_footprint,-0.003588224812668778,0.0014538602787616082,0.9261773234413831,0.3770683976096898,0.0,0.0,0.0,0.0,0.0,0.0,0.0,0.0,0.0,4.3817390771899286e-05,9.57254969961862e-05,0.018300091802300487,0.0,0.0,0.0,0.0,0.0,0.0,0.0,0.0,0.0,0.0024284269494469894,0.006606119879790673,-0.0004271996369368743,0.0,0.0,0.0,0.0,0.0,0.0,0.0,0.0,0.0
7.022,200,7,22000000,base_footprint,-0.0035917062682354795,0.0014539420190196194,0.9262910342016298,0.3767889404645034,0.0,0.0,0.0,0.0,0.0,0.0,0.0,0.0,0.0,-7.148990316930824e-05,8.67997558165537e-05,0.017041188497542593,0.0,0.0,0.0,0.0,0.0,0.0,0.0,0.0,0.0,0.0022657650017103557,-0.0017156976514458252,0.00020301124326579624,0.0,0.0,0.0,0.0,0.0,0.0,0.0,0.0,0.0
7.056,201,7,56000000,base_footprint,-0.0035936359883900295,0.001452701624780397,0.9263962761529559,0.3765300983564378,0.0,0.0,0.0,0.0,0.0,0.0,0.0,0.0,0.0,-0.0002146615617224852,0.00013814195326503745,0.015787379173695392,0.0,0.0,0.0,0.0,0.0,0.0,0.0,0.0,0.0,0.0028787653280920506,0.0059597001251886885,0.00024153578690453396,0.0,0.0,0.0,0.0,0.0,0.0,0.0,0.0,0.0
7.09,202,7,90000000,base_footprint,-0.0035927996146529776,0.0014482347657573049,0.9264189987965539,0.37647421302897077,0.0,0.0,0.0,0.0,0.0,0.0,0.0,0.0,0.0,-0.00030733391065200467,0.0002291636234569034,-0.0042030271211533935,0.0,0.0,0.0,0.0,0.0,0.0,0.0,0.0,0.0,0.001297667449214987,0.030540562173584765,0.0001728251871625233,0.0,0.0,0.0,0.0,0.0,0.0,0.0,0.0,0.0
7.124,203,7,124000000,base_footprint,-0.0035877159368727977,0.001449637135908546,0.9263657838734182,0.376605179618016,0.0,0.0,0.0,0.0,0.0,0.0,0.0,0.0,0.0,-0.00013380493223281127,-0.00041031778543661093,0.0016473366850618747,0.0,0.0,0.0,0.0,0.0,0.0,0.0,0.0,0.0,0.0067421916271139535,0.03185010459446648,-6.115739312328867e-05,0.0,0.0,0.0,0.0,0.0,0.0,0.0,0.0,0.0
7.158,204,7,158000000,base_footprint,-0.003591012081041608,0.0014533414903494144,0.9264928036262342,0.37629254212586555,0.0,0.0,0.0,0.0,0.0,0.0,0.0,0.0,0.0,0.0008489963608324839,-0.0023191731958868683,0.012316429642342723,0.0,0.0,0.0,0.0,0.0,0.0,0.0,0.0,0.0,-0.0008216213184758605,0.007942991740592199,-0.0001991949341023401,0.0,0.0,0.0,0.0,0.0,0.0,0.0,0.0,0.0
7.192,205,7,192000000,base_footprint,-0.003593850091328058,0.001449564020317302,0.9263950564707434,0.3765331092377407,0.0,0.0,0.0,0.0,0.0,0.0,0.0,0.0,0.0,-0.00010609483106490512,-0.00044462526606497943,-0.024436778962633302,0.0,0.0,0.0,0.0,0.0,0.0,0.0,0.0,0.0,-0.0012794823604711757,-0.0524738058883787,0.0004995915164606863,0.0,0.0,0.0,0.0,0.0,0.0,0.0,0.0,0.0
7.226,206,7,226000000,base_footprint,-0.003588257442304555,0.001449306409371026,0.9262547529308415,0.3768781720828171,0.0,0.0,0.0,0.0,0.0,0.0,0.0,0.0,0.0,-0.00020973128753735965,3.158175572791656e-07,-0.02174392256726266,0.0,0.0,0.0,0.0,0.0,0.0,0.0,0.0,0.0,-0.008148738034685861,0.0035408123916656747,2.4068372159130428e-05,0.0,0.0,0.0,0.0,0.0,0.0,0.0,0.0,0.0
7.26,207,7,260000000,base_footprint,-0.0035976180732309486,0.0014548477057983284,0.9261123073703107,0.37722796118473423,0.0,0.0,0.0,0.0,0.0,0.0,0.0,0.0,0.0,0.004803567895130494,-0.0010013550333312353,-0.026082080927766368,0.0,0.0,0.0,0.0,0.0,0.0,0.0,0.0,0.0,-0.00638891386901521,0.10281990770547877,-0.0010074439899366208,0.0,0.0,0.0,0.0,0.0,0.0,0.0,0.0,0.0
7.2940000000000005,208,7,294000000,base_footprint,-0.003566746843072741,0.0014480317741488232,0.9258540052348772,0.3778618034566006,0.0,0.0,0.0,0.0,0.0,0.0,0.0,0.0,0.0,-0.009117417058757548,-0.0008649655552550009,-0.047940495459348816,0.0,0.0,0.0,0.0,0.0,0.0,0.0,0.0,0.0,-0.026782630160749304,0.7130970476150438,0.006160254991235078,0.0,0.0,0.0,0.0,0.0,0.0,0.0,0.0,0.0
7.328,209,7,328000000,base_footprint,-0.0035779229734557495,0.0014539655289969033,0.9255866546169704,0.37851608849083523,0.0,0.0,0.0,0.0,0.0,0.0,0.0,0.0,0.0,-0.0008630378758604854,-0.00043597298235036595,-0.028716495690331457,0.0,0.0,0.0,0.0,0.0,0.0,0.0,0.0,0.0,0.0039011930934190475,-0.4950976883413477,-0.006015644215930114,0.0,0.0,0.0,0.0,0.0,0.0,0.0,0.0,0.0
7.362,210,7,362000000,base_footprint,-0.0035697376839464432,0.0014541561348800978,0.9253989489159506,0.37897483788248654,0.0,0.0,0.0,0.0,0.0,0.0,0.0,0.0,0.0,0.0002234458190095945,-0.00010693279065896016,-0.03205449399234263,0.0,0.0,0.0,0.0,0.0,0.0,0.0,0.0,0.0,-0.006205936043918427,-0.1326367669130445,-0.0007175148173077222,0.0,0.0,0.0,0.0,0.0,0.0,0.0,0.0,0.0
7.396,211,7,396000000,base_footprint,-0.003576164093945454,0.001459370167725778,0.9251253682492323,0.379642113457937,0.0,0.0,0.0,0.0,0.0,0.0,0.0,0.0,0.0,-1.0216840923514388e-05,-0.00020560959831433182,-0.03981897900398861,0.0,0.0,0.0,0.0,0.0,0.0,0.0,0.0,0.0,-0.004577718953939852,-0.21966204126934724,0.0014110786886501279,0.0,0.0,0.0,0.0,0.0,0.0,0.0,0.0,0.0
7.43,212,7,430000000,base_footprint,-0.003578533209354218,0.001463863575554082,0.9248645355815017,0.3802770595593628,0.0,0.0,0.0,0.0,0.0,0.0,0.0,0.0,0.0,0.00025254691689677734,-0.00027917362603231097,-0.04067652914510632,0.0,0.0,0.0,0.0,0.0,0.0,0.0,0.0,0.0,-0.00884119354161554,-0.005807688679777543,-0.0004426458087162694,0.0,0.0,0.0,0.0,0.0,0.0,0.0,0.0,0.0
7.464,213,7,464000000,base_footprint,-0.003573552817679961,0.0014639027531677495,0.9246075441111097,0.3809015306897715,0.0,0.0,0.0,0.0,0.0,0.0,0.0,0.0,0.0,-0.0027853045953147386,-0.00023155971325733102,-0.0316658849164198,0.0,0.0,0.0,0.0,0.0,0.0,0.0,0.0,0.0,-0.009035447296441151,0.15728891545318335,0.0033729986166737952,0.0,0.0,0.0,0.0,0.0,0.0,0.0,0.0,0.0
7.498,214,7,498000000,base_footprint,-0.0035827588244704,0.0014693089162761777,0.9243555708712126,0.3815124946444995,0.0,0.0,0.0,0.0,0.0,0.0,0.0,0.0,0.0,-0.0009114721641959675,0.000307736613861988,-0.03874465097820042,0.0,0.0,0.0,0.0,0.0,0.0,0.0,0.0,0.0,-0.008644700686226477,0.1757018144013383,-0.004104050383269701,0.0,0.0,0.0,0.0,0.0,0.0,0.0,0.0,0.0
7.532,215,7,532000000,base_footprint,-0.0035854341583988055,0.0014741037714111462,0.9240944120822139,0.3821445920569784,0.0,0.0,0.0,0.0,0.0,0.0,0.0,0.0,0.0,0.00016257526260692805,-0.00019479511571992116,-0.04080362899822664,0.0,0.0,0.0,0.0,0.0,0.0,0.0,0.0,0.0,-0.01146981976202107,0.00789022647134323,-0.0013915990392636484,0.0,0.0,0.0,0.0,0.0,0.0,0.0,0.0,0.0
7.566,216,7,566000000,base_footprint,-0.003574827575364721,0.0014710200560497384,0.9238038942042909,0.3828464728331559,0.0,0.0,0.0,0.0,0.0,0.0,0.0,0.0,0.0,-0.004228408357855972,-0.00026768099995534375,-0.06115939050459786,0.0,0.0,0.0,0.0,0.0,0.0,0.0,0.0,0.0,-0.008097051872694706,-0.02780556661371996,0.006965951694743729,0.0,0.0,0.0,0.0,0.0,0.0,0.0,0.0,0.0
7.6,217,7,600000000,base_footprint,-0.0035654968656874415,0.0014718570746798452,0.9232362760481371,0.38421335148276753,0.0,0.0,0.0,0.0,0.0,0.0,0.0,0.0,0.0,-2.485552830883489e-06,-0.002928724886465622,-0.09488036978909287,0.0,0.0,0.0,0.0,0.0,0.0,0.0,0.0,0.0,-0.011326069631049849,-0.004935606757278121,-0.006397411644254783,0.0,0.0,0.0,0.0,0.0,0.0,0.0,0.0,0.0
7.634,218,7,634000000,base_footprint,-0.0035645178032561687,0.0014767560892934408,0.9227747534552284,0.3853204741379902,0.0,0.0,0.0,0.0,0.0,0.0,0.0,0.0,0.0,0.00012429220117647605,-5.202008573040187e-05,-0.04949770611197232,0.0,0.0,0.0,0.0,0.0,0.0,0.0,0.0,0.0,-0.020025393772385356,-0.04129332637386582,-0.0005939823969241717,0.0,0.0,0.0,0.0,0.0,0.0,0.0,0.0,0.0
7.668,219,7,668000000,base_footprint,-0.00356811144447297,0.0014903216543846855,0.9225519480880765,0.38585353516714294,0.0,0.0,0.0,0.0,0.0,0.0,0.0,0.0,0.0,0.0007608688600319513,-0.000251140974831603,-0.034177803992885634,0.0,0.0,0.0,0.0,0.0,0.0,0.0,0.0,0.0,-0.012758071034223599,-0.18762186526468116,0.0007972732944990383,0.0,0.0,0.0,0.0,0.0,0.0,0.0,0.0,0.0
7.702,220,7,702000000,base_footprint,-0.003573636126668063,0.001488770890922812,0.9222238746435821,0.3866369585586034,0.0,0.0,0.0,0.0,0.0,0.0,0.0,0.0,0.0,0.00014025091779390153,-9.070264796878788e-05,-0.051308772397824026,0.0,0.0,0.0,0.0,0.0,0.0,0.0,0.0,0.0,-0.011692977952648582,-0.04757540891515486,0.0009574649555530555,0.0,0.0,0.0,0.0,0.0,0.0,0.0,0.0,0.0
7.736,221,7,736000000,base_footprint,-0.0035693644878778672,0.0014895914779657668,0.9218795546280494,0.38745725895015976,0.0,0.0,0.0,0.0,0.0,0.0,0.0,0.0,0.0,-0.00017060086967201496,-0.0003888320433310172,-0.05243782908659511,0.0,0.0,0.0,0.0,0.0,0.0,0.0,0.0,0.0,-0.010359640346254164,-0.0068846665053273704,0.0006850684634058474,0.0,0.0,0.0,0.0,0.0,0.0,0.0,0.0,0.0
7.77,222,7,770000000,base_footprint,-0.0035642009179413796,0.0014929083409741311,0.921476478319056,0.38841494255655584,0.0,0.0,0.0,0.0,0.0,0.0,0.0,0.0,0.0,-4.7616949133136695e-05,-0.0005400865130017426,-0.07523363472486669,0.0,0.0,0.0,0.0,0.0,0.0,0.0,0.0,0.0,-0.012835051158798197,-0.01174718325495952,-5.250260014556408e-05,0.0,0.0,0.0,0.0,0.0,0.0,0.0,0.0,0.0
7.804,223,7,804000000,base_footprint,-0.0035599212557913995,0.0014974915708275886,0.920979355757927,0.3895922365080719,0.0,0.0,0.0,0.0,0.0,0.0,0.0,0.0,0.0,0.00015726950552608107,-0.0004849838287932423,-0.07538011742754654,0.0,0.0,0.0,0.0,0.0,0.0,0.0,0.0,0.0,-0.017337048539171056,-0.004414764591322235,-0.0004076035652235466,0.0,0.0,0.0,0.0,0.0,0.0,0.0,0.0,0.0
7.838,224,7,838000000,base_footprint,-0.0035577020770837958,0.0015023569489103588,0.9204774219231653,0.3907766643611308,0.0,0.0,0.0,0.0,0.0,0.0,0.0,0.0,0.0,0.0002398889426813128,-0.0004718797039958189,-0.07591792520325019,0.0,0.0,0.0,0.0,0.0,0.0,0.0,0.0,0.0,-0.0169518230266697,-0.005215043269727329,-0.0002285061143414715,0.0,0.0,0.0,0.0,0.0,0.0,0.0,0.0,0.0
7.872,225,7,872000000,base_footprint,-0.003557870396887398,0.0015055819358194406,0.9201743203153319,0.3914898402430012,0.0,0.0,0.0,0.0,0.0,0.0,0.0,0.0,0.0,-0.00023833229980729136,-0.00012925348946334298,-0.0012168712441358513,0.0,0.0,0.0,0.0,0.0,0.0,0.0,0.0,0.0,-0.012729086476234455,0.015030763005681902,3.872972430362273e-05,0.0,0.0,0.0,0.0,0.0,0.0,0.0,0.0,0.0
7.906,226,7,906000000,base_footprint,-0.0035603668144653503,0.0015068211799222349,0.9201598249876549,0.39152388146416606,0.0,0.0,0.0,0.0,0.0,0.0,0.0,0.0,0.0,4.045213517922904e-05,-4.5350031140413264e-05,-0.002473958068470813,0.0,0.0,0.0,0.0,0.0,0.0,0.0,0.0,0.0,0.0014060493151378528,-0.006177390612492658,-0.0005762196240538065,0.0,0.0,0.0,0.0,0.0,0.0,0.0,0.0,0.0
7.94,227,7,940000000,base_footprint,-0.0035653239492965533,0.0015087122962546922,0.9201416568509961,0.39156652510122386,0.0,0.0,0.0,0.0,0.0,0.0,0.0,0.0,0.0,0.0002320462050943577,4.2376196065949584e-05,-0.00289333995881753,0.0,0.0,0.0,0.0,0.0,0.0,0.0,0.0,0.0,-0.001007887818040551,-0.00446719242139393,-0.00046218444097048195,0.0,0.0,0.0,0.0,0.0,0.0,0.0,0.0,0.0
7.974,228,7,974000000,base_footprint,-0.0035646724198864443,0.0015023504766038351,0.9201348072756619,0.3915826509095685,0.0,0.0,0.0,0.0,0.0,0.0,0.0,0.0,0.0,0.0018330618966207292,0.0019926249697694836,-0.0035693500520531923,0.0,0.0,0.0,0.0,0.0,0.0,0.0,0.0,0.0,0.007585786208528789,0.282047867118621,-0.004881169733470399,0.0,0.0,0.0,0.0,0.0,0.0,0.0,0.0,0.0
8.008,229,8,8000000,base_footprint,-0.0035677925794026987,0.0015068279238378544,0.9199676016661088,0.3919752698964899,0.0,0.0,0.0,0.0,0.0,0.0,0.0,0.0,0.0,0.0006512068673725821,-0.000774196557513082,-0.008297618457177752,0.0,0.0,0.0,0.0,0.0,0.0,0.0,0.0,0.0,0.0009857897111204307,0.05757759151404263,0.002342784831430366,0.0,0.0,0.0,0.0,0.0,0.0,0.0,0.0,0.0
8.042,230,8,42000000,base_footprint,-0.003568476480046619,0.001511877967667187,0.919882308848927,0.3921753664719264,0.0,0.0,0.0,0.0,0.0,0.0,0.0,0.0,0.0,-0.00039185464525795776,3.7624668191620853e-05,-0.014265865686958378,0.0,0.0,0.0,0.0,0.0,0.0,0.0,0.0,0.0,-0.005910301351571603,0.01803988887366703,0.001719510472791873,0.0,0.0,0.0,0.0,0.0,0.0,0.0,0.0,0.0
8.076,231,8,76000000,base_footprint,-0.00355464683605764,0.0015096843162641193,0.9197370741729333,0.3925159865928374,0.0,0.0,0.0,0.0,0.0,0.0,0.0,0.0,0.0,-0.0009500692565377041,0.0005846954788217647,-0.025737154933125866,0.0,0.0,0.0,0.0,0.0,0.0,0.0,0.0,0.0,0.0027773029999820995,0.04018257317622742,0.0010439280262676536,0.0,0.0,0.0,0.0,0.0,0.0,0.0,0.0,0.0
8.11,232,8,110000000,base_footprint,-0.003537040538360662,0.001504006690602797,0.9196297956080904,0.3927674456188117,0.0,0.0,0.0,0.0,0.0,0.0,0.0,0.0,0.0,0.004216034522847271,0.00025399885542110316,-0.009355492083825879,0.0,0.0,0.0,0.0,0.0,0.0,0.0,0.0,0.0,-0.005759664866198071,-0.04247112634722732,-0.007395795679479388,0.0,0.0,0.0,0.0,0.0,0.0,0.0,0.0,0.0
8.144,233,8,144000000,base_footprint,-0.003549270790280042,0.0015186557902877773,0.9195894002270684,0.3928618476659049,0.0,0.0,0.0,0.0,0.0,0.0,0.0,0.0,0.0,0.0007912076097455089,-0.0010454859959447465,-0.011680716189384866,0.0,0.0,0.0,0.0,0.0,0.0,0.0,0.0,0.0,-0.013635932452628494,-0.2144728286751673,0.006066198816949302,0.0,0.0,0.0,0.0,0.0,0.0,0.0,0.0,0.0
8.178,234,8,178000000,base_footprint,-0.0035654471351580412,0.0015183297027896233,0.9193144698658037,0.3935046222816151,0.0,0.0,0.0,0.0,0.0,0.0,0.0,0.0,0.0,-0.0008770661008536225,-0.00025132931184043125,-0.05302882118592398,0.0,0.0,0.0,0.0,0.0,0.0,0.0,0.0,0.0,0.010643499103303838,0.3650095033925497,0.0004396329894169269,0.0,0.0,0.0,0.0,0.0,0.0,0.0,0.0,0.0
8.212,235,8,212000000,base_footprint,-0.0035426362288044754,0.0015135943699608244,0.9189622434176729,0.39432670963731525,0.0,0.0,0.0,0.0,0.0,0.0,0.0,0.0,0.0,0.0005134292085397024,0.0004915166637596096,-0.05314225833980733,0.0,0.0,0.0,0.0,0.0,0.0,0.0,0.0,0.0,-0.016215228343057254,-0.09605162333545945,-0.0024189922924641883,0.0,0.0,0.0,0.0,0.0,0.0,0.0,0.0,0.0
8.246,236,8,246000000,base_footprint,-0.0035524071347239183,0.0015200973304153745,0.9185814567951142,0.3952128248675911,0.0,0.0,0.0,0.0,0.0,0.0,0.0,0.0,0.0,-6.873388049038589e-05,-0.0003840529973515931,-0.057054138195008104,0.0,0.0,0.0,0.0,0.0,0.0,0.0,0.0,0.0,-0.014322337015332526,-0.05377914517436074,0.002201617465345827,0.0,0.0,0.0,0.0,0.0,0.0,0.0,0.0,0.0
8.28,237,8,280000000,base_footprint,-0.0035477745740263348,0.0015236855886470585,0.9180911052516761,0.39635062020331796,0.0,0.0,0.0,0.0,0.0,0.0,0.0,0.0,0.0,0.0028140492622925448,-0.00038122194799417367,-0.11354633656625623,0.0,0.0,0.0,0.0,0.0,0.0,0.0,0.0,0.0,-0.03367188302267435,-0.35744480980386895,-0.0013979240105751211,0.0,0.0,0.0,0.0,0.0,0.0,0.0,0.0,0.0
8.314,238,8,314000000,base_footprint,-0.003545445226166244,0.0015311484551520614,0.9173156900664415,0.39814194725058155,0.0,0.0,0.0,0.0,0.0,0.0,0.0,0.0,0.0,0.00041779218788686,-0.0006759125144502942,-0.11505396290880088,0.0,0.0,0.0,0.0,0.0,0.0,0.0,0.0,0.0,-0.027975306676219752,-0.006749927333546976,0.002770174177408516,0.0,0.0,0.0,0.0,0.0,0.0,0.0,0.0,0.0
8.348,239,8,348000000,base_footprint,-0.0035435814057730316,0.001538299893937675,0.9165331465663406,0.3999400803988765,0.0,0.0,0.0,0.0,0.0,0.0,0.0,0.0,0.0,0.0005121145341997779,-0.000663578631685044,-0.1156345157196811,0.0,0.0,0.0,0.0,0.0,0.0,0.0,0.0,0.0,-0.02600456430864901,-0.0038398311230878803,-0.00030482782507579114,0.0,0.0,0.0,0.0,0.0,0.0,0.0,0.0,0.0
8.382,240,8,382000000,base_footprint,-0.0035442839720778037,0.0015425279589996593,0.9160976878961282,0.4009365097992313,0.0,0.0,0.0,0.0,0.0,0.0,0.0,0.0,0.0,0.0002340394451758885,-0.00023492267397114087,-0.042480475365611545,0.0,0.0,0.0,0.0,0.0,0.0,0.0,0.0,0.0,-0.013825272604764169,0.014991533845142627,-0.0003836754444278247,0.0,0.0,0.0,0.0,0.0,0.0,0.0,0.0,0.0
8.416,241,8,416000000,base_footprint,-0.0035481186413568754,0.001546283047260933,0.9158061722761179,0.4016018858070889,0.0,0.0,0.0,0.0,0.0,0.0,0.0,0.0,0.0,0.00039769898454440774,-0.00019421096443679182,-0.04281861251957611,0.0,0.0,0.0,0.0,0.0,0.0,0.0,0.0,0.0,-0.010186963457045721,-0.0038566016991773053,-0.00046924949600315286,0.0,0.0,0.0,0.0,0.0,0.0,0.0,0.0,0.0
8.45,242,8,450000000,base_footprint,-0.0035505883816785697,0.0015508800725778506,0.915514042082573,0.40226735741639935,0.0,0.0,0.0,0.0,0.0,0.0,0.0,0.0,0.0,0.00027080428440406446,-0.0002468187423818992,-0.04264431510820516,0.0,0.0,0.0,0.0,0.0,0.0,0.0,0.0,0.0,-0.010432678116425937,-0.0011163359274542336,5.252970654559756e-05,0.0,0.0,0.0,0.0,0.0,0.0,0.0,0.0,0.0
8.484,243,8,484000000,base_footprint,-0.003545938524465306,0.0015583330399946134,0.915247725205922,0.40287293210577235,0.0,0.0,0.0,0.0,0.0,0.0,0.0,0.0,0.0,0.0013174882486108948,0.0013607932595302448,-0.015081777286725473,0.0,0.0,0.0,0.0,0.0,0.0,0.0,0.0,0.0,0.019063398064950193,0.32080611181001495,-0.004320768921669492,0.0,0.0,0.0,0.0,0.0,0.0,0.0,0.0,0.0
8.518,244,8,518000000,base_footprint,-0.0035493632336139813,0.0015542591661835364,0.9152382066698576,0.40289454122738305,0.0,0.0,0.0,0.0,0.0,0.0,0.0,0.0,0.0,-0.00028940361451953886,2.6888943214568994e-05,-0.003162660782196773,0.0,0.0,0.0,0.0,0.0,0.0,0.0,0.0,0.0,0.001871893172188421,0.04295111982308425,0.0030644173998806735,0.0,0.0,0.0,0.0,0.0,0.0,0.0,0.0,0.0
8.552,245,8,552000000,base_footprint,-0.0035434471619617725,0.0015516521925979666,0.9152263984211249,0.40292142657195607,0.0,0.0,0.0,0.0,0.0,0.0,0.0,0.0,0.0,-0.0007091757182782393,3.6957874306255438e-06,9.955590882339023e-05,0.0,0.0,0.0,0.0,0.0,0.0,0.0,0.0,0.0,0.0006565324189508372,0.03612336919031236,0.0005822392269160542,0.0,0.0,0.0,0.0,0.0,0.0,0.0,0.0,0.0
8.586,246,8,586000000,base_footprint,-0.003526240005077748,0.001549087778200002,0.9151700283272795,0.4030496063885047,0.0,0.0,0.0,0.0,0.0,0.0,0.0,0.0,0.0,-0.0007781698355722536,0.0006596531846445544,-0.0173468045901711,0.0,0.0,0.0,0.0,0.0,0.0,0.0,0.0,0.0,0.008710243140155477,-0.00905572870028713,0.0004095041285157497,0.0,0.0,0.0,0.0,0.0,0.0,0.0,0.0,0.0
8.62,247,8,620000000,base_footprint,-0.003528534051134039,0.0015499564839568216,0.9149772951219128,0.40348692233297456,0.0,0.0,0.0,0.0,0.0,0.0,0.0,0.0,0.0,0.00041106090342084517,-0.0007678574925385169,-0.03933774221687643,0.0,0.0,0.0,0.0,0.0,0.0,0.0,0.0,0.0,-0.02856512966643275,-0.1889736402935052,-0.0014317723069932377,0.0,0.0,0.0,0.0,0.0,0.0,0.0,0.0,0.0
8.654,248,8,654000000,base_footprint,-0.0035451214288484204,0.0015595852272333541,0.9145578984931548,0.40443645991893246,0.0,0.0,0.0,0.0,0.0,0.0,0.0,0.0,0.0,9.537573072799767e-05,-0.00021904950294495204,-0.0743870765047096,0.0,0.0,0.0,0.0,0.0,0.0,0.0,0.0,0.0,-0.02771419804922634,-0.17082052568993866,0.0019634851257817575,0.0,0.0,0.0,0.0,0.0,0.0,0.0,0.0,0.0
8.688,249,8,688000000,base_footprint,-0.0035403563190395337,0.0015583590436307158,0.9144300646160433,0.4047254554886861,0.0,0.0,0.0,0.0,0.0,0.0,0.0,0.0,0.0,-0.00024145586732005314,-7.471406239848861e-05,-0.010676308141010067,0.0,0.0,0.0,0.0,0.0,0.0,0.0,0.0,0.0,-0.0044931597598470195,0.014492887745916155,0.0003435550308531241,0.0,0.0,0.0,0.0,0.0,0.0,0.0,0.0,0.0
8.722,250,8,722000000,base_footprint,-0.0035359713744946633,0.0015576154176573727,0.9143546626050786,0.404895815874902,0.0,0.0,0.0,0.0,0.0,0.0,0.0,0.0,0.0,-0.00029815566737919974,-9.337660989771379e-05,-0.011202682868786415,0.0,0.0,0.0,0.0,0.0,0.0,0.0,0.0,0.0,-0.00302888099887104,-0.0051881324181693176,6.308464127720872e-05,0.0,0.0,0.0,0.0,0.0,0.0,0.0,0.0,0.0
8.756,251,8,756000000,base_footprint,-0.0035337415057347544,0.0015576005660251798,0.9142759177145616,0.4050736140982817,0.0,0.0,0.0,0.0,0.0,0.0,0.0,0.0,0.0,-0.00019891451759961395,-8.944972456327264e-05,-0.011681723830876565,0.0,0.0,0.0,0.0,0.0,0.0,0.0,0.0,0.0,-0.003071960767288796,-0.005514288003064597,-0.00016668552711873537,0.0,0.0,0.0,0.0,0.0,0.0,0.0,0.0,0.0
8.79,252,8,790000000,base_footprint,-0.003532986234293224,0.0015585293674046463,0.9141413274421528,0.4053772594223537,0.0,0.0,0.0,0.0,0.0,0.0,0.0,0.0,0.0,-7.864461571236724e-05,-0.0001268615759491128,-0.019970832521433755,0.0,0.0,0.0,0.0,0.0,0.0,0.0,0.0,0.0,-0.005041510066192653,-0.00740326987575526,-0.0001415293801051422,0.0,0.0,0.0,0.0,0.0,0.0,0.0,0.0,0.0
8.824,253,8,824000000,base_footprint,-0.0035337068189288884,0.001559836872785316,0.9140020709174332,0.4056911315073224,0.0,0.0,0.0,0.0,0.0,0.0,0.0,0.0,0.0,1.2974575067729574e-05,-0.00011689427217341497,-0.020432022426498407,0.0,0.0,0.0,0.0,0.0,0.0,0.0,0.0,0.0,-0.0050855497874560075,-0.005250184411927289,-0.00018358612729513587,0.0,0.0,0.0,0.0,0.0,0.0,0.0,0.0,0.0
8.858,254,8,858000000,base_footprint,-0.0035367243480278563,0.0015598106817101124,0.913851894602166,0.4060292764118803,0.0,0.0,0.0,0.0,0.0,0.0,0.0,0.0,0.0,9.888268015491612e-05,0.001537076898779312,-0.045131848161492336,0.0,0.0,0.0,0.0,0.0,0.0,0.0,0.0,0.0,-0.00836964172085046,-0.007031078122271094,8.226924659088513e-05,0.0,0.0,0.0,0.0,0.0,0.0,0.0,0.0,0.0
8.892,255,8,892000000,base_footprint,-0.0035394157107885705,0.001566499945633342,0.913416963890791,0.4070067182380113,0.0,0.0,0.0,0.0,0.0,0.0,0.0,0.0,0.0,0.00044178619234646824,-0.00032218013140042866,-0.06305903191863341,0.0,0.0,0.0,0.0,0.0,0.0,0.0,0.0,0.0,-0.012515716265748262,-0.01197118456594011,-0.0006337130206241082,0.0,0.0,0.0,0.0,0.0,0.0,0.0,0.0,0.0
8.926,256,8,926000000,base_footprint,-0.0035413751367902022,0.0015723508196529641,0.9129814790447026,0.4079826041590352,0.0,0.0,0.0,0.0,0.0,0.0,0.0,0.0,0.0,0.0003765440898768713,-0.00036110374919408236,-0.06257289588490328,0.0,0.0,0.0,0.0,0.0,0.0,0.0,0.0,0.0,-0.014625755411675687,-0.00013825909121619167,-8.778979596858031e-05,0.0,0.0,0.0,0.0,0.0,0.0,0.0,0.0,0.0
8.96,257,8,960000000,base_footprint,-0.0035378169121319815,0.001575833943447309,0.9125493732413613,0.40894821432019696,0.0,0.0,0.0,0.0,0.0,0.0,0.0,0.0,0.0,-0.006938471092073559,-0.00014654249508314326,-0.06510428095162964,0.0,0.0,0.0,0.0,0.0,0.0,0.0,0.0,0.0,-0.004141152601741187,0.043006734666643676,0.012941858651881681,0.0,0.0,0.0,0.0,0.0,0.0,0.0,0.0,0.0
8.994,258,8,994000000,base_footprint,-0.003527960686224714,0.001578883557988435,0.911988266899069,0.4101980761273015,0.0,0.0,0.0,0.0,0.0,0.0,0.0,0.0,0.0,0.009781822217053912,-0.0002867657883257068,-0.08457211358898355,0.0,0.0,0.0,0.0,0.0,0.0,0.0,0.0,0.0,0.009237010718338143,0.3083361709941656,-0.027572519353591642,0.0,0.0,0.0,0.0,0.0,0.0,0.0,0.0,0.0
9.028,259,9,28000000,base_footprint,-0.0035388251246237855,0.001587105029743298,0.9115526459601718,0.41116509027077136,0.0,0.0,0.0,0.0,0.0,0.0,0.0,0.0,0.0,-0.00037176206064185486,-0.0005393488483855156,-0.05907996276235606,0.0,0.0,0.0,0.0,0.0,0.0,0.0,0.0,0.0,-0.00937663465221765,0.04476801949132763,0.013690102141921208,0.0,0.0,0.0,0.0,0.0,0.0,0.0,0.0,0.0
9.062,260,9,62000000,base_footprint,-0.003529159421136083,0.0015817556183299682,0.9110151070960443,0.412354844431016,0.0,0.0,0.0,0.0,0.0,0.0,0.0,0.0,0.0,-0.0042664040517640155,0.0038720999532793655,-0.09622707586877415,0.0,0.0,0.0,0.0,0.0,0.0,0.0,0.0,0.0,-0.0032239310920960267,-0.004412010912523614,0.00604290698194473,0.0,0.0,0.0,0.0,0.0,0.0,0.0,0.0,0.0
9.096,261,9,96000000,base_footprint,-0.0035250513253316197,0.0015822251513797955,0.9103821388684361,0.41375044629106517,0.0,0.0,0.0,0.0,0.0,0.0,0.0,0.0,0.0,-5.1634645409799315e-05,-0.0004352335826809737,-0.07044851185796316,0.0,0.0,0.0,0.0,0.0,0.0,0.0,0.0,0.0,-0.0340702510193175,-0.062254322070507746,-0.006092351385343427,0.0,0.0,0.0,0.0,0.0,0.0,0.0,0.0,0.0
9.13,262,9,130000000,base_footprint,-0.0035208238284384257,0.00158415919259076,0.9101211989477048,0.4143241454045541,0.0,0.0,0.0,0.0,0.0,0.0,0.0,0.0,0.0,-9.689910083925021e-05,0.00020746975449901015,0.001206350804616948,0.0,0.0,0.0,0.0,0.0,0.0,0.0,0.0,0.0,-0.02967750496802861,-0.1578856713769415,6.94421351076249e-05,0.0,0.0,0.0,0.0,0.0,0.0,0.0,0.0,0.0
9.164,263,9,164000000,base_footprint,-0.003519329216676603,0.0015878984842083526,0.9102881211524521,0.4139572796666433,0.0,0.0,0.0,0.0,0.0,0.0,0.0,0.0,0.0,-0.0011808719526004727,0.004167859105821229,-0.036763999789028896,0.0,0.0,0.0,0.0,0.0,0.0,0.0,0.0,0.0,-0.009051452945715022,-0.10376800457357112,0.0010234499684847998,0.0,0.0,0.0,0.0,0.0,0.0,0.0,0.0,0.0
9.198,264,9,198000000,base_footprint,-0.0035212326849571787,0.0015918529771675053,0.9100233457903372,0.4145389933902939,0.0,0.0,0.0,0.0,0.0,0.0,0.0,0.0,0.0,-8.874115414640827e-05,-0.0001149676512204799,-0.03720142419860819,0.0,0.0,0.0,0.0,0.0,0.0,0.0,0.0,0.0,-0.009924495364848709,-0.02049175154864523,7.2886276504344814e-06,0.0,0.0,0.0,0.0,0.0,0.0,0.0,0.0,0.0
9.232,265,9,232000000,base_footprint,-0.0035185120669389905,0.001593117147404938,0.9097606461593191,0.415115223462556,0.0,0.0,0.0,0.0,0.0,0.0,0.0,0.0,0.0,-6.748191360757009e-05,-0.00018846209247010216,-0.03734596393804216,0.0,0.0,0.0,0.0,0.0,0.0,0.0,0.0,0.0,-0.008947783618286832,-0.004393895748546092,8.593623893748659e-06,0.0,0.0,0.0,0.0,0.0,0.0,0.0,0.0,0.0
9.266,266,9,266000000,base_footprint,-0.003521937767037573,0.0015991010413154802,0.9094954643922085,0.41569584924584685,0.0,0.0,0.0,0.0,0.0,0.0,0.0,0.0,0.0,-0.004306538717247051,0.000441471911420289,-0.038505675202684025,0.0,0.0,0.0,0.0,0.0,0.0,0.0,0.0,0.0,0.032405844292554345,0.2786591564655475,-0.0014394053931963062,0.0,0.0,0.0,0.0,0.0,0.0,0.0,0.0,0.0
9.3,267,9,300000000,base_footprint,-0.0035119934250759256,0.0015972633699356219,0.9090456469173618,0.4166786849270125,0.0,0.0,0.0,0.0,0.0,0.0,0.0,0.0,0.0,0.001057144290733325,-0.0005218210952651895,-0.07918913844865774,0.0,0.0,0.0,0.0,0.0,0.0,0.0,0.0,0.0,0.011956161154331256,0.1763801718050819,-0.002042049027163484,0.0,0.0,0.0,0.0,0.0,0.0,0.0,0.0,0.0
9.334,268,9,334000000,base_footprint,-0.0035167952918842317,0.001602902883370249,0.9086827189124956,0.41746949493707447,0.0,0.0,0.0,0.0,0.0,0.0,0.0,0.0,0.0,0.00019181633102089752,-0.00027071649251189374,-0.046645619873093784,0.0,0.0,0.0,0.0,0.0,0.0,0.0,0.0,0.0,-0.03035885442468096,-0.13116898963531773,0.0012422887267391238,0.0,0.0,0.0,0.0,0.0,0.0,0.0,0.0,0.0
9.368,269,9,368000000,base_footprint,-0.003513114402811169,0.001604408956859433,0.9083563243124145,0.4181792342772791,0.0,0.0,0.0,0.0,0.0,0.0,0.0,0.0,0.0,0.0001716572988130214,0.00014230738879723932,-0.04361010922902524,0.0,0.0,0.0,0.0,0.0,0.0,0.0,0.0,0.0,-0.04484111633721278,-0.22091032763472468,0.0022112859494301702,0.0,0.0,0.0,0.0,0.0,0.0,0.0,0.0,0.0
9.402,270,9,402000000,base_footprint,-0.0035223427152599076,0.0016133103445767278,0.9077911086224297,0.4194046893366697,0.0,0.0,0.0,0.0,0.0,0.0,0.0,0.0,0.0,0.00046906025479078665,-0.0005017356980626584,-0.08543954110778619,0.0,0.0,0.0,0.0,0.0,0.0,0.0,0.0,0.0,-0.038236399614003484,-0.12820267390241433,-0.0010152098441328712,0.0,0.0,0.0,0.0,0.0,0.0,0.0,0.0,0.0
9.436,271,9,436000000,base_footprint,-0.0035218138551703594,0.0016199884679475524,0.9071865754269219,0.42071069611991907,0.0,0.0,0.0,0.0,0.0,0.0,0.0,0.0,0.0,0.0004275922881347855,-0.000557932958258518,-0.08378589698261057,0.0,0.0,0.0,0.0,0.0,0.0,0.0,0.0,0.0,-0.017858994044169164,0.006571560105526672,-5.153249272770848e-05,0.0,0.0,0.0,0.0,0.0,0.0,0.0,0.0,0.0
9.47,272,9,470000000,base_footprint,-0.0034997314777262764,0.001620265537304827,0.9065563646373236,0.4220671562141889,0.0,0.0,0.0,0.0,0.0,0.0,0.0,0.0,0.0,0.0012849989983930283,-0.0010648554948779053,-0.10507785845821321,0.0,0.0,0.0,0.0,0.0,0.0,0.0,0.0,0.0,0.005183725980694262,0.12895944281842175,-0.00019102593483486072,0.0,0.0,0.0,0.0,0.0,0.0,0.0,0.0,0.0
9.504,273,9,504000000,base_footprint,-0.003512765333336912,0.0016291320505066207,0.9056672438507817,0.4239715200626143,0.0,0.0,0.0,0.0,0.0,0.0,0.0,0.0,0.0,0.0002242945528414732,3.4725796281121326e-05,-0.11412572895388451,0.0,0.0,0.0,0.0,0.0,0.0,0.0,0.0,0.0,-0.006663516607532276,0.13240609272639953,-0.0006624868594418819,0.0,0.0,0.0,0.0,0.0,0.0,0.0,0.0,0.0
9.538,274,9,538000000,base_footprint,-0.0035048085853772192,0.0016394691920478869,0.9050543733711064,0.4252782732510351,0.0,0.0,0.0,0.0,0.0,0.0,0.0,0.0,0.0,0.0010746893767753782,0.0001481293216189937,-0.061792893087808234,0.0,0.0,0.0,0.0,0.0,0.0,0.0,0.0,0.0,0.016729118549448516,0.13404752992628863,-0.0029160998946553586,0.0,0.0,0.0,0.0,0.0,0.0,0.0,0.0,0.0
9.572,275,9,572000000,base_footprint,-0.0034864677545775585,0.0016344837109273768,0.9043907181550612,0.42668794442844027,0.0,0.0,0.0,0.0,0.0,0.0,0.0,0.0,0.0,0.001170300248727935,0.001706858493056771,-0.11991572101027267,0.0,0.0,0.0,0.0,0.0,0.0,0.0,0.0,0.0,-0.03914447026814955,-0.06800477737600859,-0.0033429612222083335,0.0,0.0,0.0,0.0,0.0,0.0,0.0,0.0,0.0
9.606,276,9,606000000,base_footprint,-0.003498205442053079,0.0016392894088307786,0.9034868565289831,0.4285983847009881,0.0,0.0,0.0,0.0,0.0,0.0,0.0,0.0,0.0,0.0002232502258836603,-0.0006417280658076352,-0.10154209386765113,0.0,0.0,0.0,0.0,0.0,0.0,0.0,0.0,0.0,-0.0579107479596805,-0.15240847585515482,0.0064513465595960676,0.0,0.0,0.0,0.0,0.0,0.0,0.0,0.0,0.0
9.64,277,9,640000000,base_footprint,-0.00349763653437294,0.0016523708042585163,0.9030045556267897,0.4296135574288394,0.0,0.0,0.0,0.0,0.0,0.0,0.0,0.0,0.0,-0.0009062184205303609,-0.0003117715563356959,-0.049762230050066115,0.0,0.0,0.0,0.0,0.0,0.0,0.0,0.0,0.0,-0.03717783048234769,-0.10987583964883457,0.0016204107925148086,0.0,0.0,0.0,0.0,0.0,0.0,0.0,0.0,0.0
9.674,278,9,674000000,base_footprint,-0.003493143639517497,0.0016546693559078235,0.9026862893766437,0.4302819110632732,0.0,0.0,0.0,0.0,0.0,0.0,0.0,0.0,0.0,-0.0002520441981882699,-0.00019201688193033083,-0.03802466788677472,0.0,0.0,0.0,0.0,0.0,0.0,0.0,0.0,0.0,-0.011446075961310531,-0.000482940549536362,-0.000893336936729495,0.0,0.0,0.0,0.0,0.0,0.0,0.0,0.0,0.0
9.708,279,9,708000000,base_footprint,-0.0034898686134855676,0.0016555816133103692,0.9024067078377812,0.4308679768977496,0.0,0.0,0.0,0.0,0.0,0.0,0.0,0.0,0.0,-0.00010380928438431652,-0.00019908028128440205,-0.03836755011614746,0.0,0.0,0.0,0.0,0.0,0.0,0.0,0.0,0.0,-0.00948530206194527,-0.0038514585031648976,-0.000214983254838094,0.0,0.0,0.0,0.0,0.0,0.0,0.0,0.0,0.0
9.742,280,9,742000000,base_footprint,-0.0034881100658617865,0.0016570393494801028,0.9021247170304896,0.4314580886151306,0.0,0.0,0.0,0.0,0.0,0.0,0.0,0.0,0.0,-1.593222963321792e-05,-0.0002087328318425156,-0.03864134098108258,0.0,0.0,0.0,0.0,0.0,0.0,0.0,0.0,0.0,-0.009540765865707115,-0.0038347145614506545,-0.00019411926937085893,0.0,0.0,0.0,0.0,0.0,0.0,0.0,0.0,0.0
9.776,281,9,776000000,base_footprint,-0.0034876322601413885,0.0016599828325197467,0.9017341192479313,0.4322738241697865,0.0,0.0,0.0,0.0,0.0,0.0,0.0,0.0,0.0,0.0001235205035085828,-0.0003304627725791632,-0.0646914238583595,0.0,0.0,0.0,0.0,0.0,0.0,0.0,0.0,0.0,-0.013728012446811655,-0.01009454418660287,-0.00015450055274036017,0.0,0.0,0.0,0.0,0.0,0.0,0.0,0.0,0.0
9.81,282,9,810000000,base_footprint,-0.003488287294863204,0.0016639286439372406,0.9012582644776826,0.433265050406667,0.0,0.0,0.0,0.0,0.0,0.0,0.0,0.0,0.0,0.0003020279246332971,-0.0003523757011601752,-0.0648219813805909,0.0,0.0,0.0,0.0,0.0,0.0,0.0,0.0,0.0,-0.01548355532025468,-0.0018111225009865258,-0.00031861145581555983,0.0,0.0,0.0,0.0,0.0,0.0,0.0,0.0,0.0
9.844,283,9,844000000,base_footprint,-0.0034909546193401656,0.0016682784132042614,0.9007801058617766,0.4342582537691463,0.0,0.0,0.0,0.0,0.0,0.0,0.0,0.0,0.0,0.00044281847886339413,-0.0003263273316071804,-0.06487020722532219,0.0,0.0,0.0,0.0,0.0,0.0,0.0,0.0,0.0,-0.015234030285481339,-0.0014327158791881877,-0.00038465400798468573,0.0,0.0,0.0,0.0,0.0,0.0,0.0,0.0,0.0
9.878,284,9,878000000,base_footprint,-0.003492773813642574,0.001670427134013382,0.9007156659366023,0.434391873014056,0.0,0.0,0.0,0.0,0.0,0.0,0.0,0.0,0.0,-0.000978809849798647,0.00031912338315720685,0.04023415088566058,0.0,0.0,0.0,0.0,0.0,0.0,0.0,0.0,0.0,0.0006238173696631738,0.023957284305569513,0.0009288281470820239,0.0,0.0,0.0,0.0,0.0,0.0,0.0,0.0,0.0
9.912,285,9,912000000,base_footprint,-0.0034966084120817485,0.001668924660838487,0.9010186839226301,0.4337629763389457,0.0,0.0,0.0,0.0,0.0,0.0,0.0,0.0,0.0,-0.00015803375345192896,0.0002879646577132109,0.04234228921791421,0.0,0.0,0.0,0.0,0.0,0.0,0.0,0.0,0.0,0.007999112058190242,-0.0018245667323153207,-0.001108245772978983,0.0,0.0,0.0,0.0,0.0,0.0,0.0,0.0,0.0
9.946,286,9,946000000,base_footprint,-0.003498608789657923,0.001667684085357239,0.9013409785245401,0.43309285262949443,0.0,0.0,0.0,0.0,0.0,0.0,0.0,0.0,0.0,-0.0005262579482253732,0.00012271463256570409,0.04520988764153725,0.0,0.0,0.0,0.0,0.0,0.0,0.0,0.0,0.0,0.009657009113327458,0.004553201549696623,0.0007283614386695172,0.0,0.0,0.0,0.0,0.0,0.0,0.0,0.0,0.0
9.98,287,9,980000000,base_footprint,-0.0034867488083256634,0.0016578594458269405,0.901543887171973,0.43267044455064696,0.0,0.0,0.0,0.0,0.0,0.0,0.0,0.0,0.0,-0.002099183351743558,-0.0002774079251060259,0.0026031968741413343,0.0,0.0,0.0,0.0,0.0,0.0,0.0,0.0,0.0,0.04122222596258855,0.13348995527963184,0.0024280208431680197,0.0,0.0,0.0,0.0,0.0,0.0,0.0,0.0,0.0
10.014,288,10,14000000,base_footprint,-0.0034930884391309223,0.001674484928511807,0.9016637695435711,0.43242044485183456,0.0,0.0,0.0,0.0,0.0,0.0,0.0,0.0,0.0,-0.0009043261644422069,-0.00041352137237634143,0.04686679198868948,0.0,0.0,0.0,0.0,0.0,0.0,0.0,0.0,0.0,0.0552066636249654,0.20388350586047366,-0.003684387925910059,0.0,0.0,0.0,0.0,0.0,0.0,0.0,0.0,0.0
10.048,289,10,48000000,base_footprint,-0.0034966936075354273,0.0016676253883777129,0.9019436235506189,0.43183641821384017,0.0,0.0,0.0,0.0,0.0,0.0,0.0,0.0,0.0,-0.00036941792649889044,-3.0712309133055864e-05,0.03107075026341006,0.0,0.0,0.0,0.0,0.0,0.0,0.0,0.0,0.0,0.009205963323859204,0.029391672994100504,-0.0007322240074145945,0.0,0.0,0.0,0.0,0.0,0.0,0.0,0.0,0.0
10.082,290,10,82000000,base_footprint,-0.0034798805351142392,0.001657596813583197,0.9020244715115606,0.4316676911682817,0.0,0.0,0.0,0.0,0.0,0.0,0.0,0.0,0.0,0.00011198313225031916,-0.0010910828587896379,-0.02263893384984441,0.0,0.0,0.0,0.0,0.0,0.0,0.0,0.0,0.0,-0.04984152907553393,-0.23543504794317743,0.00021876162496925337,0.0,0.0,0.0,0.0,0.0,0.0,0.0,0.0,0.0
10.116,291,10,116000000,base_footprint,-0.0034922669512654175,0.001665749693984338,0.9017355580083342,0.43227076326406405,0.0,0.0,0.0,0.0,0.0,0.0,0.0,0.0,0.0,0.00014043524908190043,-0.00046311941970862333,-0.04078978132707014,0.0,0.0,0.0,0.0,0.0,0.0,0.0,0.0,0.0,-0.03706094439766875,-0.12582142317863224,0.0016349614993719113,0.0,0.0,0.0,0.0,0.0,0.0,0.0,0.0,0.0
10.15,292,10,150000000,base_footprint,-0.003487659951386197,0.001667333535606342,0.9014351814229632,0.4328968351927446,0.0,0.0,0.0,0.0,0.0,0.0,0.0,0.0,0.0,-0.00022239064580722198,-0.00018444626796199884,-0.04117612843450389,0.0,0.0,0.0,0.0,0.0,0.0,0.0,0.0,0.0,-0.009827097593524665,-0.004070190606407705,0.0006597305855656229,0.0,0.0,0.0,0.0,0.0,0.0,0.0,0.0,0.0
10.184,293,10,184000000,base_footprint,-0.003483665826933169,0.001669174685783192,0.900984304113317,0.43383448649192996,0.0,0.0,0.0,0.0,0.0,0.0,0.0,0.0,0.0,0.000103741438209713,-0.00038649023213443794,-0.06644174938731494,0.0,0.0,0.0,0.0,0.0,0.0,0.0,0.0,0.0,-0.015676743600340666,-0.00893009475988647,-0.00033245027845369134,0.0,0.0,0.0,0.0,0.0,0.0,0.0,0.0,0.0
10.218,294,10,218000000,base_footprint,-0.003481202893803048,0.0016720655711205412,0.9004922166606465,0.4348549794549139,0.0,0.0,0.0,0.0,0.0,0.0,0.0,0.0,0.0,0.0001221447050244451,-0.0003623027053371685,-0.06690193511793406,0.0,0.0,0.0,0.0,0.0,0.0,0.0,0.0,0.0,-0.015547720370247795,-0.002409898568100686,-0.00015252100177193083,0.0,0.0,0.0,0.0,0.0,0.0,0.0,0.0,0.0
10.252,295,10,252000000,base_footprint,-0.0034803072278442675,0.0016754558944424489,0.8999957249466117,0.4358816070757844,0.0,0.0,0.0,0.0,0.0,0.0,0.0,0.0,0.0,0.0002129357214392924,-0.000358920468360602,-0.06732697496325632,0.0,0.0,0.0,0.0,0.0,0.0,0.0,0.0,0.0,-0.01580864185455734,-0.0021344094652094086,-0.00024529956334874714,0.0,0.0,0.0,0.0,0.0,0.0,0.0,0.0,0.0
10.286,296,10,286000000,base_footprint,-0.0034800295754725506,0.0016835831042175517,0.8993984055664022,0.4371127577716057,0.0,0.0,0.0,0.0,0.0,0.0,0.0,0.0,0.0,0.00030954674143899576,-0.0006281419900360471,-0.0984020882615192,0.0,0.0,0.0,0.0,0.0,0.0,0.0,0.0,0.0,0.17264775843697017,0.7819005049816441,-0.003713737423532002,0.0,0.0,0.0,0.0,0.0,0.0,0.0,0.0,0.0
10.32,297,10,320000000,base_footprint,-0.003473725533952858,0.0016850415809991119,0.8987029851172439,0.43854080586319455,0.0,0.0,0.0,0.0,0.0,0.0,0.0,0.0,0.0,0.00025426506862784147,-0.0006367747372400896,-0.0791562270268754,0.0,0.0,0.0,0.0,0.0,0.0,0.0,0.0,0.0,-0.13109819134492914,-0.44969034962408994,0.0033540393513838604,0.0,0.0,0.0,0.0,0.0,0.0,0.0,0.0,0.0
10.354,298,10,354000000,base_footprint,-0.003482599207128066,0.0016916330671541903,0.8981261472511827,0.4397208586183691,0.0,0.0,0.0,0.0,0.0,0.0,0.0,0.0,0.0,0.00042903270154088873,-0.0004042791379940526,-0.07658285813350396,0.0,0.0,0.0,0.0,0.0,0.0,0.0,0.0,0.0,-0.018567811969996698,-0.001757852172687712,-0.0020140797756841126,0.0,0.0,0.0,0.0,0.0,0.0,0.0,0.0,0.0
10.388,299,10,388000000,base_footprint,-0.003475046021254523,0.0016969407259395505,0.8977223509741894,0.4405446912728573,0.0,0.0,0.0,0.0,0.0,0.0,0.0,0.0,0.0,0.0009070794769236677,-7.63264436276827e-05,-0.057566222107424375,0.0,0.0,0.0,0.0,0.0,0.0,0.0,0.0,0.0,-0.0971357433796946,-0.32979950737360764,0.0001263478183886696,0.0,0.0,0.0,0.0,0.0,0.0,0.0,0.0,0.0
10.422,300,10,422000000,base_footprint,-0.003482628708312676,0.001701149990896309,0.8973273683147343,0.44134858270911204,0.0,0.0,0.0,0.0,0.0,0.0,0.0,0.0,0.0,-0.00016245649546943155,-0.0003947372668088702,-0.04816469530787832,0.0,0.0,0.0,0.0,0.0,0.0,0.0,0.0,0.0,-0.007143448077298276,0.02675309813331349,0.0019390019331850458,0.0,0.0,0.0,0.0,0.0,0.0,0.0,0.0,0.0
10.456,301,10,456000000,base_footprint,-0.0034750707909568215,0.0017080982805518844,0.8970079950340661,0.4419973564719892,0.0,0.0,0.0,0.0,0.0,0.0,0.0,0.0,0.0,0.0001567036286820373,-0.00040512359587907657,-0.03229368043652059,0.0,0.0,0.0,0.0,0.0,0.0,0.0,0.0,0.0,0.005224211289762609,0.04796302132524648,-0.001085618638342935,0.0,0.0,0.0,0.0,0.0,0.0,0.0,0.0,0.0
10.49,302,10,490000000,base_footprint,-0.0034666358499460016,0.0017129794723916348,0.8964630229578551,0.44310167750356716,0.0,0.0,0.0,0.0,0.0,0.0,0.0,0.0,0.0,-0.00030434537059068306,0.0006687394075849621,-0.09734594410191191,0.0,0.0,0.0,0.0,0.0,0.0,0.0,0.0,0.0,-0.0008827777749417613,0.02966701683649714,0.0019188672899566714,0.0,0.0,0.0,0.0,0.0,0.0,0.0,0.0,0.0
10.524000000000001,303,10,524000000,base_footprint,-0.0034736519912889167,0.001710610341592697,0.8955172475262796,0.44500996273910426,0.0,0.0,0.0,0.0,0.0,0.0,0.0,0.0,0.0,0.0005024949676282666,-0.0015169698970834424,-0.14245667641398752,0.0,0.0,0.0,0.0,0.0,0.0,0.0,0.0,0.0,-0.03524272932769611,-0.0024785374704482978,-0.0021318192205776534,0.0,0.0,0.0,0.0,0.0,0.0,0.0,0.0,0.0
10.558,304,10,558000000,base_footprint,-0.0034658293338301173,0.00171882544636836,0.8944687369612864,0.44711375763332867,0.0,0.0,0.0,0.0,0.0,0.0,0.0,0.0,0.0,0.00032603982489197236,-0.0015892381776725366,-0.13081334754496834,0.0,0.0,0.0,0.0,0.0,0.0,0.0,0.0,0.0,-0.03758102699317622,-0.024441484895808364,8.636227640159154e-07,0.0,0.0,0.0,0.0,0.0,0.0,0.0,0.0,0.0
10.592,305,10,592000000,base_footprint,-0.0034608535855343366,0.0017320463058668122,0.893523945755127,0.4489988651101949,0.0,0.0,0.0,0.0,0.0,0.0,0.0,0.0,0.0,0.00014879039117124307,-0.0007517721549387957,-0.12297441846894117,0.0,0.0,0.0,0.0,0.0,0.0,0.0,0.0,0.0,-0.03557877186273068,-0.0207195262074419,0.0009002310709423178,0.0,0.0,0.0,0.0,0.0,0.0,0.0,0.0,0.0
10.626,306,10,626000000,base_footprint,-0.003454094019232562,0.00173724202212756,0.8925806621985095,0.4508711708392245,0.0,0.0,0.0,0.0,0.0,0.0,0.0,0.0,0.0,0.00026762794068766745,-0.0007851767927223514,-0.12365629361451788,0.0,0.0,0.0,0.0,0.0,0.0,0.0,0.0,0.0,-0.027175213033485853,0.0030178003045734404,-0.00038167604289567,0.0,0.0,0.0,0.0,0.0,0.0,0.0,0.0,0.0
10.66,307,10,660000000,base_footprint,-0.003451628662162708,0.0017399152336255992,0.8916621515733576,0.45268495270566383,0.0,0.0,0.0,0.0,0.0,0.0,0.0,0.0,0.0,-0.0002646854990364468,0.0010794855357908664,-0.06544528107861654,0.0,0.0,0.0,0.0,0.0,0.0,0.0,0.0,0.0,-0.014245046074798678,0.032128029358626686,0.0007919545393715045,0.0,0.0,0.0,0.0,0.0,0.0,0.0,0.0,0.0
10.694,308,10,694000000,base_footprint,-0.003442694850721331,0.001732309607071087,0.8920814281568571,0.4518582438035321,0.0,0.0,0.0,0.0,0.0,0.0,0.0,0.0,0.0,-0.0033238069003532077,0.0017274312185571485,0.09214669402906409,0.0,0.0,0.0,0.0,0.0,0.0,0.0,0.0,0.0,0.08527067645009523,0.2574534966544004,0.0012965071669932032,0.0,0.0,0.0,0.0,0.0,0.0,0.0,0.0,0.0
10.728,309,10,728000000,base_footprint,-0.0034518575349472827,0.0017329859320329556,0.8925330128978117,0.45096552232612275,0.0,0.0,0.0,0.0,0.0,0.0,0.0,0.0,0.0,-0.00030887220641414627,0.00035751555607789134,0.04589096606444651,0.0,0.0,0.0,0.0,0.0,0.0,0.0,0.0,0.0,-0.06569533603101024,-0.26138593064821414,-0.0025095369987281966,0.0,0.0,0.0,0.0,0.0,0.0,0.0,0.0,0.0
10.762,310,10,762000000,base_footprint,-0.0034533655388100347,0.00173113908157746,0.8928284094268347,0.4503804044852353,0.0,0.0,0.0,0.0,0.0,0.0,0.0,0.0,0.0,-0.0031493817355494236,-0.001075901117046724,-0.0128800418081749,0.0,0.0,0.0,0.0,0.0,0.0,0.0,0.0,0.0,0.0030926352310861136,-0.022566873299207958,0.005082136581957283,0.0,0.0,0.0,0.0,0.0,0.0,0.0,0.0,0.0
10.796,311,10,796000000,base_footprint,-0.003459645250811984,0.001731177618388797,0.8927217019250422,0.450591829476355,0.0,0.0,0.0,0.0,0.0,0.0,0.0,0.0,0.0,0.00014969246834453892,1.307119862277701e-05,-0.013432521745070992,0.0,0.0,0.0,0.0,0.0,0.0,0.0,0.0,0.0,-0.00507420611654176,-0.003353510334461957,-0.005398840348716001,0.0,0.0,0.0,0.0,0.0,0.0,0.0,0.0,0.0
10.83,312,10,830000000,base_footprint,-0.0034622759385451894,0.0017331744310522766,0.8926231818821294,0.4507869384957155,0.0,0.0,0.0,0.0,0.0,0.0,0.0,0.0,0.0,0.0001132885790690185,-1.8014910161448644e-05,-0.012044903439060976,0.0,0.0,0.0,0.0,0.0,0.0,0.0,0.0,0.0,-0.003464469275411246,-0.00033419952283660634,-1.0568444545339995e-05,0.0,0.0,0.0,0.0,0.0,0.0,0.0,0.0,0.0
10.864,313,10,864000000,base_footprint,-0.003464285225411973,0.0017342644102267993,0.8925695646551401,0.4508930730296998,0.0,0.0,0.0,0.0,0.0,0.0,0.0,0.0,0.0,0.0008738315548204807,0.00020013735740783762,0.013329089026231932,0.0,0.0,0.0,0.0,0.0,0.0,0.0,0.0,0.0,-0.0031086459156514368,0.004041848916964422,-0.0017536658213006277,0.0,0.0,0.0,0.0,0.0,0.0,0.0,0.0,0.0
10.898,314,10,898000000,base_footprint,-0.003462327904837795,0.001735614907308963,0.8927022799536295,0.45063026894779806,0.0,0.0,0.0,0.0,0.0,0.0,0.0,0.0,0.0,-0.0006927906077658286,-0.00022569516265045022,0.01858520377803089,0.0,0.0,0.0,0.0,0.0,0.0,0.0,0.0,0.0,0.009949486705028774,0.013846178491059642,0.0027448474339552375,0.0,0.0,0.0,0.0,0.0,0.0,0.0,0.0,0.0
10.932,315,10,932000000,base_footprint,-0.0034598964071873134,0.0017400666756206139,0.892918181981501,0.4502023118239921,0.0,0.0,0.0,0.0,0.0,0.0,0.0,0.0,0.0,0.00023984227101220062,0.00023581573472771544,0.03884117590409805,0.0,0.0,0.0,0.0,0.0,0.0,0.0,0.0,0.0,0.02247962453896815,0.05416400305024723,-0.002341909169285193,0.0,0.0,0.0,0.0,0.0,0.0,0.0,0.0,0.0
10.966,316,10,966000000,base_footprint,-0.0034538139408535552,0.0017230947867763694,0.8931741966931295,0.4496942922421863,0.0,0.0,0.0,0.0,0.0,0.0,0.0,0.0,0.0,-0.003919575647009564,0.001591960527427028,0.043681202946997455,0.0,0.0,0.0,0.0,0.0,0.0,0.0,0.0,0.0,0.03830968665248948,0.050264484915153514,0.007290336774260226,0.0,0.0,0.0,0.0,0.0,0.0,0.0,0.0,0.0
11.0,317,11,0,base_footprint,-0.0034633811622239584,0.0017311631353345235,0.8939317498611764,0.4481863838351843,0.0,0.0,0.0,0.0,0.0,0.0,0.0,0.0,0.0,-0.00422660773629287,0.005332399811363037,0.14807241717985348,0.0,0.0,0.0,0.0,0.0,0.0,0.0,0.0,0.0,0.08698132683857542,0.2902271997195604,-0.0012618261216570214,0.0,0.0,0.0,0.0,0.0,0.0,0.0,0.0,0.0
11.034,318,11,34000000,base_footprint,-0.0034668570941756797,0.0017191291758480226,0.8947784552982093,0.44649360737967575,0.0,0.0,0.0,0.0,0.0,0.0,0.0,0.0,0.0,-0.000398212934691311,0.0005306750417531114,0.07511924470371462,0.0,0.0,0.0,0.0,0.0,0.0,0.0,0.0,0.0,0.0637551759262831,0.10836331269430702,-0.006585736016401764,0.0,0.0,0.0,0.0,0.0,0.0,0.0,0.0,0.0
11.068,319,11,68000000,base_footprint,-0.0034543022963034755,0.0017117714592837987,0.8949497324282338,0.4461503267518134,0.0,0.0,0.0,0.0,0.0,0.0,0.0,0.0,0.0,0.0002568668685607768,-0.0003822982399815062,-0.027992187786185247,0.0,0.0,0.0,0.0,0.0,0.0,0.0,0.0,0.0,0.002145861949323284,-0.010818101010340147,0.0003862871444733269,0.0,0.0,0.0,0.0,0.0,0.0,0.0,0.0,0.0
11.102,320,11,102000000,base_footprint,-0.0034509729271551626,0.001711211046885797,0.8947415699138663,0.44656767192742364,0.0,0.0,0.0,0.0,0.0,0.0,0.0,0.0,0.0,-0.00034522421526995766,0.00032516248169152406,-0.037046383433580424,0.0,0.0,0.0,0.0,0.0,0.0,0.0,0.0,0.0,-0.10700750913027708,-0.3467670815509483,0.002767254938172998,0.0,0.0,0.0,0.0,0.0,0.0,0.0,0.0,0.0
11.136,321,11,136000000,base_footprint,-0.0034589080938063764,0.001723874292078079,0.8942389521415698,0.4475731903107817,0.0,0.0,0.0,0.0,0.0,0.0,0.0,0.0,0.0,-9.5033872804975e-06,-0.0003484969991363891,-0.0725909885634505,0.0,0.0,0.0,0.0,0.0,0.0,0.0,0.0,0.0,-0.0635510811672366,-0.16993980586060123,-4.386573544471995e-05,0.0,0.0,0.0,0.0,0.0,0.0,0.0,0.0,0.0
11.17,322,11,170000000,base_footprint,-0.0034573257079547064,0.0017253985006240827,0.8938725525453352,0.4483045055596144,0.0,0.0,0.0,0.0,0.0,0.0,0.0,0.0,0.0,-0.00066062094464806,0.0002928505259970807,-0.0015230258531005695,0.0,0.0,0.0,0.0,0.0,0.0,0.0,0.0,0.0,-0.009388973281682249,0.016813542685148328,0.0004578417039707611,0.0,0.0,0.0,0.0,0.0,0.0,0.0,0.0,0.0
11.204,323,11,204000000,base_footprint,-0.0034563881945101176,0.0017235362918333224,0.8938543728602579,0.44834076651794064,0.0,0.0,0.0,0.0,0.0,0.0,0.0,0.0,0.0,-0.00012736417470310467,6.002117846515674e-05,-0.0026915383514595475,0.0,0.0,0.0,0.0,0.0,0.0,0.0,0.0,0.0,0.00023471202511660127,-0.006213085051162772,-0.0009709391426378292,0.0,0.0,0.0,0.0,0.0,0.0,0.0,0.0,0.0
11.238,324,11,238000000,base_footprint,-0.0034585417052478843,0.001723016166679492,0.8938331748654867,0.44838301173711603,0.0,0.0,0.0,0.0,0.0,0.0,0.0,0.0,0.0,-2.0278141701658428e-05,6.433299543338883e-05,-0.002968046488184997,0.0,0.0,0.0,0.0,0.0,0.0,0.0,0.0,0.0,-0.002248392674270163,-0.005121886840541912,-0.00019671681351521742,0.0,0.0,0.0,0.0,0.0,0.0,0.0,0.0,0.0
11.272,325,11,272000000,base_footprint,-0.0034571333846403597,0.0017271813103975782,0.8937486693369492,0.44855142529247916,0.0,0.0,0.0,0.0,0.0,0.0,0.0,0.0,0.0,0.00018858986052899888,-0.0003190145809786873,-0.03607303604769318,0.0,0.0,0.0,0.0,0.0,0.0,0.0,0.0,0.0,0.10796776581231865,0.3678203439609764,-0.0015622530380145485,0.0,0.0,0.0,0.0,0.0,0.0,0.0,0.0,0.0
11.306,326,11,306000000,base_footprint,-0.0034575070558151453,0.0017228935597590157,0.8937084352678836,0.4486315972084135,0.0,0.0,0.0,0.0,0.0,0.0,0.0,0.0,0.0,0.0003140349084396279,-1.5732010479552492e-05,0.018495608602500806,0.0,0.0,0.0,0.0,0.0,0.0,0.0,0.0,0.0,0.0026979932189384786,0.01793672899950746,-0.0004923868457808336,0.0,0.0,0.0,0.0,0.0,0.0,0.0,0.0,0.0
11.34,327,11,340000000,base_footprint,-0.003466824545741764,0.001726552301149084,0.8937191407797711,0.44861018440132183,0.0,0.0,0.0,0.0,0.0,0.0,0.0,0.0,0.0,0.00031714816569140207,-1.5254282962006894e-05,-0.0012398492744438877,0.0,0.0,0.0,0.0,0.0,0.0,0.0,0.0,0.0,-0.0199778949616444,-0.06682831914756336,-0.00024866871201323587,0.0,0.0,0.0,0.0,0.0,0.0,0.0,0.0,0.0
11.374,328,11,374000000,base_footprint,-0.003461309591689393,0.0017242466151648917,0.8938473094858784,0.44835480775204917,0.0,0.0,0.0,0.0,0.0,0.0,0.0,0.0,0.0,0.00039035142288009606,-0.0008615023618782265,0.04420605864652148,0.0,0.0,0.0,0.0,0.0,0.0,0.0,0.0,0.0,-0.03543038575607119,-0.12301041192271582,0.00034490092081621633,0.0,0.0,0.0,0.0,0.0,0.0,0.0,0.0,0.0
