Time,Theta_calculated,linear_velocity_x,world_velocity_x,world_velocity_y,angular_velocity_yaw,linear_acceleration_x,angular_acceleration_yaw,kinematic_delta_x,kinematic_delta_y,kinematic_delta_yaw
0.34800000000000003,2.6777673791666954e-07,-4.071869722280567e-06,-4.071869722280421e-06,-1.0903519914539324e-12,8.634156415858099e-06,1.4513845079830815e-05,0.0001385430833443713,-1.3559326175194101e-07,-1.947722728257106e-14,2.875174086480747e-07
0.383,5.552941465647442e-07,9.32986444410175e-06,9.329864444100311e-06,5.180819114051966e-12,-8.276266869531232e-05,0.0004024544794709404,-0.00274464940273785,3.106844859883053e-07,-3.3879682621355016e-13,-2.7559968675539004e-06
0.41600000000000004,-2.2007027209891563e-06,1.1023749617329064e-05,1.102374961730237e-05,-2.425999577833966e-11,-1.117869786127435e-05,5.086742261943886e-05,0.002149668793814954,3.670908622557624e-07,-9.746213979016412e-13,-3.722506387804359e-07
0.449,-2.572953359769592e-06,3.2702411561507665e-07,3.270241156139942e-07,-8.414177969965626e-13,2.9723677838364034e-06,-0.00032122298803945903,0.00042495692627960216,1.0889903049939659e-08,-3.041492929634597e-14,9.897984720175224e-08
0.48300000000000004,-2.47397351256784e-06,-6.872089163989114e-08,-6.872089163968084e-08,1.7001366567696197e-13,7.344636609607091e-06,-1.1884234452101134e-05,0.00013129936413725784,-2.288405691600518e-09,5.993831304506146e-15,2.4457639909991616e-07
0.516,-2.229397113467924e-06,-6.027458292239034e-08,-6.027458292224055e-08,1.3437598118254874e-13,7.790783822874485e-06,2.536429044294536e-07,1.3397814212234072e-05,-2.00714361130997e-09,4.751661135122807e-15,2.594331013017204e-07
0.549,-1.969964012166203e-06,-4.9631992769892745e-08,-4.963199276979644e-08,9.777323960871865e-14,7.969990979496223e-06,3.195973018768046e-07,5.381596294947071e-06,-1.6527453592337593e-09,3.479002535452616e-15,2.6540069961722426e-07
0.5830000000000001,-1.7045633125489801e-06,-4.177630293752229e-08,-4.177630293746159e-08,7.12103533211982e-14,8.302142940086765e-06,2.3590660157268629e-07,9.974533351067334e-06,-1.3911508878171489e-09,2.5519732768129165e-15,2.764613599048893e-07
0.616,-1.4281019526440904e-06,-3.272334775522645e-08,-3.272334775519308e-08,4.673227682627462e-14,8.114188228732418e-06,2.7186051598486005e-07,-5.644285626256673e-06,-1.0896874802477101e-09,1.7005047127413463e-15,2.7020246801678955e-07
0.649,-1.157899484627301e-06,-2.5852308202087696e-08,-2.5852308202070365e-08,2.99343743436168e-14,8.150465321173537e-06,2.063375241182809e-07,1.089402175408978e-06,-8.60881863128801e-10,1.1103275641963845e-15,2.714104951950788e-07
0.683,-8.864889894322222e-07,-1.9988483581025385e-08,-1.998848358101753e-08,1.7719570610023438e-14,8.419199106648336e-06,1.7609082946133062e-07,8.070083647891858e-06,-6.656165032478013e-10,6.750390171821762e-16,2.803593302513896e-07
0.7160000000000001,-6.061296591808326e-07,-1.3197035336403799e-08,-1.3197035336401374e-08,7.999114530651347e-15,8.178460015824036e-06,2.0394739473338094e-07,-7.229402126855845e-06,-4.3946127670212557e-10,3.242602024176037e-16,2.7234271852694044e-07
0.749,-3.337869406538921e-07,-7.0798923080506966e-09,-7.079892308050303e-09,2.3631755936632214e-15,8.171644614227641e-06,1.8369798883943249e-07,-2.046667146064563e-07,-2.3576041385806197e-10,1.097521546570756e-16,2.721157656537805e-07
0.783,-6.167117500011162e-08,-6.244440800276255e-10,-6.244440800276244e-10,3.851020013716737e-17,8.397432796172603e-06,1.9385730414483695e-07,6.780425884233081e-06,-2.0793987864919485e-11,3.946254973002996e-18,2.796345121125477e-07
0.8150000000000001,2.179633371124361e-07,6.4109882967909874e-09,6.410988296790835e-09,1.3973604033573254e-15,8.113584284410427e-06,2.1127424555010846e-07,-8.523979332197463e-06,2.134859102831385e-10,1.8246761556740645e-17,2.7018235667086727e-07
0.8490000000000001,4.881456937833033e-07,1.4181084894959426e-08,1.4181084894957737e-08,6.922435524649618e-15,8.059408471925653e-06,2.3333623417923238e-07,-1.6269012758190414e-06,4.722301270021179e-10,1.6741614642834648e-16,2.683783021151243e-07
0.883,7.565239958984276e-07,2.40567290212503e-08,2.4056729021243416e-08,1.819949276740021e-14,8.224344436211404e-06,2.965658896784046e-07,4.953031960533066e-06,8.010890764074757e-10,5.010850455754576e-16,2.738706697258398e-07
0.916,1.0303946656242674e-06,3.432190023680384e-08,3.4321900236785614e-08,3.53651029180847e-14,7.877996290852597e-06,3.082633998664726e-07,-1.0400845205970192e-05,1.1429192778851086e-09,1.0220338488460064e-15,2.623372764853915e-07
0.9490000000000001,1.2927319421096592e-06,4.758821825090064e-08,4.758821825086087e-08,6.151880980100798e-14,7.740314842028147e-06,3.9838792835125526e-07,-4.1345780427762565e-06,1.584687667753931e-09,1.828621248221073e-15,2.577524842395373e-07
0.9830000000000001,1.5504844263491966e-06,6.642344444244044e-08,6.64234444423606e-08,1.0298851615243373e-13,7.78331918635797e-06,5.656224081543484e-07,1.2914217516463019e-06,2.2119006999310553e-09,3.123818040472521e-15,2.591845289057204e-07
1.016,1.8096689552549173e-06,8.59504834472225e-08,8.595048344708174e-08,1.5554192158350528e-13,7.308052704032493e-06,5.863975677111728e-07,-1.427226673650079e-05,2.8621510987885423e-09,4.759424211423414e-15,2.4335815504428204e-07
1.049,2.053027110299199e-06,1.1307414192161488e-07,1.1307414192137657e-07,2.3214427883873146e-13,6.988372062214434e-06,8.145242785102817e-07,-9.600019273815572e-06,3.765368925982955e-09,7.162155524097443e-15,2.327127896717407e-07
1.083,2.28573989997094e-06,1.5274966524880705e-07,1.5274966524840802e-07,3.491460045660987e-13,6.765072360162074e-06,1.1914571569727379e-06,-6.705696758329135e-06,5.0865638527737254e-09,1.0836855594797092e-14,2.2527690959339708e-07
1.115,2.5110168095643366e-06,1.92362751473464e-07,1.9236275147285756e-07,4.830261024834073e-13,6.030444512119017e-06,1.189582168908617e-06,-2.2060896337629342e-05,6.4056796240487485e-09,1.5012233162465975e-14,2.008138022535633e-07
1.149,2.7118306118179003e-06,2.4474685997586116e-07,2.447468599749612e-07,6.637120270280361e-13,5.389499581355552e-06,1.5730963514233378e-06,-1.9247595518422366e-05,8.150070437170004e-09,2.065089430507199e-14,1.794703360591399e-07
1.182,2.8913009478770403e-06,3.1428726136110206e-07,3.142872613597884e-07,9.086990566777674e-13,4.789330216698868e-06,2.088300341899126e-06,-1.8023104043744272e-05,1.0465765803286469e-08,2.8289783053722974e-14,1.5948469621607232e-07
1.216,3.050785644093113e-06,-3.823605412589825e-06,-3.823605412572032e-06,-1.166500050138767e-11,5.626803994512424e-05,-0.0001242610412597876,0.0015459071990518128,-1.2732606023834162e-07,-4.736339465140269e-13,1.8737257301726373e-06
1.249,4.92451137426575e-06,2.507824638644098e-07,2.5078246386136894e-07,1.234981095761684e-12,5.348431356458674e-06,0.00012235399028391096,-0.0015291173750350017,8.351056046590782e-09,3.963116126949476e-14,1.7810276417007387e-07
1.283,5.102614138435824e-06,2.0393126782853916e-07,2.0393126782588433e-07,1.0405825704865313e-12,6.20088166949942e-06,-1.4069428239000187e-06,2.5599108499722075e-05,6.7909112186075305e-09,3.353665674752597e-14,2.064893595943307e-07
1.316,5.309103498030154e-06,1.5412101812990737e-07,1.541210181277353e-07,8.182444364696161e-13,6.574784256069406e-06,-1.4958032942532068e-06,1.1228305903002583e-05,5.132229903657832e-09,2.6433583639142252e-14,2.1894031572711122e-07
1.349,5.528043813757266e-06,0.03336426608727185,0.03336426608676206,1.8443912474335514e-07,-1.4029816200821035e-05,1.0019252842718835,-0.0006187567704771903,0.0011110300606921079,5.5845895869572336e-09,-4.671928794873405e-07
1.383,5.060850934269925e-06,0.0684083951818843,0.06840839518100825,3.4620469066666753e-07,1.7658838033060463e-06,1.0523762490874606,0.0004743453454692817,0.0022779995595302804,1.0984452161029731e-08,5.880393065009135e-08
1.416,5.119654864920017e-06,0.09473377528055744,0.09473377527931592,4.850042334852269e-07,-0.06695145550895032,0.7905519549151094,-2.0106072490316405,0.0031546321204654715,-3.5012956278611692e-06,-0.002229483468448046
1.449,-0.002224363813583126,0.11474863200763091,0.11474834813142996,-0.0002552424942145896,-0.31707729565063136,0.6010467485607648,-7.511286490741171,0.0038210041138175663,-2.8673232943011703e-05,-0.010558673945166025
1.483,-0.01278303775874915,0.1182343890133587,0.11822472903740325,-0.0015113534976370694,-0.3265789053523357,0.10467738755939295,-0.2853336246758056,0.003936532199281781,-7.173487913863463e-05,-0.010875077548232779
1.516,-0.023658115306981926,0.11481542299020135,0.11478329302418135,-0.0027160631332477764,-0.3172844865105031,-0.10267165234706746,0.27911167693190914,0.00382173471735214,-0.00011063636440213739,-0.010565573400799754
1.549,-0.034223688707781676,0.11483183840082511,0.11476459594501054,-0.00392920196626335,-0.4128425388244043,0.0004929552739868753,-2.8696111805976328,0.0038206412487508837,-0.00015710835509816478,-0.013747656542852664
1.5830000000000002,-0.04797134525063435,0.11835222998056069,0.11821607706116428,-0.005675338372326555,-0.42554264233465205,0.10571746485692421,-0.3813844897972297,0.003935124544471214,-0.00021687492995899613,-0.014170569989743914
1.616,-0.062141915240378265,0.11486966005327238,0.11464794006467674,-0.0071336273858852595,-0.4128844210792245,-0.10458167949814733,0.38012676442725335,0.0038160230351269976,-0.0002637883178282033,-0.013749051221938178
1.649,-0.07589096646231647,0.09463201122589204,0.09435962835644347,-0.007174823000689516,-0.38420132888607733,-0.6077372020234336,0.8613541199143299,0.003140561485746705,-0.0002590160018713766,-0.012793904251906376
1.683,-0.08868487071422286,0.11826346395795267,0.11779869724970486,-0.010474437149858929,-0.751803348510024,0.7096532351970158,-11.039099688406804,0.003917920894489575,-0.00039786326360088356,-0.0250350515053838
1.7160000000000002,-0.11371992221960667,0.11480117785582894,0.114059660410209,-0.01302706045865554,-0.7294944267287622,-0.10397255561933137,0.6699375910288816,0.003792544291779523,-0.000479890284280252,-0.024292164410067783
1.749,-0.13801208662967446,0.12798074487241268,0.126763832164018,-0.017606871192527435,-0.38436736032204405,0.3957827932908029,10.364176168369912,0.004217368031139034,-0.0006133082740269219,-0.012799433098724068
1.782,-0.15081151972839854,0.1655123551282242,0.1636337038926718,-0.024866657404179045,-0.7841958449047921,1.1270753830574032,-12.006861398881322,0.005437571571089629,-0.0008991098603458731,-0.02611372163532958
1.816,-0.17692524136372811,0.16067642359871825,0.15816818653006715,-0.02827963702498017,-0.7607282195169994,-0.14522316905423285,0.7047334951289093,0.005254509830908674,-0.0010083215233742699,-0.025332249709916082
1.848,-0.20225749107364419,0.12789314158150228,0.12528611491790326,-0.025691342362051253,-0.19232710856747198,-0.9844829434599391,17.06910243091674,0.004169259291231674,-0.0008688767831410761,-0.006404492715296818
1.8820000000000001,-0.208661983788941,0.16551237543432448,0.16192224019080417,-0.03428606937962278,-0.586700886441789,1.129706722306973,-11.843056392622131,0.005380514587108066,-0.0011943254760079078,-0.019537139518511576
1.916,-0.22819912330745257,0.16064442371248863,0.15647977732016777,-0.036341576186900586,-0.5694446698205169,-0.14618473639146695,0.5182047033415038,0.005198990346556683,-0.0012595065700743311,-0.018962507505023214
1.949,-0.24716163081247575,0.09458901308994647,0.09171452312948898,-0.02314147023117803,-0.19306076413493264,-1.9836459646409057,11.302819990558083,0.0030515952822253007,-0.0007804237007216136,-0.006428923445693258
1.9820000000000002,-0.253590554258169,0.11821204401951096,0.11443136995347179,-0.029657190053045776,-0.5498131867617547,0.70940032821515,-10.71328596476943,0.0038013109784212924,-0.0010224126912052932,-0.018308779119166434
2.016,-0.2718993333773354,0.11475191695707501,0.11053622372828395,-0.030817944273007523,-0.5338497751626534,-0.10390771959267124,0.4793817297027419,0.003671540520065948,-0.0010589012675237515,-0.01777719751291636
2.048,-0.2896765308902518,0.11476132413267691,0.10997994528762066,-0.03278068259230279,-0.5807405008953108,0.000282497765822735,-1.4081299018816036,0.0036515489257969965,-0.0011269408618555011,-0.019338658679813853
2.082,-0.3090151895700657,0.11826186447112116,0.1126602177647319,-0.03596587162003752,-0.598624834277903,0.10512133148481245,-0.5370670685463126,0.0037393996219238397,-0.0012349764083132307,-0.019934206981454174
2.115,-0.32894939655151983,0.11476101127862064,0.10860778545284513,-0.03707342240366345,-0.581495060809235,-0.10513072650151734,0.5144076116717136,0.003604460547835929,-0.001269483601960309,-0.019363785524947528
2.149,-0.34831318207646744,0.11910825665675735,0.11195577991663731,-0.04065316896712301,-0.30442350219761494,0.13054790925335483,8.320467225574173,0.0037212016199306467,-0.0013726247532069775,-0.01013730262318058
2.183,-0.3584504846996481,0.13401854606780594,0.12550053557552338,-0.04701687208210913,-0.5969606980040604,0.4477564387702279,-8.78490077496833,0.004163330945358087,-0.0016070968756862895,-0.019878791243535213
2.216,-0.37832927594318333,0.1491072455049477,0.13856283512550818,-0.055075506207877746,-0.8173826397042057,0.45311409721146395,-6.619277528532891,0.004588613847425186,-0.001896581063759862,-0.02721884190215005
2.249,-0.4055481178453333,0.1634983958668138,0.15023643446411494,-0.06450379221821805,-0.5786729502378223,0.43216667753351684,7.168459143134635,0.00498186816337273,-0.00219604539951119,-0.019269809242919485
2.283,-0.42481792708825283,0.20035756624615184,0.18254854159745595,-0.08257835256726183,-0.6228246523468027,1.1068819933735143,-1.325876940209623,0.006049914786315965,-0.002812699393199073,-0.020740060923148534
2.316,-0.4455579880114013,0.21801717516916033,0.19673223129673797,-0.09395699994011687,-0.898904859147483,0.5303185862765314,-8.290696900921327,0.006503380110926407,-0.0032263453284089145,-0.029933531809611186
2.349,-0.47549151982101245,0.206524333379299,0.1836141395355288,-0.09454177933797944,-0.9476324771322506,-0.34513038407991947,-1.4632918313744039,0.006063666175947975,-0.0032441851191845287,-0.03155616148850395
2.383,-0.5070476813095164,0.21277980194856402,0.18600826364841763,-0.103325553333969,-0.9763821206507975,0.18785190898693724,-0.8633526582146221,0.006137052585978911,-0.003540823120963888,-0.03251352461767156
2.416,-0.5395612059271881,0.20652315741667837,0.17718327955281404,-0.10610325158195416,-0.9476449133084236,-0.1878872231797493,0.8629791994706891,0.005843479208428769,-0.003625740840689887,-0.03155657561317051
2.448,-0.5711177815403584,0.21801710865472676,0.18341719583797705,-0.1178541129409581,-0.8120855353614058,0.3451637008422939,4.070852190601134,0.006053985765856636,-0.004006645067687671,-0.027042448327534815
2.483,-0.5981602298678932,0.22462745515848492,0.18562607071868456,-0.12649290683875947,-0.8367413523712515,0.19850890401676163,-0.7404149252205899,0.006121867509889016,-0.004297781801680844,-0.027863487033962676
2.516,-0.6260237169018559,0.21806654480042223,0.17671321660448114,-0.12777111190911775,-0.8123757619895399,-0.19702433507695774,0.7316994108622101,0.005826284385130938,-0.004333850555679214,-0.02705211287425168
2.549,-0.6530758297761076,0.21808925958983227,0.17321054323229712,-0.1325180473053153,-0.9166204912414275,0.0006821258081094397,-3.130472349906536,0.005699671766799263,-0.004500188778833889,-0.03052346235833954
2.583,-0.683599292134447,0.22475055752561007,0.1742501134955011,-0.14194967789635016,-0.9446886184963582,0.20003897705038434,-0.8428867043522728,0.005727226522587512,-0.004817407036501618,-0.03145813099592873
2.616,-0.7150574231303758,0.21812560524594193,0.16469695807834897,-0.14301640347752795,-0.9165625134322656,-0.1989475159059501,0.8446277797024814,0.005410882998342717,-0.004845398078537423,-0.030521531697294445
2.649,-0.7455789548276703,0.2065796754307422,0.15177310920943848,-0.14014308981170162,-0.8594398166527133,-0.34672461907506674,1.7153962996862546,0.004986578041268324,-0.004738445974774924,-0.028619345894535356
2.683,-0.7741983007222057,0.21284364703198563,0.15217932669665232,-0.14880816714155862,-0.8854101671534461,0.18810725529259528,-0.779890405427412,0.004993789734388451,-0.0050292965094199315,-0.02948415856620976
2.716,-0.8036824592884153,0.20651025406343132,0.14333058063358795,-0.14867020444117748,-0.8587668170721234,-0.19019198103766705,0.8001006030427231,0.004701473628948953,-0.00501828494824932,-0.028596935008501714
2.749,-0.832279394296917,0.2179672428255341,0.14673379797780375,-0.16117974896361648,-0.7905806562052984,0.34405371657966277,2.0476324584632146,0.004815023214099933,-0.00543098158523013,-0.026326335851636438
2.783,-0.8586057301485536,0.2245772009448991,0.14675973448421542,-0.16998970415401102,-0.814599279068523,0.19849724082177225,-0.721279965862602,0.0048097270759732405,-0.00572624429249486,-0.02712615599298182
2.815,-0.8857318861415355,0.21799603889469474,0.13793108902922604,-0.16881139669165995,-0.7909507059951841,-0.19763249400013122,0.7101673595597265,0.00451854665839923,-0.005681255407964168,-0.026338658509639633
2.849,-0.912070544651175,0.21802040089303076,0.13345240922665783,-0.17240461037094834,-0.7696173769881616,0.0007315915416223868,0.6406405107213982,0.004369914386986888,-0.005797388681017556,-0.02562825865370578
2.882,-0.9376988033048809,0.22464801662034398,0.1329118335169063,-0.1811109490964821,-0.7932015161623377,0.19902749931871508,-0.7082324076329165,0.004345802252982687,-0.006088743957158196,-0.026413610488205848
2.916,-0.9641124137930867,0.21804165146487767,0.124315638909912,-0.17913063304737012,-0.7704288324925465,-0.19838934400799726,0.6838643744682052,0.004062741739055572,-0.006017496637685625,-0.0256552801220018
2.949,-0.9897676939150885,0.21804408280518398,0.1196809213629055,-0.18226272001723215,-0.7327883858027058,7.301322241165447e-05,1.13034374443966,0.003910929537351361,-0.006117370160322581,-0.024401853247230106
2.983,-1.0141695471623187,0.22464544623199068,0.11868585099815612,-0.1907334403968368,-0.7547588132518422,0.19823914194614714,-0.659772596070164,0.0038720085879308964,-0.00640042005408689,-0.02513346848128635
3.016,-1.039303015643605,0.2180117378927758,0.11049297420611395,-0.1879372781278781,-0.7319676775344149,-0.19921046063708306,0.6844184900128318,0.0036027821269659947,-0.006302532436128471,-0.02437452366189602
3.049,-1.063677539305501,0.21798754854876234,0.10586797706959569,-0.19055325437654055,-0.6595069219379518,-0.0007264067271310629,2.1759986665604547,0.003455443581097203,-0.006383624392372805,-0.021961580500533796
3.082,-1.0856391198060344,0.22452431215691537,0.10470633612023376,-0.19861457631758198,-0.678688537562718,0.19629920745204288,-0.5760244932362212,0.0034116878139215895,-0.0066527021291810096,-0.02260032830083851
3.116,-1.1082394481068731,0.21792784197921752,0.09724763004592069,-0.19502677446999564,-0.6586462964651401,-0.19809219752846394,0.6018691020293665,0.0031668670663114046,-0.006529383531082511,-0.021932921672289166
3.149,-1.1301723697791624,0.21796805663015995,0.0929642280293101,-0.1971489944636874,-0.6183076715813827,0.0012076471754480995,1.211370116629351,0.003027904545629598,-0.006596467125408591,-0.020589645463660045
3.183,-1.1507620152428224,0.22460624373880203,0.09159258045405635,-0.20508233452011743,-0.637153842699068,0.19934495821748002,-0.5659510846151766,0.0029773562033587526,-0.006861085561602358,-0.02121722296187897
3.216,-1.1719792382047016,0.21804033904342263,0.08467128576988392,-0.2009287505964374,-0.6186131206552477,-0.19717431517655867,0.5567784397543664,0.002750439104292844,-0.0067194950420679045,-0.020599816917819747
3.248,-1.1925790551225215,0.20659643968483637,0.07628869466632034,-0.1919951144080473,-0.5939261459440579,-0.3436606413989865,0.74135059192762,0.002477024387721057,-0.006418142173909543,-0.01977774065993713
3.282,-1.2123567957824584,0.21290679042063287,0.07469054800333173,-0.19937558387670565,-0.6120280143182275,0.18950002209599096,-0.5435996508759641,0.0024193683389119205,-0.006664092288536722,-0.02038053287679698
3.316,-1.2327373286592556,0.20667056982360735,0.06854365365560092,-0.19497305448383268,-0.5942866190768202,-0.18727389180256837,0.5327746318740924,0.002218111563292924,-0.006514763874272566,-0.019789744415258114
3.349,-1.2525270730745137,0.21805457137820602,0.06823433525962143,-0.20710352867735196,-0.5374633903527434,0.3418619085465068,1.706403264987293,0.002210366269386007,-0.006916512789397052,-0.017897530898746357
3.383,-1.2704246039732598,0.2246670180939824,0.06647342286401198,-0.21460790542751235,-0.5537603055666843,0.19857197344673802,-0.48939685327149973,0.0021475484945413337,-0.007166447550237416,-0.01844021817537059
3.416,-1.2888648221486305,0.21802880304479325,0.06065810179561473,-0.20942099618638552,-0.5369665914492,-0.1993457972729476,0.5043157392637933,0.0019574584501228726,-0.00699140663995682,-0.017880987495258363
3.449,-1.3067458096438889,0.20654260411147843,0.05390613493167633,-0.19938399115746186,-0.513817930724497,-0.34493089889834283,0.695154976717808,0.0017381850460248434,-0.006654520025557398,-0.01711013709312575
3.483,-1.3238559467370148,0.21269927794377297,0.05199185035951376,-0.20624701290926936,-0.5287931277239893,0.1848851000689051,-0.4497056156003707,0.0016707699832059456,-0.006882913979857965,-0.017608811153208847
3.516,-1.3414647578902232,0.20641157265432566,0.0469228500444352,-0.201007421428512,-0.513461672072182,-0.1888199786620812,0.4604040736278492,0.0015052303208795581,-0.006706579362341487,-0.01709827368000366
3.549,-1.358563031570227,0.21797885493325575,0.04591585289459627,-0.2130880467106852,-0.4745319065440618,0.34736583420210465,1.1690620278714763,0.0014728696758154896,-0.007107617342303238,-0.01580191248791726
3.583,-1.3743649440581442,0.2245429918782757,0.043824188358194564,-0.22022487533517388,-0.48942809417692296,0.19712122958017864,-0.4473329619477825,0.0013995197895974897,-0.00734505598067844,-0.016297955536091535
3.616,-1.3906628995942358,0.2179766129285691,0.03905287380103574,-0.21444970699838137,-0.47519295282771473,-0.1971885570482463,0.42748172219844516,0.0012439049785638947,-0.007151166540640391,-0.0158239253291629
3.649,-1.4064868249233986,0.21801537010892744,0.03566102957211689,-0.21507903796881095,-0.4364577116211021,0.0011638792900402325,1.1632204566550344,0.0011354221106013537,-0.007170509642898101,-0.014534041796982701
3.683,-1.4210208667203814,0.22466082922264213,0.033523015033858385,-0.22214566313580122,-0.44986175232998893,0.19956333674818907,-0.4025237450116169,0.001060865330872547,-0.007405535464518466,-0.014980396352588634
3.716,-1.43600126307297,0.21809029601056162,0.029308552199600265,-0.21611197556345113,-0.43679195915297764,-0.19731330967208735,0.3924862815919306,0.0009236019938608146,-0.007203373019782914,-0.014545172239794157
3.749,-1.450546435312764,0.21810520414352028,0.026163965277878655,-0.21653019880705926,-0.3865967667166119,0.00044769168044000025,1.5073631362271986,0.0008248221653374527,-0.007215864756968466,-0.012873672331663179
3.783,-1.4634201076444273,0.224702313849977,0.02408134764609219,-0.22340818817823488,-0.39791309545726317,0.19811140259629778,-0.3398296919114489,0.0007525956171063985,-0.007444587941978619,-0.013250506078726864
3.815,-1.4766706137231542,0.21806423115447096,0.020495156624069664,-0.21709895776798513,-0.3856206211344106,-0.1993418226878688,0.36914337305863587,0.000636051725022992,-0.007233578698563576,-0.012841166683775874
3.849,-1.48951178040693,0.21803304830124376,0.01770320768516688,-0.2173131532815912,-0.3612493480851452,-0.0009364220188348895,0.7318700615395013,0.0005459749033904572,-0.007239899401064759,-0.012029603291235336
3.883,-1.5015413836981653,0.2245889784829388,0.015541466517379763,-0.2240506015937005,-0.3713968891186544,0.19687478023108212,-0.3047309619672442,0.0004713799223101943,-0.0074638952083185715,-0.012367516407651194
3.916,-1.5139089001058166,0.21797648185648724,0.012393434044424669,-0.2176238714735082,-0.36054470160242447,-0.19857347226581237,0.3258915170039027,0.00036918652797372455,-0.007249178362256077,-0.012006138563360736
3.948,-1.525915038669177,0.21797197095822457,0.009779578843622759,-0.21775247406414117,-0.25359223522265434,-0.00013546241029044486,3.211785777170274,0.0002950377053167835,-0.007252446313103948,-0.00844462143291439
3.983,-1.5343596601020915,0.22459133880003315,0.00818154912756532,-0.22444226811780468,-0.2613360452305649,0.19877981506932677,-0.23254684708440174,0.0002399194597661848,-0.007475018725399601,-0.008702490306177812
4.015,-1.5430621504082693,0.21797112900233248,0.006044474783307993,-0.21788730436430995,-0.25428430468719243,-0.19880509903005017,0.21176398028145604,0.0001705576418052326,-0.0072564127598754614,-0.008467667346083509
4.049,-1.5515298177543528,0.21798891061899778,0.004199625490237211,-0.21794845330627874,-0.3063537489378386,0.0005339824824413408,-1.5636469744938795,0.00010282356178189814,-0.007258270962747851,-0.010201579839630028
4.083,-1.5617313975939828,0.22460129735375745,0.0020359669751120503,-0.22459206934232392,-0.31616011878184896,0.198570172215005,-0.29448558090121146,2.8425301932089587e-05,-0.007479134643293669,-0.010528131955435572
4.116,-1.5722595295494184,0.21802832735446728,-0.00031901953531400247,-0.2180280939592942,-0.3070473063184703,-0.19738648646517,0.2736580319332924,-4.77420728386206e-05,-0.007260154702972053,-0.010224675300405063
4.148,-1.5824842048498236,0.2180589214818734,-0.002548588056531299,-0.21804402751911353,-0.21452096774785065,0.0009187425647479981,2.7785687258444343,-0.00011080326801849462,-0.007260501204893964,-0.007143548226003427
4.183,-1.5896277530758272,0.22467906091849318,-0.004230777107335395,-0.2246392239576251,-0.22101428547107807,0.19880298608467845,-0.19499452622304564,-0.00016841283464516242,-0.007479900142957597,-0.0073597757061869004
4.216,-1.5969875287820139,0.21805092340707913,-0.005710362861286344,-0.217976138498397,-0.2140544770252817,-0.1990431685109326,0.20900325663052202,-0.00021602502779426115,-0.007257866176541976,-0.007128014084941881
4.249,-1.6041155428669558,0.21802046346677809,-0.007262926908850432,-0.21789945475605357,-0.25551445263788136,-0.0009147129219532111,-1.2450443126906807,-0.00027272383909611106,-0.007254935294884839,-0.00850863127284145
4.283,-1.6126241741397973,0.22462841497928873,-0.009392983546734152,-0.22443194219227874,-0.26317681368299545,0.19843698235767704,-0.23010093228570824,-0.0003455325905817989,-0.00747211732816751,-0.008763787895643749
4.315,-1.621387962035441,0.21795704999737714,-0.011022100297980003,-0.21767817747440932,-0.2544800833289482,-0.20034129074809587,0.26116307369511177,-0.000397746651928374,-0.007247041290572005,-0.008474186774853976
4.348,-1.6298621488102951,0.21798440748373968,-0.01286794294960137,-0.2176042691453522,-0.15638893670953155,0.0008215461370131894,2.945680078661161,-0.00044737072326648224,-0.0072450735242807806,-0.0052077515924274015
4.382,-1.6350699004027225,0.2246072353309645,-0.014426372104565197,-0.22414345841652372,-0.16084284239096117,0.19888371913588035,-0.1337509213642527,-0.0005003866243169907,-0.007462654824961446,-0.0053560666516190075
4.416,-1.6404259670543415,0.21802865570942476,-0.015168992655478651,-0.21750033648773262,-0.15635988739813675,-0.19755494358978187,0.1346232730577903,-0.0005239828170142878,-0.007241413296970771,-0.005206784250357954
4.449,-1.6456327513046995,0.20654496288107363,-0.015442662684617355,-0.20596685621903638,-0.13127178499255282,-0.3448556404910248,0.753396468636154,-0.0005292317246468667,-0.006857550365637989,-0.00437135044025201
4.483,-1.6500041017449516,0.21282520718964895,-0.016839789771211634,-0.2121579371500826,-0.13518850630413604,0.1885959251824421,-0.11761925860610256,-0.000576667181397144,-0.007063573072536773,-0.004501777259927731
4.516,-1.6545058790048794,0.20655940204661125,-0.017270808290491196,-0.2058361138256518,-0.13176478445063075,-0.1881623166077389,0.10281447007523377,-0.0005901555118457136,-0.006853058698736445,-0.004387767322206005
4.548,-1.6588936463270856,0.20655635113084683,-0.018173531683614526,-0.20575531326951035,-0.1692869450911712,-9.161909202442002e-05,-1.1267916108270406,-0.0006244894383658804,-0.006849909706713991,-0.005637255271536002
4.583,-1.6645309015986216,0.2128214895276285,-0.01991953250053612,-0.21188723092654396,-0.1749189089148762,0.18814229419764764,-0.16912804275390336,-0.0006838679533391501,-0.007053872859150853,-0.0058247996668653775
4.616,-1.670355701265487,0.2065725769053542,-0.020532277714526655,-0.2055496414523071,-0.16989953845438055,-0.18765503370193123,0.15073184566052963,-0.0007030857469027254,-0.00684283222183655,-0.005657654630530873
4.649,-1.676013355896018,0.21799575349116865,-0.022894568059419487,-0.21679019187582027,-0.19335620598018524,0.3430383359103441,-0.7044044302043451,-0.0007856267759784649,-0.007216608885521385,-0.006438761659140169
4.682,-1.682452117555158,0.22459669107756206,-0.025025446641091065,-0.22319811975776976,-0.19929684313155202,0.19822635394574795,-0.1783975120530564,-0.0008580063546516073,-0.007429677318356399,-0.006636584876280683
4.715,-1.6890887024314387,0.21799698217783792,-0.02572728212683757,-0.2164735346249298,-0.19316044117836265,-0.1981894564481723,0.18427633493061182,-0.0008798980685072911,-0.007205763458776679,-0.006432242691239477
4.749,-1.6955209451226783,0.21797304431116504,-0.027116172714657702,-0.21627982158210218,-0.09805991615677125,-0.0007188548550412614,2.8558716222700116,-0.0009147277453138262,-0.007200630741336579,-0.0032653952080204827
4.783,-1.6987863403306986,0.2245381609197292,-0.02866024308984731,-0.22270154057672134,-0.10036318994056448,0.19715064890583042,-0.06916738089469168,-0.0009667787127837031,-0.007414352414142572,-0.0033420942250207974
4.816,-1.7021284345557195,0.21795493158655782,-0.028542265072632494,-0.2160779750632273,-0.09737769680721611,-0.19769457456971096,0.08965444844889987,-0.0009621238519447298,-0.0071938426900850505,-0.003242677303680297
4.848,-1.7053711118593997,0.21799249396093956,-0.029247824634509964,-0.21602150859916525,-0.09004187497064166,0.0011279992306828471,0.22029495004728092,-0.000984737518277959,-0.007192045048064546,-0.0029983944365223674
4.882,-1.7083695062959223,0.2246383778122346,-0.030806823929042423,-0.22251593288013607,-0.09284776437017277,0.19957609163048207,-0.0842609429288621,-0.001037322469976043,-0.0074081825790443265,-0.0030918305535267534
4.915,-1.711461336849449,0.2180618744711091,-0.03057262093781189,-0.21590807290800085,-0.09030871379353118,-0.19749259282659157,0.07624776506431179,-0.0010288794388907349,-0.00718819690820058,-0.003007280169324589
4.948,-1.7144686170187735,0.21807405851226191,-0.031223522273020946,-0.21582721481054143,-0.0816164792957458,0.0003658871217057599,0.26102806299655823,-0.0010495105103019199,-0.007185624202954206,-0.002717828760548335
4.982,-1.7171864457793218,0.22467218398241995,-0.03277244182733374,-0.222269110116778,-0.08469329054001501,0.19814190601075174,-0.09239673406213857,-0.001101760102829596,-0.007400012340029752,-0.0028202865749825
5.016,-1.7200067323543045,0.21808121824993273,-0.03241937769613246,-0.21565806663134654,-0.08266916028573831,-0.19792689887348988,0.060784692320621496,-0.001089450625965863,-0.007179918299004617,-0.002752883037515086
5.048,-1.7227596153918197,0.18297434064649437,-0.027698488485861244,-0.18086570451751757,-0.5975704679999563,-1.0542605886918426,-15.462501733159696,-0.0009822228465436325,-0.006013253465468944,-0.019899096584398545
5.083,-1.7426587119762182,0.19606661095634068,-0.03353083988678207,-0.19317815277197375,-0.2845976605640789,0.39316127056595507,9.398582805882201,-0.0011470440520909865,-0.0064274449685857125,-0.009477102096783829
5.116,-1.7521358140730021,0.20659199793355942,-0.03725830046199164,-0.20320450944027738,-0.0756628431428952,0.316077687003566,6.274318841476988,-0.0012492265087298352,-0.006765139652539259,-0.0025195726766584106
5.148,-1.7546553867496604,0.2065454548657098,-0.03776166095395829,-0.20306423094105291,-0.05308287041105463,-0.001397689725213958,0.6780772592144315,-0.0012634409552076252,-0.006760923647303411,-0.0017676595846881195
5.182,-1.7564230463343484,0.21275364959941317,-0.03926635028731682,-0.20909870672240807,-0.05400762329892755,0.18643227428538664,-0.027770356993180628,-0.0013138319275647883,-0.006961807027131105,-0.0017984538558542874
5.216,-1.7582215001902028,0.20647598056134311,-0.03847262426004756,-0.20286002004168627,-0.0519856001579255,-0.18851858973183364,0.06072141564570714,-0.0012869866211358259,-0.006754126046595456,-0.0017311204852589193
5.249,-1.7599526206754619,0.20645658749355275,-0.03882009508958857,-0.20277406820577012,-0.04042206346374418,-0.0005823744081190118,0.34725335417961906,-0.0012972551174125523,-0.006751504056311665,-0.0013460547133426813
5.283,-1.7612986753888045,0.2127184697073544,-0.040278705874481714,-0.20887023054450735,-0.041455516625998286,0.18804451092497415,-0.031034629497120197,-0.0013460831823786904,-0.0069544503095366516,-0.001380468703645743
5.316,-1.7626791440924503,0.2064950576863766,-0.03938015491112359,-0.2027052348807892,-0.040375101542411515,-0.1868892498792128,0.032444897405008125,-0.0013158982834641049,-0.0067492003804427055,-0.0013444908813623035
5.349,-1.7640236349738125,0.20178126300292012,-0.038747478082134856,-0.19802603627131485,-0.2786814634782861,-0.14155539589959396,-7.156347205281518,-0.0013208717494574283,-0.0065881850375048,-0.009280092733826928
5.383,-1.7733037277076396,0.22460350200221044,-0.04517363168880791,-0.22001380891139738,-0.04450257790820409,0.6853525225012105,7.032398966068528,-0.0015097120169209174,-0.007325342126380728,-0.0014819358443431963
5.416,-1.7747856635519828,0.21804965513351593,-0.0441719660399437,-0.21352866205737184,-0.043260111915087225,-0.19681221827911433,0.037311291084590525,-0.0014760494235207748,-0.007109442111946991,-0.0014405617267724048
5.449,-1.776226225278755,0.1902799264063076,-0.038814828841998245,-0.1862789828594633,-0.26259734629966014,-0.833925787603854,-6.58670373527246,-0.0013196402495407099,-0.006197359482276891,-0.008744491631778683
5.483,-1.7849707169105338,0.21284935922181786,-0.04523916336391427,-0.20798622026295768,-0.027771338469603953,0.6777607452105185,7.051832066968654,-0.0015096682846937085,-0.006925243165191318,-0.0009247855710378117
5.515,-1.7858955024815717,0.20662199159324077,-0.04410229040095813,-0.20186043542840884,-0.027193583497399476,-0.18700803689420692,0.01734999916529959,-0.0014716513889449889,-0.006721286241546116,-0.0009055463304634026
5.549,-1.786801048812035,0.2016838081567869,-0.04322667079625953,-0.1969969883132619,-0.25319625034843724,-0.14829379689050623,-6.786866872403536,-0.0014670877798985097,-0.006553853323325788,-0.00843143513660296
5.582,-1.795232483948638,0.22468706239386377,-0.050005610243059745,-0.21905185448063033,-0.019200373839595913,0.6907884155278335,7.026903198463702,-0.0016675205884449525,-0.007293893473421467,-0.000639372448858544
5.616,-1.7958718563974965,0.2180497260585754,-0.04866433509400828,-0.21254991301827877,-0.018272648282077027,-0.19931940946811932,0.027859626351918496,-0.0016226775348370344,-0.007077418205182047,-0.0006084791877931651
5.648,-1.7964803355852899,0.21800108748981922,-0.048782774273334654,-0.2124728572805023,-0.0001275174829573022,-0.001460617680365489,0.544898822796388,-0.001624483300024967,-0.007075342263522541,-4.246332182478163e-06
5.682,-1.7964845819174722,0.22453964046565775,-0.050246855686621315,-0.2188453875092064,0.0001676670349026543,0.19635294221737307,0.00886439993573443,-0.0016732019015177405,-0.007287555627082803,5.583312262258389e-06
5.715,-1.79647899860521,0.2179164735619434,-0.04876355599252102,-0.21239045425027336,0.0005797626637430212,-0.19889390101244261,0.012375244109320326,-0.0016237600361439486,-0.007072617366167104,1.930609670264261e-05
5.748,-1.7964596925085075,0.21794208141646185,-0.048765185385981194,-0.21241635423481542,0.06093316369059086,0.0007690046401933649,1.8124144452506856,-0.0016167051632813652,-0.007075106796106807,0.002029074350896676
5.782,-1.7944306181576108,0.22455825118389994,-0.04980137690748071,-0.2189662783007707,0.0628745135894483,0.19868377679994265,0.05829879576148473,-0.0016507533300328834,-0.007293307396331925,0.0020937213025286287
5.815,-1.7923368968550821,0.2179886191659205,-0.04789925007385604,-0.21266099766583185,0.060920091231431654,-0.19728624678616943,-0.05869136210260205,-0.0015878628161215755,-0.007083223824581652,0.0020286390380066742
5.849,-1.7903082578170755,0.20655420049182363,-0.04497785709982185,-0.20159769371578756,0.00022452845656391392,-0.3433759361590649,-1.8226895728188508,-0.001497739342344372,-0.00671320839877481,7.476797603578334e-06
5.882,-1.790300781019472,0.21284544807811057,-0.04634624375540324,-0.2077383220721117,0.00037505273711138074,0.18892635394255058,0.004520248665089093,-0.001543288571080214,-0.006917695349036368,1.248925614580898e-05
5.916,-1.790288291763326,0.20661521732211663,-0.04498711740708804,-0.2016581446321134,0.00020036761191163208,-0.18709401669651463,-0.005245799555548007,-0.0014980504050802282,-0.006715220812802176,6.672241476657349e-06
5.949,-1.7902816195218494,0.20662605671167858,-0.044988131925193575,-0.2016690241412875,-0.00014769576243104344,0.0003255071940525748,-0.010452353583864128,-0.0014981231060110921,-0.006715574418809316,-4.918268888953747e-06
5.982,-1.7902865377907384,0.21288542587059328,-0.04635198933469326,-0.2077780008394064,-0.0006448313377914949,0.1879690438112523,-0.014928996257070613,-0.0015435973829895607,-0.006918990442120905,-2.147288354845678e-05
6.015,-1.790308010674287,0.20662281033811244,-0.04499274727973657,-0.20166466830915464,-0.0010311650609720838,-0.188066532506932,-0.011601613308726394,-0.0014983755789582727,-0.006715407328705411,-3.4337796530370396e-05
6.049,-1.7903423484708174,0.2130391512355012,-0.046397064813102254,-0.20792544898561974,-0.2437692779816955,0.1926829098314945,-7.289432820442144,-0.0015731094970694835,-0.006917570151610511,-0.008117516956790461
6.082,-1.7984598654276078,0.22465095607302848,-0.05070416321736357,-0.21885415211266324,0.007566335345491007,0.348702847973792,7.5476160158314265,-0.0016875324501184697,-0.0072880554462482474,0.00025195896700485053
6.115,-1.798207906460603,0.21802413393601514,-0.049154959185885874,-0.21241071763445313,0.007588533434733636,-0.19900366777817866,0.0006666092865654382,-0.0016359683155500553,-0.007073483199647984,0.0002526981633766301
6.149,-1.7979552082972263,0.2179611695992499,-0.049087101601279964,-0.21236178542632997,0.024401864442361754,-0.0018908209238806455,0.5049048350639074,-0.0016317290503760917,-0.007072310363033553,0.0008125820859306464
6.183,-1.7971426262112957,0.2245282536703398,-0.05038829934790263,-0.218801179121774,0.02554966270816771,0.1972097318645611,0.03446841639056923,-0.001674832605424925,-0.007286791731946162,0.0008508037681819848
6.216,-1.7962918224431137,0.21791642845984927,-0.04872379062409963,-0.21239953394467587,0.025124188291087916,-0.1985533096243402,-0.012777009521915702,-0.0016195452114324905,-0.007073581942975642,0.0008366354700932277
6.249,-1.7954551869730204,0.21793855260041647,-0.0485510012876205,-0.21246179182039765,0.03263070503948621,0.0006643886056218923,0.22542092337532407,-0.0016129060757228213,-0.007075854224768501,0.0010866024778148908
6.283,-1.7943685844952055,0.22457640641153248,-0.04979181880652705,-0.21898707061526668,0.03353638183499573,0.19933494928276294,0.027197501366652263,-0.0016539973120424114,-0.007293193325747256,0.0011167615151053579
6.315,-1.7932518229801002,0.2180073464965529,-0.048097930823737,-0.21263535025235833,0.03243953557846218,-0.19726906651590329,-0.03293832602202852,-0.0015978382353049694,-0.007081620444770526,0.0010802365347627907
6.349,-1.7921715864453374,0.21804411513539723,-0.04787627967772417,-0.21272305467296843,0.024909002712686815,0.0011041633286585923,-0.22614212810136225,-0.0015913439793052426,-0.007084337685756791,0.000829469790332471
6.383,-1.7913421166550048,0.2246903174206629,-0.049153753883412185,-0.21924791269648886,0.025515157089461036,0.19958565421218202,0.01820283413736398,-0.0016337201170875117,-0.007301649542766498,0.0008496547310790526
6.416,-1.7904924619239257,0.21809947239935568,-0.047531088034203015,-0.21285717166955445,0.024442233945475497,-0.19792327391312964,-0.03221991423379996,-0.0015799023414955848,-0.007088786746214115,0.0008139263903843341
6.448,-1.7896785355335414,0.21809490946963264,-0.047356831451479606,-0.21289133390404466,0.04875095184478397,-0.00013702491660763638,0.7299915285077619,-0.0015712293011443564,-0.007090557926043865,0.0016234066964313065
6.482,-1.7880551288371103,0.22470604484166798,-0.0484362145310017,-0.21942365348861664,0.0498424063124843,0.1985325937548149,0.032776410441451305,-0.0016068634168929007,-0.007308142404448254,0.0016597521302057273
6.515,-1.7863953767069043,0.21807717220599496,-0.04665382683283935,-0.21302833961521325,0.04854116787625098,-0.19906524431450515,-0.03907622931631602,-0.0015478403395681043,-0.007095095818754275,0.0016164208902791576
6.549,-1.7847789558166252,0.2065508574919524,-0.04386177079501056,-0.2018400401144104,0.023365518759098154,-0.34613557699827496,-0.7560254990135983,-0.0014579838036484615,-0.006721840491832638,0.0007780717746779687
6.583,-1.7840008840419472,0.21277004774808722,-0.0450206484963925,-0.20795248117704104,0.02350751990007413,0.1867624701541988,0.004264298527807107,-0.0014964789213725582,-0.006925403297549453,0.0007828004126724686
6.616,-1.7832180836292748,0.20649476564755137,-0.04353484526498413,-0.20185342575143742,0.02335442784184249,-0.1884469099260015,-0.004597359106055322,-0.0014470982527027179,-0.006722281734065099,0.000777702447133355
6.648,-1.7824403811821414,0.20646267378435415,-0.04337110875305723,-0.20185584606772017,0.01654516635845298,-0.0009637196155321326,-0.20448232682851378,-0.0014424079471621039,-0.006722196807601264,0.0005509540397364843
6.683,-1.7818894271424048,0.21270242723575197,-0.04456729731593827,-0.20798095720986848,0.017439309733073498,0.18737998352546012,0.026851152391006564,-0.0014820817753386677,-0.006926196016279936,0.0005807290141113475
6.716,-1.7813086981282935,0.20645195686758974,-0.04314040477116445,-0.20189431881714068,0.01708882288381258,-0.18770181285772464,-0.010525130608436007,-0.0014346642909958348,-0.006723488816820582,0.0005690578020309589
6.749,-1.7807396403262625,0.22956812641888838,-0.0478430210504935,-0.22452743708562828,0.016500157637726567,0.6941792658047639,-0.017677635017597934,-0.0015911204495722734,-0.007477200541193673,0.0005494552493362948
6.783,-1.7801901850769262,0.2246199972606003,-0.04669109311273601,-0.21971364316603081,0.027152303502841736,-0.14859246721585803,0.3198842602136687,-0.0015515074783813252,-0.00731716581416664,0.0009041717066446299
6.816,-1.7792860133702815,0.21802873867969422,-0.045128139821258094,-0.21330724761838585,0.026374393251677647,-0.19793569312030299,-0.023360668203125802,-0.0014996495413072523,-0.007103789946487681,0.0008782672952808657
6.848,-1.7784077460750005,0.21806600097793288,-0.04494846228525346,-0.21338326204437635,0.02738063719078489,0.0011189879350950783,0.030217535708926237,-0.0014935461063020888,-0.007106343606749058,0.000911775218453137
6.882,-1.7774959708565472,0.22469975587651456,-0.04611533768087273,-0.21991670223415122,0.02796289205979089,0.19921185881626643,0.017485131201381378,-0.0015322329208704818,-0.007323939682684624,0.0009311643055910368
6.915,-1.7765648065509563,0.21809395907441434,-0.04456084611239382,-0.21349310522473525,0.026668800846663218,-0.19837227633934582,-0.03886159799182199,-0.0014807210937055571,-0.007109977966702328,0.0008880710681938853
6.948,-1.7756767354827623,0.21809035767405827,-0.04437049881024229,-0.21352906815168976,0.03374286355422789,-0.00010815016084305079,0.21243431554248263,-0.0014735443823349873,-0.007111346186767615,0.0011236373563557889
6.9830000000000005,-1.7745530981264064,0.22468632796728308,-0.045465234923499666,-0.22003831118414924,0.03480345807412384,0.19807718598272708,0.03184968528216068,-0.001509747954805107,-0.007328151042356296,0.001158955153868324
7.015,-1.7733941429725382,0.21804639728093733,-0.04387413831474777,-0.21358673028616443,0.03362965984138972,-0.19939731790828066,-0.03524919617820181,-0.0014570279109236083,-0.0071132543099288485,0.0011198676727182779
7.048,-1.77227427529982,0.21799375984826072,-0.043624388302057,-0.21358415689852217,0.03337166441753426,-0.001580703683982313,-0.007747610325989837,-0.001448741841817761,-0.007113157744075567,0.001111276425103891
7.082,-1.771162998874716,0.22458939517790355,-0.04469973097252634,-0.22009618460427774,0.034843244655146606,0.19806712701630116,0.04419159872709749,-0.0014842507067308935,-0.007330064444317221,0.0011602800470163822
7.115,-1.7700027188276994,0.21795050570325936,-0.04313054806840483,-0.21364030228312617,0.0344916861114888,-0.1993660502896154,-0.010557313623357599,-0.0014321632383672111,-0.007115044935745557,0.001148573147512577
7.148,-1.768854145680187,0.21793207801304995,-0.04288151222508163,-0.2136716325027173,0.041635234588040006,-0.0005533840903725205,0.21452097527180802,-0.001423023314358132,-0.007116252597597339,0.0013864533117817323
7.183,-1.7674676923684052,0.22452946518925893,-0.04387439409048202,-0.22020108601314325,0.04321866120574783,0.1981197350212905,0.04755034888011475,-0.0014557422435438785,-0.007333744577434768,0.0014391814181514027
7.215,-1.7660285109502538,0.21795115121410383,-0.04228128394802567,-0.2138106576933423,0.04191462846167034,-0.19754696622087378,-0.0391601424647893,-0.0014029993839000385,-0.0071208748033996135,0.0013957571277736225
7.248,-1.7646327538224802,0.20658518598839265,-0.03979344738314287,-0.20271635507581479,0.018430331708561228,-0.3413202770483837,-0.7052341367300033,-0.0013230520440458478,-0.0067508604794839925,0.000613730045895089
7.282,-1.7640190237765851,0.2128065842712496,-0.040863675920137406,-0.20884636051291497,0.035476378392844336,0.18682877726297142,0.5118932938223155,-0.0013566540092050665,-0.006955385600319711,0.0011813634004817165
7.316,-1.7628376603761036,0.20658005520736214,-0.03942850938694308,-0.20278242492139337,0.03439003008210074,-0.18698285477139515,-0.03262307239470265,-0.0013091043548288793,-0.0067534047216652226,0.0011451880017339547
7.348,-1.7616924723743694,0.206606233616542,-0.03920122664428573,-0.20285314786514033,0.027333319513404977,0.0007861384138099772,-0.211913230291164,-0.001302328272798166,-0.006755602630047962,0.0009101995397963859
7.382,-1.7607822728345732,0.21287287524810655,-0.04019999811696972,-0.2090426300250539,0.027702899268452815,0.1881874363833195,0.011098491142577735,-0.0013354507726549205,-0.006961735696125641,0.0009225065456394788
7.415,-1.7598597662889337,0.20660855443464837,-0.03882982699159211,-0.20292693094160294,0.026392677627968958,-0.18811774214589125,-0.03934599520972544,-0.0012900653939397998,-0.006758033792979214,0.0008788761650113663
7.449,-1.7589808901239223,0.2180562091718063,-0.040793043752001434,-0.21420653103914886,0.026561520541201252,0.3437734155302678,0.00507035775472355,-0.00135525549161249,-0.007133676945747177,0.0008844986340220017
7.483,-1.7580963914899004,0.22470682734318395,-0.04184195317526291,-0.22077683123262412,0.03535414461650641,0.19971826340473448,0.26404276502417895,-0.0013890110365419542,-0.007352686592685888,0.0011772930157296637
7.515,-1.7569190984741707,0.21807507756203207,-0.040354799718799766,-0.21430872495850903,0.03460035220823029,-0.19915164507963617,-0.02263640865694067,-0.0013397051480271301,-0.00713725276945606,0.0011521917285340687
7.549,-1.7557669067456367,0.21800832865281064,-0.04009557194654924,-0.21428946887859654,0.03790560875165943,-0.002004471748391163,0.09925695325613036,-0.001330680472152275,-0.007136679733912245,0.001262256771430259
7.582,-1.7545046499742065,0.2245854199397331,-0.041026533367568195,-0.2208063278290414,0.03939394369719314,0.19751024885653046,0.04469474310912035,-0.0013613623370006553,-0.007353744335473776,0.0013118183251165315
7.616,-1.75319283164909,0.21794553361567878,-0.03953245234303179,-0.21433021447002962,0.0388893486700857,-0.199395985707337,-0.015153003817040175,-0.0013118108179747236,-0.007138046194469609,0.001295015310713854
7.648,-1.7518978163383763,0.21793572838537004,-0.03925309231109398,-0.2143715849894256,0.0600829519507988,-0.0002944513606230005,0.6364445429643574,-0.001299987721504575,-0.007139876295114529,0.0020007622999616004
7.683,-1.7498970540384147,0.22454093388469126,-0.04000079017656748,-0.22094924253108342,0.062135944918590015,0.1983545194991359,0.061651440474210555,-0.001324415421299597,-0.007358982236923071,0.002069126965789048
7.716,-1.7478279270726258,0.21796809164983397,-0.03838600045444977,-0.21456142231673755,0.06023331838342936,-0.19738264969541428,-0.05713593198680649,-0.0012710893674137238,-0.00714617217282511,0.0020057695021681978
7.749,-1.7458221575704576,0.21800302802315932,-0.03796164636578196,-0.21467238674889164,0.048215369463420414,0.0010491403401007818,-0.3608993669672355,-0.0012583854089355377,-0.007149601890189813,0.0016055718031319
7.782,-1.7442165857673255,0.22464800592336284,-0.0387635319266751,-0.22127836577016044,0.04953958549075482,0.19954888589199754,0.03976624706709935,-0.0012847491550297056,-0.007369630610716422,0.0016496681968421357
7.816,-1.7425669175704834,0.21806840379167744,-0.03727381082174709,-0.21485923708110546,0.04788987180465215,-0.19758564960016223,-0.04954095153461476,-0.0012355142847098853,-0.007155798936502453,0.0015947327310949168
7.849,-1.7409721848393886,0.21807658336000596,-0.036932505768444375,-0.21492646702450924,0.05641182761723946,0.00024563268253814354,0.2559145889665858,-0.0012231313274667073,-0.007158201962162351,0.0018785138596540741
7.883,-1.7390936709797344,0.2246814546836566,-0.03763504081485934,-0.22150701971185452,0.05764515452410778,0.1983444841937131,0.0370368440500998,-0.0012461684662857032,-0.0073773817484666165,0.0019195836456527894
7.916,-1.7371740873340817,0.21808219698329553,-0.0361168593464189,-0.21507072583690212,0.05557511618503196,-0.1981759069177499,-0.06216331348576033,-0.001196065601145865,-0.007162963642912759,0.0018506513689615645
7.949,-1.7353234359651202,0.2180903577949963,-0.03572011341737115,-0.2151452478224877,0.063064287045313,0.0002450694204435198,0.22490002583426535,-0.0011819581244434491,-0.007165580147544825,0.002100040758608923
7.9830000000000005,-1.733223395206511,0.22464382394916066,-0.03632800712988822,-0.22168699451359855,0.06445443564543021,0.196800785410341,0.04174620420772413,-0.0012018013848911833,-0.007383469160656473,0.002146332706992826
8.016,-1.7310770624995182,0.2180159297980755,-0.0347943286826325,-0.21522151457799082,0.06306522483440663,-0.19903586039294796,-0.04171804237308058,-0.0011511267374596432,-0.007168087484147208,0.002100071986985741
8.048,-1.7289769905125327,0.206537176600594,-0.03253411722644613,-0.20395866378862362,0.01683726183527796,-0.3447073032276722,-1.3882271170909508,-0.0010814838431185483,-0.006792126575611633,0.0005606808191147561
8.083,-1.728416309693418,0.21278467341927845,-0.03340041436195665,-0.2101469237524037,0.054687817147292477,0.18761251707761095,1.1366533126731087,-0.0011058631132292052,-0.006998901143441052,0.0018211043110048395
8.116,-1.7265952053824132,0.2064930040172954,-0.03204138546072646,-0.20399193691380038,0.053604462558131824,-0.18893902108057228,-0.03253317084566524,-0.0010609166015588323,-0.006793879900717268,0.0017850286031857899
8.148,-1.7248101767792272,0.20646536641392652,-0.03167296339893299,-0.20402149621539095,0.012636080456127548,-0.0008299580591255152,-1.2302817448049332,-0.0010532820924169081,-0.006794137242589259,0.0004207814791890474
8.183,-1.7243893953000382,0.2127393633072021,-0.03254697017751923,-0.21023494341478394,0.013071652961118741,0.18840831511338124,0.01308025540514094,-0.0010822922670232539,-0.007001058989393633,0.0004352860436052541
8.216,-1.7239541092564332,0.20651543040426734,-0.03150593338527057,-0.20409801360273616,0.012624536991320897,-0.1869048919800231,-0.013426905999935257,-0.0010477207640582902,-0.006796683901511012,0.0004203970818109859
8.248,-1.7235337121746221,0.21802807791680442,-0.03317171113228235,-0.2154898613407428,0.017040568366147636,0.3457251505266391,0.13261355479960174,-0.0011025838823842077,-0.0071761251105381535,0.0005674509265927163
8.283,-1.7229662612480294,0.22465099503684172,-0.03405334982327515,-0.22205503582863576,0.01303087230701787,0.19888640000111985,-0.12041129306695991,-0.001132374167804502,-0.007394678189926063,0.00043392804782369513
8.315,-1.7225323332002058,0.21805451174975343,-0.03295990311104165,-0.21554910085948883,0.012257877679615675,-0.19809259120385236,-0.023213051873939794,-0.0010961017247965515,-0.007178008571799884,0.000408187326731202
8.349,-1.7221241458734744,0.21806101647276152,-0.03287289654929664,-0.21556896710239443,0.009112085710296525,0.0001953370272699205,-0.09446822730688136,-0.0010935802737308254,-0.007178612280334684,0.00030343245415287434
8.383,-1.7218207134193215,0.224674390676072,-0.033802472766865134,-0.22211702919972068,0.008990748486944606,0.19859982592523975,-0.003643760461018601,-0.001124517081236711,-0.007396665161852059,0.00029939192461525543
8.416,-1.7215213214947063,0.2180865685133125,-0.03274677712082526,-0.21561400685973706,0.00852513647237091,-0.19783249738016495,-0.01398234277999085,-0.0010894504392601374,-0.007180100825078784,0.00028388704452995137
8.449,-1.7212374344501764,0.21802992512157324,-0.03267707639179513,-0.21556729094879773,0.01456374881741045,-0.0017010027549331835,0.1813397100612474,-0.0010864078612340317,-0.007178654077065752,0.000484972835619768
8.483,-1.7207524616145566,0.2246242423489846,-0.033557684710361586,-0.22210342646554404,0.01512131857238951,0.19802754436670736,0.016743836485857685,-0.0011156107325511397,-0.007396324835611602,0.0005035399084605708
8.516,-1.720248921706096,0.2180121723625196,-0.03246132611693261,-0.21558193246409843,0.01510350205091415,-0.1985606602542039,-0.0005350306749357812,-0.0010791587402738665,-0.007179149592552333,0.0005029466182954412
8.549,-1.7197459750878006,0.21798878735849742,-0.032349425489236215,-0.2155751054378602,0.021687499464071665,-0.0007022523730386225,0.19771764003476022,-0.0010746455092603994,-0.007179039085773955,0.0007221937321535866
8.583,-1.719023781355647,0.22455969366675269,-0.033164156063301926,-0.22209726421618695,0.023001134723112517,0.1973245137614195,0.03944850627750305,-0.0011015358933746187,-0.007396260818248312,0.0007659377862796469
8.616,-1.7182578435693674,0.21793798399792555,-0.03202112125953676,-0.2155727549166687,0.02273383152135728,-0.19885014020501907,-0.008027123175832956,-0.0010635879374717562,-0.007178975383544745,0.0007570365896611975
8.648,-1.7175008069797062,0.21794652309727316,-0.03185916387159658,-0.2156053816758593,0.015099346666825275,0.00025642940983829787,-0.22926380944540553,-0.0010591070389566301,-0.007179925340860626,0.0005028082440052817
8.682,-1.7169979987357011,0.22458570648431866,-0.03271795712714821,-0.22218972712186003,0.015447862874226288,0.19937487648785282,0.010465952174204598,-0.0010876068527934184,-0.007399197524582349,0.0005144138337117354
8.716,-1.7164835849019893,0.21801819827007762,-0.03165023413194824,-0.2157085938397535,0.014911981820968704,-0.19722246889612735,-0.016092524121849378,-0.0010521712254295394,-0.007183357278051117,0.0004965689946382579
8.749,-1.7159870159073511,0.21803634930152702,-0.031545742146073114,-0.2157422438216284,0.00758529167932498,0.0005450760195012815,-0.22002072497428599,-0.0010495677946833941,-0.007184349031443417,0.00025259021292152185
8.782,-1.7157344256944296,0.22466145832585538,-0.03244811906130511,-0.2223058488355253,0.007476429005258499,0.19895222295280368,-0.003269149371365794,-0.0010796028184429582,-0.007402918906823476,0.00024896508587510805
8.816,-1.7154854606085546,0.21805750773109,-0.03144058224159222,-0.21577897595967047,0.006860938789447504,-0.1983168346776388,-0.018483189663993833,-0.0010461524775892822,-0.007185559157197671,0.0002284692616886019
8.848,-1.715256991346866,0.20655627757328238,-0.02973558003539849,-0.20440472373428475,0.025565936103303648,-0.34538228702125007,0.5617116310467309,-0.000987299100891435,-0.006807097712752059,0.0008513456722400116
8.883,-1.714405645674626,0.2128582492870062,-0.03046346446811498,-0.21066706344877256,0.0156493320760483,0.1892483998115261,-0.29779591673439476,-0.0010126073058669266,-0.007015476946322591,0.0005211227581324085
8.915,-1.7138845229164934,0.20655069583330646,-0.029454217128632356,-0.20443981765439542,0.01468958150052657,-0.18941601963062274,-0.0288213386042562,-0.000979162140962265,-0.006808085285980385,0.0004891630639675349
8.949,-1.713395359852526,0.20654917528105188,-0.029353993105933843,-0.20445269599107632,0.015798279114339047,-4.566222986727489e-05,0.03329422263701132,-0.0009756988907786016,-0.0068085313209337,0.0005260826945074903
8.982,-1.7128692771580183,0.21280419043419949,-0.03013211190895511,-0.21066010371748428,0.01661079047258977,0.18783829288731554,0.024399740488009688,-0.0010014610229265885,-0.007015258337707584,0.0005531393227372394
9.016,-1.7123161378352811,0.20653042435089697,-0.02913068142396468,-0.20446569292264422,0.01662569826521576,-0.18840138388295846,0.00044768146023995944,-0.0009681686932265981,-0.006808975494888621,0.0005536357522316848
9.049,-1.7117625020830494,0.218002910417391,-0.030629359119487155,-0.21584047653390337,0.01586334900505593,0.344519101095917,-0.022893371175970872,-0.0010180611424850745,-0.007187756657757523,0.0005282495218683625
9.083,-1.7112342525611808,0.22459397133479167,-0.03143793245857597,-0.22238279691258322,0.007133920827742893,0.19792975727929923,-0.2621449903097008,-0.0010460055185238465,-0.0074054711359891065,0.00023755956356383834
9.116,-1.710996692997617,0.21793763621470033,-0.030454936040060714,-0.21579923574852358,0.007828481044471036,-0.19988994354628645,0.020857664166010315,-0.0010132146145430273,-0.007186246386212968,0.00026068841878088553
9.148,-1.7107360045788362,0.21795951055872934,-0.030401729751813596,-0.21582882817431623,0.0009634835037425198,0.0006568872080782218,-0.20615608230415963,-0.0010122642296586837,-0.0071871159464835235,3.2084000674625916e-05
9.182,-1.7107039205781616,0.22460201037685765,-0.03132111239081201,-0.22240739867173526,0.0008541543439751204,0.19947446901286217,-0.0032831579509729554,-0.0010428896975869968,-0.007406180928630158,2.844333965437151e-05
9.216,-1.710675477238507,0.2180318489452266,-0.030398751818353487,-0.21590229976162886,0.0006972881051097928,-0.19730214509402566,-0.0047106978638236496,-0.0010121968911399684,-0.007189558062742641,2.3219693900156104e-05
9.248,-1.710652257544607,0.21805361635496215,-0.030396773011635445,-0.21592456042784047,0.0004455268762243997,0.0006536759680347419,-0.007560397263825619,-0.0010121611289133842,-0.007190295099587216,1.4836044978272512e-05
9.283,-1.7106374214996287,0.22466788447852132,-0.031315504346376775,-0.2224747120541709,1.7791725794337777e-05,0.1986266703771522,-0.01284489941231417,-0.0010428060839944673,-0.0074084079424390405,5.92464468951448e-07
9.316,-1.7106368290351597,0.2180601771772716,-0.030394356095267215,-0.21593152615618028,-0.00045093571707508217,-0.19842964868617746,-0.014075899185267865,-0.0010121879703585675,-0.0071905119505308885,-1.5016159378600237e-05
9.348,-1.7106518451945383,0.21807308437147163,-0.03039939781750683,-0.21594385089559726,-0.0007626058671277362,0.0003876034294301387,-0.009359463965545167,-0.001012393178804949,-0.007190917109414314,-2.539477537535362e-05
9.382,-1.7106772399699137,0.22467387248960544,-0.031325197803854954,-0.22247939446615014,-0.0012418576273146844,0.19822186540942355,-0.014391944750358803,-0.0010432842567607663,-0.0074085419855449515,-4.135385898957899e-05
9.416,-1.7107185938289033,0.21804154552275654,-0.03040941310537551,-0.21591059068174243,-0.001605151214315962,-0.19916897798345046,-0.010909717327365695,-0.0010128275347063135,-0.007189795331654219,-5.3451535436721545e-05
9.449,-1.71077204536434,0.20649809204338873,-0.02881042191192145,-0.20447841354729088,0.02999539065984769,-0.3466502546356698,0.9489652214463559,-0.0009559880754256351,-0.006809608923058159,0.000998846508972928
9.483,-1.709773198855367,0.21280998177001784,-0.029480550629320007,-0.21075812078196993,0.0125360809072658,0.18954623803691004,-0.5243035961736303,-0.0009802392983222765,-0.007018449862264591,0.0004174514942119512
9.516,-1.709355747361155,0.20650535197320208,-0.028521793460521652,-0.20452620294566518,0.012840055666915469,-0.18932822212659933,0.009128371160650692,-0.0009483214736815863,-0.006810925146260285,0.00042757385370828516
9.549,-1.7089281735074466,0.20647922443755892,-0.028430743220554295,-0.2045125007530413,0.013288378754542432,-0.0007846106799746431,0.013463155784593495,-0.00094523876038604,-0.006810475268190352,0.00044250301252626303
9.583,-1.7084856704949203,0.2127215140471295,-0.02919702660085726,-0.21070827268090814,0.014063913283835038,0.1874561444315487,0.023289325203982157,-0.0009706197964179835,-0.007016812632540418,0.0004683283123517068
9.616,-1.7080173421825686,0.20647536977707032,-0.028243927778997664,-0.2045344931012681,0.013759400629255571,-0.18757190000177712,-0.00914452416154555,-0.0009389642269871849,-0.006811213598671688,0.00045818804095421056
9.649000000000001,-1.7075591541416144,0.21802488407804363,-0.029724834407465595,-0.21598908374427886,0.02239493899492751,0.34683226129048983,0.2593254764466048,-0.0009871569351736036,-0.007192804643850617,0.0007457514685310862
9.683,-1.7068134026730835,0.22461840122775686,-0.0304578201346129,-0.22254380998527262,0.0063645924248898695,0.19800351800940644,-0.48139178889001927,-0.0010134620710794827,-0.0074108160257028155,0.00021194092774883268
9.715,-1.7066014617453347,0.21803780170853532,-0.02951971859761805,-0.21603025063126693,0.005886789718008696,-0.19761560117782423,-0.01434842963607128,-0.0009823034479858896,-0.00719390338634916,0.0001960300976096896
9.749,-1.7064054316477248,0.21805161627948266,-0.02947923724459851,-0.21604972097545375,0.015063770070625728,0.0004148519804007759,0.275584995574085,-0.0009798560315067524,-0.007194701355910063,0.0005016235433518368
9.783,-1.705903808104373,0.22466136502612044,-0.030261170008578184,-0.2226139944502853,0.01509402728437324,0.19849095335248582,0.0009086250374628095,-0.0010058358902352387,-0.0074132986836341315,0.0005026311085696289
9.816,-1.7054011769958035,0.21806287934154062,-0.029263764967229208,-0.2160903778669149,0.014313592105392776,-0.19815272326065536,-0.02343649186127518,-0.0009727703487191568,-0.007196041290165682,0.00047664261710957947
9.849,-1.7049245343786938,0.21803639913571227,-0.029157222661110854,-0.21607805930903312,-0.07521854892038764,-0.0007952013762267193,-2.688652883657069,-0.0009799478589491188,-0.007194175600536974,-0.0025047776790489084
9.883,-1.7074293120577428,0.22465055645628756,-0.03059926097768085,-0.22255686406790381,-0.07803517131859876,0.19862334296021913,-0.08458325520153517,-0.00102858541469501,-0.007409811043995458,-0.002598571204909339
9.915,-1.710027883262652,0.21802750413060726,-0.030258325442436857,-0.21591763776690764,-0.07570915131149225,-0.1988904602306398,0.06985045066385909,-0.0010166665697937784,-0.00718877930895773,-0.002521114738672692
9.948,-1.7125489980013249,0.21802255591529132,-0.03080188276744069,-0.2158357683652484,-0.0683569370305979,-0.0001485950545326236,0.2207872156424728,-0.0010338839417097386,-0.007186157207040398,-0.0022762860031189103
9.982,-1.7148252840044438,0.22460021461139618,-0.032237207761468864,-0.2222746473154982,-0.06973442032937888,0.19752728817131693,-0.04136586482825738,-0.0010820940363717895,-0.007400492398002655,-0.002322156196968317
10.016,-1.7171474402014122,0.21796427413341943,-0.031785562724950624,-0.21563418745821972,-0.06713802911852453,-0.19927749183113355,0.0779697060316622,-0.0010664871174168814,-0.007179428978674004,-0.002235696369646867
10.049,-1.719383136571059,0.21793747285638015,-0.03226360777715061,-0.215536079783009,-0.059797603761701366,-0.0008048431543325337,0.22043319389859334,-0.0010815253354197413,-0.007176276741131799,-0.001991260205264656
10.083,-1.7213743967763238,0.22455076669896323,-0.033684790082598,-0.22200986856935778,-0.061475197323081314,0.19859741269018252,-0.05037818502642485,-0.0011292718240659347,-0.007391775024629703,-0.002047124070858608
10.115,-1.7234215208471824,0.21798043638496598,-0.03314029172921912,-0.21544649384634332,-0.059761810912000224,-0.19730721663655426,0.05145304537781051,-0.0011107116460553894,-0.007173265120951378,-0.0019900683033696074
10.149000000000001,-1.725411589150552,0.21802200949208017,-0.03357538131771622,-0.21542119299719478,-0.001943337302122415,0.0012484416550809488,1.7362904987951293,-0.0011182942286573233,-0.007173489245761842,-6.471313216067642e-05
10.183,-1.7254763022827126,0.224658549737447,-0.034611773123358405,-0.22197632561016525,-0.0019720574556650852,0.19929550286386888,-0.0008624670733534596,-0.0011528167318614112,-0.007391773484392211,-6.566951327364735e-05
10.215,-1.7255419717959863,0.2180673049691046,-0.03361044955428176,-0.2154615677499065,-0.0022314087331921227,-0.197935278328601,-0.007788326652463587,-0.0011194964580167814,-0.007174828317063115,-7.43059108152977e-05
10.248,-1.7256162777068018,0.2065766216699902,-0.03185457081387943,-0.20410582289305174,-0.051949559273452454,-0.34506556453797,-1.4930375537615714,-0.0010666373927265382,-0.00679580271421404,-0.0017299203238059669
10.282,-1.7273461980306077,0.2128687522171098,-0.03318862343340256,-0.2102655961993428,-0.05367444609320297,0.18895286928287106,-0.051798402995510875,-0.001111439849839882,-0.00700085265023025,-0.001787359054903659
10.316,-1.7291335570855115,0.20660900965314957,-0.03257737631769361,-0.20402450201412237,-0.05240443915898284,-0.18798025717598268,0.03813834637297684,-0.0010907559075887933,-0.006793065628948043,-0.0017450678239941287
10.348,-1.7308786249095056,0.20659784055397293,-0.032931582779155553,-0.20395631536489486,-0.05245810523057747,-0.0003354083836830161,-0.0016115937415805952,-0.0011025550625222945,-0.006790783732982508,-0.00174685490417823
10.383,-1.732625479813684,0.2128157609211296,-0.03428966895755154,-0.21003515586496688,-0.054360170008510816,0.18672433535005048,-0.05711906240040074,-0.0011481776252805077,-0.006993133082205717,-0.0018101936612834103
10.416,-1.7344356734749673,0.20654334104700703,-0.03364797691850354,-0.2037841146413334,-0.05229051182528174,-0.18836095718085827,0.06215189739426665,-0.0011263870329683001,-0.006785031757637829,-0.001741274043781882
10.448,-1.7361769475187492,0.21801342629237117,-0.0358910642773254,-0.21503880010077264,0.04877670619687638,0.34444700436528936,3.0350515922570005,-0.001189358324445369,-0.007161759213992516,0.0016242643163559836
10.483,-1.7345526832023932,0.22457885399328423,-0.036612069051458584,-0.2215744075039085,0.05023601544367266,0.19715999101841025,0.0438231005043929,-0.0012130117724480061,-0.00737944376335451,0.0016728593142742998
10.515,-1.732879823888119,0.2179365192259822,-0.0351694501082928,-0.21508006925658457,0.04947633196472622,-0.1994695125315924,-0.022813317686079342,-0.0011652440222226386,-0.007163127518775607,0.0016475618544253834
10.548,-1.7312322620336935,0.21793556885064708,-0.034814892996740406,-0.2151367829913812,0.056235054212524435,-2.853979985356319e-05,0.20296463206601242,-0.001152629377441712,-0.007165135879644141,0.0018726273052770638
10.583,-1.7293596347284166,0.22456651925224305,-0.035458986260995515,-0.2217493672198651,0.05791936538966134,0.1991276396875668,0.05057991522933643,-0.001173664430090736,-0.00738538773368692,0.0019287148674757228
10.615,-1.727430919860941,0.21799736479086548,-0.034006474750248664,-0.21532861103630047,0.0561148055441044,-0.19727190574707412,-0.05419098635306129,-0.0011257174452663334,-0.007171496301800361,0.0018686230246186767
10.649000000000001,-1.7255622968363222,0.21803339376210754,-0.03360960143812947,-0.21542737868384398,0.04897062794810596,0.001081951088349925,-0.21453986774770087,-0.0011133519736076126,-0.007174640784137634,0.0016307219106719286
10.682,-1.7239315749256503,0.2246672943463493,-0.03427017294215565,-0.22203816878055876,0.05020224590481972,0.1992162337610139,0.036985524225638465,-0.0011350179133213674,-0.007394821161463181,0.0016717347886304969
10.716,-1.7222598401370197,0.2180664665187288,-0.032902970049264735,-0.21556989210439628,0.04830705700221895,-0.19822305788650157,-0.056912579657680804,-0.0010898966147073934,-0.007179355279304499,0.001608624998173891
10.749,-1.7206512151388458,0.21806453095799158,-0.03255586754158955,-0.21562062784099145,0.04052103766898012,-5.8124947063517264e-05,-0.23381439439155646,-0.001079267702666974,-0.007180895861591586,0.001349350554377038
10.783,-1.7193018645844687,0.2246812787114345,-0.033243906062434,-0.22220828002825946,0.041392078802387496,0.19870113373702478,0.026157391393614962,-0.0011019241057201304,-0.007400296022111295,0.0013783562241195038
10.816,-1.7179235083603492,0.2180742190733362,-0.03196901755703699,-0.2157182118896856,0.03979171685059163,-0.19841019934229112,-0.04805891747134732,-0.0010598106536728945,-0.007184119380575498,0.0013250641711247014
10.849,-1.7165984441892244,0.21803831068925372,-0.03167793211305994,-0.21572485611367062,0.03812012190842264,-0.0010783298523270029,-0.05019804631138099,-0.001050317325399062,-0.007184305027270559,0.001269400059550474
10.883,-1.715329044129674,0.22462132991841785,-0.03235221800882256,-0.22227927443697565,0.039832857149822994,0.19768826514006388,0.05143349073274327,-0.0010724214604127013,-0.007402611883851749,0.001326434143089106
10.916,-1.7140026099865848,0.21800514118918107,-0.031113106191924998,-0.2157735299057898,0.039145263840626214,-0.19868434622332662,-0.02064844772362701,-0.0010313849414524227,-0.007185931510325652,0.001303537285892853
10.949,-1.712699072700692,0.20653557631157288,-0.029209704955095745,-0.2044596229547286,-0.051605018809749666,-0.3444313777059518,-2.7252337132245006,-0.0009785345460756663,-0.006807666079278665,-0.001718447126364664
10.983,-1.7144175198270568,0.21275692039316985,-0.030451462961417725,-0.21056641607505933,-0.05280893714866876,0.18682714959750657,-0.03615370387144421,-0.0010202003809663893,-0.007010966160153853,-0.0017585376070506698
11.016,-1.7161760574341074,0.20646191679646003,-0.029909759027460976,-0.20428394308458897,-0.050620420293717966,-0.18903914704834274,0.06572122687539916,-0.0010017298059015404,-0.006801812360666276,-0.0016856599957808084
11.049,-1.7178617174298882,0.20650278738638156,-0.030260058647569466,-0.20427366459970006,0.04631300728038753,0.0012273450426884894,2.910913740964129,-0.0010024160339774963,-0.006803087084346444,0.0015422231424369048
11.083,-1.7163194942874513,0.21277054115363683,-0.03085387473403787,-0.21052159413396945,0.04791709914417028,0.18822083385150973,0.04817092684032278,-0.0010218424607117203,-0.00701118554316221,0.0015956394015008704
11.116,-1.7147238548859505,0.20654748425023392,-0.0296253389673591,-0.2044118454032684,0.04643499671361314,-0.18687858568777513,-0.04450758049721133,-0.0009812625022830848,-0.006807674200124161,0.0015462853905633177
11.148,-1.713177569495387,0.21803649183990548,-0.030939522401875846,-0.21583015944811093,-0.04236131489070487,0.3450152429330798,-2.6665559040335736,-0.0010353568849117206,-0.007186414971745751,-0.0014106317858604723
11.182,-1.7145882012812474,0.224671696268928,-0.032194752475584475,-0.2223530279024625,-0.043661926440895615,0.19925538825893443,-0.03905740390963205,-0.0010774696137897674,-0.007403573557058999,-0.0014539421504818242
11.215,-1.7160421434317294,0.21806343330744105,-0.03156155545547358,-0.2157673032761448,-0.042876609112311635,-0.19844633517978824,0.02358310296047988,-0.0010561307385097084,-0.007184298171121246,-0.0014277910834399777
11.248,-1.7174699345151694,0.21806605531351836,-0.03186997701368439,-0.21572461390658615,-0.050813891005689546,7.87389212406306e-05,-0.23835681361495226,-0.0010673493691257278,-0.0071827280404056434,-0.0016921025704894621
11.282,-1.7191620370856588,0.22469393365458243,-0.03321470558848177,-0.22222544218392357,-0.05256583726793057,0.1990353856175396,-0.05261099886609683,-0.0011125278415817562,-0.007399135109884202,-0.001750442381022088
11.316,-1.7209124794666808,0.21804830184226087,-0.03260977329561449,-0.2155960681967608,-0.05173343209941306,-0.1995685228925392,0.024997152207733145,-0.001092090850227426,-0.007178409870327242,-0.001722723288910455
11.349,-1.7226352027555911,0.21803382412555275,-0.03297894724729623,-0.2155252595434524,-0.03265839688562769,-0.00043476626751117885,0.5728238802938549,-0.001102103225415721,-0.007176392273829765,-0.0010875246162914021
11.382,-1.7237227273718827,0.22462196861259567,-0.034216895551063664,-0.22200052441885249,-0.03313035854827198,0.19784217678807578,-0.014173022902231035,-0.0011435022888175185,-0.00739198712852383,-0.001103240939657457
11.415,-1.7248259683115401,0.21798874574663177,-0.03344411706065935,-0.21540794856788034,-0.031480482070475276,-0.19919588186077794,0.04954584017407526,-0.0011174505869539855,-0.007172499334177089,-0.0010483000529468269
11.449,-1.725874268364487,0.21796275934978734,-0.03366589702311747,-0.2153470961982124,-0.027290130060850112,-0.0007803722776103318,0.12583639668544033,-0.0011243345266907752,-0.007170547620813774,-0.0009087613310263088
11.482,-1.7267830296955133,0.22456392925942864,-0.03488710628535322,-0.22183743628943278,-0.027867864529951866,0.19823333061985873,-0.01734938345650912,-0.001165170104467699,-0.0073866462085922305,-0.0009279998888473973
11.516,-1.7277110295843607,0.21794976703615232,-0.03405935087749078,-0.21527206406990443,-0.026667336550785473,-0.19862349018847808,0.03605189126625807,-0.001137361074861203,-0.007168054899870124,-0.0008880223071411563
11.548,-1.7285990518915018,0.21797798201553004,-0.03425493776294595,-0.21526959813782212,-0.03330927103762816,0.0008472966780095027,-0.19945749209737795,-0.0011446667456958455,-0.007167843215986933,-0.0011091987255530179
11.583,-1.729708250617055,0.22462296062291692,-0.03554522096195621,-0.22179272239135844,-0.03444965442357684,0.19954890712873533,-0.034245747325786315,-0.0011878939137743602,-0.0073850167883669155,-0.001147173492305109
11.616,-1.73085542410936,0.2180511579643786,-0.034752241021960215,-0.21526399892587234,-0.03355381661978278,-0.197351431187337,0.026902036149971848,-0.0011612560208751495,-0.007167642839935302,-0.0011173420934387666
11.649000000000001,-1.7319727662027986,0.21807004393161913,-0.034995773616594374,-0.21524367560816826,-0.024829539546425538,0.0005671461633793972,0.2619903025032205,-0.0011683242242845626,-0.007167131494946472,-0.0008268236668959705
11.682,-1.7327995898696946,0.22468077361617217,-0.03624001155615964,-0.2217388364612095,-0.026022909883349262,0.19852041094753856,-0.03583694705476649,-0.001209993518985947,-0.007383379125295833,-0.0008665628991155305
11.715,-1.7336661527688102,0.2180719033373215,-0.03536051551886223,-0.21518594045011952,-0.02573969818580406,-0.19846457293845887,0.008504855782138157,-0.0011805779127780497,-0.007165185984830658,-0.0008571319495872754
11.749,-1.7345232847183973,0.20654733185735716,-0.03366648105692371,-0.20378510335801542,0.030501544273160167,-0.3460832276265564,1.6889261999688954,-0.0011176491467763125,-0.0067866118239840525,0.0010157014242962337
11.782,-1.7335075832941014,0.21284441448545885,-0.034479570047511815,-0.21003310221723748,-0.01867365432952808,0.1891015804234742,-1.4767326907714187,-0.0011503460620003103,-0.006993744560348414,-0.0006218326891732851
11.816,-1.7341294159832745,0.20657435330021182,-0.033590607764962255,-0.20382500953362223,-0.018218548702234074,-0.18829012568309408,0.013666835654474645,-0.0011206278610718737,-0.006787032796159959,-0.0006066776717843947
11.849,-1.7347360936550589,0.20654336916492072,-0.03370920084862325,-0.20377402465511618,-0.018096639103861903,-0.0009304545132461129,0.0036609489000651997,-0.001124562722446452,-0.0067853360848560244,-0.0006026180821586014
11.883,-1.7353387117372174,0.21277590338567678,-0.03485288743376818,-0.2099020278585225,-0.018008992719585504,0.1871631898124944,0.002632023551843818,-0.001162698824412371,-0.006989388791449974,-0.0005996994575621973
11.916,-1.7359384111947798,0.20648626419790947,-0.03394478988174365,-0.2036770201625435,-0.016853074496228363,-0.18887805368670615,0.03471225895967389,-0.0011322664388060469,-0.006782126928591247,-0.0005612073807244046
11.948,-1.736499618575504,0.2180106579010604,-0.03595999256940832,-0.21502447742724845,0.03754388722372966,0.3460778889835111,1.6335423939927332,-0.0011929934048231104,-0.007161061457422986,0.0012502114445501976
11.982,-1.7352494071309539,0.22455766519753675,-0.036762967467045916,-0.22152794230522235,-0.00991660980130325,0.19660682572001092,-1.425240150901889,-0.001225426777887569,-0.007376677885863094,-0.0003302231063833982
12.015,-1.7355796302373372,0.2179791831108215,-0.03575699428808051,-0.21502642076996778,-0.009692439388608164,-0.19755201461607333,0.006731844225077647,-0.0011918653422051644,-0.007160187212780687,-0.0003227582316406519
12.049,-1.735902388468978,0.2179972880414789,-0.03582936964295026,-0.2150327274263812,-0.03575766105083481,0.0005436916113325977,-0.7827393892560555,-0.001197382808878729,-0.0071598774698873715,-0.0011907301129927994
12.083,-1.737093118581971,0.2246426409951618,-0.03718540451630046,-0.2215435890389073,-0.0369655054361168,0.19956014875924633,-0.03627160316162121,-0.0012428162435047746,-0.00737663719170853,-0.0012309513310226894
12.116,-1.7383240699129934,0.21806499018030093,-0.03636129384622613,-0.21501208396776944,-0.03606846843903352,-0.19752705149732322,0.026938047960458882,-0.0012151325182810722,-0.007159173196860305,-0.0012010799990198162
12.148,-1.7395251499120132,0.21807549659621103,-0.03662127860616393,-0.21497861328265602,-0.027641060571815,0.00031550798528844954,0.25307531132788336,-0.0012227849654841403,-0.00715822524657566,-0.0009204473170414396
12.182,-1.7404455972290547,0.2246823167468174,-0.0379346130330014,-0.22145678719053435,-0.02895205801871296,0.1984030075257169,-0.03936929269963846,-0.0012667792886467963,-0.007373900593157149,-0.0009641035320231417
12.216,-1.7414097007610778,0.21808026716702525,-0.037027161443933594,-0.21491391821621508,-0.02850879911674541,-0.1982597471409056,0.013311078137163698,-0.0012364032568283618,-0.007156046798484572,-0.0009493430105876222
12.248,-1.7423590437716654,0.21809904293244622,-0.03723437719647635,-0.21489717002054623,-0.012789781093230174,0.0005638367994286863,0.47204258328874577,-0.0012414305245908473,-0.0071558111753816395,-0.0004258997104045648
12.283,-1.74278494348207,0.224660645420728,-0.03844886399318615,-0.22134608751566304,-0.013496637491940846,0.19704511976822148,-0.021226918880200375,-0.0012820054659634992,-0.007370536404486856,-0.0004494380284816302
12.315,-1.7432343815105515,0.21803078638054113,-0.03741075872693313,-0.21479725077661577,-0.012786244002721795,-0.19909486607167776,0.021333137814385908,-0.0012473028987150581,-0.007152482685811929,-0.00042578192529063585
12.349,-1.7436601634358422,0.21798684092744985,-0.03749465331731873,-0.2147380119823768,-0.0665299764710205,-0.0013196832760143061,-1.61392589994891,-0.001256493932035953,-0.007149386540278645,-0.0022154482164849832
12.383,-1.745875611652327,0.22456677877793887,-0.039116436300470424,-0.22113376617299083,-0.06808742420282697,0.1975957312459165,-0.04677020215635033,-0.001310926142171735,-0.007362271079917115,-0.0022673112259541384
12.416,-1.7481429228782812,0.21793286567328754,-0.03844736998621506,-0.21451464677665785,-0.06550251188383968,-0.19921660974928931,0.07762499456418287,-0.0012880889589753906,-0.007141935414987341,-0.0021812336457318615
12.449,-1.750324156524013,0.2066551101433826,-0.03690137216956645,-0.20333377309334702,0.02328921176011636,-0.338671337234383,2.666418127446127,-0.0012261918184090163,-0.006771490129083531,0.0007755307516118748
12.483,-1.7495486257724013,0.2127574867833856,-0.0378286836042812,-0.2093674733074593,-0.08144031152672253,0.18325455375384428,-3.145030729334501,-0.0012691492957900448,-0.006970219853266023,-0.0027119623738398606
12.516,-1.752260588146241,0.20651582554807113,-0.03726990799695211,-0.20312493731617515,-0.07894689632490133,-0.18743727433376792,0.07487733338802394,-0.0012499794386552012,-0.006762420919791116,-0.0026289316476192145
12.549,-1.7548895197938603,0.218113234427643,-0.03992674529350995,-0.21442769887016727,0.023230046449507612,0.34827053692407994,3.0683766598921602,-0.0013268006157411256,-0.007140955552749871,0.0007735605467686036
12.583,-1.7541159592470916,0.22466127839996708,-0.040954533484640045,-0.22089684515484376,-0.08129959374066237,0.1966379571268494,-3.139028233939038,-0.0013737434422922083,-0.007354009518490266,-0.002707276471564057
12.616,-1.7568232357186557,0.21808153244323258,-0.040335449176362934,-0.2143189360101663,-0.07914697373565258,-0.19758996867070555,0.06464324339368745,-0.0013525756892439548,-0.007135041919343397,-0.002635594225397231
12.649000000000001,-1.759458829944053,0.21808492550370573,-0.040900802532962605,-0.2142152167426873,-0.06618991218218792,0.00010189370790224303,0.3891009475514911,-0.0013698589407722592,-0.00713185957059623,-0.0022041240756668578
12.682,-1.76166295401972,0.22469341227196502,-0.042626554786155686,-0.22061302397066704,-0.06861485723300267,0.19845305610388245,-0.07282117269713972,-0.0014278578199678855,-0.007344785275368139,-0.0022848747458589893
12.716,-1.7639478287655788,0.21809569052231245,-0.0418640654361041,-0.2140400202054884,-0.06687479419266364,-0.19812978227184871,0.05225414535552665,-0.0014020103921324125,-0.007125974154527023,-0.002226930646615699
12.748,-1.7661747594121946,0.21802486204805593,-0.04232686303335656,-0.21387678026571585,-0.12193597533652069,-0.002126981208904443,-1.6534889232389502,-0.0014239420753489698,-0.0071192152512693395,-0.0040604679787061395
12.782,-1.7702352273909006,0.22461645113092077,-0.04450087310894745,-0.22016408065620216,-0.12557775131735902,0.19794561810404906,-0.10936264206721702,-0.0014972058302961176,-0.007328343706140417,-0.0041817391188680554
12.816,-1.7744169665097687,0.2179841749615648,-0.044079994482824986,-0.21348080620999213,-0.12125056953696081,-0.1991674525332122,0.12994539881075687,-0.0014822133367522587,-0.007105927782607459,-0.0040376439655807955
12.849,-1.7784546104753494,0.21794691171314706,-0.044933909792801784,-0.2132646245302551,-0.11286228535869149,-0.0011190164690012138,0.2519004257738536,-0.001509642790965775,-0.0070988830962221946,-0.0037583141024444267
12.882,-1.782212924577794,0.2245275822872577,-0.04711602792141851,-0.21952839251602377,-0.11576063361812021,0.1976177349582772,-0.08703748526812982,-0.00158305175318045,-0.007307252902308003,-0.0038548290994834034
12.915,-1.7860677536772775,0.21792346010497665,-0.046551196498972214,-0.21289344886266331,-0.1121514144936959,-0.1983219874558871,0.10838495869142085,-0.0015633912180823377,-0.007086440315240959,-0.0037346421026400738
12.948,-1.7898023957799176,0.21795323638466912,-0.04735242003185251,-0.2127471775786426,-0.10515965255124908,0.0008941825733475304,0.2099628210944989,-0.0015892385239927903,-0.007081705217089124,-0.0035018164299565947
12.983,-1.7933042122098741,0.22459367608877467,-0.04956251788718501,-0.21905678752266938,-0.10844275497684668,0.19941260372689337,-0.0985916644323602,-0.001663601105174838,-0.007291594754951043,-0.0036111437407289945
13.016,-1.7969153559506033,0.2180251798088339,-0.04888060110125648,-0.21247509469736497,-0.10536324308907885,-0.19725214053876192,0.09247783446750223,-0.0016401349544744774,-0.007072550187493572,-0.0035085959948663262
13.049,-1.8004239519454697,0.21806515219145772,-0.04963488628362255,-0.21234120811537147,-0.08748485442056285,0.0012003718505651875,0.5368885486040841,-0.001663140985795161,-0.007068544217754827,-0.002913245652204743
13.083,-1.8033371975976744,0.2247050469619739,-0.05178344558417442,-0.218656883938315,-0.09025557646577806,0.1993962393548404,-0.08320486622267896,-0.0017353300564803367,-0.00727867147594962,-0.00300551069631041
13.116,-1.806342708293985,0.21810922565395088,-0.05090109103926849,-0.21208657016977334,-0.08796647222897203,-0.1980727119526434,0.06874186897315414,-0.0017053497978930976,-0.007059989654542467,-0.0029292835252247686
13.149000000000001,-1.8092719918192097,0.20660905899066864,-0.048805544470354796,-0.2007618541604999,-0.1614259220831199,-0.3453503502487159,-2.2059894851095456,-0.0016431870959703525,-0.006680968933708747,-0.005375483205367893
13.182,-1.8146474750245776,0.21289537591884689,-0.051401804661051036,-0.20659693987378974,-0.1665764388572062,0.18877828613147873,-0.15467017339598463,-0.0017307538808414814,-0.006874895025432251,-0.005546995413944967
13.215,-1.8201944704385224,0.2065972730775591,-0.050992497686474604,-0.2002053905937061,-0.16169253605670109,-0.18913221745608974,0.14666374776291596,-0.0017159920456263028,-0.0066622353869683695,-0.005384361450688146
13.248,-1.8255788318892106,0.21801714944472333,-0.05494793936081325,-0.21097914923518685,-0.1289945985652528,0.3429392302451723,0.9819200447882366,-0.0018448519260642652,-0.007021653676937636,-0.004295520132222919
13.282,-1.8298743520214331,0.22460875439978845,-0.057542394506649885,-0.21711279415885554,-0.13297325787865255,0.19794609474670002,-0.11947925866065302,-0.0019321643195661295,-0.00722558951759348,-0.004428009487359131
13.315,-1.8343023615087926,0.2179274591577003,-0.056762946745444805,-0.21040519321467552,-0.1289775575821337,-0.20063949675940415,0.11999099989546112,-0.0019052484450223141,-0.007002411716187861,-0.004294952667485053
13.349,-1.8385973141762775,0.2065164654767427,-0.054646621197724454,-0.19915520908246184,-0.1080542315865618,-0.3426724829116389,0.6283281079751319,-0.0018316617354415486,-0.0066285797788553065,-0.003598205911832508
13.383,-1.8421955200881102,0.21269207565784104,-0.05701842292741665,-0.20490685321509147,-0.11062497080007305,0.185453759192142,-0.0771993757811187,-0.0019112790575707187,-0.006819885020139466,-0.003683811527642433
13.416,-1.8458793316157522,0.20646848425851355,-0.056082378212321565,-0.19870581734327306,-0.10749499850178452,-0.18689463661644107,0.09399316211076658,-0.0018793838440317318,-0.0066135465736396745,-0.003579583450109425
13.449,-1.849458915065862,0.21798841073706052,-0.05996208848563113,-0.20957932903822066,-0.07215753630504804,0.34594373809450346,1.0611850509530476,-0.002005122210238626,-0.00697658547910035,-0.0024028459589581
13.483,-1.8518617610248203,0.22461896912267013,-0.06230468226903709,-0.215805022780021,-0.07441057179923481,0.19911586743572396,-0.06765872354915241,-0.0020836490904517085,-0.007183728870678396,-0.0024778720409145195
13.516,-1.8543396330657347,0.2180508752999927,-0.06100174287628229,-0.20934414628823259,-0.0723446489211,-0.19724005473505773,0.06203972607011449,-0.0020397549649251233,-0.006968705934584653,-0.00240907680907263
13.548,-1.8567487098748074,0.21808831333227413,-0.061516451694098334,-0.20923249886928144,-0.047684521171133566,0.001124265233676525,0.7405443768758688,-0.0020540306264587188,-0.0069658123354214875,-0.001587894554998748
13.582,-1.8583366044298062,0.22473256156386878,-0.0637328843949603,-0.21550601772051914,-0.049261082646120814,0.1995269739217613,-0.04734418843805549,-0.0021281920396573626,-0.007174605893849034,-0.0016403940521158233
13.616,-1.8599769984819219,0.21813458052481619,-0.062204786733010664,-0.209077162139336,-0.04817155778958405,-0.1981375687403182,0.03271846416026326,-0.002077004505614271,-0.006960604562300665,-0.001604112874393149
13.648,-1.8615811113563152,0.19507596489050932,-0.0559290890836868,-0.18688651388538516,0.05574691031527277,-0.692450919949155,3.120674717863568,-0.0018566628656735064,-0.006225045529935691,0.0018563721134985834
13.683,-1.8597247392428167,0.20102155160350654,-0.05727610959687256,-0.19268915765690683,-0.016430087794915692,0.17854614753745401,-2.16747742072638,-0.0019090513897406106,-0.006416026357359551,-0.0005471219235706926
13.715,-1.8602718611663873,0.19511137312444798,-0.05569446728167928,-0.1869935138894329,-0.016049157188553927,-0.1774828372089657,0.011439357548401334,-0.001856291277835682,-0.006226387628783559,-0.0005344369343788458
13.749,-1.8608062981007663,0.21802306710836936,-0.06234626435865076,-0.20891864711380306,-0.0569586854260696,0.6880388583760171,-1.2285143614869571,-0.002082728965354287,-0.006955017296801639,-0.0018967242246881177
13.782,-1.8627030223254541,0.22461168932237233,-0.06463847871860755,-0.21510992085255862,-0.13300885412660382,0.19785652294303213,-2.2837888498658923,-0.002168319710970749,-0.007158369535376694,-0.004429194842415908
13.816,-1.8671322171678701,0.21797309303216336,-0.06365201722006293,-0.20847227630988482,-0.12949762379758759,-0.19935724595222115,0.10544235222270974,-0.0021345756042763756,-0.006937534550118813,-0.004312270872459667
13.849,-1.8714444880403298,0.21796976852003638,-0.06454942701445406,-0.2081926786916003,-0.1298371323074858,-9.983519900836957e-05,-0.010195450747694387,-0.002164478335192441,-0.006928147273512371,-0.0043235765058392776
13.883,-1.8757680645461692,0.22453337862705727,-0.06741978824210858,-0.21417238447351403,-0.1329163483006695,0.19710540861924591,-0.0924689487442552,-0.0022608568928206975,-0.007126948031201565,-0.004426114398412295
13.916,-1.8801941789445813,0.2179629709102689,-0.06636648474506994,-0.20761345426203268,-0.12918438368627685,-0.19730954104469606,0.11207100944122077,-0.0022248693983861036,-0.006908752573428858,-0.00430183997675302
13.949,-1.8844960189213344,0.2180043547184743,-0.0672717579759111,-0.20736540033247788,-0.05589647357745225,0.0012427570031650883,2.2008381414061438,-0.002246576662716455,-0.006903178388671018,-0.00186135257012916
13.983,-1.8863573714914637,0.2246427676469121,-0.06971785187222068,-0.21355044880867763,-0.057693149309142926,0.19935173959272698,-0.05395422617689723,-0.0023284359237462932,-0.007108994835786345,-0.0019211818719944596
14.016,-1.8882785533634583,0.21807437441327732,-0.06807750006804984,-0.2071759801719952,-0.05614035660761163,-0.1972490460550986,0.04663041145739626,-0.0022734299895830526,-0.006896836482361597,-0.0018694738750334675
14.048,-1.8901480272384918,0.21809971212520124,-0.06847264576448392,-0.20707240572105973,-0.1455061139787543,0.0007608922499676536,-2.683656377511791,-0.002296837589055109,-0.00688995948470354,-0.004845353595492518
14.083,-1.8949933808339843,0.2247539500156149,-0.07159486972965116,-0.21304579947986726,-0.1501956956536544,0.19982696367608607,-0.1408282785255287,-0.002401842526068866,-0.007088432833094384,-0.005001516665266692
14.116,-1.899994897499251,0.21814405704202525,-0.07052264440614116,-0.20643010015189,-0.1460329001279988,-0.19849528449218196,0.1250088746443123,-0.002365110678784914,-0.006868384598244367,-0.004862895574262361
14.148,-1.9048577930735135,0.2065756712310007,-0.0677325814595168,-0.1951558488833179,-0.17048974359862548,-0.3473989733040402,-0.7344397438626631,-0.0022739320682950174,-0.006492251695064878,-0.005677308461834229
14.182,-1.9105351015353476,0.21284448184177102,-0.07092846741231403,-0.2006786634424106,-0.1756319730198778,0.18825257089400327,-0.15442130394151077,-0.00238144797257521,-0.006675653886374591,-0.005848544701561931
14.216,-1.9163836462369095,0.20653210838450287,-0.06996261350319001,-0.19432124048994567,-0.17000775033433774,-0.189560764482527,0.16889557614234393,-0.0023480609768778407,-0.0064642674597704805,-0.005661258086133447
14.249,-1.9220449043230428,0.217991437221861,-0.07500440525909192,-0.20468171851384892,-0.07534234569068005,0.3441239891098542,2.8428049442539844,-0.002506196102343387,-0.0068127602334814704,-0.0025089001114996456
14.282,-1.9245538044345425,0.22454501563951476,-0.07778801838050786,-0.21064066142362853,-0.07697108173566904,0.19680415668629875,-0.04891099234201172,-0.0025993293978649403,-0.007011005951402025,-0.0025631370217977793
14.316,-1.9271169414563403,0.21789916561446554,-0.07600940237075653,-0.20421218652842615,-0.07530410223439038,-0.19957507582730394,0.05005944448284253,-0.002539638525626159,-0.006797084462838091,-0.0025076266044051997
14.349,-1.9296245680607456,0.2179398517520979,-0.07653553881510225,-0.20405903626158875,-0.15147877546502972,0.0012218059349057642,-2.287527724643824,-0.0025657626507943764,-0.006788708454165899,-0.00504424322298549
14.383,-1.934668811283731,0.22456509821465187,-0.07992178174344312,-0.20986184059783158,-0.1561458663725552,0.19895635022684588,-0.14015288010587038,-0.002679553809038798,-0.006981447927881689,-0.005199657350206089
14.416,-1.9398684686339371,0.21799584092283342,-0.07864204515042855,-0.2033165398933674,-0.15165868235904859,-0.19727499374830187,0.1347502706758744,-0.0026358669019586364,-0.006763798580535047,-0.005050234122556318
14.449,-1.9449187027564934,0.20657571360935953,-0.07549428281948214,-0.19228660565621356,-0.06490702473697565,-0.342946766170387,2.605154883545733,-0.0025208792619307134,-0.006400421467727496,-0.0021614039237412893
14.483,-1.9470801066802346,0.2128457566227472,-0.07821374778157991,-0.19795435274393222,-0.16465245139469226,0.18828957998161208,-2.9953581578893873,-0.002622577866446865,-0.006584706043990236,-0.005482926631443253
14.516,-1.952563033311678,0.20663071646410586,-0.07698245700018483,-0.19175493292399132,-0.1599601316308214,-0.18663784260184246,0.1409105034195452,-0.0025805119348191454,-0.00637858089095303,-0.005326672383306353
14.549,-1.9578897056949842,0.218077510663555,-0.08232392284854992,-0.201942002525574,-0.1115060112923989,0.343747573557031,1.4550786888415164,-0.0027538669687423123,-0.0067195629097025,-0.0037131501760368836
14.583,-1.961602855871021,0.22476630119616553,-0.08562118404316188,-0.20781939995210363,-0.11481237372469799,0.20086458055887502,-0.09929016313210487,-0.002864409508096143,-0.006914917998265023,-0.0038232520450324436
14.616,-1.9654261079160535,0.21812033260495536,-0.08385995031840206,-0.20135537794727879,-0.11126130356570024,-0.19957863637267764,0.1066387435134459,-0.002804953002230065,-0.006699944824655783,-0.0037050014087378186
14.648,-1.9691311093247912,0.21803116697459973,-0.08457080907238365,-0.20096111072829045,-0.16835069612153408,-0.0026776465572261546,-1.714396172847863,-0.002834952883068829,-0.006684075255051087,-0.005606078180847085
14.683,-1.9747371875056383,0.22460426802059014,-0.08827960296252597,-0.20652793736887962,-0.173294612150716,0.19739042180151362,-0.1484659468222801,-0.002959539932685372,-0.00686885926471465,-0.005770710584618844
14.716,-1.980507898090257,0.2179536709434736,-0.08682070872304606,-0.1999148999313557,-0.16776291992004178,-0.19971762994343972,0.16611688380403106,-0.0029097114411892997,-0.006649055127001589,-0.005586505233337391
14.749,-1.9860944033235945,0.18367329903095106,-0.0741053227876938,-0.16806035199131553,-0.02281938477405571,-1.0294405979736496,4.352658713092675,-0.002469834824914308,-0.0055954709339118116,-0.0007598855129760553
14.782,-1.9868542888365706,0.20088175104509037,-0.08118793919676522,-0.18374437796004542,-0.12934216693370135,0.5167703307549343,-3.1988823471365055,-0.002716728515000352,-0.006112845909344085,-0.004307094158892255
14.816,-1.9911613829954629,0.19495977990459257,-0.07956186858918403,-0.17798658614357596,-0.12555321906146064,-0.17783697118612027,0.11378221838560693,-0.0026617941382653795,-0.005921396857593637,-0.00418092219474664
14.848,-1.9953423051902093,0.20650619145936291,-0.08506136810670975,-0.1881737781064776,-0.07468354467172095,0.3467390857288392,1.5276178495417323,-0.002840334195420803,-0.006262657378665055,-0.002486962037568308
14.882,-1.9978292672277778,0.21275731820479662,-0.08811812738151077,-0.19365141898905086,-0.0774106291841017,0.1877215238868982,-0.08189442980122383,-0.0029426436198034243,-0.0064448023003181604,-0.002577773951830587
14.916,-2.000407041179608,0.20653391458414358,-0.08602487071339616,-0.18776575697446482,-0.07522283174162443,-0.18688899761720854,0.06569962289721526,-0.0028724580002131342,-0.006249004568508932,-0.002504920296996094
14.948,-2.002911961476604,0.17219201693775893,-0.07211279542533446,-0.15636443148311358,-0.01433563031480831,-1.0312882176091485,1.8284444872917753,-0.0024026002248878297,-0.00520636155180332,-0.00047737648948311675
14.983,-2.0033893379660874,0.20097809176209425,-0.08425531318058133,-0.18246434054130942,-0.06919668701566618,0.8644466914214809,-1.647479180205942,-0.0028127014517088525,-0.006072823892522708,-0.002304249677621684
15.016,-2.005693587643709,0.19515816725400545,-0.08222349806548251,-0.1769915438991873,-0.06732180988827413,-0.1747725077504143,0.05630261643819976,-0.002744648195771855,-0.005890743647281495,-0.0022418162692795286
15.049,-2.007935403912989,0.21789543631314182,-0.09224588059559675,-0.19740597427443107,-0.04470802385457338,0.6828008726467377,0.6790926736847073,-0.0030766817748150654,-0.0065713290877115315,-0.0014887771943572937
15.083,-2.0094241811073466,0.2247296405380586,-0.09544214199375903,-0.2034556680655719,-0.04665774283325636,0.2052313581056093,-0.05855011947996951,-0.0031834870878253334,-0.006772601161486748,-0.001553702836347437
15.115,-2.010977883943694,0.21811344946961114,-0.09293895267593612,-0.19732163569926311,-0.044945909668699664,-0.19868441646989377,0.05140640133803896,-0.0030997849886535635,-0.00656849114400539,-0.001496698791967699
15.149000000000001,-2.0124745827356616,0.20654586943257428,-0.08828953334702626,-0.1867248094952097,-0.1243887155185291,-0.347374775886993,-2.385669845340223,-0.00295291249238529,-0.006211828555749224,-0.00414214422676702
15.182,-2.0166167269624284,0.21281135614544724,-0.09176388164685718,-0.19201058129583892,-0.12772530366441187,0.1881527541403294,-0.10019784221870166,-0.0030693272829104157,-0.006387433855897682,-0.004253252612024916
15.215,-2.0208699795744534,0.20647240488811694,-0.08982207296685862,-0.1859108635562183,-0.12349570725539688,-0.19035889661652566,0.12701490717762734,-0.003003797847267936,-0.006184663251955684,-0.004112407051604716
15.249,-2.024982386626058,0.20644170099201833,-0.0905723816764356,-0.18551231653433678,-0.05561761908334594,-0.0009220389218800306,2.0383810261877153,-0.0030217808641507127,-0.006174762828113005,-0.00185206671547542
15.283,-2.0268344533415332,0.20091385910110812,-0.08848137569035282,-0.18038133200207432,-0.13874424374980507,-0.16600125798529164,-2.496295035028802,-0.002960296933747336,-0.005999869682249174,-0.00462018331686851
15.315,-2.0314546366584016,0.19496028803911603,-0.08666723525863836,-0.174637636965572,-0.1350993212183671,-0.17878591777754044,0.10945713307621537,-0.002899091989598727,-0.005808921107264152,-0.004498807396571625
15.349,-2.0359534440549734,0.20651151605665485,-0.09263347282028388,-0.18456989455832645,-0.04189355087023037,0.34688372425041525,2.798972082526628,-0.0030889824174533567,-0.006144023008670659,-0.0013950552439786713
15.382,-2.037348499298952,0.21275589921455304,-0.09569965144804915,-0.1900174975188205,-0.04382685561840202,0.18751901375069627,-0.05805719964479439,-0.0031914163004356567,-0.006325254105536001,-0.0014594342920927876
15.415,-2.0388079335910447,0.20653258980767392,-0.09316945417854407,-0.18432352931933857,-0.042671200322474456,-0.18688616837474845,0.034704363241068036,-0.003106904302089808,-0.00613576634859851,-0.0014209509707383996
15.449,-2.040228884561783,0.1950930026689786,-0.08825623087887563,-0.17398884274990936,0.031030628884578006,-0.3435311453061653,2.2132681443559292,-0.002935940078139207,-0.005795345074975438,0.0010333199418564476
15.483,-2.0391955646199267,0.20103894514476783,-0.09076074402418856,-0.17938546431942773,0.03166586461032481,0.17855683110478146,0.019076147920324554,-0.0030191843491370733,-0.005975127530806862,0.0010544732915238164
15.516,-2.0381410913284026,0.19516061478091165,-0.08792324649578738,-0.17423308608672577,0.0306430130167027,-0.1765264373530385,-0.03071626407273618,-0.0029248849578256443,-0.005803453780588699,0.0010204123334562
15.549,-2.0371206789949468,0.22934410964937885,-0.10311452042395705,-0.20485633089705488,-0.1781797038319187,1.0265313774314473,-6.270952457916557,-0.0034539330776125103,-0.0068114881267773535,-0.005933384137602893
15.583,-2.0430540631325496,0.2246571135422394,-0.10219608411044069,-0.2000669364428375,-0.09364883318182957,-0.14075063384803108,2.5384645840867606,-0.003413513960088337,-0.006656910935054456,-0.003118506144954925
15.615,-2.0461725692775046,0.21809291106637996,-0.09981523786841608,-0.1939108974417875,-0.09099244287868612,-0.19712319747325685,0.07977148057487835,-0.003333626919050781,-0.006452186405957811,-0.003030048347860248
15.648,-2.049202617625365,0.206573589146712,-0.09509924577327371,-0.18338151811540074,-0.04094980903986496,-0.34592558317321176,1.5027817969615962,-0.0031709691072307495,-0.00610444263902529,-0.0013636286410275034
15.683,-2.050566246266392,0.21283162920640805,-0.09823777692875484,-0.1888031821097043,-0.04220823332085816,0.18792913092180316,-0.03779051894874459,-0.0032757369760811547,-0.00628484404280144,-0.0014055341695845768
15.716,-2.0519717804359767,0.2064867747913864,-0.09556651423340293,-0.18304051333250113,-0.0404850598249048,-0.19053616861926842,0.05174695183043111,-0.003186474253569537,-0.006093101238063992,-0.00134815249216933
15.748,-2.053319932928146,0.1950405478685615,-0.09050195993282151,-0.17277213479374096,0.05219076838252328,-0.34373053822297006,2.7830579041269696,-0.0030087157993663456,-0.005755927233136872,0.0017379525871380256
15.782,-2.051581980341008,0.20086137134206894,-0.09289354422167372,-0.17809008939116308,0.053927601996926436,0.17479950370893182,0.05215716559769229,-0.003088030076217147,-0.005933173468314477,0.0017957891464976505
15.815,-2.0497861911945106,0.19496100411684783,-0.08985420367764517,-0.1730202739788196,0.05202348354948237,-0.17718820496159485,-0.0571807341574794,-0.0029871544060542906,-0.005764163210125781,0.0017323820021977632
15.849,-2.0480538091923126,0.252381864907946,-0.1159303080590057,-0.22418021636120514,-0.304364039593029,1.724350173906852,-10.702328022297637,-0.003898245945059237,-0.007445508917747145,-0.010135322518447867
15.883,-2.0581891317107606,0.2347594940164152,-0.10994347648364247,-0.20742336418430307,-0.20405987541560555,-0.5292003270729976,3.012137062385088,-0.0036845592225487524,-0.006894704929962758,-0.006795193851339665
15.916,-2.0649843255621,0.21802628631820561,-0.10341356512315741,-0.1919403450924965,-0.07451877180019371,-0.5024987296759631,3.8901232316940484,-0.0034516002055861,-0.0063873333170778165,-0.0024814751009464508
15.949,-2.0674658006630464,0.21642735768128804,-0.1031276518131041,-0.19027739903735114,-0.20606213109737254,-0.04801587498250972,-3.950251029945309,-0.00345586467937491,-0.006324404438592353,-0.006861868965542506
15.983,-2.0743276696285893,0.21284822480315016,-0.10270386338121436,-0.18643037104620372,-0.08541819911649633,-0.10748146781194835,3.6229409003266126,-0.003428864979161442,-0.00620325804605354,-0.002844426030579328
16.015,-2.0771720956591686,0.20664738270081112,-0.10022625783844553,-0.18071479744834654,-0.08344998400616403,-0.18621147454471584,0.05910555886883766,-0.0033458930846091343,-0.006013156805720943,-0.0027788844674052626
16.049,-2.079950980126574,0.2066412434391965,-0.10072506323508734,-0.18043022231983455,-0.05089527769847407,-0.0001843622106496985,0.9776188080387375,-0.0033592361009923914,-0.006005480304513104,-0.0016948127473591869
16.082,-2.0816457928739327,0.2128845464048758,-0.10408317979959943,-0.18570547051935216,-0.05190338871189629,0.18748657554592552,-0.030273604006673085,-0.0034713139684558227,-0.006180992899143651,-0.0017283828441061466
16.115,-2.0833741757180393,0.20659262362535522,-0.1013182754164299,-0.18004199288790415,-0.04987624931294041,-0.1889466300156334,0.06087505702570208,-0.003378877439664717,-0.005992592883809081,-0.0016608791021209158
16.149,-2.08503505482016,0.20489919323809966,-0.10078421222721867,-0.17839905256296357,-0.1981937026894743,-0.05085376538304975,-4.453977578874891,-0.0033756952468018144,-0.005929569533391035,-0.006599850299559495
16.183,-2.0916349051197196,0.20100528033751303,-0.10002177471518957,-0.174352422714415,-0.04340731282785552,-0.1169343213389379,4.648239935784348,-0.00333492162558642,-0.005803525541201818,-0.0014454635171675888
16.216,-2.093080368636887,0.19499655600385252,-0.09727617212083682,-0.1690000094404758,-0.041424945095257924,-0.18044217218199723,0.059530562540468235,-0.003243178577531731,-0.0056254634365760035,-0.001379450671672089
16.248,-2.0944598193085584,0.1934453948868387,-0.09673353917678469,-0.1675223662716666,-0.1891875368421884,-0.046581414925339654,-4.437315067475389,-0.0032387790846681525,-0.005568310286140775,-0.006299944976844874
16.282,-2.100759764285404,0.18911656579801492,-0.09559876337589229,-0.16317460556175725,-0.03402824767313302,-0.12999486753224587,4.659438113184845,-0.0031865181746731867,-0.005431908707338695,-0.0011331406475153297
16.316,-2.101892904932919,0.18350983704246446,-0.09294391039956149,-0.15823175980500925,-0.03304821256616335,-0.16837023289941322,0.029430483692782772,-0.003097932348159369,-0.005267412658588447,-0.0011005054784532398
16.349,-2.1029934104113726,0.17061782167371217,-0.08657622227724475,-0.14702040269596514,-0.1814702750992536,-0.38714760867123976,-4.457118994987694,-0.0028977644189255116,-0.004887037972131151,-0.006042960160805145
16.383,-2.1090363705721775,0.16548339860834319,-0.08483103749757305,-0.14208606649511116,-0.0262918001324869,-0.1541868788399095,4.660014263266266,-0.0028269456936246347,-0.004730228040579677,-0.0008755169444118138
16.416,-2.1099118875165894,0.16062852056151206,-0.08246302003250229,-0.13784546399827316,-0.02567463900622286,-0.14579213353847234,0.018533367155076242,-0.002747981715604649,-0.004589078780609877,-0.0008549654789072213
16.449,-2.1107668529954964,0.14919736556432095,-0.07670396376362901,-0.12797013649395514,-0.07458980527851232,-0.34327792784357675,-1.4689239120807644,-0.0025595328303531523,-0.004258228314858231,-0.0024838405157744606
16.483,-2.1132506935112714,0.1537286317365451,-0.07936080314778411,-0.13165999825052774,-0.07704576260887026,0.13607405922595067,-0.07375247238312144,-0.002648337219714633,-0.004380882318528378,-0.00256562389487538
16.515,-2.1158163174061464,0.14923267959977257,-0.07736747184414189,-0.1276113904045179,-0.07486532807946703,-0.1350135776808569,0.06547851439649365,-0.0025816322617950188,-0.00424624278530697,-0.002493015425046252
16.549,-2.118309332831193,0.1377468134643361,-0.0717062238555626,-0.11761123279667866,-0.050996436921566336,-0.3449209049680624,0.7167835182552759,-0.002391142578724131,-0.003914424056569417,-0.0016981813494881591
16.583,-2.120007514180681,0.1419664963908884,-0.07410858159643534,-0.1210884149341654,-0.05301826145522561,0.12671720500157085,-0.06071545146123948,-0.002471375043282196,-0.004030062986962501,-0.001765508106459013
16.616,-2.1217730222871403,0.13778626490460344,-0.07213381529708071,-0.11739577286703383,-0.051241130855542286,-0.1255324770656145,0.05336728527577554,-0.0024053911887770845,-0.003907227346106881,-0.0017063296574895584
16.649,-2.1234793519446296,0.15906604031778265,-0.08350532701068962,-0.13538414066358084,-0.17384359145209335,0.6390322946900664,-3.6817555734700016,-0.002793762258520348,-0.00450021717413825,-0.005788991595354709
16.682,-2.129268343539984,0.13530944549607488,-0.0716992555855803,-0.11475130844103212,-0.11089766925640174,-0.7134112559071404,1.890267933804553,-0.00239463647275529,-0.0038168007019689166,-0.0036928923862381783
16.715,-2.1329612359262224,0.12625909518003683,-0.06729851963606247,-0.1068282189801745,-0.04316843553301389,-0.27178229177291413,2.0339109226242598,-0.0022435977662560104,-0.0035557671083718293,-0.0014375089032493626
16.749,-2.134398744829472,0.12626544828655803,-0.06745541061648687,-0.10673673692579612,-0.09128561900229637,0.00019078397961547297,-1.4449604645430174,-0.0022516649117973312,-0.0035509131544576083,-0.0030398111127764695
16.783,-2.137438555942248,0.13006604096315524,-0.06981972411229062,-0.10973778354200892,-0.09362528454878001,0.11413191221012654,-0.07026022662113035,-0.0023306905154372825,-0.0036506373039245713,-0.003117721975474375
16.815,-2.1405562779177227,0.12619701821290644,-0.06807444943329444,-0.10626173695259492,-0.09045984317858369,-0.11618686937684104,0.09505829940529498,-0.0022722062386695504,-0.0035350956086905067,-0.003012312777846837
16.849,-2.1435685906955695,0.11475244289305171,-0.062191686507593054,-0.09643815261225384,-0.06074201135551914,-0.34368094053617787,0.8924273820740103,-0.002074230460963125,-0.003209293239334013,-0.0020227089781387876
16.883,-2.145591299673708,0.11817140365183108,-0.06424538698049526,-0.09918170644211767,-0.06174956543609517,0.10267149425763877,-0.030256879296577558,-0.0021427664195256993,-0.0033005483715932635,-0.0020562605290219693
16.916,-2.14764756020273,0.11469526999557489,-0.06255335495110154,-0.09613575164172443,-0.06021198829276264,-0.10438839808577159,0.04617348778776371,-0.002086235598363221,-0.0031992295307443673,-0.0020050592101489963
16.948,-2.149652619412879,0.11471103339456942,-0.06275461058976982,-0.09602333066591874,-0.09751234152084394,0.000473375345181196,-1.1201307275700088,-0.0020949172345141338,-0.0031941778914844525,-0.0032471609726441035
16.982,-2.1528997803855234,0.11817584508881408,-0.06497097414854291,-0.0987132355899894,-0.10077441735935545,0.10404839922656635,-0.09796023539073613,-0.0021690457431901926,-0.003283513818248374,-0.003355788098066537
17.015,-2.15625556848359,0.1147097854325455,-0.06338658553077406,-0.0956058348048407,-0.09790252761705771,-0.10408587556362127,0.08624293520413631,-0.002115960040595592,-0.003180227372592935,-0.003260154169648022
17.049,-2.159515722653238,0.11472375890543207,-0.06370569730446068,-0.09541029812522406,-0.06985354284853498,0.000419623810407735,0.8423118549105925,-0.0021250938914299587,-0.003174692176125614,-0.002326122976856215
17.082,-2.161841845630094,0.11820420304510605,-0.06586686692804433,-0.09815186935872366,-0.07201956646673112,0.10451784203225165,-0.06504575430018426,-0.0021972847301266448,-0.003265823406855337,-0.0023982515633421465
17.115,-2.164240097193436,0.1146797087689341,-0.06413110497991163,-0.0950717464727723,-0.07073393047393513,-0.10584066895411258,0.03860768747135109,-0.002139293197260166,-0.0031633705599846736,-0.00235543988478204
17.149,-2.1665955370782184,0.13137357744419248,-0.07372296828708493,-0.1087379455269719,0.023455300326896036,0.5013173776353866,2.828505429454389,-0.0024535614627567938,-0.003621931303994303,0.0007810615008856381
17.183,-2.1658144755773323,0.11818185060691427,-0.06624373813698052,-0.09787091994312792,0.061677830368487396,-0.39614795307141754,1.1478237249727135,-0.00220256891516327,-0.0032613640869262723,0.0020538717512706304
17.215,-2.163760603826062,0.11472634273954017,-0.06411157141283744,-0.09514115896586024,0.05960203721046387,-0.10376900502624922,-0.0623361308715773,-0.002131770736724722,-0.0031703165762799745,0.001984747839108447
17.249,-2.1617758559869533,0.11475073897970896,-0.06393620701973439,-0.09528847531742211,0.1671068477716096,0.0007326198248883966,3.228372689523896,-0.0021202369543409172,-0.0031790130580441004,0.0055646580307946005
17.282,-2.156211197956159,0.11824381682162875,-0.06533505553100942,-0.09855420201750309,0.17193439771494326,0.10489723249008392,0.1449714697697792,-0.0021662513774114026,-0.003288064671144425,0.005725415443907611
17.316,-2.150485782512251,0.11478589065074662,-0.06287559601683793,-0.09603364055377966,0.16686472839556188,-0.10384162675321705,-0.15224232190334477,-0.002084862679220533,-0.003203720282136333,0.005556595455572211
17.348,-2.144929187056679,0.11479201327744198,-0.06234433324968603,-0.0963866714019138,0.0765503051464497,0.0001838626635243113,-2.7121448423156806,-0.0020719739780947536,-0.0032123182017432853,0.0025491251613767754
17.383,-2.142380061895302,0.11830287950042084,-0.06399768403031691,-0.09949807906108948,0.07863006407233547,0.10543141810747324,0.06245522299957272,-0.0021267836107018577,-0.0033160717216700413,0.0026183811336087715
17.416,-2.139761680761693,0.11483330101302451,-0.0618676685518095,-0.09674233101135891,0.07638560031188592,-0.10419154616805802,-0.06740131412761419,-0.0020560948128453774,-0.00322413579239061,0.002543640490385801
17.448,-2.1372180402713075,0.11483463865254599,-0.061622108760584396,-0.09690051571771699,0.08354499951060937,4.016935499944356e-05,0.21499697293463815,-0.002047525903233134,-0.0032296368651452455,0.0027820484837032923
17.483,-2.134435991787604,0.11830821694064726,-0.06320810486297976,-0.10000784806856815,0.08633186831706195,0.10431166030334144,0.08368975394752501,-0.0021000408855578684,-0.0033332817253387916,0.002874851214958163
17.516,-2.1315611405726456,0.11481961280264738,-0.061064977960631206,-0.09723482889796994,0.08405427034284928,-0.10476288702702347,-0.06839633556194219,-0.002028930501249903,-0.003240760869127262,0.002799007202416881
17.548000000000002,-2.128762133370229,0.1147652945173802,-0.06076381867747788,-0.09735928905549592,-0.021911686079413583,-0.0016311797377532287,-3.182160853521407,-0.0020246186512560076,-0.003241325286767053,-0.0007296591464444723
17.583,-2.1294917925166734,0.11825696501372522,-0.06268570793947342,-0.10027567897742937,-0.022406080493062003,0.1048549698602109,-0.014846679088541133,-0.002088680493267458,-0.0033384005001204043,-0.0007461224804189648
17.616,-2.1302379149970925,0.11477759695575282,-0.06091396256956317,-0.09727993589127769,-0.02153514798936046,-0.10448552726643846,0.026154129240286594,-0.0020295971747028843,-0.0032386937280091265,-0.0007171204280457034
17.648,-2.1309550354251385,0.11469868798620424,-0.060941782364374975,-0.09716937885985372,0.3739650174371059,-0.0023696387251826677,11.876881844638628,-0.00200916263791261,-0.0032482918373712465,0.012453035080655627
17.683,-2.1185020003444825,0.11827139488403944,-0.061587449903021854,-0.10097083173995926,0.301191114121646,0.10728849543048659,-2.185402501965763,-0.0020339672285448673,-0.0033725564234852847,0.010029664100250813
17.715,-2.108472336244232,0.11472261221205973,-0.058754187547798035,-0.09853539058813746,0.29298763679130363,-0.10657005020960084,-0.2463506705808522,-0.0019404777800667852,-0.0032907202104824587,0.009756488305150413
17.748,-2.0987158479390815,0.1147006148159853,-0.05777896615111657,-0.0990849237254243,0.24539943781697934,-0.0006605824646976865,-1.4290750442740026,-0.0019105375761289906,-0.003307352116524328,0.008171801279305413
17.782,-2.090544046659776,0.11818144173489414,-0.05869613531000056,-0.10257493295249227,0.16918065501177657,0.10452933690416949,-2.288852336492576,-0.0019449502390240592,-0.0034212324411931447,0.00563371581189216
17.815,-2.084910330847884,0.11467022865296371,-0.05639064216124467,-0.09984666652405293,0.16434950264760279,-0.1054418342922052,-0.14507965057578917,-0.0018687016205563105,-0.0033300153551582873,0.005472838438165173
17.848,-2.0794374924097188,0.11469217388014871,-0.055854042837103254,-0.10017295367565689,0.2374091050616678,0.0006590158313814522,2.1939820544764266,-0.0018467354208287709,-0.0033430761608808034,0.007905723198553538
17.883,-2.071531769211165,0.1181576488199486,-0.05672403939738014,-0.10365140292877258,0.24474282793270935,0.1040683165105071,0.22023191804929604,-0.0018748254793704438,-0.0034592502131070733,0.008149936170159222
17.915,-2.063381833041006,0.08104194141363283,-0.03832518709606312,-0.07140711660711734,0.24441215374004885,-1.1145858079974704,-0.009930155935750801,-0.0012665387323801316,-0.002383023927693986,0.008138924719543628
17.948,-2.0552429083214623,0.04767853660092464,-0.02220478573184414,-0.04219230194014781,0.24441381001989487,-1.0019040484296753,4.973813351423457e-05,-0.0007336939616967638,-0.001407996989304589,0.0081389798736625
17.982,-2.0471039284478,0.017617383972566073,-0.008077586345347386,-0.015656462463477672,0.22021721901738883,-0.9027373161669238,-0.7266243544296107,-0.00026706973490521593,-0.000522341711158395,0.007333233393279049
18.015,-2.039770695054521,-3.579681606655302e-05,1.6179145184849307e-05,3.1931916660141086e-05,0.0004487233253238011,-0.5301255492081869,-6.599654525287237,5.38757874953367e-07,1.063336705725547e-06,1.4942486733282578e-05
18.049,-2.0397557525677876,-3.2174973586410615e-05,1.4541746280124859e-05,2.87013334256563e-05,0.09526589751985426,0.0001087640384427148,2.8473625884243376,4.827236004784408e-07,9.565207607608766e-07,0.003172354387411147
18.083,-2.0365833981803765,-4.653161347853604e-05,2.0898565059656037e-05,4.157452382605483e-05,0.0983209760203127,-0.00043113032709085364,0.0917440991128661,6.936549703312816e-07,1.385568238671795e-06,0.0032740885014764134
18.115,-2.0333093096789003,-4.649979103091609e-05,2.0748135492467532e-05,4.161424563181548e-05,0.00036894943187080017,9.556290576561637e-07,-2.94150229995321,6.909047702673522e-07,1.3857584387891727e-06,1.2286016081297647e-05
18.149,-2.033297023662819,-8.735211735397939e-05,3.897542043292229e-05,7.817486174148522e-05,0.0002240409062514792,-0.0012267965862781769,-0.004351607375955585,1.2978724867228745e-06,2.603227389915239e-06,7.4605621781742576e-06
18.182,-2.0332895631006407,-8.989195911951113e-05,4.010806582262999e-05,8.044816573615237e-05,0.00025036726589030986,-7.627152449044283e-05,0.0007905813705354555,1.3355881418099255e-06,2.67892912887714e-06,8.337229954147319e-06
18.215,-2.0332812258706863,0.017052299789908316,-0.007608281450813641,-0.015260897139097434,-0.20801168618141194,0.5147805330038386,-6.2541157191382055,-0.00025511393023393877,-0.0005073062750856425,-0.006926789149841018
18.249,-2.0402080150205273,0.01709907916311142,-0.007734968294889539,-0.015249549950847884,-0.6244733085550996,0.001404785982075198,-12.506355026236866,-0.00026283577052828647,-0.0005050953162481111,-0.02079496117488482
18.283,-2.0610029761954123,0.017617223331291856,-0.008294333411325995,-0.015542541335520887,-1.0688241902040259,0.015559884930343437,-13.343870319787573,-0.00028535273261951383,-0.000512542544994974,-0.03559184553379406
18.315,-2.096594821729206,7.154803804476138e-08,-3.591023229162002e-08,-6.188357588905567e-08,-1.3576550985884692,-0.5290435970947089,-8.673600852385686,-1.2419785847267358e-09,-2.0329941716010823e-09,-0.045209914782996026
18.349,-2.141804736512202,-1.9108208315652428e-05,1.0327618863660985e-05,1.6076812919273593e-05,-1.357415655875085,-0.0005759686592701858,0.007190471873401642,3.558902952301492e-07,5.274041150765196e-07,-0.04520194134064033
18.382,-2.1870066778528425,-9.56642640435266e-06,5.528884399394924e-06,7.8069168977275e-06,-1.398677913586674,0.00028653999733632934,-1.2391068381858585,1.9009845128326924e-07,2.5558947939621463e-07,-0.04657597452243625
18.416,-2.233582652375279,-7.195275813003448e-07,4.427365775597599e-07,5.671897946389683e-07,-1.3576460920863787,0.00026567263732889837,1.232186831840702,1.5164985023895897e-08,1.8547773918970624e-08,-0.045209614866476414
18.448,-2.2787922672417555,1.0472412113229536e-05,-6.810342185424321e-06,-7.955542394252363e-06,-1.3577830854918351,0.0003360942851210174,-0.00411391607977405,-2.3269524188497524e-07,-2.597031836840351e-07,-0.04521417674687812
18.482,-2.324006443988633,2.278603433632094e-05,-1.5585284069698995e-05,-1.662234283254871e-05,-1.3990833929979305,0.0003697784451378799,-1.2402494746575186,-5.316942383996046e-07,-5.412361023099248e-07,-0.04658947698683109
18.515,-2.3705959209754646,3.4168184598627754e-05,-2.4505984143324946e-05,-2.3810115076013582e-05,-1.3580847354953496,0.00034180631418338786,1.2311909159934207,-8.336969029540794e-07,-7.741569153221599e-07,-0.045224221691995144
18.549,-2.41582014266746,4.6550659195051456e-05,-3.4819284162807854e-05,-3.089629948526954e-05,-1.3582392146238014,0.0003718460839766877,-0.004639012866420117,-1.1823502242366696e-06,-1.0022788558923496e-06,-0.04522936584697259
18.582,-2.461049508514433,9.556085159103146e-05,-7.427286371951291e-05,-6.012834665701195e-05,-1.3991746706547148,0.0014717775494288287,-1.2292929739013039,-2.5190291718289373e-06,-1.9439410090156978e-06,-0.046592516532802004
18.616,-2.5076420250472347,0.00013727964775403623,-0.0001106053496189974,-8.131517892209065e-05,-1.3576571644470647,0.0012528167015917347,1.246771958187689,-3.7431035481444496e-06,-2.623628540946251e-06,-0.04520998357608726
18.648,-2.552852008623322,0.00014188239480480053,-0.00011799517073421989,-7.878929901292169e-05,-1.357813443805992,0.00013822063215508413,-0.004693073841656071,-3.987206239209122e-06,-2.533973187824207e-06,-0.045215187678739534
