Time,header.seq,header.stamp.secs,header.stamp.nsecs,header.frame_id,orientation.x,orientation.y,orientation.z,orientation.w,orientation_covariance_0,orientation_covariance_1,orientation_covariance_2,orientation_covariance_3,orientation_covariance_4,orientation_covariance_5,orientation_covariance_6,orientation_covariance_7,orientation_covariance_8,angular_velocity.x,angular_velocity.y,angular_velocity.z,angular_velocity_covariance_0,angular_velocity_covariance_1,angular_velocity_covariance_2,angular_velocity_covariance_3,angular_velocity_covariance_4,angular_velocity_covariance_5,angular_velocity_covariance_6,angular_velocity_covariance_7,angular_velocity_covariance_8,linear_acceleration.x,linear_acceleration.y,linear_acceleration.z,linear_acceleration_covariance_0,linear_acceleration_covariance_1,linear_acceleration_covariance_2,linear_acceleration_covariance_3,linear_acceleration_covariance_4,linear_acceleration_covariance_5,linear_acceleration_covariance_6,linear_acceleration_covariance_7,linear_acceleration_covariance_8
0.35600000000000004,0,0,356000000,base_footprint,0.00023967642251116128,-2.218693025915023e-05,0.9999999699448283,4.6618615900593946e-05,0.0,0.0,0.0,0.0,0.0,0.0,0.0,0.0,0.0,-0.0002837415224644426,0.047563577007631495,3.1715191166606996e-06,0.0,0.0,0.0,0.0,0.0,0.0,0.0,0.0,0.0,-6.9987863760526096e-06,1.7180071656686105e-06,-0.046483590975242024,0.0,0.0,0.0,0.0,0.0,0.0,0.0,0.0,0.0
0.39,1,0,390000000,base_footprint,-0.0008031560133738613,-2.9838058033743414e-05,0.9999996759401248,4.6580614692090276e-05,0.0,0.0,0.0,0.0,0.0,0.0,0.0,0.0,0.0,-0.0004201811600755435,0.06777864970510998,6.676353660822777e-06,0.0,0.0,0.0,0.0,0.0,0.0,0.0,0.0,0.0,-0.00035529636769997215,2.0465439301510744e-09,0.0028037654450256836,0.0,0.0,0.0,0.0,0.0,0.0,0.0,0.0,0.0
0.42400000000000004,2,0,424000000,base_footprint,-0.0019568283352082477,-3.729699891626059e-05,0.9999980836337437,4.648269400002791e-05,0.0,0.0,0.0,0.0,0.0,0.0,0.0,0.0,0.0,-0.0004207201334162774,0.06770236741407855,7.902920526627404e-06,0.0,0.0,0.0,0.0,0.0,0.0,0.0,0.0,0.0,-0.0002975353452042297,4.265402942500864e-07,0.00015251610505861288,0.0,0.0,0.0,0.0,0.0,0.0,0.0,0.0,0.0
0.458,3,0,458000000,base_footprint,-0.003109195421589295,-4.476305929417358e-05,0.9999951643634827,4.636539960240469e-05,0.0,0.0,0.0,0.0,0.0,0.0,0.0,0.0,0.0,-0.00042120007672683175,0.06762592484201704,8.943178222021446e-06,0.0,0.0,0.0,0.0,0.0,0.0,0.0,0.0,0.0,-0.0002947169648413493,6.467260112482373e-08,0.00014992956575743296,0.0,0.0,0.0,0.0,0.0,0.0,0.0,0.0,0.0
0.49200000000000005,4,0,492000000,base_footprint,-0.00397147176801882,-6.92929223901704e-06,0.9999921125260365,4.7430956874856414e-05,0.0,0.0,0.0,0.0,0.0,0.0,0.0,0.0,0.0,0.000353376960375164,-0.0052235961807823,-0.00014083139049304936,0.0,0.0,0.0,0.0,0.0,0.0,0.0,0.0,0.0,0.000966909737386876,0.0003923198078338277,0.13173692188099329,0.0,0.0,0.0,0.0,0.0,0.0,0.0,0.0,0.0
0.522,5,0,526000000,base_footprint,-0.003854431094779846,-6.8937428052926955e-06,0.9999925704594478,4.836650188057984e-05,0.0,0.0,0.0,0.0,0.0,0.0,0.0,0.0,0.0,-5.9029932284448785e-05,-0.0004242939935695008,1.2708901983005141e-05,0.0,0.0,0.0,0.0,0.0,0.0,0.0,0.0,0.0,-0.0011090952663930403,-0.00037067792400947557,0.00021540952550582571,0.0,0.0,0.0,0.0,0.0,0.0,0.0,0.0,0.0
0.552,6,0,560000000,base_footprint,-0.003853074692914622,-6.874886647030356e-06,0.99999257569293,4.824071384024752e-05,0.0,0.0,0.0,0.0,0.0,0.0,0.0,0.0,0.0,3.880873178346082e-05,-0.0001854822305016054,8.982448230734809e-06,0.0,0.0,0.0,0.0,0.0,0.0,0.0,0.0,0.0,-5.585647986499716e-06,-5.792583880754809e-06,-1.338566504148565e-05,0.0,0.0,0.0,0.0,0.0,0.0,0.0,0.0,0.0
0.6010000000000001,7,0,594000000,base_footprint,-0.0038531022837636777,-6.875883701552607e-06,0.9999925755936725,4.8094140514895784e-05,0.0,0.0,0.0,0.0,0.0,0.0,0.0,0.0,0.0,3.870806983923748e-05,-0.00018017325896967678,9.731684326675163e-06,0.0,0.0,0.0,0.0,0.0,0.0,0.0,0.0,0.0,-3.33089067447895e-07,1.456664649652135e-06,-5.452813817678078e-06,0.0,0.0,0.0,0.0,0.0,0.0,0.0,0.0,0.0
0.628,8,0,628000000,base_footprint,-0.003853101635254996,-6.8765235802277855e-06,0.999992575603493,4.794157158107739e-05,0.0,0.0,0.0,0.0,0.0,0.0,0.0,0.0,0.0,3.871136997410077e-05,-0.00018042027257829035,9.855020793084514e-06,0.0,0.0,0.0,0.0,0.0,0.0,0.0,0.0,0.0,-3.0749075854794615e-08,2.399558497016911e-07,2.5062433564358173e-07,0.0,0.0,0.0,0.0,0.0,0.0,0.0,0.0,0.0
0.662,9,0,662000000,base_footprint,-0.0038531016284967397,-6.877158184816004e-06,0.9999925756108609,4.77880944352217e-05,0.0,0.0,0.0,0.0,0.0,0.0,0.0,0.0,0.0,3.8711522520642574e-05,-0.0001804102408174803,9.872559826982458e-06,0.0,0.0,0.0,0.0,0.0,0.0,0.0,0.0,0.0,-5.338435341043656e-09,3.4115394390561695e-08,-1.2317688890152552e-08,0.0,0.0,0.0,0.0,0.0,0.0,0.0,0.0,0.0
0.6970000000000001,10,0,696000000,base_footprint,-0.0038531016254756013,-6.87778878081394e-06,0.9999925756181971,4.763448525819767e-05,0.0,0.0,0.0,0.0,0.0,0.0,0.0,0.0,0.0,3.871178240577039e-05,-0.00018041017194229982,9.875002038639326e-06,0.0,0.0,0.0,0.0,0.0,0.0,0.0,0.0,0.0,-7.205226478645816e-10,4.750289198362668e-09,-2.5340840561181353e-10,0.0,0.0,0.0,0.0,0.0,0.0,0.0,0.0,0.0
0.7300000000000001,11,0,730000000,base_footprint,-0.0038531016245288577,-6.878416720352331e-06,0.9999925756255027,4.7480856408609664e-05,0.0,0.0,0.0,0.0,0.0,0.0,0.0,0.0,0.0,3.87120268912381e-05,-0.0001804101052164344,9.875252250072604e-06,0.0,0.0,0.0,0.0,0.0,0.0,0.0,0.0,0.0,-8.05814759406101e-11,4.861397082530784e-10,-5.765838860809809e-11,0.0,0.0,0.0,0.0,0.0,0.0,0.0,0.0,0.0
0.764,12,0,764000000,base_footprint,-0.0038531016238521772,-6.8790423416586036e-06,0.999992575632784,4.732722430923625e-05,0.0,0.0,0.0,0.0,0.0,0.0,0.0,0.0,0.0,3.871226346287969e-05,-0.0001804100760637442,9.875199043299474e-06,0.0,0.0,0.0,0.0,0.0,0.0,0.0,0.0,0.0,8.767577075901627e-12,-1.0422064279521139e-10,9.582927478946109e-12,0.0,0.0,0.0,0.0,0.0,0.0,0.0,0.0,0.0
0.798,13,0,798000000,base_footprint,-0.003853101623206116,-6.879665816214233e-06,0.9999925756400414,4.7173591364637764e-05,0.0,0.0,0.0,0.0,0.0,0.0,0.0,0.0,0.0,3.87124931229779e-05,-0.00018041005105834087,9.875116733299525e-06,0.0,0.0,0.0,0.0,0.0,0.0,0.0,0.0,0.0,1.7327603415746355e-11,-1.6096643582297378e-10,1.654227552009472e-11,0.0,0.0,0.0,0.0,0.0,0.0,0.0,0.0,0.0
0.8320000000000001,14,0,832000000,base_footprint,-0.003853101622555947,-6.880287284130338e-06,0.9999925756472752,4.7019957932369405e-05,0.0,0.0,0.0,0.0,0.0,0.0,0.0,0.0,0.0,3.8712716290700315e-05,-0.00018041002618808907,9.875044426397807e-06,0.0,0.0,0.0,0.0,0.0,0.0,0.0,0.0,0.0,1.439074649984079e-11,-1.4163369838003863e-10,1.544155601873266e-11,0.0,0.0,0.0,0.0,0.0,0.0,0.0,0.0,0.0
0.8660000000000001,15,0,866000000,base_footprint,-0.0038531016218968685,-6.880906873425934e-06,0.9999925756544857,4.68663240647444e-05,0.0,0.0,0.0,0.0,0.0,0.0,0.0,0.0,0.0,3.871293346522926e-05,-0.00018041000106673108,9.874986966545569e-06,0.0,0.0,0.0,0.0,0.0,0.0,0.0,0.0,0.0,1.0032202628651486e-11,-1.1286662055440137e-10,1.373007998218729e-11,0.0,0.0,0.0,0.0,0.0,0.0,0.0,0.0,0.0
0.9,16,0,900000000,base_footprint,-0.003853101621228898,-6.881524703298231e-06,0.9999925756616724,4.6712689771009864e-05,0.0,0.0,0.0,0.0,0.0,0.0,0.0,0.0,0.0,3.871314493207492e-05,-0.00018040997554700865,9.874944625691024e-06,0.0,0.0,0.0,0.0,0.0,0.0,0.0,0.0,0.0,5.59106264945137e-12,-8.356766383825114e-11,1.1811249471126173e-11,0.0,0.0,0.0,0.0,0.0,0.0,0.0,0.0,0.0
0.934,17,0,934000000,base_footprint,-0.0038531016205526443,-6.882140885162879e-06,0.9999925756688359,4.6559055058971325e-05,0.0,0.0,0.0,0.0,0.0,0.0,0.0,0.0,0.0,3.871335128892656e-05,-0.00018040994957323138,9.874916105356462e-06,0.0,0.0,0.0,0.0,0.0,0.0,0.0,0.0,0.0,1.530796561999249e-12,-5.678421684682591e-11,9.831631135337999e-12,0.0,0.0,0.0,0.0,0.0,0.0,0.0,0.0,0.0
0.9680000000000001,18,0,968000000,base_footprint,-0.0038531016198684615,-6.882755523944538e-06,0.9999925756759757,4.640541993291032e-05,0.0,0.0,0.0,0.0,0.0,0.0,0.0,0.0,0.0,3.8713552400033085e-05,-0.00018040992318183718,9.874900703342044e-06,0.0,0.0,0.0,0.0,0.0,0.0,0.0,0.0,0.0,-2.323594584331889e-12,-3.136578043955006e-11,7.987810786106074e-12,0.0,0.0,0.0,0.0,0.0,0.0,0.0,0.0,0.0
1.002,19,1,2000000,base_footprint,-0.0038531016191768437,-6.883368727224663e-06,0.9999925756830919,4.625178440388235e-05,0.0,0.0,0.0,0.0,0.0,0.0,0.0,0.0,0.0,3.871375048729295e-05,-0.00018040989649833585,9.874898641570177e-06,0.0,0.0,0.0,0.0,0.0,0.0,0.0,0.0,0.0,-6.240481314893292e-12,-5.484524734125035e-12,6.879952644991698e-12,0.0,0.0,0.0,0.0,0.0,0.0,0.0,0.0,0.0
1.036,20,1,36000000,base_footprint,-0.003853101618478165,-6.883980577287168e-06,0.9999925756901845,4.609814846584525e-05,0.0,0.0,0.0,0.0,0.0,0.0,0.0,0.0,0.0,3.871394441763611e-05,-0.0001804098694311631,9.874908516533566e-06,0.0,0.0,0.0,0.0,0.0,0.0,0.0,0.0,0.0,-9.747403005435798e-12,1.7652183708484584e-11,5.294202164405332e-12,0.0,0.0,0.0,0.0,0.0,0.0,0.0,0.0,0.0
1.07,21,1,70000000,base_footprint,-0.0038531016177730166,-6.884591159548007e-06,0.9999925756972535,4.594451212559548e-05,0.0,0.0,0.0,0.0,0.0,0.0,0.0,0.0,0.0,3.8714134240812194e-05,-0.000180409842028553,9.874928405686971e-06,0.0,0.0,0.0,0.0,0.0,0.0,0.0,0.0,0.0,-1.2689571865293563e-11,3.705523914283612e-11,3.719426130811002e-12,0.0,0.0,0.0,0.0,0.0,0.0,0.0,0.0,0.0
1.103,22,1,104000000,base_footprint,-0.003853101617061579,-6.885200554120905e-06,0.9999925757042992,4.5790875384135805e-05,0.0,0.0,0.0,0.0,0.0,0.0,0.0,0.0,0.0,3.871432033636228e-05,-0.00018040981439634021,9.874959116903063e-06,0.0,0.0,0.0,0.0,0.0,0.0,0.0,0.0,0.0,-1.586727007927263e-11,5.8033560384032214e-11,2.5894667351712725e-12,0.0,0.0,0.0,0.0,0.0,0.0,0.0,0.0,0.0
1.141,23,1,138000000,base_footprint,-0.003853101616344166,-6.885808836805451e-06,0.9999925757113212,4.563723823724632e-05,0.0,0.0,0.0,0.0,0.0,0.0,0.0,0.0,0.0,3.871450299303703e-05,-0.00018040978653658508,9.874999098429191e-06,0.0,0.0,0.0,0.0,0.0,0.0,0.0,0.0,0.0,-1.8590826251490296e-11,7.59985740857477e-11,1.4597551443258817e-12,0.0,0.0,0.0,0.0,0.0,0.0,0.0,0.0,0.0
1.171,24,1,172000000,base_footprint,-0.0038531016156217544,-6.8864160780019904e-06,0.9999925757183197,4.548360069419824e-05,0.0,0.0,0.0,0.0,0.0,0.0,0.0,0.0,0.0,3.8714682137672617e-05,-0.00018040975815996807,9.87504757734526e-06,0.0,0.0,0.0,0.0,0.0,0.0,0.0,0.0,0.0,-2.1092077521300908e-11,9.246096657171658e-11,-1.332980614734698e-13,0.0,0.0,0.0,0.0,0.0,0.0,0.0,0.0,0.0
1.205,25,1,206000000,base_footprint,-0.0038531016148943857,-6.887022343381915e-06,0.9999925757252945,4.532996275620468e-05,0.0,0.0,0.0,0.0,0.0,0.0,0.0,0.0,0.0,3.871485816612657e-05,-0.00018040972978793256,9.875105199992634e-06,0.0,0.0,0.0,0.0,0.0,0.0,0.0,0.0,0.0,-2.3773499566038277e-11,1.1018500008857513e-10,-9.069114583308679e-13,0.0,0.0,0.0,0.0,0.0,0.0,0.0,0.0,0.0
1.24,26,1,240000000,base_footprint,-0.0038531016141620067,-6.887627695320165e-06,0.9999925757322459,4.517632442252267e-05,0.0,0.0,0.0,0.0,0.0,0.0,0.0,0.0,0.0,3.8715031257756486e-05,-0.00018040970113611257,9.875170157510511e-06,0.0,0.0,0.0,0.0,0.0,0.0,0.0,0.0,0.0,-2.592932159997113e-11,1.2439889675352154e-10,-1.9832170528339394e-12,0.0,0.0,0.0,0.0,0.0,0.0,0.0,0.0,0.0
1.274,27,1,274000000,base_footprint,-0.003853101613425494,-6.888232191929985e-06,0.9999925757391734,4.5022685700042635e-05,0.0,0.0,0.0,0.0,0.0,0.0,0.0,0.0,0.0,3.87152017171517e-05,-0.00018040967221375333,9.87524162767647e-06,0.0,0.0,0.0,0.0,0.0,0.0,0.0,0.0,0.0,-2.784433130933748e-11,1.3701575907405755e-10,-3.098235014924032e-12,0.0,0.0,0.0,0.0,0.0,0.0,0.0,0.0,0.0
1.307,28,1,308000000,base_footprint,-0.003853101612684496,-6.888835887292644e-06,0.9999925757460777,4.4869046583285345e-05,0.0,0.0,0.0,0.0,0.0,0.0,0.0,0.0,0.0,3.871536954007654e-05,-0.000180409643043551,9.875321468166873e-06,0.0,0.0,0.0,0.0,0.0,0.0,0.0,0.0,0.0,-3.030358150039779e-11,1.5324399015830112e-10,-4.011363107376297e-12,0.0,0.0,0.0,0.0,0.0,0.0,0.0,0.0,0.0
1.339,29,1,342000000,base_footprint,-0.0038531016119398897,-6.889438832265303e-06,0.9999925757529583,4.4715407076024576e-05,0.0,0.0,0.0,0.0,0.0,0.0,0.0,0.0,0.0,3.871553500504406e-05,-0.0001804096137820429,9.875406497215415e-06,0.0,0.0,0.0,0.0,0.0,0.0,0.0,0.0,0.0,-3.1826916421112685e-11,1.632938396218854e-10,-4.757797192107003e-12,0.0,0.0,0.0,0.0,0.0,0.0,0.0,0.0,0.0
1.376,30,1,376000000,base_footprint,-0.003853101611191779,-6.890041074431428e-06,0.9999925757598155,4.456176719580089e-05,0.0,0.0,0.0,0.0,0.0,0.0,0.0,0.0,0.0,3.871569816466728e-05,-0.00018040958430091166,9.875496513401087e-06,0.0,0.0,0.0,0.0,0.0,0.0,0.0,0.0,0.0,-3.3294277444685514e-11,1.7295253082286152e-10,-5.522930106560638e-12,0.0,0.0,0.0,0.0,0.0,0.0,0.0,0.0,0.0
1.4100000000000001,31,1,410000000,base_footprint,-0.0038531016104403517,-6.890642658351203e-06,0.9999925757666488,4.440812695094786e-05,0.0,0.0,0.0,0.0,0.0,0.0,0.0,0.0,0.0,3.871585923311649e-05,-0.0001804095547938847,9.875593534452059e-06,0.0,0.0,0.0,0.0,0.0,0.0,0.0,0.0,0.0,-3.5347881706635987e-11,1.8653535028316287e-10,-6.161674712009988e-12,0.0,0.0,0.0,0.0,0.0,0.0,0.0,0.0,0.0
1.463,32,1,444000000,base_footprint,-0.003853101609685464,-6.891243625466918e-06,0.9999925757734588,4.4254486320551504e-05,0.0,0.0,0.0,0.0,0.0,0.0,0.0,0.0,0.0,3.871601840682564e-05,-0.00018040952497905174,9.875695772882234e-06,0.0,0.0,0.0,0.0,0.0,0.0,0.0,0.0,0.0,-3.688439195673103e-11,1.9664621096346706e-10,-7.0062289299624006e-12,0.0,0.0,0.0,0.0,0.0,0.0,0.0,0.0,0.0
1.479,33,1,478000000,base_footprint,-0.003853101608927057,-6.891844016465799e-06,0.9999925757802453,4.4100845307684785e-05,0.0,0.0,0.0,0.0,0.0,0.0,0.0,0.0,0.0,3.871617566538314e-05,-0.0001804094950713767,9.87580261214473e-06,0.0,0.0,0.0,0.0,0.0,0.0,0.0,0.0,0.0,-3.823477330950806e-11,2.0556128810943044e-10,-7.712724758887063e-12,0.0,0.0,0.0,0.0,0.0,0.0,0.0,0.0,0.0
1.512,34,1,512000000,base_footprint,-0.00385310160816648,-6.892443866539452e-06,0.999992575787008,4.394720391590878e-05,0.0,0.0,0.0,0.0,0.0,0.0,0.0,0.0,0.0,3.871633112652225e-05,-0.0001804094650720545,9.87591443004835e-06,0.0,0.0,0.0,0.0,0.0,0.0,0.0,0.0,0.0,-3.969743347922504e-11,2.1520944357230886e-10,-8.15304218071576e-12,0.0,0.0,0.0,0.0,0.0,0.0,0.0,0.0,0.0
1.548,35,1,546000000,base_footprint,-0.003853101607403063,-6.893043210479086e-06,0.999992575793747,4.379356214693156e-05,0.0,0.0,0.0,0.0,0.0,0.0,0.0,0.0,0.0,3.871648505508475e-05,-0.00018040943486208184,9.876030087034552e-06,0.0,0.0,0.0,0.0,0.0,0.0,0.0,0.0,0.0,-4.082769199006729e-11,2.2264809140195954e-10,-8.820299685369928e-12,0.0,0.0,0.0,0.0,0.0,0.0,0.0,0.0,0.0
1.58,36,1,580000000,base_footprint,-0.00385310160663717,-6.8936420803966856e-06,0.9999925758004627,4.363992000304924e-05,0.0,0.0,0.0,0.0,0.0,0.0,0.0,0.0,0.0,3.871663737227957e-05,-0.00018040940449304437,9.87614998551733e-06,0.0,0.0,0.0,0.0,0.0,0.0,0.0,0.0,0.0,-4.20745158222044e-11,2.3086805108043276e-10,-9.42307537504546e-12,0.0,0.0,0.0,0.0,0.0,0.0,0.0,0.0,0.0
1.6139999999999999,37,1,614000000,base_footprint,-0.003853101605868661,-6.894240506652693e-06,0.9999925758071546,4.3486277478938023e-05,0.0,0.0,0.0,0.0,0.0,0.0,0.0,0.0,0.0,3.8716788305967696e-05,-0.00018040937419768242,9.87627420184415e-06,0.0,0.0,0.0,0.0,0.0,0.0,0.0,0.0,0.0,-4.333881383381411e-11,2.3923885134234925e-10,-9.790222675920433e-12,0.0,0.0,0.0,0.0,0.0,0.0,0.0,0.0,0.0
1.6480000000000001,38,1,648000000,base_footprint,-0.003853101605098031,-6.894838517141689e-06,0.9999925758138232,4.3332634582829384e-05,0.0,0.0,0.0,0.0,0.0,0.0,0.0,0.0,0.0,3.8716937957105e-05,-0.00018040934360035303,9.876401281922022e-06,0.0,0.0,0.0,0.0,0.0,0.0,0.0,0.0,0.0,-4.418533519313496e-11,2.4478603944826984e-10,-1.0385149441673967e-11,0.0,0.0,0.0,0.0,0.0,0.0,0.0,0.0,0.0
1.679,39,1,682000000,base_footprint,-0.0038531016043255066,-6.895436138453894e-06,0.9999925758204681,4.317899131104226e-05,0.0,0.0,0.0,0.0,0.0,0.0,0.0,0.0,0.0,3.8717086332842075e-05,-0.00018040931305390623,9.876531970032869e-06,0.0,0.0,0.0,0.0,0.0,0.0,0.0,0.0,0.0,-4.5242874605525704e-11,2.5177856920824456e-10,-1.0673613463593769e-11,0.0,0.0,0.0,0.0,0.0,0.0,0.0,0.0,0.0
1.7160000000000002,40,1,716000000,base_footprint,-0.003853101603551007,-6.8960333951290165e-06,0.9999925758270893,4.3025347664837344e-05,0.0,0.0,0.0,0.0,0.0,0.0,0.0,0.0,0.0,3.871723355739132e-05,-0.0001804092822973253,9.876666178071508e-06,0.0,0.0,0.0,0.0,0.0,0.0,0.0,0.0,0.0,-4.6278821248122575e-11,2.5860291924538815e-10,-1.1236779282567274e-11,0.0,0.0,0.0,0.0,0.0,0.0,0.0,0.0,0.0
1.758,41,1,750000000,base_footprint,-0.003853101602774556,-6.896630310597018e-06,0.9999925758336871,4.2871703643588135e-05,0.0,0.0,0.0,0.0,0.0,0.0,0.0,0.0,0.0,3.87173795928149e-05,-0.00018040925156540056,9.876802598189642e-06,0.0,0.0,0.0,0.0,0.0,0.0,0.0,0.0,0.0,-4.6926521783328693e-11,2.628842481600822e-10,-1.1598056837823822e-11,0.0,0.0,0.0,0.0,0.0,0.0,0.0,0.0,0.0
1.786,42,1,784000000,base_footprint,-0.0038531016019964126,-6.897226906569748e-06,0.9999925758402612,4.2718059251159954e-05,0.0,0.0,0.0,0.0,0.0,0.0,0.0,0.0,0.0,3.8717524678510723e-05,-0.00018040922070170794,9.876942366533562e-06,0.0,0.0,0.0,0.0,0.0,0.0,0.0,0.0,0.0,-4.791140081312881e-11,2.693776040670572e-10,-1.1945033400285122e-11,0.0,0.0,0.0,0.0,0.0,0.0,0.0,0.0,0.0
1.831,43,1,818000000,base_footprint,-0.0038531016012165573,-6.897823203397869e-06,0.9999925758468117,4.256441448466171e-05,0.0,0.0,0.0,0.0,0.0,0.0,0.0,0.0,0.0,3.87176688491226e-05,-0.00018040918974343933,9.877084212689567e-06,0.0,0.0,0.0,0.0,0.0,0.0,0.0,0.0,0.0,-4.852323257378101e-11,2.734028538182085e-10,-1.2258798207907898e-11,0.0,0.0,0.0,0.0,0.0,0.0,0.0,0.0,0.0
1.851,44,1,852000000,base_footprint,-0.0038531016004353155,-6.89841921986107e-06,0.9999925758533387,4.24107693433999e-05,0.0,0.0,0.0,0.0,0.0,0.0,0.0,0.0,0.0,3.8717812071218235e-05,-0.00018040915873931084,9.877229097861606e-06,0.0,0.0,0.0,0.0,0.0,0.0,0.0,0.0,0.0,-4.941606515137787e-11,2.792944090522039e-10,-1.2492035865479497e-11,0.0,0.0,0.0,0.0,0.0,0.0,0.0,0.0,0.0
1.866,45,1,886000000,base_footprint,-0.003847854820361612,-6.958300293911036e-06,0.9999925961010054,4.132838078962168e-05,0.0,0.0,0.0,0.0,0.0,0.0,0.0,0.0,0.0,4.332941384285693e-05,-0.0003258094247362909,-1.987204094774516e-05,0.0,0.0,0.0,0.0,0.0,0.0,0.0,0.0,0.0,0.6455024528576632,-0.00011129381924822765,0.005117560294403606,0.0,0.0,0.0,0.0,0.0,0.0,0.0,0.0,0.0
1.921,46,1,920000000,base_footprint,-0.0038481875373793852,-6.996676997158122e-06,0.99999259478223,4.224247303537256e-05,0.0,0.0,0.0,0.0,0.0,0.0,0.0,0.0,0.0,3.7343273614954924e-05,-0.00022665109717955186,-7.175848432338034e-05,0.0,0.0,0.0,0.0,0.0,0.0,0.0,0.0,0.0,0.7859201486705297,-0.00016725416051390098,0.005924738385402277,0.0,0.0,0.0,0.0,0.0,0.0,0.0,0.0,0.0
1.9500000000000002,47,1,954000000,base_footprint,-0.003848866469710565,-7.056749943106275e-06,0.999992592072485,4.446631791192846e-05,0.0,0.0,0.0,0.0,0.0,0.0,0.0,0.0,0.0,3.548844108025268e-05,-0.00016828053942407332,-0.00015094968410014892,0.0,0.0,0.0,0.0,0.0,0.0,0.0,0.0,0.0,0.7855070274251738,-0.00022365651276838323,0.005972642518865064,0.0,0.0,0.0,0.0,0.0,0.0,0.0,0.0,0.0
1.988,48,1,988000000,base_footprint,-0.003849901030295613,-7.1335374390403284e-06,0.9999925878930968,4.8683023342786533e-05,0.0,0.0,0.0,0.0,0.0,0.0,0.0,0.0,0.0,3.398062642201261e-05,-0.00011386801613634655,-0.00027175290978104254,0.0,0.0,0.0,0.0,0.0,0.0,0.0,0.0,0.0,0.7752471122497399,-0.00031005703688620934,0.0059014924753055045,0.0,0.0,0.0,0.0,0.0,0.0,0.0,0.0,0.0
2.022,49,2,22000000,base_footprint,-0.0038513257505852954,-7.218167572700971e-06,0.999992582023767,5.5993758357452455e-05,0.0,0.0,0.0,0.0,0.0,0.0,0.0,0.0,0.0,3.489239128960633e-05,-9.926492213067861e-05,-0.0004700937698975346,0.0,0.0,0.0,0.0,0.0,0.0,0.0,0.0,0.0,0.7446376246868119,-0.0004684493728292267,0.0057162061971056735,0.0,0.0,0.0,0.0,0.0,0.0,0.0,0.0,0.0
2.056,50,2,56000000,base_footprint,-0.0038532151503347664,-7.3330784375154676e-06,0.9999925739898254,6.815009048291495e-05,0.0,0.0,0.0,0.0,0.0,0.0,0.0,0.0,0.0,3.391304261849454e-05,-5.237454611754202e-05,-0.0007853927359475397,0.0,0.0,0.0,0.0,0.0,0.0,0.0,0.0,0.0,0.6802305109694948,-0.0007048563822296155,0.005190856245799618,0.0,0.0,0.0,0.0,0.0,0.0,0.0,0.0,0.0
2.091,51,2,90000000,base_footprint,-0.0038554776438117474,-7.849313945308002e-06,0.9999925638466999,8.649757466043826e-05,0.0,0.0,0.0,0.0,0.0,0.0,0.0,0.0,0.0,2.507829583725114e-05,-2.8452521637184532e-05,-0.001202559926163137,0.0,0.0,0.0,0.0,0.0,0.0,0.0,0.0,0.0,0.5698822248373092,-0.0009086857525739904,0.004342953304187743,0.0,0.0,0.0,0.0,0.0,0.0,0.0,0.0,0.0
2.124,52,2,124000000,base_footprint,-0.0038575678949434766,-7.99628575498237e-06,0.9999925536640127,0.00010827059667167786,0.0,0.0,0.0,0.0,0.0,0.0,0.0,0.0,0.0,0.00016362326512034959,-0.00011370072054553798,-0.000737080085979798,0.0,0.0,0.0,0.0,0.0,0.0,0.0,0.0,0.0,0.4139219485804153,0.0008158858088962796,0.0034016813574440762,0.0,0.0,0.0,0.0,0.0,0.0,0.0,0.0,0.0
2.16,53,2,158000000,base_footprint,-0.0038596085671188415,-7.386904563332752e-06,0.999992544948284,0.00011582312676858561,0.0,0.0,0.0,0.0,0.0,0.0,0.0,0.0,0.0,2.1521037881904854e-05,-8.428882776096577e-05,3.369987062758229e-06,0.0,0.0,0.0,0.0,0.0,0.0,0.0,0.0,0.0,0.22200200151413146,0.00017986198108977503,0.001614379692811594,0.0,0.0,0.0,0.0,0.0,0.0,0.0,0.0,0.0
2.177,54,2,192000000,base_footprint,-0.0038527721756008155,-1.2334641285796365e-06,0.9999925762809784,5.9396744834909324e-05,0.0,0.0,0.0,0.0,0.0,0.0,0.0,0.0,0.0,-6.365968545932387e-06,-0.0008352827382887719,0.003302537961906403,0.0,0.0,0.0,0.0,0.0,0.0,0.0,0.0,0.0,0.04385762971008533,0.007603907786234246,0.0012407609495503672,0.0,0.0,0.0,0.0,0.0,0.0,0.0,0.0,0.0
2.225,55,2,226000000,base_footprint,-0.0038466416196873653,-5.087834366035327e-06,0.9999925803191572,0.00020646790978036845,0.0,0.0,0.0,0.0,0.0,0.0,0.0,0.0,0.0,0.0003258668119003217,7.63603935986256e-06,-0.025475224064982576,0.0,0.0,0.0,0.0,0.0,0.0,0.0,0.0,0.0,0.0697205023966536,-0.00615186394410535,-0.0003982653792999781,0.0,0.0,0.0,0.0,0.0,0.0,0.0,0.0,0.0
2.259,56,2,260000000,base_footprint,-0.0038492249793466602,4.4236472499193036e-07,0.9999920213783249,0.0010680105591920072,0.0,0.0,0.0,0.0,0.0,0.0,0.0,0.0,0.0,0.0006666700814999843,-0.0002954397972221682,-0.08769317264630203,0.0,0.0,0.0,0.0,0.0,0.0,0.0,0.0,0.0,0.2060093201643615,-0.011841193431219995,0.0016095806371546981,0.0,0.0,0.0,0.0,0.0,0.0,0.0,0.0,0.0
2.292,57,2,294000000,base_footprint,-0.003849038685301742,9.280987531743589e-06,0.9999865011284149,0.0034903260611376663,0.0,0.0,0.0,0.0,0.0,0.0,0.0,0.0,0.0,0.0015722693139960803,-0.00010156731130021988,-0.20107581444669573,0.0,0.0,0.0,0.0,0.0,0.0,0.0,0.0,0.0,0.2977222716936039,-0.0321737035928936,0.0019920258205141914,0.0,0.0,0.0,0.0,0.0,0.0,0.0,0.0,0.0
2.331,58,2,328000000,base_footprint,-0.0038549029920759968,2.5143518886559394e-05,0.99995973833384,0.008103135321803909,0.0,0.0,0.0,0.0,0.0,0.0,0.0,0.0,0.0,0.0024208404120936436,0.0011674437799055854,-0.3197755142179846,0.0,0.0,0.0,0.0,0.0,0.0,0.0,0.0,0.0,0.311684237596474,-0.06639645012245489,0.0006212173394092678,0.0,0.0,0.0,0.0,0.0,0.0,0.0,0.0,0.0
2.364,59,2,362000000,base_footprint,-0.003853510092555858,4.569368679713722e-05,0.9999008375571627,0.013544867091928262,0.0,0.0,0.0,0.0,0.0,0.0,0.0,0.0,0.0,0.002459452949706277,-0.0002230513317268179,-0.3203022923289969,0.0,0.0,0.0,0.0,0.0,0.0,0.0,0.0,0.0,-0.0038424211204111072,-0.07148548940895721,0.0020842061238222262,0.0,0.0,0.0,0.0,0.0,0.0,0.0,0.0,0.0
2.396,60,2,396000000,base_footprint,-0.0038529858841103094,6.644931847260254e-05,0.9998122527169805,0.018989718303904987,0.0,0.0,0.0,0.0,0.0,0.0,0.0,0.0,0.0,0.00247635774290763,-0.0002528018482179424,-0.32052759146273185,0.0,0.0,0.0,0.0,0.0,0.0,0.0,0.0,0.0,-0.0037350484313258686,-0.07126048280136595,4.069872690293637e-05,0.0,0.0,0.0,0.0,0.0,0.0,0.0,0.0,0.0
2.43,61,2,430000000,base_footprint,-0.003853003551707947,8.73203612938689e-05,0.9996925889326548,0.02449233292096015,0.0,0.0,0.0,0.0,0.0,0.0,0.0,0.0,0.0,0.0024407739438189946,-0.0006653737517376614,-0.34501596223930125,0.0,0.0,0.0,0.0,0.0,0.0,0.0,0.0,0.0,0.0013537639280887298,-0.07210340732739579,0.0008650285956341491,0.0,0.0,0.0,0.0,0.0,0.0,0.0,0.0,0.0
2.464,62,2,464000000,base_footprint,-0.003852689713193312,0.00010950540828073235,0.9995318870750771,0.030350477931571404,0.0,0.0,0.0,0.0,0.0,0.0,0.0,0.0,0.0,0.002561164389612041,-0.0002784240462599652,-0.3449055158515027,0.0,0.0,0.0,0.0,0.0,0.0,0.0,0.0,0.0,-0.007921729473499275,-0.07680314303388143,-0.0010247664546749707,0.0,0.0,0.0,0.0,0.0,0.0,0.0,0.0,0.0
2.497,63,2,498000000,base_footprint,-0.0038528341250933912,0.0001315875056743073,0.9993367548293363,0.036210341079640766,0.0,0.0,0.0,0.0,0.0,0.0,0.0,0.0,0.0,0.002532814238475487,-0.00028727487947415037,-0.34503866666113386,0.0,0.0,0.0,0.0,0.0,0.0,0.0,0.0,0.0,-0.009496923528069625,-0.07635913279422375,-0.00011409185960070843,0.0,0.0,0.0,0.0,0.0,0.0,0.0,0.0,0.0
2.533,64,2,532000000,base_footprint,-0.003850288358940914,0.00015717500301164536,0.9991051650431687,0.04211911394645307,0.0,0.0,0.0,0.0,0.0,0.0,0.0,0.0,0.0,0.00230729762971386,-0.003548863058745079,-0.3677686750369332,0.0,0.0,0.0,0.0,0.0,0.0,0.0,0.0,0.0,-0.1359511931053176,-0.05438647491660379,0.0024195238813888758,0.0,0.0,0.0,0.0,0.0,0.0,0.0,0.0,0.0
2.563,65,2,566000000,base_footprint,-0.003854633351271111,0.00017371244479385243,0.9988572423480366,0.04763739113962302,0.0,0.0,0.0,0.0,0.0,0.0,0.0,0.0,0.0,0.0030880520187214766,9.314617997090998e-05,-0.33418173931172823,0.0,0.0,0.0,0.0,0.0,0.0,0.0,0.0,0.0,-0.2358723036190915,-0.028706351511498605,-0.006499243798865625,0.0,0.0,0.0,0.0,0.0,0.0,0.0,0.0,0.0
2.6,66,2,600000000,base_footprint,-0.0038532165439833233,0.00019674351644097664,0.9985687259771391,0.053344292240570655,0.0,0.0,0.0,0.0,0.0,0.0,0.0,0.0,0.0,0.002497613593858714,-0.0002452940001851146,-0.33179812637992234,0.0,0.0,0.0,0.0,0.0,0.0,0.0,0.0,0.0,-0.01909053930085519,-0.06822478081381939,0.0008449238516406912,0.0,0.0,0.0,0.0,0.0,0.0,0.0,0.0,0.0
2.632,67,2,634000000,base_footprint,-0.0038449588985586696,0.00022427027304843016,0.9982573207137543,0.058885377092362315,0.0,0.0,0.0,0.0,0.0,0.0,0.0,0.0,0.0,0.002326801435754164,-0.0012173963727757304,-0.30536097329797113,0.0,0.0,0.0,0.0,0.0,0.0,0.0,0.0,0.0,0.0483623392943416,-0.08202244091600527,0.00228030713492886,0.0,0.0,0.0,0.0,0.0,0.0,0.0,0.0,0.0
2.668,68,2,668000000,base_footprint,-0.003843078187620657,0.00024460335368184653,0.9979293115436797,0.06420482911121814,0.0,0.0,0.0,0.0,0.0,0.0,0.0,0.0,0.0,0.00275744026969927,-0.00047237280802092056,-0.34674368180386184,0.0,0.0,0.0,0.0,0.0,0.0,0.0,0.0,0.0,0.17370324317399943,-0.11443753928290416,-8.664171997706293e-05,0.0,0.0,0.0,0.0,0.0,0.0,0.0,0.0,0.0
2.701,69,2,702000000,base_footprint,-0.003847732996573317,0.0002663739465183465,0.9974961794827462,0.07061512524263348,0.0,0.0,0.0,0.0,0.0,0.0,0.0,0.0,0.0,0.00312301117496492,-0.0002965847337210606,-0.38570998827830705,0.0,0.0,0.0,0.0,0.0,0.0,0.0,0.0,0.0,0.07139422980333127,-0.1071819115869577,0.00018092237006889773,0.0,0.0,0.0,0.0,0.0,0.0,0.0,0.0,0.0
2.736,70,2,736000000,base_footprint,-0.0038441795362446733,0.00029250728047063365,0.9970252778847969,0.0769787761784228,0.0,0.0,0.0,0.0,0.0,0.0,0.0,0.0,0.0,0.001510710734273652,-0.0042185346901792535,-0.3431434057682899,0.0,0.0,0.0,0.0,0.0,0.0,0.0,0.0,0.0,-0.10386261199730415,-0.055736295617939795,0.004433957459392504,0.0,0.0,0.0,0.0,0.0,0.0,0.0,0.0,0.0
2.769,71,2,770000000,base_footprint,-0.0038384342414212735,0.0003097706217467826,0.996537147094138,0.08305952640253078,0.0,0.0,0.0,0.0,0.0,0.0,0.0,0.0,0.0,0.002690550132667392,-0.0008213811453666726,-0.3666550837492784,0.0,0.0,0.0,0.0,0.0,0.0,0.0,0.0,0.0,-0.06547947727825632,-0.06038229218128051,-0.004528032284919738,0.0,0.0,0.0,0.0,0.0,0.0,0.0,0.0,0.0
2.8040000000000003,72,2,804000000,base_footprint,-0.003835895312382839,0.0003332328529609587,0.9960079830908474,0.08918112178213708,0.0,0.0,0.0,0.0,0.0,0.0,0.0,0.0,0.0,0.002634936995053465,-0.000682504014246775,-0.34997792081007123,0.0,0.0,0.0,0.0,0.0,0.0,0.0,0.0,0.0,0.006572479764838377,-0.08745687506828483,-6.181627092852761e-05,0.0,0.0,0.0,0.0,0.0,0.0,0.0,0.0,0.0
2.838,73,2,838000000,base_footprint,-0.003832612453478196,0.0003535698393160668,0.9955220480564559,0.09445124617298484,0.0,0.0,0.0,0.0,0.0,0.0,0.0,0.0,0.0,0.0021283623151581547,0.00010760598555263439,-0.2539469955478961,0.0,0.0,0.0,0.0,0.0,0.0,0.0,0.0,0.0,0.014717456268589972,-0.08097120011388746,-0.0005953294470046911,0.0,0.0,0.0,0.0,0.0,0.0,0.0,0.0,0.0
2.872,74,2,872000000,base_footprint,-0.0038358183395305746,0.0003722868300709909,0.9951141112480186,0.09865623900822686,0.0,0.0,0.0,0.0,0.0,0.0,0.0,0.0,0.0,0.0018994146617066004,-0.0005633380058468604,-0.2486826007903253,0.0,0.0,0.0,0.0,0.0,0.0,0.0,0.0,0.0,-0.008528502128456995,-0.0561179199573683,0.0006824922093405714,0.0,0.0,0.0,0.0,0.0,0.0,0.0,0.0,0.0
2.906,75,2,906000000,base_footprint,-0.0038346496441597835,0.0003880189325744728,0.9946883748908585,0.1028600105016403,0.0,0.0,0.0,0.0,0.0,0.0,0.0,0.0,0.0,0.0018473409662406208,-0.0004769026773975694,-0.24878832097630174,0.0,0.0,0.0,0.0,0.0,0.0,0.0,0.0,0.0,-0.020748505174495398,-0.05122149529705836,-0.000289195304720054,0.0,0.0,0.0,0.0,0.0,0.0,0.0,0.0,0.0
2.94,76,2,940000000,base_footprint,-0.003834830554636874,0.0004023613795812759,0.9942922980047629,0.10662062796825594,0.0,0.0,0.0,0.0,0.0,0.0,0.0,0.0,0.0,0.0010033082015865574,-0.0004696343417373789,-0.17617330721024124,0.0,0.0,0.0,0.0,0.0,0.0,0.0,0.0,0.0,-0.037185099776755284,-0.03844653422360581,-0.0003789787631980557,0.0,0.0,0.0,0.0,0.0,0.0,0.0,0.0,0.0
2.974,77,2,974000000,base_footprint,-0.003833101764508957,0.0004132496732708125,0.9939691487899842,0.1095922798799476,0.0,0.0,0.0,0.0,0.0,0.0,0.0,0.0,0.0,0.0011717308492625068,-0.0003511143765925723,-0.17574396813347098,0.0,0.0,0.0,0.0,0.0,0.0,0.0,0.0,0.0,-0.016782057136274238,-0.0350935387367338,9.212087608383581e-05,0.0,0.0,0.0,0.0,0.0,0.0,0.0,0.0,0.0
3.007,78,3,8000000,base_footprint,-0.003832487870025388,0.00042475573131424367,0.993638159974065,0.11255371456619888,0.0,0.0,0.0,0.0,0.0,0.0,0.0,0.0,0.0,0.0011484346096791802,-0.00031704157117093943,-0.1749676944308201,0.0,0.0,0.0,0.0,0.0,0.0,0.0,0.0,0.0,-0.017799460035642405,-0.03391048521809017,-0.00014369176298632016,0.0,0.0,0.0,0.0,0.0,0.0,0.0,0.0,0.0
3.042,79,3,42000000,base_footprint,-0.0038321575126491828,0.0004349055069928193,0.99333492079658,0.11519922114341978,0.0,0.0,0.0,0.0,0.0,0.0,0.0,0.0,0.0,0.00033590223920713284,0.0006725719261674764,-0.13169565606382336,0.0,0.0,0.0,0.0,0.0,0.0,0.0,0.0,0.0,0.020980456308460058,-0.05110100430201461,-0.0014105462922694568,0.0,0.0,0.0,0.0,0.0,0.0,0.0,0.0,0.0
3.076,80,3,76000000,base_footprint,-0.0038262447903552473,0.0004451210015649663,0.9931088241327739,0.117132511062119,0.0,0.0,0.0,0.0,0.0,0.0,0.0,0.0,0.0,0.0006559727266950898,-0.00047188372661958046,-0.10517640999485459,0.0,0.0,0.0,0.0,0.0,0.0,0.0,0.0,0.0,-0.07318783299865486,0.00915594879475179,0.001440076174616043,0.0,0.0,0.0,0.0,0.0,0.0,0.0,0.0,0.0
3.11,81,3,110000000,base_footprint,-0.003829061606374576,0.000451039185053653,0.992890741724356,0.11896684348559677,0.0,0.0,0.0,0.0,0.0,0.0,0.0,0.0,0.0,0.0007286302207009654,-0.00015860430708174424,-0.10798657906218367,0.0,0.0,0.0,0.0,0.0,0.0,0.0,0.0,0.0,-0.003300691312865286,-0.025524285689940175,-0.0004094636608002362,0.0,0.0,0.0,0.0,0.0,0.0,0.0,0.0,0.0
3.144,82,3,144000000,base_footprint,-0.0038282890894771626,0.00046062550555557114,0.9926068183993761,0.12131296754205226,0.0,0.0,0.0,0.0,0.0,0.0,0.0,0.0,0.0,0.0011315529974738594,-0.0011810238201550864,-0.1713272002946921,0.0,0.0,0.0,0.0,0.0,0.0,0.0,0.0,0.0,0.0007507651398347814,-0.034206483518474204,0.001010738243044498,0.0,0.0,0.0,0.0,0.0,0.0,0.0,0.0,0.0
3.178,83,3,178000000,base_footprint,-0.0038262463625718265,0.00047281791307083844,0.992247643159336,0.12421654852207553,0.0,0.0,0.0,0.0,0.0,0.0,0.0,0.0,0.0,0.0013097410879750937,-0.00044484755127651614,-0.1721105392199083,0.0,0.0,0.0,0.0,0.0,0.0,0.0,0.0,0.0,-0.01728236183542125,-0.03400995193989723,-0.0008968797594383773,0.0,0.0,0.0,0.0,0.0,0.0,0.0,0.0,0.0
3.213,84,3,212000000,base_footprint,-0.0038251475638567418,0.00048484804198794255,0.9918787326751449,0.12712872545274417,0.0,0.0,0.0,0.0,0.0,0.0,0.0,0.0,0.0,0.0014266052898545907,-0.000501354991426755,-0.172911804071095,0.0,0.0,0.0,0.0,0.0,0.0,0.0,0.0,0.0,-0.018938877879260185,-0.033184170337470266,-6.103693516182598e-06,0.0,0.0,0.0,0.0,0.0,0.0,0.0,0.0,0.0
3.246,85,3,246000000,base_footprint,-0.003823883797803126,0.00048779428030109435,0.9916052585931205,0.12924453992301485,0.0,0.0,0.0,0.0,0.0,0.0,0.0,0.0,0.0,-9.37251270459845e-06,-0.0005873048348634349,-0.02359459019881272,0.0,0.0,0.0,0.0,0.0,0.0,0.0,0.0,0.0,-0.34507360884846705,0.1623482896564985,-0.0020739287257401473,0.0,0.0,0.0,0.0,0.0,0.0,0.0,0.0,0.0
3.278,86,3,280000000,base_footprint,-0.003826701657814029,0.0004949204831168732,0.9915872710393097,0.12938236093437272,0.0,0.0,0.0,0.0,0.0,0.0,0.0,0.0,0.0,0.0007338719982978615,6.564143099940301e-05,-0.08061744270232044,0.0,0.0,0.0,0.0,0.0,0.0,0.0,0.0,0.0,-0.05777463180354299,0.0321042193871465,-0.0018650347616911618,0.0,0.0,0.0,0.0,0.0,0.0,0.0,0.0,0.0
3.314,87,3,314000000,base_footprint,-0.0038177612380543876,0.0004981672703493156,0.9912582583364017,0.13187964895458112,0.0,0.0,0.0,0.0,0.0,0.0,0.0,0.0,0.0,0.0011194735263341635,-0.0010774737392321757,-0.1891404793693628,0.0,0.0,0.0,0.0,0.0,0.0,0.0,0.0,0.0,0.06472555358039297,-0.07171880016209771,0.002141704500261725,0.0,0.0,0.0,0.0,0.0,0.0,0.0,0.0,0.0
3.348,88,3,348000000,base_footprint,-0.0038164659826069296,0.0005123980183695714,0.9907564113881535,0.13559832347393677,0.0,0.0,0.0,0.0,0.0,0.0,0.0,0.0,0.0,0.0015934286398971865,-0.00034954975944583613,-0.2552201297319024,0.0,0.0,0.0,0.0,0.0,0.0,0.0,0.0,0.0,0.2282767262232239,-0.19104168678556935,0.0008343573211914032,0.0,0.0,0.0,0.0,0.0,0.0,0.0,0.0,0.0
3.382,89,3,382000000,base_footprint,-0.003817961248785884,0.0005292349551942164,0.9902246789612773,0.13942821901717184,0.0,0.0,0.0,0.0,0.0,0.0,0.0,0.0,0.0,0.001682866618055471,-0.00043929157378104017,-0.21997268767144412,0.0,0.0,0.0,0.0,0.0,0.0,0.0,0.0,0.0,0.036945790001801856,-0.08266825376700442,0.0005005204480537923,0.0,0.0,0.0,0.0,0.0,0.0,0.0,0.0,0.0
3.416,90,3,416000000,base_footprint,-0.0038168301357083424,0.0005430492160679527,0.9896969532716485,0.1431260898301928,0.0,0.0,0.0,0.0,0.0,0.0,0.0,0.0,0.0,0.0015187609676105044,-0.0005233582122893754,-0.2198061353036304,0.0,0.0,0.0,0.0,0.0,0.0,0.0,0.0,0.0,-0.026242380491779377,-0.041191823866532896,3.224646961178189e-05,0.0,0.0,0.0,0.0,0.0,0.0,0.0,0.0,0.0
3.45,91,3,450000000,base_footprint,-0.0038155546740227544,0.0005550307598068473,0.9892294636904084,0.1463222527511527,0.0,0.0,0.0,0.0,0.0,0.0,0.0,0.0,0.0,0.0013677505809324203,-0.00048508003875870256,-0.1770144929863762,0.0,0.0,0.0,0.0,0.0,0.0,0.0,0.0,0.0,-0.03192534338648767,-0.02996813370541725,-2.5458308857446223e-05,0.0,0.0,0.0,0.0,0.0,0.0,0.0,0.0,0.0
3.483,92,3,484000000,base_footprint,-0.003814740866282832,0.0005662237927143406,0.9887890180005411,0.14926957166236376,0.0,0.0,0.0,0.0,0.0,0.0,0.0,0.0,0.0,0.0011342847826972815,-0.0003537995269865241,-0.17391131735049423,0.0,0.0,0.0,0.0,0.0,0.0,0.0,0.0,0.0,-0.0277988564275108,-0.027277228318003107,-0.00034099080436704346,0.0,0.0,0.0,0.0,0.0,0.0,0.0,0.0,0.0
3.517,93,3,518000000,base_footprint,-0.003809148264440408,0.0005793417713513763,0.9883527579112287,0.15213145855436883,0.0,0.0,0.0,0.0,0.0,0.0,0.0,0.0,0.0,0.0012137891603956987,-0.00029059401356022193,-0.17155553135547127,0.0,0.0,0.0,0.0,0.0,0.0,0.0,0.0,0.0,-0.0266429406493697,-0.02821407393526933,-0.00019122939121203584,0.0,0.0,0.0,0.0,0.0,0.0,0.0,0.0,0.0
3.552,94,3,552000000,base_footprint,-0.0038136801279872014,0.000588789314188406,0.9878600444938348,0.15529855654082458,0.0,0.0,0.0,0.0,0.0,0.0,0.0,0.0,0.0,0.0010671919146786227,-0.0006772222750201733,-0.16059404795310026,0.0,0.0,0.0,0.0,0.0,0.0,0.0,0.0,0.0,-0.23509302272139115,0.11733989519247215,-0.0012417973139562217,0.0,0.0,0.0,0.0,0.0,0.0,0.0,0.0,0.0
3.5860000000000003,95,3,586000000,base_footprint,-0.0038075471783888966,0.0005993526125168022,0.9875098536860814,0.15751010200563187,0.0,0.0,0.0,0.0,0.0,0.0,0.0,0.0,0.0,0.0007574272521783923,-0.0006983830512330611,-0.12791324748387542,0.0,0.0,0.0,0.0,0.0,0.0,0.0,0.0,0.0,-0.08565580598206553,0.0278302490428499,-0.0006761683708199787,0.0,0.0,0.0,0.0,0.0,0.0,0.0,0.0,0.0
3.62,96,3,620000000,base_footprint,-0.0038061081256416025,0.0006082917280323133,0.9871637167214835,0.15966508669942953,0.0,0.0,0.0,0.0,0.0,0.0,0.0,0.0,0.0,0.0008560601520715554,-0.0004119898141852035,-0.12821363390123908,0.0,0.0,0.0,0.0,0.0,0.0,0.0,0.0,0.0,-0.01457377544848192,-0.022667756610383023,-0.0005362436298592211,0.0,0.0,0.0,0.0,0.0,0.0,0.0,0.0,0.0
3.654,97,3,654000000,base_footprint,-0.003805014052798394,0.0006141870199369365,0.986944530772697,0.16101440252419583,0.0,0.0,0.0,0.0,0.0,0.0,0.0,0.0,0.0,0.0005344212190828612,-0.0001875401630152741,-0.06838060999159087,0.0,0.0,0.0,0.0,0.0,0.0,0.0,0.0,0.0,-0.022254118385687544,-0.005043176420205095,-0.0003156858014130191,0.0,0.0,0.0,0.0,0.0,0.0,0.0,0.0,0.0
3.688,98,3,688000000,base_footprint,-0.0038046762640615477,0.0006192427776698566,0.9867558153914124,0.16216689479710972,0.0,0.0,0.0,0.0,0.0,0.0,0.0,0.0,0.0,0.0005464904432297764,-0.00036065820226216137,-0.06867690501092935,0.0,0.0,0.0,0.0,0.0,0.0,0.0,0.0,0.0,-0.008202244198886823,-0.01176685068784045,0.0001716071830589707,0.0,0.0,0.0,0.0,0.0,0.0,0.0,0.0,0.0
3.722,99,3,722000000,base_footprint,-0.0038044126685502578,0.0006243295516242764,0.9865645389253032,0.16332650486666983,0.0,0.0,0.0,0.0,0.0,0.0,0.0,0.0,0.0,0.0005977936104176126,-0.00037035321244879057,-0.06930788389392444,0.0,0.0,0.0,0.0,0.0,0.0,0.0,0.0,0.0,-0.008763997144575753,-0.01143940740190527,-0.0001074453802354233,0.0,0.0,0.0,0.0,0.0,0.0,0.0,0.0,0.0
3.7560000000000002,100,3,756000000,base_footprint,-0.003804590000525964,0.0006317586874217927,0.9862897259071167,0.1649778850208519,0.0,0.0,0.0,0.0,0.0,0.0,0.0,0.0,0.0,0.0005848469636862601,-0.00047672913184273937,-0.10154245744541614,0.0,0.0,0.0,0.0,0.0,0.0,0.0,0.0,0.0,0.07548776684608596,-0.08387570918591994,0.0011563418065060683,0.0,0.0,0.0,0.0,0.0,0.0,0.0,0.0,0.0
3.79,101,3,790000000,base_footprint,-0.003798597098891145,0.0006326399512267236,0.9859753286365719,0.16684670133621618,0.0,0.0,0.0,0.0,0.0,0.0,0.0,0.0,0.0,0.0005486248658079857,-0.0007783178466763465,-0.11927348581700528,0.0,0.0,0.0,0.0,0.0,0.0,0.0,0.0,0.0,-0.04251778929595516,0.003421763265984388,-2.429299852821945e-05,0.0,0.0,0.0,0.0,0.0,0.0,0.0,0.0,0.0
3.824,102,3,824000000,base_footprint,-0.003797531653366258,0.0006393530341877713,0.9856531386955177,0.1687396223793158,0.0,0.0,0.0,0.0,0.0,0.0,0.0,0.0,0.0,0.0005818845134100324,-0.0003382117250569386,-0.099943770131576,0.0,0.0,0.0,0.0,0.0,0.0,0.0,0.0,0.0,0.016854586607883686,-0.044757761662823886,-0.0004274548082457319,0.0,0.0,0.0,0.0,0.0,0.0,0.0,0.0,0.0
3.858,103,3,858000000,base_footprint,-0.003796910453382333,0.0006452511765653971,0.985372480197977,0.17037089654754992,0.0,0.0,0.0,0.0,0.0,0.0,0.0,0.0,0.0,0.0003524442319315467,-0.0002260606881397155,-0.06643667001052056,0.0,0.0,0.0,0.0,0.0,0.0,0.0,0.0,0.0,0.12293655540158951,-0.1280089738357351,0.0011107148818634773,0.0,0.0,0.0,0.0,0.0,0.0,0.0,0.0,0.0
3.892,104,3,892000000,base_footprint,-0.0037999914242642955,0.0006509998288114762,0.9852321164648244,0.17118064420559118,0.0,0.0,0.0,0.0,0.0,0.0,0.0,0.0,0.0,0.00023102242908632327,-0.00017402223275284954,-0.046319130666019726,0.0,0.0,0.0,0.0,0.0,0.0,0.0,0.0,0.0,0.02529174950955992,-0.03481299487993386,0.00017458359899097584,0.0,0.0,0.0,0.0,0.0,0.0,0.0,0.0,0.0
3.926,105,3,926000000,base_footprint,-0.003800810789738529,0.0006556366994596351,0.9850979976375128,0.17195074593738122,0.0,0.0,0.0,0.0,0.0,0.0,0.0,0.0,0.0,0.004531764574462197,-0.0005901356016787285,-0.051917988217199285,0.0,0.0,0.0,0.0,0.0,0.0,0.0,0.0,0.0,-0.020189629285121788,0.004627439102055909,0.0016294659460007008,0.0,0.0,0.0,0.0,0.0,0.0,0.0,0.0,0.0
3.96,106,3,960000000,base_footprint,-0.003793734822748487,0.0006629951412057709,0.9848390453245597,0.17342786055806375,0.0,0.0,0.0,0.0,0.0,0.0,0.0,0.0,0.0,0.0005596314769959255,0.0008585511142811134,-0.08170386404630481,0.0,0.0,0.0,0.0,0.0,0.0,0.0,0.0,0.0,-0.15124920303829353,0.10077508404649146,-0.004894941055887556,0.0,0.0,0.0,0.0,0.0,0.0,0.0,0.0,0.0
3.994,107,3,994000000,base_footprint,-0.0038009573139795505,0.0006630132931038798,0.9846327396321131,0.17459519232049325,0.0,0.0,0.0,0.0,0.0,0.0,0.0,0.0,0.0,0.00020014632322803527,-0.00042506283961122275,-0.04937498037514649,0.0,0.0,0.0,0.0,0.0,0.0,0.0,0.0,0.0,-0.0739946319809738,0.042473469728589175,0.0017964932212189172,0.0,0.0,0.0,0.0,0.0,0.0,0.0,0.0,0.0
4.028,108,4,28000000,base_footprint,-0.0037911004514125774,0.0006677772103635318,0.984553906817976,0.1750393847121982,0.0,0.0,0.0,0.0,0.0,0.0,0.0,0.0,0.0,-0.0014447926022643281,-0.004460751500884897,-0.013877661467410292,0.0,0.0,0.0,0.0,0.0,0.0,0.0,0.0,0.0,-0.01390263207624829,0.0038389185628072645,0.006083401897347454,0.0,0.0,0.0,0.0,0.0,0.0,0.0,0.0,0.0
4.062,109,4,62000000,base_footprint,-0.00379766249702905,0.0006664368602916428,0.9845859265369631,0.1748590486272294,0.0,0.0,0.0,0.0,0.0,0.0,0.0,0.0,0.0,3.5428719594845164e-05,0.0005943401239884859,0.0007168280379270662,0.0,0.0,0.0,0.0,0.0,0.0,0.0,0.0,0.0,0.21706877236925504,-0.18094266537533354,-0.005754396814624709,0.0,0.0,0.0,0.0,0.0,0.0,0.0,0.0,0.0
4.097,110,4,96000000,base_footprint,-0.0037960175427698565,0.0006667831740240958,0.9845891654967812,0.17484084430523042,0.0,0.0,0.0,0.0,0.0,0.0,0.0,0.0,0.0,-0.00012496859485759158,-8.306690528854123e-05,0.0012175737177589955,0.0,0.0,0.0,0.0,0.0,0.0,0.0,0.0,0.0,-0.00027694076388263145,0.0004973692049173557,0.001174203717802813,0.0,0.0,0.0,0.0,0.0,0.0,0.0,0.0,0.0
4.132,111,4,130000000,base_footprint,-0.003789313644679535,0.0006666589031888041,0.9845753342616039,0.17491886070878646,0.0,0.0,0.0,0.0,0.0,0.0,0.0,0.0,0.0,-0.0008605939101983333,-0.002140623570020716,-0.0616386982188978,0.0,0.0,0.0,0.0,0.0,0.0,0.0,0.0,0.0,0.012442690054898203,-0.010963857375149495,0.001721819898158532,0.0,0.0,0.0,0.0,0.0,0.0,0.0,0.0,0.0
4.164,112,4,164000000,base_footprint,-0.0037954905169780757,0.0006726010082347331,0.9843785687187274,0.1760226556636649,0.0,0.0,0.0,0.0,0.0,0.0,0.0,0.0,0.0,0.0005250818886569915,-0.0003268761348308725,-0.06577366141265262,0.0,0.0,0.0,0.0,0.0,0.0,0.0,0.0,0.0,-0.007120845135569383,-0.012911564164132491,-0.0016646782366402809,0.0,0.0,0.0,0.0,0.0,0.0,0.0,0.0,0.0
4.198,113,4,198000000,base_footprint,-0.0037951851763801865,0.0006774839612536957,0.9841798194699576,0.1771305183559316,0.0,0.0,0.0,0.0,0.0,0.0,0.0,0.0,0.0,0.0005519942077759965,-0.0003808603654057087,-0.06636620659883653,0.0,0.0,0.0,0.0,0.0,0.0,0.0,0.0,0.0,-0.009379611207149398,-0.011146521369437924,-6.326942807259215e-05,0.0,0.0,0.0,0.0,0.0,0.0,0.0,0.0,0.0
4.232,114,4,232000000,base_footprint,-0.003799371150425517,0.0006838331293633287,0.9839988832089976,0.1781328015682626,0.0,0.0,0.0,0.0,0.0,0.0,0.0,0.0,0.0,-0.0010167854171845266,-0.0007522356251086079,-0.009874957110894948,0.0,0.0,0.0,0.0,0.0,0.0,0.0,0.0,0.0,-0.07865095602879442,0.05008231240759348,-0.0003206206534904858,0.0,0.0,0.0,0.0,0.0,0.0,0.0,0.0,0.0
4.266,115,4,266000000,base_footprint,-0.003791214788673097,0.0006777374173884777,0.9839489719491179,0.17840848624068678,0.0,0.0,0.0,0.0,0.0,0.0,0.0,0.0,0.0,-1.6125450508738752e-05,9.946822176071754e-05,-0.026596819172934758,0.0,0.0,0.0,0.0,0.0,0.0,0.0,0.0,0.0,-0.031750730298845245,0.023819084329679437,-0.0006590575129204455,0.0,0.0,0.0,0.0,0.0,0.0,0.0,0.0,0.0
4.3,116,4,300000000,base_footprint,-0.0037907763776610713,0.0006781701732983473,0.9838783806559231,0.17879737743476348,0.0,0.0,0.0,0.0,0.0,0.0,0.0,0.0,0.0,-5.701775267373996e-05,-0.00011138723335735106,-0.013022305054798225,0.0,0.0,0.0,0.0,0.0,0.0,0.0,0.0,0.0,0.018753234717922278,-0.023630211549927234,0.00018264682087049098,0.0,0.0,0.0,0.0,0.0,0.0,0.0,0.0,0.0
4.335,117,4,334000000,base_footprint,-0.003793763719471048,0.0006791284858976104,0.9839255386449819,0.17853761660648082,0.0,0.0,0.0,0.0,0.0,0.0,0.0,0.0,0.0,0.0008643537514175141,0.0010759498720531056,0.05050266730172058,0.0,0.0,0.0,0.0,0.0,0.0,0.0,0.0,0.0,0.055162708411231505,-0.04500066577002612,-0.0016579284781187427,0.0,0.0,0.0,0.0,0.0,0.0,0.0,0.0,0.0
4.369,118,4,368000000,base_footprint,-0.003795541584572383,0.0006762681433281387,0.9840761931084052,0.17770532542033446,0.0,0.0,0.0,0.0,0.0,0.0,0.0,0.0,0.0,-0.0004297677421827268,0.00011345139348034326,0.04966411719639317,0.0,0.0,0.0,0.0,0.0,0.0,0.0,0.0,0.0,0.007303818541220062,0.008195731343143681,0.0019676839350573913,0.0,0.0,0.0,0.0,0.0,0.0,0.0,0.0,0.0
4.402,119,4,402000000,base_footprint,-0.003796613089349775,0.0006725666927431865,0.9842272896984111,0.17686654741927263,0.0,0.0,0.0,0.0,0.0,0.0,0.0,0.0,0.0,-0.0004608578804064214,0.00012055478615393595,0.049920063716120205,0.0,0.0,0.0,0.0,0.0,0.0,0.0,0.0,0.0,0.007620725726606282,0.008536310795275396,-7.121848343118737e-07,0.0,0.0,0.0,0.0,0.0,0.0,0.0,0.0,0.0
4.436,120,4,436000000,base_footprint,-0.0037967392742917043,0.0006708417553575815,0.9843992667052869,0.17590684595067893,0.0,0.0,0.0,0.0,0.0,0.0,0.0,0.0,0.0,-8.456114134221131e-05,0.0008387116536247784,0.07955287151344176,0.0,0.0,0.0,0.0,0.0,0.0,0.0,0.0,0.0,0.032207255946255696,-0.011443976346937697,-0.0010337458740673924,0.0,0.0,0.0,0.0,0.0,0.0,0.0,0.0,0.0
4.47,121,4,470000000,base_footprint,-0.00379657172766733,0.0006645103549572452,0.984668731951602,0.17439218097704157,0.0,0.0,0.0,0.0,0.0,0.0,0.0,0.0,0.0,-0.0012881971924636124,-0.001315578328982864,0.1057644142029449,0.0,0.0,0.0,0.0,0.0,0.0,0.0,0.0,0.0,-0.03985072298267368,0.059508595783920655,0.0034983924539411294,0.0,0.0,0.0,0.0,0.0,0.0,0.0,0.0,0.0
4.504,122,4,504000000,base_footprint,-0.0037975434690568064,0.0006580819665995256,0.9849601788418242,0.17273850667297044,0.0,0.0,0.0,0.0,0.0,0.0,0.0,0.0,0.0,-0.0008901972574384435,5.2516604423829356e-05,0.09859554572099868,0.0,0.0,0.0,0.0,0.0,0.0,0.0,0.0,0.0,0.028555448839737544,0.0038008875415445906,-0.0019300755771619134,0.0,0.0,0.0,0.0,0.0,0.0,0.0,0.0,0.0
4.538,123,4,538000000,base_footprint,-0.003797287244168124,0.0006514706487601102,0.9852748192159078,0.17093474431677,0.0,0.0,0.0,0.0,0.0,0.0,0.0,0.0,0.0,-0.0010004682456519608,9.908334335843386e-05,0.12469159330459204,0.0,0.0,0.0,0.0,0.0,0.0,0.0,0.0,0.0,0.00981873709122302,0.022080410113594726,4.5525810684106435e-05,0.0,0.0,0.0,0.0,0.0,0.0,0.0,0.0,0.0
4.573,124,4,572000000,base_footprint,-0.0037999049852800275,0.0006439937206622803,0.98563320143912,0.168855968846416,0.0,0.0,0.0,0.0,0.0,0.0,0.0,0.0,0.0,-0.0009845092762066003,0.00022186898754565542,0.12431591112906239,0.0,0.0,0.0,0.0,0.0,0.0,0.0,0.0,0.0,0.018989180564445617,0.01954864683434936,-0.00017714472610924197,0.0,0.0,0.0,0.0,0.0,0.0,0.0,0.0,0.0
4.606,125,4,606000000,base_footprint,-0.0038013179167984295,0.0006366432209199788,0.9859871713432611,0.1667766249029504,0.0,0.0,0.0,0.0,0.0,0.0,0.0,0.0,0.0,-0.0009271033479812147,0.00020523918752615277,0.12422707480228284,0.0,0.0,0.0,0.0,0.0,0.0,0.0,0.0,0.0,0.017894766595811813,0.020510427120650508,-1.6800190495397466e-05,0.0,0.0,0.0,0.0,0.0,0.0,0.0,0.0,0.0
4.64,126,4,640000000,base_footprint,-0.003802895665068401,0.0006294926867590154,0.9863277303750044,0.16475056909404198,0.0,0.0,0.0,0.0,0.0,0.0,0.0,0.0,0.0,-0.00092093637336888,-5.0789945081356304e-05,0.1170767101113147,0.0,0.0,0.0,0.0,0.0,0.0,0.0,0.0,0.0,0.018274769668140668,0.019430806243253832,0.00043279674131733374,0.0,0.0,0.0,0.0,0.0,0.0,0.0,0.0,0.0
4.674,127,4,674000000,base_footprint,-0.0038047662957375328,0.0006227513154559273,0.9866519551904673,0.16279758982571582,0.0,0.0,0.0,0.0,0.0,0.0,0.0,0.0,0.0,-0.0007249775661648948,0.00011016015573142227,0.11613254628961227,0.0,0.0,0.0,0.0,0.0,0.0,0.0,0.0,0.0,0.015108634781290792,0.020548618858004398,-0.0003023084534767,0.0,0.0,0.0,0.0,0.0,0.0,0.0,0.0,0.0
4.708,128,4,708000000,base_footprint,-0.0038072801860005883,0.000616224110762559,0.9869639984207872,0.16089496793462196,0.0,0.0,0.0,0.0,0.0,0.0,0.0,0.0,0.0,-0.000869255294561041,0.00011185762716823916,0.10667945484008308,0.0,0.0,0.0,0.0,0.0,0.0,0.0,0.0,0.0,0.0008202647803942633,0.031321309205079924,0.00031662744532814875,0.0,0.0,0.0,0.0,0.0,0.0,0.0,0.0,0.0
4.742,129,4,742000000,base_footprint,-0.003802920270605732,0.0006046418714422164,0.9871990354114362,0.1594466578149343,0.0,0.0,0.0,0.0,0.0,0.0,0.0,0.0,0.0,-0.0007959842298809044,5.289749762823722e-07,0.0748801838685377,0.0,0.0,0.0,0.0,0.0,0.0,0.0,0.0,0.0,0.021208191016516928,0.007405734314623317,0.00028134476871629797,0.0,0.0,0.0,0.0,0.0,0.0,0.0,0.0,0.0
4.776,130,4,776000000,base_footprint,-0.0038066927148037418,0.0006018577211816022,0.9874167256421251,0.1580928739065838,0.0,0.0,0.0,0.0,0.0,0.0,0.0,0.0,0.0,-0.0005828752174772186,0.00011094308572215241,0.08137008829883621,0.0,0.0,0.0,0.0,0.0,0.0,0.0,0.0,0.0,0.022367409094293716,0.005456470451346987,-0.0004722354114304036,0.0,0.0,0.0,0.0,0.0,0.0,0.0,0.0,0.0
4.8100000000000005,131,4,810000000,base_footprint,-0.0038080990153335024,0.0005961345899010478,0.9876348952079451,0.15672414227881906,0.0,0.0,0.0,0.0,0.0,0.0,0.0,0.0,0.0,-0.0006583609555203047,0.00013226668460892112,0.0812215290430705,0.0,0.0,0.0,0.0,0.0,0.0,0.0,0.0,0.0,0.011487462801410546,0.013729607459198191,6.912345759232353e-05,0.0,0.0,0.0,0.0,0.0,0.0,0.0,0.0,0.0
4.844,132,4,844000000,base_footprint,-0.003806252801923167,0.0005937460661377974,0.9878170368563516,0.15557204633723296,0.0,0.0,0.0,0.0,0.0,0.0,0.0,0.0,0.0,-0.003225792946873371,-0.0017625399901240407,0.05090521055748886,0.0,0.0,0.0,0.0,0.0,0.0,0.0,0.0,0.0,-0.2531998900656045,0.20243393250367647,0.0002568670910037536,0.0,0.0,0.0,0.0,0.0,0.0,0.0,0.0,0.0
4.878,133,4,878000000,base_footprint,-0.0038106233762635043,0.0005868975176062048,0.9879670171417594,0.15461664768323805,0.0,0.0,0.0,0.0,0.0,0.0,0.0,0.0,0.0,-0.0005596068176044292,0.00013453726022296032,0.05697635728772966,0.0,0.0,0.0,0.0,0.0,0.0,0.0,0.0,0.0,-0.002017000345921371,0.014890566248635453,-0.0026766663814255668,0.0,0.0,0.0,0.0,0.0,0.0,0.0,0.0,0.0
4.912,134,4,912000000,base_footprint,-0.003811676290399593,0.000583046067327119,0.9881163866082866,0.15365916079858002,0.0,0.0,0.0,0.0,0.0,0.0,0.0,0.0,0.0,-0.0005817615911026981,0.0001781396517266081,0.05627778696212982,0.0,0.0,0.0,0.0,0.0,0.0,0.0,0.0,0.0,0.00937145445042002,0.008701324862733424,2.4054320553659426e-05,0.0,0.0,0.0,0.0,0.0,0.0,0.0,0.0,0.0
4.946,135,4,946000000,base_footprint,-0.003805734019292823,0.0005855177571422952,0.9881996774452894,0.15312273199808293,0.0,0.0,0.0,0.0,0.0,0.0,0.0,0.0,0.0,2.3133377188898208e-05,4.822630613255824e-05,0.012201147716919485,0.0,0.0,0.0,0.0,0.0,0.0,0.0,0.0,0.0,-0.05184622657959126,0.04480208541487707,-0.0003563860915840076,0.0,0.0,0.0,0.0,0.0,0.0,0.0,0.0,0.0
4.987,136,4,980000000,base_footprint,-0.00380303855602343,0.0005828157462408409,0.9883138394041894,0.15238422512090197,0.0,0.0,0.0,0.0,0.0,0.0,0.0,0.0,0.0,-0.0008539247499102373,0.0001994663622370169,0.11274434758750976,0.0,0.0,0.0,0.0,0.0,0.0,0.0,0.0,0.0,0.23845536690629357,-0.15752397348354147,0.0022565384836922466,0.0,0.0,0.0,0.0,0.0,0.0,0.0,0.0,0.0
5.014,137,5,14000000,base_footprint,-0.0038125112627697146,0.0005743400839454448,0.9885373937143077,0.15092698936857923,0.0,0.0,0.0,0.0,0.0,0.0,0.0,0.0,0.0,-0.000917303750790538,-0.00045560432837184477,0.074979494563466,0.0,0.0,0.0,0.0,0.0,0.0,0.0,0.0,0.0,0.10258199034294811,-0.048329143359611464,0.0016012430094789118,0.0,0.0,0.0,0.0,0.0,0.0,0.0,0.0,0.0
5.051,138,5,48000000,base_footprint,-0.0038121728981603035,0.0005701378175719916,0.9887372616495438,0.1496120640403887,0.0,0.0,0.0,0.0,0.0,0.0,0.0,0.0,0.0,-0.0007230543800724302,4.268673888410003e-05,0.08030411846665848,0.0,0.0,0.0,0.0,0.0,0.0,0.0,0.0,0.0,0.010010973289917683,0.013893242094294822,-0.0006170363817617858,0.0,0.0,0.0,0.0,0.0,0.0,0.0,0.0,0.0
5.084,139,5,82000000,base_footprint,-0.0038128521635456473,0.0005657128984185974,0.9889397652234683,0.14826760565628394,0.0,0.0,0.0,0.0,0.0,0.0,0.0,0.0,0.0,-0.0006041639245940375,6.833603463051737e-05,0.0800946919142714,0.0,0.0,0.0,0.0,0.0,0.0,0.0,0.0,0.0,0.010694831316914264,0.014042294604997724,-0.0001589895832360354,0.0,0.0,0.0,0.0,0.0,0.0,0.0,0.0,0.0
5.115,140,5,116000000,base_footprint,-0.0038138275431488927,0.0005611696333563325,0.9891396350838881,0.14692828901959726,0.0,0.0,0.0,0.0,0.0,0.0,0.0,0.0,0.0,-0.0005613465457004023,6.301209276243524e-05,0.0796261202669398,0.0,0.0,0.0,0.0,0.0,0.0,0.0,0.0,0.0,0.010053042755024194,0.01434111946029343,-2.235059016919652e-05,0.0,0.0,0.0,0.0,0.0,0.0,0.0,0.0,0.0
5.15,141,5,150000000,base_footprint,-0.0038153908428253175,0.0005566196172884625,0.9893430249637762,0.14555243702131224,0.0,0.0,0.0,0.0,0.0,0.0,0.0,0.0,0.0,-0.00040092854801916704,4.7391785340281624e-05,0.0820030277815249,0.0,0.0,0.0,0.0,0.0,0.0,0.0,0.0,0.0,0.007968817429201414,0.017011265042975655,-6.138277917490598e-05,0.0,0.0,0.0,0.0,0.0,0.0,0.0,0.0,0.0
5.183,142,5,184000000,base_footprint,-0.003815836868613367,0.0005502685345901058,0.9895298898048531,0.14427658776228164,0.0,0.0,0.0,0.0,0.0,0.0,0.0,0.0,0.0,-0.0014391251775351616,-0.00042429694876191864,0.06370268261619522,0.0,0.0,0.0,0.0,0.0,0.0,0.0,0.0,0.0,-0.021699868361888957,0.03360762423586344,0.001473155958310653,0.0,0.0,0.0,0.0,0.0,0.0,0.0,0.0,0.0
5.214,143,5,218000000,base_footprint,-0.0038118391204123438,0.0005417042928804063,0.9896814453130602,0.14323342222411412,0.0,0.0,0.0,0.0,0.0,0.0,0.0,0.0,0.0,-0.0005764883815974553,-5.48978649908911e-05,0.06885491187189412,0.0,0.0,0.0,0.0,0.0,0.0,0.0,0.0,0.0,0.017115411330193626,0.0049805495854055425,-0.0011183942203093229,0.0,0.0,0.0,0.0,0.0,0.0,0.0,0.0,0.0
5.251,144,5,252000000,base_footprint,-0.0038157374780777276,0.0005391263691616249,0.9898828730323587,0.14183457676976935,0.0,0.0,0.0,0.0,0.0,0.0,0.0,0.0,0.0,-0.0005524601443252941,0.00010802474985615842,0.08614961671933585,0.0,0.0,0.0,0.0,0.0,0.0,0.0,0.0,0.0,0.03122001060107739,0.001294074812912477,-0.00014661515757095054,0.0,0.0,0.0,0.0,0.0,0.0,0.0,0.0,0.0
5.2780000000000005,145,5,286000000,base_footprint,-0.0038171375216833245,0.0005331193959335203,0.9900899339172062,0.1403818649280326,0.0,0.0,0.0,0.0,0.0,0.0,0.0,0.0,0.0,-0.0006913784267653907,0.00011074711093759054,0.08603015635897593,0.0,0.0,0.0,0.0,0.0,0.0,0.0,0.0,0.0,0.011170310880731732,0.015286901423074113,4.913149241529875e-05,0.0,0.0,0.0,0.0,0.0,0.0,0.0,0.0,0.0
5.323,146,5,320000000,base_footprint,-0.003818474962556158,0.0005269769530600323,0.9902946868900927,0.13893010710967113,0.0,0.0,0.0,0.0,0.0,0.0,0.0,0.0,0.0,-0.0007181916652854817,0.00012866732168352536,0.08610274920023926,0.0,0.0,0.0,0.0,0.0,0.0,0.0,0.0,0.0,0.010708717954956617,0.015520557207802575,1.4479219828936194e-05,0.0,0.0,0.0,0.0,0.0,0.0,0.0,0.0,0.0
5.361,147,5,354000000,base_footprint,-0.003819940334042637,0.0005197667908109692,0.9905430764125724,0.13714791893953165,0.0,0.0,0.0,0.0,0.0,0.0,0.0,0.0,0.0,-0.0010077752008932537,0.00016400662885412005,0.1097111929989713,0.0,0.0,0.0,0.0,0.0,0.0,0.0,0.0,0.0,0.0065816123209754655,0.02282736632731286,6.539835955964581e-05,0.0,0.0,0.0,0.0,0.0,0.0,0.0,0.0,0.0
5.3870000000000005,148,5,388000000,base_footprint,-0.0038214649514200917,0.0005123486123604867,0.9907981799777602,0.13529264746202047,0.0,0.0,0.0,0.0,0.0,0.0,0.0,0.0,0.0,-0.0009748749168772961,0.00022892317735235732,0.11036114165018036,0.0,0.0,0.0,0.0,0.0,0.0,0.0,0.0,0.0,0.012014748203229734,0.021475569644583723,-4.173806067470377e-05,0.0,0.0,0.0,0.0,0.0,0.0,0.0,0.0,0.0
5.422,149,5,422000000,base_footprint,-0.00382409666592896,0.0005047366379575058,0.9910528996647112,0.13341391078813222,0.0,0.0,0.0,0.0,0.0,0.0,0.0,0.0,0.0,-0.000997451719540321,0.00011737929322361123,0.11460569348071853,0.0,0.0,0.0,0.0,0.0,0.0,0.0,0.0,0.0,0.0032633158211428453,0.025501715295244892,0.0002414012884173058,0.0,0.0,0.0,0.0,0.0,0.0,0.0,0.0,0.0
5.457,150,5,456000000,base_footprint,-0.0038260109119072727,0.0005007223472043756,0.9911731891482222,0.1325172442792849,0.0,0.0,0.0,0.0,0.0,0.0,0.0,0.0,0.0,-0.00044410399992891354,-0.00015066916270635623,0.05116367648320603,0.0,0.0,0.0,0.0,0.0,0.0,0.0,0.0,0.0,-0.22844058970085085,0.14901306227582983,-0.001701150109971392,0.0,0.0,0.0,0.0,0.0,0.0,0.0,0.0,0.0
5.493,151,5,490000000,base_footprint,-0.0038237843037173093,0.0004981596373441,0.9913274597878022,0.13135828097702065,0.0,0.0,0.0,0.0,0.0,0.0,0.0,0.0,0.0,-0.0006903095682835379,-0.00037823890180219404,0.0705704789641713,0.0,0.0,0.0,0.0,0.0,0.0,0.0,0.0,0.0,-0.03617083319363854,0.0375280316986428,-0.00017808042381129506,0.0,0.0,0.0,0.0,0.0,0.0,0.0,0.0,0.0
5.53,152,5,524000000,base_footprint,-0.0038231856842461933,0.0004945962634179771,0.9914835805581476,0.13017468305840105,0.0,0.0,0.0,0.0,0.0,0.0,0.0,0.0,0.0,-0.0005527121971094079,4.861673546929803e-05,0.07038152913017952,0.0,0.0,0.0,0.0,0.0,0.0,0.0,0.0,0.0,0.008264210493389218,0.01209480518089381,-0.0006114070288611814,0.0,0.0,0.0,0.0,0.0,0.0,0.0,0.0,0.0
5.557,153,5,558000000,base_footprint,-0.0038231945708517047,0.0004941264669767128,0.9915201270094044,0.12989602287045862,0.0,0.0,0.0,0.0,0.0,0.0,0.0,0.0,0.0,-0.00010066495321759338,-0.00012892811240676,0.011092340000404512,0.0,0.0,0.0,0.0,0.0,0.0,0.0,0.0,0.0,0.016589538323324163,-0.004914371367721577,0.00016219982787069956,0.0,0.0,0.0,0.0,0.0,0.0,0.0,0.0,0.0
5.5920000000000005,154,5,592000000,base_footprint,-0.0038233897276322374,0.0004942855056628915,0.9915436408475711,0.1297164047743101,0.0,0.0,0.0,0.0,0.0,0.0,0.0,0.0,0.0,-2.075033706962524e-06,-0.00011748528529306314,0.010654471433572912,0.0,0.0,0.0,0.0,0.0,0.0,0.0,0.0,0.0,0.0013072926139075822,0.001871910205294154,-4.356509255147116e-05,0.0,0.0,0.0,0.0,0.0,0.0,0.0,0.0,0.0
5.626,155,5,626000000,base_footprint,-0.0038225085005730002,0.0004955265606090287,0.9915648164538481,0.12955445825226258,0.0,0.0,0.0,0.0,0.0,0.0,0.0,0.0,0.0,-0.0003512963599953831,-0.003988124193276697,0.001219679441686174,0.0,0.0,0.0,0.0,0.0,0.0,0.0,0.0,0.0,0.013825710996311765,-0.004115418741576013,0.0033155275969259618,0.0,0.0,0.0,0.0,0.0,0.0,0.0,0.0,0.0
5.66,156,5,660000000,base_footprint,-0.0038223157453217927,0.0004980442725601167,0.991270345087613,0.13178863685511924,0.0,0.0,0.0,0.0,0.0,0.0,0.0,0.0,0.0,0.002317028586226441,0.0018309695821467898,-0.20240078438349016,0.0,0.0,0.0,0.0,0.0,0.0,0.0,0.0,0.0,0.22218973582066115,-0.15958064495266,-0.0035409239040495063,0.0,0.0,0.0,0.0,0.0,0.0,0.0,0.0,0.0
5.696,157,5,694000000,base_footprint,-0.0038169463688834367,0.0005050705732666751,0.9910074477437573,0.13375131528526085,0.0,0.0,0.0,0.0,0.0,0.0,0.0,0.0,0.0,0.0006833050144330148,-0.000285920284135374,-0.09301674925142091,0.0,0.0,0.0,0.0,0.0,0.0,0.0,0.0,0.0,-0.13101989866656621,0.04626427432544049,0.001477358691038823,0.0,0.0,0.0,0.0,0.0,0.0,0.0,0.0,0.0
5.725,158,5,728000000,base_footprint,-0.003816929204983814,0.0005096555447022977,0.9908533923862727,0.13488782783959832,0.0,0.0,0.0,0.0,0.0,0.0,0.0,0.0,0.0,-3.525198301289315e-05,-4.459519222539657e-05,-0.027468258217375422,0.0,0.0,0.0,0.0,0.0,0.0,0.0,0.0,0.0,0.07520252197547822,-0.06321804104366553,-0.0005803845315994654,0.0,0.0,0.0,0.0,0.0,0.0,0.0,0.0,0.0
5.7620000000000005,159,5,762000000,base_footprint,-0.003819691006202241,0.0005112358510364724,0.9908648662879858,0.13480343228053968,0.0,0.0,0.0,0.0,0.0,0.0,0.0,0.0,0.0,-0.00016049706803297493,-0.00010332382439196089,0.01555497706178372,0.0,0.0,0.0,0.0,0.0,0.0,0.0,0.0,0.0,0.07939971036663372,-0.046827897479558844,0.0018665135006206038,0.0,0.0,0.0,0.0,0.0,0.0,0.0,0.0,0.0
5.797,160,5,796000000,base_footprint,-0.0038205784547332296,0.0005098198798974165,0.9909010190092777,0.13453740665828398,0.0,0.0,0.0,0.0,0.0,0.0,0.0,0.0,0.0,-0.00019042904490838852,-3.4014969664380965e-05,0.015483785419355637,0.0,0.0,0.0,0.0,0.0,0.0,0.0,0.0,0.0,0.0030377424855202403,0.002046991683874623,-0.00014162960640246564,0.0,0.0,0.0,0.0,0.0,0.0,0.0,0.0,0.0
5.83,161,5,830000000,base_footprint,-0.0038138724459993232,0.0005101019323119713,0.9909465589309548,0.13420175675409066,0.0,0.0,0.0,0.0,0.0,0.0,0.0,0.0,0.0,-0.0008755224227470942,-0.0020692435428626846,0.06159205475287932,0.0,0.0,0.0,0.0,0.0,0.0,0.0,0.0,0.0,0.00992681149833228,-0.0006148152585194231,0.0022715749457774205,0.0,0.0,0.0,0.0,0.0,0.0,0.0,0.0,0.0
5.864,162,5,864000000,base_footprint,-0.003822667321194524,0.0005033579884256709,0.9911098695528524,0.13299007602153987,0.0,0.0,0.0,0.0,0.0,0.0,0.0,0.0,0.0,-0.0006944959047249317,0.0002253819720904236,0.07229291372227797,0.0,0.0,0.0,0.0,0.0,0.0,0.0,0.0,0.0,-0.013446654203299605,0.02597618181647604,-0.0025791302113344658,0.0,0.0,0.0,0.0,0.0,0.0,0.0,0.0,0.0
5.898,163,5,898000000,base_footprint,-0.0038246510880133237,0.000498394725218653,0.9912722680554453,0.1317741030360912,0.0,0.0,0.0,0.0,0.0,0.0,0.0,0.0,0.0,-0.0007025234360473143,0.0002455561799054885,0.07224382914045317,0.0,0.0,0.0,0.0,0.0,0.0,0.0,0.0,0.0,0.008783207725957394,0.013266429063401242,9.634565799802236e-05,0.0,0.0,0.0,0.0,0.0,0.0,0.0,0.0,0.0
5.932,164,5,932000000,base_footprint,-0.003817749304728562,0.0004981936726801078,0.9914367235217015,0.13053122172822865,0.0,0.0,0.0,0.0,0.0,0.0,0.0,0.0,0.0,-0.0012707106754683323,-0.0012303764026167085,0.056186952935234284,0.0,0.0,0.0,0.0,0.0,0.0,0.0,0.0,0.0,-0.021995597716862898,0.03113813510337938,0.0013608230974229856,0.0,0.0,0.0,0.0,0.0,0.0,0.0,0.0,0.0
5.966,165,5,966000000,base_footprint,-0.0038235387633422904,0.0004928903507295016,0.9915336700606404,0.12979259896659898,0.0,0.0,0.0,0.0,0.0,0.0,0.0,0.0,0.0,-0.00046548619367697857,-0.0004811569744317077,0.042390422077885674,0.0,0.0,0.0,0.0,0.0,0.0,0.0,0.0,0.0,0.03714629104909006,-0.010204212672370525,-0.0002943209788350097,0.0,0.0,0.0,0.0,0.0,0.0,0.0,0.0,0.0
6.001,166,6,0,base_footprint,-0.0038238629120934367,0.0004908269278412286,0.991624939419001,0.12909344167547449,0.0,0.0,0.0,0.0,0.0,0.0,0.0,0.0,0.0,-0.0003436585795809253,-2.431357937451055e-05,0.041733122717722254,0.0,0.0,0.0,0.0,0.0,0.0,0.0,0.0,0.0,0.00673321939202076,0.006670510602802074,-0.0007361567041183255,0.0,0.0,0.0,0.0,0.0,0.0,0.0,0.0,0.0
6.034,167,6,34000000,base_footprint,-0.003816031579711187,0.0004882840566156827,0.9916861597073695,0.12862254905930223,0.0,0.0,0.0,0.0,0.0,0.0,0.0,0.0,0.0,0.000910605138717651,0.0016968609332949274,-0.04834270729972156,0.0,0.0,0.0,0.0,0.0,0.0,0.0,0.0,0.0,0.017674218871372535,-0.0011857270923287951,-0.001988808553837295,0.0,0.0,0.0,0.0,0.0,0.0,0.0,0.0,0.0
6.068,168,6,68000000,base_footprint,-0.003829478144113424,0.0004958034480786175,0.9915016536352488,0.13003676447317494,0.0,0.0,0.0,0.0,0.0,0.0,0.0,0.0,0.0,-0.0006728331110248507,-0.0016995939063435426,-0.0162127221142849,0.0,0.0,0.0,0.0,0.0,0.0,0.0,0.0,0.0,-0.22482126215609743,0.10671424568909031,0.0027896659612489266,0.0,0.0,0.0,0.0,0.0,0.0,0.0,0.0,0.0
6.106,169,6,102000000,base_footprint,-0.003823245099766484,0.0004948125431093274,0.991587501441603,0.1293806977189924,0.0,0.0,0.0,0.0,0.0,0.0,0.0,0.0,0.0,-0.002048520260258209,-0.002434640868199731,0.07363933226786967,0.0,0.0,0.0,0.0,0.0,0.0,0.0,0.0,0.0,-0.15135165857691055,0.09521280731978535,-0.0002773484163882209,0.0,0.0,0.0,0.0,0.0,0.0,0.0,0.0,0.0
6.136,170,6,136000000,base_footprint,-0.003820148627013053,0.00048475705806853646,0.9917219547065973,0.12834615704409635,0.0,0.0,0.0,0.0,0.0,0.0,0.0,0.0,0.0,-0.0005010312205527506,-5.449803325727819e-05,0.05288482161618877,0.0,0.0,0.0,0.0,0.0,0.0,0.0,0.0,0.0,-0.028487077198817087,0.03116877178781677,-0.0035049691422416886,0.0,0.0,0.0,0.0,0.0,0.0,0.0,0.0,0.0
6.17,171,6,170000000,base_footprint,-0.003819815910784944,0.0004805669743604008,0.9918501430291033,0.12735176416107458,0.0,0.0,0.0,0.0,0.0,0.0,0.0,0.0,0.0,-0.0005729009557360969,-6.883317735437481e-05,0.07171408752962719,0.0,0.0,0.0,0.0,0.0,0.0,0.0,0.0,0.0,0.04084977553666154,-0.009650591099902964,0.0002898878028085567,0.0,0.0,0.0,0.0,0.0,0.0,0.0,0.0,0.0
6.204,172,6,204000000,base_footprint,-0.003823711659549866,0.000477493262818232,0.99204621434301,0.12581518126613928,0.0,0.0,0.0,0.0,0.0,0.0,0.0,0.0,0.0,-0.000915848428457057,-0.0002069948075032265,0.09738315117173535,0.0,0.0,0.0,0.0,0.0,0.0,0.0,0.0,0.0,0.05704032581301429,-0.01051296970011128,0.0006591214394601585,0.0,0.0,0.0,0.0,0.0,0.0,0.0,0.0,0.0
6.237,173,6,238000000,base_footprint,-0.0038210376613223716,0.00046786079350207005,0.9922345422477975,0.12432133343787992,0.0,0.0,0.0,0.0,0.0,0.0,0.0,0.0,0.0,-0.0005018421977874782,-0.0001260448329272167,0.05427875810405659,0.0,0.0,0.0,0.0,0.0,0.0,0.0,0.0,0.0,0.21076395038127657,-0.09327880798118995,0.0015041806390181632,0.0,0.0,0.0,0.0,0.0,0.0,0.0,0.0,0.0
6.27,174,6,272000000,base_footprint,-0.003825863258365036,0.0004669558363390184,0.9923607736654411,0.12330952766393417,0.0,0.0,0.0,0.0,0.0,0.0,0.0,0.0,0.0,-0.0005542414163737981,3.443499116967864e-05,0.06366243350496817,0.0,0.0,0.0,0.0,0.0,0.0,0.0,0.0,0.0,0.11425863491584766,-0.04716476002539621,0.0006059708428841444,0.0,0.0,0.0,0.0,0.0,0.0,0.0,0.0,0.0
6.31,175,6,306000000,base_footprint,-0.00382693108636458,0.0004623599299881725,0.992494127993209,0.12223152915984992,0.0,0.0,0.0,0.0,0.0,0.0,0.0,0.0,0.0,-0.0005938638820645748,5.623616602788442e-05,0.06384424355446704,0.0,0.0,0.0,0.0,0.0,0.0,0.0,0.0,0.0,0.007069059778966064,0.012060394544738586,6.381219737673825e-05,0.0,0.0,0.0,0.0,0.0,0.0,0.0,0.0,0.0
6.34,176,6,340000000,base_footprint,-0.003827758997903118,0.00045836840915998217,0.992617965021991,0.12122175413289936,0.0,0.0,0.0,0.0,0.0,0.0,0.0,0.0,0.0,-0.0005045946221769856,0.0002632532935137966,0.05423189592264781,0.0,0.0,0.0,0.0,0.0,0.0,0.0,0.0,0.0,0.008684364995106334,0.010327752698362412,-0.0003223500185207536,0.0,0.0,0.0,0.0,0.0,0.0,0.0,0.0,0.0
6.375,177,6,374000000,base_footprint,-0.0038291164339252326,0.000454636777683238,0.9927295189449953,0.12030475214210763,0.0,0.0,0.0,0.0,0.0,0.0,0.0,0.0,0.0,-0.0005731948301890772,0.00010923131852245129,0.0533206004077331,0.0,0.0,0.0,0.0,0.0,0.0,0.0,0.0,0.0,0.008605766686250205,0.009764922243505976,0.00031024656054960215,0.0,0.0,0.0,0.0,0.0,0.0,0.0,0.0,0.0
6.408,178,6,408000000,base_footprint,-0.003829853646388491,0.00045161251012272406,0.9928425343652227,0.11936846410350364,0.0,0.0,0.0,0.0,0.0,0.0,0.0,0.0,0.0,-0.0005358937961601016,-0.00035711128146130957,0.06098353487300835,0.0,0.0,0.0,0.0,0.0,0.0,0.0,0.0,0.0,-0.011609616123709938,0.019191714204322554,0.0006802973858791468,0.0,0.0,0.0,0.0,0.0,0.0,0.0,0.0,0.0
6.442,179,6,442000000,base_footprint,-0.003830203595095904,0.0004481894594722889,0.9929657920817028,0.11833876973412129,0.0,0.0,0.0,0.0,0.0,0.0,0.0,0.0,0.0,-0.0005910875666889306,-0.0006840663148167866,0.06542696631988526,0.0,0.0,0.0,0.0,0.0,0.0,0.0,0.0,0.0,0.011733513439233925,0.008712235547648118,0.0005207973839982808,0.0,0.0,0.0,0.0,0.0,0.0,0.0,0.0,0.0
6.473,180,6,476000000,base_footprint,-0.0038297050810304715,0.0004451175999366154,0.9930943409589459,0.11725512860694698,0.0,0.0,0.0,0.0,0.0,0.0,0.0,0.0,0.0,-0.0005092110464952418,7.865471694097131e-05,0.06434074597692604,0.0,0.0,0.0,0.0,0.0,0.0,0.0,0.0,0.0,0.009342451291471507,0.011061880291981827,-0.001207981943303709,0.0,0.0,0.0,0.0,0.0,0.0,0.0,0.0,0.0
6.509,181,6,510000000,base_footprint,-0.0038300323433025614,0.00044177350174968435,0.9932213412610581,0.11617445051304248,0.0,0.0,0.0,0.0,0.0,0.0,0.0,0.0,0.0,-0.0004644226391619147,-1.0701451167161984e-06,0.06409768400259884,0.0,0.0,0.0,0.0,0.0,0.0,0.0,0.0,0.0,0.006519860576119646,0.012477357638073195,0.00010448681021786487,0.0,0.0,0.0,0.0,0.0,0.0,0.0,0.0,0.0
6.5440000000000005,182,6,544000000,base_footprint,-0.003830657933697189,0.0004388916446305006,0.9933384689257382,0.11516865713461064,0.0,0.0,0.0,0.0,0.0,0.0,0.0,0.0,0.0,-0.0004294624788335852,-5.596687382618276e-05,0.056513290909473046,0.0,0.0,0.0,0.0,0.0,0.0,0.0,0.0,0.0,0.007645815766048821,0.010920843066887644,0.00011352049342955076,0.0,0.0,0.0,0.0,0.0,0.0,0.0,0.0,0.0
6.577,183,6,578000000,base_footprint,-0.003832217122855631,0.0004362203032426932,0.9934436289524501,0.11425795341050474,0.0,0.0,0.0,0.0,0.0,0.0,0.0,0.0,0.0,-0.0004961519687827335,-0.00011876510346014486,0.04847194921145866,0.0,0.0,0.0,0.0,0.0,0.0,0.0,0.0,0.0,-0.008120260439796486,0.017969985430262472,0.0003112522711413446,0.0,0.0,0.0,0.0,0.0,0.0,0.0,0.0,0.0
6.611,184,6,612000000,base_footprint,-0.003826272116718132,0.00042791683713161075,0.9935143368170335,0.11364171359091513,0.0,0.0,0.0,0.0,0.0,0.0,0.0,0.0,0.0,-0.0003780213779706453,-0.000276385095551357,0.03398796232955727,0.0,0.0,0.0,0.0,0.0,0.0,0.0,0.0,0.0,-0.02284388923468538,0.0198575210116486,-8.708095969653155e-05,0.0,0.0,0.0,0.0,0.0,0.0,0.0,0.0,0.0
6.648,185,6,646000000,base_footprint,-0.003829793281741803,0.00042769580088267237,0.9936101556855954,0.11280074591139937,0.0,0.0,0.0,0.0,0.0,0.0,0.0,0.0,0.0,0.00048747998414455234,0.0006556652551364203,0.06371576888565095,0.0,0.0,0.0,0.0,0.0,0.0,0.0,0.0,0.0,0.04474128664411486,-0.010263639870316872,-0.0014929755228051498,0.0,0.0,0.0,0.0,0.0,0.0,0.0,0.0,0.0
6.682,186,6,680000000,base_footprint,-0.00383020317994637,0.0004233381158456861,0.9937296490566713,0.11174316495493097,0.0,0.0,0.0,0.0,0.0,0.0,0.0,0.0,0.0,-0.00041385802594434896,-4.8160727321443334e-05,0.062376209474371135,0.0,0.0,0.0,0.0,0.0,0.0,0.0,0.0,0.0,0.0046623021444886364,0.01301977100938335,0.0014675545450191928,0.0,0.0,0.0,0.0,0.0,0.0,0.0,0.0,0.0
6.714,187,6,714000000,base_footprint,-0.003830841185323014,0.00041881329168207506,0.9938477909698971,0.11068747732013426,0.0,0.0,0.0,0.0,0.0,0.0,0.0,0.0,0.0,-0.00048430638238515684,-8.951101391221526e-06,0.06226092329902941,0.0,0.0,0.0,0.0,0.0,0.0,0.0,0.0,0.0,0.006988934723042374,0.011804467897157129,-6.556679256751733e-05,0.0,0.0,0.0,0.0,0.0,0.0,0.0,0.0,0.0
6.75,188,6,748000000,base_footprint,-0.0038315356686795437,0.0004109083992727397,0.9940606881684665,0.10875890182758338,0.0,0.0,0.0,0.0,0.0,0.0,0.0,0.0,0.0,-0.0012028909438382258,0.0001495093570538344,0.15109943656135397,0.0,0.0,0.0,0.0,0.0,0.0,0.0,0.0,0.0,-0.009933897480350182,0.031195599694447837,-0.00010612692789253019,0.0,0.0,0.0,0.0,0.0,0.0,0.0,0.0,0.0
6.782,189,6,782000000,base_footprint,-0.0038336519912562732,0.00040079482902978075,0.9943371598765939,0.10620148287318865,0.0,0.0,0.0,0.0,0.0,0.0,0.0,0.0,0.0,-0.0012612498946717138,0.00017532100703960093,0.15122674944114917,0.0,0.0,0.0,0.0,0.0,0.0,0.0,0.0,0.0,0.014574843879075748,0.029660496736463277,-1.3418780469767467e-06,0.0,0.0,0.0,0.0,0.0,0.0,0.0,0.0,0.0
6.818,190,6,816000000,base_footprint,-0.003835292641606553,0.00039069223158628194,0.9946074972348702,0.10363910620089894,0.0,0.0,0.0,0.0,0.0,0.0,0.0,0.0,0.0,-0.001290476965110655,0.0001808646914361478,0.15163968854687576,0.0,0.0,0.0,0.0,0.0,0.0,0.0,0.0,0.0,0.01329725987291458,0.03033109316735235,7.788898519166047e-06,0.0,0.0,0.0,0.0,0.0,0.0,0.0,0.0,0.0
6.849,191,6,850000000,base_footprint,-0.0038315273550855217,0.0003874885035534537,0.9947884555969322,0.10188767276691262,0.0,0.0,0.0,0.0,0.0,0.0,0.0,0.0,0.0,-0.0004488774448487291,0.001065102640907322,0.06876039255020025,0.0,0.0,0.0,0.0,0.0,0.0,0.0,0.0,0.0,-0.26541304070336785,0.14123028191918918,-0.0037749581823505215,0.0,0.0,0.0,0.0,0.0,0.0,0.0,0.0,0.0
6.884,192,6,884000000,base_footprint,-0.0038383964285893806,0.00037868715177512947,0.9949251293899841,0.10054407101973606,0.0,0.0,0.0,0.0,0.0,0.0,0.0,0.0,0.0,-0.0007422831153966333,-3.294591025493823e-05,0.08379462995695164,0.0,0.0,0.0,0.0,0.0,0.0,0.0,0.0,0.0,-0.029534231618767292,0.029592129702303918,0.001462474633829645,0.0,0.0,0.0,0.0,0.0,0.0,0.0,0.0,0.0
6.909,193,6,918000000,base_footprint,-0.0038366646221072247,0.0003752704687343305,0.9950658231553094,0.09914205346319616,0.0,0.0,0.0,0.0,0.0,0.0,0.0,0.0,0.0,-0.0008421360680453611,0.0009029637147905629,0.07563239997879741,0.0,0.0,0.0,0.0,0.0,0.0,0.0,0.0,0.0,0.026936275192903356,0.007510478118446809,-0.001439780812744629,0.0,0.0,0.0,0.0,0.0,0.0,0.0,0.0,0.0
6.9510000000000005,194,6,952000000,base_footprint,-0.0038382618316432325,0.0003680575341213023,0.9952557850259459,0.09721653487011131,0.0,0.0,0.0,0.0,0.0,0.0,0.0,0.0,0.0,-0.0011672734508911841,0.0014810886768315361,0.12696613811238286,0.0,0.0,0.0,0.0,0.0,0.0,0.0,0.0,0.0,-0.006169480186029424,0.027495195004852473,-0.0006594101997412993,0.0,0.0,0.0,0.0,0.0,0.0,0.0,0.0,0.0
6.987,195,6,986000000,base_footprint,-0.0038390717810388884,0.0003602947606862048,0.9954658914093371,0.0950409951345188,0.0,0.0,0.0,0.0,0.0,0.0,0.0,0.0,0.0,-0.0009360818399228279,8.562611463070716e-05,0.12876357325305074,0.0,0.0,0.0,0.0,0.0,0.0,0.0,0.0,0.0,0.004506127717265817,0.027044376554097856,0.0019499072457047884,0.0,0.0,0.0,0.0,0.0,0.0,0.0,0.0,0.0
7.021,196,7,20000000,base_footprint,-0.0038401491662024704,0.00035306703705314407,0.995670497862759,0.09287296853107795,0.0,0.0,0.0,0.0,0.0,0.0,0.0,0.0,0.0,-0.0008428615884235561,0.00012381491141947684,0.12768097930240913,0.0,0.0,0.0,0.0,0.0,0.0,0.0,0.0,0.0,0.008841975011651048,0.02566313688484761,-0.00010909914041950412,0.0,0.0,0.0,0.0,0.0,0.0,0.0,0.0,0.0
7.056,197,7,54000000,base_footprint,-0.00383526002624053,0.0003446932928103862,0.9957635416606625,0.09187024037455906,0.0,0.0,0.0,0.0,0.0,0.0,0.0,0.0,0.0,-0.0005710658105706388,-0.0019083008968210815,0.009771844479954626,0.0,0.0,0.0,0.0,0.0,0.0,0.0,0.0,0.0,0.14254162688292557,-0.03999955700531492,0.004043073915789338,0.0,0.0,0.0,0.0,0.0,0.0,0.0,0.0,0.0
7.088,198,7,88000000,base_footprint,-0.0038347918024893637,0.00034344145405682913,0.9957745538553374,0.09175082732053688,0.0,0.0,0.0,0.0,0.0,0.0,0.0,0.0,0.0,-0.0001228667978268312,-0.00016913102674537994,0.013319622509882618,0.0,0.0,0.0,0.0,0.0,0.0,0.0,0.0,0.0,0.010116262977984496,-0.003129235048557626,-0.0022756775018324274,0.0,0.0,0.0,0.0,0.0,0.0,0.0,0.0,0.0
7.103,199,7,122000000,base_footprint,-0.003834464410493392,0.0003411478673159594,0.9958291200810767,0.09115670079245836,0.0,0.0,0.0,0.0,0.0,0.0,0.0,0.0,0.0,-0.0004537104788963671,-0.00011797221635432279,0.06278431083219009,0.0,0.0,0.0,0.0,0.0,0.0,0.0,0.0,0.0,0.09995187711184665,-0.030975183739478284,0.0007762734988479728,0.0,0.0,0.0,0.0,0.0,0.0,0.0,0.0,0.0
7.156,200,7,156000000,base_footprint,-0.0038428811924493653,0.0003472165402253524,0.995813070395987,0.09133148708595538,0.0,0.0,0.0,0.0,0.0,0.0,0.0,0.0,0.0,0.0007508822575953633,-0.0001965096462479515,-0.09808984714676865,0.0,0.0,0.0,0.0,0.0,0.0,0.0,0.0,0.0,-0.28850866073581105,0.10991383502141494,-0.00241107567707767,0.0,0.0,0.0,0.0,0.0,0.0,0.0,0.0,0.0
7.191,201,7,190000000,base_footprint,-0.0038344900990471996,0.00034084949663473193,0.9958462331238154,0.09096955798732087,0.0,0.0,0.0,0.0,0.0,0.0,0.0,0.0,0.0,-0.0006763662585335819,5.29553885811256e-05,0.10079474507253515,0.0,0.0,0.0,0.0,0.0,0.0,0.0,0.0,0.0,0.04889312449522342,-0.016312665974405047,0.0003477242361012749,0.0,0.0,0.0,0.0,0.0,0.0,0.0,0.0,0.0
7.223,202,7,224000000,base_footprint,-0.003838911947920823,0.0003359393906283899,0.996002079351129,0.08924689253979202,0.0,0.0,0.0,0.0,0.0,0.0,0.0,0.0,0.0,-0.0007833729103453134,5.304980127769578e-05,0.10151483269374383,0.0,0.0,0.0,0.0,0.0,0.0,0.0,0.0,0.0,0.013040590032796166,0.017705140961617998,-7.372666648476091e-05,0.0,0.0,0.0,0.0,0.0,0.0,0.0,0.0,0.0
7.258,203,7,258000000,base_footprint,-0.0038397238596542217,0.0003284224245167071,0.9961666822581889,0.0873904446613308,0.0,0.0,0.0,0.0,0.0,0.0,0.0,0.0,0.0,-0.0012152968092416189,-0.00018072309181958016,0.1271933391458464,0.0,0.0,0.0,0.0,0.0,0.0,0.0,0.0,0.0,0.3225367133411562,-0.09386922194697259,0.002930898248931049,0.0,0.0,0.0,0.0,0.0,0.0,0.0,0.0,0.0
7.295,204,7,292000000,base_footprint,-0.003841463890511205,0.00031990103357230557,0.9963536643802618,0.0852321318197038,0.0,0.0,0.0,0.0,0.0,0.0,0.0,0.0,0.0,-0.0010761172442168708,8.558601606917795e-05,0.12742561584437498,0.0,0.0,0.0,0.0,0.0,0.0,0.0,0.0,0.0,0.01000031936687429,0.026015455305219003,-0.0003468942537950053,0.0,0.0,0.0,0.0,0.0,0.0,0.0,0.0,0.0
7.33,205,7,326000000,base_footprint,-0.0038435799709912837,0.0003104991391776933,0.9965359276646921,0.08307391502007669,0.0,0.0,0.0,0.0,0.0,0.0,0.0,0.0,0.0,-0.0024840132862123353,0.0019390839014337326,0.1166374107245049,0.0,0.0,0.0,0.0,0.0,0.0,0.0,0.0,0.0,0.00014068412203269804,0.028259448013164885,-0.0034368001094307386,0.0,0.0,0.0,0.0,0.0,0.0,0.0,0.0,0.0
7.361,206,7,360000000,base_footprint,-0.003844001971241264,0.00030698625859262,0.9966362156207667,0.08186197604137675,0.0,0.0,0.0,0.0,0.0,0.0,0.0,0.0,0.0,-0.0007140823609522522,0.0002534291502040385,0.06913024056244804,0.0,0.0,0.0,0.0,0.0,0.0,0.0,0.0,0.0,0.029690917067752783,0.00889166402791009,0.0030122277887493676,0.0,0.0,0.0,0.0,0.0,0.0,0.0,0.0,0.0
7.394,207,7,394000000,base_footprint,-0.003847900879014982,0.00030016048245706665,0.9967315277731668,0.08069303009231288,0.0,0.0,0.0,0.0,0.0,0.0,0.0,0.0,0.0,-0.002287868486817039,0.0018635346768226596,0.06185785169235911,0.0,0.0,0.0,0.0,0.0,0.0,0.0,0.0,0.0,-0.025042693800512862,0.02245414737037005,-0.00029546539185617437,0.0,0.0,0.0,0.0,0.0,0.0,0.0,0.0,0.0
7.427,208,7,428000000,base_footprint,-0.0038479045728212155,0.00030046109483466906,0.9967532450070856,0.08042432418972338,0.0,0.0,0.0,0.0,0.0,0.0,0.0,0.0,0.0,-5.45766995665754e-05,-3.186591227277857e-05,0.028145561853709245,0.0,0.0,0.0,0.0,0.0,0.0,0.0,0.0,0.0,-0.2446124878197222,0.08690075879516032,-0.001203472522738849,0.0,0.0,0.0,0.0,0.0,0.0,0.0,0.0,0.0
7.462,209,7,462000000,base_footprint,-0.0038451351384844105,0.00030028526668288553,0.9968144467804243,0.07966230886913912,0.0,0.0,0.0,0.0,0.0,0.0,0.0,0.0,0.0,-0.0001761964741111279,-0.00045045800234478207,0.046476238358614086,0.0,0.0,0.0,0.0,0.0,0.0,0.0,0.0,0.0,-0.04541921693263996,0.024929692472903137,-8.895620488073473e-05,0.0,0.0,0.0,0.0,0.0,0.0,0.0,0.0,0.0
7.492,210,7,496000000,base_footprint,-0.0038457630681786436,0.0002989241190649676,0.9968754765339821,0.0788948986686755,0.0,0.0,0.0,0.0,0.0,0.0,0.0,0.0,0.0,-0.00016940600802149076,1.872212547789982e-05,0.044320840044051825,0.0,0.0,0.0,0.0,0.0,0.0,0.0,0.0,0.0,0.0012785115506779596,0.00946629830420599,-0.0006521608171585171,0.0,0.0,0.0,0.0,0.0,0.0,0.0,0.0,0.0
7.53,211,7,530000000,base_footprint,-0.003830929299735238,0.0002934113092403836,0.9969201281654277,0.07832940666908791,0.0,0.0,0.0,0.0,0.0,0.0,0.0,0.0,0.0,-0.00039049900329105633,-0.003187551694919814,-0.0056791645526704905,0.0,0.0,0.0,0.0,0.0,0.0,0.0,0.0,0.0,0.015640585768396813,0.0037655514107658838,0.0036220601241133614,0.0,0.0,0.0,0.0,0.0,0.0,0.0,0.0,0.0
7.564,212,7,564000000,base_footprint,-0.003833365760601746,0.0002945622309746106,0.9968851268980349,0.07877348735156024,0.0,0.0,0.0,0.0,0.0,0.0,0.0,0.0,0.0,-0.0003321975285306435,0.0006412126224462427,-0.049226012432037565,0.0,0.0,0.0,0.0,0.0,0.0,0.0,0.0,0.0,0.10172891434711931,-0.03921259494004424,-0.003501050936028313,0.0,0.0,0.0,0.0,0.0,0.0,0.0,0.0,0.0
7.598,213,7,598000000,base_footprint,-0.003838401235637057,0.00029507926946622306,0.9968508636650855,0.07920565140412904,0.0,0.0,0.0,0.0,0.0,0.0,0.0,0.0,0.0,7.628426049256424e-06,-0.00017228324854406642,0.004485057002090398,0.0,0.0,0.0,0.0,0.0,0.0,0.0,0.0,0.0,0.10745121518584416,-0.04162110132100252,0.002218959492323972,0.0,0.0,0.0,0.0,0.0,0.0,0.0,0.0,0.0
7.633,214,7,632000000,base_footprint,-0.003841621134547041,0.0002950487893589686,0.9969043333869704,0.07852964387765166,0.0,0.0,0.0,0.0,0.0,0.0,0.0,0.0,0.0,-0.0004962812021055258,-0.0004253343285845004,0.0543473610216762,0.0,0.0,0.0,0.0,0.0,0.0,0.0,0.0,0.0,0.10077894214545788,-0.024382379709939176,0.0011782006271630493,0.0,0.0,0.0,0.0,0.0,0.0,0.0,0.0,0.0
7.666,215,7,666000000,base_footprint,-0.0038421494881774533,0.0002912787023754351,0.9969767569377882,0.07760476254611201,0.0,0.0,0.0,0.0,0.0,0.0,0.0,0.0,0.0,-0.0003603800300167496,-0.00010016163687257354,0.05441365242113701,0.0,0.0,0.0,0.0,0.0,0.0,0.0,0.0,0.0,0.0053481964023165025,0.010861138633731133,-0.0003926483673906193,0.0,0.0,0.0,0.0,0.0,0.0,0.0,0.0,0.0
7.699,216,7,700000000,base_footprint,-0.0038426912795462252,0.0002874833353569528,0.9970482287250221,0.07668103203112368,0.0,0.0,0.0,0.0,0.0,0.0,0.0,0.0,0.0,-0.0003806066888347479,-9.076534332260909e-05,0.05432150183059455,0.0,0.0,0.0,0.0,0.0,0.0,0.0,0.0,0.0,0.004919503460469639,0.010979523303670285,-7.184200188091823e-06,0.0,0.0,0.0,0.0,0.0,0.0,0.0,0.0,0.0
7.742,217,7,734000000,base_footprint,-0.0038436027822046828,0.00028354762844984543,0.9971210143831638,0.07572865371763711,0.0,0.0,0.0,0.0,0.0,0.0,0.0,0.0,0.0,-0.0005016541367311637,5.407990809753831e-05,0.06109436201609748,0.0,0.0,0.0,0.0,0.0,0.0,0.0,0.0,0.0,0.0030947718500020276,0.011828471032407807,-0.00023267820011821697,0.0,0.0,0.0,0.0,0.0,0.0,0.0,0.0,0.0
7.768,218,7,768000000,base_footprint,-0.003844501835013826,0.0002793292712328762,0.9971991497539776,0.07469268713028854,0.0,0.0,0.0,0.0,0.0,0.0,0.0,0.0,0.0,-0.0005541286983115302,-8.476662386758079e-06,0.06101199395363043,0.0,0.0,0.0,0.0,0.0,0.0,0.0,0.0,0.0,0.005194510012977665,0.012435386563782654,6.243673596914451e-05,0.0,0.0,0.0,0.0,0.0,0.0,0.0,0.0,0.0
7.803,219,7,802000000,base_footprint,-0.0038455978695700944,0.00027518048611245685,0.9972764109899115,0.0736538915184173,0.0,0.0,0.0,0.0,0.0,0.0,0.0,0.0,0.0,-0.0005467928244533639,-3.618791326124458e-06,0.06137964331444118,0.0,0.0,0.0,0.0,0.0,0.0,0.0,0.0,0.0,0.0038279754687449985,0.012860401213418592,-7.483986899483413e-05,0.0,0.0,0.0,0.0,0.0,0.0,0.0,0.0,0.0
7.837,220,7,836000000,base_footprint,-0.003840821370240554,0.0002748049424359549,0.9973722625790605,0.0723446087236023,0.0,0.0,0.0,0.0,0.0,0.0,0.0,0.0,0.0,-0.000645313633611298,0.0005166819424832802,0.14824288973190694,0.0,0.0,0.0,0.0,0.0,0.0,0.0,0.0,0.0,0.05227590423150899,0.0016571343043527424,0.0002859492969058957,0.0,0.0,0.0,0.0,0.0,0.0,0.0,0.0,0.0
7.87,221,7,870000000,base_footprint,-0.0038464073720768177,0.0002613646775516367,0.997576401806168,0.06947272413179428,0.0,0.0,0.0,0.0,0.0,0.0,0.0,0.0,0.0,-0.0015653033135866747,0.0004444757179732506,0.17915422129454778,0.0,0.0,0.0,0.0,0.0,0.0,0.0,0.0,0.0,-0.05597986040548823,0.05450288535453883,-0.0011026452659624996,0.0,0.0,0.0,0.0,0.0,0.0,0.0,0.0,0.0
7.904,222,7,904000000,base_footprint,-0.003849477207183615,0.0002485282139846685,0.9977865022185143,0.06638686428429218,0.0,0.0,0.0,0.0,0.0,0.0,0.0,0.0,0.0,-0.0013086000952654646,-0.00021159131914115547,0.18703926062103585,0.0,0.0,0.0,0.0,0.0,0.0,0.0,0.0,0.0,-0.00995159866917843,0.0437754855069857,0.001062341548170725,0.0,0.0,0.0,0.0,0.0,0.0,0.0,0.0,0.0
7.941,223,7,938000000,base_footprint,-0.0038498689619058087,0.00023785233834007933,0.9979904182798145,0.0632475055391311,0.0,0.0,0.0,0.0,0.0,0.0,0.0,0.0,0.0,-0.001253045680588389,8.624612270456062e-05,0.1835833623108205,0.0,0.0,0.0,0.0,0.0,0.0,0.0,0.0,0.0,0.011535118992720136,0.03859953011992403,-0.000538890834868274,0.0,0.0,0.0,0.0,0.0,0.0,0.0,0.0,0.0
7.97,224,7,972000000,base_footprint,-0.0038513830380765093,0.00022688348143854405,0.9981803948331451,0.06017486803746657,0.0,0.0,0.0,0.0,0.0,0.0,0.0,0.0,0.0,-0.0014478610767352297,9.746249387444728e-05,0.17443395322016517,0.0,0.0,0.0,0.0,0.0,0.0,0.0,0.0,0.0,-0.008065987635512925,0.043340932842547815,0.00024822596335765404,0.0,0.0,0.0,0.0,0.0,0.0,0.0,0.0,0.0
8.006,225,8,6000000,base_footprint,-0.0038448379817272176,0.00021085240163016292,0.9983442966803371,0.05739196849736096,0.0,0.0,0.0,0.0,0.0,0.0,0.0,0.0,0.0,-0.001328725858577982,-4.807340994618739e-05,0.16449372265296008,0.0,0.0,0.0,0.0,0.0,0.0,0.0,0.0,0.0,-0.011621462061592787,0.03910069663974751,-1.4968253340423817e-06,0.0,0.0,0.0,0.0,0.0,0.0,0.0,0.0,0.0
8.039,226,8,40000000,base_footprint,-0.0038488051012219387,0.0002027107659770695,0.9985097826865532,0.05443674757818015,0.0,0.0,0.0,0.0,0.0,0.0,0.0,0.0,0.0,-0.0013854677329122205,-0.0003331220647663676,0.17586610766636485,0.0,0.0,0.0,0.0,0.0,0.0,0.0,0.0,0.0,0.046703074835374773,0.028067650143749238,0.0006583800196440417,0.0,0.0,0.0,0.0,0.0,0.0,0.0,0.0,0.0
8.074,227,8,74000000,base_footprint,-0.00384865747365386,0.00019103972442608197,0.9986682678142629,0.051447470300630314,0.0,0.0,0.0,0.0,0.0,0.0,0.0,0.0,0.0,-0.001264583484881953,-2.712783235400332e-05,0.17602689668837454,0.0,0.0,0.0,0.0,0.0,0.0,0.0,0.0,0.0,0.009766729325679329,0.03723042090340616,-0.0002872688393937455,0.0,0.0,0.0,0.0,0.0,0.0,0.0,0.0,0.0
8.112,228,8,108000000,base_footprint,-0.00384884039060555,0.00017941560375545185,0.9988177578932996,0.04845864994705142,0.0,0.0,0.0,0.0,0.0,0.0,0.0,0.0,0.0,-0.0012705242758905945,-2.9113997056290968e-05,0.17594110659815781,0.0,0.0,0.0,0.0,0.0,0.0,0.0,0.0,0.0,0.00874678852834179,0.03737226423857637,5.551925291973598e-05,0.0,0.0,0.0,0.0,0.0,0.0,0.0,0.0,0.0
8.143,229,8,142000000,base_footprint,-0.0038533643804977273,0.0001698331512382089,0.9989477927026731,0.04569934566390661,0.0,0.0,0.0,0.0,0.0,0.0,0.0,0.0,0.0,-0.0018487359213646777,-0.00011041262737520978,0.10332649929917538,0.0,0.0,0.0,0.0,0.0,0.0,0.0,0.0,0.0,-0.30678597206258673,0.09372382116414403,-0.001833945241997744,0.0,0.0,0.0,0.0,0.0,0.0,0.0,0.0,0.0
8.17,230,8,176000000,base_footprint,-0.0038497257542885167,0.0001598250219408491,0.9990493847993326,0.04342212338951602,0.0,0.0,0.0,0.0,0.0,0.0,0.0,0.0,0.0,-0.0013160790728308307,-0.00029632165820574815,0.1672240941980875,0.0,0.0,0.0,0.0,0.0,0.0,0.0,0.0,0.0,-0.0119098080627387,0.02952692863585577,-0.0003129519258594293,0.0,0.0,0.0,0.0,0.0,0.0,0.0,0.0,0.0
8.217,231,8,210000000,base_footprint,-0.0038506550560922677,0.00014874933130372514,0.9991688346709132,0.04058066228691742,0.0,0.0,0.0,0.0,0.0,0.0,0.0,0.0,0.0,-0.0013445304924938136,-2.078838587847462e-05,0.16719766921860008,0.0,0.0,0.0,0.0,0.0,0.0,0.0,0.0,0.0,0.006950277785118737,0.03396553247952121,-0.0004502979625503173,0.0,0.0,0.0,0.0,0.0,0.0,0.0,0.0,0.0
8.227,232,8,244000000,base_footprint,-0.0038517017337013834,0.00013854919331570282,0.9992719097676267,0.03795781272986921,0.0,0.0,0.0,0.0,0.0,0.0,0.0,0.0,0.0,-0.0011794669540786166,-7.330059474501453e-05,0.14380151031166993,0.0,0.0,0.0,0.0,0.0,0.0,0.0,0.0,0.0,0.012388248822087153,0.030684215134305547,2.4141794009695434e-05,0.0,0.0,0.0,0.0,0.0,0.0,0.0,0.0,0.0
8.278,233,8,278000000,base_footprint,-0.0038529178882910375,0.00012900028817122285,0.999361735840949,0.035514212924363034,0.0,0.0,0.0,0.0,0.0,0.0,0.0,0.0,0.0,-0.0011467906763790853,-5.344320319531203e-06,0.14381476201894147,0.0,0.0,0.0,0.0,0.0,0.0,0.0,0.0,0.0,0.005314714946486399,0.0293437693549472,-0.00015033169027474537,0.0,0.0,0.0,0.0,0.0,0.0,0.0,0.0,0.0
8.313,234,8,312000000,base_footprint,-0.003854149032026339,0.0001195996719374185,0.9994456923167948,0.033067194325496964,0.0,0.0,0.0,0.0,0.0,0.0,0.0,0.0,0.0,-0.001146401804783566,-4.488958757043336e-06,0.14417755581313144,0.0,0.0,0.0,0.0,0.0,0.0,0.0,0.0,0.0,0.003983646974263862,0.029540644364390845,-5.2916496173322595e-05,0.0,0.0,0.0,0.0,0.0,0.0,0.0,0.0,0.0
8.346,235,8,346000000,base_footprint,-0.0038561447236166416,0.00010965410091536355,0.9995159419696343,0.030870696014235564,0.0,0.0,0.0,0.0,0.0,0.0,0.0,0.0,0.0,-0.0005652150885607826,-0.00014989568892296172,0.10113814843456899,0.0,0.0,0.0,0.0,0.0,0.0,0.0,0.0,0.0,0.11504506714007855,0.013575354002170938,0.0013249385970963848,0.0,0.0,0.0,0.0,0.0,0.0,0.0,0.0,0.0
8.38,236,8,380000000,base_footprint,-0.0038578174144644527,0.00010485456230401235,0.9995583317297823,0.029466043505907025,0.0,0.0,0.0,0.0,0.0,0.0,0.0,0.0,0.0,-0.000417302828721581,-3.7662094441142955e-05,0.07427694717329465,0.0,0.0,0.0,0.0,0.0,0.0,0.0,0.0,0.0,0.07086506113447039,0.009780818874392241,0.00028753678479663086,0.0,0.0,0.0,0.0,0.0,0.0,0.0,0.0,0.0
8.413,237,8,414000000,base_footprint,-0.00385101248646856,0.00010778753667010213,0.999592105992575,0.028298051558454912,0.0,0.0,0.0,0.0,0.0,0.0,0.0,0.0,0.0,-0.00024105631679016646,-1.7136145524266597e-05,0.05509824843255891,0.0,0.0,0.0,0.0,0.0,0.0,0.0,0.0,0.0,0.040622107325717735,0.011887533467102083,0.00020920742582787894,0.0,0.0,0.0,0.0,0.0,0.0,0.0,0.0,0.0
8.459,238,8,448000000,base_footprint,-0.0038479310179078616,0.00010096125673340092,0.9995964112961958,0.028146007842548146,0.0,0.0,0.0,0.0,0.0,0.0,0.0,0.0,0.0,-0.0008883707277651268,0.0012451532047234493,-0.04238474395368329,0.0,0.0,0.0,0.0,0.0,0.0,0.0,0.0,0.0,0.0876377336787123,-0.008682148924094198,-0.001479245814626953,0.0,0.0,0.0,0.0,0.0,0.0,0.0,0.0,0.0
8.482,239,8,482000000,base_footprint,-0.003850025557748111,0.00010011575819343145,0.9995773735263868,0.02881391355109472,0.0,0.0,0.0,0.0,0.0,0.0,0.0,0.0,0.0,0.00016929405982211342,-0.00020256109101388054,-0.029326834637960323,0.0,0.0,0.0,0.0,0.0,0.0,0.0,0.0,0.0,0.024946106653341283,-0.012016261127505753,0.0026456423389984484,0.0,0.0,0.0,0.0,0.0,0.0,0.0,0.0,0.0
8.511,240,8,516000000,base_footprint,-0.003852344714339594,0.00010417303701388152,0.9995697706705992,0.029076143996518103,0.0,0.0,0.0,0.0,0.0,0.0,0.0,0.0,0.0,0.00013397843342338815,-0.00015251603287951733,-0.01198073240403926,0.0,0.0,0.0,0.0,0.0,0.0,0.0,0.0,0.0,0.036611619622343605,-0.00801667575318585,0.00014109898386773753,0.0,0.0,0.0,0.0,0.0,0.0,0.0,0.0,0.0
8.551,241,8,550000000,base_footprint,-0.003852187328621223,0.00010478179194987928,0.9995677750658309,0.02914468602516708,0.0,0.0,0.0,0.0,0.0,0.0,0.0,0.0,0.0,9.947547227336408e-05,-0.00010908625492529568,-0.0011628592741366676,0.0,0.0,0.0,0.0,0.0,0.0,0.0,0.0,0.0,-0.0009902762603633194,-0.000757162402190087,6.76660024971343e-05,0.0,0.0,0.0,0.0,0.0,0.0,0.0,0.0,0.0
8.584,242,8,584000000,base_footprint,-0.0038518228900592697,0.00010489707018193352,0.9995671813403952,0.029165089477763077,0.0,0.0,0.0,0.0,0.0,0.0,0.0,0.0,0.0,0.00010182687572289274,-0.00014937987604252988,-0.0012737619269032273,0.0,0.0,0.0,0.0,0.0,0.0,0.0,0.0,0.0,0.001187170088657416,-0.00044547908997423513,8.780788344897304e-05,0.0,0.0,0.0,0.0,0.0,0.0,0.0,0.0,0.0
8.618,243,8,618000000,base_footprint,-0.003851657076422037,0.0001049775955096552,0.9995665416063193,0.02918702826004328,0.0,0.0,0.0,0.0,0.0,0.0,0.0,0.0,0.0,6.090636281399458e-05,-0.00017178270611667345,-0.001381260686676792,0.0,0.0,0.0,0.0,0.0,0.0,0.0,0.0,0.0,0.001266303024383834,-0.0004681991500824724,9.656958462822326e-05,0.0,0.0,0.0,0.0,0.0,0.0,0.0,0.0,0.0
8.652,244,8,652000000,base_footprint,-0.0038551214935214537,9.832459027780553e-05,0.9996197593783172,0.02730320550742306,0.0,0.0,0.0,0.0,0.0,0.0,0.0,0.0,0.0,-0.0017663558852849081,-0.00040197120389972544,0.23079752598545739,0.0,0.0,0.0,0.0,0.0,0.0,0.0,0.0,0.0,-0.38838824045952436,0.06470175546316546,-0.002958588477150326,0.0,0.0,0.0,0.0,0.0,0.0,0.0,0.0,0.0
8.686,245,8,686000000,base_footprint,-0.003853082750226268,8.595176668345399e-05,0.9996993116001095,0.024216373631928502,0.0,0.0,0.0,0.0,0.0,0.0,0.0,0.0,0.0,-0.0011524550457605478,5.592831322580507e-06,0.1270242741145874,0.0,0.0,0.0,0.0,0.0,0.0,0.0,0.0,0.0,0.36453313351200384,0.0034094630330786715,0.0021488349595685744,0.0,0.0,0.0,0.0,0.0,0.0,0.0,0.0,0.0
8.719,246,8,720000000,base_footprint,-0.003853288051379144,7.73886311506317e-05,0.9997492818976359,0.022057187657416263,0.0,0.0,0.0,0.0,0.0,0.0,0.0,0.0,0.0,-0.0010090391328201154,-7.136231629625838e-05,0.12698044580138648,0.0,0.0,0.0,0.0,0.0,0.0,0.0,0.0,0.0,0.0033443842437870224,0.02755145706695046,0.0003278871572003278,0.0,0.0,0.0,0.0,0.0,0.0,0.0,0.0,0.0
8.76,247,8,754000000,base_footprint,-0.0038529141403259855,7.203650035253321e-05,0.9997929743288902,0.01997894756890322,0.0,0.0,0.0,0.0,0.0,0.0,0.0,0.0,0.0,-0.0010334081178078193,-0.00018967126340752288,0.1575924863107117,0.0,0.0,0.0,0.0,0.0,0.0,0.0,0.0,0.0,-0.5124247678469706,0.0677179529646194,-0.0036768768019109473,0.0,0.0,0.0,0.0,0.0,0.0,0.0,0.0,0.0
8.788,248,8,788000000,base_footprint,-0.0038555039286330235,6.0037025289663404e-05,0.9998392051907586,0.01751271676594228,0.0,0.0,0.0,0.0,0.0,0.0,0.0,0.0,0.0,-0.001113548776247531,0.0002941566371574119,0.1255332248002629,0.0,0.0,0.0,0.0,0.0,0.0,0.0,0.0,0.0,0.17880399452587464,0.01695392299497829,0.00028605360173610255,0.0,0.0,0.0,0.0,0.0,0.0,0.0,0.0,0.0
8.822,249,8,822000000,base_footprint,-0.0038566043424562717,5.190838006924933e-05,0.9998742701248245,0.015380762361317165,0.0,0.0,0.0,0.0,0.0,0.0,0.0,0.0,0.0,-0.000987079775669373,-3.429386460083478e-05,0.12551768952219236,0.0,0.0,0.0,0.0,0.0,0.0,0.0,0.0,0.0,0.0014091674526909217,0.02596577177174352,0.0005191093475212393,0.0,0.0,0.0,0.0,0.0,0.0,0.0,0.0,0.0
8.856,250,8,856000000,base_footprint,-0.0038485466675209027,4.6918198759720813e-05,0.9998983986507591,0.01372511795498575,0.0,0.0,0.0,0.0,0.0,0.0,0.0,0.0,0.0,3.67587856469704e-05,-0.00021856773650838523,0.06598831631300962,0.0,0.0,0.0,0.0,0.0,0.0,0.0,0.0,0.0,-0.2804442960601203,0.0360143218576678,-0.0022315145285109837,0.0,0.0,0.0,0.0,0.0,0.0,0.0,0.0,0.0
8.889,251,8,890000000,base_footprint,-0.0038570202913490717,4.174859547671228e-05,0.9999181753428769,0.012196895937025493,0.0,0.0,0.0,0.0,0.0,0.0,0.0,0.0,0.0,-0.0011256067902480503,0.0005779424982209691,0.10135780421166071,0.0,0.0,0.0,0.0,0.0,0.0,0.0,0.0,0.0,-0.011399329169927495,0.01749470292292192,-0.0013342860899039756,0.0,0.0,0.0,0.0,0.0,0.0,0.0,0.0,0.0
8.924,252,8,924000000,base_footprint,-0.003855334120315278,3.060826668904549e-05,0.9999377038650576,0.010474915323339804,0.0,0.0,0.0,0.0,0.0,0.0,0.0,0.0,0.0,-0.0009013492842643302,-0.0024220410630825346,0.10862621592942197,0.0,0.0,0.0,0.0,0.0,0.0,0.0,0.0,0.0,-0.10072925588279859,0.025556180741782668,0.004588465184266563,0.0,0.0,0.0,0.0,0.0,0.0,0.0,0.0,0.0
8.952,253,8,958000000,base_footprint,-0.003845501271712888,2.8440713551134705e-05,0.9999505445716786,0.009171680429375847,0.0,0.0,0.0,0.0,0.0,0.0,0.0,0.0,0.0,-0.00032295964701255323,-0.0001910756749292363,0.04464267187419379,0.0,0.0,0.0,0.0,0.0,0.0,0.0,0.0,0.0,0.15244808719289263,0.010020636130909132,-0.0023120587095955248,0.0,0.0,0.0,0.0,0.0,0.0,0.0,0.0,0.0
8.991,254,8,992000000,base_footprint,-0.003850448704112511,2.3349622463049403e-05,0.9999541809142996,0.008764107004400782,0.0,0.0,0.0,0.0,0.0,0.0,0.0,0.0,0.0,-0.0002263559568973358,-0.0005249099184204721,0.03796278525460283,0.0,0.0,0.0,0.0,0.0,0.0,0.0,0.0,0.0,0.21513224397342937,-0.003340538757829849,0.00201427875920926,0.0,0.0,0.0,0.0,0.0,0.0,0.0,0.0,0.0
9.028,255,9,26000000,base_footprint,-0.003852112831877086,2.268361907157074e-05,0.9999617390803585,0.007853730805748662,0.0,0.0,0.0,0.0,0.0,0.0,0.0,0.0,0.0,-3.963824157960489e-05,-0.004387571714792256,0.05374455648459165,0.0,0.0,0.0,0.0,0.0,0.0,0.0,0.0,0.0,0.06100212223547076,0.009145498272200531,0.007464079871281848,0.0,0.0,0.0,0.0,0.0,0.0,0.0,0.0,0.0
9.06,256,9,60000000,base_footprint,-0.0038545302665408533,1.8958636554424386e-05,0.9999687774850666,0.006898281816200869,0.0,0.0,0.0,0.0,0.0,0.0,0.0,0.0,0.0,-0.0005767220555654641,0.0007761373437811107,0.08426198973384054,0.0,0.0,0.0,0.0,0.0,0.0,0.0,0.0,0.0,0.3141919701137431,0.0024724453595162373,-0.006428439994483985,0.0,0.0,0.0,0.0,0.0,0.0,0.0,0.0,0.0
9.094,257,9,94000000,base_footprint,-0.0038531474851376643,1.3520586713980811e-05,0.9999776392443454,0.005465718887531887,0.0,0.0,0.0,0.0,0.0,0.0,0.0,0.0,0.0,-0.0005680891969091581,-0.00015991811189209175,0.08426220658087119,0.0,0.0,0.0,0.0,0.0,0.0,0.0,0.0,0.0,0.0005549535028304961,0.018525500084219975,0.0014649311588738707,0.0,0.0,0.0,0.0,0.0,0.0,0.0,0.0,0.0
9.128,258,9,128000000,base_footprint,-0.003852853471532084,8.375966249134332e-06,0.9999843949442687,0.00404540701475848,0.0,0.0,0.0,0.0,0.0,0.0,0.0,0.0,0.0,-0.000682646571094978,-0.00024841903989238133,0.07605659244070238,0.0,0.0,0.0,0.0,0.0,0.0,0.0,0.0,0.0,0.0036997807849989493,0.018340683807934455,0.00016182194446421501,0.0,0.0,0.0,0.0,0.0,0.0,0.0,0.0,0.0
9.163,259,9,162000000,base_footprint,-0.0038531746714151015,3.2131638466628625e-06,0.9999887893438151,0.0027521303236614615,0.0,0.0,0.0,0.0,0.0,0.0,0.0,0.0,0.0,-0.000534263791847888,-0.00016655366859035043,0.07604003350380417,0.0,0.0,0.0,0.0,0.0,0.0,0.0,0.0,0.0,0.0016105482014864344,0.016673119673343718,-7.90010816518188e-05,0.0,0.0,0.0,0.0,0.0,0.0,0.0,0.0,0.0
9.193,260,9,196000000,base_footprint,-0.0038536362161013253,-1.7576195644108827e-06,0.9999915088880814,0.0014600125215215468,0.0,0.0,0.0,0.0,0.0,0.0,0.0,0.0,0.0,-0.0005291754810026595,-0.0001473319078396858,0.07594586878539648,0.0,0.0,0.0,0.0,0.0,0.0,0.0,0.0,0.0,0.001497619296318431,0.01664567628139629,-0.00010169759216626219,0.0,0.0,0.0,0.0,0.0,0.0,0.0,0.0,0.0
9.232,261,9,230000000,base_footprint,-0.003854269456048711,-6.66590705082047e-06,0.9999925543076992,0.00018945102039496776,0.0,0.0,0.0,0.0,0.0,0.0,0.0,0.0,0.0,-0.00012653360887092434,-9.644302019347737e-05,0.06712382686235525,0.0,0.0,0.0,0.0,0.0,0.0,0.0,0.0,0.0,0.0038675721556507003,0.016606904859329915,9.564731466054576e-05,0.0,0.0,0.0,0.0,0.0,0.0,0.0,0.0,0.0
9.263,262,9,264000000,base_footprint,-0.0038553986865226897,-1.0980949347056133e-05,0.9999921100641211,-0.0009568646160056258,0.0,0.0,0.0,0.0,0.0,0.0,0.0,0.0,0.0,-0.0005130419708094679,-7.669045364086298e-05,0.06740218856520379,0.0,0.0,0.0,0.0,0.0,0.0,0.0,0.0,0.0,0.0009730991757305135,0.014702518074679885,-0.00040331175553219144,0.0,0.0,0.0,0.0,0.0,0.0,0.0,0.0,0.0
9.298,263,9,298000000,base_footprint,-0.0038566261826692523,-1.5306520518491897e-05,0.9999903537725546,-0.0021020375921088287,0.0,0.0,0.0,0.0,0.0,0.0,0.0,0.0,0.0,-0.0005058206297299818,-7.11489777373271e-05,0.06736548360531831,0.0,0.0,0.0,0.0,0.0,0.0,0.0,0.0,0.0,-0.0004594238049417035,0.014773161283589855,-8.268127894011714e-05,0.0,0.0,0.0,0.0,0.0,0.0,0.0,0.0,0.0
9.332,264,9,332000000,base_footprint,-0.003857870069631812,-2.0965785096332255e-05,0.999987432741922,-0.0032016803684380996,0.0,0.0,0.0,0.0,0.0,0.0,0.0,0.0,0.0,0.0008119630084560861,0.00022058470294401315,0.047563495001818425,0.0,0.0,0.0,0.0,0.0,0.0,0.0,0.0,0.0,0.002389250479179555,0.014484331603957247,-7.7648155415395e-05,0.0,0.0,0.0,0.0,0.0,0.0,0.0,0.0,0.0
9.366,265,9,366000000,base_footprint,-0.0038592896106128993,-2.12829302428501e-05,0.9999845123529625,-0.004010047998002257,0.0,0.0,0.0,0.0,0.0,0.0,0.0,0.0,0.0,-0.0002710328535634501,8.94110098876137e-05,0.04373624741606256,0.0,0.0,0.0,0.0,0.0,0.0,0.0,0.0,0.0,-0.0040451734901536945,0.010506635859570915,-0.00025552441593093285,0.0,0.0,0.0,0.0,0.0,0.0,0.0,0.0,0.0
9.401,266,9,400000000,base_footprint,-0.0038534765286005047,-2.910138938434829e-05,0.9999820973278056,-0.004577651759999158,0.0,0.0,0.0,0.0,0.0,0.0,0.0,0.0,0.0,-0.00039665829754691954,-0.0004133177959449335,0.03342221836888188,0.0,0.0,0.0,0.0,0.0,0.0,0.0,0.0,0.0,-0.044020080832327876,0.006633120524683266,0.0007123559820605794,0.0,0.0,0.0,0.0,0.0,0.0,0.0,0.0,0.0
9.435,267,9,434000000,base_footprint,-0.0038553862696932163,-2.8285767776718373e-05,0.9999786595740697,-0.0052740490207819945,0.0,0.0,0.0,0.0,0.0,0.0,0.0,0.0,0.0,-0.0005159942833658605,0.0006482268980181642,0.04153247091541182,0.0,0.0,0.0,0.0,0.0,0.0,0.0,0.0,0.0,0.04666620152274378,0.009693548716999345,-0.00159813035218525,0.0,0.0,0.0,0.0,0.0,0.0,0.0,0.0,0.0
9.468,268,9,468000000,base_footprint,-0.0038550031876448997,-3.102333167431164e-05,0.9999745687338254,-0.005999989464676469,0.0,0.0,0.0,0.0,0.0,0.0,0.0,0.0,0.0,-0.0003106271815954085,-0.00014865991933189776,0.042904943679818744,0.0,0.0,0.0,0.0,0.0,0.0,0.0,0.0,0.0,-0.004820300584190346,0.009400306564158188,0.0014309968407606529,0.0,0.0,0.0,0.0,0.0,0.0,0.0,0.0,0.0
9.502,269,9,502000000,base_footprint,-0.003854004252089278,-3.2969412375302155e-05,0.9999699360792419,-0.006728484370171517,0.0,0.0,0.0,0.0,0.0,0.0,0.0,0.0,0.0,-0.00037030172019410863,-0.00018950823804584686,0.04314299012079022,0.0,0.0,0.0,0.0,0.0,0.0,0.0,0.0,0.0,0.0005340577477829864,0.008945691611467814,0.00011998685471949039,0.0,0.0,0.0,0.0,0.0,0.0,0.0,0.0,0.0
9.536,270,9,536000000,base_footprint,-0.0038621282026800917,-3.6603908073628365e-05,0.9999647614362533,-0.007453758222329226,0.0,0.0,0.0,0.0,0.0,0.0,0.0,0.0,0.0,-0.0001142843842701574,-0.0032616262873883454,0.04111346460335443,0.0,0.0,0.0,0.0,0.0,0.0,0.0,0.0,0.0,-0.2819140127407141,0.0008653883901944617,0.002330894463084693,0.0,0.0,0.0,0.0,0.0,0.0,0.0,0.0,0.0
9.57,271,9,570000000,base_footprint,-0.00385256026145333,-4.002597436860436e-05,0.9999586576032083,-0.00823645929649573,0.0,0.0,0.0,0.0,0.0,0.0,0.0,0.0,0.0,-0.0008602492765050367,0.0010118141825973671,0.07833209849515813,0.0,0.0,0.0,0.0,0.0,0.0,0.0,0.0,0.0,-0.4330064601764278,-0.004340194071641997,-0.010137736378868077,0.0,0.0,0.0,0.0,0.0,0.0,0.0,0.0,0.0
9.604,272,9,604000000,base_footprint,-0.0038491263408894235,-4.555667812662617e-05,0.9999410246352927,-0.010155264758840927,0.0,0.0,0.0,0.0,0.0,0.0,0.0,0.0,0.0,-0.00047861803442289763,0.000480975007696028,0.06319846278332432,0.0,0.0,0.0,0.0,0.0,0.0,0.0,0.0,0.0,0.3032635173954074,0.0345723754564154,0.003760737897788788,0.0,0.0,0.0,0.0,0.0,0.0,0.0,0.0,0.0
9.637,273,9,638000000,base_footprint,-0.0038526956079601533,-4.877288996605055e-05,0.9999344884345485,-0.010778367079266795,0.0,0.0,0.0,0.0,0.0,0.0,0.0,0.0,0.0,-0.00021944762410193815,-0.00020642216400348242,0.03487712870451371,0.0,0.0,0.0,0.0,0.0,0.0,0.0,0.0,0.0,0.07607977992015907,0.010950148321534682,0.0017168996455083122,0.0,0.0,0.0,0.0,0.0,0.0,0.0,0.0,0.0
9.672,274,9,672000000,base_footprint,-0.0038530841574692114,-5.109757602867775e-05,0.9999279328756299,-0.011370144527800741,0.0,0.0,0.0,0.0,0.0,0.0,0.0,0.0,0.0,-0.00019202136787231224,-0.00016432561845832632,0.034766172411032505,0.0,0.0,0.0,0.0,0.0,0.0,0.0,0.0,0.0,0.0010070402762109715,0.00730359715746094,-0.00011024853350090118,0.0,0.0,0.0,0.0,0.0,0.0,0.0,0.0,0.0
9.706,275,9,706000000,base_footprint,-0.003853672343362832,-5.344654110513056e-05,0.9999210442045428,-0.011960422644460098,0.0,0.0,0.0,0.0,0.0,0.0,0.0,0.0,0.0,-0.00022586439160243921,-0.00011952618760206787,0.03469005081048845,0.0,0.0,0.0,0.0,0.0,0.0,0.0,0.0,0.0,0.000938732616762965,0.007292272015713468,-0.00021808887441128957,0.0,0.0,0.0,0.0,0.0,0.0,0.0,0.0,0.0
9.74,276,9,740000000,base_footprint,-0.0038529349155792575,-5.607614979512265e-05,0.9999136264023323,-0.0125654877716295,0.0,0.0,0.0,0.0,0.0,0.0,0.0,0.0,0.0,-0.0007185656142501227,-0.0002558223368700901,0.03652220857617048,0.0,0.0,0.0,0.0,0.0,0.0,0.0,0.0,0.0,0.27917546424647344,0.021231163301821104,0.0033950022736043794,0.0,0.0,0.0,0.0,0.0,0.0,0.0,0.0,0.0
9.775,277,9,774000000,base_footprint,-0.0038554056677794052,-5.680426977607064e-05,0.9999110653379456,-0.012766911730974762,0.0,0.0,0.0,0.0,0.0,0.0,0.0,0.0,0.0,-5.830494609261811e-05,-6.729090619655188e-05,0.009884675610294307,0.0,0.0,0.0,0.0,0.0,0.0,0.0,0.0,0.0,0.06989821256998352,0.006424678304393728,-0.0009458619950228771,0.0,0.0,0.0,0.0,0.0,0.0,0.0,0.0,0.0
9.808,278,9,808000000,base_footprint,-0.0038564560581514553,-5.7621067168954504e-05,0.9999088898474353,-0.012935858323039454,0.0,0.0,0.0,0.0,0.0,0.0,0.0,0.0,0.0,-4.946625322713189e-05,-4.7093312113365885e-05,0.009977817361992398,0.0,0.0,0.0,0.0,0.0,0.0,0.0,0.0,0.0,-0.0010646821514429601,0.0020775961459544652,-0.0001187940407722389,0.0,0.0,0.0,0.0,0.0,0.0,0.0,0.0,0.0
9.842,279,9,842000000,base_footprint,-0.0038568124852765002,-5.801776734187712e-05,0.9999077570425735,-0.013023019522437593,0.0,0.0,0.0,0.0,0.0,0.0,0.0,0.0,0.0,0.0001675176194599238,0.00014959656952224747,-0.003171301044784835,0.0,0.0,0.0,0.0,0.0,0.0,0.0,0.0,0.0,-0.0035419529841802153,0.0011613679509208318,-0.00036615837450711363,0.0,0.0,0.0,0.0,0.0,0.0,0.0,0.0,0.0
9.876,280,9,876000000,base_footprint,-0.0038580919962418895,-6.033326972259237e-05,0.9999075440985714,-0.013038970082368543,0.0,0.0,0.0,0.0,0.0,0.0,0.0,0.0,0.0,0.0001260990449153977,7.48512701602515e-05,0.010228125395036038,0.0,0.0,0.0,0.0,0.0,0.0,0.0,0.0,0.0,-0.023877108573217197,-0.002486050843256776,3.739897553094397e-05,0.0,0.0,0.0,0.0,0.0,0.0,0.0,0.0,0.0
9.911,281,9,910000000,base_footprint,-0.00385033061722438,-5.4680720417755716e-05,0.9999036725106534,-0.013334828977722821,0.0,0.0,0.0,0.0,0.0,0.0,0.0,0.0,0.0,-2.7198118709554345e-05,0.00034182149564586237,0.014850755468904539,0.0,0.0,0.0,0.0,0.0,0.0,0.0,0.0,0.0,-0.015615489622484527,0.004721636595240465,-9.714168012268828e-05,0.0,0.0,0.0,0.0,0.0,0.0,0.0,0.0,0.0
9.943,282,9,944000000,base_footprint,-0.0038553272966280897,-5.881375753603056e-05,0.9999028401085263,-0.013395646131513018,0.0,0.0,0.0,0.0,0.0,0.0,0.0,0.0,0.0,0.00011549656830113515,-0.0004887620491599993,0.0007372155774611434,0.0,0.0,0.0,0.0,0.0,0.0,0.0,0.0,0.0,0.034050899927899635,0.002476428177415969,0.0011917166949674152,0.0,0.0,0.0,0.0,0.0,0.0,0.0,0.0,0.0
9.977,283,9,978000000,base_footprint,-0.003854109883311245,-5.8765370733954994e-05,0.999902724250827,-0.013404641711485673,0.0,0.0,0.0,0.0,0.0,0.0,0.0,0.0,0.0,-8.893307924024689e-07,-9.741297751368448e-05,0.0004995385390898095,0.0,0.0,0.0,0.0,0.0,0.0,0.0,0.0,0.0,0.0019079597489510144,0.00021678579322365987,-0.0005104678353042132,0.0,0.0,0.0,0.0,0.0,0.0,0.0,0.0,0.0
10.012,284,10,12000000,base_footprint,-0.0038532964502812025,-5.8689103509956255e-05,0.999902620144423,-0.013412639202381787,0.0,0.0,0.0,0.0,0.0,0.0,0.0,0.0,0.0,-4.104109689828182e-05,-0.00014130622336107622,0.0004381477643781499,0.0,0.0,0.0,0.0,0.0,0.0,0.0,0.0,0.0,0.0010089309680632855,0.0001270144621733706,0.0001702676587055629,0.0,0.0,0.0,0.0,0.0,0.0,0.0,0.0,0.0
10.046,285,10,46000000,base_footprint,-0.0038527807760751908,-5.833258576155906e-05,0.9999036191950541,-0.013338103247211424,0.0,0.0,0.0,0.0,0.0,0.0,0.0,0.0,0.0,3.3253912635036663e-05,-0.00012270140086966522,-0.007460826992352976,0.0,0.0,0.0,0.0,0.0,0.0,0.0,0.0,0.0,0.003301939976095465,-0.0006637273753869285,5.926909558872664e-05,0.0,0.0,0.0,0.0,0.0,0.0,0.0,0.0,0.0
10.08,286,10,80000000,base_footprint,-0.0038526657884004286,-5.782602858877089e-05,0.9999053194460735,-0.013210063055080747,0.0,0.0,0.0,0.0,0.0,0.0,0.0,0.0,0.0,7.844093559837971e-05,-0.00016652130890526992,-0.0075684263090422315,0.0,0.0,0.0,0.0,0.0,0.0,0.0,0.0,0.0,0.0013138212133519097,-0.0015905531735176408,0.00014226486039930382,0.0,0.0,0.0,0.0,0.0,0.0,0.0,0.0,0.0
10.114,287,10,114000000,base_footprint,-0.0038527329213008184,-5.733462978376801e-05,0.9999070284923453,-0.013080043325068649,0.0,0.0,0.0,0.0,0.0,0.0,0.0,0.0,0.0,0.00010512064645883213,-0.0001775966750677797,-0.007694214588730673,0.0,0.0,0.0,0.0,0.0,0.0,0.0,0.0,0.0,0.001428783700712671,-0.0016051003205338902,5.437235951443918e-05,0.0,0.0,0.0,0.0,0.0,0.0,0.0,0.0,0.0
10.147,288,10,148000000,base_footprint,-0.0038530970513192164,-5.685165572422008e-05,0.9999087490956674,-0.012947736981422243,0.0,0.0,0.0,0.0,0.0,0.0,0.0,0.0,0.0,7.517090073418952e-05,-0.0001613350222308966,-0.007836492187631864,0.0,0.0,0.0,0.0,0.0,0.0,0.0,0.0,0.0,0.0014939087527680822,-0.0016678883483566256,-8.183931774976458e-05,0.0,0.0,0.0,0.0,0.0,0.0,0.0,0.0,0.0
10.18,289,10,182000000,base_footprint,-0.003853771192188761,-5.643303406105209e-05,0.9999104760653558,-0.012813474066960229,0.0,0.0,0.0,0.0,0.0,0.0,0.0,0.0,0.0,8.096459631794142e-05,-9.853836793648661e-05,-0.007940616958154786,0.0,0.0,0.0,0.0,0.0,0.0,0.0,0.0,0.0,0.0014395299503420732,-0.0016366488290180637,-0.00028842208229161264,0.0,0.0,0.0,0.0,0.0,0.0,0.0,0.0,0.0
10.222,290,10,216000000,base_footprint,-0.003854700554833434,-5.599523957794484e-05,0.9999122055219853,-0.012677515384520485,0.0,0.0,0.0,0.0,0.0,0.0,0.0,0.0,0.0,8.094986562437657e-05,-7.92851230622794e-05,-0.008035747854756501,0.0,0.0,0.0,0.0,0.0,0.0,0.0,0.0,0.0,0.0014469095524662615,-0.0017075440805452897,-8.177653706533273e-05,0.0,0.0,0.0,0.0,0.0,0.0,0.0,0.0,0.0
10.249,291,10,250000000,base_footprint,-0.003851025469964506,-5.573708434559701e-05,0.9999112639755069,-0.01275267309669863,0.0,0.0,0.0,0.0,0.0,0.0,0.0,0.0,0.0,-0.00015582703470628926,-0.00010115225024595553,0.02628621764253611,0.0,0.0,0.0,0.0,0.0,0.0,0.0,0.0,0.0,-0.4245180662509807,-0.020551183545806807,-0.002872054837912287,0.0,0.0,0.0,0.0,0.0,0.0,0.0,0.0,0.0
10.286,292,10,284000000,base_footprint,-0.0038560613601259374,-5.727508832996757e-05,0.9999059576308246,-0.013160676454305,0.0,0.0,0.0,0.0,0.0,0.0,0.0,0.0,0.0,0.0009636309877024491,-0.0008028745548423234,-0.0035301806986022637,0.0,0.0,0.0,0.0,0.0,0.0,0.0,0.0,0.0,0.08983359852093614,0.010047586499681222,0.0020745852938692023,0.0,0.0,0.0,0.0,0.0,0.0,0.0,0.0,0.0
10.317,293,10,318000000,base_footprint,-0.0038577950743186825,-5.843826207513494e-05,0.9999060249780328,-0.013155045220893367,0.0,0.0,0.0,0.0,0.0,0.0,0.0,0.0,0.0,-2.3921493599451338e-05,-7.463086182486878e-06,0.00013937486095353673,0.0,0.0,0.0,0.0,0.0,0.0,0.0,0.0,0.0,-0.011339369167761229,-0.0010806418502272309,-0.0021885572540456606,0.0,0.0,0.0,0.0,0.0,0.0,0.0,0.0,0.0
10.352,294,10,352000000,base_footprint,-0.0038537738125082373,-6.352928033327446e-05,0.9999066934485431,-0.01310529619024423,0.0,0.0,0.0,0.0,0.0,0.0,0.0,0.0,0.0,8.182700116684623e-05,-0.000539164256672458,0.003113724259088977,0.0,0.0,0.0,0.0,0.0,0.0,0.0,0.0,0.0,0.019360175236654446,-0.003608664912932096,0.001407956846529036,0.0,0.0,0.0,0.0,0.0,0.0,0.0,0.0,0.0
10.386,295,10,386000000,base_footprint,-0.0038455229525085075,-5.9216205894401406e-05,0.9998978426720468,-0.013766359956407105,0.0,0.0,0.0,0.0,0.0,0.0,0.0,0.0,0.0,-0.0004939793744659668,-0.00020645046139467394,0.07318666283408985,0.0,0.0,0.0,0.0,0.0,0.0,0.0,0.0,0.0,0.06337755269041631,0.01552780315661111,5.207415863046222e-06,0.0,0.0,0.0,0.0,0.0,0.0,0.0,0.0,0.0
10.419,296,10,420000000,base_footprint,-0.003849846640111222,-6.216362320201714e-05,0.9998754461399145,-0.015305783973336705,0.0,0.0,0.0,0.0,0.0,0.0,0.0,0.0,0.0,-0.0007055825142588646,-0.0007902463789430629,0.0816242277464799,0.0,0.0,0.0,0.0,0.0,0.0,0.0,0.0,0.0,0.18466062042308418,0.029567510390697046,0.0018428781352941132,0.0,0.0,0.0,0.0,0.0,0.0,0.0,0.0,0.0
10.454,297,10,454000000,base_footprint,-0.0038538483553572393,-7.08721885516975e-05,0.9998550733367384,-0.01658237476275638,0.0,0.0,0.0,0.0,0.0,0.0,0.0,0.0,0.0,-0.0006402696604721881,0.00012127617397295564,0.0745753538886309,0.0,0.0,0.0,0.0,0.0,0.0,0.0,0.0,0.0,0.04539342746302863,0.019473394529509597,-0.0007516214471818064,0.0,0.0,0.0,0.0,0.0,0.0,0.0,0.0,0.0
10.488,298,10,488000000,base_footprint,-0.00385298312067635,-7.566009192780207e-05,0.9998332269019058,-0.017851251483983824,0.0,0.0,0.0,0.0,0.0,0.0,0.0,0.0,0.0,-0.0006217702628334657,-0.00016570289039526053,0.07463731158275648,0.0,0.0,0.0,0.0,0.0,0.0,0.0,0.0,0.0,-0.0006492105180771459,0.016323614760008247,0.000528883301523187,0.0,0.0,0.0,0.0,0.0,0.0,0.0,0.0,0.0
10.507,299,10,522000000,base_footprint,-0.003852416661704109,-8.045860655728699e-05,0.9998097926921172,-0.019118861085924473,0.0,0.0,0.0,0.0,0.0,0.0,0.0,0.0,0.0,-0.0006205323457155276,-0.00016998334864720956,0.07454047665153117,0.0,0.0,0.0,0.0,0.0,0.0,0.0,0.0,0.0,-4.8366148017561685e-05,0.016361027812688087,2.2018615852285206e-05,0.0,0.0,0.0,0.0,0.0,0.0,0.0,0.0,0.0
10.555,300,10,556000000,base_footprint,-0.0038521806446158943,-8.391649966037837e-05,0.9997922272805155,-0.02001639157711223,0.0,0.0,0.0,0.0,0.0,0.0,0.0,0.0,0.0,-0.000392117207826228,-0.00022300000315712278,0.050346061113037646,0.0,0.0,0.0,0.0,0.0,0.0,0.0,0.0,0.0,0.006638541651585411,0.01243752126481725,0.00017842715179344773,0.0,0.0,0.0,0.0,0.0,0.0,0.0,0.0,0.0
10.591,301,10,590000000,base_footprint,-0.0038520846089445805,-8.715984170913465e-05,0.9997747642614143,-0.020870423890302605,0.0,0.0,0.0,0.0,0.0,0.0,0.0,0.0,0.0,-0.00036314072325916764,-0.00018637200929359543,0.05023212306307037,0.0,0.0,0.0,0.0,0.0,0.0,0.0,0.0,0.0,0.00041572304594361524,0.011123665472829461,8.635385493420088e-06,0.0,0.0,0.0,0.0,0.0,0.0,0.0,0.0,0.0
10.624,302,10,624000000,base_footprint,-0.003852322545037091,-9.043610909286255e-05,0.9997566151335887,-0.0217223831323532,0.0,0.0,0.0,0.0,0.0,0.0,0.0,0.0,0.0,-0.0003678913822326269,-0.00017756483697195958,0.050115839556623264,0.0,0.0,0.0,0.0,0.0,0.0,0.0,0.0,0.0,0.0004583183426421104,0.011061856567106646,-4.933745408097966e-05,0.0,0.0,0.0,0.0,0.0,0.0,0.0,0.0,0.0
10.658,303,10,658000000,base_footprint,-0.003852889811890468,-9.325767481636318e-05,0.9997406964481951,-0.022442958993443934,0.0,0.0,0.0,0.0,0.0,0.0,0.0,0.0,0.0,-0.0002954298869170629,-0.00010816002610409761,0.042117652641016357,0.0,0.0,0.0,0.0,0.0,0.0,0.0,0.0,0.0,0.002571747438932714,0.009687369209816617,-0.0002549349510583179,0.0,0.0,0.0,0.0,0.0,0.0,0.0,0.0,0.0
10.692,304,10,692000000,base_footprint,-0.0038536899122044474,-9.60254312438297e-05,0.9997243991883511,-0.023157407468619714,0.0,0.0,0.0,0.0,0.0,0.0,0.0,0.0,0.0,-0.00028795680722314875,-9.537302244490685e-05,0.04201546128988049,0.0,0.0,0.0,0.0,0.0,0.0,0.0,0.0,0.0,0.0005663754704193326,0.009336176901575212,-7.02069522142679e-05,0.0,0.0,0.0,0.0,0.0,0.0,0.0,0.0,0.0
10.726,305,10,726000000,base_footprint,-0.003854793014850258,-9.894241545307102e-05,0.999707675785765,-0.023868258341043905,0.0,0.0,0.0,0.0,0.0,0.0,0.0,0.0,0.0,-0.00032372963675262413,-7.61412037063353e-05,0.04154028182768468,0.0,0.0,0.0,0.0,0.0,0.0,0.0,0.0,0.0,-0.00023165928350053186,0.009201829843560744,-0.00011563879922834341,0.0,0.0,0.0,0.0,0.0,0.0,0.0,0.0,0.0
10.76,306,10,760000000,base_footprint,-0.003855934874224388,-0.00010212099314903882,0.9996906079861025,-0.024572538369596292,0.0,0.0,0.0,0.0,0.0,0.0,0.0,0.0,0.0,-0.0002958537546255191,-8.696902381042756e-05,0.04183376491382836,0.0,0.0,0.0,0.0,0.0,0.0,0.0,0.0,0.0,-0.0010736475007062725,0.008845839649623558,-8.541106887891626e-05,0.0,0.0,0.0,0.0,0.0,0.0,0.0,0.0,0.0
10.792,307,10,794000000,base_footprint,-0.0038570833117106086,-0.0001051513965999975,0.9996723855710362,-0.025302833403079383,0.0,0.0,0.0,0.0,0.0,0.0,0.0,0.0,0.0,-0.0002902928431042953,3.785516767450839e-05,0.04267413353155959,0.0,0.0,0.0,0.0,0.0,0.0,0.0,0.0,0.0,-0.0009044225060271538,0.009617916081049494,-0.0002240193190861954,0.0,0.0,0.0,0.0,0.0,0.0,0.0,0.0,0.0
10.828,308,10,828000000,base_footprint,-0.0038575558801314785,-0.0001094839600532665,0.9996550006676304,-0.025980510312429133,0.0,0.0,0.0,0.0,0.0,0.0,0.0,0.0,0.0,-4.805427791134694e-05,0.0014741676555425217,0.043056729163627634,0.0,0.0,0.0,0.0,0.0,0.0,0.0,0.0,0.0,-0.012636513795361787,0.006800859261631489,-0.001911672291838891,0.0,0.0,0.0,0.0,0.0,0.0,0.0,0.0,0.0
10.862,309,10,862000000,base_footprint,-0.0038501740478240174,-0.00010770744474486632,0.9996335696751528,-0.026793486846981796,0.0,0.0,0.0,0.0,0.0,0.0,0.0,0.0,0.0,-0.00016394400273286568,-0.0003329595148308365,0.052773196174034566,0.0,0.0,0.0,0.0,0.0,0.0,0.0,0.0,0.0,-0.04704609987519587,0.00632640802164736,0.0027858667938944403,0.0,0.0,0.0,0.0,0.0,0.0,0.0,0.0,0.0
10.896,310,10,896000000,base_footprint,-0.0038536476207211823,-0.00011317633595619445,0.9996139018266986,-0.027516974142073256,0.0,0.0,0.0,0.0,0.0,0.0,0.0,0.0,0.0,-0.0009350228443643462,0.0009888273056240797,0.031899389724464496,0.0,0.0,0.0,0.0,0.0,0.0,0.0,0.0,0.0,0.055537873355629194,0.015367229791934379,-0.002460614126552308,0.0,0.0,0.0,0.0,0.0,0.0,0.0,0.0,0.0
10.93,311,10,930000000,base_footprint,-0.0038674410144061617,-0.00011708959869450677,0.9995981593136729,-0.028081116194749893,0.0,0.0,0.0,0.0,0.0,0.0,0.0,0.0,0.0,-0.0005249721389250805,0.0014497649316065442,0.02525114655498685,0.0,0.0,0.0,0.0,0.0,0.0,0.0,0.0,0.0,-0.11068851920728227,-0.005887684763112707,-0.0011706984938336066,0.0,0.0,0.0,0.0,0.0,0.0,0.0,0.0,0.0
10.964,312,10,964000000,base_footprint,-0.00383500892944247,-0.00011383568632208137,0.9995976639871043,-0.028103200875911463,0.0,0.0,0.0,0.0,0.0,0.0,0.0,0.0,0.0,-0.00044862085611324957,5.256207978049745e-05,-0.000732437502550364,0.0,0.0,0.0,0.0,0.0,0.0,0.0,0.0,0.0,-0.5264246272056089,-0.058452980965490314,-0.0022176231487425584,0.0,0.0,0.0,0.0,0.0,0.0,0.0,0.0,0.0
10.998,313,10,998000000,base_footprint,-0.003840895279162505,-0.0001181532357400602,0.9995685256993319,-0.029120370782865387,0.0,0.0,0.0,0.0,0.0,0.0,0.0,0.0,0.0,-0.0007015810973235348,0.0001310100297665667,0.08905506218906034,0.0,0.0,0.0,0.0,0.0,0.0,0.0,0.0,0.0,0.29813922881371135,0.04616465151282828,0.0027164264180631623,0.0,0.0,0.0,0.0,0.0,0.0,0.0,0.0,0.0
11.034,314,11,32000000,base_footprint,-0.003850728437932675,-0.00012628098404200746,0.9995138942429539,-0.030937536406372035,0.0,0.0,0.0,0.0,0.0,0.0,0.0,0.0,0.0,-0.0008851974937622381,2.3680434961999683e-05,0.10841148621408978,0.0,0.0,0.0,0.0,0.0,0.0,0.0,0.0,0.0,0.3111919851313549,0.061103751060090084,0.0025420960813663154,0.0,0.0,0.0,0.0,0.0,0.0,0.0,0.0,0.0
11.066,315,11,66000000,base_footprint,-0.0038507012246465702,-0.0001333265183405054,0.9994552289214341,-0.032778036941247375,0.0,0.0,0.0,0.0,0.0,0.0,0.0,0.0,0.0,-0.0007681467211446533,-0.00022575501229188077,0.10834434811447757,0.0,0.0,0.0,0.0,0.0,0.0,0.0,0.0,0.0,-0.0017152423457167387,0.023699904186472883,0.00038400683768297105,0.0,0.0,0.0,0.0,0.0,0.0,0.0,0.0,0.0
11.102,316,11,100000000,base_footprint,-0.003850699676537188,-0.00014032008789293087,0.9993932205602014,-0.03461709289617807,0.0,0.0,0.0,0.0,0.0,0.0,0.0,0.0,0.0,-0.0007250252369513654,-0.00020034602102959076,0.10824545177394625,0.0,0.0,0.0,0.0,0.0,0.0,0.0,0.0,0.0,-0.0018689733118086448,0.023689406777693926,-0.00010311870252983934,0.0,0.0,0.0,0.0,0.0,0.0,0.0,0.0,0.0
11.128,317,11,134000000,base_footprint,-0.0038510808466751126,-0.00014714696617842485,0.9993291806356707,-0.036418899683020436,0.0,0.0,0.0,0.0,0.0,0.0,0.0,0.0,0.0,-0.0007707015450997574,-5.041356917216667e-05,0.10005141268223221,0.0,0.0,0.0,0.0,0.0,0.0,0.0,0.0,0.0,0.00016755143329101943,0.023639378130768954,-0.00034612998444208973,0.0,0.0,0.0,0.0,0.0,0.0,0.0,0.0,0.0
11.173,318,11,168000000,base_footprint,-0.0038516452955341075,-0.00015367111743929608,0.9992658285489847,-0.038117517075698125,0.0,0.0,0.0,0.0,0.0,0.0,0.0,0.0,0.0,-0.0007096060742965726,-0.00014022475397937545,0.09995726584877983,0.0,0.0,0.0,0.0,0.0,0.0,0.0,0.0,0.0,-0.0020570858930845422,0.0218053160587584,2.168174004331139e-05,0.0,0.0,0.0,0.0,0.0,0.0,0.0,0.0,0.0
11.2,319,11,202000000,base_footprint,-0.003852367283577081,-0.00016022337997796725,0.9991997720314514,-0.03981142005852792,0.0,0.0,0.0,0.0,0.0,0.0,0.0,0.0,0.0,-0.0007016117651061379,-0.00011993812779359728,0.09954295096824842,0.0,0.0,0.0,0.0,0.0,0.0,0.0,0.0,0.0,-0.0029820698566428716,0.0216645913025058,-0.00011468473175496943,0.0,0.0,0.0,0.0,0.0,0.0,0.0,0.0,0.0
11.237,320,11,236000000,base_footprint,-0.0038523063930176724,-0.000166925098901591,0.9991343169360416,-0.04142159572270555,0.0,0.0,0.0,0.0,0.0,0.0,0.0,0.0,0.0,-0.0004012900870396455,0.0005063589899369488,0.08231585997502067,0.0,0.0,0.0,0.0,0.0,0.0,0.0,0.0,0.0,-0.0004746188875388829,0.02093630215274416,-0.001033450853233993,0.0,0.0,0.0,0.0,0.0,0.0,0.0,0.0,0.0
11.269,321,11,270000000,base_footprint,-0.0038544759145564245,-0.00017195981100824362,0.9990757130818966,-0.04281159860537136,0.0,0.0,0.0,0.0,0.0,0.0,0.0,0.0,0.0,-0.0007053447757598822,-0.00032478386680064844,0.07844215805779325,0.0,0.0,0.0,0.0,0.0,0.0,0.0,0.0,0.0,-0.012522163535042019,0.01635565694287584,0.0012013517913984412,0.0,0.0,0.0,0.0,0.0,0.0,0.0,0.0,0.0
11.297,322,11,304000000,base_footprint,-0.0038545229181260843,-0.00017828616841967604,0.9990156645828162,-0.0441906413765401,0.0,0.0,0.0,0.0,0.0,0.0,0.0,0.0,0.0,-0.0007856649397774147,-0.0005195573430865158,0.08161259785987604,0.0,0.0,0.0,0.0,0.0,0.0,0.0,0.0,0.0,0.00315477326305629,0.01865606629062051,0.0002576959918444642,0.0,0.0,0.0,0.0,0.0,0.0,0.0,0.0,0.0
11.336,323,11,338000000,base_footprint,-0.0038554924467581056,-0.00018521485121973067,0.9989452900959582,-0.04575377873524749,0.0,0.0,0.0,0.0,0.0,0.0,0.0,0.0,0.0,-0.0007872503048884021,0.00011317597056043947,0.10982931183696214,0.0,0.0,0.0,0.0,0.0,0.0,0.0,0.0,0.0,-0.017689891256471794,0.016787710548916288,-0.001057653724442778,0.0,0.0,0.0,0.0,0.0,0.0,0.0,0.0,0.0
11.374,324,11,372000000,base_footprint,-0.003846309019234122,-0.00018823555095537602,0.9988524636235327,-0.04773810205177108,0.0,0.0,0.0,0.0,0.0,0.0,0.0,0.0,0.0,-0.0008703427804481181,-0.00011664524078098908,0.11400453277367137,0.0,0.0,0.0,0.0,0.0,0.0,0.0,0.0,0.0,-0.018077267232880445,0.022918876137636518,0.00041627747756085853,0.0,0.0,0.0,0.0,0.0,0.0,0.0,0.0,0.0
11.406,325,11,406000000,base_footprint,-0.0038490400894236943,-0.00019841695146331537,0.9987630186874791,-0.04957396517707476,0.0,0.0,0.0,0.0,0.0,0.0,0.0,0.0,0.0,-0.0008681352825848706,-0.00016400173860680776,0.10782285702724859,0.0,0.0,0.0,0.0,0.0,0.0,0.0,0.0,0.0,0.012221952777421535,0.0262313035053144,0.0002008680687348237,0.0,0.0,0.0,0.0,0.0,0.0,0.0,0.0,0.0
11.443,326,11,440000000,base_footprint,-0.0038540898862817296,-0.00020779349642230914,0.9986773020645473,-0.05127132877240757,0.0,0.0,0.0,0.0,0.0,0.0,0.0,0.0,0.0,-0.001140202843355666,-0.002009158914060738,0.08927052708082739,0.0,0.0,0.0,0.0,0.0,0.0,0.0,0.0,0.0,-0.3140284294356159,-0.042679336329941156,-0.00025930786266606496,0.0,0.0,0.0,0.0,0.0,0.0,0.0,0.0,0.0
