Time,header.seq,header.stamp.secs,header.stamp.nsecs,header.frame_id,orientation.x,orientation.y,orientation.z,orientation.w,orientation_covariance_0,orientation_covariance_1,orientation_covariance_2,orientation_covariance_3,orientation_covariance_4,orientation_covariance_5,orientation_covariance_6,orientation_covariance_7,orientation_covariance_8,angular_velocity.x,angular_velocity.y,angular_velocity.z,angular_velocity_covariance_0,angular_velocity_covariance_1,angular_velocity_covariance_2,angular_velocity_covariance_3,angular_velocity_covariance_4,angular_velocity_covariance_5,angular_velocity_covariance_6,angular_velocity_covariance_7,angular_velocity_covariance_8,linear_acceleration.x,linear_acceleration.y,linear_acceleration.z,linear_acceleration_covariance_0,linear_acceleration_covariance_1,linear_acceleration_covariance_2,linear_acceleration_covariance_3,linear_acceleration_covariance_4,linear_acceleration_covariance_5,linear_acceleration_covariance_6,linear_acceleration_covariance_7,linear_acceleration_covariance_8
0.439,0,0,439000000,base_footprint,-2.36609037645152e-05,-0.0006688027902969203,-2.3518561553862934e-06,0.9999997760687039,0.0,0.0,0.0,0.0,0.0,0.0,0.0,0.0,0.0,-0.0004451353792409183,0.04765822719039796,-2.7011228050026684e-05,0.0,0.0,0.0,0.0,0.0,0.0,0.0,0.0,0.0,0.0005359767360307915,-3.370254263124468e-05,-0.05707012364611856,0.0,0.0,0.0,0.0,0.0,0.0,0.0,0.0,0.0
0.47300000000000003,1,0,473000000,base_footprint,-3.274109205326816e-05,0.00019387110207890772,-2.389483978372142e-06,0.9999999806681534,0.0,0.0,0.0,0.0,0.0,0.0,0.0,0.0,0.0,-0.0006827966749093405,0.06958059089769156,-6.673042562108484e-05,0.0,0.0,0.0,0.0,0.0,0.0,0.0,0.0,0.0,-0.0017716250956799733,-5.8370844016992274e-05,0.004164376730969793,0.0,0.0,0.0,0.0,0.0,0.0,0.0,0.0,0.0
0.507,2,0,507000000,base_footprint,-4.3193255597995485e-05,0.0013497360235329389,-2.9797452995621247e-06,0.9999990881686497,0.0,0.0,0.0,0.0,0.0,0.0,0.0,0.0,0.0,-0.0006044410630843877,0.06777828376141468,-1.529606315918273e-05,0.0,0.0,0.0,0.0,0.0,0.0,0.0,0.0,0.0,0.0003827984303764729,9.829716981382478e-05,-0.0010834135926673862,0.0,0.0,0.0,0.0,0.0,0.0,0.0,0.0,0.0
0.541,3,0,541000000,base_footprint,-5.366199978514366e-05,0.0025037552345728528,-2.9846408321319195e-06,0.9999968641556869,0.0,0.0,0.0,0.0,0.0,0.0,0.0,0.0,0.0,-0.0006025823922379611,0.06770213950455732,-1.4948791176794414e-06,0.0,0.0,0.0,0.0,0.0,0.0,0.0,0.0,0.0,-0.00023231791280716786,2.4284450890723158e-05,0.00015262226375787328,0.0,0.0,0.0,0.0,0.0,0.0,0.0,0.0,0.0
0.5750000000000001,4,0,575000000,base_footprint,-6.411638493363483e-05,0.0036564788390185754,-2.8494633732299385e-06,0.9999933129993768,0.0,0.0,0.0,0.0,0.0,0.0,0.0,0.0,0.0,-0.0006023794911821249,0.06762614409214075,3.259284737069055e-06,0.0,0.0,0.0,0.0,0.0,0.0,0.0,0.0,0.0,-0.0002315732885695414,6.615932246171605e-06,0.00015306018962343292,0.0,0.0,0.0,0.0,0.0,0.0,0.0,0.0,0.0
0.609,5,0,609000000,base_footprint,-7.481479085749862e-06,0.0038713474084059864,-1.3170091534178196e-05,0.9999925061918312,0.0,0.0,0.0,0.0,0.0,0.0,0.0,0.0,0.0,-0.0005193954330052964,-0.00014148833897182215,-0.00010324236148555484,0.0,0.0,0.0,0.0,0.0,0.0,0.0,0.0,0.0,0.010183495543420868,0.0003360592485610548,0.13174277695260433,0.0,0.0,0.0,0.0,0.0,0.0,0.0,0.0,0.0
0.643,6,0,643000000,base_footprint,-7.245856481274318e-06,0.0038607348065133975,-1.3225822061338243e-05,0.9999925472218927,0.0,0.0,0.0,0.0,0.0,0.0,0.0,0.0,0.0,3.768959702793707e-05,-0.00025171709944475103,0.00019152826070379254,0.0,0.0,0.0,0.0,0.0,0.0,0.0,0.0,0.0,-0.00844085902225954,3.12668730137445e-05,0.00029740708507851104,0.0,0.0,0.0,0.0,0.0,0.0,0.0,0.0,0.0
0.677,7,0,677000000,base_footprint,-7.3380605739709404e-06,0.003860671208029274,-9.042330124079051e-06,0.9999925475133365,0.0,0.0,0.0,0.0,0.0,0.0,0.0,0.0,0.0,3.3127070254293346e-05,-0.00018312570572970145,0.0003066433508635942,0.0,0.0,0.0,0.0,0.0,0.0,0.0,0.0,0.0,-3.5954077870616505e-05,0.0002250977450323773,-8.845746606148394e-05,0.0,0.0,0.0,0.0,0.0,0.0,0.0,0.0,0.0
0.7110000000000001,8,0,711000000,base_footprint,-7.385670189622315e-06,0.003860611208459914,-3.860113484576156e-06,0.9999925477780566,0.0,0.0,0.0,0.0,0.0,0.0,0.0,0.0,0.0,3.4757449123718406e-05,-0.00018005399446710673,0.0003340692925929886,0.0,0.0,0.0,0.0,0.0,0.0,0.0,0.0,0.0,-8.034230735677057e-06,5.3938712618009725e-05,-6.673425760194019e-06,0.0,0.0,0.0,0.0,0.0,0.0,0.0,0.0,0.0
0.745,9,0,745000000,base_footprint,-7.418247348911105e-06,0.003860596476048495,1.5724885235984342e-06,0.9999925478409057,0.0,0.0,0.0,0.0,0.0,0.0,0.0,0.0,0.0,3.5229386817527964e-05,-0.0001788044586603226,0.0003412352834594853,0.0,0.0,0.0,0.0,0.0,0.0,0.0,0.0,0.0,-2.120409809008555e-06,1.409996168663515e-05,-2.1890766073140932e-06,0.0,0.0,0.0,0.0,0.0,0.0,0.0,0.0,0.0
0.779,10,0,779000000,base_footprint,-7.446241365797499e-06,0.0038605927580738436,7.0713083838542674e-06,0.9999925478312859,0.0,0.0,0.0,0.0,0.0,0.0,0.0,0.0,0.0,3.53827298630054e-05,-0.00017848573396755368,0.0003431447255117559,0.0,0.0,0.0,0.0,0.0,0.0,0.0,0.0,0.0,-5.711684614603031e-07,3.7533104761025465e-06,-5.608114269224914e-07,0.0,0.0,0.0,0.0,0.0,0.0,0.0,0.0,0.0
0.8130000000000001,11,0,813000000,base_footprint,-7.472668329856678e-06,0.003860591973136586,1.2587833879445678e-05,0.9999925477798937,0.0,0.0,0.0,0.0,0.0,0.0,0.0,0.0,0.0,3.544843889513486e-05,-0.00017840030618551734,0.0003436627092204117,0.0,0.0,0.0,0.0,0.0,0.0,0.0,0.0,0.0,-1.6148884431430228e-07,1.0143641232414372e-06,-1.446015542326231e-07,0.0,0.0,0.0,0.0,0.0,0.0,0.0,0.0,0.0
0.8470000000000001,12,0,847000000,base_footprint,-7.498360076061492e-06,0.003860591966969265,1.8109223391524685e-05,0.9999925476949793,0.0,0.0,0.0,0.0,0.0,0.0,0.0,0.0,0.0,3.54891200786306e-05,-0.0001783769644173401,0.00034381235495650086,0.0,0.0,0.0,0.0,0.0,0.0,0.0,0.0,0.0,-5.30096505731984e-08,2.8926399548939867e-07,-3.459138287926563e-08,0.0,0.0,0.0,0.0,0.0,0.0,0.0,0.0,0.0
0.881,13,0,881000000,base_footprint,-7.5235666224842594e-06,0.0038605921692826855,2.36320773176258e-05,0.9999925475787425,0.0,0.0,0.0,0.0,0.0,0.0,0.0,0.0,0.0,3.5521496131114315e-05,-0.0001783700639905701,0.00034386450807536784,0.0,0.0,0.0,0.0,0.0,0.0,0.0,0.0,0.0,-2.4289603407966124e-08,9.728287252214583e-08,-5.9380159116439775e-09,0.0,0.0,0.0,0.0,0.0,0.0,0.0,0.0,0.0
0.915,14,0,915000000,base_footprint,-7.548381209868002e-06,0.0038605924288870217,2.915549563984809e-05,0.9999925474317682,0.0,0.0,0.0,0.0,0.0,0.0,0.0,0.0,0.0,3.5550149833616356e-05,-0.0001783675278062253,0.0003438908669641224,0.0,0.0,0.0,0.0,0.0,0.0,0.0,0.0,0.0,-1.6686686477992503e-08,4.643450309008484e-08,1.2294941064908361e-09,0.0,0.0,0.0,0.0,0.0,0.0,0.0,0.0,0.0
0.9480000000000001,15,0,949000000,base_footprint,-7.572853062535326e-06,0.003860592705559069,3.467924004850055e-05,0.9999925472542103,0.0,0.0,0.0,0.0,0.0,0.0,0.0,0.0,0.0,3.5576436105911684e-05,-0.00017836615761540037,0.0003439104106222138,0.0,0.0,0.0,0.0,0.0,0.0,0.0,0.0,0.0,-1.4674826391590824e-08,3.2949762151738333e-08,2.7477210867586756e-09,0.0,0.0,0.0,0.0,0.0,0.0,0.0,0.0,0.0
0.9830000000000001,16,0,983000000,base_footprint,-7.597017473784087e-06,0.0038605929884691133,4.02032474085722e-05,0.9999925470461076,0.0,0.0,0.0,0.0,0.0,0.0,0.0,0.0,0.0,3.560084190457107e-05,-0.00017836510578149027,0.00034392816199893214,0.0,0.0,0.0,0.0,0.0,0.0,0.0,0.0,0.0,-1.4143269604887917e-08,2.9358150163641172e-08,2.805841514304572e-09,0.0,0.0,0.0,0.0,0.0,0.0,0.0,0.0,0.0
1.017,17,1,17000000,base_footprint,-7.620903980514168e-06,0.003860593274584793,4.572750096250174e-05,0.9999925468074677,0.0,0.0,0.0,0.0,0.0,0.0,0.0,0.0,0.0,3.562361273377982e-05,-0.00017836414698101628,0.000343945449735806,0.0,0.0,0.0,0.0,0.0,0.0,0.0,0.0,0.0,-1.4003668160879937e-08,2.8387556497796148e-08,2.509386109954088e-09,0.0,0.0,0.0,0.0,0.0,0.0,0.0,0.0,0.0
1.051,18,1,51000000,base_footprint,-7.644538720250621e-06,0.003860593562953344,5.125199623496965e-05,0.9999925465382908,0.0,0.0,0.0,0.0,0.0,0.0,0.0,0.0,0.0,3.5644918980270434e-05,-0.0001783632208723037,0.0003439626246026364,0.0,0.0,0.0,0.0,0.0,0.0,0.0,0.0,0.0,-1.396786203155064e-08,2.811268131747387e-08,2.1478805566467325e-09,0.0,0.0,0.0,0.0,0.0,0.0,0.0,0.0,0.0
1.085,19,1,85000000,base_footprint,-7.667945228744794e-06,0.003860593853186009,5.6776732006365245e-05,0.9999925462385738,0.0,0.0,0.0,0.0,0.0,0.0,0.0,0.0,0.0,3.566490191502565e-05,-0.00017836231070753118,0.00034397977864216676,0.0,0.0,0.0,0.0,0.0,0.0,0.0,0.0,0.0,-1.3959572625873915e-08,2.8023802559026326e-08,1.795656434157701e-09,0.0,0.0,0.0,0.0,0.0,0.0,0.0,0.0,0.0
1.119,20,1,119000000,base_footprint,-7.691144809586294e-06,0.0038605941450562124,6.230170792323974e-05,0.9999925459083137,0.0,0.0,0.0,0.0,0.0,0.0,0.0,0.0,0.0,3.568368568750293e-05,-0.00017836141121193842,0.00034399693539874257,0.0,0.0,0.0,0.0,0.0,0.0,0.0,0.0,0.0,-1.3958584112404557e-08,2.7985631744285797e-08,1.469390225471651e-09,0.0,0.0,0.0,0.0,0.0,0.0,0.0,0.0,0.0
1.152,21,1,153000000,base_footprint,-7.714156775243645e-06,0.0038605944383916266,6.782692386486875e-05,0.9999925455475069,0.0,0.0,0.0,0.0,0.0,0.0,0.0,0.0,0.0,3.570138202960229e-05,-0.00017836052064329895,0.00034401410044116885,0.0,0.0,0.0,0.0,0.0,0.0,0.0,0.0,0.0,-1.3959548649955759e-08,2.7962386606805754e-08,1.1719712670810855e-09,0.0,0.0,0.0,0.0,0.0,0.0,0.0,0.0,0.0
1.187,22,1,187000000,base_footprint,-7.736998640822612e-06,0.003860594733044597,7.335237977595141e-05,0.99999254515615,0.0,0.0,0.0,0.0,0.0,0.0,0.0,0.0,0.0,3.571809222362641e-05,-0.00017835963784005327,0.0003440312745982181,0.0,0.0,0.0,0.0,0.0,0.0,0.0,0.0,0.0,-1.3961052669590943e-08,2.7944376947715637e-08,9.015094859439052e-10,0.0,0.0,0.0,0.0,0.0,0.0,0.0,0.0,0.0
1.221,23,1,221000000,base_footprint,-7.75968629369231e-06,0.0038605950288834578,7.887807562123486e-05,0.9999925447342393,0.0,0.0,0.0,0.0,0.0,0.0,0.0,0.0,0.0,3.573390777594555e-05,-0.0001783587620427246,0.0003440484575219416,0.0,0.0,0.0,0.0,0.0,0.0,0.0,0.0,0.0,-1.3962715224235437e-08,2.7928939309902285e-08,6.561278082293396e-10,0.0,0.0,0.0,0.0,0.0,0.0,0.0,0.0,0.0
1.255,24,1,255000000,base_footprint,-7.782234145056101e-06,0.0038605953257894563,8.440401137407933e-05,0.9999925442817712,0.0,0.0,0.0,0.0,0.0,0.0,0.0,0.0,0.0,3.574891186977854e-05,-0.00017835789248899623,0.0003440656485632658,0.0,0.0,0.0,0.0,0.0,0.0,0.0,0.0,0.0,-1.3964429135421242e-08,2.7915187458365383e-08,4.333605119803664e-10,0.0,0.0,0.0,0.0,0.0,0.0,0.0,0.0,0.0
1.2890000000000001,25,1,289000000,base_footprint,-7.804655267410641e-06,0.003860595623654736,8.993018701220024e-05,0.9999925437987423,0.0,0.0,0.0,0.0,0.0,0.0,0.0,0.0,0.0,3.576318005022806e-05,-0.00017835702867531703,0.0003440828471560478,0.0,0.0,0.0,0.0,0.0,0.0,0.0,0.0,0.0,-1.3966187706939586e-08,2.790301223460832e-08,2.3152893085683686e-10,0.0,0.0,0.0,0.0,0.0,0.0,0.0,0.0,0.0
1.323,26,1,323000000,base_footprint,-7.826961518877143e-06,0.0038605959223814933,9.545660251712044e-05,0.9999925432851486,0.0,0.0,0.0,0.0,0.0,0.0,0.0,0.0,0.0,3.5776780542104635e-05,-0.00017835617002107132,0.00034410005267534067,0.0,0.0,0.0,0.0,0.0,0.0,0.0,0.0,0.0,-1.3967962124909541e-08,2.789203628098383e-08,4.804703570769335e-11,0.0,0.0,0.0,0.0,0.0,0.0,0.0,0.0,0.0
1.357,27,1,357000000,base_footprint,-7.849163655978496e-06,0.0038605962218812165,0.00010098325787329079,0.9999925427409867,0.0,0.0,0.0,0.0,0.0,0.0,0.0,0.0,0.0,3.5789775440290205e-05,-0.0001783553161141578,0.0003441172645152848,0.0,0.0,0.0,0.0,0.0,0.0,0.0,0.0,0.0,-1.3969731081857728e-08,2.7882081072990365e-08,-1.180718789426527e-10,0.0,0.0,0.0,0.0,0.0,0.0,0.0,0.0,0.0
1.391,28,1,391000000,base_footprint,-7.871271436045669e-06,0.0038605965220732653,0.00010651015306770434,0.9999925421662526,0.0,0.0,0.0,0.0,0.0,0.0,0.0,0.0,0.0,3.580222106554013e-05,-0.00017835446634778112,0.00034413448224359327,0.0,0.0,0.0,0.0,0.0,0.0,0.0,0.0,0.0,-1.3971541646954359e-08,2.7873280397522135e-08,-2.6916400373177034e-10,0.0,0.0,0.0,0.0,0.0,0.0,0.0,0.0,0.0
1.425,29,1,425000000,base_footprint,-7.893293710044491e-06,0.0038605968228843865,0.00011203728809011769,0.9999925415609424,0.0,0.0,0.0,0.0,0.0,0.0,0.0,0.0,0.0,3.581416842294401e-05,-0.0001783536204767886,0.0003441517053996733,0.0,0.0,0.0,0.0,0.0,0.0,0.0,0.0,0.0,-1.3973354571640908e-08,2.786538999951003e-08,-4.0584058405314774e-10,0.0,0.0,0.0,0.0,0.0,0.0,0.0,0.0,0.0
1.459,30,1,459000000,base_footprint,-7.91523850666967e-06,0.003860597124248448,0.00011756466293246209,0.9999925409250527,0.0,0.0,0.0,0.0,0.0,0.0,0.0,0.0,0.0,3.5825663843083446e-05,-0.00017835277804285175,0.0003441689335564826,0.0,0.0,0.0,0.0,0.0,0.0,0.0,0.0,0.0,-1.3975178591754138e-08,2.7858310679650244e-08,-5.300626825446707e-10,0.0,0.0,0.0,0.0,0.0,0.0,0.0,0.0,0.0
1.493,31,1,493000000,base_footprint,-7.937113108986726e-06,0.0038605974261050817,0.0001230922775884951,0.9999925402585798,0.0,0.0,0.0,0.0,0.0,0.0,0.0,0.0,0.0,3.5836749322558416e-05,-0.00017835193876807588,0.00034418616635149114,0.0,0.0,0.0,0.0,0.0,0.0,0.0,0.0,0.0,-1.3977014237785658e-08,2.785201352935793e-08,-6.427679565802293e-10,0.0,0.0,0.0,0.0,0.0,0.0,0.0,0.0,0.0
1.5270000000000001,32,1,527000000,base_footprint,-7.792329806885438e-06,0.0038534965249347308,0.00013096254763480752,0.9999925666486842,0.0,0.0,0.0,0.0,0.0,0.0,0.0,0.0,0.0,-2.7724901747078173e-05,-0.00416094476476322,0.00029415508830736906,0.0,0.0,0.0,0.0,0.0,0.0,0.0,0.0,0.0,0.7871574607496461,0.00010300821891628708,-0.003240226309208603,0.0,0.0,0.0,0.0,0.0,0.0,0.0,0.0,0.0
1.561,33,1,561000000,base_footprint,-7.889961454858343e-06,0.003853017157683622,0.00013891867309797265,0.999992567421445,0.0,0.0,0.0,0.0,0.0,0.0,0.0,0.0,0.0,8.777660178316515e-06,-0.002141111022474755,0.0003442211962300915,0.0,0.0,0.0,0.0,0.0,0.0,0.0,0.0,0.0,0.783434937039594,0.0003165187245667307,-0.0060553050430291735,0.0,0.0,0.0,0.0,0.0,0.0,0.0,0.0,0.0
1.5950000000000002,34,1,595000000,base_footprint,-8.00626139659853e-06,0.0038537263218897393,0.00014853857024630252,0.9999925633051623,0.0,0.0,0.0,0.0,0.0,0.0,0.0,0.0,0.0,6.3368634597388964e-06,-0.0021866295594315695,0.00044531279128085785,0.0,0.0,0.0,0.0,0.0,0.0,0.0,0.0,0.0,0.7846472113769404,0.00042912019759030866,-0.0059822655637883585,0.0,0.0,0.0,0.0,0.0,0.0,0.0,0.0,0.0
1.629,35,1,629000000,base_footprint,-8.131275310893146e-06,0.003854819196614079,0.00015949650720658534,0.9999925574041579,0.0,0.0,0.0,0.0,0.0,0.0,0.0,0.0,0.0,8.14482404829821e-05,-0.0003347124289278572,0.00043992963526095726,0.0,0.0,0.0,0.0,0.0,0.0,0.0,0.0,0.0,0.7682898773716459,0.00023798634042530717,-0.007800403951751546,0.0,0.0,0.0,0.0,0.0,0.0,0.0,0.0,0.0
1.663,36,1,663000000,base_footprint,-8.263521933938625e-06,0.0038570217239597324,0.0001714314935982433,0.9999925469354151,0.0,0.0,0.0,0.0,0.0,0.0,0.0,0.0,0.0,0.00012001584433965137,0.0010276034518554443,0.0004346659371543335,0.0,0.0,0.0,0.0,0.0,0.0,0.0,0.0,0.0,0.7326197354355862,0.00024262632602287264,-0.007721880488900904,0.0,0.0,0.0,0.0,0.0,0.0,0.0,0.0,0.0
1.697,37,1,697000000,base_footprint,-8.461402689664267e-06,0.003860317901428909,0.00018368823620090708,0.999992532038483,0.0,0.0,0.0,0.0,0.0,0.0,0.0,0.0,0.0,7.53751924741074e-05,0.0005075225562283948,0.0005981677923748433,0.0,0.0,0.0,0.0,0.0,0.0,0.0,0.0,0.0,0.6630037346934474,0.0005586358600594309,-0.004694326818228249,0.0,0.0,0.0,0.0,0.0,0.0,0.0,0.0,0.0
1.731,38,1,731000000,base_footprint,-8.802889521636855e-06,0.003864288363577195,0.0001967936781767654,0.9999925142070818,0.0,0.0,0.0,0.0,0.0,0.0,0.0,0.0,0.0,2.9881494053130835e-05,-6.869515288734415e-05,0.0008579983797618416,0.0,0.0,0.0,0.0,0.0,0.0,0.0,0.0,0.0,0.5432187788511116,0.000715595072270253,-0.0037202776228636584,0.0,0.0,0.0,0.0,0.0,0.0,0.0,0.0,0.0
1.7650000000000001,39,1,765000000,base_footprint,-9.179228155096208e-06,0.003866870601783058,0.0002115150185729745,0.999992501216328,0.0,0.0,0.0,0.0,0.0,0.0,0.0,0.0,0.0,2.3120623152877544e-05,-5.6129890270705366e-05,0.0008132376528851196,0.0,0.0,0.0,0.0,0.0,0.0,0.0,0.0,0.0,0.37851960593938383,7.24953521859747e-05,-0.002924640373431939,0.0,0.0,0.0,0.0,0.0,0.0,0.0,0.0,0.0
1.799,40,1,799000000,base_footprint,-9.655509666081242e-06,0.003866356480402039,0.000198849634252464,0.9999925057984987,0.0,0.0,0.0,0.0,0.0,0.0,0.0,0.0,0.0,-3.549945404852471e-05,-0.00035627305748765504,-0.0022576962353677227,0.0,0.0,0.0,0.0,0.0,0.0,0.0,0.0,0.0,0.18376003783615746,-0.005884888434459014,-0.0008457128939697041,0.0,0.0,0.0,0.0,0.0,0.0,0.0,0.0,0.0
1.8330000000000002,41,1,833000000,base_footprint,-3.2553694656998494e-06,0.003853285637448842,0.00013982087695331186,0.9999925662870305,0.0,0.0,0.0,0.0,0.0,0.0,0.0,0.0,0.0,-0.0008665533101107861,-0.0018830054424101008,-0.0034777198375776255,0.0,0.0,0.0,0.0,0.0,0.0,0.0,0.0,0.0,-0.002808648634107447,-0.0024077821555402944,0.0008471000557359881,0.0,0.0,0.0,0.0,0.0,0.0,0.0,0.0,0.0
1.867,42,1,867000000,base_footprint,-6.80139015819496e-06,0.003850943912922796,0.00019110472961619815,0.9999925668042253,0.0,0.0,0.0,0.0,0.0,0.0,0.0,0.0,0.0,0.00010198101494446207,0.000497098897865811,0.004912349104585673,0.0,0.0,0.0,0.0,0.0,0.0,0.0,0.0,0.0,0.09839713855976932,0.016363272644387212,-0.00321858113419792,0.0,0.0,0.0,0.0,0.0,0.0,0.0,0.0,0.0
1.901,43,1,901000000,base_footprint,-1.0470700432610843e-06,0.0038597839518702787,0.00019424151241812573,0.9999925321406073,0.0,0.0,0.0,0.0,0.0,0.0,0.0,0.0,0.0,0.0010534385784641733,0.0003870379473869282,-0.015505340144086076,0.0,0.0,0.0,0.0,0.0,0.0,0.0,0.0,0.0,0.24445693405064822,-0.009307849582126127,-0.001938556325406665,0.0,0.0,0.0,0.0,0.0,0.0,0.0,0.0,0.0
1.935,44,1,935000000,base_footprint,-3.542879059255686e-06,0.003871163557046707,-0.0007582712751644166,0.99999221952215,0.0,0.0,0.0,0.0,0.0,0.0,0.0,0.0,0.0,-0.0008030685364420266,-0.0004419474881808878,-0.07632526635785582,0.0,0.0,0.0,0.0,0.0,0.0,0.0,0.0,0.0,0.16960215555607377,-0.005622814779831783,-9.231702251591248e-05,0.0,0.0,0.0,0.0,0.0,0.0,0.0,0.0,0.0
1.969,45,1,969000000,base_footprint,7.680990646489461e-07,0.0038666309196703874,-0.002058002007573142,0.9999904068502248,0.0,0.0,0.0,0.0,0.0,0.0,0.0,0.0,0.0,-0.0005223990081701312,-0.0004970224813079527,-0.07664350083203611,0.0,0.0,0.0,0.0,0.0,0.0,0.0,0.0,0.0,0.0026599804927207524,-0.018511246627889246,0.0005856608266657379,0.0,0.0,0.0,0.0,0.0,0.0,0.0,0.0,0.0
2.003,46,2,3000000,base_footprint,6.1162342084519035e-06,0.0038533977857150158,-0.0033506677000387473,0.9999869620720365,0.0,0.0,0.0,0.0,0.0,0.0,0.0,0.0,0.0,-0.0004528094160993794,0.001161152516798043,-0.07125558104688072,0.0,0.0,0.0,0.0,0.0,0.0,0.0,0.0,0.0,0.20239812020910533,-0.02098502642103468,-0.0031724697452522902,0.0,0.0,0.0,0.0,0.0,0.0,0.0,0.0,0.0
2.037,47,2,37000000,base_footprint,1.0727550961478839e-05,0.0038607938743139246,-0.004561046032896751,0.9999821453479385,0.0,0.0,0.0,0.0,0.0,0.0,0.0,0.0,0.0,-0.0005038435890378191,-0.0004171342542086072,-0.07135788898786806,0.0,0.0,0.0,0.0,0.0,0.0,0.0,0.0,0.0,0.14660680116176264,-0.016068937496324643,0.00022502064771201546,0.0,0.0,0.0,0.0,0.0,0.0,0.0,0.0,0.0
2.071,48,2,71000000,base_footprint,1.5144814269245973e-05,0.003861067318049652,-0.005779194048063914,0.9999758461312729,0.0,0.0,0.0,0.0,0.0,0.0,0.0,0.0,0.0,-0.0005362266856796287,-0.000155373341196504,-0.07196266968479015,0.0,0.0,0.0,0.0,0.0,0.0,0.0,0.0,0.0,0.00640205558722342,-0.015518708459395188,-0.0004105364223506435,0.0,0.0,0.0,0.0,0.0,0.0,0.0,0.0,0.0
2.105,49,2,105000000,base_footprint,2.1251964915987928e-05,0.0038608522722842547,-0.007371396834630888,0.9999653773390317,0.0,0.0,0.0,0.0,0.0,0.0,0.0,0.0,0.0,-0.001615729518458436,0.0008923176547130527,-0.14816419019214594,0.0,0.0,0.0,0.0,0.0,0.0,0.0,0.0,0.0,0.025708911252395755,-0.01894541380884837,-0.001816758488539433,0.0,0.0,0.0,0.0,0.0,0.0,0.0,0.0,0.0
2.1390000000000002,50,2,139000000,base_footprint,2.907647837213212e-05,0.0038661700914681347,-0.009877364934844715,0.9999437431902488,0.0,0.0,0.0,0.0,0.0,0.0,0.0,0.0,0.0,-0.00118665443678274,6.655822097957966e-05,-0.1474462985289202,0.0,0.0,0.0,0.0,0.0,0.0,0.0,0.0,0.0,0.003367665022215962,-0.03472449232994098,0.0011216548836035717,0.0,0.0,0.0,0.0,0.0,0.0,0.0,0.0,0.0
2.173,51,2,173000000,base_footprint,3.751087414258381e-05,0.0038709342715185697,-0.012277277855954734,0.9999171380215701,0.0,0.0,0.0,0.0,0.0,0.0,0.0,0.0,0.0,-0.0009601622253635048,-8.899676443303034e-05,-0.13081929802581233,0.0,0.0,0.0,0.0,0.0,0.0,0.0,0.0,0.0,-0.0020947382756900724,-0.03231102079505168,0.0001377461530230588,0.0,0.0,0.0,0.0,0.0,0.0,0.0,0.0,0.0
2.207,52,2,207000000,base_footprint,4.646579881604826e-05,0.0038743852030687135,-0.014497210164389141,0.9998874025997514,0.0,0.0,0.0,0.0,0.0,0.0,0.0,0.0,0.0,-0.0009990353111176105,5.457676546015026e-05,-0.12980402976928163,0.0,0.0,0.0,0.0,0.0,0.0,0.0,0.0,0.0,-0.001300776549295048,-0.02924266801237628,-0.0003241585857403315,0.0,0.0,0.0,0.0,0.0,0.0,0.0,0.0,0.0
2.241,53,2,241000000,base_footprint,5.572735854416062e-05,0.0038758187089147633,-0.016684129649692958,0.9998532966098723,0.0,0.0,0.0,0.0,0.0,0.0,0.0,0.0,0.0,-0.0009009378898560246,-0.00010216043045062009,-0.12743685836521995,0.0,0.0,0.0,0.0,0.0,0.0,0.0,0.0,0.0,-0.007953625779744853,-0.029598787805167434,0.0003761633113595444,0.0,0.0,0.0,0.0,0.0,0.0,0.0,0.0,0.0
2.275,54,2,275000000,base_footprint,6.71655765373268e-05,0.003873006089121902,-0.018811185447485907,0.9998155502964932,0.0,0.0,0.0,0.0,0.0,0.0,0.0,0.0,0.0,-0.0005467279369951447,-0.0004948822392100376,-0.12342834400703553,0.0,0.0,0.0,0.0,0.0,0.0,0.0,0.0,0.0,-0.023422269030362507,-0.02166096387740349,0.0009715072722819887,0.0,0.0,0.0,0.0,0.0,0.0,0.0,0.0,0.0
2.309,55,2,309000000,base_footprint,6.813092889753257e-05,0.0038677085558751654,-0.020812862043299685,0.9997759053719338,0.0,0.0,0.0,0.0,0.0,0.0,0.0,0.0,0.0,-0.0013466283475680836,-0.0003582168024353458,-0.10340480596781144,0.0,0.0,0.0,0.0,0.0,0.0,0.0,0.0,0.0,-0.06415839701597195,-0.012136111546574844,0.0004408731537301142,0.0,0.0,0.0,0.0,0.0,0.0,0.0,0.0,0.0
2.343,56,2,343000000,base_footprint,7.168274146711277e-05,0.003873095022297421,-0.022804069310088788,0.9997324484177921,0.0,0.0,0.0,0.0,0.0,0.0,0.0,0.0,0.0,-0.0017020459687478984,-0.0011892669814898265,-0.12869355999442678,0.0,0.0,0.0,0.0,0.0,0.0,0.0,0.0,0.0,-0.04540170500622014,-0.03173470624938131,0.001858836185217854,0.0,0.0,0.0,0.0,0.0,0.0,0.0,0.0,0.0
2.377,57,2,377000000,base_footprint,7.944914706683269e-05,0.0038647362107773666,-0.024863853548844034,0.999683373017955,0.0,0.0,0.0,0.0,0.0,0.0,0.0,0.0,0.0,0.00010364043799398778,0.00011597259575773199,-0.1079109266652212,0.0,0.0,0.0,0.0,0.0,0.0,0.0,0.0,0.0,0.03934686224767987,-0.029831467676267497,-0.003626268994043486,0.0,0.0,0.0,0.0,0.0,0.0,0.0,0.0,0.0
2.411,58,2,411000000,base_footprint,9.333185971600226e-05,0.0038689092729389868,-0.026634782077316465,0.9996377399907908,0.0,0.0,0.0,0.0,0.0,0.0,0.0,0.0,0.0,-0.0005922173436933195,0.0001946790730705258,-0.1111205906873809,0.0,0.0,0.0,0.0,0.0,0.0,0.0,0.0,0.0,0.04733539146942577,-0.028076898380926463,0.000515598914925436,0.0,0.0,0.0,0.0,0.0,0.0,0.0,0.0,0.0
2.445,59,2,445000000,base_footprint,0.00010081339107101221,0.0038657090260253895,-0.0285204619314283,0.9995857288805219,0.0,0.0,0.0,0.0,0.0,0.0,0.0,0.0,0.0,-0.0008721074327788102,-0.00020227924317475004,-0.11114642746508123,0.0,0.0,0.0,0.0,0.0,0.0,0.0,0.0,0.0,0.002946159888878766,-0.0250211556454797,0.00042873647644727723,0.0,0.0,0.0,0.0,0.0,0.0,0.0,0.0,0.0
2.479,60,2,479000000,base_footprint,0.00010774594782994634,0.0038633417352333973,-0.03041129522469015,0.9995299976009747,0.0,0.0,0.0,0.0,0.0,0.0,0.0,0.0,0.0,-0.0009890127236572782,-0.00020385284824685535,-0.11144072820831794,0.0,0.0,0.0,0.0,0.0,0.0,0.0,0.0,0.0,0.002328739435172863,-0.025437593553493478,7.485934366297646e-05,0.0,0.0,0.0,0.0,0.0,0.0,0.0,0.0,0.0
2.513,61,2,513000000,base_footprint,0.00011366390924001193,0.003861088322491078,-0.03220257548889376,0.9994738982131369,0.0,0.0,0.0,0.0,0.0,0.0,0.0,0.0,0.0,-0.00023729553346342602,0.0013082701565401576,-0.0884503551894599,0.0,0.0,0.0,0.0,0.0,0.0,0.0,0.0,0.0,-0.3454095092399577,0.02203726734761615,0.0006744339059377573,0.0,0.0,0.0,0.0,0.0,0.0,0.0,0.0,0.0
2.547,62,2,547000000,base_footprint,0.000118978299515152,0.0038617975441947085,-0.03370795808818595,0.9994242572228358,0.0,0.0,0.0,0.0,0.0,0.0,0.0,0.0,0.0,-0.000805918410712962,-6.578891532911639e-05,-0.0888155889734253,0.0,0.0,0.0,0.0,0.0,0.0,0.0,0.0,0.0,0.0066589617022748465,-0.0207788409777615,0.0016628580186716878,0.0,0.0,0.0,0.0,0.0,0.0,0.0,0.0,0.0
2.58,63,2,581000000,base_footprint,0.00012404071509503441,0.00386304933826109,-0.03521861239344735,0.9993721583098018,0.0,0.0,0.0,0.0,0.0,0.0,0.0,0.0,0.0,-0.0008198769825233686,1.637689045331027e-05,-0.08904469723572891,0.0,0.0,0.0,0.0,0.0,0.0,0.0,0.0,0.0,0.0024339598722300402,-0.019266009330987256,-0.00020032320170701294,0.0,0.0,0.0,0.0,0.0,0.0,0.0,0.0,0.0
2.615,64,2,615000000,base_footprint,0.0001268769807028496,0.0038656060036126125,-0.03623196110550714,0.9993359224939858,0.0,0.0,0.0,0.0,0.0,0.0,0.0,0.0,0.0,-0.000402622011491862,0.00018136497910760285,-0.04031461202010331,0.0,0.0,0.0,0.0,0.0,0.0,0.0,0.0,0.0,-0.010064531533675161,-0.011685977423332612,-0.0001755839867949405,0.0,0.0,0.0,0.0,0.0,0.0,0.0,0.0,0.0
2.649,65,2,649000000,base_footprint,0.0001283717897166089,0.0038698665036241025,-0.036916026002528066,0.9993108698888992,0.0,0.0,0.0,0.0,0.0,0.0,0.0,0.0,0.0,-0.0004363206068159556,0.00016763319470024113,-0.04009377804794265,0.0,0.0,0.0,0.0,0.0,0.0,0.0,0.0,0.0,0.002513167170808492,-0.009322679988238386,-0.0001476236077799672,0.0,0.0,0.0,0.0,0.0,0.0,0.0,0.0,0.0
2.683,66,2,683000000,base_footprint,0.00013133777824483523,0.0038735152077092874,-0.03758447832135894,0.9992859378674529,0.0,0.0,0.0,0.0,0.0,0.0,0.0,0.0,0.0,-0.0002736830382497336,8.381993423135798e-05,-0.03839958838452271,0.0,0.0,0.0,0.0,0.0,0.0,0.0,0.0,0.0,-0.0017600009440095687,-0.008479467177957374,4.849923280484436e-05,0.0,0.0,0.0,0.0,0.0,0.0,0.0,0.0,0.0
2.717,67,2,717000000,base_footprint,0.00013909094406892365,0.003866755980543353,-0.038307865918630425,0.9992584932141715,0.0,0.0,0.0,0.0,0.0,0.0,0.0,0.0,0.0,-0.0004062866864061675,0.00010793594582124884,-0.06097834256171263,0.0,0.0,0.0,0.0,0.0,0.0,0.0,0.0,0.0,0.13892292091481778,-0.031165372493971673,-0.0008877948129477524,0.0,0.0,0.0,0.0,0.0,0.0,0.0,0.0,0.0
2.751,68,2,751000000,base_footprint,0.00015176176742556964,0.003866392900092372,-0.03954923077466708,0.9992101312133701,0.0,0.0,0.0,0.0,0.0,0.0,0.0,0.0,0.0,-8.114352551667397e-05,0.00033183315592823047,-0.07531380787631224,0.0,0.0,0.0,0.0,0.0,0.0,0.0,0.0,0.0,0.029592577862593047,-0.0137764064544627,-0.0009280939248502292,0.0,0.0,0.0,0.0,0.0,0.0,0.0,0.0,0.0
2.785,69,2,785000000,base_footprint,0.00015801596467618335,0.0038613253974648155,-0.04102983743181648,0.9991504479493809,0.0,0.0,0.0,0.0,0.0,0.0,0.0,0.0,0.0,-0.002105975743828186,-5.6002786473385844e-05,-0.10721323419630431,0.0,0.0,0.0,0.0,0.0,0.0,0.0,0.0,0.0,0.06301214485988536,-0.025465142632966474,-0.0005011345493337499,0.0,0.0,0.0,0.0,0.0,0.0,0.0,0.0,0.0
2.819,70,2,819000000,base_footprint,0.0001507300937395752,0.0038686136153228347,-0.04319451591654041,0.9990591798806866,0.0,0.0,0.0,0.0,0.0,0.0,0.0,0.0,0.0,-0.0011613923600878975,-0.0004025952557097372,-0.14037001765901408,0.0,0.0,0.0,0.0,0.0,0.0,0.0,0.0,0.0,0.018048331044760356,-0.03683102797898789,0.0015254905713441907,0.0,0.0,0.0,0.0,0.0,0.0,0.0,0.0,0.0
2.853,71,2,853000000,base_footprint,0.00016141986610529363,0.0038623237040195805,-0.045774059808047,0.998944338713585,0.0,0.0,0.0,0.0,0.0,0.0,0.0,0.0,0.0,-0.0019200748261646767,-0.0005696133415434991,-0.15280605363230695,0.0,0.0,0.0,0.0,0.0,0.0,0.0,0.0,0.0,-0.030822877268588515,-0.028708356549813525,0.0015476627229230274,0.0,0.0,0.0,0.0,0.0,0.0,0.0,0.0,0.0
2.887,72,2,887000000,base_footprint,0.00017342836524630664,0.003860299130417587,-0.048156254028562176,0.9988323398905157,0.0,0.0,0.0,0.0,0.0,0.0,0.0,0.0,0.0,0.00015131506641585332,0.0005851530882301079,-0.12259857441508548,0.0,0.0,0.0,0.0,0.0,0.0,0.0,0.0,0.0,0.06042637214807497,-0.045393647965821314,-0.00430786386979781,0.0,0.0,0.0,0.0,0.0,0.0,0.0,0.0,0.0
2.9210000000000003,73,2,921000000,base_footprint,0.00018674323539301035,0.003863358184952823,-0.050264548926397666,0.9987284489348066,0.0,0.0,0.0,0.0,0.0,0.0,0.0,0.0,0.0,-0.0009580786764270306,-0.00028049221934864236,-0.12587845221717237,0.0,0.0,0.0,0.0,0.0,0.0,0.0,0.0,0.0,0.02200604463626676,-0.03137236916424602,0.00208562668491941,0.0,0.0,0.0,0.0,0.0,0.0,0.0,0.0,0.0
2.955,74,2,955000000,base_footprint,0.0001939799065521903,0.0038612455218988507,-0.052406538838184885,0.9986183494417762,0.0,0.0,0.0,0.0,0.0,0.0,0.0,0.0,0.0,-0.0010730232908448564,-8.473496050706144e-05,-0.12641524336851234,0.0,0.0,0.0,0.0,0.0,0.0,0.0,0.0,0.0,-0.0006379929979253426,-0.028294479155481257,-0.0003355179556004783,0.0,0.0,0.0,0.0,0.0,0.0,0.0,0.0,0.0
2.989,75,2,989000000,base_footprint,0.00020091955814137874,0.0038593596325945862,-0.05455483319842342,0.9985032975154612,0.0,0.0,0.0,0.0,0.0,0.0,0.0,0.0,0.0,-0.0011200634823232748,-7.750935474180321e-05,-0.12675265538770364,0.0,0.0,0.0,0.0,0.0,0.0,0.0,0.0,0.0,-0.0007606271262351506,-0.028844831115006832,-3.3495253892882406e-06,0.0,0.0,0.0,0.0,0.0,0.0,0.0,0.0,0.0
3.023,76,3,23000000,base_footprint,0.00020372723703001775,0.0038585300916865115,-0.05559155473424336,0.9984461173658667,0.0,0.0,0.0,0.0,0.0,0.0,0.0,0.0,0.0,-0.0004435085582249997,-0.00015389383964183647,-0.04550811483136093,0.0,0.0,0.0,0.0,0.0,0.0,0.0,0.0,0.0,-0.018454457099463726,-0.010335462654199122,0.0001517342125712998,0.0,0.0,0.0,0.0,0.0,0.0,0.0,0.0,0.0
3.057,77,3,57000000,base_footprint,0.00020508310974142168,0.003860285903620418,-0.056364312497808294,0.9984027846567285,0.0,0.0,0.0,0.0,0.0,0.0,0.0,0.0,0.0,-0.0005199865795356131,3.799747729873844e-05,-0.04562353250270655,0.0,0.0,0.0,0.0,0.0,0.0,0.0,0.0,0.0,0.0024916915176727825,-0.01138376942888135,-0.00044552217308684033,0.0,0.0,0.0,0.0,0.0,0.0,0.0,0.0,0.0
3.091,78,3,91000000,base_footprint,0.0002065622770165663,0.0038631294852177,-0.05713743801792862,0.9983588266446858,0.0,0.0,0.0,0.0,0.0,0.0,0.0,0.0,0.0,-0.0005275892093833492,0.00013083564351559288,-0.04549524610904635,0.0,0.0,0.0,0.0,0.0,0.0,0.0,0.0,0.0,0.0020975176722523876,-0.011033386481456171,-0.00022486411014096993,0.0,0.0,0.0,0.0,0.0,0.0,0.0,0.0,0.0
3.125,79,3,125000000,base_footprint,0.00020412140069698151,0.003864205775806994,-0.056467888120871355,0.9983969169921073,0.0,0.0,0.0,0.0,0.0,0.0,0.0,0.0,0.0,0.00029718283580269745,-0.0003582669741933125,0.05751484557582461,0.0,0.0,0.0,0.0,0.0,0.0,0.0,0.0,0.0,-0.019434842608082287,0.010605924472965413,0.0007066863410531704,0.0,0.0,0.0,0.0,0.0,0.0,0.0,0.0,0.0
3.159,80,3,159000000,base_footprint,0.00019947842303903875,0.003867138933652236,-0.05547911710826045,0.9984523388773822,0.0,0.0,0.0,0.0,0.0,0.0,0.0,0.0,0.0,0.00034215926535964856,1.6167239837500737e-05,0.05936812189276006,0.0,0.0,0.0,0.0,0.0,0.0,0.0,0.0,0.0,0.0034998347431018997,0.012116639517845543,-0.0006754012157647115,0.0,0.0,0.0,0.0,0.0,0.0,0.0,0.0,0.0
3.193,81,3,193000000,base_footprint,0.00020042381755344148,0.003869563501285657,-0.05446998768612827,0.9985078901791794,0.0,0.0,0.0,0.0,0.0,0.0,0.0,0.0,0.0,0.0009619570538871783,-0.0002644614144787955,0.058398159897832244,0.0,0.0,0.0,0.0,0.0,0.0,0.0,0.0,0.0,0.005857430768037529,0.017492347663685404,0.0004515971689731064,0.0,0.0,0.0,0.0,0.0,0.0,0.0,0.0,0.0
3.227,82,3,227000000,base_footprint,0.00020133503402201437,0.003868549727951175,-0.053224468403280316,0.9985750596476934,0.0,0.0,0.0,0.0,0.0,0.0,0.0,0.0,0.0,0.0008523097559833747,-0.0005186112270384835,0.08272190985895415,0.0,0.0,0.0,0.0,0.0,0.0,0.0,0.0,0.0,-0.012135420810967143,0.017661408929157657,0.0006747004703440231,0.0,0.0,0.0,0.0,0.0,0.0,0.0,0.0,0.0
3.261,83,3,261000000,base_footprint,0.00019322136373955463,0.0038726204223667737,-0.05170042779582097,0.9986551112582852,0.0,0.0,0.0,0.0,0.0,0.0,0.0,0.0,0.0,8.36580087612288e-05,-0.0002859698352004821,0.08239471835425645,0.0,0.0,0.0,0.0,0.0,0.0,0.0,0.0,0.0,-0.014085208392080288,0.021730003526439414,-7.1421165396589516e-06,0.0,0.0,0.0,0.0,0.0,0.0,0.0,0.0,0.0
3.295,84,3,295000000,base_footprint,0.0001802070981274855,0.003869326066521734,-0.050295395512772775,0.9987268740909131,0.0,0.0,0.0,0.0,0.0,0.0,0.0,0.0,0.0,-0.0010917295750621928,0.003422600932003327,0.08309600359450581,0.0,0.0,0.0,0.0,0.0,0.0,0.0,0.0,0.0,-0.04718912600850273,0.030161132938002013,-0.005016888932663695,0.0,0.0,0.0,0.0,0.0,0.0,0.0,0.0,0.0
3.329,85,3,329000000,base_footprint,0.0001756488314028324,0.0038660548639822784,-0.048417954872172424,0.9988196656120027,0.0,0.0,0.0,0.0,0.0,0.0,0.0,0.0,0.0,0.0008641349139563167,-0.0004358947547004789,0.0855919430019521,0.0,0.0,0.0,0.0,0.0,0.0,0.0,0.0,0.0,-0.22400567680320294,0.06809564954304159,0.007332030700450776,0.0,0.0,0.0,0.0,0.0,0.0,0.0,0.0,0.0
3.363,86,3,363000000,base_footprint,0.00017781012090043106,0.003866880585603225,-0.04743858298303281,0.9988666559970152,0.0,0.0,0.0,0.0,0.0,0.0,0.0,0.0,0.0,0.0006285726884728502,-8.496722218296925e-05,0.05766181165349559,0.0,0.0,0.0,0.0,0.0,0.0,0.0,0.0,0.0,-0.05218483987938999,0.019807170740119166,-4.104076151196943e-05,0.0,0.0,0.0,0.0,0.0,0.0,0.0,0.0,0.0
3.3970000000000002,87,3,397000000,base_footprint,0.00017288014097642485,0.003862696490207358,-0.04650164422652314,0.9989107301318327,0.0,0.0,0.0,0.0,0.0,0.0,0.0,0.0,0.0,0.00014754040503996206,-0.00015422546825531055,0.05038741498670968,0.0,0.0,0.0,0.0,0.0,0.0,0.0,0.0,0.0,0.0030135331136071624,0.01204062106614915,1.8720079492455326e-05,0.0,0.0,0.0,0.0,0.0,0.0,0.0,0.0,0.0
3.431,88,3,431000000,base_footprint,0.00016901122363289573,0.0038611795150655095,-0.045659159250891604,0.998949600282447,0.0,0.0,0.0,0.0,0.0,0.0,0.0,0.0,0.0,0.00037095131411713335,-0.00031873793490087463,0.04945775452064114,0.0,0.0,0.0,0.0,0.0,0.0,0.0,0.0,0.0,0.006964268605663756,0.009234602007656247,0.00024436833685183626,0.0,0.0,0.0,0.0,0.0,0.0,0.0,0.0,0.0
3.465,89,3,465000000,base_footprint,0.00016452690894665033,0.003859576939765086,-0.044820835198532014,0.998987572159358,0.0,0.0,0.0,0.0,0.0,0.0,0.0,0.0,0.0,0.0003212556415512745,-0.00027237656120911304,0.049199558799764065,0.0,0.0,0.0,0.0,0.0,0.0,0.0,0.0,0.0,0.007087052655125745,0.008975474489142835,-0.00010980212498705066,0.0,0.0,0.0,0.0,0.0,0.0,0.0,0.0,0.0
3.499,90,3,499000000,base_footprint,0.00015884527355041104,0.003851651044515446,-0.0440085780768121,0.9990237157385541,0.0,0.0,0.0,0.0,0.0,0.0,0.0,0.0,0.0,0.0007565487251661443,0.0005666853968279725,0.0358975913533342,0.0,0.0,0.0,0.0,0.0,0.0,0.0,0.0,0.0,0.13372253346308188,-0.01260220353443194,-0.0020241582421312017,0.0,0.0,0.0,0.0,0.0,0.0,0.0,0.0,0.0
3.533,91,3,533000000,base_footprint,0.00016237851346129285,0.003862420232601433,-0.04412322872033562,0.9990186164584013,0.0,0.0,0.0,0.0,0.0,0.0,0.0,0.0,0.0,-0.0008871387435225538,-0.0015779159818449823,-0.025003286352978153,0.0,0.0,0.0,0.0,0.0,0.0,0.0,0.0,0.0,0.40283319845209253,-0.07327361889570519,-0.0006196949447987577,0.0,0.0,0.0,0.0,0.0,0.0,0.0,0.0,0.0
3.567,92,3,567000000,base_footprint,0.00015521185747439708,0.0038647498027002164,-0.0435868330122208,0.999042155069648,0.0,0.0,0.0,0.0,0.0,0.0,0.0,0.0,0.0,0.00022922226693655935,-3.075548557388878e-05,0.043619761127757346,0.0,0.0,0.0,0.0,0.0,0.0,0.0,0.0,0.0,-0.18127263671074595,0.037742170924470596,-0.0006650478756264354,0.0,0.0,0.0,0.0,0.0,0.0,0.0,0.0,0.0
3.601,93,3,601000000,base_footprint,0.00015179312912429958,0.003867821740766632,-0.04282692434311327,0.9990750079274012,0.0,0.0,0.0,0.0,0.0,0.0,0.0,0.0,0.0,0.0006912785404436915,-5.5167714048652606e-05,0.04930328381291511,0.0,0.0,0.0,0.0,0.0,0.0,0.0,0.0,0.0,0.004935545484639355,0.007327503434659712,0.00014170968461215018,0.0,0.0,0.0,0.0,0.0,0.0,0.0,0.0,0.0
3.635,94,3,635000000,base_footprint,0.00014852379501672068,0.0038701054686726528,-0.041984164711412454,0.9991107697036544,0.0,0.0,0.0,0.0,0.0,0.0,0.0,0.0,0.0,0.00028284875369290045,3.5038562412141996e-05,0.05035768039229659,0.0,0.0,0.0,0.0,0.0,0.0,0.0,0.0,0.0,0.0033121626160699073,0.010067914530610247,-0.000555225227307664,0.0,0.0,0.0,0.0,0.0,0.0,0.0,0.0,0.0
3.669,95,3,669000000,base_footprint,0.0001456100557040683,0.0038731040632240584,-0.04111324873823918,0.9991469754950044,0.0,0.0,0.0,0.0,0.0,0.0,0.0,0.0,0.0,0.0008516097347933997,-0.00025788414590852533,0.05128143672847745,0.0,0.0,0.0,0.0,0.0,0.0,0.0,0.0,0.0,0.0022048657330472118,0.015650861057185578,0.000522673238314907,0.0,0.0,0.0,0.0,0.0,0.0,0.0,0.0,0.0
3.7030000000000003,96,3,703000000,base_footprint,0.00015052148660949248,0.003872976232046637,-0.040266101519078355,0.9991814742412127,0.0,0.0,0.0,0.0,0.0,0.0,0.0,0.0,0.0,0.0006102749624687081,-0.0002989668601466337,0.05076136642102031,0.0,0.0,0.0,0.0,0.0,0.0,0.0,0.0,0.0,-0.0054478277292199645,0.0073664641900745365,0.00019887141671091858,0.0,0.0,0.0,0.0,0.0,0.0,0.0,0.0,0.0
3.737,97,3,737000000,base_footprint,0.0001473578852616105,0.0038738273431841337,-0.03928174164338694,0.9992206545707666,0.0,0.0,0.0,0.0,0.0,0.0,0.0,0.0,0.0,7.908196219451477e-06,0.0002165342535983448,0.05584925056108962,0.0,0.0,0.0,0.0,0.0,0.0,0.0,0.0,0.0,-0.033360934786316125,0.018775159169155037,-0.000764682085245828,0.0,0.0,0.0,0.0,0.0,0.0,0.0,0.0,0.0
3.771,98,3,771000000,base_footprint,0.00013384425504815197,0.00386807960596936,-0.03847879637370823,0.9992519213269034,0.0,0.0,0.0,0.0,0.0,0.0,0.0,0.0,0.0,0.00023188206786443506,0.0003365177112817759,0.035835887437882845,0.0,0.0,0.0,0.0,0.0,0.0,0.0,0.0,0.0,-0.025489138815223942,0.019713828488598484,0.00015079425134836898,0.0,0.0,0.0,0.0,0.0,0.0,0.0,0.0,0.0
3.805,99,3,805000000,base_footprint,0.00013132567893651522,0.0038643883936332574,-0.038025560200408086,0.9992692860422332,0.0,0.0,0.0,0.0,0.0,0.0,0.0,0.0,0.0,0.00013377041130442822,-0.00033233840704369194,0.029127225227516727,0.0,0.0,0.0,0.0,0.0,0.0,0.0,0.0,0.0,-0.021117164861975454,0.009012456269624566,0.0013164660051607111,0.0,0.0,0.0,0.0,0.0,0.0,0.0,0.0,0.0
3.839,100,3,839000000,base_footprint,0.00013642254807854444,0.0038690956407549703,-0.03731287985681146,0.9992961325275918,0.0,0.0,0.0,0.0,0.0,0.0,0.0,0.0,0.0,0.0006018310561691755,-4.2016729771489446e-05,0.054963419265672366,0.0,0.0,0.0,0.0,0.0,0.0,0.0,0.0,0.0,0.060824266661686575,-0.004168580244191176,-0.0005443589111023051,0.0,0.0,0.0,0.0,0.0,0.0,0.0,0.0,0.0
3.873,101,3,873000000,base_footprint,0.00013164418645779,0.0038638087459725075,-0.03641931391225423,0.9993291185720266,0.0,0.0,0.0,0.0,0.0,0.0,0.0,0.0,0.0,0.0004839932584699858,-0.0002938704127994776,0.05228682318682681,0.0,0.0,0.0,0.0,0.0,0.0,0.0,0.0,0.0,0.0006894297797664342,0.013130612640836294,0.00020010955762099164,0.0,0.0,0.0,0.0,0.0,0.0,0.0,0.0,0.0
3.907,102,3,907000000,base_footprint,0.00012812775172898477,0.003862222721794244,-0.03554520705421348,0.9993605981198177,0.0,0.0,0.0,0.0,0.0,0.0,0.0,0.0,0.0,0.00040281132239003675,-0.00029631675685209236,0.05017099006423011,0.0,0.0,0.0,0.0,0.0,0.0,0.0,0.0,0.0,0.007118467824266544,0.01012413575119772,2.9413045418882062e-05,0.0,0.0,0.0,0.0,0.0,0.0,0.0,0.0,0.0
3.94,103,3,941000000,base_footprint,0.0001239403682094069,0.003860686250871922,-0.03469319838980007,0.999390545145362,0.0,0.0,0.0,0.0,0.0,0.0,0.0,0.0,0.0,0.0003524458318527046,-0.00026279752401721915,0.05003744003935591,0.0,0.0,0.0,0.0,0.0,0.0,0.0,0.0,0.0,0.007125997780653849,0.009874584654993055,-9.548123057517513e-05,0.0,0.0,0.0,0.0,0.0,0.0,0.0,0.0,0.0
3.974,104,3,975000000,base_footprint,0.0001232407877490775,0.0038593235275001378,-0.034681078114746675,0.9993909711691502,0.0,0.0,0.0,0.0,0.0,0.0,0.0,0.0,0.0,-0.0005739589583564351,0.0022879931951062934,-0.08631140377882775,0.0,0.0,0.0,0.0,0.0,0.0,0.0,0.0,0.0,0.048803848124303675,-0.0012281280439206536,-0.003735824121254615,0.0,0.0,0.0,0.0,0.0,0.0,0.0,0.0,0.0
4.009,105,4,9000000,base_footprint,0.0001293415103786203,0.003862507412775765,-0.035804219072193576,0.9993513507290067,0.0,0.0,0.0,0.0,0.0,0.0,0.0,0.0,0.0,0.00019383033360594268,0.00031048425367319565,-0.0011788863102460188,0.0,0.0,0.0,0.0,0.0,0.0,0.0,0.0,0.0,-0.2640507704399903,0.01823953259963664,0.004876869488076332,0.0,0.0,0.0,0.0,0.0,0.0,0.0,0.0,0.0
4.043,106,4,43000000,base_footprint,0.00012336877960495853,0.0038647228010589905,-0.03520669255085468,0.9993725719157219,0.0,0.0,0.0,0.0,0.0,0.0,0.0,0.0,0.0,0.00031655380320361507,-0.0001017235720138354,0.03929848172083455,0.0,0.0,0.0,0.0,0.0,0.0,0.0,0.0,0.0,-0.1049575217151769,0.021279764887979596,0.0009920515403175033,0.0,0.0,0.0,0.0,0.0,0.0,0.0,0.0,0.0
4.077,107,4,77000000,base_footprint,0.00012088218046589979,0.0038663056001801577,-0.03454207372320007,0.9993957585518389,0.0,0.0,0.0,0.0,0.0,0.0,0.0,0.0,0.0,0.00017624394891194983,2.2695410044964927e-05,0.03921051323893579,0.0,0.0,0.0,0.0,0.0,0.0,0.0,0.0,0.0,0.006494278264031035,0.0060070604234620404,-0.0003991537762786149,0.0,0.0,0.0,0.0,0.0,0.0,0.0,0.0,0.0
4.111,108,4,111000000,base_footprint,0.00011689075532940533,0.003869599512511,-0.0338204923319832,0.9994204254639719,0.0,0.0,0.0,0.0,0.0,0.0,0.0,0.0,0.0,0.0002639682531164062,6.235491845141475e-05,0.045784461278609044,0.0,0.0,0.0,0.0,0.0,0.0,0.0,0.0,0.0,0.0014400589372836874,0.008022816312118609,-0.00017248995067779032,0.0,0.0,0.0,0.0,0.0,0.0,0.0,0.0,0.0
4.145,109,4,145000000,base_footprint,0.0001129993294204805,0.0038741562409690643,-0.03302163358367466,0.9994471220930289,0.0,0.0,0.0,0.0,0.0,0.0,0.0,0.0,0.0,0.0004192725144595846,0.0003594115003748473,0.04811352212566585,0.0,0.0,0.0,0.0,0.0,0.0,0.0,0.0,0.0,0.0009263678930769609,0.012908697421246366,-0.0005785757115194152,0.0,0.0,0.0,0.0,0.0,0.0,0.0,0.0,0.0
4.179,110,4,179000000,base_footprint,0.00011752704890235301,0.0038745771619026438,-0.03223748457719128,0.9994727202016795,0.0,0.0,0.0,0.0,0.0,0.0,0.0,0.0,0.0,0.0007613956387047252,-6.88167163162756e-05,0.04451652334507379,0.0,0.0,0.0,0.0,0.0,0.0,0.0,0.0,0.0,0.002994246164513257,0.010580153729856875,0.0008012291776784647,0.0,0.0,0.0,0.0,0.0,0.0,0.0,0.0,0.0
4.213,111,4,213000000,base_footprint,0.00012305119408795025,0.0038545715919751965,-0.031425295938524146,0.999498663286461,0.0,0.0,0.0,0.0,0.0,0.0,0.0,0.0,0.0,-0.0006137650810498506,-0.0016029838225595065,0.04725980624496754,0.0,0.0,0.0,0.0,0.0,0.0,0.0,0.0,0.0,0.054819555652853486,0.006343492736295114,0.002327054043285326,0.0,0.0,0.0,0.0,0.0,0.0,0.0,0.0,0.0
4.247,112,4,247000000,base_footprint,0.00010444719351864151,0.003869886893916254,-0.03125734678355227,0.9995038725979329,0.0,0.0,0.0,0.0,0.0,0.0,0.0,0.0,0.0,-0.0007996455798496513,0.001586235207668748,-0.037727975654743895,0.0,0.0,0.0,0.0,0.0,0.0,0.0,0.0,0.0,0.08571889066633676,-0.01458130770509158,-0.006054944483148139,0.0,0.0,0.0,0.0,0.0,0.0,0.0,0.0,0.0
4.281,113,4,281000000,base_footprint,0.00010496292058688606,0.003857623639955081,-0.03184055787491345,0.9994855109489342,0.0,0.0,0.0,0.0,0.0,0.0,0.0,0.0,0.0,9.713120038379916e-05,-0.00028211418814982274,-0.029155950064584126,0.0,0.0,0.0,0.0,0.0,0.0,0.0,0.0,0.0,-0.00442892504240027,-0.005607306037226652,0.0030763312380501155,0.0,0.0,0.0,0.0,0.0,0.0,0.0,0.0,0.0
4.315,114,4,315000000,base_footprint,0.00011138827173924296,0.0038617368282993906,-0.03244136959924098,0.9994661735745975,0.0,0.0,0.0,0.0,0.0,0.0,0.0,0.0,0.0,0.0009600045424842787,0.001180192809180323,-0.036251188132294165,0.0,0.0,0.0,0.0,0.0,0.0,0.0,0.0,0.0,0.16773270943995727,-0.029820629666625686,-0.0037206025542050503,0.0,0.0,0.0,0.0,0.0,0.0,0.0,0.0,0.0
4.349,115,4,349000000,base_footprint,0.00011733003031718792,0.003864414401239227,-0.03295264439384069,0.9994494363210441,0.0,0.0,0.0,0.0,0.0,0.0,0.0,0.0,0.0,-0.00026976030111926615,-0.00026729755564155024,-0.03025111162169907,0.0,0.0,0.0,0.0,0.0,0.0,0.0,0.0,0.0,0.016629488563922518,-0.007674818370186293,0.0023358140603765135,0.0,0.0,0.0,0.0,0.0,0.0,0.0,0.0,0.0
4.383,116,4,383000000,base_footprint,0.00011954545023314121,0.0038630774246135946,-0.0334619388472753,0.9994325194780677,0.0,0.0,0.0,0.0,0.0,0.0,0.0,0.0,0.0,-0.00032637378316155246,-0.00022776113652880133,-0.029972560106641826,0.0,0.0,0.0,0.0,0.0,0.0,0.0,0.0,0.0,0.005239669028490296,-0.007274815646292902,-8.435811832105453e-06,0.0,0.0,0.0,0.0,0.0,0.0,0.0,0.0,0.0
4.417,117,4,417000000,base_footprint,0.0001174224197532671,0.0038610482540469898,-0.03318322432865734,0.9994418202884595,0.0,0.0,0.0,0.0,0.0,0.0,0.0,0.0,0.0,0.0003144984305119025,4.605696329782119e-05,0.04267756441980281,0.0,0.0,0.0,0.0,0.0,0.0,0.0,0.0,0.0,-0.013792025332899182,0.004952392021000547,-0.000204219384540728,0.0,0.0,0.0,0.0,0.0,0.0,0.0,0.0,0.0
4.451,118,4,451000000,base_footprint,0.00011388138248387361,0.00386119152202181,-0.0324605332973982,0.9994655531878573,0.0,0.0,0.0,0.0,0.0,0.0,0.0,0.0,0.0,0.00021011069426903536,-0.0001383027400980811,0.04246537548031175,0.0,0.0,0.0,0.0,0.0,0.0,0.0,0.0,0.0,0.007211784792735162,0.00796515465751572,7.270167953914213e-05,0.0,0.0,0.0,0.0,0.0,0.0,0.0,0.0,0.0
4.485,119,4,485000000,base_footprint,0.0001103469958790058,0.003862525824503942,-0.03174027999797083,0.9994886809481367,0.0,0.0,0.0,0.0,0.0,0.0,0.0,0.0,0.0,0.00020464542811550248,-5.5167228650826546e-05,0.04232648725436449,0.0,0.0,0.0,0.0,0.0,0.0,0.0,0.0,0.0,0.006634959089756092,0.008414910275626492,-0.00022506709843545918,0.0,0.0,0.0,0.0,0.0,0.0,0.0,0.0,0.0
4.519,120,4,519000000,base_footprint,0.00010665536965791638,0.003865061959415401,-0.030945942108901767,0.9995135809921117,0.0,0.0,0.0,0.0,0.0,0.0,0.0,0.0,0.0,0.0002822381170388134,-3.161865905708589e-05,0.04837563570905919,0.0,0.0,0.0,0.0,0.0,0.0,0.0,0.0,0.0,0.004562058007759473,0.009338318416204722,-0.00011198572515011402,0.0,0.0,0.0,0.0,0.0,0.0,0.0,0.0,0.0
4.553,121,4,553000000,base_footprint,0.00010361976234834123,0.0038676458984615598,-0.030122603818990998,0.9995387232705462,0.0,0.0,0.0,0.0,0.0,0.0,0.0,0.0,0.0,0.0003356098061731769,-5.906655081908221e-05,0.048367404784465926,0.0,0.0,0.0,0.0,0.0,0.0,0.0,0.0,0.0,0.006310864285777698,0.008768403679556351,-1.416123663433133e-05,0.0,0.0,0.0,0.0,0.0,0.0,0.0,0.0,0.0
4.587,122,4,587000000,base_footprint,9.983828915804903e-05,0.0038704265422600435,-0.029301584034291957,0.9995631180689784,0.0,0.0,0.0,0.0,0.0,0.0,0.0,0.0,0.0,0.0002783708694261306,5.753217564824119e-05,0.048822697553507474,0.0,0.0,0.0,0.0,0.0,0.0,0.0,0.0,0.0,0.004411145930195938,0.009111863943470189,-0.0003964880494815745,0.0,0.0,0.0,0.0,0.0,0.0,0.0,0.0,0.0
4.621,123,4,621000000,base_footprint,9.5282882357021e-05,0.003874635142017766,-0.028374141179337748,0.9995898590101961,0.0,0.0,0.0,0.0,0.0,0.0,0.0,0.0,0.0,0.00036361235805920926,0.0003720931993257628,0.05699992294988297,0.0,0.0,0.0,0.0,0.0,0.0,0.0,0.0,0.0,-3.3007044776970534e-05,0.015117470678929348,-0.000646052964753218,0.0,0.0,0.0,0.0,0.0,0.0,0.0,0.0,0.0
4.655,124,4,655000000,base_footprint,9.939750467436848e-05,0.0038754935271973837,-0.02744928636041234,0.9996156798231813,0.0,0.0,0.0,0.0,0.0,0.0,0.0,0.0,0.0,0.0007967354729960032,-0.00010365661199471077,0.052327383733893916,0.0,0.0,0.0,0.0,0.0,0.0,0.0,0.0,0.0,0.0008236587040197614,0.014292189050866865,0.0010191142583699095,0.0,0.0,0.0,0.0,0.0,0.0,0.0,0.0,0.0
4.689,125,4,689000000,base_footprint,9.7606748784418e-05,0.0038712773896130686,-0.0264743877511416,0.9996419911535817,0.0,0.0,0.0,0.0,0.0,0.0,0.0,0.0,0.0,4.6115000502651606e-05,-0.0003557233648515566,0.0650759624856732,0.0,0.0,0.0,0.0,0.0,0.0,0.0,0.0,0.0,-0.04865419876419837,0.019979690994793957,0.000711366279625114,0.0,0.0,0.0,0.0,0.0,0.0,0.0,0.0,0.0
4.723,126,4,723000000,base_footprint,9.783901484034236e-05,0.0038624331170990893,-0.026182938454886354,0.999649701531397,0.0,0.0,0.0,0.0,0.0,0.0,0.0,0.0,0.0,-0.003988298427544701,0.0007383646160253414,-0.04886835442763944,0.0,0.0,0.0,0.0,0.0,0.0,0.0,0.0,0.0,0.062418339389645916,-0.00898470538714748,-0.0031681329923664288,0.0,0.0,0.0,0.0,0.0,0.0,0.0,0.0,0.0
4.757,127,4,757000000,base_footprint,9.515886675993928e-05,0.0038710156726841647,-0.026626135929396434,0.9996379619982033,0.0,0.0,0.0,0.0,0.0,0.0,0.0,0.0,0.0,0.0009608571722615837,0.0006263522294759539,0.034200101485301636,0.0,0.0,0.0,0.0,0.0,0.0,0.0,0.0,0.0,-0.35841726689732006,0.032581544958142264,0.0038589295165029195,0.0,0.0,0.0,0.0,0.0,0.0,0.0,0.0,0.0
4.791,128,4,791000000,base_footprint,9.075650673663632e-05,0.0038696874431028328,-0.025803273227731287,0.9996595462321582,0.0,0.0,0.0,0.0,0.0,0.0,0.0,0.0,0.0,0.0003745501745360525,-0.0005557201853459588,0.047725455223581945,0.0,0.0,0.0,0.0,0.0,0.0,0.0,0.0,0.0,-0.028757143380284664,0.01532906072937662,0.002461280464993173,0.0,0.0,0.0,0.0,0.0,0.0,0.0,0.0,0.0
4.825,129,4,825000000,base_footprint,8.833338917940944e-05,0.0038660792918715986,-0.025091356826278215,0.9996776827761724,0.0,0.0,0.0,0.0,0.0,0.0,0.0,0.0,0.0,0.00043174966131339715,-0.000306925491885349,0.04111413323218317,0.0,0.0,0.0,0.0,0.0,0.0,0.0,0.0,0.0,0.0070289563206143634,0.007997402191946758,-0.000441498206011659,0.0,0.0,0.0,0.0,0.0,0.0,0.0,0.0,0.0
4.859,130,4,859000000,base_footprint,8.568727557433623e-05,0.003863663468889562,-0.024395731779714293,0.9996949099766501,0.0,0.0,0.0,0.0,0.0,0.0,0.0,0.0,0.0,0.0003037546757309294,-0.0003673537002877101,0.0407802612273465,0.0,0.0,0.0,0.0,0.0,0.0,0.0,0.0,0.0,0.005773947673657384,0.007503615589507578,0.00015949731884992762,0.0,0.0,0.0,0.0,0.0,0.0,0.0,0.0,0.0
4.893,131,4,893000000,base_footprint,8.241359814887261e-05,0.0038617763570154536,-0.02370451547772367,0.9997115463159029,0.0,0.0,0.0,0.0,0.0,0.0,0.0,0.0,0.0,0.00030767604340986826,-0.00026675453922047677,0.040538007684500395,0.0,0.0,0.0,0.0,0.0,0.0,0.0,0.0,0.0,0.006156319374605672,0.007920408059530313,-0.00022216642364797866,0.0,0.0,0.0,0.0,0.0,0.0,0.0,0.0,0.0
4.927,132,4,927000000,base_footprint,8.263545085269461e-05,0.0038605095531888556,-0.023814854875936438,0.9997089288010836,0.0,0.0,0.0,0.0,0.0,0.0,0.0,0.0,0.0,0.0006081510595769412,0.003996978061272468,-0.06540441718024241,0.0,0.0,0.0,0.0,0.0,0.0,0.0,0.0,0.0,0.6568462571382363,-0.06164970444777341,-0.006584284002983723,0.0,0.0,0.0,0.0,0.0,0.0,0.0,0.0,0.0
4.961,133,4,961000000,base_footprint,8.014542140581518e-05,0.0038627071925812413,-0.02349715591969505,0.9997164381631132,0.0,0.0,0.0,0.0,0.0,0.0,0.0,0.0,0.0,0.0003787110900155161,-8.186280675104928e-05,0.047136647937026564,0.0,0.0,0.0,0.0,0.0,0.0,0.0,0.0,0.0,-0.30876373095755594,0.03054738709947649,0.0035929869495610937,0.0,0.0,0.0,0.0,0.0,0.0,0.0,0.0,0.0
4.995,134,4,995000000,base_footprint,7.599425563739052e-05,0.003865795325217192,-0.022698210010716452,0.9997348854139713,0.0,0.0,0.0,0.0,0.0,0.0,0.0,0.0,0.0,0.0003365533171644731,-1.6164211953389183e-05,0.048344062939165884,0.0,0.0,0.0,0.0,0.0,0.0,0.0,0.0,0.0,0.007123535551045075,0.009820025272423726,-0.00030364782979933367,0.0,0.0,0.0,0.0,0.0,0.0,0.0,0.0,0.0
5.029,135,5,29000000,base_footprint,7.151358391720993e-05,0.003870577400837359,-0.021860763770021163,0.9997535298881334,0.0,0.0,0.0,0.0,0.0,0.0,0.0,0.0,0.0,0.0002804684038688094,7.437566890727545e-05,0.04939296999563168,0.0,0.0,0.0,0.0,0.0,0.0,0.0,0.0,0.0,0.004449138327798045,0.009797007186915119,-0.00034195314169911944,0.0,0.0,0.0,0.0,0.0,0.0,0.0,0.0,0.0
5.063,136,5,63000000,base_footprint,6.900572361957444e-05,0.0038730252097065676,-0.021024378982307464,0.999771459085697,0.0,0.0,0.0,0.0,0.0,0.0,0.0,0.0,0.0,0.0003163253980701629,3.215819085318895e-05,0.049393955651835825,0.0,0.0,0.0,0.0,0.0,0.0,0.0,0.0,0.0,0.005131837235514524,0.008520713747905423,-6.366931778741414e-05,0.0,0.0,0.0,0.0,0.0,0.0,0.0,0.0,0.0
5.097,137,5,97000000,base_footprint,6.422227633501971e-05,0.0038762555277939014,-0.020180009639347872,0.999788846571884,0.0,0.0,0.0,0.0,0.0,0.0,0.0,0.0,0.0,0.0008704255401348358,-5.129297607819984e-05,0.043176001952446065,0.0,0.0,0.0,0.0,0.0,0.0,0.0,0.0,0.0,-0.003029626461605108,0.009898271678978023,2.37654022033058e-05,0.0,0.0,0.0,0.0,0.0,0.0,0.0,0.0,0.0
5.131,138,5,131000000,base_footprint,6.735009073720692e-05,0.003875797284566576,-0.01955719285819235,0.999801225177726,0.0,0.0,0.0,0.0,0.0,0.0,0.0,0.0,0.0,0.0006397020616360369,-0.00011769580400984375,0.034261623048741634,0.0,0.0,0.0,0.0,0.0,0.0,0.0,0.0,0.0,0.008475936664530793,0.013784861528917215,0.0002882352560459577,0.0,0.0,0.0,0.0,0.0,0.0,0.0,0.0,0.0
5.165,139,5,165000000,base_footprint,6.785106630475915e-05,0.00387206784613002,-0.01895330469395027,0.9998128698551576,0.0,0.0,0.0,0.0,0.0,0.0,0.0,0.0,0.0,5.84188333766688e-05,-0.0008293952675533614,0.041177810337628,0.0,0.0,0.0,0.0,0.0,0.0,0.0,0.0,0.0,-0.03697332266591748,0.012921574944582747,0.0015028500177028542,0.0,0.0,0.0,0.0,0.0,0.0,0.0,0.0,0.0
5.199,140,5,199000000,base_footprint,5.8324177872542934e-05,0.0038741489789204083,-0.01847211619748645,0.9998218683801461,0.0,0.0,0.0,0.0,0.0,0.0,0.0,0.0,0.0,0.000344481992540675,-0.0002586459791288284,0.01361804179666013,0.0,0.0,0.0,0.0,0.0,0.0,0.0,0.0,0.0,-0.05751533205723227,0.007383963465377126,0.0002908102241901018,0.0,0.0,0.0,0.0,0.0,0.0,0.0,0.0,0.0
5.233,141,5,233000000,base_footprint,5.466960425554802e-05,0.0038684656363939325,-0.01813101394756457,0.9998281343901498,0.0,0.0,0.0,0.0,0.0,0.0,0.0,0.0,0.0,0.0004851525594477685,0.0002732432670898781,0.02893168931137587,0.0,0.0,0.0,0.0,0.0,0.0,0.0,0.0,0.0,0.02215966781433435,0.0027909211490105192,-0.0017243084060109017,0.0,0.0,0.0,0.0,0.0,0.0,0.0,0.0,0.0
5.267,142,5,267000000,base_footprint,5.719078918934241e-05,0.0038701455713395306,-0.01744543023874887,0.9998403250850884,0.0,0.0,0.0,0.0,0.0,0.0,0.0,0.0,0.0,0.0004599028967156292,-0.00029719056950416824,0.0425545319745943,0.0,0.0,0.0,0.0,0.0,0.0,0.0,0.0,0.0,0.03221125272017491,0.005922746956006491,0.0007859581070850754,0.0,0.0,0.0,0.0,0.0,0.0,0.0,0.0,0.0
5.301,143,5,301000000,base_footprint,5.546472944692387e-05,0.003866495325793733,-0.01670795384224888,0.9998529348939097,0.0,0.0,0.0,0.0,0.0,0.0,0.0,0.0,0.0,0.0005331249776073086,-0.00030338018290674407,0.04706223829063433,0.0,0.0,0.0,0.0,0.0,0.0,0.0,0.0,0.0,0.00460094730260154,0.008598457556870172,-0.00010118641783376335,0.0,0.0,0.0,0.0,0.0,0.0,0.0,0.0,0.0
5.335,144,5,335000000,base_footprint,5.221456407030635e-05,0.003863742243980024,-0.015917043063401578,0.9998658492566037,0.0,0.0,0.0,0.0,0.0,0.0,0.0,0.0,0.0,0.0003700498053067294,-0.0003378049064583487,0.046381788578057935,0.0,0.0,0.0,0.0,0.0,0.0,0.0,0.0,0.0,0.0059430335679292795,0.009760110339061065,0.00017401980335390342,0.0,0.0,0.0,0.0,0.0,0.0,0.0,0.0,0.0
5.369,145,5,369000000,base_footprint,4.8822218568743475e-05,0.0038620055961207564,-0.015130586960426507,0.9998780664998106,0.0,0.0,0.0,0.0,0.0,0.0,0.0,0.0,0.0,0.00036916391615344314,-0.00025261366812042455,0.046144755425009086,0.0,0.0,0.0,0.0,0.0,0.0,0.0,0.0,0.0,0.00628206130503951,0.009762084210624989,-0.00021124556892889102,0.0,0.0,0.0,0.0,0.0,0.0,0.0,0.0,0.0
5.4030000000000005,146,5,403000000,base_footprint,4.5267465547759914e-05,0.0038621532364311547,-0.014315740145979979,0.999890064610759,0.0,0.0,0.0,0.0,0.0,0.0,0.0,0.0,0.0,0.00041419812319042667,-0.0002692315103648527,0.053384331060627045,0.0,0.0,0.0,0.0,0.0,0.0,0.0,0.0,0.0,0.004317584440904276,0.009841391415998017,-5.2830110939762755e-05,0.0,0.0,0.0,0.0,0.0,0.0,0.0,0.0,0.0
5.437,147,5,437000000,base_footprint,4.1257386153250836e-05,0.003863355909021568,-0.013414625590338436,0.9999025555518996,0.0,0.0,0.0,0.0,0.0,0.0,0.0,0.0,0.0,0.0003986194661948383,-8.60835332339527e-05,0.052846504305285584,0.0,0.0,0.0,0.0,0.0,0.0,0.0,0.0,0.0,0.006255204327060526,0.011503257827726984,-0.00037308979610304916,0.0,0.0,0.0,0.0,0.0,0.0,0.0,0.0,0.0
5.471,148,5,471000000,base_footprint,3.6947913974442215e-05,0.0038665271895621765,-0.01251824933304355,0.9999141673343667,0.0,0.0,0.0,0.0,0.0,0.0,0.0,0.0,0.0,0.0003732489988264633,2.355966080251485e-05,0.05262956974062918,0.0,0.0,0.0,0.0,0.0,0.0,0.0,0.0,0.0,0.005908684470819307,0.01115393192649466,-0.0002871407693058939,0.0,0.0,0.0,0.0,0.0,0.0,0.0,0.0,0.0
5.505,149,5,505000000,base_footprint,3.5257301628174116e-05,0.003863309519967565,-0.012131376652691475,0.9999189483638092,0.0,0.0,0.0,0.0,0.0,0.0,0.0,0.0,0.0,0.0011828951659628656,0.0015275790387025276,-0.08854661254182858,0.0,0.0,0.0,0.0,0.0,0.0,0.0,0.0,0.0,0.024108744230390187,0.002618372140687468,-0.002461135173103078,0.0,0.0,0.0,0.0,0.0,0.0,0.0,0.0,0.0
5.539,150,5,539000000,base_footprint,4.925250032452746e-05,0.003866280244991251,-0.013624985686396399,0.9998996995780647,0.0,0.0,0.0,0.0,0.0,0.0,0.0,0.0,0.0,-4.891625919562316e-05,0.0004042717258485964,-0.05414407155945935,0.0,0.0,0.0,0.0,0.0,0.0,0.0,0.0,0.0,-0.10121998879992675,-0.010162044206531629,0.0031027166873411074,0.0,0.0,0.0,0.0,0.0,0.0,0.0,0.0,0.0
5.573,151,5,573000000,base_footprint,4.7348644748715146e-05,0.003873688123872034,-0.013747158499378468,0.9998979987636829,0.0,0.0,0.0,0.0,0.0,0.0,0.0,0.0,0.0,-0.0005863623921143164,0.0010036291013570038,0.02913114971893999,0.0,0.0,0.0,0.0,0.0,0.0,0.0,0.0,0.0,-0.21547673182158952,0.004847821509865771,-0.0005781414455839005,0.0,0.0,0.0,0.0,0.0,0.0,0.0,0.0,0.0
5.607,152,5,607000000,base_footprint,4.111801647396145e-05,0.0038660147100056863,-0.012949390628199258,0.9999086785911647,0.0,0.0,0.0,0.0,0.0,0.0,0.0,0.0,0.0,0.0011415609735224695,5.7285512941818236e-05,0.05635724479345469,0.0,0.0,0.0,0.0,0.0,0.0,0.0,0.0,0.0,0.0033200879296933867,0.012377475342550289,0.003447838092048222,0.0,0.0,0.0,0.0,0.0,0.0,0.0,0.0,0.0
5.641,153,5,641000000,base_footprint,3.677472663788846e-05,0.0038644122948875742,-0.011853555171587312,0.9999222760770102,0.0,0.0,0.0,0.0,0.0,0.0,0.0,0.0,0.0,-0.000609744557597394,0.00030432700265504823,0.06429790962553109,0.0,0.0,0.0,0.0,0.0,0.0,0.0,0.0,0.0,0.013940630630714481,0.0207075305774234,-0.0024682732536218093,0.0,0.0,0.0,0.0,0.0,0.0,0.0,0.0,0.0
5.675,154,5,675000000,base_footprint,1.9404651580354436e-05,0.0038640543525255903,-0.011327588734659366,0.9999283746553445,0.0,0.0,0.0,0.0,0.0,0.0,0.0,0.0,0.0,-0.00032706120809429474,-0.0010840096173851978,0.007011314633085108,0.0,0.0,0.0,0.0,0.0,0.0,0.0,0.0,0.0,0.04182732993449377,0.0037083655012500986,0.0012255758761225007,0.0,0.0,0.0,0.0,0.0,0.0,0.0,0.0,0.0
5.709,155,5,709000000,base_footprint,2.2679372724700524e-05,0.0038657013670492595,-0.010894727233552424,0.9999331781459666,0.0,0.0,0.0,0.0,0.0,0.0,0.0,0.0,0.0,0.0006366325852543494,-0.0006872293626170679,0.04465552882973045,0.0,0.0,0.0,0.0,0.0,0.0,0.0,0.0,0.0,0.057297587302677117,-0.002152242304834717,0.0003057264178514907,0.0,0.0,0.0,0.0,0.0,0.0,0.0,0.0,0.0
5.743,156,5,743000000,base_footprint,2.454159352425346e-05,0.0038700820779318072,-0.009564197315637337,0.9999467725794849,0.0,0.0,0.0,0.0,0.0,0.0,0.0,0.0,0.0,0.0018348193263628225,0.001287945804323206,0.1072121362918108,0.0,0.0,0.0,0.0,0.0,0.0,0.0,0.0,0.0,0.13378990484676043,0.007086758472805891,-0.0041087153777922296,0.0,0.0,0.0,0.0,0.0,0.0,0.0,0.0,0.0
5.777,157,5,777000000,base_footprint,1.9044749602565247e-05,0.003866872953878799,-0.007748853937586007,0.9999625003936448,0.0,0.0,0.0,0.0,0.0,0.0,0.0,0.0,0.0,0.0010198651367323325,-0.00032097100794892095,0.1066229409593669,0.0,0.0,0.0,0.0,0.0,0.0,0.0,0.0,0.0,0.003095341871451152,0.026439782185943228,0.0025018717470927667,0.0,0.0,0.0,0.0,0.0,0.0,0.0,0.0,0.0
5.811,158,5,811000000,base_footprint,1.2660805721919626e-05,0.0038636934765844217,-0.005979730694651811,0.999974656945486,0.0,0.0,0.0,0.0,0.0,0.0,0.0,0.0,0.0,0.0008424660498151632,-0.00036707644936128563,0.1015580643165723,0.0,0.0,0.0,0.0,0.0,0.0,0.0,0.0,0.0,0.007509824950666549,0.022234241484523538,0.00010024435988881754,0.0,0.0,0.0,0.0,0.0,0.0,0.0,0.0,0.0
5.845,159,5,845000000,base_footprint,6.15535881194477e-06,0.0038619050584437122,-0.004254215415202573,0.9999834935150841,0.0,0.0,0.0,0.0,0.0,0.0,0.0,0.0,0.0,0.0008298232642216032,-0.0002472005288525768,0.1014373346601561,0.0,0.0,0.0,0.0,0.0,0.0,0.0,0.0,0.0,0.005974294140288925,0.022060225041363644,-0.0002532127625043706,0.0,0.0,0.0,0.0,0.0,0.0,0.0,0.0,0.0
5.879,160,5,879000000,base_footprint,-3.975198693166199e-07,0.003861774089090749,-0.002531615298981327,0.9999893387555214,0.0,0.0,0.0,0.0,0.0,0.0,0.0,0.0,0.0,0.0008234940920325405,-0.00016628172789938655,0.1012429831279076,0.0,0.0,0.0,0.0,0.0,0.0,0.0,0.0,0.0,0.005929171722413231,0.02206060409174489,-0.00020293293658277427,0.0,0.0,0.0,0.0,0.0,0.0,0.0,0.0,0.0
5.913,161,5,913000000,base_footprint,-6.913506236686536e-06,0.0038631606723094594,-0.0008467719131587779,0.9999921794289945,0.0,0.0,0.0,0.0,0.0,0.0,0.0,0.0,0.0,0.0007840882126586921,-8.353511657380858e-05,0.09743953393008344,0.0,0.0,0.0,0.0,0.0,0.0,0.0,0.0,0.0,0.006692027444330464,0.02165454264980011,-0.0002321151927986541,0.0,0.0,0.0,0.0,0.0,0.0,0.0,0.0,0.0
5.947,162,5,947000000,base_footprint,-1.3481361896108414e-05,0.0038661767796242122,0.0008075368111889312,0.9999922001594114,0.0,0.0,0.0,0.0,0.0,0.0,0.0,0.0,0.0,0.000770293345940119,2.7824994958597343e-05,0.09720643875880608,0.0,0.0,0.0,0.0,0.0,0.0,0.0,0.0,0.0,0.005332490185195252,0.021186560506006504,-0.00027546133752685283,0.0,0.0,0.0,0.0,0.0,0.0,0.0,0.0,0.0
5.981,163,5,981000000,base_footprint,-2.0343415966819252e-05,0.003871220809164976,0.0024576040403803947,0.9999894866537212,0.0,0.0,0.0,0.0,0.0,0.0,0.0,0.0,0.0,0.0007575480828389476,0.00014814102461275423,0.09696319285189858,0.0,0.0,0.0,0.0,0.0,0.0,0.0,0.0,0.0,0.004541086291842648,0.021161497610178825,-0.00036460355805569326,0.0,0.0,0.0,0.0,0.0,0.0,0.0,0.0,0.0
6.015,164,6,15000000,base_footprint,-2.6368984937051452e-05,0.0038755395216772586,0.004006408118496877,0.9999844639753562,0.0,0.0,0.0,0.0,0.0,0.0,0.0,0.0,0.0,0.0006519415910945256,0.0001758018547794761,0.08756232111544976,0.0,0.0,0.0,0.0,0.0,0.0,0.0,0.0,0.0,0.004550638732413238,0.0190811330395931,-0.00023387821009812485,0.0,0.0,0.0,0.0,0.0,0.0,0.0,0.0,0.0
6.049,165,6,49000000,base_footprint,-3.256882677796312e-05,0.003878742258589807,0.0054841500326022405,0.9999774389435908,0.0,0.0,0.0,0.0,0.0,0.0,0.0,0.0,0.0,0.0006099851034893133,1.4409265775968679e-05,0.08599180250082485,0.0,0.0,0.0,0.0,0.0,0.0,0.0,0.0,0.0,-0.0021745920486869732,0.0183605656541587,0.00026365013172796527,0.0,0.0,0.0,0.0,0.0,0.0,0.0,0.0,0.0
6.083,166,6,83000000,base_footprint,-3.962507623347433e-05,0.0038769412701668317,0.006914509749157052,0.999968578161919,0.0,0.0,0.0,0.0,0.0,0.0,0.0,0.0,0.0,0.0005055251562957275,-0.00039246271170727373,0.08226649002450388,0.0,0.0,0.0,0.0,0.0,0.0,0.0,0.0,0.0,-0.003435190748345673,0.014486525904013264,0.0008092896996522954,0.0,0.0,0.0,0.0,0.0,0.0,0.0,0.0,0.0
6.117,167,6,117000000,base_footprint,-4.187436541871087e-05,0.003869658246806513,0.008102480525134913,0.9999596860878595,0.0,0.0,0.0,0.0,0.0,0.0,0.0,0.0,0.0,0.0011441646133138722,-6.43701845700907e-06,0.05551276233213183,0.0,0.0,0.0,0.0,0.0,0.0,0.0,0.0,0.0,-0.050721390870624494,0.02376536500114926,-6.704878231836973e-05,0.0,0.0,0.0,0.0,0.0,0.0,0.0,0.0,0.0
6.151,168,6,151000000,base_footprint,-4.5918510500188695e-05,0.0038725364081195657,0.009200094693947196,0.9999501785643526,0.0,0.0,0.0,0.0,0.0,0.0,0.0,0.0,0.0,0.0001373619342789966,0.0005699040948404733,0.07280462280646803,0.0,0.0,0.0,0.0,0.0,0.0,0.0,0.0,0.0,-0.009636172105516065,0.009460053973416238,-0.0009691000152551386,0.0,0.0,0.0,0.0,0.0,0.0,0.0,0.0,0.0
6.185,169,6,185000000,base_footprint,-5.0044139204836925e-05,0.003873989620291012,0.010516451973334846,0.9999371949967152,0.0,0.0,0.0,0.0,0.0,0.0,0.0,0.0,0.0,0.0006111846377101743,-6.384045867726251e-05,0.08000673852907529,0.0,0.0,0.0,0.0,0.0,0.0,0.0,0.0,0.0,0.023419905674826783,0.01850804801522121,0.0008327405991535209,0.0,0.0,0.0,0.0,0.0,0.0,0.0,0.0,0.0
6.219,170,6,219000000,base_footprint,-5.4658473174912817e-05,0.0038622045044387505,0.011767122153312933,0.9999233046714365,0.0,0.0,0.0,0.0,0.0,0.0,0.0,0.0,0.0,0.0009758098047976591,0.0016225090269099823,0.07033612216203912,0.0,0.0,0.0,0.0,0.0,0.0,0.0,0.0,0.0,-0.3515643598407366,-0.004402774826916637,0.0004041312421695712,0.0,0.0,0.0,0.0,0.0,0.0,0.0,0.0,0.0
6.253,171,6,253000000,base_footprint,-5.9810981575694815e-05,0.0038659390123944697,0.012919627832534543,0.9999090629426597,0.0,0.0,0.0,0.0,0.0,0.0,0.0,0.0,0.0,0.0004407731262679288,-0.0002909421485523912,0.06784932713031114,0.0,0.0,0.0,0.0,0.0,0.0,0.0,0.0,0.0,0.019732909032461977,0.019131862705766695,0.0026720650602142,0.0,0.0,0.0,0.0,0.0,0.0,0.0,0.0,0.0
6.287,172,6,287000000,base_footprint,-6.340266195056165e-05,0.0038621763812939957,0.014070846814424094,0.9998935397549217,0.0,0.0,0.0,0.0,0.0,0.0,0.0,0.0,0.0,0.0006315839327379157,-0.00031545561642088533,0.0675495853266667,0.0,0.0,0.0,0.0,0.0,0.0,0.0,0.0,0.0,0.004527351051922,0.014313518498411112,0.00017973783450051265,0.0,0.0,0.0,0.0,0.0,0.0,0.0,0.0,0.0
6.321,173,6,321000000,base_footprint,-6.278445247155077e-05,0.003860881941632744,0.01409250520292368,0.9998932397740525,0.0,0.0,0.0,0.0,0.0,0.0,0.0,0.0,0.0,-7.188111404090072e-05,-0.00013123090730886986,-0.022050087846492945,0.0,0.0,0.0,0.0,0.0,0.0,0.0,0.0,0.0,0.029153383234658218,0.002377347926596821,-0.0004868915506214835,0.0,0.0,0.0,0.0,0.0,0.0,0.0,0.0,0.0
6.355,174,6,355000000,base_footprint,-6.08359890780632e-05,0.0038603186568311226,0.013714645473290913,0.9998984962176872,0.0,0.0,0.0,0.0,0.0,0.0,0.0,0.0,0.0,-9.442856130233768e-05,-0.00018281471586829487,-0.022436017139438314,0.0,0.0,0.0,0.0,0.0,0.0,0.0,0.0,0.0,0.00576803449931127,-0.0038842159217546027,-8.980726860996755e-05,0.0,0.0,0.0,0.0,0.0,0.0,0.0,0.0,0.0
6.389,175,6,389000000,base_footprint,-5.912540448641968e-05,0.003861365110395668,0.013329858437211644,0.9999036959816253,0.0,0.0,0.0,0.0,0.0,0.0,0.0,0.0,0.0,-0.00011198808986158996,-0.00010506360460645254,-0.022843693167960318,0.0,0.0,0.0,0.0,0.0,0.0,0.0,0.0,0.0,0.005795361950214847,-0.004507004638104286,-0.0002104890159262596,0.0,0.0,0.0,0.0,0.0,0.0,0.0,0.0,0.0
6.423,176,6,423000000,base_footprint,-5.805407469004354e-05,0.0038591507684221375,0.012970921911315202,0.999908425191948,0.0,0.0,0.0,0.0,0.0,0.0,0.0,0.0,0.0,-0.0002273455691790998,0.0003937487363291185,-0.05543911773823062,0.0,0.0,0.0,0.0,0.0,0.0,0.0,0.0,0.0,0.5889644993272111,0.026828469395242506,-0.005273788949607935,0.0,0.0,0.0,0.0,0.0,0.0,0.0,0.0,0.0
6.457,177,6,457000000,base_footprint,-5.549548458753076e-05,0.0038690675089350824,0.012294616630892104,0.9999169313691824,0.0,0.0,0.0,0.0,0.0,0.0,0.0,0.0,0.0,-0.00011070401492636207,0.00015381707140317194,-0.023173227291999252,0.0,0.0,0.0,0.0,0.0,0.0,0.0,0.0,0.0,-0.238225354797598,-0.022609760929299245,0.002198592462385871,0.0,0.0,0.0,0.0,0.0,0.0,0.0,0.0,0.0
6.491,178,6,491000000,base_footprint,-5.384275446247668e-05,0.003872713100954364,0.011896822420057736,0.9999217293421025,0.0,0.0,0.0,0.0,0.0,0.0,0.0,0.0,0.0,-0.0001349256780835257,5.014137135749747e-05,-0.023479218868524547,0.0,0.0,0.0,0.0,0.0,0.0,0.0,0.0,0.0,0.0035402690114286653,-0.005291545643994348,-0.00023343817393156553,0.0,0.0,0.0,0.0,0.0,0.0,0.0,0.0,0.0
6.53,179,6,525000000,base_footprint,-5.6943659292174253e-05,0.0038753984439520582,0.012583894668757228,0.9999133080618969,0.0,0.0,0.0,0.0,0.0,0.0,0.0,0.0,0.0,0.00035832152522704283,-1.5986389987427933e-05,0.05136698580506019,0.0,0.0,0.0,0.0,0.0,0.0,0.0,0.0,0.0,-0.015890768886484104,0.004725685325485459,0.0002041812312177028,0.0,0.0,0.0,0.0,0.0,0.0,0.0,0.0,0.0
6.559,180,6,559000000,base_footprint,-5.9153738146350834e-05,0.003873927449161368,0.01347102086144485,0.9999017555659678,0.0,0.0,0.0,0.0,0.0,0.0,0.0,0.0,0.0,0.0005616273893468811,-0.00035672599892642667,0.05289891001831794,0.0,0.0,0.0,0.0,0.0,0.0,0.0,0.0,0.0,-0.003159930403479644,0.008200504625068734,0.0007778287383958755,0.0,0.0,0.0,0.0,0.0,0.0,0.0,0.0,0.0
6.593,181,6,593000000,base_footprint,-6.081076584083485e-05,0.0038685813153098666,0.01439953322404174,0.9998888357330467,0.0,0.0,0.0,0.0,0.0,0.0,0.0,0.0,0.0,0.0003407867072656782,-0.00023952070404854037,0.056279969593662556,0.0,0.0,0.0,0.0,0.0,0.0,0.0,0.0,0.0,-0.028854746602253473,0.0023847548336741096,4.915691713865665e-06,0.0,0.0,0.0,0.0,0.0,0.0,0.0,0.0,0.0
6.627,182,6,627000000,base_footprint,-6.486039232158445e-05,0.003871380747412901,0.015553472275253962,0.999871540601302,0.0,0.0,0.0,0.0,0.0,0.0,0.0,0.0,0.0,0.0006725996465688488,-0.00016164419563008194,0.07699792832622931,0.0,0.0,0.0,0.0,0.0,0.0,0.0,0.0,0.0,-0.054939672391396625,0.029189657173566648,-2.0627305307267756e-05,0.0,0.0,0.0,0.0,0.0,0.0,0.0,0.0,0.0
6.663,183,6,661000000,base_footprint,-7.400939727066863e-05,0.003873423045999973,0.016653942502708807,0.9998538079717616,0.0,0.0,0.0,0.0,0.0,0.0,0.0,0.0,0.0,0.0006721760890315094,-0.00048086212925911516,0.06012277034439004,0.0,0.0,0.0,0.0,0.0,0.0,0.0,0.0,0.0,0.03984883657375073,0.018336693130311027,0.0006376756463707281,0.0,0.0,0.0,0.0,0.0,0.0,0.0,0.0,0.0
6.693,184,6,695000000,base_footprint,-7.504661136981297e-05,0.003870012843357523,0.017681620466679808,0.9998361754138879,0.0,0.0,0.0,0.0,0.0,0.0,0.0,0.0,0.0,0.0033783943197200133,0.0006840265040383957,0.041060655594767716,0.0,0.0,0.0,0.0,0.0,0.0,0.0,0.0,0.0,-0.007935294816491655,0.00999455092337647,0.0007814819239624297,0.0,0.0,0.0,0.0,0.0,0.0,0.0,0.0,0.0
6.73,185,6,729000000,base_footprint,-7.719370122185007e-05,0.003866746825090728,0.017314836214060016,0.9998426069922224,0.0,0.0,0.0,0.0,0.0,0.0,0.0,0.0,0.0,-0.0002555578197166627,-0.0003399471598285202,-0.027503916719402915,0.0,0.0,0.0,0.0,0.0,0.0,0.0,0.0,0.0,0.03337986597059375,-0.003378868619793106,-0.00115559074233918,0.0,0.0,0.0,0.0,0.0,0.0,0.0,0.0,0.0
6.7620000000000005,186,6,763000000,base_footprint,-7.420760369424203e-05,0.0038624627548157217,0.016845897208492992,0.999850634655967,0.0,0.0,0.0,0.0,0.0,0.0,0.0,0.0,0.0,-9.052613179314863e-05,-0.00035265738059552166,-0.02777752986576066,0.0,0.0,0.0,0.0,0.0,0.0,0.0,0.0,0.0,0.005554029523285156,-0.005117094874334655,8.553003561354986e-05,0.0,0.0,0.0,0.0,0.0,0.0,0.0,0.0,0.0
6.797,187,6,797000000,base_footprint,-7.143249322233201e-05,0.00386041583283246,0.016361433180618463,0.9998586878110689,0.0,0.0,0.0,0.0,0.0,0.0,0.0,0.0,0.0,-0.00038437130588885065,-0.00031372974974399524,-0.033984256078758525,0.0,0.0,0.0,0.0,0.0,0.0,0.0,0.0,0.0,0.007225101550492767,-0.006201091048844422,-0.00031069275319596924,0.0,0.0,0.0,0.0,0.0,0.0,0.0,0.0,0.0
6.834,188,6,831000000,base_footprint,-6.871797374285359e-05,0.00386030904744817,0.015772001958778568,0.9998681599321537,0.0,0.0,0.0,0.0,0.0,0.0,0.0,0.0,0.0,-0.00018886289741151284,-0.00017413280704918537,-0.03483767927418428,0.0,0.0,0.0,0.0,0.0,0.0,0.0,0.0,0.0,0.007019125649449729,-0.006801758420095874,-0.00015578722671147807,0.0,0.0,0.0,0.0,0.0,0.0,0.0,0.0,0.0
6.865,189,6,865000000,base_footprint,-6.620764802969583e-05,0.0038616605170906163,0.015176098594621809,0.9998773770948337,0.0,0.0,0.0,0.0,0.0,0.0,0.0,0.0,0.0,-0.00020937563018531288,-8.706833733189942e-05,-0.035279681831546235,0.0,0.0,0.0,0.0,0.0,0.0,0.0,0.0,0.0,0.00630681122191439,-0.007461154458728228,-0.00023625879169950206,0.0,0.0,0.0,0.0,0.0,0.0,0.0,0.0,0.0
6.9,190,6,899000000,base_footprint,-6.468959360399531e-05,0.003864889328923532,0.014594398523609317,0.9998860244935249,0.0,0.0,0.0,0.0,0.0,0.0,0.0,0.0,0.0,-0.000414739663188571,5.511863662510541e-06,-0.026319574383809302,0.0,0.0,0.0,0.0,0.0,0.0,0.0,0.0,0.0,0.004104942076827628,-0.007390292102428285,-0.00041090109238041,0.0,0.0,0.0,0.0,0.0,0.0,0.0,0.0,0.0
6.933,191,6,933000000,base_footprint,-6.273268134374247e-05,0.003869730026075313,0.014138192680928665,0.9998925606093151,0.0,0.0,0.0,0.0,0.0,0.0,0.0,0.0,0.0,-0.00019820179728025796,0.0001274699500200027,-0.027152977447357982,0.0,0.0,0.0,0.0,0.0,0.0,0.0,0.0,0.0,0.004817726317727795,-0.006178528867825526,-0.00026503980577858677,0.0,0.0,0.0,0.0,0.0,0.0,0.0,0.0,0.0
6.9670000000000005,192,6,967000000,base_footprint,-6.05786853541198e-05,0.003873065386286697,0.01367548979850572,0.9998989832345604,0.0,0.0,0.0,0.0,0.0,0.0,0.0,0.0,0.0,-0.00016513506419589544,5.9227114851255135e-05,-0.027320182424885146,0.0,0.0,0.0,0.0,0.0,0.0,0.0,0.0,0.0,0.0020728705222541953,-0.006805444906311635,4.089444719188144e-05,0.0,0.0,0.0,0.0,0.0,0.0,0.0,0.0,0.0
7.001,193,7,1000000,base_footprint,-5.94904010712996e-05,0.0038668195227012487,0.01311055847069134,0.9999065743479526,0.0,0.0,0.0,0.0,0.0,0.0,0.0,0.0,0.0,0.002084961954235172,-0.0029090568274342697,-0.0710769123636145,0.0,0.0,0.0,0.0,0.0,0.0,0.0,0.0,0.0,0.014035258234770616,-0.003962491284916545,0.005283169487469119,0.0,0.0,0.0,0.0,0.0,0.0,0.0,0.0,0.0
7.036,194,7,35000000,base_footprint,-4.313109910336549e-05,0.0038613802153454726,0.011639763696197725,0.9999247990642285,0.0,0.0,0.0,0.0,0.0,0.0,0.0,0.0,0.0,0.001354859671408211,0.0005754968888579004,-0.07449122629000023,0.0,0.0,0.0,0.0,0.0,0.0,0.0,0.0,0.0,-0.09411362528935299,-0.025815241441980826,-0.000989926563503183,0.0,0.0,0.0,0.0,0.0,0.0,0.0,0.0,0.0
7.069,195,7,69000000,base_footprint,-5.0627033154738146e-05,0.0038809678729664326,0.010729875620744922,0.9999349005282474,0.0,0.0,0.0,0.0,0.0,0.0,0.0,0.0,0.0,-0.002728342012499437,-0.00035131425335828913,-0.042487001412298435,0.0,0.0,0.0,0.0,0.0,0.0,0.0,0.0,0.0,-0.10019388183609014,-0.03133846594003122,-0.002133868877359902,0.0,0.0,0.0,0.0,0.0,0.0,0.0,0.0,0.0
7.103,196,7,103000000,base_footprint,-4.633162671597804e-05,0.0038686243185972113,0.009975381279067474,0.9999427600455935,0.0,0.0,0.0,0.0,0.0,0.0,0.0,0.0,0.0,0.0012379650239694954,0.00030707941680400405,-0.027946522935697715,0.0,0.0,0.0,0.0,0.0,0.0,0.0,0.0,0.0,-0.19094339412600103,0.0006653374183636976,0.0012900724288473526,0.0,0.0,0.0,0.0,0.0,0.0,0.0,0.0,0.0
7.1370000000000005,197,7,137000000,base_footprint,-4.712956838976343e-05,0.0038744695697540826,0.009720124709569122,0.9999452512212793,0.0,0.0,0.0,0.0,0.0,0.0,0.0,0.0,0.0,-1.762187667674191e-05,-0.0003344544753971795,-0.018690799855836243,0.0,0.0,0.0,0.0,0.0,0.0,0.0,0.0,0.0,-0.006663615808178559,-0.0018262044335172166,0.0003466554375476697,0.0,0.0,0.0,0.0,0.0,0.0,0.0,0.0,0.0
7.171,198,7,171000000,base_footprint,-4.568546858201918e-05,0.0038705781596491237,0.009421819387904371,0.9999481215827998,0.0,0.0,0.0,0.0,0.0,0.0,0.0,0.0,0.0,-8.750456695896013e-05,-0.000197958752180745,-0.017276417239398295,0.0,0.0,0.0,0.0,0.0,0.0,0.0,0.0,0.0,-0.0027266493962676656,-0.006963477799986523,-0.0002807963994429509,0.0,0.0,0.0,0.0,0.0,0.0,0.0,0.0,0.0
7.207,199,7,205000000,base_footprint,-4.326316018670648e-05,0.0038530805139071573,0.009179043473482109,0.9999504473021472,0.0,0.0,0.0,0.0,0.0,0.0,0.0,0.0,0.0,0.00013249123220779842,-8.301976670614593e-05,-0.001830893759624865,0.0,0.0,0.0,0.0,0.0,0.0,0.0,0.0,0.0,0.19935670783285644,0.0034553336253809186,-0.0009609028121925813,0.0,0.0,0.0,0.0,0.0,0.0,0.0,0.0,0.0
7.239,200,7,239000000,base_footprint,-4.313314395139337e-05,0.003855156599965461,0.009006478274917806,0.9999520084765096,0.0,0.0,0.0,0.0,0.0,0.0,0.0,0.0,0.0,-8.20010954105363e-05,-0.002002352930247191,-0.02492135741231566,0.0,0.0,0.0,0.0,0.0,0.0,0.0,0.0,0.0,0.14111726438788458,0.0007508942993630887,0.00041860487627668787,0.0,0.0,0.0,0.0,0.0,0.0,0.0,0.0,0.0
7.273,201,7,273000000,base_footprint,-4.141776368029921e-05,0.0038609434047827524,0.00855973394864375,0.9999559102057062,0.0,0.0,0.0,0.0,0.0,0.0,0.0,0.0,0.0,-0.0001268485294962287,-0.00020893667963176564,-0.02665861159868469,0.0,0.0,0.0,0.0,0.0,0.0,0.0,0.0,0.0,0.01922687163271332,-0.0017926461831838626,-0.0019207306809500095,0.0,0.0,0.0,0.0,0.0,0.0,0.0,0.0,0.0
7.307,202,7,307000000,base_footprint,-3.958984740358414e-05,0.0038605715722503497,0.008164198175096227,0.9999592193124365,0.0,0.0,0.0,0.0,0.0,0.0,0.0,0.0,0.0,-5.940690252471896e-05,-0.00021961348150847045,-0.01758428034151373,0.0,0.0,0.0,0.0,0.0,0.0,0.0,0.0,0.0,0.0033943769792940484,-0.0054702848126408285,-6.867531607426901e-05,0.0,0.0,0.0,0.0,0.0,0.0,0.0,0.0,0.0
7.341,203,7,341000000,base_footprint,-3.8380353167508505e-05,0.0038618115068506835,0.007859431009091998,0.9999616564064082,0.0,0.0,0.0,0.0,0.0,0.0,0.0,0.0,0.0,-9.131205110169497e-05,-8.744459538981686e-05,-0.01815895903585851,0.0,0.0,0.0,0.0,0.0,0.0,0.0,0.0,0.0,0.006155059912200581,-0.0035147533111121315,-0.0003093303621253367,0.0,0.0,0.0,0.0,0.0,0.0,0.0,0.0,0.0
7.375,204,7,375000000,base_footprint,-3.739416585709078e-05,0.0038648054394375794,0.00754767304432023,0.9999640466097807,0.0,0.0,0.0,0.0,0.0,0.0,0.0,0.0,0.0,-0.00011228168868772723,2.144131859917403e-05,-0.018538456191745056,0.0,0.0,0.0,0.0,0.0,0.0,0.0,0.0,0.0,0.0057572263287665945,-0.0040208906600877935,-0.0002861543484573917,0.0,0.0,0.0,0.0,0.0,0.0,0.0,0.0,0.0
7.409,205,7,409000000,base_footprint,-3.667012932549624e-05,0.003869884664755809,0.007225434881418123,0.9999664073051443,0.0,0.0,0.0,0.0,0.0,0.0,0.0,0.0,0.0,-0.0002003621193232643,0.0001813480932925664,-0.019416884459629146,0.0,0.0,0.0,0.0,0.0,0.0,0.0,0.0,0.0,0.005164449069661497,-0.004249262204582866,-0.000541812495596379,0.0,0.0,0.0,0.0,0.0,0.0,0.0,0.0,0.0
7.443,206,7,443000000,base_footprint,-3.506860054217095e-05,0.003873179675020871,0.006895828539194912,0.9999687219099187,0.0,0.0,0.0,0.0,0.0,0.0,0.0,0.0,0.0,-0.00010795953107343677,5.443298318891661e-05,-0.019333319467844747,0.0,0.0,0.0,0.0,0.0,0.0,0.0,0.0,0.0,0.0020682545017180315,-0.005244220674620121,0.0001764896897481333,0.0,0.0,0.0,0.0,0.0,0.0,0.0,0.0,0.0
7.477,207,7,477000000,base_footprint,-3.3231857159838626e-05,0.0038760937314690335,0.006572148256921826,0.9999708904064746,0.0,0.0,0.0,0.0,0.0,0.0,0.0,0.0,0.0,-8.914892389981835e-05,-1.0824023392772433e-06,-0.018703728374195035,0.0,0.0,0.0,0.0,0.0,0.0,0.0,0.0,0.0,-0.004613581986162009,-0.004981032432634372,0.00013691946459081156,0.0,0.0,0.0,0.0,0.0,0.0,0.0,0.0,0.0
7.511,208,7,511000000,base_footprint,-3.2108735467498065e-05,0.0038746043535404138,0.006326532292018526,0.9999724803209791,0.0,0.0,0.0,0.0,0.0,0.0,0.0,0.0,0.0,0.00013512604905094826,-0.00034997851601162,-0.005412985199101096,0.0,0.0,0.0,0.0,0.0,0.0,0.0,0.0,0.0,-0.010194841470706545,-0.006952256479194323,0.0008020283824283998,0.0,0.0,0.0,0.0,0.0,0.0,0.0,0.0,0.0
7.545,209,7,545000000,base_footprint,-2.7686402673361603e-05,0.0038695032595222984,0.0063305815066389565,0.9999724745790632,0.0,0.0,0.0,0.0,0.0,0.0,0.0,0.0,0.0,4.683270923521098e-05,-0.0001538054745137478,0.009097066003769135,0.0,0.0,0.0,0.0,0.0,0.0,0.0,0.0,0.0,-0.040490763807464074,-0.015171991567795131,-5.036416817578e-05,0.0,0.0,0.0,0.0,0.0,0.0,0.0,0.0,0.0
7.579,210,7,579000000,base_footprint,-2.924506869946859e-05,0.0038709901673385245,0.006451675871706257,0.9999716948285571,0.0,0.0,0.0,0.0,0.0,0.0,0.0,0.0,0.0,0.0006019590900620505,0.0005576107068218202,0.0031455002920045506,0.0,0.0,0.0,0.0,0.0,0.0,0.0,0.0,0.0,-0.021413112336375745,0.021924365430100824,-0.001242583104074034,0.0,0.0,0.0,0.0,0.0,0.0,0.0,0.0,0.0
7.6129999999999995,211,7,613000000,base_footprint,-3.273692355511382e-05,0.0038737722249585975,0.006884191301284931,0.9999687998768614,0.0,0.0,0.0,0.0,0.0,0.0,0.0,0.0,0.0,-0.000514980447020349,0.0010809733515610113,0.05919321927908902,0.0,0.0,0.0,0.0,0.0,0.0,0.0,0.0,0.0,0.01493945320029021,-0.00012723287292635372,-0.0012936249078885876,0.0,0.0,0.0,0.0,0.0,0.0,0.0,0.0,0.0
7.647,212,7,647000000,base_footprint,-3.918844830401303e-05,0.0038718258005329856,0.007836951779555847,0.9999617940781743,0.0,0.0,0.0,0.0,0.0,0.0,0.0,0.0,0.0,0.0004040289296886809,-0.0002095135732848585,0.0562462933256185,0.0,0.0,0.0,0.0,0.0,0.0,0.0,0.0,0.0,0.003584468859978387,0.017645761067372596,0.002697285244481702,0.0,0.0,0.0,0.0,0.0,0.0,0.0,0.0,0.0
7.681,213,7,681000000,base_footprint,-4.2092662150428356e-05,0.003867260028266059,0.008792582544223859,0.9999538654459438,0.0,0.0,0.0,0.0,0.0,0.0,0.0,0.0,0.0,0.0004553637826317162,-0.0006206590437268199,0.05714460148168329,0.0,0.0,0.0,0.0,0.0,0.0,0.0,0.0,0.0,0.003354103434591777,0.008571758693184132,0.0009504138228223568,0.0,0.0,0.0,0.0,0.0,0.0,0.0,0.0,0.0
7.715,214,7,715000000,base_footprint,-4.5594048684091254e-05,0.0038636400659578696,0.00984779265089136,0.999944044027729,0.0,0.0,0.0,0.0,0.0,0.0,0.0,0.0,0.0,0.0005796908717894546,-0.00039524030288311956,0.06506594351953066,0.0,0.0,0.0,0.0,0.0,0.0,0.0,0.0,0.0,0.0028940851138758127,0.015349029002029847,-0.00041957336778232626,0.0,0.0,0.0,0.0,0.0,0.0,0.0,0.0,0.0
7.749,215,7,749000000,base_footprint,-5.014677354002437e-05,0.003860081388041907,0.01096670890450407,0.9999324119923221,0.0,0.0,0.0,0.0,0.0,0.0,0.0,0.0,0.0,0.0005867700152168775,-0.00019304576722353062,0.06551812057202264,0.0,0.0,0.0,0.0,0.0,0.0,0.0,0.0,0.0,0.004578390311989924,0.01619662513290953,-0.0004090823601900133,0.0,0.0,0.0,0.0,0.0,0.0,0.0,0.0,0.0
7.783,216,7,783000000,base_footprint,-5.409150399093453e-05,0.0038599865824430744,0.01207693333678476,0.9999196193989152,0.0,0.0,0.0,0.0,0.0,0.0,0.0,0.0,0.0,0.00057158561912743,-0.0001419454938532019,0.06508397904027206,0.0,0.0,0.0,0.0,0.0,0.0,0.0,0.0,0.0,0.005208107003957015,0.014139076004456885,-0.00014653868551073836,0.0,0.0,0.0,0.0,0.0,0.0,0.0,0.0,0.0
7.817,217,7,817000000,base_footprint,-5.232337957010364e-05,0.0038623252801417572,0.01160032714357088,0.9999252532643911,0.0,0.0,0.0,0.0,0.0,0.0,0.0,0.0,0.0,-0.0008330623462627368,0.00015554416162127162,-0.1040227967799272,0.0,0.0,0.0,0.0,0.0,0.0,0.0,0.0,0.0,0.03674535389476724,-0.0006240535601202674,-0.0009832212795329303,0.0,0.0,0.0,0.0,0.0,0.0,0.0,0.0,0.0
7.851,218,7,851000000,base_footprint,-5.0060521701379734e-05,0.003867936843358411,0.011055801272835432,0.999931400555426,0.0,0.0,0.0,0.0,0.0,0.0,0.0,0.0,0.0,-0.0009348267922574053,0.001189352974565027,0.0562366110872031,0.0,0.0,0.0,0.0,0.0,0.0,0.0,0.0,0.0,-0.35884220211468104,-0.030803762856355037,0.00032005790370626396,0.0,0.0,0.0,0.0,0.0,0.0,0.0,0.0,0.0
7.885,219,7,885000000,base_footprint,-5.443151384036451e-05,0.0038695568818359013,0.012036808930136495,0.9999200662040582,0.0,0.0,0.0,0.0,0.0,0.0,0.0,0.0,0.0,0.00042332984428564553,0.00016349873456846152,0.057489833795139896,0.0,0.0,0.0,0.0,0.0,0.0,0.0,0.0,0.0,-0.0006781751606083985,0.015531326037539041,0.0022775688919760167,0.0,0.0,0.0,0.0,0.0,0.0,0.0,0.0,0.0
7.9190000000000005,220,7,919000000,base_footprint,-6.157187153177962e-05,0.003869624919070714,0.013290401103260232,0.9999041891353415,0.0,0.0,0.0,0.0,0.0,0.0,0.0,0.0,0.0,0.0002828609874329194,0.0010157696168260036,0.11412442008634623,0.0,0.0,0.0,0.0,0.0,0.0,0.0,0.0,0.0,0.28273521921848227,0.032715877591189116,-0.003677323558707039,0.0,0.0,0.0,0.0,0.0,0.0,0.0,0.0,0.0
7.953,221,7,953000000,base_footprint,-6.897358836605277e-05,0.0038782324709698396,0.015509150426489211,0.999872202238163,0.0,0.0,0.0,0.0,0.0,0.0,0.0,0.0,0.0,0.0008655754847259198,2.637902251780126e-05,0.130512387284441,0.0,0.0,0.0,0.0,0.0,0.0,0.0,0.0,0.0,0.03288093651708849,0.02672657106664487,0.001408607136104395,0.0,0.0,0.0,0.0,0.0,0.0,0.0,0.0,0.0
7.987,222,7,987000000,base_footprint,-7.97394910069119e-05,0.0038759193236402247,0.01768069778562533,0.9998361684880297,0.0,0.0,0.0,0.0,0.0,0.0,0.0,0.0,0.0,0.0007937662499445298,-0.000516268411247449,0.12160854544842424,0.0,0.0,0.0,0.0,0.0,0.0,0.0,0.0,0.0,-0.00790739752205847,0.023724274100218965,0.0011294062522557964,0.0,0.0,0.0,0.0,0.0,0.0,0.0,0.0,0.0
8.021,223,8,21000000,base_footprint,-8.491995523915296e-05,0.003866192478915666,0.01960851303413714,0.9998002558315873,0.0,0.0,0.0,0.0,0.0,0.0,0.0,0.0,0.0,0.0014263104578303625,-2.9412133370367426e-05,0.10847474178405263,0.0,0.0,0.0,0.0,0.0,0.0,0.0,0.0,0.0,-0.04628653857478124,0.007171800715636517,-0.0002851348121432616,0.0,0.0,0.0,0.0,0.0,0.0,0.0,0.0,0.0
8.055,224,8,55000000,base_footprint,-9.059128293023157e-05,0.0038684774918520456,0.021807559793040204,0.999754698419061,0.0,0.0,0.0,0.0,0.0,0.0,0.0,0.0,0.0,0.0007629199962682586,-0.0005579789068442048,0.13327225063757606,0.0,0.0,0.0,0.0,0.0,0.0,0.0,0.0,0.0,-0.03643633993463009,0.04857417349600994,-8.129816260050721e-06,0.0,0.0,0.0,0.0,0.0,0.0,0.0,0.0,0.0
8.089,225,8,89000000,base_footprint,-0.0001037123673663832,0.0038722785049647578,0.0239187198388025,0.9997064016721099,0.0,0.0,0.0,0.0,0.0,0.0,0.0,0.0,0.0,0.0007793887942847864,0.0001119520713280886,0.11311630934318698,0.0,0.0,0.0,0.0,0.0,0.0,0.0,0.0,0.0,0.0582072488551735,0.031125178803785482,-0.00042468609738826295,0.0,0.0,0.0,0.0,0.0,0.0,0.0,0.0,0.0
8.123,226,8,123000000,base_footprint,-0.00010975722752551714,0.0038680179357224818,0.02574188696215204,0.9996611334078302,0.0,0.0,0.0,0.0,0.0,0.0,0.0,0.0,0.0,0.0008662416814555197,-0.00018279958838993235,0.1062647531505924,0.0,0.0,0.0,0.0,0.0,0.0,0.0,0.0,0.0,-0.0067657178878186355,0.02097441823452643,0.00047165374347208115,0.0,0.0,0.0,0.0,0.0,0.0,0.0,0.0,0.0
8.157,227,8,157000000,base_footprint,-0.00011719897998646067,0.0038643424958952487,0.027550525127280887,0.9996129359340468,0.0,0.0,0.0,0.0,0.0,0.0,0.0,0.0,0.0,0.0007467314667384174,-0.0002464149372438289,0.10662419811222573,0.0,0.0,0.0,0.0,0.0,0.0,0.0,0.0,0.0,0.001846188421667894,0.023235266564621077,0.00013015846462303927,0.0,0.0,0.0,0.0,0.0,0.0,0.0,0.0,0.0
8.19,228,8,191000000,base_footprint,-0.00012321883419429328,0.0038606520168762777,0.02936234845663773,0.9995613701400402,0.0,0.0,0.0,0.0,0.0,0.0,0.0,0.0,0.0,0.0009706657654991302,-0.00027530883277550143,0.10651933054680639,0.0,0.0,0.0,0.0,0.0,0.0,0.0,0.0,0.0,0.002647103143874739,0.023622463582339846,0.00025266354818529856,0.0,0.0,0.0,0.0,0.0,0.0,0.0,0.0,0.0
8.225,229,8,225000000,base_footprint,-0.00013294610720762483,0.003858138232433145,0.03219458601215457,0.9994741646116813,0.0,0.0,0.0,0.0,0.0,0.0,0.0,0.0,0.0,0.0014653575493868156,-0.00010755149829301431,0.17401868593524739,0.0,0.0,0.0,0.0,0.0,0.0,0.0,0.0,0.0,-0.016431520998742174,0.03415520524595119,-0.0001297607934307104,0.0,0.0,0.0,0.0,0.0,0.0,0.0,0.0,0.0
8.259,230,8,259000000,base_footprint,-0.00014336068385059603,0.0038575616372439913,0.03514895341392834,0.9993746293256772,0.0,0.0,0.0,0.0,0.0,0.0,0.0,0.0,0.0,0.0014618525533918569,-4.7909921651695384e-05,0.17376078634568876,0.0,0.0,0.0,0.0,0.0,0.0,0.0,0.0,0.0,0.0006100623629389989,0.03812371835777831,-0.0001424416418012772,0.0,0.0,0.0,0.0,0.0,0.0,0.0,0.0,0.0
8.293,231,8,293000000,base_footprint,-0.00015383473623107176,0.00385864340803387,0.038098291110818125,0.9992665347245244,0.0,0.0,0.0,0.0,0.0,0.0,0.0,0.0,0.0,0.0014583148846739095,5.390475700432612e-05,0.17347932422715617,0.0,0.0,0.0,0.0,0.0,0.0,0.0,0.0,0.0,0.00015982924834827446,0.03827944651605377,-0.00021665159612440702,0.0,0.0,0.0,0.0,0.0,0.0,0.0,0.0,0.0
8.327,232,8,327000000,base_footprint,-0.00015710994223753293,0.0038603667761161285,0.0381900865302372,0.999263023520651,0.0,0.0,0.0,0.0,0.0,0.0,0.0,0.0,0.0,0.0022000833078116345,0.0004823873139348413,-0.07596722794549654,0.0,0.0,0.0,0.0,0.0,0.0,0.0,0.0,0.0,-0.2406864220889952,-0.029861697396538274,-0.0007183803044141169,0.0,0.0,0.0,0.0,0.0,0.0,0.0,0.0,0.0
8.361,233,8,361000000,base_footprint,-0.00016122861992441513,0.0038648767940206667,0.04007707018702143,0.9991891038126486,0.0,0.0,0.0,0.0,0.0,0.0,0.0,0.0,0.0,0.0014874516767399459,-6.245673496180288e-05,0.1680782684279535,0.0,0.0,0.0,0.0,0.0,0.0,0.0,0.0,0.0,-0.09252277283623606,0.0009211956022319345,0.00320731858199758,0.0,0.0,0.0,0.0,0.0,0.0,0.0,0.0,0.0
8.395,234,8,395000000,base_footprint,-0.0001712905378247207,0.003870256868721037,0.04289632588461703,0.9990720179230937,0.0,0.0,0.0,0.0,0.0,0.0,0.0,0.0,0.0,0.0015754491361361193,0.00048572832160680526,0.17075496845259444,0.0,0.0,0.0,0.0,0.0,0.0,0.0,0.0,0.0,-0.03232941296749821,0.033902257148557984,0.0052406741125519,0.0,0.0,0.0,0.0,0.0,0.0,0.0,0.0,0.0
8.429,235,8,429000000,base_footprint,-0.0001887443166695331,0.003866973870728298,0.046223218099194455,0.9989236332158832,0.0,0.0,0.0,0.0,0.0,0.0,0.0,0.0,0.0,0.002585961990018225,0.002039615974163847,0.17946821734303045,0.0,0.0,0.0,0.0,0.0,0.0,0.0,0.0,0.0,-0.2893325789540392,-0.021012524512512367,-0.005165191388465116,0.0,0.0,0.0,0.0,0.0,0.0,0.0,0.0,0.0
8.463,236,8,463000000,base_footprint,-0.0001962545118430494,0.003870632029663994,0.04899290854914557,0.998791607195291,0.0,0.0,0.0,0.0,0.0,0.0,0.0,0.0,0.0,0.0008332682416304831,-0.00013048906899969855,0.1597128243906419,0.0,0.0,0.0,0.0,0.0,0.0,0.0,0.0,0.0,-0.035325241184690055,0.033969419639700724,0.0025229540217078434,0.0,0.0,0.0,0.0,0.0,0.0,0.0,0.0,0.0
8.497,237,8,497000000,base_footprint,-0.0002142203307550883,0.003864611991868116,0.05162905902842524,0.9986588302056121,0.0,0.0,0.0,0.0,0.0,0.0,0.0,0.0,0.0,0.00014662876617612436,-0.004115473442024307,0.15478940888997667,0.0,0.0,0.0,0.0,0.0,0.0,0.0,0.0,0.0,-0.004089984210939321,0.027428927097556205,0.006764241807965555,0.0,0.0,0.0,0.0,0.0,0.0,0.0,0.0,0.0
8.531,238,8,531000000,base_footprint,-0.00021791683418325854,0.0038562564114868205,0.054652001540317664,0.9984979922495485,0.0,0.0,0.0,0.0,0.0,0.0,0.0,0.0,0.0,0.0036709945138347637,0.0009923371993070425,0.21159042231071246,0.0,0.0,0.0,0.0,0.0,0.0,0.0,0.0,0.0,0.0939605765565213,0.05387119540556553,-0.007684424821082083,0.0,0.0,0.0,0.0,0.0,0.0,0.0,0.0,0.0
8.565,239,8,565000000,base_footprint,-0.00022499976577777776,0.003853289539799937,0.05842474303652367,0.9982843537469392,0.0,0.0,0.0,0.0,0.0,0.0,0.0,0.0,0.0,0.004414327365116001,-0.0010427703091492207,0.22345581171530315,0.0,0.0,0.0,0.0,0.0,0.0,0.0,0.0,0.0,-0.03504683339976785,0.04393401498463154,0.005707873975223352,0.0,0.0,0.0,0.0,0.0,0.0,0.0,0.0,0.0
8.599,240,8,599000000,base_footprint,-0.00024533189218482206,0.0038680058730327584,0.062002800720660056,0.9980684500802653,0.0,0.0,0.0,0.0,0.0,0.0,0.0,0.0,0.0,-0.0010101366970256748,0.001564761467300982,0.18273483454537393,0.0,0.0,0.0,0.0,0.0,0.0,0.0,0.0,0.0,-0.057358443080804046,0.030137759604486922,-0.00818180106825286,0.0,0.0,0.0,0.0,0.0,0.0,0.0,0.0,0.0
8.633,241,8,633000000,base_footprint,-0.0002537873035753474,0.0038394352772323785,0.06471987292589772,0.9978960528918892,0.0,0.0,0.0,0.0,0.0,0.0,0.0,0.0,0.0,0.000766226420677384,0.0013484581685642993,0.19697580463616055,0.0,0.0,0.0,0.0,0.0,0.0,0.0,0.0,0.0,-0.3141214311843876,-0.06391778697805223,0.005023363924656041,0.0,0.0,0.0,0.0,0.0,0.0,0.0,0.0,0.0
8.667,242,8,667000000,base_footprint,-0.0002677478769503116,0.003851900203038965,0.06767623888082105,0.9976998636197393,0.0,0.0,0.0,0.0,0.0,0.0,0.0,0.0,0.0,-0.0012392936769302447,0.002213099607921413,0.13370474144714722,0.0,0.0,0.0,0.0,0.0,0.0,0.0,0.0,0.0,0.24850464876645947,0.10879406715088599,-0.005802249444415751,0.0,0.0,0.0,0.0,0.0,0.0,0.0,0.0,0.0
8.701,243,8,701000000,base_footprint,-0.0002747410154674884,0.003842329329804312,0.0699728877668529,0.9975414557802915,0.0,0.0,0.0,0.0,0.0,0.0,0.0,0.0,0.0,0.0014029431460616008,0.0007429214776485536,0.15385206900129134,0.0,0.0,0.0,0.0,0.0,0.0,0.0,0.0,0.0,0.1462518086230393,0.06758367719686793,0.0037004703929954166,0.0,0.0,0.0,0.0,0.0,0.0,0.0,0.0,0.0
8.735,244,8,735000000,base_footprint,-0.00028306107600223487,0.003843477288796168,0.07220581033647783,0.9973823081007656,0.0,0.0,0.0,0.0,0.0,0.0,0.0,0.0,0.0,0.0009684936044570941,0.0015227265487319588,0.13485564158091373,0.0,0.0,0.0,0.0,0.0,0.0,0.0,0.0,0.0,0.34850399320194364,0.13165412633512302,-0.0038712974944801817,0.0,0.0,0.0,0.0,0.0,0.0,0.0,0.0,0.0
8.769,245,8,769000000,base_footprint,-0.0002905978464085126,0.003851073188581661,0.07378890432071039,0.9972664049226451,0.0,0.0,0.0,0.0,0.0,0.0,0.0,0.0,0.0,0.000846011038178228,-9.78143021563046e-05,0.08237771033248778,0.0,0.0,0.0,0.0,0.0,0.0,0.0,0.0,0.0,0.1681688435642017,0.07554687085209562,-0.00013603352017689047,0.0,0.0,0.0,0.0,0.0,0.0,0.0,0.0,0.0
8.803,246,8,803000000,base_footprint,-0.00029859338058209773,0.003853311301228519,0.07523835112775966,0.9971580884461525,0.0,0.0,0.0,0.0,0.0,0.0,0.0,0.0,0.0,0.0010974667592798834,-0.0010953648131234934,0.10358679019203063,0.0,0.0,0.0,0.0,0.0,0.0,0.0,0.0,0.0,-0.24970745583258372,-0.05536117964474281,0.002927197914463284,0.0,0.0,0.0,0.0,0.0,0.0,0.0,0.0,0.0
8.837,247,8,837000000,base_footprint,-0.00030224413288698154,0.003845351011633739,0.0772362560123959,0.9970053573984792,0.0,0.0,0.0,0.0,0.0,0.0,0.0,0.0,0.0,0.000758633458918796,0.00014267151067043617,0.1005796141233706,0.0,0.0,0.0,0.0,0.0,0.0,0.0,0.0,0.0,-0.21896184505638963,-0.04642004204735611,0.0006685679957997668,0.0,0.0,0.0,0.0,0.0,0.0,0.0,0.0,0.0
8.871,248,8,871000000,base_footprint,-0.0003061486944187914,0.003856877747710515,0.07863859355820325,0.9968956827924393,0.0,0.0,0.0,0.0,0.0,0.0,0.0,0.0,0.0,0.000764357452765059,0.00010260413236510626,0.07864690823184699,0.0,0.0,0.0,0.0,0.0,0.0,0.0,0.0,0.0,0.13837272187836602,0.06232249617845612,-0.001588544808465536,0.0,0.0,0.0,0.0,0.0,0.0,0.0,0.0,0.0
8.905,249,8,905000000,base_footprint,-0.0003157017156649809,0.0038465581824921368,0.08013496029763063,0.9967765509183454,0.0,0.0,0.0,0.0,0.0,0.0,0.0,0.0,0.0,0.00046297610604873607,0.001319343631003021,0.13323934143433544,0.0,0.0,0.0,0.0,0.0,0.0,0.0,0.0,0.0,-0.19616056608809393,-0.04584709328160276,0.0009516186478646325,0.0,0.0,0.0,0.0,0.0,0.0,0.0,0.0,0.0
8.939,250,8,939000000,base_footprint,-0.0003257503149988085,0.0038492265388539353,0.0831287554498526,0.9965313278362821,0.0,0.0,0.0,0.0,0.0,0.0,0.0,0.0,0.0,0.0019568581996553722,0.0015437696448770677,0.13263698565864004,0.0,0.0,0.0,0.0,0.0,0.0,0.0,0.0,0.0,-0.16314899306607933,-0.019811611621347112,0.0006680001633174424,0.0,0.0,0.0,0.0,0.0,0.0,0.0,0.0,0.0
8.973,251,8,973000000,base_footprint,-0.0003360499066157936,0.0038588283277381365,0.08453253708536596,0.9964131907438342,0.0,0.0,0.0,0.0,0.0,0.0,0.0,0.0,0.0,-0.0006263436375312705,-0.0023514460755278046,0.06664543419132084,0.0,0.0,0.0,0.0,0.0,0.0,0.0,0.0,0.0,0.05132349435998944,0.03650741133885985,0.003914322758605325,0.0,0.0,0.0,0.0,0.0,0.0,0.0,0.0,0.0
9.007,252,9,7000000,base_footprint,-0.0003424393207314015,0.003864517912140504,0.08548774169335023,0.9963316688015038,0.0,0.0,0.0,0.0,0.0,0.0,0.0,0.0,0.0,0.0007632926106416316,2.5174895039639022e-05,0.07649648366133255,0.0,0.0,0.0,0.0,0.0,0.0,0.0,0.0,0.0,-0.08446065312677975,-0.02182718492027978,-0.0024981440174637586,0.0,0.0,0.0,0.0,0.0,0.0,0.0,0.0,0.0
9.041,253,9,41000000,base_footprint,-0.00035257452496731775,0.0038414905017874882,0.08682471181213547,0.9962161352139749,0.0,0.0,0.0,0.0,0.0,0.0,0.0,0.0,0.0,-4.063994194423569e-06,-0.0014087312722432048,0.10621990464365402,0.0,0.0,0.0,0.0,0.0,0.0,0.0,0.0,0.0,0.08158307431103323,0.05035951376768967,0.0019448747094243518,0.0,0.0,0.0,0.0,0.0,0.0,0.0,0.0,0.0
9.075,254,9,75000000,base_footprint,-0.0003489502453288836,0.003847476116045158,0.08901788330085293,0.9960225356958037,0.0,0.0,0.0,0.0,0.0,0.0,0.0,0.0,0.0,0.001450881561320169,0.0008004922890074419,0.13865541782842808,0.0,0.0,0.0,0.0,0.0,0.0,0.0,0.0,0.0,-0.00038028743495666225,0.03407754204738239,-0.0034440838059401394,0.0,0.0,0.0,0.0,0.0,0.0,0.0,0.0,0.0
9.109,255,9,109000000,base_footprint,-0.00036048187149337265,0.0038467044177293245,0.09094855753108236,0.995848097252266,0.0,0.0,0.0,0.0,0.0,0.0,0.0,0.0,0.0,0.000766328971214402,-0.00010188445907921124,0.05430085957366331,0.0,0.0,0.0,0.0,0.0,0.0,0.0,0.0,0.0,-0.1144793570364366,-0.023122387347821446,0.001594164776307636,0.0,0.0,0.0,0.0,0.0,0.0,0.0,0.0,0.0
9.143,256,9,143000000,base_footprint,-0.00036574375552272275,0.0038525055942245424,0.09164674660161304,0.9957840620684243,0.0,0.0,0.0,0.0,0.0,0.0,0.0,0.0,0.0,0.0006495635115835981,-0.0004095557901236796,0.03302323411859733,0.0,0.0,0.0,0.0,0.0,0.0,0.0,0.0,0.0,0.03445121017117581,0.023172099028962174,0.0007982811906511292,0.0,0.0,0.0,0.0,0.0,0.0,0.0,0.0,0.0
9.177,257,9,177000000,base_footprint,-0.00036630914749018385,0.003848939905944725,0.092222909754407,0.9957308805071978,0.0,0.0,0.0,0.0,0.0,0.0,0.0,0.0,0.0,0.00033934359055754566,-0.00020593296857013895,0.0342023395019703,0.0,0.0,0.0,0.0,0.0,0.0,0.0,0.0,0.0,-0.0008784008017169828,0.003120729194034582,-0.0005189770992719132,0.0,0.0,0.0,0.0,0.0,0.0,0.0,0.0,0.0
9.211,258,9,211000000,base_footprint,-0.0003625404500481345,0.003835671361442077,0.09307614718750806,0.9956515389504295,0.0,0.0,0.0,0.0,0.0,0.0,0.0,0.0,0.0,0.0009068332219573398,-0.00015484931589408962,0.09101759435137044,0.0,0.0,0.0,0.0,0.0,0.0,0.0,0.0,0.0,0.30277102712907855,0.12822219991452186,-0.0023193319287028737,0.0,0.0,0.0,0.0,0.0,0.0,0.0,0.0,0.0
9.245,259,9,245000000,base_footprint,-0.0003698837845655329,0.0038442593403688503,0.09404101055416192,0.9955608334954031,0.0,0.0,0.0,0.0,0.0,0.0,0.0,0.0,0.0,-0.0013747742551234348,0.0017701620147737658,0.003951326529414878,0.0,0.0,0.0,0.0,0.0,0.0,0.0,0.0,0.0,0.339183611463037,0.1500238633328683,-0.006523095902231556,0.0,0.0,0.0,0.0,0.0,0.0,0.0,0.0,0.0
9.279,260,9,279000000,base_footprint,-0.0003686498780469195,0.0038451938847312915,0.09410556288610361,0.9955547305975427,0.0,0.0,0.0,0.0,0.0,0.0,0.0,0.0,0.0,0.0002456854032589504,-9.72601576202336e-05,0.0036836136936922834,0.0,0.0,0.0,0.0,0.0,0.0,0.0,0.0,0.0,0.0049235566815553486,0.0007079757990105797,0.0034927136686484085,0.0,0.0,0.0,0.0,0.0,0.0,0.0,0.0,0.0
9.313,261,9,313000000,base_footprint,-0.00036678905731954095,0.003849102273224066,0.09424418158758123,0.9955416034070926,0.0,0.0,0.0,0.0,0.0,0.0,0.0,0.0,0.0,-5.328906446140029e-05,0.0006639016092225914,0.004070276743791071,0.0,0.0,0.0,0.0,0.0,0.0,0.0,0.0,0.0,-0.29687813162431764,-0.12026589742462951,0.0014735420986066985,0.0,0.0,0.0,0.0,0.0,0.0,0.0,0.0,0.0
9.347,262,9,347000000,base_footprint,-0.00036627318373808385,0.0038493815072373487,0.09429331055146348,0.9955369504399181,0.0,0.0,0.0,0.0,0.0,0.0,0.0,0.0,0.0,0.00019648350158832088,5.413961244304271e-05,0.0021137146677357136,0.0,0.0,0.0,0.0,0.0,0.0,0.0,0.0,0.0,-0.010966057591112495,0.0001661586933229401,0.0006587581353773277,0.0,0.0,0.0,0.0,0.0,0.0,0.0,0.0,0.0
9.381,263,9,381000000,base_footprint,-0.0003661905520540328,0.0038516907133845962,0.09431188516304775,0.9955351820503985,0.0,0.0,0.0,0.0,0.0,0.0,0.0,0.0,0.0,0.0001195774637790533,4.0908854001807905e-05,-5.202843867095305e-06,0.0,0.0,0.0,0.0,0.0,0.0,0.0,0.0,0.0,0.0020198727262944983,0.0011133223113576143,-0.00011914470521693155,0.0,0.0,0.0,0.0,0.0,0.0,0.0,0.0,0.0
9.415,264,9,415000000,base_footprint,-0.0003773325206280542,0.003844809274559726,0.09471731971389091,0.9954967124044297,0.0,0.0,0.0,0.0,0.0,0.0,0.0,0.0,0.0,-3.589697229850983e-05,0.0006261723563046014,0.039467869344357205,0.0,0.0,0.0,0.0,0.0,0.0,0.0,0.0,0.0,-0.22438469878595854,-0.08729169243463275,0.001918383674419875,0.0,0.0,0.0,0.0,0.0,0.0,0.0,0.0,0.0
9.449,265,9,449000000,base_footprint,-0.0003711788889301805,0.0038576810532590343,0.09508093988620804,0.9954620009791831,0.0,0.0,0.0,0.0,0.0,0.0,0.0,0.0,0.0,0.00017400749532807088,0.0007448468209557545,0.01091673684915756,0.0,0.0,0.0,0.0,0.0,0.0,0.0,0.0,0.0,-0.05599868532922358,-0.013513851765436197,-0.0008891892918212698,0.0,0.0,0.0,0.0,0.0,0.0,0.0,0.0,0.0
9.483,266,9,483000000,base_footprint,-0.0003797145756636385,0.0038509494349016913,0.09514341022477973,0.9954560550301003,0.0,0.0,0.0,0.0,0.0,0.0,0.0,0.0,0.0,-0.0007277229674427257,-0.000686817342564793,-0.012833102645792717,0.0,0.0,0.0,0.0,0.0,0.0,0.0,0.0,0.0,-0.04755654922858408,-0.016025370734082552,0.002172139500751214,0.0,0.0,0.0,0.0,0.0,0.0,0.0,0.0,0.0
9.517,267,9,517000000,base_footprint,-0.00038052735170938424,0.0038405410741221674,0.09465930472898398,0.9955022458394648,0.0,0.0,0.0,0.0,0.0,0.0,0.0,0.0,0.0,-0.0002739994128161472,-9.726999732405489e-05,-0.035675796796814006,0.0,0.0,0.0,0.0,0.0,0.0,0.0,0.0,0.0,0.15533008307174392,0.054398140858926594,-0.0015967319472491887,0.0,0.0,0.0,0.0,0.0,0.0,0.0,0.0,0.0
9.551,268,9,551000000,base_footprint,-0.00037259274516941525,0.0038490028209076867,0.0943825421183688,0.9955284938640406,0.0,0.0,0.0,0.0,0.0,0.0,0.0,0.0,0.0,-0.0009634920283215057,-0.0002170869694167673,-0.006563567935192506,0.0,0.0,0.0,0.0,0.0,0.0,0.0,0.0,0.0,0.16008239757588205,0.05845062132432434,-0.0022590221116905174,0.0,0.0,0.0,0.0,0.0,0.0,0.0,0.0,0.0
9.585,269,9,585000000,base_footprint,-0.000376754637187422,0.003860601126526776,0.09363210012252393,0.995599308779155,0.0,0.0,0.0,0.0,0.0,0.0,0.0,0.0,0.0,0.0001751547348326201,-0.00011801156118869623,-0.062302777530543446,0.0,0.0,0.0,0.0,0.0,0.0,0.0,0.0,0.0,-0.1443833534249689,-0.06873211615585642,0.0035613317864696473,0.0,0.0,0.0,0.0,0.0,0.0,0.0,0.0,0.0
9.619,270,9,619000000,base_footprint,-0.00036821057653471943,0.003849696115000621,0.09296050032554906,0.995662286942725,0.0,0.0,0.0,0.0,0.0,0.0,0.0,0.0,0.0,0.0003569243846087965,-0.00017768780545602956,-0.005966563411305496,0.0,0.0,0.0,0.0,0.0,0.0,0.0,0.0,0.0,-0.16617677020008637,-0.06947027535574432,0.0008918337035008473,0.0,0.0,0.0,0.0,0.0,0.0,0.0,0.0,0.0
9.653,271,9,653000000,base_footprint,-0.00037243351617359424,0.0038517656411612526,0.09300364097801382,0.9956582485770679,0.0,0.0,0.0,0.0,0.0,0.0,0.0,0.0,0.0,0.0004164038402600618,-0.0004303891790457431,0.0002228221442120671,0.0,0.0,0.0,0.0,0.0,0.0,0.0,0.0,0.0,-0.01420950425744947,-0.0034710544012941475,3.373134900300539e-05,0.0,0.0,0.0,0.0,0.0,0.0,0.0,0.0,0.0
9.687,272,9,687000000,base_footprint,-0.00036881333820088067,0.003845896000539402,0.09297747089566505,0.9956607167938888,0.0,0.0,0.0,0.0,0.0,0.0,0.0,0.0,0.0,-0.00046011546617924883,0.0006978960743275713,0.01461663877671743,0.0,0.0,0.0,0.0,0.0,0.0,0.0,0.0,0.0,-0.3044556463564231,-0.12746267961963537,0.0002153150884934104,0.0,0.0,0.0,0.0,0.0,0.0,0.0,0.0,0.0
9.721,273,9,721000000,base_footprint,-0.00037003025482238534,0.0038473299956097583,0.09307728246972909,0.9956513850829344,0.0,0.0,0.0,0.0,0.0,0.0,0.0,0.0,0.0,7.564228148332916e-05,-0.00019178330762125272,0.004526230025912133,0.0,0.0,0.0,0.0,0.0,0.0,0.0,0.0,0.0,-0.008835023389238245,0.0025930201499910306,0.0016773196136840255,0.0,0.0,0.0,0.0,0.0,0.0,0.0,0.0,0.0
9.755,274,9,755000000,base_footprint,-0.00036864951423955385,0.0038459636120366457,0.09315187899171422,0.995644414488297,0.0,0.0,0.0,0.0,0.0,0.0,0.0,0.0,0.0,0.0002774310318478496,-0.00019839687191512754,0.004328491446243585,0.0,0.0,0.0,0.0,0.0,0.0,0.0,0.0,0.0,0.0038505110150645547,0.002205926712088805,0.0002707298975422233,0.0,0.0,0.0,0.0,0.0,0.0,0.0,0.0,0.0
9.789,275,9,789000000,base_footprint,-0.0003655977166042429,0.0038375644195479575,0.09356830262274295,0.995605399835665,0.0,0.0,0.0,0.0,0.0,0.0,0.0,0.0,0.0,-0.000165806024644943,0.00012545060825552463,0.04590104839513195,0.0,0.0,0.0,0.0,0.0,0.0,0.0,0.0,0.0,0.573332250566794,0.22959227689858622,-0.006297174132364644,0.0,0.0,0.0,0.0,0.0,0.0,0.0,0.0,0.0
9.823,276,9,823000000,base_footprint,-0.0003765975540395543,0.003841404745809159,0.09586814888249474,0.9953865579832315,0.0,0.0,0.0,0.0,0.0,0.0,0.0,0.0,0.0,0.0019203096532107332,0.0008641913632089335,0.2056233690625431,0.0,0.0,0.0,0.0,0.0,0.0,0.0,0.0,0.0,0.3295565431973197,0.16186895753864264,-0.00228205753790658,0.0,0.0,0.0,0.0,0.0,0.0,0.0,0.0,0.0
9.857,277,9,857000000,base_footprint,-0.0003860795950662297,0.003845940167616343,0.0993162225946377,0.9950484147097094,0.0,0.0,0.0,0.0,0.0,0.0,0.0,0.0,0.0,0.00177678394295613,0.0003738714521725745,0.2032852267354402,0.0,0.0,0.0,0.0,0.0,0.0,0.0,0.0,0.0,-0.015616321084592067,0.04113383686621475,0.0006575123609209183,0.0,0.0,0.0,0.0,0.0,0.0,0.0,0.0,0.0
9.891,278,9,891000000,base_footprint,-0.0004075190251096831,0.0038378234540499697,0.1030173927869583,0.994672067478904,0.0,0.0,0.0,0.0,0.0,0.0,0.0,0.0,0.0,0.0014308237728860602,2.2456323563343656e-05,0.18582879014749404,0.0,0.0,0.0,0.0,0.0,0.0,0.0,0.0,0.0,-0.37238186002160534,-0.10929619436979124,0.0033557471410807383,0.0,0.0,0.0,0.0,0.0,0.0,0.0,0.0,0.0
9.925,279,9,925000000,base_footprint,-0.0004138506933082365,0.003847789165167194,0.10653777284085601,0.9943011245112087,0.0,0.0,0.0,0.0,0.0,0.0,0.0,0.0,0.0,0.0019107581163580497,0.0009119060497930012,0.21373784114438513,0.0,0.0,0.0,0.0,0.0,0.0,0.0,0.0,0.0,0.029496283342261273,0.056052695941794815,-0.0014905982634919475,0.0,0.0,0.0,0.0,0.0,0.0,0.0,0.0,0.0
9.959,280,9,959000000,base_footprint,-0.0004322856062029073,0.003844994565971458,0.11009103967874051,0.9939139762214818,0.0,0.0,0.0,0.0,0.0,0.0,0.0,0.0,0.0,0.0011577293224420452,-0.00039237783162259464,0.2053632169251532,0.0,0.0,0.0,0.0,0.0,0.0,0.0,0.0,0.0,-0.032746841550998586,0.036731529800066144,0.0015035308860789857,0.0,0.0,0.0,0.0,0.0,0.0,0.0,0.0,0.0
9.993,281,9,993000000,base_footprint,-0.00045172669575905633,0.0038430820918936522,0.11424255150372231,0.9934453513349121,0.0,0.0,0.0,0.0,0.0,0.0,0.0,0.0,0.0,0.0015719107875905543,0.00034246153937908633,0.2287760305154092,0.0,0.0,0.0,0.0,0.0,0.0,0.0,0.0,0.0,-0.23259911433960095,-0.058562325867783274,0.0010911810630963342,0.0,0.0,0.0,0.0,0.0,0.0,0.0,0.0,0.0
10.027,282,10,27000000,base_footprint,-0.00046443083156773736,0.0038470009114140676,0.11746948855927111,0.993068932222539,0.0,0.0,0.0,0.0,0.0,0.0,0.0,0.0,0.0,0.0017870695858794759,0.0011541225997336074,0.18220488676572558,0.0,0.0,0.0,0.0,0.0,0.0,0.0,0.0,0.0,-0.10523269103654831,-0.013915397262670832,0.00027811289799768696,0.0,0.0,0.0,0.0,0.0,0.0,0.0,0.0,0.0
10.061,283,10,61000000,base_footprint,-0.0004794054779822863,0.003844058927443883,0.12053037109933952,0.992702081706292,0.0,0.0,0.0,0.0,0.0,0.0,0.0,0.0,0.0,0.0013434881109557245,8.792658558317551e-05,0.1822151434452766,0.0,0.0,0.0,0.0,0.0,0.0,0.0,0.0,0.0,-0.021535853784800937,0.030776637500440546,0.0010046415511628473,0.0,0.0,0.0,0.0,0.0,0.0,0.0,0.0,0.0
10.095,284,10,95000000,base_footprint,-0.0004892308451329339,0.0038426684701248766,0.12363074617569708,0.9923207309898596,0.0,0.0,0.0,0.0,0.0,0.0,0.0,0.0,0.0,0.0037119163984603958,0.003719171906742605,0.1739584112310034,0.0,0.0,0.0,0.0,0.0,0.0,0.0,0.0,0.0,-0.04805453557446941,0.017125053442393637,0.0003304603032223528,0.0,0.0,0.0,0.0,0.0,0.0,0.0,0.0,0.0
10.129,285,10,129000000,base_footprint,-0.0005014695107799113,0.0038379345253877475,0.12477284957987465,0.9921777838646796,0.0,0.0,0.0,0.0,0.0,0.0,0.0,0.0,0.0,0.00061580667639642,-0.0019252868922858249,0.024043163083432257,0.0,0.0,0.0,0.0,0.0,0.0,0.0,0.0,0.0,-0.28836718607249895,-0.1424014978529477,0.005103369595272175,0.0,0.0,0.0,0.0,0.0,0.0,0.0,0.0,0.0
10.163,286,10,163000000,base_footprint,-0.000499454506143621,0.003838185909630551,0.1269459526715168,0.9919020838643503,0.0,0.0,0.0,0.0,0.0,0.0,0.0,0.0,0.0,-0.00012033529334695627,0.0018017264529411037,0.1520301710138317,0.0,0.0,0.0,0.0,0.0,0.0,0.0,0.0,0.0,-0.06264185550629492,-0.008435847420969877,-0.00461831174192028,0.0,0.0,0.0,0.0,0.0,0.0,0.0,0.0,0.0
10.197,287,10,197000000,base_footprint,-0.0005049250446429645,0.0038283257581268634,0.12828024699241602,0.991730440797374,0.0,0.0,0.0,0.0,0.0,0.0,0.0,0.0,0.0,0.0026016939410498517,-0.0018396887800982446,0.10308211170140616,0.0,0.0,0.0,0.0,0.0,0.0,0.0,0.0,0.0,-0.39454366115083406,-0.20463677114361875,0.008916899387552047,0.0,0.0,0.0,0.0,0.0,0.0,0.0,0.0,0.0
10.231,288,10,231000000,base_footprint,-0.0005183484071418982,0.0038321021345242554,0.13097510924468334,0.9913781150834947,0.0,0.0,0.0,0.0,0.0,0.0,0.0,0.0,0.0,0.0016288445845104459,6.230824781991188e-05,0.16797230046448922,0.0,0.0,0.0,0.0,0.0,0.0,0.0,0.0,0.0,0.13636802078106752,0.10871059848244904,-0.003845044753581633,0.0,0.0,0.0,0.0,0.0,0.0,0.0,0.0,0.0
10.265,289,10,265000000,base_footprint,-0.0005276577590113275,0.00382962726713091,0.133803601704478,0.9910003288108403,0.0,0.0,0.0,0.0,0.0,0.0,0.0,0.0,0.0,0.0013421007258996752,0.00020251238376983195,0.16804569219079657,0.0,0.0,0.0,0.0,0.0,0.0,0.0,0.0,0.0,-0.010973635533099768,0.025395104029327552,-0.0003875745170618219,0.0,0.0,0.0,0.0,0.0,0.0,0.0,0.0,0.0
10.299,290,10,299000000,base_footprint,-0.0005413964732165647,0.0038355597270329726,0.1366324900902314,0.9906142326976642,0.0,0.0,0.0,0.0,0.0,0.0,0.0,0.0,0.0,0.0025648399071769253,-0.0007224596453892252,0.1672469051486135,0.0,0.0,0.0,0.0,0.0,0.0,0.0,0.0,0.0,-0.13903699087392743,-0.04421814415262819,0.0036349365698387782,0.0,0.0,0.0,0.0,0.0,0.0,0.0,0.0,0.0
10.333,291,10,333000000,base_footprint,-0.0005426130061849409,0.003824726906086359,0.13859022437383287,0.9903422775703509,0.0,0.0,0.0,0.0,0.0,0.0,0.0,0.0,0.0,0.0006629531709774238,-0.0014210539884208138,0.10441870694780578,0.0,0.0,0.0,0.0,0.0,0.0,0.0,0.0,0.0,-0.2834333739103899,-0.15996623866515142,0.0010582918469263314,0.0,0.0,0.0,0.0,0.0,0.0,0.0,0.0,0.0
10.367,292,10,367000000,base_footprint,-0.0005500814374665611,0.003826579868122949,0.14118934882853568,0.9899750615416023,0.0,0.0,0.0,0.0,0.0,0.0,0.0,0.0,0.0,0.0014516111529194195,0.00043892499403240125,0.16401747554188328,0.0,0.0,0.0,0.0,0.0,0.0,0.0,0.0,0.0,0.10388590387797086,0.09407147964611844,-0.002193373381529177,0.0,0.0,0.0,0.0,0.0,0.0,0.0,0.0,0.0
10.401,293,10,401000000,base_footprint,-0.0005659815173256085,0.003824329540855834,0.14401650471762736,0.9895677341836702,0.0,0.0,0.0,0.0,0.0,0.0,0.0,0.0,0.0,0.003652571783480771,-0.002731461244159067,0.19512558874893268,0.0,0.0,0.0,0.0,0.0,0.0,0.0,0.0,0.0,-0.16192781988223504,-0.06603892072405505,0.006072925036056942,0.0,0.0,0.0,0.0,0.0,0.0,0.0,0.0,0.0
10.435,294,10,435000000,base_footprint,-0.0005723627048908385,0.0038196638808146986,0.14661351194545016,0.9891863124223834,0.0,0.0,0.0,0.0,0.0,0.0,0.0,0.0,0.0,0.0015335200545995773,-0.0018541894634629508,0.1491746603320802,0.0,0.0,0.0,0.0,0.0,0.0,0.0,0.0,0.0,-0.1422799819466769,-0.07287518274916163,-0.0007090345206963063,0.0,0.0,0.0,0.0,0.0,0.0,0.0,0.0,0.0
10.469,295,10,469000000,base_footprint,-0.0005764342545179178,0.003824564518671455,0.14908666257837086,0.9888165691729867,0.0,0.0,0.0,0.0,0.0,0.0,0.0,0.0,0.0,0.0012657487664392737,0.0002324777300931131,0.1448285360317102,0.0,0.0,0.0,0.0,0.0,0.0,0.0,0.0,0.0,-0.013585262337564732,0.016714947102875216,-0.002596783127879101,0.0,0.0,0.0,0.0,0.0,0.0,0.0,0.0,0.0
10.503,296,10,503000000,base_footprint,-0.000596565214866495,0.003808548847359856,0.151697698419886,0.9884194187488078,0.0,0.0,0.0,0.0,0.0,0.0,0.0,0.0,0.0,0.0008748926318164366,-0.0017961163334870357,0.20577389885610495,0.0,0.0,0.0,0.0,0.0,0.0,0.0,0.0,0.0,-0.1395923162470007,-0.06192410868058115,0.0016472738407638068,0.0,0.0,0.0,0.0,0.0,0.0,0.0,0.0,0.0
10.537,297,10,537000000,base_footprint,-0.0006007473954740893,0.0038233549356911623,0.15502705462684133,0.9879026436817188,0.0,0.0,0.0,0.0,0.0,0.0,0.0,0.0,0.0,0.0016793849909642812,-0.00018911547361271522,0.1914246943846757,0.0,0.0,0.0,0.0,0.0,0.0,0.0,0.0,0.0,-0.051719071649794675,-0.011747860028349814,0.00047332988123499,0.0,0.0,0.0,0.0,0.0,0.0,0.0,0.0,0.0
10.571,298,10,571000000,base_footprint,-0.00061802265877445,0.0038160309493079324,0.15790755507835874,0.9874463327214105,0.0,0.0,0.0,0.0,0.0,0.0,0.0,0.0,0.0,0.0010728583342765484,0.0002920109333022569,0.14620139768361556,0.0,0.0,0.0,0.0,0.0,0.0,0.0,0.0,0.0,-0.08886029408853073,-0.030831954730383672,-2.429668958579137e-06,0.0,0.0,0.0,0.0,0.0,0.0,0.0,0.0,0.0
10.605,299,10,605000000,base_footprint,-0.0006223755916913941,0.0038134825278713785,0.1600899801291949,0.9870948628484836,0.0,0.0,0.0,0.0,0.0,0.0,0.0,0.0,0.0,0.0005088956914474875,-0.0007695538993683186,0.15876156707110262,0.0,0.0,0.0,0.0,0.0,0.0,0.0,0.0,0.0,-0.2329204544899139,-0.15179826207970448,8.826623533207578e-05,0.0,0.0,0.0,0.0,0.0,0.0,0.0,0.0,0.0
10.639,300,10,639000000,base_footprint,-0.0006360573169644483,0.0038156417243441023,0.16226795371829741,0.9867391486636159,0.0,0.0,0.0,0.0,0.0,0.0,0.0,0.0,0.0,0.0014213437128295326,0.0026318176130567666,0.12690296474378435,0.0,0.0,0.0,0.0,0.0,0.0,0.0,0.0,0.0,-0.10163031063600624,-0.061303508121944794,0.0004368067688818132,0.0,0.0,0.0,0.0,0.0,0.0,0.0,0.0,0.0
10.673,301,10,673000000,base_footprint,-0.0006456422360490177,0.0038173625794965297,0.16440739374921962,0.9863849247477522,0.0,0.0,0.0,0.0,0.0,0.0,0.0,0.0,0.0,0.0009118348588800417,0.00014010612880799143,0.12688009960260613,0.0,0.0,0.0,0.0,0.0,0.0,0.0,0.0,0.0,-0.008372452236823936,0.017850708214780252,0.002342720546039946,0.0,0.0,0.0,0.0,0.0,0.0,0.0,0.0,0.0
10.707,302,10,707000000,base_footprint,-0.0006463226542563075,0.0038094516438719945,0.16647796231492823,0.9860376049668029,0.0,0.0,0.0,0.0,0.0,0.0,0.0,0.0,0.0,-0.0016321827011507813,0.0012271343041590469,0.10970195553412407,0.0,0.0,0.0,0.0,0.0,0.0,0.0,0.0,0.0,-0.2122680103004972,-0.15003730056744327,-0.001829725686888717,0.0,0.0,0.0,0.0,0.0,0.0,0.0,0.0,0.0
10.741,303,10,741000000,base_footprint,-0.0006649118394462777,0.003806637812630513,0.1676044678019486,0.985846747610213,0.0,0.0,0.0,0.0,0.0,0.0,0.0,0.0,0.0,0.0009574090911508228,-0.0007407578685174453,0.08566509341267983,0.0,0.0,0.0,0.0,0.0,0.0,0.0,0.0,0.0,-0.10432907502044342,-0.07015515504462289,0.0056696559333170434,0.0,0.0,0.0,0.0,0.0,0.0,0.0,0.0,0.0
10.775,304,10,775000000,base_footprint,-0.0006714401666001701,0.003814049920787203,0.1693795659665932,0.985543284094754,0.0,0.0,0.0,0.0,0.0,0.0,0.0,0.0,0.0,0.00084767630986481,2.5080372347498697e-05,0.1084685012889555,0.0,0.0,0.0,0.0,0.0,0.0,0.0,0.0,0.0,0.030415232912839,0.03894384102242197,-0.0009977804988099371,0.0,0.0,0.0,0.0,0.0,0.0,0.0,0.0,0.0
10.809,305,10,809000000,base_footprint,-0.0006775455721187577,0.0038104283595140173,0.1711160149123905,0.9852432851880887,0.0,0.0,0.0,0.0,0.0,0.0,0.0,0.0,0.0,0.0006070110830225162,0.0003756483838274224,0.094979729325426,0.0,0.0,0.0,0.0,0.0,0.0,0.0,0.0,0.0,-0.003747626486459841,0.012624837526380045,-0.000394523673557987,0.0,0.0,0.0,0.0,0.0,0.0,0.0,0.0,0.0
10.843,306,10,843000000,base_footprint,-0.0006856618817031522,0.0038091775382397826,0.17272944714124439,0.9849617038872864,0.0,0.0,0.0,0.0,0.0,0.0,0.0,0.0,0.0,0.0008108589888708067,-1.9371300902539377e-05,0.0985673589060139,0.0,0.0,0.0,0.0,0.0,0.0,0.0,0.0,0.0,-0.011647590150154775,0.003636931872433611,0.0005627755498386992,0.0,0.0,0.0,0.0,0.0,0.0,0.0,0.0,0.0
10.877,307,10,877000000,base_footprint,-0.0006875724108143091,0.003804104224493886,0.17443022220041768,0.9846619489034509,0.0,0.0,0.0,0.0,0.0,0.0,0.0,0.0,0.0,0.0013071059604579946,9.716442896870255e-05,0.10525757788844922,0.0,0.0,0.0,0.0,0.0,0.0,0.0,0.0,0.0,-0.020300048898227497,0.002215956489337696,0.0007289017872603978,0.0,0.0,0.0,0.0,0.0,0.0,0.0,0.0,0.0
10.911,308,10,911000000,base_footprint,-0.0006914042186268686,0.003799797981525135,0.1767843160377459,0.9842420378639456,0.0,0.0,0.0,0.0,0.0,0.0,0.0,0.0,0.0,0.002140848259113946,-0.00018621011973866386,0.18902438913035083,0.0,0.0,0.0,0.0,0.0,0.0,0.0,0.0,0.0,0.01252781370176851,0.028843207652242436,0.00040359710607802153,0.0,0.0,0.0,0.0,0.0,0.0,0.0,0.0,0.0
10.945,309,10,945000000,base_footprint,-0.0007065495116329542,0.0038003943499813654,0.180291921894258,0.9836055513722191,0.0,0.0,0.0,0.0,0.0,0.0,0.0,0.0,0.0,0.0010095570208377416,0.0005700319312249895,0.2257310651672476,0.0,0.0,0.0,0.0,0.0,0.0,0.0,0.0,0.0,-0.08680094656774069,-0.04730429144628019,-0.0019108211670538931,0.0,0.0,0.0,0.0,0.0,0.0,0.0,0.0,0.0
10.979,310,10,979000000,base_footprint,-0.0007234686632924556,0.003799655010211259,0.1839966676840984,0.9829192568548263,0.0,0.0,0.0,0.0,0.0,0.0,0.0,0.0,0.0,0.0010508883561582806,0.0005152067875514007,0.21480368679322523,0.0,0.0,0.0,0.0,0.0,0.0,0.0,0.0,0.0,0.005429106894068667,0.039570686851169386,0.00015580583338586305,0.0,0.0,0.0,0.0,0.0,0.0,0.0,0.0,0.0
11.013,311,11,13000000,base_footprint,-0.0007376504775513877,0.003799583850585216,0.18729472373742076,0.9822961394072862,0.0,0.0,0.0,0.0,0.0,0.0,0.0,0.0,0.0,0.0016996553230827624,0.00044360896091739623,0.18731939933917813,0.0,0.0,0.0,0.0,0.0,0.0,0.0,0.0,0.0,0.0029359171027365585,0.03764792526726267,0.0012668633086900857,0.0,0.0,0.0,0.0,0.0,0.0,0.0,0.0,0.0
11.047,312,11,47000000,base_footprint,-0.0007479635277706368,0.003796970016677422,0.19045536190039083,0.9816882288652773,0.0,0.0,0.0,0.0,0.0,0.0,0.0,0.0,0.0,0.0014855501560054507,0.0004487294192968501,0.18960318254094935,0.0,0.0,0.0,0.0,0.0,0.0,0.0,0.0,0.0,-0.016349905160944478,0.011396202117076322,-0.0002694512211998067,0.0,0.0,0.0,0.0,0.0,0.0,0.0,0.0,0.0
11.081,313,11,81000000,base_footprint,-0.000760463673501713,0.003791908347141716,0.19472765445155465,0.9808497253493443,0.0,0.0,0.0,0.0,0.0,0.0,0.0,0.0,0.0,0.0019556631771131617,0.0006806475721571794,0.32478861321194064,0.0,0.0,0.0,0.0,0.0,0.0,0.0,0.0,0.0,-0.04696377397948747,-0.014570655354309094,-0.0005992099644298333,0.0,0.0,0.0,0.0,0.0,0.0,0.0,0.0,0.0
11.114,314,11,115000000,base_footprint,-0.0007816783193969802,0.003790259649256318,0.20008067100373098,0.9797717836320319,0.0,0.0,0.0,0.0,0.0,0.0,0.0,0.0,0.0,0.002386061932955803,0.0009366986169739619,0.3214066012265034,0.0,0.0,0.0,0.0,0.0,0.0,0.0,0.0,0.0,-0.021028200628678655,0.036938342069498295,0.0008910527365549641,0.0,0.0,0.0,0.0,0.0,0.0,0.0,0.0,0.0
11.149000000000001,315,11,149000000,base_footprint,-0.0008008276886332127,0.0037864347558840944,0.20542938759845017,0.97866428784225,0.0,0.0,0.0,0.0,0.0,0.0,0.0,0.0,0.0,0.0024098209454232393,0.001014411260575153,0.32139676284571006,0.0,0.0,0.0,0.0,0.0,0.0,0.0,0.0,0.0,-0.025533046263261756,0.025676822944367753,7.981929745445868e-06,0.0,0.0,0.0,0.0,0.0,0.0,0.0,0.0,0.0
11.183,316,11,183000000,base_footprint,-0.000813634827503909,0.003767337861562447,0.20942169159684046,0.9778178256978762,0.0,0.0,0.0,0.0,0.0,0.0,0.0,0.0,0.0,0.0006017835209382654,0.0004106722718960398,0.10096124951254809,0.0,0.0,0.0,0.0,0.0,0.0,0.0,0.0,0.0,0.004903362147586653,0.05197268303514209,-0.0001958322093500609,0.0,0.0,0.0,0.0,0.0,0.0,0.0,0.0,0.0
11.217,317,11,217000000,base_footprint,-0.000822321501901279,0.003779912673151056,0.21084449546879105,0.9775119614501103,0.0,0.0,0.0,0.0,0.0,0.0,0.0,0.0,0.0,0.00063709086890302,0.0016255792615958444,0.12583927393354147,0.0,0.0,0.0,0.0,0.0,0.0,0.0,0.0,0.0,0.0072779538300259405,0.019988014624228067,-0.0016608759414302675,0.0,0.0,0.0,0.0,0.0,0.0,0.0,0.0,0.0
11.251,318,11,251000000,base_footprint,-0.0008257028962081895,0.0037806248818172956,0.21287658235620915,0.97707143330187,0.0,0.0,0.0,0.0,0.0,0.0,0.0,0.0,0.0,0.0011439960224926423,0.0004343896260399829,0.12148623419458308,0.0,0.0,0.0,0.0,0.0,0.0,0.0,0.0,0.0,-0.015945549974043585,0.0029079408932616273,0.001971221835269865,0.0,0.0,0.0,0.0,0.0,0.0,0.0,0.0,0.0
11.285,319,11,285000000,base_footprint,-0.0008320205334414759,0.0037779599594624166,0.21487562787400558,0.9766337590448778,0.0,0.0,0.0,0.0,0.0,0.0,0.0,0.0,0.0,0.001129727084595306,0.00037063071835020446,0.11931370428019085,0.0,0.0,0.0,0.0,0.0,0.0,0.0,0.0,0.0,-0.011458784022266816,0.00775579018573724,0.00010647391832057015,0.0,0.0,0.0,0.0,0.0,0.0,0.0,0.0,0.0
11.319,320,11,319000000,base_footprint,-0.000842183426725315,0.003772061019774394,0.21682382958121382,0.9762030983399284,0.0,0.0,0.0,0.0,0.0,0.0,0.0,0.0,0.0,0.0009922723696441126,8.248435177975228e-05,0.114793487489374,0.0,0.0,0.0,0.0,0.0,0.0,0.0,0.0,0.0,-0.015068600568663174,0.007709391720133064,0.0002113728791414195,0.0,0.0,0.0,0.0,0.0,0.0,0.0,0.0,0.0
11.353,321,11,353000000,base_footprint,-0.0008500642220753283,0.003768448502075544,0.21857883689685312,0.9758116458863998,0.0,0.0,0.0,0.0,0.0,0.0,0.0,0.0,0.0,0.0009151282920633202,0.0007785609376049552,0.09487924461472466,0.0,0.0,0.0,0.0,0.0,0.0,0.0,0.0,0.0,-0.031825660772304656,-0.022743113104733155,-0.00042356865620829574,0.0,0.0,0.0,0.0,0.0,0.0,0.0,0.0,0.0
11.387,322,11,387000000,base_footprint,-0.000855091011565354,0.00376818143543723,0.22016970643615558,0.9754539302272809,0.0,0.0,0.0,0.0,0.0,0.0,0.0,0.0,0.0,0.0006655219767817823,0.00039795933207032954,0.10063715739666529,0.0,0.0,0.0,0.0,0.0,0.0,0.0,0.0,0.0,0.00030946701737933615,0.01774868160219847,0.0005042608149775262,0.0,0.0,0.0,0.0,0.0,0.0,0.0,0.0,0.0
11.421,323,11,421000000,base_footprint,-0.0008617964117325776,0.0037700693984399174,0.22222944161753302,0.9749867276850672,0.0,0.0,0.0,0.0,0.0,0.0,0.0,0.0,0.0,0.001087519841843072,-5.8326084799129195e-05,0.1343989787080636,0.0,0.0,0.0,0.0,0.0,0.0,0.0,0.0,0.0,0.0032832082584356723,0.02888234253133773,0.00020697660075210804,0.0,0.0,0.0,0.0,0.0,0.0,0.0,0.0,0.0
11.455,324,11,455000000,base_footprint,-0.0008722246457057902,0.003766366115913316,0.22442128197708655,0.9744845519074222,0.0,0.0,0.0,0.0,0.0,0.0,0.0,0.0,0.0,0.0010939928249740116,0.00036254113503029226,0.1318603084938222,0.0,0.0,0.0,0.0,0.0,0.0,0.0,0.0,0.0,-0.012942767969190505,0.005908914248220341,-0.000331717025764636,0.0,0.0,0.0,0.0,0.0,0.0,0.0,0.0,0.0
11.489,325,11,489000000,base_footprint,-0.0008818378426391705,0.003763647449952524,0.22660492892358802,0.9739790878183306,0.0,0.0,0.0,0.0,0.0,0.0,0.0,0.0,0.0,0.0010787956010856348,0.00040410725874529376,0.13155642571993967,0.0,0.0,0.0,0.0,0.0,0.0,0.0,0.0,0.0,-0.010299754101229122,0.010825995396149824,-5.179703322047116e-06,0.0,0.0,0.0,0.0,0.0,0.0,0.0,0.0,0.0
11.522,326,11,523000000,base_footprint,-0.0008838862171178474,0.003764511751409019,0.226746757816998,0.9739460739773577,0.0,0.0,0.0,0.0,0.0,0.0,0.0,0.0,0.0,-0.00016796093027504256,0.00010768407214892965,-0.0450309182351365,0.0,0.0,0.0,0.0,0.0,0.0,0.0,0.0,0.0,0.031160884912557408,0.044221937525744354,-0.0008604678380342693,0.0,0.0,0.0,0.0,0.0,0.0,0.0,0.0,0.0
11.557,327,11,557000000,base_footprint,-0.0008829794020939202,0.003764843193030651,0.22622989699446616,0.9740662605844536,0.0,0.0,0.0,0.0,0.0,0.0,0.0,0.0,0.0,-0.0001128094953708779,-0.00019824065590133628,-0.029626153858075537,0.0,0.0,0.0,0.0,0.0,0.0,0.0,0.0,0.0,-0.0011183758842987577,-0.007298570416869658,0.000539222388799796,0.0,0.0,0.0,0.0,0.0,0.0,0.0,0.0,0.0
