Time,Theta_calculated,linear_velocity_x,world_velocity_x,world_velocity_y,angular_velocity_yaw,linear_acceleration_x,angular_acceleration_yaw,kinematic_delta_x,kinematic_delta_y,kinematic_delta_yaw
0.254,0.785385607612045,6.868061724847088e-06,4.856513995446277e-06,4.856392042282419e-06,-0.0002741318341032627,0.000145691931338374,-0.0025707665990584065,1.617206236774497e-07,1.617191474013593e-07,-9.128590075638648e-06
0.28800000000000003,0.7853764790219694,-8.738998442282008e-06,-6.179539054403e-06,-6.179271061323935e-06,-0.0001938652752786375,-0.0004686804854993722,0.0024104071719106665,-2.0577673109315891e-07,-2.0577164581983176e-07,-6.455713666778629e-06
0.321,0.7853700233083026,-3.526055150761843e-05,-2.493367668568407e-05,-2.4932273453401454e-05,-0.0004508922924739468,-0.0007964430349950876,-0.007718529044904183,-8.302872421933103e-07,-8.302488976496324e-07,-1.501471333938243e-05
0.35300000000000004,0.7853550085949632,-7.068077281465482e-06,-4.99810105377711e-06,-4.997669688264783e-06,-0.0001241167188049176,0.0008466208476322205,0.009813080290361237,-1.66435019437081e-07,-1.6642414640061766e-07,-4.133086736203756e-06
0.387,0.785350875508227,0.000184266110756609,0.00013030197772732194,0.00013028965489905712,0.0004543619085615544,0.005745771412554789,0.017371730551545703,4.338968559911861e-06,4.3387328129400775e-06,1.5130251555099763e-05
0.42100000000000004,0.7853660057597821,3.809306157269819e-05,2.6936728333979442e-05,2.6934995946588977e-05,-0.00043005857112798424,-0.0043895810565738975,-0.02655917356425041,8.969882142531807e-07,8.969402045485978e-07,-1.4320950418561877e-05
0.454,0.7853516848093636,-7.710824291945934e-06,-5.452629558228509e-06,-5.4521227207388034e-06,1.764611189470713e-05,-0.001375492068007331,0.013444585075756495,-1.8157023138297914e-07,-1.815580197271695e-07,5.876155260937475e-07
0.48800000000000004,0.7853522724248897,-7.314346091720736e-06,-5.1722610651535486e-06,-5.171786366756373e-06,0.00015222259634009014,1.1906252259014959e-05,0.0040413358692307205,-1.722336945923531e-07,-1.722230850878492e-07,5.069012458125002e-06
0.521,0.7853573414373478,-5.481099843603612e-06,-3.875881079147549e-06,-3.875564649939099e-06,0.00019219827579234245,5.505243988339711e-05,0.0012004708544219912,-1.2906480652475587e-07,-1.2905833638723765e-07,6.4002025838850045e-06
0.553,0.7853637416399317,-3.992184604536045e-06,-2.8229979731506106e-06,-2.8228036347366003e-06,0.00021238335643609233,4.4712169341368376e-05,0.0006061585778903868,-9.40043198608982e-08,-9.400087376260056e-08,7.072365769321875e-06
0.5870000000000001,0.785370814005701,-2.7581488252702534e-06,-1.950359076816548e-06,-1.9502523974652568e-06,0.0002306006151414414,3.7058131509483225e-05,0.0005470648259864582,-6.494589248327991e-08,-6.494446965148893e-08,7.679000484209998e-06
0.62,0.7853784930061852,-1.5152495272477483e-06,-1.071464291406581e-06,-1.0714221399920378e-06,0.0002304277070252814,3.732430324391907e-05,-5.1924359207202926e-06,-3.56791760448084e-08,-3.567894213443337e-08,7.673242643941871e-06
0.654,0.7853861662488292,-4.6167647954503767e-07,-3.264584859011214e-07,-3.264506528531486e-07,0.00023349019222944806,3.163883026134266e-05,9.19665226476474e-05,-1.087088882611949e-08,-1.0870985495552697e-08,7.775223401240621e-06
0.6880000000000001,0.7853939414722304,5.941391567387401e-07,4.201216004091668e-07,4.2011805298018505e-07,0.00024060984670596885,3.170617526377711e-05,0.00021380343773335693,1.3989817591125341e-08,1.3990162864572705e-08,8.012307895308764e-06
0.7210000000000001,0.7854019537801257,1.64255846908106e-06,1.161459829580363e-06,1.1614686343681734e-06,0.00023059037653468437,3.1484063433703296e-05,-0.0003008849901286629,3.8675978207791894e-08,3.867753962705308e-08,7.678659538604991e-06
0.754,0.7854096324396643,2.7760133118964203e-06,1.9629153243600584e-06,1.962960350393909e-06,0.00022464153713721858,3.403768296742824e-05,-0.00017864382574972346,6.536401507343218e-08,6.536764485373434e-08,7.48056318666938e-06
0.788,0.785417113002851,4.188570762130613e-06,2.9617106645385445e-06,2.961822913162445e-06,0.00022181527726751124,4.2419142649675446e-05,-8.487266875998017e-05,9.862336249633846e-08,9.863030555286621e-08,7.386448733008125e-06
0.8200000000000001,0.785424499451584,5.536731786963971e-06,3.914957483567928e-06,3.9151636980633035e-06,0.00020243553233254506,4.048531606106179e-05,-0.0005819743223713566,1.3036600778996756e-07,1.303770274118344e-07,6.741103226673751e-06
0.8540000000000001,0.7854312405548107,7.185165789256764e-06,5.080511396319907e-06,5.08084750518743e-06,0.00018633113307528164,4.950252259137518e-05,-0.00048361559331121375,1.691783802284804e-07,1.6919487097097e-07,6.204826731406879e-06
0.888,0.7854374453815419,9.314641335058549e-06,6.5861873185897345e-06,6.586704775927724e-06,0.00017200089272381724,6.394821458864218e-05,-0.0004303375480920241,2.1931665558995643e-07,2.1934065084254082e-07,5.727629727703114e-06
0.921,0.7854431730112698,-0.00015254568850573425,-0.00010786123566282544,-0.00010787094568500332,0.0021899661840864303,-0.004860670565789573,0.060599558299177556,-3.591603062190877e-06,-3.5922785506178714e-06,7.292587393007814e-05
0.9530000000000001,0.7855160988851999,9.914435727662156e-06,7.009737891544414e-06,7.011391480283376e-06,0.0001618774338320382,0.004878682409411303,-0.06090356607370546,2.3342071095676436e-07,2.3348289623044407e-07,5.3905185466068725e-06
0.9870000000000001,0.7855214894037464,8.49276420582432e-06,6.004550506714951e-06,6.0060317238622725e-06,0.00019068390647922312,-4.269283849362872e-05,0.0008650592386542021,1.999483856988977e-07,2.0000400175344012e-07,6.3497740857581306e-06
1.021,0.7855278391778322,6.749430449369356e-06,4.77194911328547e-06,4.773186886252019e-06,0.00020572386267162136,-5.2352365058707604e-05,0.0004516503361080552,1.5890336530771416e-07,1.5894966278240361e-07,6.850604626964992e-06
1.054,0.7855346897824592,5.499584384027044e-06,3.888262452505775e-06,3.889324298315571e-06,0.00022303164271914424,-3.7532914875144506e-05,0.0005197531545802664,1.2947703254453276e-07,1.295166056465952e-07,7.426953702547504e-06
1.088,0.7855421167361617,4.5944732228107895e-06,3.2483154649852375e-06,3.2492508113506885e-06,0.0002447196150641891,-2.718051535183947e-05,0.0006512904608121581,1.0816710556216762e-07,1.0820185089196856e-07,8.149163181637498e-06
1.12,0.7855502658993434,3.6248699671126624e-06,2.5627802404263694e-06,2.5635599696038937e-06,0.00024925369966762435,-2.9117214885829643e-05,0.00013615869679985747,8.533915587283618e-08,8.536797266389106e-08,8.300148198931891e-06
1.153,0.7855585660475423,2.972739089684647e-06,2.101706768550785e-06,2.1023811153943813e-06,0.0002585320834076571,-1.9583509832673128e-05,0.0002786301423433255,6.998565500163339e-08,7.001047113507615e-08,8.609118377474983e-06
1.187,0.7855671751659198,2.5233241950360504e-06,1.7839580630810803e-06,1.7845611848357378e-06,0.00027415171936587864,-1.3495942782240142e-05,0.00046905813688353,5.940478609644811e-08,5.942690449759326e-08,9.12925225488376e-06
1.221,0.7855763044181747,2.034201888508992e-06,1.4381416891663594e-06,1.438654164521578e-06,0.00027217252830501085,-1.468835755336512e-05,-5.943516699302701e-05,4.788929963007754e-08,4.790800199170162e-08,9.063345192556862e-06
1.254,0.7855853677633672,1.7087553969279566e-06,1.2080463134933822e-06,1.2084987012758712e-06,0.0002770294111898653,-9.773167915346403e-06,0.00014585233888451772,4.022725132780024e-08,4.0243697393222525e-08,9.225079392622516e-06
1.287,0.7855945928427599,1.4875447210720728e-06,1.051646324403617e-06,1.0520595541877623e-06,0.000289575661625225,-6.642963238915428e-06,0.00037676427733813003,3.501921381123075e-08,3.503419169589769e-08,9.642869532119995e-06
1.32,0.785604235712292,0.03370423822319588,0.02382758367885436,0.02383740611377697,-0.0003527014249173063,1.0120946149692134,-0.01928760019647241,0.0007934532313710986,0.0007937909264904799,-1.17449574497463e-05
1.353,0.7855924907548423,0.0670542993018263,0.04740533490467726,0.04742376279286884,4.356662994413153e-05,1.001503335694607,0.011899941587430563,0.0015785766783858112,0.0015792322663907823,1.45076877713958e-06
1.388,0.7855939415236194,0.10312032289315375,0.07290280262935535,0.07293135376759126,4.4885849490203415e-05,1.0830637715113347,3.961620258474133e-05,0.002427631019151122,0.0024286463759395395,1.4946987880237738e-06
1.42,0.7855954362224074,0.13378085287068986,0.09457868493107917,0.09461600790308598,4.319074368073137e-05,0.9207366359620454,-5.090407836252395e-05,0.003149428382757812,0.003150754871842752,1.4382517645683547e-06
1.453,0.7855968744741719,0.1671439221496436,0.11816511306876229,0.11821208383669052,4.181043147985683e-05,1.0018939723409532,-4.145081684307922e-05,0.00393484609877114,0.003936514536430217,1.3922873682792326e-06
1.487,0.7855982667615402,0.20624261036955346,0.145806363258563,0.14586472762583633,3.975713730953124e-05,1.1741347813786744,-6.166048559536314e-05,0.0048552876938880146,0.0048573596064626825,1.3239126724073904e-06
1.52,0.7855995906742126,0.21801746802790245,0.1541305745751408,0.15419267928936975,-4.376157706167074e-06,0.3535993290795491,-0.0013253241746455948,0.00513248404003472,0.005134680292162134,-1.4572605161536358e-07
1.553,0.785599444948161,0.2180146053246872,0.15412857321565598,0.15419063218427148,2.4681420558175243e-05,-8.596706352120624e-05,0.0008725999478781476,0.005132414909034679,0.005134614603174198,8.218913045872357e-07
1.5870000000000002,0.7856002668394656,0.22462140357778135,0.1587992140699106,0.15886341478147584,1.2769346096524375e-05,0.19840234994276737,-0.00035771995380332934,0.005287946282215382,0.005290219231362285,4.2521922501426174e-07
1.62,0.7856006920586907,0.21801206572571946,0.15412658551885483,0.154189028268209,-0.006316927542010494,-0.1984786141760326,-0.19008098763084136,0.0051328908286246405,0.00513401924010848,-0.00021035368714894946
1.653,0.7853903383715417,0.21801027746398208,0.1541577518373856,0.1541553392794602,-0.006226673106247858,-5.3701553675205205e-05,0.0027103434162953667,0.005133920849993448,0.005132905015865436,-0.00020734821443805368
1.6880000000000002,0.7851829901571036,0.22462459230475532,0.15886774549719043,0.15879939202880303,-0.006506828344380042,0.19862807329649365,-0.008413070214179696,0.005290802392339212,0.0052875130000412055,-0.00021667738386785542
1.721,0.7849663127732358,0.1948350636163466,0.13782867756027836,0.13770968613852347,0.041884376691109525,-0.8945804410933551,1.453189340405092,0.004586437882546443,0.00458898938573114,0.0013947497438139473
1.754,0.7863610625170497,0.19453612068971834,0.13742529208157173,0.13769020062916376,0.03467803211406461,-0.008977265063911196,-0.21640674405540283,0.004573556228718512,0.004587782371109633,0.0011547784693983515
1.788,0.7875158409864481,0.20050498025140553,0.14147787250879484,0.1420783540726796,0.034228380958481984,0.17924503188249818,-0.013503037705183947,0.0047084563684695714,0.00473395221699817,0.0011398050859174503
1.8210000000000002,0.7886556460723655,0.21836116225118868,0.1539008697567532,0.15490680897818804,0.031251980021142475,0.5362216816751695,-0.08938140952971496,0.005122149088106665,0.005161126838568477,0.0010406909347040446
1.854,0.7896963370070695,0.21784443376139379,0.15337576796111116,0.15469993898887505,0.025363757005251494,-0.015517372065912706,-0.17682351399072013,0.005105172241703201,0.005153728349580702,0.0008446131082748749
1.888,0.7905409501153444,0.2247003432608872,0.1580679162624835,0.15970215436867793,0.025825279797496825,0.2058831681529553,0.013859543310670592,0.005261307434558036,0.005320410471729245,0.0008599818172566443
1.92,0.7914009319326011,0.2182765577056971,0.15341556261487843,0.1552685441144111,0.031740227866434,-0.1929064731288319,0.1776260681362514,0.005105939882331049,0.005173205504950897,0.0010569495879522522
1.953,0.7924578815205533,0.21844437645474135,0.15336919100657767,0.1555501104296897,0.031648631626764394,0.00503960207340112,-0.002750637827916004,0.005104398540484908,0.005182573042789401,0.0010538994331712544
1.987,0.7935117809537245,0.2251944772467974,0.1579393304150628,0.16052327086905488,0.032132845032859285,0.20270572949117238,0.014540943125972703,0.0052564516819517595,0.00534830372949892,0.0010700237395942142
2.02,0.7945818046933188,0.20680519993218888,0.1448842568531523,0.14757012853251303,0.021909344817652547,-0.5522305499882436,-0.3070120184746768,0.004822790990524454,0.004915905383795841,0.0007295811824278299
2.053,0.7953113858757467,0.2069794762935013,0.144898558249328,0.14780024162361222,0.02241202176556851,0.005233524363736498,0.015095403841320165,0.004823223122166454,0.004923608692132601,0.0007463203247934314
2.087,0.7960577062005401,0.2130288164509194,0.14901990236702453,0.15223122326580046,0.023289894226056974,0.1816618665891319,0.026362536351004957,0.004960332821352186,0.005071285796589664,0.0007755534777276973
2.12,0.7968332596782679,0.21767474008119322,0.15214917807843492,0.1556692650444259,0.030238281678622116,0.13951722613434922,0.20866028386081506,0.005063891787652996,0.005186400082903347,0.0010069347798981165
2.154,0.7978401944581659,0.21792399127126894,0.1521663929227826,0.1560008167814176,0.03108093090088905,0.007485020722994325,0.0253047814494575,0.005064386411369565,0.005197512091620683,0.0010349949989996055
2.187,0.7988751894571655,0.22434628437366985,0.15648448532929646,0.16076025990118561,0.031827393657439265,0.19286165472675423,0.02241629899550194,0.005208028273763988,0.005356142453156587,0.0010598522087927277
2.221,0.7999350416659582,0.2062472742179509,0.1437034701924429,0.14794340396578792,0.021500782785172638,-0.543513818490059,-0.3101084346026014,0.004783499636947066,0.004928288081349805,0.0007159760667462489
2.254,0.8006510177327044,0.2060182760610028,0.14343807185847016,0.14788187722865812,0.022045812987030615,-0.006876821529973015,0.016367273329068368,0.004774617922599807,0.004926279289687022,0.0007341255724681195
2.287,0.8013851433051726,0.21241407106929178,0.14777910324533314,0.15258136921733045,0.0225669214976776,0.19206591616483454,0.015648904223633204,0.004919070740042883,0.005082869909226219,0.0007514784858726641
2.32,0.8021366217910453,0.20634327303188627,0.14344414866179248,0.14832842795703438,0.030890283078853286,-0.18230624736953485,0.24995079823350405,0.004774086844321035,0.004941852485115894,0.0010286464265258145
2.353,0.8031652682175711,0.20650895065237845,0.14340654723176846,0.14859511738482203,0.03079421617530954,0.004975303918684335,-0.002884891998310678,0.004772837957913018,0.004950724948858481,0.0010254473986378077
2.388,0.8041907156162089,0.212953414804159,0.14772458385020182,0.1533838459650719,0.03123869369204174,0.1935274520054217,0.013347673175141165,0.004916506962486921,0.005110301490338264,0.00104024849994499
2.4210000000000003,0.8052309641161539,0.21812856392266655,0.15115103894701376,0.1572686676493546,-0.02626087340531021,0.1554098834386653,-1.7267137266472055,0.005035553092100088,0.0052349084002528915,-0.0008744870843968301
2.453,0.8043564770317571,0.2185006960509238,0.15154661208035727,0.1574045061035544,-0.027145995294419644,0.011175138986703765,-0.026580236910193226,0.005048804800186749,0.00523935180946859,-0.0009039616433041743
2.487,0.8034525153884529,0.22524079690319265,0.156367990217827,0.16211868561280293,-0.02829420368449197,0.20240543099906502,-0.034480732434604394,0.0052095288007985045,0.005396163807172544,-0.0009421969826935827
2.52,0.8025103184057593,0.2070021787815378,0.1438465848748434,0.14885584315084247,0.04684475263079386,-0.5477062498995454,2.256425114573148,0.00478616084057064,0.004960693764397631,0.0015599302626054356
2.5540000000000003,0.8040702486683647,0.20687923211042242,0.1435289071374363,0.14899150812892398,0.044444277862166044,-0.003692092225686798,-0.07208632938822263,0.004775777089285917,0.004965012198910245,0.0014799944528101293
2.588,0.8055502431211748,0.21292660624818774,0.14749734716087698,0.1535652051373439,0.04604522729487918,0.18160282695991953,0.048076559540934934,0.0049076750322457246,0.0051175464870200655,0.0015333060689194768
2.62,0.8070835491900943,0.21792207058480692,0.15071661373435982,0.15739927316356117,0.01273971014902252,0.15001394404261806,-1.0001656800557555,0.0050176854784018485,0.005242523222575432,0.00042423234796244995
2.653,0.8075077815380568,0.21797866678917588,0.1506889513443853,0.15750409238466168,0.012566346207384723,0.0016995857167855341,-0.005206124373507403,0.00501677868029933,0.005245999015668765,0.0004184593287059113
2.688,0.8079262408667627,0.2241167203383341,0.15486441763172035,0.1620040631799066,0.01152471899710559,0.18432593240715384,-0.03128009640477875,0.005155882055333081,0.005395789464219411,0.0003837731426036162
2.721,0.8083100140093663,0.20627062640092259,0.14247555295157543,0.1491586005799592,0.00094512201634892,-0.5359187368592047,-0.3177056150377378,0.004744295385003696,0.004967115627026501,3.1472563144419036e-05
2.754,0.8083414865725107,0.20607756519727208,0.14233751135050082,0.14902347378913827,0.0016046299586667076,-0.0057976337432584825,0.019805043312846472,0.004739644232838152,0.004962667819859281,5.343417762360137e-05
2.787,0.8083949207501343,0.21248513007682066,0.1467549974894888,0.15366489910068443,0.0013610562521801147,0.1924193657522095,-0.007314525720318105,0.00488676120421166,0.005117213241678812,4.5323173197597824e-05
2.8200000000000003,0.8084402439233319,0.22932681862738508,0.15837936273486566,0.16585164214277595,0.03960745165895304,0.5057564129298624,1.1485404026057935,0.005270319735075076,0.005526402290177055,0.0013189281402431364
2.853,0.8097591720635751,0.21817475607845555,0.15046920397710936,0.1579849449928335,0.009058855593104598,-0.33489677324112704,-0.9173752572326859,0.005009764850794778,0.005261717242634174,0.00030165989125038314
2.887,0.8100608319548255,0.2248764769174963,0.15504207014179422,0.16288457986246643,0.009439698914224267,0.2012528780492717,0.011436736369960045,0.005161980232504348,0.005424932691469516,0.00031434197384366813
2.9210000000000003,0.8103751739286691,0.218439076418979,0.15055403303712753,0.15826911651687472,0.01677900054883805,-0.19331533028580458,0.22039944848690035,0.005011910465001693,0.005271824843768271,0.0005587407182763071
2.954,0.8109339146469455,0.21856436234740145,0.15055187780851428,0.15844403610315025,0.01666953497767296,0.0037623401928664497,-0.0032872543893420563,0.00501184661536952,0.005277640511016334,0.0005550955147565096
2.987,0.8114890101617019,0.2252009863780278,0.15503268243716625,0.16334121231940646,0.016605366773375298,0.19929801893772797,-0.0019269731020318912,0.00516101590581073,0.00544075424314892,0.0005529587135533975
3.02,0.8120419688752554,0.21786090217816223,0.1498922275616399,0.15810026190519844,0.02856836887137197,-0.22042294894491185,0.35924931225215234,0.004988840048765135,0.005267174797686513,0.0009513266834166867
3.053,0.8129932955586721,0.20683911540989802,0.1421661793581857,0.15023713625547208,0.005858550159533272,-0.33098458763556177,-0.6819765378930539,0.004733582914278818,0.005003417830236481,0.00019508972031245797
3.087,0.8131883852789844,0.21285058716706404,0.14626786391258834,0.15463209383505244,0.007377970440726879,0.1805246773923728,0.04562823667248069,0.0048700226083051605,0.005149908155122236,0.0002456864156762051
3.12,0.8134340716946608,0.22893774431295616,0.15728185996417648,0.16635776897191687,0.03413821086225996,0.4830978121889526,0.8036108234694618,0.005234266435849795,0.005542755227375612,0.0011368024217132567
3.153,0.814570874116374,0.21763680613744246,0.149338157740294,0.15831580473358237,0.009704557736487892,-0.33936751277818905,-0.7337433371102722,0.004972042521763826,0.005272782169563248,0.00032316177262504687
3.187,0.814894035888999,0.22395024131814154,0.15361766079404443,0.1629580463758072,0.014329691168506424,0.18959264806904122,0.13889289585641237,0.005114105054749475,0.005427787446640617,0.000477178715911264
3.221,0.8153712146049102,0.2175179079354882,0.14912988698272328,0.1583487198595293,0.018000093092656204,-0.19316316464424438,0.11022228000449787,0.004964378383336558,0.005274562713072292,0.0005994030999854516
3.253,0.8159706177048957,0.21767445420614587,0.14914220499802935,0.15855210721485,0.017927360381148012,0.004701089208939049,-0.0021841655107565044,0.0049647928546558305,0.005281329627937568,0.0005969811006922289
3.287,0.8165675988055879,0.22445867223245955,0.15369286150830816,0.16358545125330284,0.018017494057980515,0.20373027106047092,0.0027067170219970695,0.005116269394074573,0.005448994786112523,0.0005999825521307512
3.321,0.8171675813577187,0.2175849740139031,0.1488910867491034,0.15866526148877658,0.02720158923867459,-0.20641736392061447,0.27579865407489706,0.004955613187774345,0.0052858602503120375,0.0009058129216478639
3.353,0.8180733942793665,0.20681878492421366,0.1413872301904211,0.15094257496349073,0.009722058286149976,-0.3233089816723553,-0.5249108394151536,0.004707317930121631,0.0050272088891195445,0.0003237445409287942
3.387,0.8183971388202954,0.21318065007122836,0.14568600532037787,0.15563282885876725,0.010151022888851759,0.19104700141185285,0.012881819900954444,0.004850402872656118,0.00518345395094811,0.0003380290621987636
3.42,0.8187351678824941,0.21822327379684406,0.14907823397289519,0.1593646051735927,0.03454158940202673,0.15143014191038145,0.7324494448400891,0.004961185372048215,0.005309757532379217,0.00115023492708749
3.454,0.8198854028095816,0.21855892475622127,0.14912384498455544,0.159781358260649,0.03433474878990719,0.010079608389705988,-0.006211429793379649,0.004962714400022058,0.005323619212063782,0.0011433471347039093
3.487,0.8210287499442855,0.22509173119014256,0.15339296497410645,0.16473277071253292,0.03452523294001709,0.1961803733910297,0.005720244748045086,0.0051047623242554815,0.005488600451385645,0.0011496902569025692
3.521,0.822178440201188,0.2181684318993669,0.14849128871251635,0.15983679755902525,-0.07128674977244355,-0.2079068856088783,-3.1775370183922114,0.004951005994060599,0.005316753470631002,-0.0023738487674223705
3.553,0.8198045914337657,0.21804515726224066,0.14878618017262016,0.15939373637366014,-0.0744796754226139,-0.0037019410548422577,-0.09588365315826868,0.004961090295768206,0.00530172416557902,-0.002480173191573043
3.587,0.8173244182421926,0.2242062332431666,0.15339630040893215,0.16351761387062208,-0.07565516879366903,0.18501729672450268,-0.03530010123288681,0.005114882121861825,0.0054387605492122945,-0.0025193171208291788
3.62,0.8148051011213635,0.21751837656450593,0.14921982791073612,0.15826461102074746,-0.00737091379841035,-0.20083653689671696,2.050578228085846,0.0049696008456283,0.0052696640651694925,-0.00024545142948706467
3.653,0.8145596496918764,0.217397748128655,0.14917589581101193,0.15814023207391673,-0.005864808164397335,-0.003622475551078751,0.04522839741780824,0.00496800541172595,0.005265646994929554,-0.00019529811187443127
3.6870000000000003,0.814364351580002,0.22407669004389072,0.1537907412195042,0.16296861948295863,-0.005683493638039425,0.20056882628335476,0.005444880671408724,0.005121677063494947,0.005426434680470595,-0.00018926033814671285
3.721,0.8141750912418553,0.1950799983754022,0.13391626747599572,0.14185428816727572,0.051218593439555773,-0.8707715215762313,1.7087713837115674,0.004455321824518197,0.004727604385095505,0.0017055791615372075
3.753,0.8158806704033925,0.19481827444098004,0.13349478872471068,0.14189186530420225,0.020943738480171403,-0.007859577610275375,-0.9091548035851161,0.0044436690885642375,0.0047266046873075,0.0006974264913897078
3.787,0.8165780968947822,0.20091152215953742,0.13756796032673846,0.14642573553854257,0.020397632621971147,0.18298041196868997,-0.016399575321328994,0.004579295502927696,0.004877589921806173,0.0006792411663116393
3.8200000000000003,0.8172573380610938,0.21791777045798694,0.14910455216765992,0.15892132394446462,0.04389666818436442,0.510698147100586,0.7056767436154135,0.004961245454519658,0.005295769444384224,0.0014617590505393353
3.853,0.8187190971116332,0.21826827037723273,0.14911153480240272,0.15939506906532777,0.012587860781515975,0.010525523100474315,-0.9402044265119651,0.004964234843516487,0.005308958665333808,0.000419175764024482
3.887,0.8191382728756577,0.22509143593228717,0.15370391259121888,0.16444227493017086,0.011823669363042365,0.2048998665181513,-0.022948691245453724,0.005117193375871189,0.005476999481921244,0.0003937281897893108
3.92,0.819532001065447,0.21859428596215175,0.1492044389435189,0.1597544905624024,-0.0005831080995132708,-0.19510960871277547,-0.3725758997764455,0.004968492670981083,0.005319838681129334,-1.941749971379192e-05
3.954,0.8195125835657331,0.21860430794484276,0.14921438172804302,0.15975891755254698,-0.0015541584454416592,0.0003009604411714968,-0.02916067104890055,0.004968909777646594,0.005319905763770736,-5.175347623320726e-05
3.988,0.8194608300894999,0.2250521414341503,0.15362403952776177,0.16446312913011685,-0.0020487286785011616,0.1936286333125391,-0.014851958950735806,0.005115798565684055,0.005476511926394675,-6.822266499408868e-05
4.021,0.8193926074245058,0.20635038503841,0.14086822149986888,0.15078668899131625,0.044715569067800366,-0.5616143061783878,1.4043332656547005,0.00468710860151699,0.005024746188532364,0.0014890284499577524
4.054,0.8208816358744636,0.2065581749535408,0.14078516443556585,0.15114832819117868,-0.00018442229027199004,0.006239937391315863,-1.3483480888310015,0.004688098234515637,0.005033283796322284,-6.141262266057269e-06
4.087,0.8208754946121976,0.21235741659539017,0.14473874461578076,0.1553910170830859,-0.0013638921297739301,0.174151400656137,-0.03541951469975795,0.004819852732042995,0.005174471932617153,-4.541760792147188e-05
4.12,0.820830077004276,0.21832446990663176,0.14881302941822938,0.15975060699534432,0.03649592104830594,0.179190790127375,1.1369313266690653,0.004952173278539492,0.005322767310712108,0.001215314170908588
4.153,0.8220453911751846,0.21741720663819958,0.14800117623681772,0.15926673718914441,-0.007947733364775954,-0.027245143196161697,-1.334644276669126,0.004929074350086025,0.005302991996130275,-0.0002646595210470393
4.188,0.8217807316541377,0.22413137169511174,0.15261511937272632,0.1641447444080402,-0.007867719617772518,0.20162657828565053,0.0024028152253284334,0.0050827308298793065,0.005465418003977623,-0.00026199506327182485
4.22,0.8215187365908658,0.2177087833783445,0.14828363009938805,0.15940225658574222,0.007665093778219966,-0.19287052002303992,0.466450852732507,0.004937100733756273,0.005308787262841765,0.00025524762281472493
4.253,0.8217739842136805,0.21788326112120215,0.14836174414670905,0.15956788007163725,0.007675772103507035,0.005239571857586868,0.0003206704290411128,0.0049397002134846935,0.005314303767700383,0.0002556032110467843
4.287,0.8220295874247274,0.22467539508426634,0.15294460252053577,0.164581231360403,0.00746833106438408,0.20396798687880446,-0.006229460634322996,0.005092304895933558,0.005481252195892459,0.0002486954244439899
4.32,0.8222782828491713,0.20709981730342145,0.14094254303463027,0.15174166827223803,0.028002714706080546,-0.5277951285539008,0.6166481574083023,0.004690966595000988,0.005055243989191292,0.0009324903997124823
4.353,0.8232107732488838,0.2069332001141124,0.14068770607505957,0.15175084404643333,0.0003041511200394251,-0.005003519198469923,-0.8317886962775111,0.004684811572820462,0.005053385653424222,1.0128232297312855e-05
4.3870000000000005,0.8232209014811811,0.21335331025648266,0.14505096266933254,0.15646038868064607,-0.000898657385937405,0.1927961003714793,-0.03612037555485976,0.004830209596730736,0.005210119317262054,-2.992529095171559e-05
4.42,0.8231909761902294,0.21816066970942696,0.14832409471753968,0.15998137621075775,-0.04531678504243091,0.14436514873706618,-1.3338777074022072,0.004943143274156108,0.0053237131305496465,-0.0015090489419129496
4.453,0.8216819272483165,0.2185444803305877,0.14882671685868926,0.16003842736052545,-0.04709136044530334,0.011525844479301686,-0.05329055263881172,0.004960039308925864,0.00532545392384853,-0.0015681423028286014
4.487,0.8201137849454878,0.22490532005773742,0.15341646734633335,0.16445604439255113,-0.04851422291070091,0.19101620802251376,-0.04272860256449164,0.005113121046237878,0.005472321428713102,-0.0016155236229263405
4.52,0.8184982613225615,0.21798736594651597,0.14895478412810484,0.15915704193547314,-0.07299623197782518,-0.2077463697063499,-0.735195467481209,0.004966564421000002,0.005293958082719068,-0.002430774524861579
4.553,0.8160674867976999,0.21763022916877262,0.1490965473171265,0.1585343376879733,-0.07344497607963461,-0.010724828160460956,-0.01347579885313624,0.004971299572727451,0.005273179213789621,-0.002445717703451833
4.587,0.8136217690942481,0.22401728995393763,0.15387091626632649,0.16281120147479936,-0.07373236865660227,0.1918036271821326,-0.008630407716746294,0.005130484176518848,0.005415381656017127,-0.002455287876264856
4.62,0.8111664812179832,0.21745738190966393,0.1497526994448073,0.1576763836343244,-0.051485170100362486,-0.19699423556377474,0.6680840407279213,0.004991197557014051,0.005246408877739604,-0.001714456164342071
4.6530000000000005,0.8094520250536411,0.21750511811713324,0.15005574145316342,0.15745396426920935,-0.05049795200073769,0.0014335197438231882,0.029646189177921695,0.005001196503235291,0.0052390760232446125,-0.0016815818016245653
4.687,0.8077704432520166,0.22425069988086896,0.15498225040901772,0.16207676716672284,-0.0521483419940408,0.20257002293500642,-0.049561261060153405,0.005165524822318905,0.005392737430982354,-0.001736539788401559
4.72,0.806033903463615,0.21784775674291332,0.15083029180458954,0.1571873665154484,-0.025736954585782217,-0.1922805747133826,0.7931347570047622,0.005024825428096139,0.0052322494484469,-0.0008570405877065479
4.753,0.8051768628759085,0.21801942048113293,0.1510839125259018,0.15718180264520026,-0.025559039960997797,0.005155067213802189,0.005342781525057654,0.0050332554233369145,0.005232075570666414,-0.0008511160307012268
4.788,0.8043257468452072,0.2248149275519104,0.15593098173499714,0.16194838864691027,-0.02680673603860228,0.2040692814047289,-0.03746835067881325,0.005194840335197849,0.005390628271132866,-0.000892664310085456
4.821,0.8034330825351218,0.21837706260000725,0.15160606263534462,0.1571755173111113,-0.033780920969569146,-0.19332927783492956,-0.20943498291191792,0.005051358984122842,0.00523116751668237,-0.0011249046682866527
4.853,0.8023081778668352,0.21853675317384835,0.1518937669340248,0.15711968703621987,-0.03439146806841534,0.00479551272796107,-0.018334747713098832,0.005060991662033516,0.005229251642745727,-0.001145235886678231
4.8870000000000005,0.8011629419801569,0.22525467632971977,0.15674842097755173,0.1617702127384737,-0.035693440693134446,0.20173943411025264,-0.03909827701859184,0.005222855030891225,0.005383910334580828,-0.0011885915750813772
4.92,0.7999743504050755,0.21850707725535573,0.15223936722044099,0.15674347794724258,0.020203601622359454,-0.2026306028337548,1.678589859324141,0.00506774918172894,0.005221326404602347,0.0006727799340245699
4.954,0.8006471303391001,0.21830321078913498,0.15199193844176417,0.15669952932143882,0.021480551291221027,-0.006122116102725328,0.03834683690274994,0.005059399320597355,0.005219967597686491,0.0007153023579976603
4.987,0.8013624326970977,0.22465532279123857,0.15629915873668426,0.16137096094601525,0.022653496144698002,0.1907541141772849,0.03522356917348274,0.0052026671586451806,0.005375680949575412,0.0007543614216184436
5.021,0.8021167941187162,0.21764299702417594,0.151302506959129,0.15644815608228874,-0.020264121838293275,-0.21058035336524386,-1.2888173568465848,0.005040065456470795,0.005208086549358012,-0.0006747952572151661
5.054,0.801441998861501,0.21738178121933677,0.1512263225710413,0.15615837527244883,-0.018690485667359067,-0.007844318463638937,0.04725634146949572,0.005037389189955938,0.005198569674540323,-0.0006223931727230569
5.087,0.800819605688778,0.2240035742943101,0.155933038017515,0.16081818600909137,-0.018790543261505113,0.19885264489409368,-0.0030047325569383023,0.005194178063531052,0.005353685901385564,-0.0006257250906081203
5.12,0.8001938805981699,0.2174810188026123,0.15149023453716387,0.15604070744295315,0.000897932667119915,-0.19587253728822157,0.5912455233821329,0.005044481880648636,0.005196294314984485,2.9901157815093175e-05
5.153,0.800223781755985,0.21762927278469396,0.15158883441365073,0.1561516111153052,0.0011824346098250778,0.004452071533983575,0.00854360188303792,0.0050477405226212,0.005200011408417024,3.93750725071751e-05
5.188,0.8002631568284921,0.22441189209191745,0.1563069016262443,0.16102437646604315,0.0008307299196949688,0.20368226147818275,-0.010561702406309577,0.005204878329792035,0.005362249081434284,2.7663306325842465e-05
5.22,0.800290820134818,0.21800756889824094,0.1518418484307113,0.1564332226928352,0.025561815452136018,-0.19232201782812336,0.7426752412144458,0.0050540504401977064,0.005211441141396894,0.0008512084545561295
5.253,0.801142028589374,0.21817737056187553,0.15182679892880022,0.15668435835247763,0.025809193242482334,0.005099149058095763,0.007428762472862348,0.005053524125049521,0.0052198245498625345,0.0008594461349746618
5.287,0.8020014747243488,0.2249734858593239,0.15641721309487458,0.16169948913749854,0.02618376610682157,0.20408754646992078,0.011248434364541612,0.005206277433946556,0.0053869284555475155,0.0008719194113571584
5.32,0.8028733941357059,0.20704838411502374,0.14382462564339724,0.14894129858161925,-0.050282025398243654,-0.5382913436726771,-2.2962700151671234,0.00479344784905948,0.004955793480349988,-0.0016743914457615138
5.353,0.8011990026899445,0.20714381182190397,0.1441402129481424,0.1487688064997919,-0.04866410267471414,0.002865696903310212,0.0485862679738593,0.004803818852330459,0.004950170276130059,-0.001620514619067981
5.388,0.7995784880708764,0.2134006443536191,0.14874217432870387,0.1530215690238121,-0.05033410347212899,0.18789286882027428,-0.050150174096541954,0.0049573186054179316,0.005091527085918963,-0.0016761256456218955
5.421,0.7979023624252545,0.2178843304948034,0.1521290028271925,0.15598188348001435,0.034993356007805995,0.13464522946499402,2.5623861705686175,0.00506280304980641,0.00519721070228936,0.0011652787550599398
5.453,0.7990676411803145,0.21801416767360907,0.15203768244098562,0.15625210534386583,-0.040463749979801074,0.003899014378548302,-2.265979158786999,0.005066293509065577,0.005199846191852826,-0.0013474428743273758
5.488,0.7977201983059872,0.2244436377218755,0.1567380433591846,0.160649096722524,-0.0416828533359718,0.19307717862661977,-0.036609710395517234,0.005223020780867464,0.005346056433833752,-0.001388039016087861
5.52,0.7963321592898992,0.2063193554973215,0.14428596786208409,0.1474762215780285,0.02357936393489153,-0.5442727394760962,1.95982634447037,0.0048027325266567986,0.004912904293186291,0.0007851928190318881
5.554,0.7971173521089311,0.20586380969401383,0.14385180361171945,0.14726359611047277,0.02713294237547173,-0.013680054153383542,0.10671406728469066,0.004787987416149289,0.004906101267302821,0.0009035269811032087
5.587,0.7980208790900344,0.21218779867152393,0.1481336235805552,0.15192133316279696,0.028053326828893634,0.1899095789042073,0.027639172775432548,0.004930422410667393,0.005061345638413023,0.0009341757834021581
5.621,0.7989550548734364,0.21771821749538217,0.15184886111906068,0.15602290090307497,-0.006842542840821239,0.16607864335910633,-1.0479240141055517,0.0050570937257855934,0.00519504996502546,-0.0002278566765993473
5.6530000000000005,0.7987271981968372,0.21773339811314749,0.1518949983269048,0.15599917351437462,-0.005871315328107104,0.00045587440736680635,0.02916599137279684,0.005058546020873596,0.0051943414923187,-0.0001955148004259666
5.688,0.7985316833964111,0.224517112587522,0.15665889518824372,0.1608288668213418,-0.006466445517504536,0.20371514938061583,-0.017871777459382336,0.005217250550179956,0.005355105063547243,-0.00021533263573290107
5.72,0.7983163507606783,0.21809550642375586,0.15221179764345272,0.15619609015715832,-0.01392123266858442,-0.192841025938923,-0.22386748201441092,0.005069792996090656,0.005200218416034813,-0.00046357704786386127
5.753,0.7978527737128144,0.21827748261945273,0.15241125425441834,0.15625578067796578,-0.014529220673394834,0.005464750621527799,-0.018257898042354736,0.0050764879943856235,0.005202153261009322,-0.000483823048424048
5.787,0.7973689506643905,0.22506949059130762,0.15723167692247242,0.16104184352887288,-0.015398877735696238,0.20396420335900572,-0.02611582769673888,0.005237122243656812,0.0053614164936801245,-0.0005127826285986848
5.82,0.7968561680357916,0.2185872668810361,0.1527834302833487,0.1563253551839062,-0.02333506500019612,-0.19466137268082634,-0.23832394187687328,0.005089644918949606,0.005203720995180818,-0.0007770576645065309
5.854,0.7960791103712851,0.21862861369544528,0.15293378063618532,0.15623613367820965,-0.02368929615026638,0.0012416460783536529,-0.010637572074182033,0.005094681137911121,0.005200717984874461,-0.0007888535618038705
5.8870000000000005,0.7952902568094814,0.22509536413465722,0.15758420716190144,0.16073313475468853,-0.02432015865194803,0.19419670988624435,-0.01894481987031983,0.005249653703456205,0.005350353820860388,-0.0008098612831098696
5.92,0.7944803955263715,0.2067545425352467,0.14486372768318725,0.14751929114760043,0.050175752836656026,-0.5507754234057215,2.237114459117239,0.0048197942166325536,0.004916480690034994,0.0016708525694606458
5.954,0.796151248095832,0.2064692931644555,0.1444175213708285,0.1475572720706647,0.04806637344892319,-0.008566047170906628,-0.06334472635834335,0.004805107240564483,0.004917564143434517,0.0016006102358491424
5.988,0.7977518583316812,0.21253345099351392,0.14841586333450427,0.15212889042481753,0.04870013331377505,0.18210684171346603,0.01903182777332896,0.004938074711546788,0.005069959289234821,0.0016217144393487093
6.021,0.7993735727710299,0.2178529526836973,0.15187748088319272,0.15618303298880032,-0.006313279937289598,0.1597447955010026,-1.652054451983923,0.00505800147896175,0.00520042684096315,-0.00021023222191174365
6.053,0.7991633405491182,0.21746246407400677,0.15163802192911485,0.15587120833099344,-0.004545435890548324,-0.011726384675391664,0.05308840981205027,0.005049873770126212,0.005190192465880551,-0.0001513630151552592
6.087,0.7990119775339629,0.22410006776091587,0.15629077858684176,0.16060520819439789,-0.0030905029429789425,0.19932743804531844,0.04369168010718863,0.0052046909696983655,0.00534795096641252,-0.00010291374800119879
6.12,0.7989090637859617,0.21770483159693893,0.15184670010597673,0.1560063247678667,0.02723322001443698,-0.1920491340533616,0.9106223110335111,0.005054073574155827,0.0051973661431381464,0.0009068662264807515
6.154,0.7998159300124423,0.2178569859166387,0.1518111878430966,0.1562530945560777,0.02744794645883599,0.004569198789783246,0.006448241573543919,0.005052868572989221,0.005205601087054945,0.0009140166170792385
6.188,0.8007299466295217,0.2246499228882243,0.15639743303144205,0.16126819523657082,0.02789769882714675,0.20399210124881648,0.01350607712644919,0.005205471858317395,0.005372714602743766,0.0009289933709439868
6.22,0.8016589400004657,0.21821445523669275,0.15177157968935467,0.15678946416403255,-0.02859574329838143,-0.1932572868327793,-1.6964997635293746,0.005056413175031701,0.005218745552433912,-0.0009522382518361018
6.253,0.8007067017486296,0.21839825307502297,0.15204877175962972,0.156776809358431,-0.029819940363036184,0.0055194546045112345,-0.03676267461425686,0.00506574982088623,0.005218216597814876,-0.0009930040140891051
6.287,0.7997136977345405,0.22517670925240973,0.15692836463881127,0.1614869615836912,-0.031126819207730114,0.20355724256416696,-0.03924561095176968,0.005228433080788935,0.005374872218705351,-0.0010365230796174128
6.321,0.798677174654923,0.21864117175083858,0.15253611461821984,0.1566419347485117,-0.0017957616089232058,-0.19626238743456917,0.8808125405047118,0.005079543082778968,0.0052160883293363705,-5.979886157714276e-05
6.353,0.7986173757933459,0.21854056083409928,0.1524752853318484,0.15656073611430826,-0.0012172647359476817,-0.0030213488510299267,0.017372278467733454,0.005077467205652035,0.005213433356661467,-4.05349157070578e-05
6.3870000000000005,0.7985768408776388,0.2249010906428201,0.15691954422605586,0.161111008972748,-0.001069532340205639,0.19100690116278726,0.004436408280541822,0.005225448998947941,0.005364969154890796,-3.561542692884778e-05
6.421,0.79854122545071,0.2062434183615889,0.14390684601988024,0.1477402019968968,0.027149089810616485,-0.5602904588958315,0.8474060705952589,0.0047898116353911275,0.004921974379690394,0.0009040646906935291
6.454,0.7994452901414035,0.20652883456125506,0.1439721854529148,0.1480748774139009,-0.00977210798752131,0.00857105704703169,-1.1087446786227564,0.004795014073102863,0.004930173481239553,-0.0003254111959844596
6.487,0.799119878945419,0.21217522200875447,0.14795780245070972,0.15207502598527148,-0.009798285379919195,0.1695611846095916,-0.0007861078798163816,0.004927757324509813,0.00506335635063709,-0.0003262829031513092
6.52,0.7987935960422679,0.21802708730515102,0.15208950922950568,0.1562196913999514,0.00896312618053646,0.1757316905824792,0.5634057525662358,0.005063738912408363,0.005202935044018363,0.00029847210181186415
6.554,0.7990920681440796,0.2174920007096221,0.15166972846109708,0.15588156992156366,-0.027661324101187976,-0.016068666532400057,-1.0998333417935267,0.005052926803113438,0.005188592877859885,-0.0009211220925695597
6.587,0.7981709460515101,0.22422131089642075,0.156510427178011,0.16056052579842245,-0.029056215551397827,0.20208138699095038,-0.041888632138433954,0.005214315953149062,0.00534420875080921,-0.0009675719778615477
6.621,0.7972033740736485,0.21783884876778334,0.15220621662926537,0.15584297113401788,0.012442981046524195,-0.19166552938851084,1.2462221200577182,0.005067326543364204,0.005190684477794618,0.0004143512688492557
6.654,0.7976177253424978,0.2179900543124978,0.1522472338517758,0.15601424154111196,0.01294383517941461,0.004540707048482149,0.01504066465136384,0.0050686478266541175,0.005196430347999941,0.00043102971147450657
6.688,0.7980487550539723,0.22478534722821378,0.1569238017112398,0.16094524778632058,0.012968258761246252,0.2040628503218013,0.0007334408958450752,0.005224337901262422,0.0053606704921327535,0.00043184301674950023
6.72,0.7984805980707218,0.20690949899047412,0.14438059115999652,0.14820858837725615,-0.001016317559907629,-0.5368122593915814,-0.4199572468814978,0.0048078952325687555,0.004935325001975986,-3.384337474492405e-05
6.753,0.7984467546959768,0.2070306262882905,0.14447013201899495,0.14829046218734354,0.004126838343378894,0.0036374563908823216,0.1544491262248205,0.004810454071052697,0.004938463337529793,0.00013742371683451716
6.788,0.7985841784128114,0.21341250699840078,0.14890252842470705,0.15288209565567765,0.004069989991287084,0.19164806937268114,-0.0017071577204747646,0.004958045264047965,0.005091372033608074,0.00013553066670985993
6.821,0.7987197090795213,0.19493764394071586,0.13599328858542667,0.1396657097675667,-0.005345680246812276,-0.5548006924229705,-0.2827528600029838,0.004528932048573821,0.004650521906801896,-0.0001780111522188488
6.854,0.7985416979273023,0.19546021637391361,0.13638277449199507,0.14001583841409782,-0.0012896941331462706,0.015692865861794424,0.1218013847947749,0.004541587968727585,0.004662486918845672,-4.294681463377081e-05
6.8870000000000005,0.7984987511126687,0.201169448056834,0.14037259157762078,0.1440995571307341,-0.0009241262602282434,0.17144839888649835,0.010978014201742556,0.004674420883507789,0.004798502019386419,-3.077340446560051e-05
6.92,0.798467977708203,0.2064696505200155,0.14407553317806635,0.1478917081019529,-0.031797332651667044,0.15916523913457947,-0.9271233150582222,0.004800259866849534,0.0049223131979785565,-0.0010588511773005126
6.953,0.7974091265309025,0.20651149747091874,0.1442612804211458,0.14776901420437513,-0.03135848131205863,0.0012566651922891687,0.013178718907159603,0.004806407206328201,0.0049182594211334705,-0.0010442374276915525
6.987,0.7963648891032109,0.21254364542279608,0.14863384766806506,0.15193018310065215,-0.03407879195068515,0.18114558414046072,-0.08169101016896466,0.0049523132692255575,0.005056527783050291,-0.0011348237719578157
7.021,0.7952300653312532,0.2062043431984861,0.14436789038679226,0.14723499373174223,0.024579668966070774,-0.19036943616546478,1.7615153428455232,0.004805382098577537,0.004904952535814365,0.0008185029765701569
7.053,0.7960485683078233,0.21770731037877236,0.15229406764330242,0.1555731016371929,9.89279723205348e-05,0.34543444985844624,-0.7351573871997068,0.005071318872428888,0.005180656312501363,3.2943014782738093e-06
7.087,0.7960518626093016,0.2242571185961482,0.1568753653542525,0.16025409506785362,0.0011540235719143977,0.19669093745873362,0.03168455254035624,0.005223780122492661,0.005336627329075118,3.842898494474944e-05
7.12,0.7960902915942463,0.21786939328556287,0.15240095446040353,0.15569528448279119,0.041324959278034624,-0.19182358290045998,1.206334405589196,0.005071317685444087,0.0051882068853677426,0.001376121143958553
7.154,0.7974664127382048,0.21802162835489614,0.1522928941918324,0.15601379685526465,0.04174428085647143,0.004571623703701558,0.012592239592696865,0.005067675543769773,0.005198846195600666,0.0013900845525204987
7.188,0.7988564972907254,0.22481700509152233,0.15681583045891143,0.1610946339758203,0.04257925717474051,0.20406536746625212,0.025074363911984348,0.005218094904471587,0.00536821711660232,0.001417889263918859
7.221,0.8002743865546442,0.21834503010291761,0.15207946422125151,0.1566728717194559,-0.015302657080022845,-0.1943536032614029,-1.7381956232661666,0.005065509737157042,0.00521597968892529,-0.0005095784807647608
7.253,0.7997648080738796,0.21853754700162567,0.15229344188852315,0.15673342657912756,-0.016386216105299185,0.005781288249491174,-0.03253931006835854,0.005072729811958853,0.0052179029137940395,-0.0005456609963064629
7.287,0.799219147077573,0.22525518071885853,0.15706292446395748,0.16146558208954256,-0.017090711328842562,0.20173074225924495,-0.02115601271902035,0.005231657635710037,0.005375380975162915,-0.0005691206872504574
7.32,0.7986500263903226,0.21855371498526036,0.15247935076472807,0.15657513826985892,0.005877092121109017,-0.2012452172251703,0.6897238273258731,0.005076986672256282,0.005214512674742195,0.00019570716763293028
7.353,0.7988457335579555,0.21831480392742417,0.1522820563188598,0.15643378451335013,0.006639138342597613,-0.007174506241326984,0.022884270915573435,0.005070351181949494,0.005209869200401514,0.00022108330680850052
7.3870000000000005,0.799066816864764,0.22465542318587986,0.1566692623204014,0.1610118051908245,0.007420112468011104,0.19040898674041118,0.023452676438843585,0.00521635664372029,0.005362403098447809,0.00024708974518476977
7.42,0.7993139066099487,0.19545301714381474,0.13626959309966105,0.14011595165102778,0.014065939305495788,-0.8769491303923457,0.19957437950404452,0.00453662595221878,0.0046669807185207605,0.0004683957788730098
7.453,0.7997823023888218,0.2060160396540017,0.14356492650522507,0.14775561062872883,-0.003115547579923827,0.3172078831887974,-0.5159605671297182,0.004780905502039865,0.004920073859497277,-0.00010374773441146345
7.487,0.7996785546544104,0.21214227806051034,0.14784985887682178,0.15213403751562884,-0.0017096584806802811,0.1839711233185777,0.042218891869175545,0.004923480900515954,0.005065985116500083,-5.6931627406653365e-05
7.52,0.7996216230270037,0.20693823653668378,0.1442314169514252,0.14839384119665017,-0.004007878083277826,-0.15627752323803476,-0.06901560368160793,0.004803173882346101,0.004941254701640253,-0.00013346234017315163
7.554,0.7994881606868305,0.21772061562686248,0.15176733450424432,0.15610554969768628,-0.020458643688616395,0.3237951678732344,-0.49401698514530235,0.0050555573356073,0.005196656353662981,-0.000681272834830926
7.588,0.7988068878519996,0.22436610478314006,0.1565092911145209,0.1607637731903215,-0.020625021927526202,0.19956423892725458,-0.004996343510805011,0.005213530194328759,0.005351708934163557,-0.0006868132301866226
7.62,0.7981200746218129,0.21798220725811532,0.15216336333499292,0.1560850842960431,0.020041810100429852,-0.19170863438512747,1.2212261870257073,0.005065239910809904,0.005199387371300544,0.0006673922763443141
7.654,0.7987874668981573,0.21813428995798453,0.15216524871900916,0.1562955710753064,0.02051473368996064,0.004567048044120599,0.014201909595519183,0.005065259266403468,0.005206436482540416,0.0006831406318756894
7.687,0.799470607530033,0.22493049376600432,0.1567959824394772,0.16127227572232514,0.020746848812118603,0.20409020444503873,0.006970424088827696,0.005219383234902638,0.005372235510229487,0.0006908700654435496
7.721,0.8001614775954765,0.19597846133098942,0.1365168055721865,0.14060838915949483,-0.014358181259079417,-0.8694304034539009,-1.0542051072431837,0.004547070034502178,0.004681229487074835,-0.00047812743592734464
7.753,0.7996833501595492,0.20678006762392465,0.14411202348496627,0.1482893153724279,0.011495885883948285,0.32437256134940606,0.7763984127035345,0.004797923080200862,0.004939012869833744,0.00038281299993547796
7.787,0.8000661631594846,0.21340578003754254,0.14867110965866365,0.15309777302852448,0.011685333111167297,0.19897034275128814,0.005689105922492839,0.004949691901614799,0.005099181082315015,0.00038912159260187103
7.82,0.8004552847520865,0.2180817459032906,0.15186777403261004,0.15651142803836246,0.058859256004272026,0.14041939536780962,1.416634321114256,0.005052020509307848,0.005216846733959946,0.001960013224942259
7.853,0.8024152979770287,0.21814958909231985,0.15160786716891816,0.1568575718084392,0.05800169730810936,0.0020373330038813385,-0.025752513398278182,0.005043428850814111,0.00522829273634467,0.001931456520360042
7.888,0.8043467544973887,0.22454453829743842,0.1557400424343382,0.16175688196104773,0.060692820415697166,0.19204051667022737,0.08081450773536947,0.005180628932829781,0.005391806329561886,0.0020210709198427157
7.92,0.8063678254172315,0.20641690371266724,0.14286622031451934,0.14898718478905415,-0.0014481761439642691,-0.5443734109540894,-1.8660959927826255,0.004757502469890865,0.004961218273978465,-4.822426559401017e-05
7.953,0.8063196011516375,0.20585719454569873,0.14248599697197423,0.14857632790296108,-0.0010129824879772957,-0.016808083092147562,0.01306887855816737,0.004744805024850426,0.0049475712670977,-3.373231684964395e-05
7.988,0.8062858688347878,0.21215892056464558,0.1468529611791753,0.15311961131110288,-0.0005686559060112759,0.18924102158999553,0.013343140599580172,0.004890187863539092,0.005098898155855382,-1.893624167017549e-05
8.02,0.8062669325931177,0.20717649347359232,0.14340703740947253,0.14952097200544007,-0.018020476705563882,-0.14962243516676454,-0.5240787026892674,0.004776885479178954,0.0049776752151446235,-0.0006000818742952774
8.054,0.8056668507188224,0.21773487143021703,0.15080978989844204,0.15705056990511337,-0.005974091736627985,0.31706840710584694,0.36175330237044734,0.0050224205117569976,0.005229347476127527,-0.00019893725482971193
8.087,0.8054679134639927,0.2244473201124755,0.15549123919280244,0.16186128023699412,-0.006783732849824063,0.2015750355032577,-0.02431354694282517,0.005178399346317542,0.0053894607706494605,-0.00022589830389914132
8.12,0.8052420151600935,0.21807386227209746,0.15111139617016342,0.15723089821588393,0.054374637676599384,-0.19139513034168298,1.8365877034961995,0.005027200789967163,0.005240404837237328,0.0018106754346307596
8.153,0.8070526905947243,0.2182118590432686,0.15092189721330942,0.1576039224405744,0.05488306638937604,0.004144047182316164,0.015268129512812473,0.005020834596453429,0.0052528632345630166,0.0018276061107662222
8.187,0.8088802967054906,0.2250069006723563,0.15532428573714396,0.16279579727506993,0.056164753910356253,0.20405530417680778,0.038489114744150565,0.005167158069243071,0.005425998605257698,0.0018702863052148634
8.22,0.8107505830107054,0.21854168255775325,0.1505652977372509,0.15839999410500863,0.04606666523077763,-0.19415069413222352,-0.3032459062936522,0.005009710409393365,0.005278626288792312,0.0015340199521848953
8.254,0.8122846029628903,0.21856336045559832,0.15033704289179187,0.15864651294054757,0.04546877565807177,0.0006509879232754892,-0.017954641822998982,0.005002155768635127,0.005286779655190205,0.00151411022941379
8.287,0.8137987131923041,0.22506640632399255,0.15456257776139973,0.16360102937129636,0.04637936670895429,0.19528666271454143,0.027345076603078756,0.005142656371971786,0.005451951229007756,0.001544432911408178
8.32,0.8153431461037123,0.21831641253638703,0.1496818011712193,0.1589258140797067,-0.0001577490688386173,-0.20270251614430984,-1.397510984318105,0.004984351430699534,0.0052922791000654945,-5.253043992325957e-06
8.354,0.8153378930597199,0.21803369519747862,0.14948879865581144,0.15871922163969074,-0.0014404016638215223,-0.00849001017742994,-0.038518095945432575,0.004978037389616182,0.005285293196898574,-4.79653754052567e-05
8.387,0.8152899276843146,0.2242258270762231,0.15374209241189637,0.16321945517868947,-0.0012469827319476626,0.18594990626860308,0.0058083763325483375,0.005119656280695749,0.005435165842886217,-4.152452497385717e-05
8.421,0.8152484031593409,0.19695650853189925,0.13505063622267083,0.14336384449688816,-0.020900670468427897,-0.8188984547845,-0.5902008329273343,0.004498787240110274,0.004772507119028832,-0.000695992326598649
8.453,0.8145524108327422,0.20595096662716025,0.1413223272401807,0.14981255113668196,0.00113388417066462,0.27010384670453463,0.6616983375102857,0.004705876673098588,0.0049889058840472626,3.775834288313185e-05
8.488,0.8145901691756253,0.21222488447163312,0.14562162321775732,0.15438181382670546,0.0003136622510633311,0.18840594127546156,-0.02463128887691558,0.004849108655862262,0.005141000609972828,1.0444952960408925e-05
8.52,0.8146006141285856,0.20849994303650685,0.14306410867563304,0.1516736201686808,-0.03962375740004772,-0.11186010315694526,-1.1993219114447762,0.004767302206463965,0.005047646940954493,-0.0013194711214215892
8.553,0.8132811430071641,0.21778206334846034,0.14964202717571432,0.15822860303704755,-0.01827727084306967,0.27874235171031514,0.641035632341683,0.0049846165070618785,0.005267558308456173,-0.0006086331190742201
8.587,0.8126725098880899,0.22456432198649223,0.15440151446194308,0.16306227963913464,-0.019443483724093682,0.20367143057152823,-0.03502140783855887,0.0051432597823924025,0.005428373609565244,-0.0006474680080123197
8.621,0.8120250418800777,0.20679348995602137,0.14228018865872677,0.15006630335764332,0.038702670150064136,-0.5336586195336595,1.7461307469717062,0.004734645990538611,0.005000319085289746,0.0012887989159971359
8.654,0.8133138407960747,0.20683278754479348,0.14211366641559092,0.15027810160322033,0.03824921556530005,0.0011801077709341769,-0.013617254797720219,0.0047291339812107,0.005007332625081885,0.0012736988783244919
8.688,0.8145875396743992,0.21326665796957284,0.14633686131559753,0.1551392613808972,0.03900165585097409,0.1932093220654462,0.022595804374595796,0.004869596433578618,0.005169361521461919,0.0012987551398374374
8.72,0.8158862948142367,0.207082219689774,0.14189752979469972,0.15082485454926228,0.013343955264431115,-0.18571886726122633,-0.7705015191154048,0.004724008636036884,0.0050235766325789745,0.00044435371030555616
8.753,0.8163306485245422,0.20711117134708035,0.14185032517819388,0.15090898761704133,0.012207980995805924,0.0008694191383287543,-0.034113341400155886,0.004722531138986801,0.005026288580476716,0.0004065257671603373
8.787,0.8167371742917026,0.21326152352264813,0.145999515681023,0.15544973089750821,0.012116718780535544,0.18469526052756097,-0.0027406070651765637,0.004860674413146723,0.005177517761062878,0.0004034867353918337
8.82,0.8171406610270944,0.22005738625985413,0.1505872519911762,0.16046411681514539,-0.05263900165281549,0.20407996207825838,-1.9446162292297606,0.005019169100164948,0.005339120420838747,-0.001752878755038756
8.853,0.8153877822720557,0.21797273017237187,0.14943908331642158,0.15868229729980987,-0.00026541438914141316,-0.06260228490937722,1.5727803983085307,0.004976278479269429,0.005284160990411515,-8.83829915840906e-06
8.887,0.8153789439728972,0.22445631682224004,0.15388558467161392,0.16340093326441357,0.002027963186184505,0.194702301797843,0.06887019745723477,0.0051241379168762285,0.005441488439608862,6.753117409994403e-05
8.92,0.8154464751469973,0.21742188920895547,0.14905214414432452,0.15829003832576077,0.0377563236440564,-0.21124407247100815,1.0729237374736302,0.004960055258168617,0.005274239393422687,0.0012572855773470783
8.953,0.8167037607243443,0.21740295307086205,0.14884004640477283,0.15846351185732477,0.03683651587282199,-0.000568652795598281,-0.02762185499202436,0.004953069578806059,0.005279935693854792,0.0012266559785649724
8.987,0.8179304167029092,0.2241180270004384,0.1532368713152839,0.16354617481333017,0.03824713774514588,0.20165387175904947,0.042361017186903736,0.00509924986517438,0.0054493997050056985,0.001273629686913358
9.02,0.8192040463898226,0.2177000137353512,0.14864621143700504,0.15905219208108165,-0.0018621846347095454,-0.19273313108369974,-1.204484155551214,0.004950016556318163,0.005296346670581541,-6.201074833582787e-05
9.054,0.8191420356414867,0.21789572749309755,0.1487897168942576,0.15918595480215234,-0.002624974863584372,0.00587729002241297,-0.02290661347972452,0.004954862691637403,0.005300737951595907,-8.741166295735959e-05
9.087,0.8190546239785294,0.22464083527830864,0.15340994682499645,0.16410025316765342,-0.0037860196035101232,0.2025557893456784,-0.03486620840617871,0.005108827077154065,0.005464280532871975,-0.00012607445279688712
9.12,0.8189285495257325,0.19721908383787504,0.13470146299296212,0.14405166745791748,-0.04515681320983745,-0.8234760192322401,-1.2423661743641838,0.004489103456628275,0.00479360256740497,-0.0015037218798875872
9.154,0.8174248276458449,0.19548207517419616,0.13372963356272421,0.14258200034222265,0.004034776972980055,-0.05216242233269891,1.4772249304149399,0.004452818200746925,0.004748335667586928,0.00013435807320023586
9.187,0.8175591857190452,0.2015089084893095,0.1378328519884899,0.146996411906114,0.004460461796766917,0.18098598543883881,0.012783328041647495,0.004589408955378413,0.004895378994266831,0.00014853337783233834
9.22,0.8177077190968775,0.21935680836598337,0.15001711331016682,0.16003835506088945,-0.018833931104879263,0.5359729692694856,-0.6995313183677531,0.004997173832843769,0.005327773082526428,-0.0006271699057924796
9.253,0.817080549191085,0.21828681029821362,0.14938519882188592,0.1591640472063773,0.02582254817135082,-0.03213207410719972,1.3410354137006029,0.004972181152180716,0.005302363323917906,0.0008598908541059824
9.287,0.817940440045191,0.22490954760237764,0.15377641492516927,0.16412531436517755,0.028182432197733774,0.19888100012504553,0.0708673881796683,0.00511812065498508,0.005467839278456464,0.0009384749921845347
9.321,0.8188789150373755,0.21800645295879212,0.1489072268202967,0.15922767137769347,-0.0014019611136751064,-0.2073001394470125,-0.8884202195618282,0.00495866784738337,0.005302227968198302,-4.668530508538105e-05
9.354,0.81883222973229,0.21769713378766042,0.14870337219610288,0.158994808584651,-0.0030041562628806574,-0.009288863997948782,-0.04811396844461113,0.004952020639663292,0.005294341607768048,-0.0001000384035539259
9.388,0.8187321913287362,0.22396868776506845,0.15300367416064026,0.1635599241640548,-0.0006625315994402659,0.18833495427651736,0.07031905896217391,0.005095014045445227,0.005446553242580937,-2.2062302261360858e-05
9.42,0.8187101290264749,0.2081593847606165,0.14220694032889286,0.1520115639884449,-0.01754806843794836,-0.4747538439775364,-0.5070731783335765,0.00473690629042175,0.00506066067502562,-0.0005843506789836805
9.454,0.8181257783474911,0.2060618325233084,0.1408618776630162,0.1503975074398291,0.0011268005578931924,-0.06298955667591868,0.5608068767519985,0.004690543680575314,0.005008383893718675,3.752245857784331e-05
9.488,0.818163300806069,0.21236651320935618,0.1451658804129962,0.1550045260520458,0.001727782168063967,0.1893297503317652,0.01804749580092416,0.0048338105162177855,0.005161850470513782,5.7535146196530106e-05
9.52,0.8182208359522656,0.21777673344226578,0.14885496086618785,0.15896196480387806,0.04426459482419797,0.1624690760633514,1.2773817614454654,0.004952900603557595,0.005297146939051626,0.0014740110076457925
9.553,0.8196948469599113,0.21794831959042962,0.14873758554245642,0.1593066246560152,0.04349357421532199,0.005152737182097407,-0.023153772038317765,0.004949051568338788,0.005308557661749167,0.0014483360213702224
9.588000000000001,0.8211431829812815,0.22474265015587472,0.1531362545430924,0.1644948216315611,0.044397078159351185,0.2040339509142671,0.027132250571447296,0.0050953174336721115,0.005481509102251344,0.0014784227027063947
9.62,0.8226216056839879,0.19706143378029503,0.13406130506817673,0.1444325973143281,-0.027756175381011414,-0.8312677590264169,-2.1667643705814594,0.00446640317278929,0.0048075977795121565,-0.0009242806401876802
9.653,0.8216973250438003,0.20673971749585351,0.1407854542605792,0.15139605892792482,0.03463132885262699,0.29063915061737183,1.873498625634787,0.004685184272873419,0.00504424971613665,0.001153223250792479
9.687,0.8228505482945927,0.21337618735437144,0.14512445782214345,0.1564234287813585,0.03536211088827678,0.19929338914468253,0.021945406475969605,0.004829510999248165,0.0052118049732609905,0.001177558292579617
9.72,0.8240281065871724,0.20712464820718676,0.14069367312378936,0.1520062835473823,-0.0006433525907087531,-0.1877339083238643,-1.081245149519085,0.004685089981095812,0.0050618178811608315,-2.142364127060148e-05
9.754,0.8240066829459017,0.20700984683280663,0.14061894662224564,0.15191901966703214,-0.002111134450350588,-0.0034474887201241954,-0.044077533322577626,0.004682725224280726,0.005058797550843619,-7.03007771966746e-05
9.787,0.8239363821687051,0.21303833702667002,0.14472500792588527,0.1563329943548114,-0.002119092309567023,0.1810357415574593,-0.00023897475124428895,0.004819461076449458,0.005205779179901779,-7.056577390858187e-05
9.821,0.8238658163947965,0.20804635981112204,0.141344541715635,0.15265977976486136,-0.025811940427222287,-0.14990922569213141,-0.7114969404701279,0.004708893616350759,0.005081606340266877,-0.0008595376162265023
9.853,0.8230062787785701,0.21793284815516367,0.14819871709756205,0.1597869411299259,0.001074626032340389,0.2968915418631119,0.8074043981850653,0.0049348552642393215,0.00532105539982038,3.5785046876934955e-05
9.887,0.8230420638254471,0.2244059887798589,0.15259469491054112,0.16453846627893745,-0.0016205729292000529,0.19438860734820504,-0.08093690575196522,0.005081482385452398,0.005479057617703675,-5.3965078542361765e-05
9.92,0.8229880987469046,0.21735629395968473,0.14780954587821218,0.1593615282029059,0.03027640692365618,-0.21170254715237757,0.9578672628485355,0.00491931524369018,0.005309280976285621,0.001008204350557751
9.953,0.8239963030974623,0.21750881048145326,0.14775240533787362,0.15962239615395282,0.030540743848665664,0.004580075728784878,0.007938045796080559,0.004917384566685062,0.005317988532984411,0.0010170067701605668
9.987,0.8250133098676229,0.224259741525869,0.152170817180119,0.16473152117304202,0.031385292259818835,0.20273066199446654,0.025361814148743875,0.005064351818599636,0.0054882702315778905,0.0010451302322519672
10.021,0.8260584400998748,0.2178488396031699,0.14765339280570103,0.16017675396078235,-0.008146593086268451,-0.19251957725823146,-1.1871437040867052,0.004917514449393774,0.005333280658726051,-0.00027128154977273944
10.053,0.8257871585501021,0.2180294872825082,0.14781931562172124,0.1602694832268432,-0.009312642672797421,0.0054248552353847995,-0.03501650409996907,0.004923143657741591,0.005336272277681893,-0.0003101110010041542
10.088,0.825477047549098,0.22482314767522701,0.15247651430489742,0.16521610186669258,-0.010110826449436524,0.2040138256071714,-0.02396948278195504,0.005078324947109266,0.005500905083354306,-0.0003366905207662363
10.12,0.8251403570283318,0.2184109855988651,0.14818177624518478,0.16045410502411475,0.030523250767787932,-0.19255741971056803,1.2202425590758095,0.004931669741366487,0.00534569044740499,0.0010164242505673383
10.153,0.826156781278899,0.21854021414375088,0.1481061893488864,0.16069966357944968,0.030962635057184763,0.0038807370836571884,0.013194723405310221,0.004929109265975355,0.005353902288624778,0.0010310557474042528
10.187,0.8271878370263033,0.2251682362639012,0.15242724846392475,0.16573071093769248,0.031339693971710526,0.1990397033078173,0.01132309052629921,0.005072877366343983,0.0055215439632908,0.0010436118092579606
10.22,0.8282314488355613,0.2184869876340829,0.14773648177783652,0.16096737469848624,0.021158202990574398,-0.2006380969915408,-0.30575047991399784,0.004917668794507987,0.005362007985031768,0.0007045681595861276
10.253,0.8289360169951474,0.2182929181790463,0.14749190756112596,0.16092835465232372,0.020705415538465742,-0.005827911562660147,-0.013597220784043714,0.004909565365905992,0.0053606686383071015,0.0006894903374309092
10.287,0.8296255073325783,0.2246249649014484,0.1516560083710573,0.16570102589282518,0.02160180475085226,0.19015155322528798,0.02691859496656213,0.00504809073596404,0.0055197234553913755,0.0007193400982033804
10.32,0.8303448474307817,0.21763652147555074,0.14682222133883308,0.1606514575131784,-0.011730180251763051,-0.2098631659428727,-1.0009605105890482,0.004890157523517741,0.005348799905825411,-0.00039061500238370963
10.353,0.8299542324283979,0.21737204606369412,0.14670646602899928,0.16039893776206512,-0.009444542940190396,-0.00794220456025881,0.06863775710428392,0.00488609810922522,0.0053405776632333155,-0.0003145032799083402
10.387,0.8296397291484896,0.22400070488934373,0.15123218790067988,0.16524267346450286,-0.008753092689028607,0.19905882359308147,0.02076427180666033,0.005036764645988782,0.005501910243212015,-0.00029147798654465267
10.421,0.8293482511619451,0.19719851821283466,0.133179313413033,0.14543220435711895,-0.02925274501593596,-0.8048704707660382,-0.6156051749822028,0.0044371684260333475,0.004840787311500645,-0.0009741164090306676
10.454,0.8283741347529143,0.20624145110919134,0.13943461574349175,0.1519655358562913,-0.011395226667650745,0.2715595464371377,0.5362618122608173,0.004644069187835002,0.0050596295813266174,-0.00037946104803276986
10.487,0.8279946737048816,0.21256832006551352,0.14377147506676452,0.1565728381699754,-0.012002950087438598,0.1899960647544196,-0.01824995254618177,0.004788566527995729,0.005212978701203806,-0.00039969823791170534
10.52,0.8275949754669698,0.21785931534086217,0.1474141897473789,0.16041115279778081,0.06351060100174022,0.15888874700746705,2.2676742068822464,0.004903173147016127,0.005346939883567207,0.0021149030133579493
10.554,0.8297098784803278,0.2181518775733885,0.14727211207711066,0.16093839409271374,0.06250938564373204,0.00878565262841825,-0.03006652726751286,0.004898512633152092,0.005364410315622209,0.002081562541936277
10.587,0.8317914410222641,0.22494611083499474,0.1515130642040646,0.16626648536396246,0.06397591876770446,0.20403102887706445,0.04404003375292557,0.0050394139787876165,0.005542107386040967,0.0021303980949645587
10.621,0.8339218391172287,0.17389123705684084,0.11685082995447518,0.12877905832901848,-0.036781115486093405,-1.5331793927373543,-3.025736764378314,0.0038937040553160577,0.004286007507991038,-0.0012248111456869106
10.653,0.8326970279715418,0.19552374804371886,0.13156462305343064,0.14463846656360943,0.05473209867394617,0.6496249545609014,2.7481445693705577,0.004376649808481518,0.0048205056735239485,0.0018225788858424077
10.687,0.8345196068573841,0.20151539834065652,0.1353243848755374,0.14931767017486877,0.054930250042056705,0.17992943834647615,0.005950491534850921,0.00450168943229373,0.004976453578268031,0.0018291773264004884
10.72,0.8363487841837847,0.21752997634222232,0.14578363556066481,0.16145099011824943,0.07972167571402333,0.48091825830527934,0.7444872574164152,0.004847385439904782,0.00538281633923694,0.002654731801276977
10.754,0.8390035159850616,0.21805593250836378,0.14570595956131993,0.16222873682059877,0.07728999499414503,0.015794479463707378,-0.07302344504139043,0.00484498319627454,0.0054085157463837396,0.00257375683330503
10.787,0.8415772728183666,0.22471103885827115,0.14972215421850887,0.16756589008784725,0.07920651805167296,0.199853043540762,0.05755324497080871,0.004978313049172237,0.005586575320320005,0.00263757705112071
10.821,0.8442148498694874,0.21789544049781218,0.14475193895074384,0.16286589317513886,0.03929826788150669,-0.2046726234372064,-1.198445951056044,0.004816621415668511,0.005426647131864723,0.0013086323204541729
10.853,0.8455234821899416,0.21757209063094687,0.1443241927097652,0.1628132120566249,0.039171870626357796,-0.00971020621217124,-0.003795713367834696,0.004802390058843548,0.005424873248043505,0.0013044232918577147
10.887,0.8468279054817992,0.2239906644812866,0.14836311817412354,0.16781002038144016,0.040930804014671744,0.19274996547566742,0.052820822471890315,0.004936611840382346,0.005591500866191752,0.0013629957736885692
10.92,0.8481909012554878,0.21752899627007716,0.14386088864024402,0.16316528104320036,0.003048998346640582,-0.19404409042670998,-1.1375917618027376,0.004790223528187913,0.005433707191955862,0.00010153164494313139
10.953,0.848292432900431,0.2176755994305955,0.14394126500488794,0.16328986133946494,0.002333427584092766,0.0044024973128631755,-0.021488611487922405,0.004792964586935574,0.005437798782052265,7.77031385502891e-05
10.987,0.8483701360389813,0.22445626061971152,0.1484119954076994,0.16838792281659892,0.0019441069696553254,0.20362345913261326,-0.011691309742866078,0.004941867531551001,0.005607539848696914,6.473876208952234e-05
11.02,0.8484348748010707,0.21802935957383454,0.1441518956407101,0.1635757702698241,-0.020344419970512787,-0.19300003140771715,-0.6693251333383817,0.004802034497439026,0.005445507013643272,-0.0006774691850180758
11.053,0.8477574056160526,0.21821894111527465,0.14438811981317548,0.16362022221683906,-0.021435391278024574,0.005693139382585861,-0.03276190112648007,0.004810000176406741,0.005446897314913271,-0.0007137985295582183
11.087,0.8470436070864944,0.22501079520440384,0.14900244976256402,0.16860642906862344,-0.02267516213959607,0.2039595822561318,-0.03723035620334822,0.004963830374988153,0.00561278260156849,-0.0007550828992485492
11.121,0.8462885241872459,0.21854902944196958,0.1448470743002197,0.1636551353813669,-0.0010050718663540776,-0.19404701989292078,0.6507534616589186,0.004823430346436443,0.005449695852518997,-3.346889314959079e-05
11.153,0.8462550552940963,0.2185908702973104,0.1448802833601476,0.1636816179991477,-0.0014967773586326493,0.0012564821423667683,-0.014765930699056205,0.0048245808347154445,0.005450538220584705,-4.984268604246723e-05
11.187,0.8462052126080538,0.22512013279146817,0.1492162282381437,0.16856331575532818,-0.00281508480761174,0.19607394877350684,-0.03958881228165437,0.004969093013225269,0.0056129878996070024,-9.374232409347094e-05
11.22,0.8461114702839604,0.21829178992533244,0.14470552385684646,0.16343688969789255,0.004053697815026341,-0.20505534132539738,0.20626974842756995,0.004818258258132724,0.005442834141116109,0.00013498813724037716
11.254,0.8462464584212007,0.21796829342224594,0.14446904751567163,0.1632141882537205,0.004272310460425996,-0.009714609702297164,0.006564944306295936,0.004810364404836031,0.005435435061518777,0.00014226793833218567
11.287,0.8463887263595329,0.22422989599827284,0.14859533931346317,0.16792400481680098,0.00482586419560806,0.18803611339420112,0.01662323529075269,0.004947705251872667,0.005592329052120963,0.00016070127771374842
11.32,0.8465494276372467,0.217562136796581,0.14415048418262,0.16295373968525684,0.09444156964429735,-0.20023300905981456,2.691162325786465,0.004791602299759962,0.005433958845456458,0.0031449042691551023
11.353,0.8496943319064018,0.21741693333392192,0.14354143308325748,0.16329721335262207,0.0960129391356488,-0.00436046434411676,0.04718827301355701,0.004771160266878472,0.005445489109218101,0.0031972308732171055
11.388,0.8528915627796189,0.2240979418494568,0.1474134223727736,0.16878735274157475,0.0996851926900251,0.2006308863523988,0.11027788451580466,0.004899458414782776,0.005628817566829414,0.003319516916577836
11.42,0.8562110796961967,0.21766278957241356,0.14263533653463964,0.16441487382866207,0.05901676395069732,-0.19324781612742487,-1.2212741363161495,0.0047443049393739185,0.005479738590847714,0.001965258239558221
11.453,0.858176337935755,0.21782659571794832,0.14241904308837247,0.1648188155759615,0.05810074484800496,0.00491910346951253,-0.02750808116193269,0.004737172789256209,0.005493110452162181,0.0019347548034385654
11.487,0.8601110927391935,0.22461684196861795,0.14652953210371897,0.17024048260452118,0.059422194859370545,0.2039112988189076,0.039683183524492,0.00487375019623458,0.005673893175489779,0.0019787590888170393
11.52,0.8620898518280106,0.20677539113226662,0.13458023185038095,0.15698478771205684,0.034127877213266405,-0.5357793043949348,-0.7595891185016257,0.004478484616407246,0.00523019506787287,0.0011364583112017715
11.553,0.8632263101392124,0.20687753853391486,0.13446813300606034,0.1572152573884478,0.034734801560002276,0.0030674895389861657,0.01822595635843456,0.004474694329364646,0.005237912746619906,0.001156668891948076
11.587,0.8643829790311603,0.2132921151722412,0.13844996039876825,0.16225022298976388,0.03504950879095202,0.19262992907886908,0.009450667596088373,0.004607161750085933,0.005405679547064218,0.0011671486427387023
11.62,0.865550127673899,0.206103992018502,0.1336010013488906,0.1569382934931321,0.07095918813573178,-0.2158595541663425,1.0783687490924851,0.004442669106215278,0.0052313523490236016,0.0023629409649198684
11.653,0.867913068638819,0.1954730276835916,0.12635772223319108,0.1491423165430586,0.023227975457633124,-0.3192481782255374,-1.4333697500930527,0.004205728603151901,0.004968118767157339,0.0007734915827391831
11.687,0.8686865602215581,0.20144146805444485,0.1300969213118124,0.15379680138779875,0.024265091334775366,0.17923244356916684,0.031144620935202472,0.0043300935527870385,0.005123237576502825,0.0008080275414480198
11.72,0.8694945877630061,0.2281850581453567,0.14722791254036685,0.1743340544179648,0.06339245888270956,0.8031108135408962,1.1749960224604863,0.004896485463778252,0.005810555890742574,0.0021109688807942283
11.753,0.8716055566438003,0.21801655782599258,0.1403151390198097,0.16686186277321086,0.013649826390944125,-0.3053603699508743,-1.4937727475004632,0.0046711613649744604,0.005557620405448987,0.0004545392188184394
11.787,0.8720600958626187,0.22458261137817362,0.1444628970825494,0.1719529607187864,0.014567888081501095,0.19717878535078195,0.02756942013684596,0.004809153494314373,0.005727260590688227,0.0004851106731139865
11.82,0.8725452065357329,0.2164375546515456,0.13914317724937172,0.16578417080195174,0.07127257519053694,-0.2445962980969375,1.7028434567278028,0.004626842823374728,0.005526164278733225,0.00237337675384488
11.853,0.8749185832895777,0.2061719327849783,0.13216844458145136,0.15823516715703065,0.024655022131831954,-0.3082769329299487,-1.399926518279429,0.004398979476285345,0.005271092430629381,0.0008210122369900041
11.888,0.8757395955265677,0.21233610708489267,0.1359862030942073,0.16307781866332408,0.02561473008413142,0.1851103393367677,0.028820058627611576,0.004525955780893273,0.005432478800712521,0.0008529705118015764
11.921,0.8765925660383693,0.2053433975927917,0.1313733015720668,0.15781941125541596,0.06512286098450094,-0.2099912760390686,1.186430357368454,0.004368963077793184,0.005260180631630269,0.0021685912707838815
11.953,0.8787611573091532,0.19505627972816622,0.1244664808572899,0.1501833792548114,0.017864201961403627,-0.30892245839716115,-1.419178949642562,0.004143183235574788,0.005002391060823423,0.0005948779253147408
11.987,0.8793560352344679,0.20098577701014414,0.12815804623615978,0.15482505528919313,0.018925929580923713,0.17806298144077834,0.03188371229790049,0.004265973267218748,0.005157072374816303,0.0006302334550447597
12.02,0.8799862686895127,0.2284409034487381,0.14555380064869858,0.17606628719091738,0.13579924074258753,0.824478271429248,3.509709043893808,0.004833594716268486,0.00587400726511054,0.004522114716728165
12.053,0.8845083834062408,0.21834488664757798,0.13835858126344996,0.16891238118003365,0.09014236096966083,-0.3031836877225262,-1.3710774706584594,0.004598821063997435,0.005631746604343512,0.003001740620289706
12.087,0.8875101240265305,0.22512302766992562,0.14213027220310243,0.17458339929886263,0.09304807878890681,0.20354777844887803,0.0872587933707501,0.004723850646426594,0.005821009707132659,0.0030985010236705968
12.12,0.8906086250502011,0.20695920545400776,0.13016470841270522,0.16090140274711598,0.019195942419758225,-0.54546012660414,-2.2177818729474046,0.004332704714376725,0.005359456102742006,0.000639224882577949
12.153,0.8912478499327791,0.20702859632844234,0.13010543777697503,0.16103855053553734,0.02034456482279511,0.0020838100430805645,0.03449316525636287,0.004330626890863824,0.005364105279233661,0.0006774740085990771
12.187,0.8919253239413781,0.2131024313623813,0.13381015907872792,0.16585381388404657,0.019372813769492715,0.1823974484666355,-0.02918171331238419,0.004454027162865884,0.005524424819743127,0.0006451146985241075
12.221,0.8925704386399023,0.19532446673007317,0.12254901866574103,0.15209663154538078,-0.015728795816536932,-0.5338728117810249,-1.0541023899708601,0.0040821449523187146,0.005063800134221964,-0.0005237689006906799
12.253,0.8920466697392115,0.1948715166473622,0.12234429408102852,0.15167986585653997,-0.0171756654454489,-0.013602104585915448,-0.043449538405764786,0.004075445808107756,0.005049825348451056,-0.0005719496593334484
12.288,0.8914747200798782,0.20056000892672,0.12600491007217088,0.15603550819730147,-0.014913810828516722,0.1708255939747088,0.06792356207003536,0.004197188346125373,0.0051949929883374985,-0.0004966299005896069
12.32,0.8909780901792885,0.2520102784300118,0.1584266847568715,0.1959851167597145,0.20378849262944426,1.5450531382369905,6.567636740479308,0.0052533417656081,0.006544220741994049,0.006786156804560494
12.353,0.897764246983849,0.2241976994505247,0.1397558193524381,0.1753080699683745,0.1336157922570846,-0.8352125819665789,-2.10728829947026,0.004640792743490837,0.0058481511958241306,0.004449405882160917
12.388,0.9022136528660099,0.22425716595155135,0.13901128354645675,0.17597482640249495,0.06220067067522431,0.0017857808116109564,-2.1445982457015096,0.004622929979797448,0.005864809633793426,0.0020712823334849695
12.421,0.9042849351994949,0.21296507995012207,0.13166518511009034,0.16738698966194335,0.14933352407435121,-0.339101681724603,2.616602204177985,0.004370503321292992,0.005584920147900276,0.004972806351675896
12.453,0.9092577415511708,0.20650997150783001,0.1268656004245861,0.16294627262099007,0.0758511065614135,-0.19384710036913064,-2.206679204592724,0.004217699060386988,0.005431493429413661,0.00252584184849507
12.487,0.9117835833996659,0.21288010811910185,0.13035428762860932,0.16830240678504357,0.07806491953639377,0.19129539373188698,0.0664808701195277,0.004333437870217129,0.0056101603267708555,0.002599561820561913
12.521,0.9143831452202278,0.21797319975788304,0.13302454384397627,0.17267537910134154,0.20837552446314894,0.15294569485829393,3.9132313791818367,0.004409659788747958,0.005765467980492645,0.006938904964622861
12.554,0.9213220501848507,0.21840746610000356,0.13208580326824948,0.17394010987465053,0.20898437858434318,0.013041031294910362,0.0182839075433706,0.004378194409301982,0.005807518643801666,0.006959179806858629
12.588000000000001,0.9282812299917093,0.22507439489251635,0.1348670304761365,0.1801925839949615,0.21330448144652503,0.20020807184723102,0.1297328186841395,0.004469648315223771,0.006016368774591267,0.007103039232169284
12.621,0.9353842692238785,0.20153209596134405,0.11961115302333797,0.16219851347962477,0.12129034238046994,-0.7069759438790478,-2.7631873593409932,0.003972065004254483,0.0054092893849041765,0.00403896840126965
12.654,0.9394232376251482,0.20691560709681867,0.12213270185625999,0.16702596084900975,0.17902198212043544,0.16166700106530363,1.7336828750740387,0.00405034630802107,0.0055741050005400205,0.0059614320046105
12.688,0.9453846696297588,0.2129818619008422,0.12468619762790284,0.17266912179033336,0.18208671190865486,0.18216981393464068,0.09203392757415682,0.004134520471855879,0.005762486349283027,0.006063487506558207
12.72,0.9514481571363169,0.21783353383394558,0.12645335240683694,0.17737248413341064,-0.08446466575583766,0.14569585384694816,-8.004545875810587,0.004219123523703386,0.005900626974155833,-0.0028126733696693944
12.754,0.9486354837666475,0.21773634861931462,0.12689510360653494,0.17693713626810648,-0.085708255172971,-0.002918474913842388,-0.037345027541541474,0.004233935447855329,0.0058860216829991424,-0.0028540848972599345
12.787,0.9457813988693876,0.2243785516246443,0.13128599497336368,0.18196077036830519,-0.08706753840676133,0.1994655557156056,-0.04081931633004015,0.00438052550510408,0.006053002448523752,-0.0028993490289451525
12.82,0.9428820498404424,0.1898756985969141,0.11154402778753911,0.15365777163098154,0.12048151646428486,-1.0361217125444497,6.232704350481867,0.0037040774384614556,0.005124287749113435,0.0040120344982606864
12.853,0.9468940843387031,0.20643486761778704,0.12060062858427494,0.16754355539217566,-0.09040297848504118,0.4972723429691569,-6.3328677161959765,0.004024322749992082,0.005573197577945193,-0.0030104191835518715
12.887,0.9438836651551512,0.21246420837853666,0.12464155415403627,0.17206255496180656,-0.08849162267144728,0.1810612841065953,0.057398072480297414,0.004158927908306477,0.005723611630945731,-0.0029467710349591948
12.921,0.9409368941201921,0.21769005475841505,0.12822622762048094,0.17591757868656094,0.07338535940038371,0.1569323237200716,4.861170632787717,0.004262697755130687,0.005863320346516221,0.0024437324680327776
12.954,0.9433806265882249,0.21797542344098958,0.12796347667727564,0.17646142315232255,0.07319308130422804,0.008569630107343325,-0.005774117001671796,0.004253944636640449,0.005881405937202058,0.002437329607430794
12.988,0.9458179561956557,0.22475809116306214,0.13150140377786762,0.18227336708283406,0.07479229060111545,0.20368371537755436,0.04802430320983206,0.004371357393382678,0.006075204860311924,0.0024905832770171447
13.02,0.9483085394726728,0.18981059075142928,0.11067060561457684,0.1542079032161107,-0.06639417258166132,-1.0494744868358215,-4.239833729212515,0.0036909404261639724,0.005131091341088363,-0.0022109259469693223
13.054,0.9460976135257034,0.2178531654981492,0.1274120586572985,0.17670927826877997,-0.11123699139554928,0.842119361763361,-1.346631195612251,0.004253636561458971,0.005876600814402193,-0.0037041918134717916
13.088,0.9423934217122316,0.22496158813405145,0.13224445931115447,0.18198659048758237,-0.11790655760832033,0.2134661452222898,-0.20028727365678833,0.004415550138734637,0.00605154816769799,-0.003926288368357067
13.12,0.9384671333438745,0.21839023077905143,0.12907413212275748,0.1761651535249928,-0.0821516488399235,-0.19733805870870957,1.073720984035941,0.004306113722157141,0.005860467223873137,-0.0027356499063694527
13.154,0.9357314834375051,0.21828284723077607,0.12949187161455206,0.175724945812866,-0.08282760819712032,-0.003224731179440187,-0.020299079795700226,0.004320070333565124,0.0058457408213805516,-0.0027581593529641068
13.187,0.932973324084541,0.2246308343375417,0.13375595123654815,0.1804670530705986,-0.08568359616729876,0.1906302434464151,-0.08576540450986311,0.004462565171403222,0.006003246426201178,-0.002853263752371049
13.22,0.9301200603321699,0.1950354364283778,0.11658004005881462,0.1563582927851701,-0.08520369019576006,-0.8887506879628791,0.014411590736897878,0.0038894312993041844,0.005201265673175133,-0.00283728288351881
13.253,0.9272827774486513,0.19481822010298988,0.1168928709698564,0.15585312188250036,-0.05943330943879353,-0.006523012774412345,0.7738853080170127,0.00389760069538626,0.005186102597210642,-0.001979129204311825
13.287,0.9253036482443393,0.20081478605030337,0.12080858179200078,0.1604115484054517,-0.0598587481150176,0.18007705547487948,-0.012775936222945044,0.004028179888684153,0.005337742161754874,-0.0019932963122300863
13.32,0.9233103519321093,0.18361901200631814,0.11075588867774412,0.14645502617998318,-0.08440599020201257,-0.5163896109304873,-0.7371544170268759,0.003694958935681155,0.004871809140109345,-0.002810719473727019
13.353,0.9204996324583823,0.18317946228229046,0.1109009813116727,0.14579330487418513,-0.05463427892652887,-0.013199691412242715,0.8940453836481592,0.003697356051280736,0.004851601419025341,-0.0018193214882534115
13.387,0.9186803109701288,0.18880348684842344,0.11457909192172326,0.15006128195012894,-0.05512406378740577,0.16888962661059995,-0.014708254080387522,0.0038200052811078163,0.004993583936438842,-0.0018356313241206124
13.421,0.9168446796460081,0.1723904943040514,0.10486988095425534,0.1368239401385426,-0.07367655367158604,-0.49288265899015116,-0.5571318283537617,0.0034976955787851677,0.004551992662179408,-0.0024534292372638154
13.453,0.9143912504087444,0.1720607542740487,0.10500402143456009,0.13630502061158647,-0.04276830251842006,-0.009902103003083777,0.9281757103052848,0.0034998079281967783,0.004536509669720762,-0.001424184473863388
13.487,0.912967065934881,0.1773970712538776,0.1084606654654112,0.14037807854595208,-0.043704690423020824,0.1602497591540208,-0.0281197568949179,0.0036150818441176074,0.004672005554143409,-0.0014553661910865936
13.52,0.9115116997437944,0.16109698381604054,0.0986802081139781,0.12733599146041782,-0.0830570764774455,-0.4894921152503622,-1.1817533349677076,0.0032918574500060893,0.0042357801637038645,-0.0027658006466989354
13.553,0.9087458990970955,0.16098628311864818,0.09896396456233152,0.12697526164754747,-0.04945779031253263,-0.0033243452670377606,1.0089875725199056,0.0032989273417994417,0.004225601970272405,-0.0016469444174073368
13.587,0.9070989546796882,0.16594783563369608,0.10222943425802669,0.1307204150956996,-0.05090530058359454,0.14899557102245947,-0.04346877690876601,0.003407873388080486,0.00435014518460003,-0.0016951465094336984
13.62,0.9054038081702545,0.14935345979603953,0.0922060414920393,0.11749256089393713,-0.07662420375898826,-0.4983296047344309,-0.7723394346965081,0.003075400314670816,0.003908619375959407,-0.002551585985174309
13.653,0.9028522221850801,0.14962796076265272,0.09267555192843405,0.11747241683369788,-0.043831104108562294,0.008243272270666343,0.9847777672800591,0.0030889005021121556,0.003909616680526732,-0.0014595757668151245
13.687,0.901392646418265,0.15414128749750008,0.09564751563719864,0.1208763387260667,-0.04565399257566666,0.13553533738280363,-0.05474139540853945,0.003188070231849748,0.004022799468582776,-0.0015202779527697
13.721,0.8998723684654953,0.14954529464741514,0.09297379622577455,0.11713098807126301,-0.07216547724863041,-0.13801780330585403,-0.7961406808697824,0.0031006621255835138,0.003896777034137117,-0.002403110392379393
13.753,0.897469258073116,0.14941287303212422,0.09317242934608055,0.1168037030126327,-0.0734340561956966,-0.003976625083811501,-0.03809546387586131,0.0031073456933323547,0.0038858049222465123,-0.0024453540713166967
13.787,0.8950239040017991,0.15371983076613674,0.09615177967602277,0.1199359063662892,-0.07549855697550042,0.12933807009046597,-0.06199702041452941,0.0032068212845296016,0.003989876847230508,-0.0025141019472841642
13.82,0.892509802054515,0.13764220510916317,0.08636494360547713,0.10717496509603211,-0.06074930820023318,-0.48281158129049756,0.442920383641659,0.002879515768196707,0.0035660511023455363,-0.002022951963067765
13.853,0.8904868500914473,0.13742427036946978,0.08644448826516546,0.106830616094614,-0.061448497833519126,-0.0065445867775793636,-0.020996685684262682,0.002882194518270437,0.0035545480754185614,-0.002046234977856187
13.888,0.8884406151135911,0.14156488665995046,0.08927407560920227,0.10986699485817865,-0.062177123001919556,0.12434283154596638,-0.021880635687700573,0.0029765662268300625,0.0036555280730878196,-0.0020704981959639213
13.92,0.8863701169176272,0.1371281851307956,0.08669635411446028,0.10624444145707511,-0.06799856902966177,-0.13323428015480018,-0.17481819903129764,0.002890947313725653,0.0035347045972695455,-0.002264352348687737
13.953,0.8841057645689394,0.1371868857876401,0.08697392162012552,0.10609325421593624,-0.06769459622052793,0.0017627824878225322,0.009128312586601886,0.0029001668084929124,0.0035296744026695292,-0.00225423005414358
13.987,0.8818515345147958,0.14135707612410767,0.08986394496335978,0.10911596751153799,-0.06895249676278306,0.12523094103506205,-0.03777479105871279,0.0029965927001950705,0.0036301606201178025,-0.0022961181422006764
14.02,0.8795554163725952,0.1264280711293925,0.08059710379222669,0.09740720727853648,-0.05094858056299468,-0.44831846830976474,0.5406581441377892,0.0026865931466480697,0.0032414154574080273,-0.001696587732747723
14.054,0.8778588286398474,0.12583029832716894,0.08038039034419286,0.09681041692514046,-0.05733187196671035,-0.01795113520190876,-0.19169043254401413,0.002679702274751796,0.0032212634908409315,-0.001909151336491455
14.087,0.875949677303356,0.12972990613602153,0.08306186221117386,0.09965227339139295,-0.059358494893403876,0.11710533960518303,-0.060859547348153936,0.002769196236205083,0.003315719662953459,-0.0019766378799503494
14.12,0.8739730394234057,0.11535032801725068,0.07403008222827602,0.08846041543516521,-0.042022418288044254,-0.4318191627258516,0.5206029010618505,0.0024672250186237466,0.0029440370153302805,-0.0013993465289918738
14.153,0.8725736928944138,0.11465435753928989,0.07370638680285355,0.08782363148501351,-0.04711023288510645,-0.02090001435317676,-0.15278722513700282,0.0024566789337456137,0.0029226313617851784,-0.0015687707550740449
14.187,0.8710049221393398,0.11820567310014528,0.07613132485545707,0.090424568170444,-0.048867021432334866,0.10664611293860027,-0.0527564128296822,0.002537584186890331,0.0030091059453297366,-0.0016272718136967513
14.22,0.869377650325643,0.11481629168736213,0.07409119439237997,0.08771132053702066,-0.06943096786480127,-0.10178322560910365,-0.6175359289028949,0.0024705744410596004,0.0029179632042612065,-0.0023120512298978823
14.253,0.8670655990957452,0.11491947337476965,0.07436055467331684,0.0876184527905569,-0.07025478234554602,0.0030985491713972227,-0.024739173595938604,0.0024795805626776296,0.0029148264280228478,-0.002339484252106683
14.287,0.8647261148436384,0.11849800430214025,0.07688725756439457,0.09016721492769142,-0.07268357856564216,0.10746339121233012,-0.07293682342631029,0.0025639391672457384,0.0029994990363407356,-0.002420363166235884
14.321,0.8623057516774025,0.11509454595658708,0.07489067889198468,0.08739645715960444,-0.09339552774605568,-0.10220595632291793,-0.621980455868274,0.0024983447136259847,0.0029064506634692414,-0.0031100710739436544
14.353,0.8591956806034589,0.11518719086142469,0.07522262691491167,0.08723328114066492,-0.09434629576931786,0.002782129274402716,-0.02855159229015539,0.002509436086375852,0.0029009601116797346,-0.0031417316491182848
14.387,0.8560539489543406,0.1187534788388836,0.07783374547079457,0.08969000391529003,-0.09769870909063696,0.10709573505882602,-0.10067307271228554,0.0025966800788236326,0.0029824883270267617,-0.003253367012718211
14.42,0.8528005819416223,0.11516901125048278,0.0757669904169343,0.08673675296881947,0.025762895472822265,-0.107641669321346,3.707555692596373,0.0025217652351858513,0.002889447446381755,0.0008579044192449815
14.454,0.8536584863608674,0.11525708619404613,0.07575043621167996,0.0868681030740397,0.026255594250486708,0.002644893200100897,0.01479575908902231,0.002521188306741586,0.0028938418400158623,0.0008743112885412074
14.488,0.8545327976494086,0.11870536500632235,0.07793849728891429,0.08953521274688589,0.026540160058953398,0.10355191628457108,0.008545519773774471,0.0025939966560441403,0.002982701635752276,0.0008837873299631482
14.52,0.8554165849793717,0.11506199648028664,0.07546963638440649,0.08685388314885503,0.14532307325497915,-0.10941046624731858,3.567054450331103,0.0025060945711335224,0.002898335338793205,0.004839258339390806
14.553,0.8602558433187625,0.11509075178931641,0.07506720142348533,0.08723987859847078,0.14481139887674038,0.0008635227936866491,-0.015365596944107007,0.002492687095508819,0.0029111351267829743,0.004822219582595455
14.588000000000001,0.8650780629013579,0.11850351029694445,0.07685908970893882,0.09019846052905402,0.1500111767289022,0.10248524046931046,0.15614948504990478,0.0025518571937129604,0.003010020868253877,0.004995372185072444
14.62,0.8700734350864305,0.11522490370048956,0.07429360920081503,0.08807518415935141,-0.335550005608753,-0.09845665454819486,-14.581416887016672,0.0024902747459501994,0.0029190521314906917,-0.011173815186771475
14.653,0.8588996198996589,0.11470818504327573,0.07493552936041967,0.0868483399691443,-0.14697791374687655,-0.015517076793207938,5.66282558143773,0.0025023842884182306,0.002885963022473855,-0.004894364527770989
14.687,0.854005255371888,0.11796406884975275,0.07749871161235573,0.0889352080900142,-0.1536405460682526,0.09777428848279313,-0.20007904868997112,0.0025882346862382394,0.0029549602754655614,-0.005116230184072812
14.72,0.8488890251878153,0.11494235374790021,0.07595590643670307,0.08626960624974614,-0.2813543286405881,-0.09074219525082686,-3.8352487258959616,0.002542716331471691,0.002860919092592271,-0.009369099143731586
14.754,0.8395199260440835,0.11446757560200126,0.0764437629729029,0.08520080379164571,-0.2845581503997015,-0.014257601978947588,-0.09621086363703839,0.0025589459283501216,0.002825115854322141,-0.009475786408310061
14.788,0.8300441396357735,0.11791097625248048,0.07957141904271435,0.0870137207131253,-0.2927764165763236,0.10340542493931607,-0.24679478007874112,0.002663774746772455,0.002884627842504247,-0.009749454671991576
14.82,0.8202946849637819,0.11408025345682449,0.07780338539507521,0.08343223267921525,-0.2860445142755654,-0.11503672059027008,0.20215922825099722,0.0026040107412010627,0.0027659448225563826,-0.009525282325376328
14.853,0.8107694026384056,0.11412652928257727,0.07862644069779433,0.08272090128427759,-0.28588949870346303,0.0013896644370205403,0.0046551222853557376,0.002631298487260781,0.0027421344584016402,-0.00952012030682532
14.887,0.8012492823315802,0.11767014696177548,0.08187606326458151,0.08451374888324435,-0.2949916759823869,0.10641494532126757,-0.2733386570247409,0.002740216566066295,0.002800905714644734,-0.009823222810213484
14.92,0.7914260595213668,0.11534938994333006,0.0810711956310222,0.08205451236376304,-0.058710812571863,-0.06969240295631887,7.095521423739456,0.0027023058507950346,0.0027298084288683105,-0.001955070058643038
14.954,0.7894709894627238,0.11441238889723208,0.08057160709489775,0.08123060299737346,-0.06453072765376865,-0.028138169552491873,-0.17477222468185116,0.002685904851693847,0.0027021279724785026,-0.0021488732308704963
14.987,0.7873221162318532,0.11795002699166957,0.08324264571742612,0.08356357341149707,-0.06697154671363757,0.10623537821133576,-0.07329786966573351,0.0027750457892625697,0.002779608563161412,-0.0022301525055641314
15.02,0.7850919637262891,0.1156281978921515,0.08178651433177768,0.08173644365425053,-0.19605037258298064,-0.06972459758312527,-3.8762410170973887,0.0027323221682777348,0.0027129484529929714,-0.006528477407013256
15.053,0.7785634863192759,0.11471764321662832,0.0816701372767051,0.08056132038628572,-0.20293759881821785,-0.027343984249945132,-0.2068236106677842,0.002728625846465443,0.0026735165061741012,-0.0067578220406466554
15.087,0.7718056642786292,0.11825798657925368,0.08474988331335136,0.08247671591517375,-0.20962939501596883,0.1063166174962571,-0.20095484077330275,0.0028316998957642297,0.0027366376218056743,-0.006980658854031763
15.12,0.7648250054245974,0.0821651892698954,0.0592824746443379,0.056892060323046556,-0.1969121882653423,-1.0838677870678162,0.38189810061941565,0.0019802798343059626,0.0018880446384487437,-0.006557175869235899
15.154,0.7582678295553615,0.04873261759209591,0.03538125717094477,0.033511709272744133,-0.19698400100160035,-1.0039811314654499,-0.0021565386263681366,0.001181833479953232,0.001112082541336598,-0.006559567233353292
15.187,0.7517082623220083,0.01617475755592919,0.011816038625731945,0.011045542684191624,-0.20295318551405975,-0.9777135145996012,-0.17925479016394583,0.0003947093995740739,0.0003664891163119263,-0.00675834107761819
15.221,0.74494992124439,0.00018320092856968458,0.00013467500616284075,0.0001241983210185769,0.0022142402279440258,-0.48022692574653164,6.1611839562163295,4.4844732953609455e-06,4.136025729642965e-06,7.373419959053607e-05
15.254,0.7450236554439806,0.0002159087906595492,0.00015870847730158126,0.00014638382805720894,-0.0021054732097771623,0.0009822180807767152,-0.12972112425589152,5.285101971481086e-06,4.874462557934454e-06,-7.01122578855795e-05
15.288,0.744953543186095,0.0001310666141832498,9.634961051606797e-05,8.885499370807958e-05,-0.0018096193122804011,-0.002547813107396378,0.008884501426329162,3.2084940295154192e-06,2.9588149032021024e-06,-6.0260323098937364e-05
15.32,0.744893282862996,0.00012441996684326833,9.146861385558258e-05,8.434346938926758e-05,-0.0017652688526872786,-0.0001995990192186627,0.001331845633427103,3.0459521265768645e-06,2.808586249193968e-06,-5.8783452794486383e-05
15.353,0.7448344994102016,0.00012400637227318457,9.116949692983229e-05,8.40577372638411e-05,-0.0017622126774984824,-1.242025735987259e-05,9.177703269658181e-05,3.035991230333034e-06,2.799071691594077e-06,-5.868168216069947e-05
15.388,0.7447758177280409,0.00012751328441972852,9.375285106411745e-05,8.642939674009063e-05,-0.0018119803431867205,0.00010531267707339164,-0.0014945244951422845,3.1220206334119516e-06,2.878043921159777e-06,-6.0338945428117796e-05
15.42,0.7447154787826128,0.00012356066918393403,9.085178397805098e-05,8.374480471758914e-05,-0.0017555919676242495,-0.0001186971542280626,0.0016933446114856148,3.0254109067208787e-06,2.78865154890406e-06,-5.8461212521887514e-05
15.453,0.7446570175700908,0.00012338941270978703,9.073075126799494e-05,8.362342939159687e-05,-0.0017529917873969634,-5.142837061471364e-06,7.808349030889413e-05,3.0213803295397058e-06,2.7846099485521173e-06,-5.837462652031889e-05
15.487,0.7445986429435706,0.00012697515614625522,9.337244472096576e-05,8.604810773745168e-05,-0.001803823936897609,0.0001076799830771228,-0.001526490975995363,3.109352489428035e-06,2.865347642773082e-06,-6.0067337098690385e-05
15.52,0.7445385756064719,0.00012311444118539826,9.053844091509563e-05,8.342635282125561e-05,-0.0017489288367483705,-0.00011593738621192083,0.0016485015059831353,3.014976097704333e-06,2.778047609230348e-06,-5.8239330263720746e-05
15.553,0.7444803362762081,0.00012301043804272368,9.04668113726851e-05,8.335060832124606e-05,-0.001747454868717658,-3.1232174977351715e-06,4.4263304225601985e-05,3.0125907240535494e-06,2.775525430832324e-06,-5.819024712829802e-05
15.588000000000001,0.7444221460290799,0.00012664847499461567,9.314736318621326e-05,8.581028463953183e-05,-0.0017991891279805698,0.00010925035891567549,-0.0015535813592466008,3.1018569153988805e-06,2.8574285039728996e-06,-5.991299796175298e-05
15.62,0.7443622330311181,0.0001228535414490686,9.036125411438363e-05,8.323362542538805e-05,-0.0017453732126209115,-0.00011396196833474685,0.0016160935543440937,3.0090755068657223e-06,2.77163006282949e-06,-5.812092798027636e-05
15.654,0.7443041121031378,0.00012279975551288325,9.032652882008016e-05,8.319193557875143e-05,-0.0017447425551087125,-1.615193278839298e-06,1.8938664029997862e-05,3.0079191025620577e-06,2.7702418416087137e-06,-5.809992708512013e-05
15.688,0.7442460121760528,0.00012647907723561244,9.303786703623791e-05,8.567912392012029e-05,-0.00179719554440007,0.00011049014182369939,-0.0015751648435843098,3.098210522908736e-06,2.8530610183135226e-06,-5.984661162852234e-05
15.72,0.7441861655644242,0.0001227311174802083,9.028584755037295e-05,8.313478772482373e-05,-0.0017441441647904356,-0.00011255134400613078,0.0015931345228118452,3.0065643573003447e-06,2.768338870372482e-06,-5.808000068752151e-05
15.753,0.7441280855637367,0.00012271487407062792,9.027872593526035e-05,8.31185416238532e-05,-0.0017441449688319535,-4.877900774885442e-07,-2.4145390925749334e-08,3.006327198649074e-06,2.7677978790699023e-06,-5.8080027462104056e-05
15.787,0.7440700055362746,0.00012642726441643222,9.301482606118655e-05,8.562765511579585e-05,-0.0017971796756043033,0.00011148319356769665,-0.0015926338370075021,3.0974432279168297e-06,2.8513471212766696e-06,-5.9846083197623306e-05
15.82,0.7440101594530769,0.00012271222761131998,9.028657999857689e-05,8.31061025285928e-05,-0.0017446575313489082,-0.00011156266682018724,0.0015772415692310844,3.006588755737139e-06,2.7673836272354552e-06,-5.8097095793918645e-05
15.853,0.7439520623572831,0.00012272405984229076,9.030011420094132e-05,8.310886980022722e-05,-0.0017451314482066172,3.5532225137477703e-07,-1.42317374687411e-05,3.0070394680345007e-06,2.767475746216573e-06,-5.811287722528036e-05
15.887,0.7438939494800577,0.00012646338555606513,9.305647916955534e-05,8.563573769675892e-05,-0.0017986455705652758,0.00011229206347670763,-0.001607030701461217,3.0988303507005653e-06,2.851616171494604e-06,-5.9894897499823686e-05
15.92,0.7438340545825579,0.00012277077440980033,9.03442972818871e-05,8.312984420666318e-05,-0.0017464766906425818,-0.00011088922361155549,0.0015666330307115301,3.008510838151643e-06,2.768174102288448e-06,-5.815767379839798e-05
15.953,0.7437758969087596,0.00012280361205335559,9.037329755609166e-05,8.31468232838103e-05,-0.0017473053752630056,9.861154220797511e-07,-2.488542403674915e-05,3.0094765948319305e-06,2.7687394480726816e-06,-5.818526899625809e-05
15.988,0.7437177116397633,0.00012656529613117905,9.314657174756717e-05,8.56883326739899e-05,-0.0018012225671993787,0.00011296348582052434,-0.0016191348929841787,3.1018305864334787e-06,2.853367398961895e-06,-5.9980711487739315e-05
16.02,0.7436577309282754,0.00012288726755013964,9.044469226747509e-05,8.319277712987668e-05,-0.001749275335954075,-0.00011045130873992207,0.001559976914273388,3.0118541548851937e-06,2.7702695730523865e-06,-5.82508686872707e-05
16.054,0.7435994800595882,0.00012293583064386618,9.048528238452794e-05,8.322038288718446e-05,-0.0017503703490512885,1.4583511629590723e-06,-3.288327619260171e-05,3.0132058715388362e-06,2.771188767425055e-06,-5.8287332623407915e-05
16.088,0.7435411927269648,0.00012671645880946958,9.327296314990724e-05,8.577421103366702e-05,-0.001804633670959193,0.00011353237734544754,-0.00162952918642356,3.106039632209776e-06,2.8562268985580734e-06,-6.009430124294113e-05
16.121,0.7434810984257219,0.00012304715236519678,9.057707930758735e-05,8.328501911683148e-05,-0.001752809624243533,-0.00011018938271089482,0.0015562776791489487,3.016262857421382e-06,2.7733409806749914e-06,-5.8368560487309655e-05
16.153,0.7434227298652346,0.00012310749809017039,9.06263642675316e-05,8.33205748040061e-05,-0.001754104881526344,1.8121839331412023e-06,-3.889661509942462e-05,3.017904126107819e-06,2.7745248926718775e-06,-5.841169255482726e-05
16.187,0.7433643181726798,0.00012690452440043774,9.342658607653474e-05,8.588498895258205e-05,-0.0018086719015779588,0.00011402481412214266,-0.0016386492507992438,3.1111555324697602e-06,2.8599155045872414e-06,-6.022877432254603e-05
16.221,0.7433040893983572,0.00012323956027678214,9.073347784006572e-05,8.339919194009569e-05,-0.0017568973543338874,-0.00011005898269236025,0.0015547912085306704,3.021471180778487e-06,2.77714264343075e-06,-5.850468189931846e-05
16.253,0.7432455847164579,0.00012330874461055955,9.078929570735925e-05,8.344069919645854e-05,-0.0017583434784992488,2.077607620943273e-06,-4.342715211295401e-05,3.0233300057399894e-06,2.778524731241319e-06,-5.855283783402499e-05
16.287,0.743187031878624,0.00012712027177043706,9.360066904451641e-05,8.601440722000405e-05,-0.0018131826085570628,0.00011446027507139676,-0.001646820722456877,3.1169527860919865e-06,2.8642247970123913e-06,-6.03789808649502e-05
16.321,0.7431266528977589,0.00012345637598427201,9.090792816878309e-05,8.352978730506448e-05,-0.0017614023912139666,-0.00011002690048543687,0.00155496148177466,3.027280657968717e-06,2.781491145013153e-06,-5.86546996274251e-05
16.353,0.7430679981981315,0.00012353220067470234,9.096866445395876e-05,8.357575420537938e-05,-0.0017629624920272673,2.277017730640457e-06,-4.6849874273294065e-05,3.029303274228421e-06,2.783021730193766e-06,-5.870665098450801e-05
16.387,0.743009291547147,0.00012735681583141232,9.379015537836628e-05,8.615779298948057e-05,-0.0018180502483578042,0.00011485330800930862,-0.0016542869768930008,3.1232629977241777e-06,2.8689991787384007e-06,-6.0541073270314886e-05
16.42,0.7429487504738767,0.0001236915400054611,9.109597978499281e-05,8.367269289281159e-05,-0.0017662230289568067,-0.00011006834312165817,0.001556372954984911,3.033543080231231e-06,2.786249552576348e-06,-5.881522686426167e-05
16.453,0.7428899352470124,0.000123772363719949,9.116042888177053e-05,8.37220056312258e-05,-0.001767869546761788,2.4271385732104344e-06,-4.944497912856747e-05,3.0356893392580503e-06,2.7878915473729977e-06,-5.8870055907167544e-05
16.487,0.7428310651911052,0.0001276090157311351,9.39912689911516e-05,8.631165766744418e-05,-0.0018231885030964114,0.00011521477511069365,-0.001661229919958661,3.1299604176748616e-06,2.8741224860963316e-06,-6.0712177153110504e-05
16.52,0.7427703530139521,0.0001239405281540786,9.12943094317214e-05,8.382483870844639e-05,-0.0017712832876193496,-0.00011016479210379943,0.0015587151794913467,3.040147778012261e-06,2.7913156407946137e-06,-5.8983733477724345e-05
16.554,0.7427113692804744,0.00012402512550342454,9.136157116349654e-05,8.387666582952356e-05,-0.001772995634904336,2.5404609413199177e-06,-5.1421840389982763e-05,3.042387702551599e-06,2.793041359258518e-06,-5.9040754642314394e-05
16.587,0.7426523285258321,0.00012787303338468046,9.420119042053371e-05,8.647339700944996e-05,-0.0018285328896993488,0.00011555278922690462,-0.0016677854292796639,3.13695115336609e-06,2.8795080026073562e-06,-6.089014522698832e-05
16.621,0.7425914383806052,0.00012419996263542384,9.15004356959974e-05,8.398393290435571e-05,-0.001776526410232101,-0.00011030242490260126,0.0015617561401575933,3.0470121164732743e-06,2.7966130952646993e-06,-5.915832946072897e-05
16.654,0.7425322800511444,0.00012428741863006225,9.156983785058653e-05,8.403765361872996e-05,-0.0017782892087238635,2.626306145297656e-06,-5.293689164451946e-05,3.049323320813091e-06,2.798401866213052e-06,-5.9217030650504655e-05
16.688,0.7424730630204939,0.00012814600309125863,9.441781434144869e-05,8.664106672501551e-05,-0.001834035244363341,0.00011587340724313438,-0.0016740551243086318,3.144165094126973e-06,2.8850909870337553e-06,-6.107337363729926e-05
16.721,0.7424119896468566,0.00012446732144014874,9.171250570458978e-05,8.414826441389565e-05,-0.0017819100029028603,-0.00011047092045375055,0.0015653225663807989,3.054074392079452e-06,2.8020849405568444e-06,-5.933760309666525e-05
16.754,0.7423526520437599,0.00012455695302766617,9.178354643724761e-05,8.420341531635073e-05,-0.0017837117672621923,2.691639264787963e-06,-5.4107037817776704e-05,3.056440164026884e-06,2.803921333431253e-06,-5.939760184983101e-05
16.788,0.7422932544419101,0.00012842578537340552,9.46395688666638e-05,8.681321531603364e-05,-0.0018396595919736082,0.00011618115152370391,-0.0016801148561986755,3.1515498935983503e-06,2.8908231072084734e-06,-6.126066441272116e-05
16.821,0.7422319937774974,0.00012474072176443056,9.1929136130462e-05,8.431655588683676e-05,-0.0017874024026790871,-0.00011066257084008876,0.00156928496379943,3.06128853793009e-06,2.8076886432096028e-06,-5.9520500009213605e-05
16.853,0.7421724732774881,0.00012483201892813346,9.200144071838639e-05,8.437279096613495e-05,-0.0017892345547907936,2.741656567654717e-06,-5.5019582934128603e-05,3.063696398624366e-06,2.809561136458345e-06,-5.958151067453343e-05
