Time,header.seq,header.stamp.secs,header.stamp.nsecs,header.frame_id,orientation.x,orientation.y,orientation.z,orientation.w,orientation_covariance_0,orientation_covariance_1,orientation_covariance_2,orientation_covariance_3,orientation_covariance_4,orientation_covariance_5,orientation_covariance_6,orientation_covariance_7,orientation_covariance_8,angular_velocity.x,angular_velocity.y,angular_velocity.z,angular_velocity_covariance_0,angular_velocity_covariance_1,angular_velocity_covariance_2,angular_velocity_covariance_3,angular_velocity_covariance_4,angular_velocity_covariance_5,angular_velocity_covariance_6,angular_velocity_covariance_7,angular_velocity_covariance_8,linear_acceleration.x,linear_acceleration.y,linear_acceleration.z,linear_acceleration_covariance_0,linear_acceleration_covariance_1,linear_acceleration_covariance_2,linear_acceleration_covariance_3,linear_acceleration_covariance_4,linear_acceleration_covariance_5,linear_acceleration_covariance_6,linear_acceleration_covariance_7,linear_acceleration_covariance_8
0.081,0,0,70000000,base_footprint,0.0013143384656014807,-6.267174880511466e-06,0.9999991351692779,4.6214898487392426e-05,0.0,0.0,0.0,0.0,0.0,0.0,0.0,0.0,0.0,-1.6980355118362776e-05,-0.1569133548914,5.901202903403473e-06,0.0,0.0,0.0,0.0,0.0,0.0,0.0,0.0,0.0,0.00021882259904275998,-2.0359837566418727e-06,-0.13918362111694219,0.0,0.0,0.0,0.0,0.0,0.0,0.0,0.0,0.0
0.10700000000000001,1,0,104000000,base_footprint,0.0009554417895071302,-1.7732122100784638e-05,0.9999995423200252,4.665081889743661e-05,0.0,0.0,0.0,0.0,0.0,0.0,0.0,0.0,0.0,-0.00028337632992349624,0.04758799142272875,2.6468244875220054e-06,0.0,0.0,0.0,0.0,0.0,0.0,0.0,0.0,0.0,-0.0003408917599287304,2.326546585318056e-06,0.005131748679945539,0.0,0.0,0.0,0.0,0.0,0.0,0.0,0.0,0.0
0.139,2,0,138000000,base_footprint,0.0001442680945152505,-2.2781257577155877e-05,0.9999999882474448,4.661374986343369e-05,0.0,0.0,0.0,0.0,0.0,0.0,0.0,0.0,0.0,-0.0002837837375476409,0.04756041008294899,3.2315359380251014e-06,0.0,0.0,0.0,0.0,0.0,0.0,0.0,0.0,0.0,-0.00021497684774632783,2.99874722134231e-07,7.846402313990012e-05,0.0,0.0,0.0,0.0,0.0,0.0,0.0,0.0,0.0
0.17200000000000001,3,0,172000000,base_footprint,-0.0009389499799981795,-3.0715217152883674e-05,0.9999995576302639,4.657023893846026e-05,0.0,0.0,0.0,0.0,0.0,0.0,0.0,0.0,0.0,-0.0004203212577189502,0.06777050692349584,6.819772988770117e-06,0.0,0.0,0.0,0.0,0.0,0.0,0.0,0.0,0.0,-0.00036733097277300675,3.4448620411662384e-08,0.0028139967223474852,0.0,0.0,0.0,0.0,0.0,0.0,0.0,0.0,0.0
0.20700000000000002,4,0,206000000,base_footprint,-0.002092468497588257,-3.817498468482086e-05,0.9999978089770054,4.646983662155763e-05,0.0,0.0,0.0,0.0,0.0,0.0,0.0,0.0,0.0,-0.0004207755261393115,0.06769334313062904,8.03064481510863e-06,0.0,0.0,0.0,0.0,0.0,0.0,0.0,0.0,0.0,-0.0002958506533429004,3.9706970421795823e-07,0.0001509395746004906,0.0,0.0,0.0,0.0,0.0,0.0,0.0,0.0,0.0
0.24100000000000002,5,0,240000000,base_footprint,-0.0032446826301795045,-4.5641898063222704e-05,0.999994733887676,4.635043474905583e-05,0.0,0.0,0.0,0.0,0.0,0.0,0.0,0.0,0.0,-0.0004212576839605158,0.06761697244587432,9.061244986367185e-06,0.0,0.0,0.0,0.0,0.0,0.0,0.0,0.0,0.0,-0.0002947113235796892,4.589119685188197e-08,0.00014979072563239845,0.0,0.0,0.0,0.0,0.0,0.0,0.0,0.0,0.0
0.275,6,0,274000000,base_footprint,-0.003936843275214827,-6.8278122561128905e-06,0.9999922494422285,4.7685211079760545e-05,0.0,0.0,0.0,0.0,0.0,0.0,0.0,0.0,0.0,-4.566823077494664e-05,-0.024601802989128712,-0.0001274772500912432,0.0,0.0,0.0,0.0,0.0,0.0,0.0,0.0,0.0,0.0009362207868918862,0.00015259720156454747,0.13220735442215273,0.0,0.0,0.0,0.0,0.0,0.0,0.0,0.0,0.0
0.312,7,0,308000000,base_footprint,-0.003852785283229284,-6.878840237996296e-06,0.9999925768028257,4.8347573084518076e-05,0.0,0.0,0.0,0.0,0.0,0.0,0.0,0.0,0.0,8.267225892068879e-05,-0.000947393252781674,9.497934361464165e-06,0.0,0.0,0.0,0.0,0.0,0.0,0.0,0.0,0.0,-0.0010244578957106516,-0.00013511091398164433,0.0005630172074973096,0.0,0.0,0.0,0.0,0.0,0.0,0.0,0.0,0.0
0.333,8,0,342000000,base_footprint,-0.0038531032113110213,-6.875268870228815e-06,0.9999925755838447,4.822408793604715e-05,0.0,0.0,0.0,0.0,0.0,0.0,0.0,0.0,0.0,3.850280044278241e-05,-0.0001628401448581696,9.087462230120563e-06,0.0,0.0,0.0,0.0,0.0,0.0,0.0,0.0,0.0,-1.6315238767311524e-05,-1.4120513855794713e-06,-0.0008733597945344641,0.0,0.0,0.0,0.0,0.0,0.0,0.0,0.0,0.0
0.383,9,0,376000000,base_footprint,-0.0038531018079711933,-6.875956101648118e-06,0.9999925755963621,4.8076322566680484e-05,0.0,0.0,0.0,0.0,0.0,0.0,0.0,0.0,0.0,3.871533685997682e-05,-0.0001807850359416175,9.762092612639765e-06,0.0,0.0,0.0,0.0,0.0,0.0,0.0,0.0,0.0,1.8096583387897851e-07,1.3156325576915802e-06,1.9514691703173163e-05,0.0,0.0,0.0,0.0,0.0,0.0,0.0,0.0,0.0
0.40800000000000003,10,0,410000000,base_footprint,-0.0038531016370920127,-6.876598599275118e-06,0.9999925756043501,4.792353382888699e-05,0.0,0.0,0.0,0.0,0.0,0.0,0.0,0.0,0.0,3.871122221711987e-05,-0.00018040491969233485,9.859188774456866e-06,0.0,0.0,0.0,0.0,0.0,0.0,0.0,0.0,0.0,-3.6336513530958616e-08,1.8880755778599317e-07,-4.2472268148805577e-07,0.0,0.0,0.0,0.0,0.0,0.0,0.0,0.0,0.0
0.444,11,0,444000000,base_footprint,-0.003853101627857904,-6.87723253474501e-06,0.9999925756117262,4.7770025482364684e-05,0.0,0.0,0.0,0.0,0.0,0.0,0.0,0.0,0.0,3.871155771984309e-05,-0.00018041050900687852,9.87315584602501e-06,0.0,0.0,0.0,0.0,0.0,0.0,0.0,0.0,0.0,-3.966386956181467e-09,2.716980579039769e-08,4.964167748010614e-09,0.0,0.0,0.0,0.0,0.0,0.0,0.0,0.0,0.0
0.48400000000000004,12,0,478000000,base_footprint,-0.0038531016253237206,-6.87786278403665e-06,0.999992575619058,4.7616411692306825e-05,0.0,0.0,0.0,0.0,0.0,0.0,0.0,0.0,0.0,3.8711811665699207e-05,-0.00018041015314971897,9.875075665826072e-06,0.0,0.0,0.0,0.0,0.0,0.0,0.0,0.0,0.0,-5.740592540649266e-10,3.734036997022757e-09,-5.206040077012712e-10,0.0,0.0,0.0,0.0,0.0,0.0,0.0,0.0,0.0
0.512,13,0,512000000,base_footprint,-0.0038531016244440974,-6.878490439300146e-06,0.9999925756263607,4.7462782124459694e-05,0.0,0.0,0.0,0.0,0.0,0.0,0.0,0.0,0.0,3.871205515063708e-05,-0.00018041010119536238,9.875251814902946e-06,0.0,0.0,0.0,0.0,0.0,0.0,0.0,0.0,0.0,-5.865270505152865e-11,3.4205349134663686e-10,-3.4992687448993075e-11,0.0,0.0,0.0,0.0,0.0,0.0,0.0,0.0,0.0
0.546,14,0,546000000,base_footprint,-0.0038531016237758915,-6.879115800192219e-06,0.9999925756336389,4.730914987530147e-05,0.0,0.0,0.0,0.0,0.0,0.0,0.0,0.0,0.0,3.871229081129911e-05,-0.00018041007300015008,9.875189761031286e-06,0.0,0.0,0.0,0.0,0.0,0.0,0.0,0.0,0.0,1.1367439517237267e-11,-1.2144743034658755e-10,1.1396991622869409e-11,0.0,0.0,0.0,0.0,0.0,0.0,0.0,0.0,0.0
0.5800000000000001,15,0,580000000,base_footprint,-0.0038531016231300196,-6.8797390316605385e-06,0.9999925756408937,4.7155516866463744e-05,0.0,0.0,0.0,0.0,0.0,0.0,0.0,0.0,0.0,3.8712519661295614e-05,-0.0001804100481212602,9.875107445689469e-06,0.0,0.0,0.0,0.0,0.0,0.0,0.0,0.0,0.0,1.7330532835594865e-11,-1.609914516412657e-10,1.649490810213187e-11,0.0,0.0,0.0,0.0,0.0,0.0,0.0,0.0,0.0
0.618,16,0,614000000,base_footprint,-0.0038531016224789545,-6.880360272161518e-06,0.9999925756481247,4.700188338203065e-05,0.0,0.0,0.0,0.0,0.0,0.0,0.0,0.0,0.0,3.8712742090639486e-05,-0.00018041002332995417,9.875036658672528e-06,0.0,0.0,0.0,0.0,0.0,0.0,0.0,0.0,0.0,1.394745865578113e-11,-1.386897573959407e-10,1.5344411743275252e-11,0.0,0.0,0.0,0.0,0.0,0.0,0.0,0.0,0.0
0.648,17,0,648000000,base_footprint,-0.003853101621818812,-6.880979648386592e-06,0.9999925756553323,4.684824946414197e-05,0.0,0.0,0.0,0.0,0.0,0.0,0.0,0.0,0.0,3.871295856504348e-05,-0.00018040999810470487,9.874981251310202e-06,0.0,0.0,0.0,0.0,0.0,0.0,0.0,0.0,0.0,9.428073276988778e-12,-1.0888838700315747e-10,1.3483908205694624e-11,0.0,0.0,0.0,0.0,0.0,0.0,0.0,0.0,0.0
0.678,18,0,682000000,base_footprint,-0.00385310162114975,-6.88159727870321e-06,0.9999925756625164,4.66946151203081e-05,0.0,0.0,0.0,0.0,0.0,0.0,0.0,0.0,0.0,3.8713169473633464e-05,-0.0001804099725300439,9.874940675923078e-06,0.0,0.0,0.0,0.0,0.0,0.0,0.0,0.0,0.0,5.073103203490705e-12,-8.014558153548717e-11,1.149503246905339e-11,0.0,0.0,0.0,0.0,0.0,0.0,0.0,0.0,0.0
0.7170000000000001,19,0,716000000,base_footprint,-0.0038531016204726163,-6.882213273703895e-06,0.9999925756696769,4.6540980360277216e-05,0.0,0.0,0.0,0.0,0.0,0.0,0.0,0.0,0.0,3.8713375189271294e-05,-0.00018040994645528353,9.87491368852855e-06,0.0,0.0,0.0,0.0,0.0,0.0,0.0,0.0,0.0,1.07878056043836e-12,-5.3813800968464375e-11,9.607412903885189e-12,0.0,0.0,0.0,0.0,0.0,0.0,0.0,0.0,0.0
0.749,20,0,750000000,base_footprint,-0.0038531016197875453,-6.882827738562633e-06,0.9999925756768141,4.6387345186186805e-05,0.0,0.0,0.0,0.0,0.0,0.0,0.0,0.0,0.0,3.8713575827302995e-05,-0.0001804099200696897,9.874899745196849e-06,0.0,0.0,0.0,0.0,0.0,0.0,0.0,0.0,0.0,-2.75180448645381e-12,-2.8538812703901277e-11,7.905872385573996e-12,0.0,0.0,0.0,0.0,0.0,0.0,0.0,0.0,0.0
0.786,21,0,784000000,base_footprint,-0.0038531016190949787,-6.883440778154074e-06,0.9999925756839274,4.62337096086907e-05,0.0,0.0,0.0,0.0,0.0,0.0,0.0,0.0,0.0,3.871377345758381e-05,-0.00018040989335300675,9.874899103749481e-06,0.0,0.0,0.0,0.0,0.0,0.0,0.0,0.0,0.0,-6.656685009566083e-12,-2.7300211631271576e-12,6.6505263664785245e-12,0.0,0.0,0.0,0.0,0.0,0.0,0.0,0.0,0.0
0.8200000000000001,22,0,818000000,base_footprint,-0.0038531016183954384,-6.884052474840068e-06,0.9999925756910174,4.608007362307235e-05,0.0,0.0,0.0,0.0,0.0,0.0,0.0,0.0,0.0,3.871396697598993e-05,-0.00018040986625281693,9.874909852293192e-06,0.0,0.0,0.0,0.0,0.0,0.0,0.0,0.0,0.0,-1.0004478386098818e-11,1.934483204439056e-11,5.1862690128236826e-12,0.0,0.0,0.0,0.0,0.0,0.0,0.0,0.0,0.0
0.8520000000000001,23,0,852000000,base_footprint,-0.003853101617689624,-6.884662913204665e-06,0.9999925756980836,4.5926437235686534e-05,0.0,0.0,0.0,0.0,0.0,0.0,0.0,0.0,0.0,3.8714156424945834e-05,-0.00018040983885828416,9.874931373275227e-06,0.0,0.0,0.0,0.0,0.0,0.0,0.0,0.0,0.0,-1.316817571696715e-11,4.0220497727809564e-11,3.659920310746665e-12,0.0,0.0,0.0,0.0,0.0,0.0,0.0,0.0,0.0
0.89,24,0,886000000,base_footprint,-0.003853101616977305,-6.885272173195812e-06,0.9999925757051266,4.57728004460592e-05,0.0,0.0,0.0,0.0,0.0,0.0,0.0,0.0,0.0,3.871434202571209e-05,-0.0001804098112312068,9.874963506019317e-06,0.0,0.0,0.0,0.0,0.0,0.0,0.0,0.0,0.0,-1.6283793153408648e-11,6.078759031108063e-11,2.3995707266196346e-12,0.0,0.0,0.0,0.0,0.0,0.0,0.0,0.0,0.0
0.92,25,0,920000000,base_footprint,-0.0038531016162593906,-6.885880329715583e-06,0.9999925757121458,4.561916325260613e-05,0.0,0.0,0.0,0.0,0.0,0.0,0.0,0.0,0.0,3.871452409470527e-05,-0.0001804097831019944,9.875004159297225e-06,0.0,0.0,0.0,0.0,0.0,0.0,0.0,0.0,0.0,-1.8792676409216764e-11,7.72959770737168e-11,9.305939221806674e-13,0.0,0.0,0.0,0.0,0.0,0.0,0.0,0.0,0.0
0.9560000000000001,26,0,954000000,base_footprint,-0.003853101615536528,-6.886487452704722e-06,0.9999925757191414,4.546552566384955e-05,0.0,0.0,0.0,0.0,0.0,0.0,0.0,0.0,0.0,3.871470298750416e-05,-0.00018040975484942816,9.875053512114547e-06,0.0,0.0,0.0,0.0,0.0,0.0,0.0,0.0,0.0,-2.1345240361783976e-11,9.415624283213074e-11,-1.0474590843735639e-13,0.0,0.0,0.0,0.0,0.0,0.0,0.0,0.0,0.0
0.9860000000000001,27,0,988000000,base_footprint,-0.0038531016148084527,-6.887093607574266e-06,0.9999925757261136,4.531188767848249e-05,0.0,0.0,0.0,0.0,0.0,0.0,0.0,0.0,0.0,3.871487866179129e-05,-0.0001804097264435538,9.8751121047321e-06,0.0,0.0,0.0,0.0,0.0,0.0,0.0,0.0,0.0,-2.4059419509673816e-11,1.1206597393900204e-10,-8.819506368108399e-13,0.0,0.0,0.0,0.0,0.0,0.0,0.0,0.0,0.0
1.025,28,1,22000000,base_footprint,-0.0038531016140753815,-6.887698855925778e-06,0.9999925757330621,4.5158249297406236e-05,0.0,0.0,0.0,0.0,0.0,0.0,0.0,0.0,0.0,3.871505144841111e-05,-0.00018040969781326174,9.875178613389639e-06,0.0,0.0,0.0,0.0,0.0,0.0,0.0,0.0,0.0,-2.638353327372967e-11,1.2740724113053906e-10,-2.083805413355889e-12,0.0,0.0,0.0,0.0,0.0,0.0,0.0,0.0,0.0
1.058,29,1,56000000,base_footprint,-0.0038531016133384983,-6.8883032555049776e-06,0.999992575739987,4.500461053086259e-05,0.0,0.0,0.0,0.0,0.0,0.0,0.0,0.0,0.0,3.87152215994427e-05,-0.00018040966880520162,9.875250543789565e-06,0.0,0.0,0.0,0.0,0.0,0.0,0.0,0.0,0.0,-2.7979975641073636e-11,1.3790642858564147e-10,-3.34466007542913e-12,0.0,0.0,0.0,0.0,0.0,0.0,0.0,0.0,0.0
1.09,30,1,90000000,base_footprint,-0.003853101612597116,-6.888906859956377e-06,0.9999925757468885,4.485097136690258e-05,0.0,0.0,0.0,0.0,0.0,0.0,0.0,0.0,0.0,3.871538919610171e-05,-0.0001804096396916823,9.87533129137701e-06,0.0,0.0,0.0,0.0,0.0,0.0,0.0,0.0,0.0,-3.056942224670987e-11,1.5500381243951602e-10,-3.899367496828377e-12,0.0,0.0,0.0,0.0,0.0,0.0,0.0,0.0,0.0
1.121,31,1,124000000,base_footprint,-0.0038531016118519934,-6.8895097199289445e-06,0.9999925757537662,4.4697331815018864e-05,0.0,0.0,0.0,0.0,0.0,0.0,0.0,0.0,0.0,3.8715554318051886e-05,-0.00018040961040395812,9.875416812019542e-06,0.0,0.0,0.0,0.0,0.0,0.0,0.0,0.0,0.0,-3.197183348950347e-11,1.642440806107697e-10,-4.8614715300143725e-12,0.0,0.0,0.0,0.0,0.0,0.0,0.0,0.0,0.0
1.157,32,1,158000000,base_footprint,-0.0038531016111036697,-6.890111882331984e-06,0.9999925757606206,4.454369189244035e-05,0.0,0.0,0.0,0.0,0.0,0.0,0.0,0.0,0.0,3.871571726409185e-05,-0.00018040958080168415,9.875507201662463e-06,0.0,0.0,0.0,0.0,0.0,0.0,0.0,0.0,0.0,-3.340594901749251e-11,1.7367485022049065e-10,-5.8168656282395615e-12,0.0,0.0,0.0,0.0,0.0,0.0,0.0,0.0,0.0
1.201,33,1,192000000,base_footprint,-0.0038531016103514927,-6.890713391655923e-06,0.9999925757674513,4.439005160134508e-05,0.0,0.0,0.0,0.0,0.0,0.0,0.0,0.0,0.0,3.8715878035449006e-05,-0.00018040955137428708,9.875605149744679e-06,0.0,0.0,0.0,0.0,0.0,0.0,0.0,0.0,0.0,-3.561803048986467e-11,1.883321919636046e-10,-6.167446479286754e-12,0.0,0.0,0.0,0.0,0.0,0.0,0.0,0.0,0.0
1.226,34,1,226000000,base_footprint,-0.0038531016095963554,-6.891314288975741e-06,0.9999925757742585,4.423641092659535e-05,0.0,0.0,0.0,0.0,0.0,0.0,0.0,0.0,0.0,3.871603690098138e-05,-0.00018040952155816734,9.87570781555868e-06,0.0,0.0,0.0,0.0,0.0,0.0,0.0,0.0,0.0,-3.7010745027693865e-11,1.9747303888139992e-10,-7.0000835710774036e-12,0.0,0.0,0.0,0.0,0.0,0.0,0.0,0.0,0.0
1.26,35,1,260000000,base_footprint,-0.0038531016088378415,-6.891914614442075e-06,0.999992575781042,4.408276987007039e-05,0.0,0.0,0.0,0.0,0.0,0.0,0.0,0.0,0.0,3.8716194005942726e-05,-0.00018040949138283527,9.875815227726042e-06,0.0,0.0,0.0,0.0,0.0,0.0,0.0,0.0,0.0,-3.840827382488234e-11,2.0667181488096384e-10,-8.040599287896502e-12,0.0,0.0,0.0,0.0,0.0,0.0,0.0,0.0,0.0
1.294,36,1,294000000,base_footprint,-0.0038531016080767273,-6.892514403223684e-06,0.999992575787802,4.392912843249295e-05,0.0,0.0,0.0,0.0,0.0,0.0,0.0,0.0,0.0,3.871634929147144e-05,-0.00018040946148787434,9.87592767632572e-06,0.0,0.0,0.0,0.0,0.0,0.0,0.0,0.0,0.0,-3.988099498246684e-11,2.1643309699661072e-10,-7.964351852381316e-12,0.0,0.0,0.0,0.0,0.0,0.0,0.0,0.0,0.0
1.334,37,1,328000000,base_footprint,-0.0038531016073129767,-6.893113689728158e-06,0.9999925757945384,4.377548661940793e-05,0.0,0.0,0.0,0.0,0.0,0.0,0.0,0.0,0.0,3.8716503036852685e-05,-0.00018040943129405275,9.87604449446366e-06,0.0,0.0,0.0,0.0,0.0,0.0,0.0,0.0,0.0,-4.1166306195526994e-11,2.2490127407589387e-10,-9.044385297763908e-12,0.0,0.0,0.0,0.0,0.0,0.0,0.0,0.0,0.0
1.365,38,1,362000000,base_footprint,-0.003853101606546811,-6.893712505956846e-06,0.9999925758012513,4.362184443122215e-05,0.0,0.0,0.0,0.0,0.0,0.0,0.0,0.0,0.0,3.871665524659471e-05,-0.00018040940103669815,9.876164881390584e-06,0.0,0.0,0.0,0.0,0.0,0.0,0.0,0.0,0.0,-4.221617649492835e-11,2.3181588112359373e-10,-9.242152358145755e-12,0.0,0.0,0.0,0.0,0.0,0.0,0.0,0.0,0.0
1.395,39,1,396000000,base_footprint,-0.003853101605778012,-6.8943108819400645e-06,0.9999925758079404,4.346820186381389e-05,0.0,0.0,0.0,0.0,0.0,0.0,0.0,0.0,0.0,3.871680602205782e-05,-0.00018040937056236907,9.876288469226086e-06,0.0,0.0,0.0,0.0,0.0,0.0,0.0,0.0,0.0,-4.315792829982231e-11,2.3801590609012363e-10,-1.0031004252190758e-11,0.0,0.0,0.0,0.0,0.0,0.0,0.0,0.0,0.0
1.4300000000000002,40,1,430000000,base_footprint,-0.0038531016050072915,-6.8949088452647355e-06,0.9999925758146062,4.3314558922932526e-05,0.0,0.0,0.0,0.0,0.0,0.0,0.0,0.0,0.0,3.871695545597918e-05,-0.00018040934001861063,9.876416799711847e-06,0.0,0.0,0.0,0.0,0.0,0.0,0.0,0.0,0.0,-4.455074529966037e-11,2.4721225726978177e-10,-1.0413010814343676e-11,0.0,0.0,0.0,0.0,0.0,0.0,0.0,0.0,0.0
1.467,41,1,464000000,base_footprint,-0.0038531016042344136,-6.895506422400773e-06,0.9999925758212482,4.316091560802328e-05,0.0,0.0,0.0,0.0,0.0,0.0,0.0,0.0,0.0,3.871710373457632e-05,-0.0001804093094098236,9.87654742869003e-06,0.0,0.0,0.0,0.0,0.0,0.0,0.0,0.0,0.0,-4.522598843911347e-11,2.516627137856652e-10,-1.0834002928890577e-11,0.0,0.0,0.0,0.0,0.0,0.0,0.0,0.0,0.0
1.497,42,1,498000000,base_footprint,-0.0038531016034596176,-6.8961036378426964e-06,0.9999925758278667,4.3007271916572846e-05,0.0,0.0,0.0,0.0,0.0,0.0,0.0,0.0,0.0,3.8717250783048816e-05,-0.00018040927876435866,9.87668217875374e-06,0.0,0.0,0.0,0.0,0.0,0.0,0.0,0.0,0.0,-4.643504355580052e-11,2.59653156417761e-10,-1.1214242384997959e-11,0.0,0.0,0.0,0.0,0.0,0.0,0.0,0.0,0.0
1.533,43,1,532000000,base_footprint,-0.003853101602683099,-6.896700514523617e-06,0.9999925758344618,4.285362785245546e-05,0.0,0.0,0.0,0.0,0.0,0.0,0.0,0.0,0.0,3.871739680061802e-05,-0.0001804092478536124,9.876818523538995e-06,0.0,0.0,0.0,0.0,0.0,0.0,0.0,0.0,0.0,-4.6909707196936726e-11,2.62738015908109e-10,-1.1670440914350969e-11,0.0,0.0,0.0,0.0,0.0,0.0,0.0,0.0,0.0
1.566,44,1,566000000,base_footprint,-0.0038531016019047208,-6.8972970743523185e-06,0.9999925758410331,4.269998341568569e-05,0.0,0.0,0.0,0.0,0.0,0.0,0.0,0.0,0.0,3.871754178708785e-05,-0.00018040921699968374,9.876958755384822e-06,0.0,0.0,0.0,0.0,0.0,0.0,0.0,0.0,0.0,-4.804725265155727e-11,2.702764205025242e-10,-1.1996979926168418e-11,0.0,0.0,0.0,0.0,0.0,0.0,0.0,0.0,0.0
1.601,45,1,600000000,base_footprint,-0.0038531016011248147,-6.897893337222981e-06,0.9999925758475808,4.254633860514708e-05,0.0,0.0,0.0,0.0,0.0,0.0,0.0,0.0,0.0,3.871768570119375e-05,-0.0001804091860478929,9.87710121202773e-06,0.0,0.0,0.0,0.0,0.0,0.0,0.0,0.0,0.0,-4.870247726689986e-11,2.7458548880101923e-10,-1.223897392358024e-11,0.0,0.0,0.0,0.0,0.0,0.0,0.0,0.0,0.0
1.635,46,1,634000000,base_footprint,-0.0038531016003432576,-6.898489321809726e-06,0.9999925758541051,4.239269341980563e-05,0.0,0.0,0.0,0.0,0.0,0.0,0.0,0.0,0.0,3.8717828886697935e-05,-0.00018040915510369657,9.877246132332815e-06,0.0,0.0,0.0,0.0,0.0,0.0,0.0,0.0,0.0,-4.942454216246085e-11,2.79362502071287e-10,-1.2522509582918942e-11,0.0,0.0,0.0,0.0,0.0,0.0,0.0,0.0,0.0
1.669,47,1,668000000,base_footprint,-0.0038531015995605287,-6.899085046623432e-06,0.9999925758606056,4.2239047865780194e-05,0.0,0.0,0.0,0.0,0.0,0.0,0.0,0.0,0.0,3.871797109560673e-05,-0.0001804091239923223,9.877392775562866e-06,0.0,0.0,0.0,0.0,0.0,0.0,0.0,0.0,0.0,-4.993262947899726e-11,2.8269586890801026e-10,-1.304047083971611e-11,0.0,0.0,0.0,0.0,0.0,0.0,0.0,0.0,0.0
1.702,48,1,702000000,base_footprint,-0.0038531015987765494,-6.899680527811367e-06,0.9999925758670827,4.208540194576432e-05,0.0,0.0,0.0,0.0,0.0,0.0,0.0,0.0,0.0,3.871811263958841e-05,-0.00018040909286206718,9.87754166133451e-06,0.0,0.0,0.0,0.0,0.0,0.0,0.0,0.0,0.0,-5.0591529259762585e-11,2.870447131847653e-10,-1.3153629714613754e-11,0.0,0.0,0.0,0.0,0.0,0.0,0.0,0.0,0.0
1.734,49,1,736000000,base_footprint,-0.0038531015979910814,-6.900275780842055e-06,0.9999925758735361,4.1931755655774596e-05,0.0,0.0,0.0,0.0,0.0,0.0,0.0,0.0,0.0,3.8718253390225216e-05,-0.00018040906164066867,9.87769264022753e-06,0.0,0.0,0.0,0.0,0.0,0.0,0.0,0.0,0.0,-5.1207567812825295e-11,2.911004447709991e-10,-1.348879782523764e-11,0.0,0.0,0.0,0.0,0.0,0.0,0.0,0.0,0.0
1.775,50,1,770000000,base_footprint,-0.003853101597204681,-6.900870820011171e-06,0.9999925758799658,4.177810900055615e-05,0.0,0.0,0.0,0.0,0.0,0.0,0.0,0.0,0.0,3.871839352463466e-05,-0.00018040903038474114,9.87784489430439e-06,0.0,0.0,0.0,0.0,0.0,0.0,0.0,0.0,0.0,-5.1583463186070524e-11,2.93569929906685e-10,-1.3599484754037504e-11,0.0,0.0,0.0,0.0,0.0,0.0,0.0,0.0,0.0
1.811,51,1,804000000,base_footprint,-0.0038531015964169183,-6.901465659461543e-06,0.9999925758863721,4.16244619797114e-05,0.0,0.0,0.0,0.0,0.0,0.0,0.0,0.0,0.0,3.871853281625778e-05,-0.00018040899905529404,9.877999672805571e-06,0.0,0.0,0.0,0.0,0.0,0.0,0.0,0.0,0.0,-5.23243262147034e-11,2.984634926119677e-10,-1.3999545801532096e-11,0.0,0.0,0.0,0.0,0.0,0.0,0.0,0.0,0.0
1.84,52,1,838000000,base_footprint,-0.003853101595628278,-6.902060311656819e-06,0.9999925758927549,4.1470814588761124e-05,0.0,0.0,0.0,0.0,0.0,0.0,0.0,0.0,0.0,3.871867174794134e-05,-0.00018040896767822304,9.878155825104855e-06,0.0,0.0,0.0,0.0,0.0,0.0,0.0,0.0,0.0,-5.272866650291208e-11,3.0112755823489155e-10,-1.419101905932512e-11,0.0,0.0,0.0,0.0,0.0,0.0,0.0,0.0,0.0
1.872,53,1,872000000,base_footprint,-0.0038531015948385606,-6.902654788621076e-06,0.999992575899114,4.13171668304377e-05,0.0,0.0,0.0,0.0,0.0,0.0,0.0,0.0,0.0,3.8718809989115816e-05,-0.0001804089363617563,9.878313229798245e-06,0.0,0.0,0.0,0.0,0.0,0.0,0.0,0.0,0.0,-5.309549165639547e-11,3.0355241657103157e-10,-1.4133947647876021e-11,0.0,0.0,0.0,0.0,0.0,0.0,0.0,0.0,0.0
1.908,54,1,906000000,base_footprint,-0.003853101594047961,-6.903249101414006e-06,0.9999925759054493,4.116351870938873e-05,0.0,0.0,0.0,0.0,0.0,0.0,0.0,0.0,0.0,3.8718947710847906e-05,-0.00018040890488378922,9.878472097642365e-06,0.0,0.0,0.0,0.0,0.0,0.0,0.0,0.0,0.0,-5.3526164460666315e-11,3.063878062371979e-10,-1.4672608982767356e-11,0.0,0.0,0.0,0.0,0.0,0.0,0.0,0.0,0.0
1.944,55,1,940000000,base_footprint,-0.003853101593256548,-6.90384326061954e-06,0.9999925759117613,4.1009870220611405e-05,0.0,0.0,0.0,0.0,0.0,0.0,0.0,0.0,0.0,3.8719084965515065e-05,-0.0001804088733826955,9.878632513428626e-06,0.0,0.0,0.0,0.0,0.0,0.0,0.0,0.0,0.0,-5.398211242753409e-11,3.0938937812194234e-10,-1.4688415627259423e-11,0.0,0.0,0.0,0.0,0.0,0.0,0.0,0.0,0.0
1.9740000000000002,56,1,974000000,base_footprint,-0.0038531015924641206,-6.904437275972139e-06,0.9999925759180496,4.085622136441788e-05,0.0,0.0,0.0,0.0,0.0,0.0,0.0,0.0,0.0,3.8719221722838975e-05,-0.0001804088419629926,9.878793988501087e-06,0.0,0.0,0.0,0.0,0.0,0.0,0.0,0.0,0.0,-5.4291590063885997e-11,3.1144057895286706e-10,-1.4726698788342483e-11,0.0,0.0,0.0,0.0,0.0,0.0,0.0,0.0,0.0
2.008,57,2,8000000,base_footprint,-0.0038440625791578385,-6.915395793695246e-06,0.9999926107405194,3.999281448880579e-05,0.0,0.0,0.0,0.0,0.0,0.0,0.0,0.0,0.0,0.00011482377198616836,-1.717919731967483e-05,0.00022909932906306382,0.0,0.0,0.0,0.0,0.0,0.0,0.0,0.0,0.0,0.11202953141608499,0.00041745579493689556,0.0006755950926631152,0.0,0.0,0.0,0.0,0.0,0.0,0.0,0.0,0.0
2.042,58,2,42000000,base_footprint,-0.0038473728025720457,-6.907275617854771e-06,0.999992598014044,3.989899969202831e-05,0.0,0.0,0.0,0.0,0.0,0.0,0.0,0.0,0.0,4.811676692723438e-05,0.001859601941671274,-5.091700066376533e-05,0.0,0.0,0.0,0.0,0.0,0.0,0.0,0.0,0.0,0.7818227133760479,-0.0006069587110781137,0.003772945470894086,0.0,0.0,0.0,0.0,0.0,0.0,0.0,0.0,0.0
2.074,59,2,76000000,base_footprint,-0.0038478053242521947,-6.951136981756608e-06,0.9999925962987332,4.1153215808644444e-05,0.0,0.0,0.0,0.0,0.0,0.0,0.0,0.0,0.0,5.10182249177149e-05,0.0019168249017722395,-0.00013628632885161743,0.0,0.0,0.0,0.0,0.0,0.0,0.0,0.0,0.0,0.7864218441602264,-0.00023044844528461518,0.005982582425622867,0.0,0.0,0.0,0.0,0.0,0.0,0.0,0.0,0.0
2.111,60,2,110000000,base_footprint,-0.0038494271953336385,-7.012136613288474e-06,0.9999925899384593,4.3923458979645346e-05,0.0,0.0,0.0,0.0,0.0,0.0,0.0,0.0,0.0,1.5647353216149096e-05,0.0015997993625287827,-0.0002500766628378521,0.0,0.0,0.0,0.0,0.0,0.0,0.0,0.0,0.0,0.7842577985651467,-0.0002903393798385124,0.006204552596874587,0.0,0.0,0.0,0.0,0.0,0.0,0.0,0.0,0.0
2.144,61,2,144000000,base_footprint,-0.00385112785840135,-7.102839045949118e-06,0.9999925831526665,4.902474311383625e-05,0.0,0.0,0.0,0.0,0.0,0.0,0.0,0.0,0.0,-1.677993333632516e-05,0.0010828860350206942,-0.0004237251094812099,0.0,0.0,0.0,0.0,0.0,0.0,0.0,0.0,0.0,0.7689023694628709,-0.00041299394563692647,0.006355529410466322,0.0,0.0,0.0,0.0,0.0,0.0,0.0,0.0,0.0
2.176,62,2,178000000,base_footprint,-0.0038526108424208464,-7.27608939161938e-06,0.9999925769838465,5.756701676929367e-05,0.0,0.0,0.0,0.0,0.0,0.0,0.0,0.0,0.0,-3.998435510495749e-05,0.0009993415370435398,-0.000674108198224165,0.0,0.0,0.0,0.0,0.0,0.0,0.0,0.0,0.0,0.7282886119795003,-0.0005703009211806785,0.0057199542694873606,0.0,0.0,0.0,0.0,0.0,0.0,0.0,0.0,0.0
2.211,63,2,212000000,base_footprint,-0.003853947541631654,-7.8612992930518e-06,0.9999925710459346,6.985333010787568e-05,0.0,0.0,0.0,0.0,0.0,0.0,0.0,0.0,0.0,2.1296613105706535e-05,-8.3642770995758e-05,-0.000760264773201775,0.0,0.0,0.0,0.0,0.0,0.0,0.0,0.0,0.0,0.6537100348836968,-0.00025785177060055285,0.0066547799482246945,0.0,0.0,0.0,0.0,0.0,0.0,0.0,0.0,0.0
2.247,64,2,246000000,base_footprint,-0.0038555666458856786,-9.324159533552478e-06,0.9999925588171683,0.00012972737328506066,0.0,0.0,0.0,0.0,0.0,0.0,0.0,0.0,0.0,0.0007307673572482377,7.421826304756046e-05,-0.023659103003877007,0.0,0.0,0.0,0.0,0.0,0.0,0.0,0.0,0.0,0.4858708248989386,-0.0018974406050796316,0.003462239930696248,0.0,0.0,0.0,0.0,0.0,0.0,0.0,0.0,0.0
2.281,65,2,280000000,base_footprint,-0.003857914850005555,-4.16056223576114e-06,0.9999919062389409,0.0011418985547242734,0.0,0.0,0.0,0.0,0.0,0.0,0.0,0.0,0.0,0.0004756171682744759,-0.0005425686730222438,-0.06059893477047056,0.0,0.0,0.0,0.0,0.0,0.0,0.0,0.0,0.0,0.2473034376148235,-0.009535038130100164,0.002873815952286348,0.0,0.0,0.0,0.0,0.0,0.0,0.0,0.0,0.0
2.314,66,2,314000000,base_footprint,-0.003860414292641593,-1.8199001161148095e-06,0.9999912746916175,0.0015961637796166072,0.0,0.0,0.0,0.0,0.0,0.0,0.0,0.0,0.0,7.661220867842978e-05,-0.00024071274569579788,-0.005935100517077367,0.0,0.0,0.0,0.0,0.0,0.0,0.0,0.0,0.0,0.21370143422077448,-0.005844202536354148,0.0010634220163840613,0.0,0.0,0.0,0.0,0.0,0.0,0.0,0.0,0.0
2.348,67,2,348000000,base_footprint,-0.0038523700611167036,4.6485392289136445e-06,0.9999912978696321,0.0016010647432471968,0.0,0.0,0.0,0.0,0.0,0.0,0.0,0.0,0.0,-0.00015731804982959665,-0.0007261062609986829,-0.0040648203403553,0.0,0.0,0.0,0.0,0.0,0.0,0.0,0.0,0.0,0.0504448318684747,0.009321694226941495,0.0009875188644086722,0.0,0.0,0.0,0.0,0.0,0.0,0.0,0.0,0.0
2.382,68,2,382000000,base_footprint,-0.003861330223249542,-9.374133549168765e-07,0.9999909914817533,0.0017626920798487018,0.0,0.0,0.0,0.0,0.0,0.0,0.0,0.0,0.0,0.00011065967722364325,-0.0014921012636028757,0.0023121705308119,0.0,0.0,0.0,0.0,0.0,0.0,0.0,0.0,0.0,-0.06238202465310384,-0.012259489893666828,0.0006239596996510211,0.0,0.0,0.0,0.0,0.0,0.0,0.0,0.0,0.0
2.416,69,2,416000000,base_footprint,-0.0038460248924907597,-3.2274853786149454e-07,0.9999913609617156,0.0015767353481251876,0.0,0.0,0.0,0.0,0.0,0.0,0.0,0.0,0.0,0.00016779084944952783,0.0001858158125921504,-0.013919155276805293,0.0,0.0,0.0,0.0,0.0,0.0,0.0,0.0,0.0,-0.15562725574794228,0.004521107396250573,-0.002923975328075402,0.0,0.0,0.0,0.0,0.0,0.0,0.0,0.0,0.0
2.448,70,2,450000000,base_footprint,-0.0038491143284855945,6.013353532223745e-06,0.9999892909042205,0.0025695057112639667,0.0,0.0,0.0,0.0,0.0,0.0,0.0,0.0,0.0,0.0008842774458570835,-0.0001361433062134452,-0.11192160676884277,0.0,0.0,0.0,0.0,0.0,0.0,0.0,0.0,0.0,0.279875451052004,-0.012707363167110448,0.00185382921935742,0.0,0.0,0.0,0.0,0.0,0.0,0.0,0.0,0.0
2.483,71,2,484000000,base_footprint,-0.0038456145337015584,1.4242431288178202e-05,0.999977673696776,0.005464719022580829,0.0,0.0,0.0,0.0,0.0,0.0,0.0,0.0,0.0,0.0014150392245503695,-0.0004764587848680654,-0.2039957004089259,0.0,0.0,0.0,0.0,0.0,0.0,0.0,0.0,0.0,0.4233646644423111,-0.041309601797625585,0.003724723135038774,0.0,0.0,0.0,0.0,0.0,0.0,0.0,0.0,0.0
2.518,72,2,518000000,base_footprint,-0.0038544019784289315,3.0164175394003264e-05,0.9999480144213024,0.00943986919433746,0.0,0.0,0.0,0.0,0.0,0.0,0.0,0.0,0.0,0.002128099388987104,0.001047782871950868,-0.2710016941159264,0.0,0.0,0.0,0.0,0.0,0.0,0.0,0.0,0.0,0.4405350021372716,-0.06439558645762392,0.001393343240060511,0.0,0.0,0.0,0.0,0.0,0.0,0.0,0.0,0.0
2.551,73,2,552000000,base_footprint,-0.003853255932689616,4.75570389400818e-05,0.9998938533436171,0.014051056995776212,0.0,0.0,0.0,0.0,0.0,0.0,0.0,0.0,0.0,0.0020895757655609304,-0.00022863145050297743,-0.2714560060106038,0.0,0.0,0.0,0.0,0.0,0.0,0.0,0.0,0.0,-0.0029441849210101595,-0.060489224831735494,0.0018510064146533174,0.0,0.0,0.0,0.0,0.0,0.0,0.0,0.0,0.0
2.5860000000000003,74,2,586000000,base_footprint,-0.003853403192916066,6.723239406617053e-05,0.9998080613926261,0.019209037923770357,0.0,0.0,0.0,0.0,0.0,0.0,0.0,0.0,0.0,0.0026158332669371123,0.00023412201207901579,-0.35020404846921055,0.0,0.0,0.0,0.0,0.0,0.0,0.0,0.0,0.0,0.017373204529443156,-0.06804915395407089,-0.0004920739464645515,0.0,0.0,0.0,0.0,0.0,0.0,0.0,0.0,0.0
2.62,75,2,620000000,base_footprint,-0.003853009912181952,8.967230312919886e-05,0.9996759745119472,0.02516132462894717,0.0,0.0,0.0,0.0,0.0,0.0,0.0,0.0,0.0,0.002612120327432036,-0.0002691507736615957,-0.35041245698739826,0.0,0.0,0.0,0.0,0.0,0.0,0.0,0.0,0.0,-0.006207576279725179,-0.07804205535231395,0.0004914086472096746,0.0,0.0,0.0,0.0,0.0,0.0,0.0,0.0,0.0
2.654,76,2,654000000,base_footprint,-0.0038531241799846083,0.00011216375520847966,0.9995083484642551,0.031115947737504403,0.0,0.0,0.0,0.0,0.0,0.0,0.0,0.0,0.0,0.0025867606670048103,-0.00027587930020585603,-0.35059360259342476,0.0,0.0,0.0,0.0,0.0,0.0,0.0,0.0,0.0,-0.00795119337140791,-0.07783447404559085,-0.0001029420401330357,0.0,0.0,0.0,0.0,0.0,0.0,0.0,0.0,0.0
2.688,77,2,688000000,base_footprint,-0.003852530487428524,0.00013912334097717385,0.9992957356141037,0.03732521181462897,0.0,0.0,0.0,0.0,0.0,0.0,0.0,0.0,0.0,0.0029644098108420843,-0.0008153033589150358,-0.4038917712221107,0.0,0.0,0.0,0.0,0.0,0.0,0.0,0.0,0.0,-0.38560075518531994,-0.0229197021896644,-0.002292936450824662,0.0,0.0,0.0,0.0,0.0,0.0,0.0,0.0,0.0
2.722,78,2,722000000,base_footprint,-0.0038531776012054814,0.00015951274389992034,0.9990414479434311,0.043604046476799455,0.0,0.0,0.0,0.0,0.0,0.0,0.0,0.0,0.0,0.0024650217743157656,-0.000961930222955101,-0.30804926047543324,0.0,0.0,0.0,0.0,0.0,0.0,0.0,0.0,0.0,-0.15854019523182622,-0.053716869136433296,-0.0008724080342371633,0.0,0.0,0.0,0.0,0.0,0.0,0.0,0.0,0.0
2.752,79,2,756000000,base_footprint,-0.0038538244612480394,0.00017814889085533423,0.9987969462536104,0.04888533987257546,0.0,0.0,0.0,0.0,0.0,0.0,0.0,0.0,0.0,0.0025878205956296734,-0.00026428913512682365,-0.3189736572056096,0.0,0.0,0.0,0.0,0.0,0.0,0.0,0.0,0.0,0.017956604033305932,-0.06756633436318991,-0.000773725200997911,0.0,0.0,0.0,0.0,0.0,0.0,0.0,0.0,0.0
2.791,80,2,790000000,base_footprint,-0.0038449426114214235,0.00020336429475391698,0.9985431968748534,0.05382061904350569,0.0,0.0,0.0,0.0,0.0,0.0,0.0,0.0,0.0,0.001776789226459314,-0.00116747597789246,-0.251052525210333,0.0,0.0,0.0,0.0,0.0,0.0,0.0,0.0,0.0,0.09731058204157993,-0.0836532989368707,0.0015482205421055383,0.0,0.0,0.0,0.0,0.0,0.0,0.0,0.0,0.0
2.825,81,2,824000000,base_footprint,-0.003844204721655173,0.00022248346708334785,0.9982816418404897,0.05847166968217232,0.0,0.0,0.0,0.0,0.0,0.0,0.0,0.0,0.0,0.0023979402776316177,-0.0004218598134252005,-0.3031851812750832,0.0,0.0,0.0,0.0,0.0,0.0,0.0,0.0,0.0,0.11610780765432865,-0.08542258779419541,0.00019605873167774984,0.0,0.0,0.0,0.0,0.0,0.0,0.0,0.0,0.0
2.858,82,2,858000000,base_footprint,-0.003843663109949983,0.000245285614419942,0.9979149827891501,0.06442711551664161,0.0,0.0,0.0,0.0,0.0,0.0,0.0,0.0,0.0,0.0026102354434075986,0.0002762686057350464,-0.4013306639329261,0.0,0.0,0.0,0.0,0.0,0.0,0.0,0.0,0.0,0.2276877251533765,-0.13735031396150474,0.00012733182429000654,0.0,0.0,0.0,0.0,0.0,0.0,0.0,0.0,0.0
2.892,83,2,892000000,base_footprint,-0.0038405713446482063,0.00026318897436549186,0.9974857320927328,0.0707629494490955,0.0,0.0,0.0,0.0,0.0,0.0,0.0,0.0,0.0,0.0018363918438174143,-0.0026347515985251303,-0.3386070050437576,0.0,0.0,0.0,0.0,0.0,0.0,0.0,0.0,0.0,-0.2886024845038291,-0.004073534092471753,0.002029685321284118,0.0,0.0,0.0,0.0,0.0,0.0,0.0,0.0,0.0
2.926,84,2,926000000,base_footprint,-0.0038432411027624325,0.00028879775031415085,0.9970276336458288,0.07694831928174,0.0,0.0,0.0,0.0,0.0,0.0,0.0,0.0,0.0,0.002923821690559261,-0.0006579619597675311,-0.3814726937001659,0.0,0.0,0.0,0.0,0.0,0.0,0.0,0.0,0.0,-0.103397168156368,-0.048714956099364395,-0.003070379575588602,0.0,0.0,0.0,0.0,0.0,0.0,0.0,0.0,0.0
2.9610000000000003,85,2,960000000,base_footprint,-0.003838005769831611,0.0003117164220552058,0.9964986605263627,0.08352001025950566,0.0,0.0,0.0,0.0,0.0,0.0,0.0,0.0,0.0,0.0028985861437045976,-0.0007119806102086725,-0.38749998195290564,0.0,0.0,0.0,0.0,0.0,0.0,0.0,0.0,0.0,-0.03707812407435086,-0.07359492648541648,3.0418459579231597e-05,0.0,0.0,0.0,0.0,0.0,0.0,0.0,0.0,0.0
2.994,86,2,994000000,base_footprint,-0.003835370380233599,0.000334246831200566,0.9959909871098162,0.08937075477535329,0.0,0.0,0.0,0.0,0.0,0.0,0.0,0.0,0.0,0.002231137181264234,-0.0009446505118322782,-0.31137683547707745,0.0,0.0,0.0,0.0,0.0,0.0,0.0,0.0,0.0,-0.03638788027716924,-0.06518327921852077,0.00012735309330980977,0.0,0.0,0.0,0.0,0.0,0.0,0.0,0.0,0.0
3.031,87,3,28000000,base_footprint,-0.003837539707366257,0.00035672384362342517,0.995519077604525,0.09448233783374387,0.0,0.0,0.0,0.0,0.0,0.0,0.0,0.0,0.0,0.0023849022273789364,-0.0005658450222286624,-0.301343436326843,0.0,0.0,0.0,0.0,0.0,0.0,0.0,0.0,0.0,-0.0019870249024992685,-0.06758868392784895,-0.000556012808744753,0.0,0.0,0.0,0.0,0.0,0.0,0.0,0.0,0.0
3.064,88,3,62000000,base_footprint,-0.0038357624936117304,0.00037584717006911,0.9950220395092974,0.09958055310027011,0.0,0.0,0.0,0.0,0.0,0.0,0.0,0.0,0.0,0.0022903143779024835,-0.0005811446621928547,-0.30158301669169246,0.0,0.0,0.0,0.0,0.0,0.0,0.0,0.0,0.0,-0.023463172647548942,-0.059136845604907104,-0.00011371751220884402,0.0,0.0,0.0,0.0,0.0,0.0,0.0,0.0,0.0
3.097,89,3,96000000,base_footprint,-0.0038313204723302552,0.0003916517065888331,0.9945350552608201,0.10433212089158632,0.0,0.0,0.0,0.0,0.0,0.0,0.0,0.0,0.0,0.0015767850554809643,-0.0004579326941013099,-0.22730597456172338,0.0,0.0,0.0,0.0,0.0,0.0,0.0,0.0,0.0,0.20080181918833453,-0.15508626141482218,0.001756215772146566,0.0,0.0,0.0,0.0,0.0,0.0,0.0,0.0,0.0
3.1310000000000002,90,3,130000000,base_footprint,-0.003833622588653498,0.00040616911976818165,0.9941777097886871,0.10768388794901043,0.0,0.0,0.0,0.0,0.0,0.0,0.0,0.0,0.0,0.0012835715427407714,-0.0004356267465084764,-0.19515791363521404,0.0,0.0,0.0,0.0,0.0,0.0,0.0,0.0,0.0,0.04329244224585274,-0.06823018747135101,0.0004698216569648968,0.0,0.0,0.0,0.0,0.0,0.0,0.0,0.0,0.0
3.164,91,3,164000000,base_footprint,-0.003832904780449409,0.00041860072973578166,0.9938158746013428,0.11097360499119223,0.0,0.0,0.0,0.0,0.0,0.0,0.0,0.0,0.0,0.0012871593375576433,-0.00036047296282074796,-0.19452289651843735,0.0,0.0,0.0,0.0,0.0,0.0,0.0,0.0,0.0,-0.01928658843814038,-0.03865767837303908,-0.00021173540313906445,0.0,0.0,0.0,0.0,0.0,0.0,0.0,0.0,0.0
3.199,92,3,198000000,base_footprint,-0.0038250404112001343,0.0004381115837746815,0.9933731301981048,0.11486949692808822,0.0,0.0,0.0,0.0,0.0,0.0,0.0,0.0,0.0,0.0016751724543487448,-0.0005589565238410654,-0.23571140444446975,0.0,0.0,0.0,0.0,0.0,0.0,0.0,0.0,0.0,-0.18629616920549985,0.03719601898284329,-0.0011832505165867084,0.0,0.0,0.0,0.0,0.0,0.0,0.0,0.0,0.0
3.233,93,3,232000000,base_footprint,-0.003832957411965879,0.00044733572976034085,0.9929226126768886,0.11870043623813893,0.0,0.0,0.0,0.0,0.0,0.0,0.0,0.0,0.0,0.0015551669073014308,-0.0005359869334121221,-0.21142658678095963,0.0,0.0,0.0,0.0,0.0,0.0,0.0,0.0,0.0,-0.07888054704061458,-0.016408105291258003,-0.00041514886559519,0.0,0.0,0.0,0.0,0.0,0.0,0.0,0.0,0.0
3.266,94,3,266000000,base_footprint,-0.0038251313249710785,0.00046244612782607626,0.9925489895806605,0.12178529384262933,0.0,0.0,0.0,0.0,0.0,0.0,0.0,0.0,0.0,0.0013170609877227926,0.0010179279061526868,-0.17327553543599436,0.0,0.0,0.0,0.0,0.0,0.0,0.0,0.0,0.0,-0.10670339728661657,0.01240527794215329,-0.003250754734458674,0.0,0.0,0.0,0.0,0.0,0.0,0.0,0.0,0.0
3.302,95,3,300000000,base_footprint,-0.0038272322715016092,0.0004689410162034416,0.9923184315935374,0.12364975821733505,0.0,0.0,0.0,0.0,0.0,0.0,0.0,0.0,0.0,0.0004595867284004288,-0.0006256851407547376,-0.09238812310050264,0.0,0.0,0.0,0.0,0.0,0.0,0.0,0.0,0.0,-0.031859055819293734,-0.01016384057017932,0.0022998642277410374,0.0,0.0,0.0,0.0,0.0,0.0,0.0,0.0,0.0
3.334,96,3,334000000,base_footprint,-0.0038254486241771704,0.0004759369766834808,0.9921222338478477,0.12521426648579115,0.0,0.0,0.0,0.0,0.0,0.0,0.0,0.0,0.0,0.0006816629958029975,-0.00029152438294983117,-0.09260218711418905,0.0,0.0,0.0,0.0,0.0,0.0,0.0,0.0,0.0,-0.00847763367447525,-0.017418114844742257,-0.0005159238211742494,0.0,0.0,0.0,0.0,0.0,0.0,0.0,0.0,0.0
3.368,97,3,368000000,base_footprint,-0.003824748930663578,0.0004826844853858506,0.991923042069446,0.12678255764497345,0.0,0.0,0.0,0.0,0.0,0.0,0.0,0.0,0.0,0.0007300325243243698,-0.00032799765174873854,-0.09294858746394012,0.0,0.0,0.0,0.0,0.0,0.0,0.0,0.0,0.0,-0.009018170394431133,-0.017197538142444638,-4.191950894162707e-06,0.0,0.0,0.0,0.0,0.0,0.0,0.0,0.0,0.0
3.402,98,3,402000000,base_footprint,-0.003825125549130484,0.00048818001579540156,0.9917874029846915,0.12783926382644306,0.0,0.0,0.0,0.0,0.0,0.0,0.0,0.0,0.0,0.0011554944579780255,-0.00015240997105602335,-0.06924885296292838,0.0,0.0,0.0,0.0,0.0,0.0,0.0,0.0,0.0,-0.3135774935666152,0.16143853050499665,-0.003471231968994625,0.0,0.0,0.0,0.0,0.0,0.0,0.0,0.0,0.0
3.438,99,3,436000000,base_footprint,-0.0038251283682741123,0.0004931859736364654,0.9916387944292929,0.12898692392401803,0.0,0.0,0.0,0.0,0.0,0.0,0.0,0.0,0.0,0.000771173666950579,-0.0002707607754783712,-0.07003645790031766,0.0,0.0,0.0,0.0,0.0,0.0,0.0,0.0,0.0,-0.006792816455181585,-0.011732504125228523,0.0006501755166099028,0.0,0.0,0.0,0.0,0.0,0.0,0.0,0.0,0.0
3.47,100,3,470000000,base_footprint,-0.003820144168849545,0.0004937676258514313,0.9914619539070642,0.13033939023506044,0.0,0.0,0.0,0.0,0.0,0.0,0.0,0.0,0.0,0.0002386774278582899,-0.0009617569825784166,-0.09264655975911544,0.0,0.0,0.0,0.0,0.0,0.0,0.0,0.0,0.0,-0.04743920529525484,0.009716113189259861,0.0008422144938035935,0.0,0.0,0.0,0.0,0.0,0.0,0.0,0.0,0.0
3.504,101,3,504000000,base_footprint,-0.003817637426115437,0.0005015744110232496,0.9911262160651443,0.13286834798394262,0.0,0.0,0.0,0.0,0.0,0.0,0.0,0.0,0.0,0.0010311532888208066,-0.000492199644395591,-0.14908730054589556,0.0,0.0,0.0,0.0,0.0,0.0,0.0,0.0,0.0,0.09740133281314718,-0.09098262292949987,0.00016073750500103566,0.0,0.0,0.0,0.0,0.0,0.0,0.0,0.0,0.0
3.5380000000000003,102,3,538000000,base_footprint,-0.00381667800798436,0.0005093796754779531,0.9908374050716787,0.13500522290693714,0.0,0.0,0.0,0.0,0.0,0.0,0.0,0.0,0.0,0.0006920299600649993,-0.0003742034970197554,-0.09964273992703948,0.0,0.0,0.0,0.0,0.0,0.0,0.0,0.0,0.0,0.076058150121498,-0.07614955811934929,0.0005678326607028906,0.0,0.0,0.0,0.0,0.0,0.0,0.0,0.0,0.0
3.573,103,3,572000000,base_footprint,-0.0038233163873670536,0.0005170802114450298,0.9906980062774765,0.13602417151995536,0.0,0.0,0.0,0.0,0.0,0.0,0.0,0.0,0.0,0.0038079195817423833,0.003294139822776457,-0.05392625452972171,0.0,0.0,0.0,0.0,0.0,0.0,0.0,0.0,0.0,0.11899982844823763,-0.0887995074131799,-0.007288785114884177,0.0,0.0,0.0,0.0,0.0,0.0,0.0,0.0,0.0
3.606,104,3,606000000,base_footprint,-0.0038151846612860603,0.0005257718962767487,0.9902900420165636,0.13896330671348503,0.0,0.0,0.0,0.0,0.0,0.0,0.0,0.0,0.0,-0.002749805292597634,-0.00619726677843708,-0.23167916768691074,0.0,0.0,0.0,0.0,0.0,0.0,0.0,0.0,0.0,-0.3098668183737694,0.15438607589937997,0.014545709824000656,0.0,0.0,0.0,0.0,0.0,0.0,0.0,0.0,0.0
3.64,105,3,640000000,base_footprint,-0.0038191784882167824,0.000532235570839204,0.990067486988496,0.14054003632152812,0.0,0.0,0.0,0.0,0.0,0.0,0.0,0.0,0.0,-0.0004942133315526856,-0.0004912628828037825,-0.02785292482669608,0.0,0.0,0.0,0.0,0.0,0.0,0.0,0.0,0.0,-0.008736243576322819,-0.019637844137108645,-0.00845331003791946,0.0,0.0,0.0,0.0,0.0,0.0,0.0,0.0,0.0
3.674,106,3,674000000,base_footprint,-0.003816413788955804,0.0005303222917839751,0.9900045901536801,0.14098249968950802,0.0,0.0,0.0,0.0,0.0,0.0,0.0,0.0,0.0,-7.382924385610527e-05,0.0005152022141285472,-0.009094182654243953,0.0,0.0,0.0,0.0,0.0,0.0,0.0,0.0,0.0,0.032786591789958235,-0.02487811917858753,-0.00036476921146766416,0.0,0.0,0.0,0.0,0.0,0.0,0.0,0.0,0.0
3.707,107,3,708000000,base_footprint,-0.00381178694425653,0.0005374726040286778,0.9900440088336817,0.1407055150874491,0.0,0.0,0.0,0.0,0.0,0.0,0.0,0.0,0.0,0.0007136412956215923,0.0009386617081794887,0.018509775265303906,0.0,0.0,0.0,0.0,0.0,0.0,0.0,0.0,0.0,0.05735184956036725,-0.034493527962399136,-0.0006297925423151729,0.0,0.0,0.0,0.0,0.0,0.0,0.0,0.0,0.0
3.741,108,3,742000000,base_footprint,-0.0038112845170120506,0.0005375079299601695,0.9900557187794208,0.14062310943696346,0.0,0.0,0.0,0.0,0.0,0.0,0.0,0.0,0.0,1.1794379636627349e-05,-0.00024387134398449383,-0.015385481553643776,0.0,0.0,0.0,0.0,0.0,0.0,0.0,0.0,0.0,0.07603144517822318,-0.04638573015299129,0.002237489307445838,0.0,0.0,0.0,0.0,0.0,0.0,0.0,0.0,0.0
3.776,109,3,776000000,base_footprint,-0.0038090147093401546,0.000541089485859671,0.989937209320964,0.14145501133199326,0.0,0.0,0.0,0.0,0.0,0.0,0.0,0.0,0.0,0.00031787276737634516,-0.0003462964242248646,-0.0627098206551904,0.0,0.0,0.0,0.0,0.0,0.0,0.0,0.0,0.0,0.21084289894235791,-0.1460928283967281,0.0018970879948528143,0.0,0.0,0.0,0.0,0.0,0.0,0.0,0.0,0.0
3.811,110,3,810000000,base_footprint,-0.0038162028566871495,0.0005439774724835506,0.9897389140538231,0.1428356492330437,0.0,0.0,0.0,0.0,0.0,0.0,0.0,0.0,0.0,0.00033964624037180816,-0.0008951703558146158,-0.10335986541749186,0.0,0.0,0.0,0.0,0.0,0.0,0.0,0.0,0.0,0.1975619323976853,-0.14818522225531677,0.00222491106633575,0.0,0.0,0.0,0.0,0.0,0.0,0.0,0.0,0.0
3.8440000000000003,111,3,844000000,base_footprint,-0.0038147572562285707,0.0005514979492579569,0.9894850468455072,0.14458383570175629,0.0,0.0,0.0,0.0,0.0,0.0,0.0,0.0,0.0,0.0006728170796657996,-0.00033606912690354744,-0.10378632005730781,0.0,0.0,0.0,0.0,0.0,0.0,0.0,0.0,0.0,-0.011194828549942882,-0.02005498846821817,-0.0007155753487707304,0.0,0.0,0.0,0.0,0.0,0.0,0.0,0.0,0.0
3.878,112,3,878000000,base_footprint,-0.003817410003500622,0.000554429255035865,0.9892378079043673,0.14626578342739122,0.0,0.0,0.0,0.0,0.0,0.0,0.0,0.0,0.0,-0.0002593240873059466,-0.0018735310533858239,-0.07304211583027577,0.0,0.0,0.0,0.0,0.0,0.0,0.0,0.0,0.0,-0.1597906502372466,0.07987779205639445,0.0010715606719253982,0.0,0.0,0.0,0.0,0.0,0.0,0.0,0.0,0.0
3.912,113,3,912000000,base_footprint,-0.003811659417570944,0.0005610170987565897,0.9892082200480803,0.14646587964986316,0.0,0.0,0.0,0.0,0.0,0.0,0.0,0.0,0.0,0.0008245319106017595,0.0017099048402626185,-0.01809575821103445,0.0,0.0,0.0,0.0,0.0,0.0,0.0,0.0,0.0,-0.3506412029434033,0.22985335440111512,-0.008046885441791295,0.0,0.0,0.0,0.0,0.0,0.0,0.0,0.0,0.0
3.947,114,3,946000000,base_footprint,-0.003813812226660954,0.0005652404297710368,0.9889778596326785,0.14801327135065404,0.0,0.0,0.0,0.0,0.0,0.0,0.0,0.0,0.0,0.001146852341603946,-0.00020437350960124788,-0.11292660705073583,0.0,0.0,0.0,0.0,0.0,0.0,0.0,0.0,0.0,0.2053557100330612,-0.1594228133122144,0.0038116715047130344,0.0,0.0,0.0,0.0,0.0,0.0,0.0,0.0,0.0
3.98,115,3,980000000,base_footprint,-0.0038090051472331517,0.0005689900782950484,0.9886484019632455,0.15019821911594006,0.0,0.0,0.0,0.0,0.0,0.0,0.0,0.0,0.0,0.00034407012264110997,-0.001154428663569163,-0.1730273073036839,0.0,0.0,0.0,0.0,0.0,0.0,0.0,0.0,0.0,0.015204867285001016,-0.04201952570002272,0.0014261315963569122,0.0,0.0,0.0,0.0,0.0,0.0,0.0,0.0,0.0
4.014,116,4,14000000,base_footprint,-0.003807238135695324,0.0005795003988038319,0.9881939453240721,0.15315970599968776,0.0,0.0,0.0,0.0,0.0,0.0,0.0,0.0,0.0,0.0011175602402903385,-0.0005316702750681199,-0.17201877381937314,0.0,0.0,0.0,0.0,0.0,0.0,0.0,0.0,0.0,-0.019838579770366488,-0.032548217028237986,-0.000651211504829568,0.0,0.0,0.0,0.0,0.0,0.0,0.0,0.0,0.0
4.048,117,4,48000000,base_footprint,-0.0038059974557805355,0.0005887864607953348,0.9877928408221441,0.15572562838013748,0.0,0.0,0.0,0.0,0.0,0.0,0.0,0.0,0.0,0.0008078189820320933,-0.0003694140461322368,-0.12800917573281886,0.0,0.0,0.0,0.0,0.0,0.0,0.0,0.0,0.0,0.05624244135412676,-0.08093358100265115,0.00038796145238328706,0.0,0.0,0.0,0.0,0.0,0.0,0.0,0.0,0.0
4.082,118,4,82000000,base_footprint,-0.003807280697679125,0.0006020870359151752,0.9875327099289867,0.15736673385821456,0.0,0.0,0.0,0.0,0.0,0.0,0.0,0.0,0.0,-0.0022388060476491675,-0.0017238555482633777,-0.09232673549125275,0.0,0.0,0.0,0.0,0.0,0.0,0.0,0.0,0.0,-0.08425673852426467,0.03522419887537345,0.003793776088042618,0.0,0.0,0.0,0.0,0.0,0.0,0.0,0.0,0.0
4.116,119,4,116000000,base_footprint,-0.003808258633266406,0.0006019856117663844,0.9873489843173344,0.15851535555596388,0.0,0.0,0.0,0.0,0.0,0.0,0.0,0.0,0.0,0.0003704527335521987,-0.00015341701787310272,-0.06642719803384646,0.0,0.0,0.0,0.0,0.0,0.0,0.0,0.0,0.0,-0.05332546583893071,0.02157838505786748,-0.0051678533849668345,0.0,0.0,0.0,0.0,0.0,0.0,0.0,0.0,0.0
4.15,120,4,150000000,base_footprint,-0.003808230109185932,0.0006062183721425258,0.9871708842095662,0.15962072312711792,0.0,0.0,0.0,0.0,0.0,0.0,0.0,0.0,0.0,0.0003449383869104112,-0.00010737579710064234,-0.06519173528673002,0.0,0.0,0.0,0.0,0.0,0.0,0.0,0.0,0.0,-0.010031863285747138,-0.009493810468417012,-1.6412869662900577e-05,0.0,0.0,0.0,0.0,0.0,0.0,0.0,0.0,0.0
4.184,121,4,184000000,base_footprint,-0.0037984115191686332,0.0006118326330520332,0.9870509860107586,0.16036068329222616,0.0,0.0,0.0,0.0,0.0,0.0,0.0,0.0,0.0,-0.00042733547297660747,-0.0007873423131513047,0.02020268507687237,0.0,0.0,0.0,0.0,0.0,0.0,0.0,0.0,0.0,0.08749563653709465,-0.07903848020963831,0.0023703664088948,0.0,0.0,0.0,0.0,0.0,0.0,0.0,0.0,0.0
4.218,122,4,218000000,base_footprint,-0.003800003164537269,0.0006104688201049147,0.9871728255468841,0.15960889638597947,0.0,0.0,0.0,0.0,0.0,0.0,0.0,0.0,0.0,-0.00032792071587783937,-0.00011620527516688849,0.02656380064310984,0.0,0.0,0.0,0.0,0.0,0.0,0.0,0.0,0.0,0.13948230384516766,-0.09218588717526593,0.00022441521374544994,0.0,0.0,0.0,0.0,0.0,0.0,0.0,0.0,0.0
4.252,123,4,252000000,base_footprint,-0.0038065818208507514,0.0006068840783323203,0.9872116868444297,0.1593682119631528,0.0,0.0,0.0,0.0,0.0,0.0,0.0,0.0,0.0,-0.00018787899224004796,0.0001891251590353751,0.013494057644348266,0.0,0.0,0.0,0.0,0.0,0.0,0.0,0.0,0.0,0.030132771045008142,-0.018718214702996252,-0.0002402966001920565,0.0,0.0,0.0,0.0,0.0,0.0,0.0,0.0,0.0
4.286,124,4,286000000,base_footprint,-0.003806654689437124,0.00060745508151547,0.9872039040640431,0.15941641126029346,0.0,0.0,0.0,0.0,0.0,0.0,0.0,0.0,0.0,-0.000380003198923855,-0.0005653479768120593,-0.023433618657705102,0.0,0.0,0.0,0.0,0.0,0.0,0.0,0.0,0.0,0.0080549039232741,-0.006357136907498054,0.0009593813167641873,0.0,0.0,0.0,0.0,0.0,0.0,0.0,0.0,0.0
4.32,125,4,320000000,base_footprint,-0.0038056085473140897,0.0006096053498779616,0.98713917308995,0.15981676594209923,0.0,0.0,0.0,0.0,0.0,0.0,0.0,0.0,0.0,6.635860786383593e-05,-0.00016867682780700744,-0.02375580433267945,0.0,0.0,0.0,0.0,0.0,0.0,0.0,0.0,0.0,-0.0020361052138123336,-0.005082647161821279,-0.0005391156943791028,0.0,0.0,0.0,0.0,0.0,0.0,0.0,0.0,0.0
4.354,126,4,354000000,base_footprint,-0.003805561657878861,0.0006117851779582511,0.9870738223634974,0.16021988835372156,0.0,0.0,0.0,0.0,0.0,0.0,0.0,0.0,0.0,0.00017430984836724862,-0.00019317980147358666,-0.02393823179259582,0.0,0.0,0.0,0.0,0.0,0.0,0.0,0.0,0.0,-0.0022625870740165944,-0.004811670963616146,-0.00012956654811056227,0.0,0.0,0.0,0.0,0.0,0.0,0.0,0.0,0.0
4.39,127,4,388000000,base_footprint,-0.0038041428934089327,0.0006088927520795719,0.9870630884635218,0.16028604786230463,0.0,0.0,0.0,0.0,0.0,0.0,0.0,0.0,0.0,-0.0015011063485404772,-0.002249995542260436,0.0286014306786089,0.0,0.0,0.0,0.0,0.0,0.0,0.0,0.0,0.0,-0.2778517704693998,0.2073197340235515,0.0006204673000219619,0.0,0.0,0.0,0.0,0.0,0.0,0.0,0.0,0.0
4.422,128,4,422000000,base_footprint,-0.0038061930187822416,0.0006149201936309098,0.9870034170799626,0.16065300943442223,0.0,0.0,0.0,0.0,0.0,0.0,0.0,0.0,0.0,0.00032574826098442065,-1.7389435418213426e-05,-0.032912471820704024,0.0,0.0,0.0,0.0,0.0,0.0,0.0,0.0,0.0,0.002408497895634679,-0.007232754053347265,-0.0031153681823791785,0.0,0.0,0.0,0.0,0.0,0.0,0.0,0.0,0.0
4.456,129,4,456000000,base_footprint,-0.0038077868385499665,0.0006176002655690799,0.9869112647788688,0.1612180969428613,0.0,0.0,0.0,0.0,0.0,0.0,0.0,0.0,0.0,6.803722292021192e-05,-0.00018527212286622517,-0.03948021069162617,0.0,0.0,0.0,0.0,0.0,0.0,0.0,0.0,0.0,-0.013430243648404797,0.0022520560277740926,0.00019641038482113557,0.0,0.0,0.0,0.0,0.0,0.0,0.0,0.0,0.0
4.49,130,4,490000000,base_footprint,-0.003801946227555789,0.000612696694840148,0.9868305663719831,0.1617114809826259,0.0,0.0,0.0,0.0,0.0,0.0,0.0,0.0,0.0,-0.00019706196758412329,-0.00030627157531371013,-0.014204322873092727,0.0,0.0,0.0,0.0,0.0,0.0,0.0,0.0,0.0,-0.08832145900697864,0.05875088472833717,-0.0006804553608975248,0.0,0.0,0.0,0.0,0.0,0.0,0.0,0.0,0.0
4.526,131,4,524000000,base_footprint,-0.0038020140562136885,0.0006124684997490257,0.9868195766293808,0.1617785299490107,0.0,0.0,0.0,0.0,0.0,0.0,0.0,0.0,0.0,-0.00023373767763331082,-8.224019287093366e-05,0.0121674152484535,0.0,0.0,0.0,0.0,0.0,0.0,0.0,0.0,0.0,0.044028036981541396,-0.03528166871300323,5.880558551547369e-05,0.0,0.0,0.0,0.0,0.0,0.0,0.0,0.0,0.0
4.5600000000000005,132,4,558000000,base_footprint,-0.0038060317964135654,0.0006130645356089065,0.9869023305681359,0.16127283774095919,0.0,0.0,0.0,0.0,0.0,0.0,0.0,0.0,0.0,-0.0001795184386792361,0.00010094297682908977,0.034297952112950426,0.0,0.0,0.0,0.0,0.0,0.0,0.0,0.0,0.0,0.04036292262853062,-0.023053153403031556,-2.7803961198509205e-05,0.0,0.0,0.0,0.0,0.0,0.0,0.0,0.0,0.0
4.591,133,4,592000000,base_footprint,-0.0038070614947650107,0.0006120063692411649,0.9869347256165284,0.16107445204999762,0.0,0.0,0.0,0.0,0.0,0.0,0.0,0.0,0.0,-0.000402956284971476,-9.100966730641842e-05,-0.0019308904516504302,0.0,0.0,0.0,0.0,0.0,0.0,0.0,0.0,0.0,0.007771261515008262,-0.0024426902222990363,0.00022022063055165362,0.0,0.0,0.0,0.0,0.0,0.0,0.0,0.0,0.0
4.627,134,4,626000000,base_footprint,-0.0038070415330374897,0.0006119222698109194,0.9869299493155423,0.16110371544419005,0.0,0.0,0.0,0.0,0.0,0.0,0.0,0.0,0.0,-7.538456553996042e-05,1.3812941727912078e-05,-0.0014433862723468576,0.0,0.0,0.0,0.0,0.0,0.0,0.0,0.0,0.0,0.0004614883258659925,8.546803930785236e-05,-0.00013443447314847258,0.0,0.0,0.0,0.0,0.0,0.0,0.0,0.0,0.0
4.66,135,4,660000000,base_footprint,-0.003807274479711615,0.0006122392471786598,0.9869321091457893,0.16109047694132714,0.0,0.0,0.0,0.0,0.0,0.0,0.0,0.0,0.0,-0.00019445498379666793,-0.00026064223633297137,0.004820573477905988,0.0,0.0,0.0,0.0,0.0,0.0,0.0,0.0,0.0,-0.012642138111277998,0.008907801913619024,0.0005479957579303051,0.0,0.0,0.0,0.0,0.0,0.0,0.0,0.0,0.0
4.694,136,4,694000000,base_footprint,-0.003800551822090353,0.0006133741333270896,0.9870594363756272,0.16030860438494648,0.0,0.0,0.0,0.0,0.0,0.0,0.0,0.0,0.0,-0.000970212580868566,-4.367301918194123e-05,0.08239960966863469,0.0,0.0,0.0,0.0,0.0,0.0,0.0,0.0,0.0,0.15930589279781052,-0.1084578320954123,0.0014616551030920467,0.0,0.0,0.0,0.0,0.0,0.0,0.0,0.0,0.0
4.727,137,4,728000000,base_footprint,-0.003803367568965809,0.000608362539104271,0.9872004447751614,0.15943790680349457,0.0,0.0,0.0,0.0,0.0,0.0,0.0,0.0,0.0,2.5539183095298133e-05,0.0022522457724152966,0.022185294927121606,0.0,0.0,0.0,0.0,0.0,0.0,0.0,0.0,0.0,0.13383991651620647,-0.0850288450325232,-0.002595259995010232,0.0,0.0,0.0,0.0,0.0,0.0,0.0,0.0,0.0
4.7620000000000005,138,4,762000000,base_footprint,-0.0038062698389206636,0.0006059788216406982,0.9872633607422712,0.15904779670104666,0.0,0.0,0.0,0.0,0.0,0.0,0.0,0.0,0.0,-0.00030849349712705693,-4.370848045417293e-05,0.023606555125699483,0.0,0.0,0.0,0.0,0.0,0.0,0.0,0.0,0.0,0.0008088315991923257,0.005522133267746853,0.003526479867319427,0.0,0.0,0.0,0.0,0.0,0.0,0.0,0.0,0.0
4.796,139,4,796000000,base_footprint,-0.0038062573066511654,0.0006047308824400882,0.9873376024845552,0.1585862712403759,0.0,0.0,0.0,0.0,0.0,0.0,0.0,0.0,0.0,-0.0003243840775832679,-4.106535353608619e-05,0.028969267477008568,0.0,0.0,0.0,0.0,0.0,0.0,0.0,0.0,0.0,0.0034155641875864935,0.004908199470626742,-4.228920531156793e-06,0.0,0.0,0.0,0.0,0.0,0.0,0.0,0.0,0.0
4.831,140,4,830000000,base_footprint,-0.00380669582164638,0.0006034694063969247,0.9874148742148255,0.15810443090222792,0.0,0.0,0.0,0.0,0.0,0.0,0.0,0.0,0.0,-0.00023366469883712417,-3.519574357568159e-05,0.028830782054122588,0.0,0.0,0.0,0.0,0.0,0.0,0.0,0.0,0.0,0.004783693375975707,0.004379772009812419,-0.00015296337915350172,0.0,0.0,0.0,0.0,0.0,0.0,0.0,0.0,0.0
4.864,141,4,864000000,base_footprint,-0.003807282180227687,0.0006022030806223741,0.9874913964192086,0.15762577185184906,0.0,0.0,0.0,0.0,0.0,0.0,0.0,0.0,0.0,-0.00019189459310539272,-7.731758486656218e-05,0.028500329690385462,0.0,0.0,0.0,0.0,0.0,0.0,0.0,0.0,0.0,0.004274899567366202,0.0046693769750253255,5.8417208507791457e-05,0.0,0.0,0.0,0.0,0.0,0.0,0.0,0.0,0.0
4.898,142,4,898000000,base_footprint,-0.0038082109733957627,0.0005995641902939928,0.987621744610986,0.15680697568512772,0.0,0.0,0.0,0.0,0.0,0.0,0.0,0.0,0.0,-0.00036928754834503414,1.974388199046877e-05,0.053800360794034316,0.0,0.0,0.0,0.0,0.0,0.0,0.0,0.0,0.0,0.0013646770414491014,0.012673943033436183,-5.515329419895076e-05,0.0,0.0,0.0,0.0,0.0,0.0,0.0,0.0,0.0
4.932,143,4,932000000,base_footprint,-0.0038106537043600124,0.0005972695539421625,0.9877604118587414,0.1559310455043352,0.0,0.0,0.0,0.0,0.0,0.0,0.0,0.0,0.0,-0.00042135090982756845,5.9009173599171364e-05,0.04906049910276413,0.0,0.0,0.0,0.0,0.0,0.0,0.0,0.0,0.0,-7.261440511056308e-05,0.014453039213936692,0.00012538479296697865,0.0,0.0,0.0,0.0,0.0,0.0,0.0,0.0,0.0
4.966,144,4,966000000,base_footprint,-0.003805795810572156,0.0005883382529070538,0.987857472407044,0.15531511190452335,0.0,0.0,0.0,0.0,0.0,0.0,0.0,0.0,0.0,-0.0005362858521934778,-0.00016821298266155333,0.03023580957995378,0.0,0.0,0.0,0.0,0.0,0.0,0.0,0.0,0.0,-0.026303423315297655,0.02858766198073408,5.302545736446557e-05,0.0,0.0,0.0,0.0,0.0,0.0,0.0,0.0,0.0
4.9990000000000006,145,5,0,base_footprint,-0.0038093111001259836,0.0005887472541961408,0.9879506096323577,0.15472147702457428,0.0,0.0,0.0,0.0,0.0,0.0,0.0,0.0,0.0,0.0007133166485211591,0.0005006214144545165,0.04495734364023256,0.0,0.0,0.0,0.0,0.0,0.0,0.0,0.0,0.0,0.04620973046656581,-0.02414686038050451,-0.001568198677215415,0.0,0.0,0.0,0.0,0.0,0.0,0.0,0.0,0.0
5.034,146,5,34000000,base_footprint,-0.003810317710566607,0.0005853779188080063,0.9880650406276571,0.1539890070787623,0.0,0.0,0.0,0.0,0.0,0.0,0.0,0.0,0.0,-0.00036202007577995914,6.201665363571631e-05,0.043366138983946007,0.0,0.0,0.0,0.0,0.0,0.0,0.0,0.0,0.0,0.0034667007939967287,0.00930253169107351,0.001337822744997072,0.0,0.0,0.0,0.0,0.0,0.0,0.0,0.0,0.0
5.068,147,5,68000000,base_footprint,-0.003811329605661097,0.0005818145767079388,0.9881794290004526,0.1532532262589437,0.0,0.0,0.0,0.0,0.0,0.0,0.0,0.0,0.0,-0.0004238445556257436,7.98595707634295e-05,0.04377213248229198,0.0,0.0,0.0,0.0,0.0,0.0,0.0,0.0,0.0,0.005192397799550693,0.00792751807777986,-3.4888210882390833e-06,0.0,0.0,0.0,0.0,0.0,0.0,0.0,0.0,0.0
5.106,148,5,102000000,base_footprint,-0.0038124757577506904,0.0005755024140978453,0.9884195541323914,0.15169679902454308,0.0,0.0,0.0,0.0,0.0,0.0,0.0,0.0,0.0,-0.0008012714840713879,-7.238654552623938e-05,0.09925195906147563,0.0,0.0,0.0,0.0,0.0,0.0,0.0,0.0,0.0,0.0020872260447573864,0.02356916480548139,0.0004063455502081742,0.0,0.0,0.0,0.0,0.0,0.0,0.0,0.0,0.0
5.136,149,5,136000000,base_footprint,-0.003815009902296092,0.0005686841383039422,0.9886782707935984,0.15000133052202105,0.0,0.0,0.0,0.0,0.0,0.0,0.0,0.0,0.0,-0.0009092668178084227,0.00019440466406929244,0.10404600710688847,0.0,0.0,0.0,0.0,0.0,0.0,0.0,0.0,0.0,0.0024442818618758636,0.023916226948338,-0.00026791405934802244,0.0,0.0,0.0,0.0,0.0,0.0,0.0,0.0,0.0
5.17,150,5,170000000,base_footprint,-0.0038122874159504556,0.0005638810684727402,0.9889481554889159,0.14821165358321248,0.0,0.0,0.0,0.0,0.0,0.0,0.0,0.0,0.0,-0.0009297173068267925,0.0010684320718520582,0.09987975287141758,0.0,0.0,0.0,0.0,0.0,0.0,0.0,0.0,0.0,0.022734477084228013,0.013091627029902825,-0.001280274278839645,0.0,0.0,0.0,0.0,0.0,0.0,0.0,0.0,0.0
5.204,151,5,204000000,base_footprint,-0.00381398887828977,0.0005580313029268611,0.9891631824201623,0.14676968567901913,0.0,0.0,0.0,0.0,0.0,0.0,0.0,0.0,0.0,-0.000750485945963948,0.0002726772833636727,0.08591855581070276,0.0,0.0,0.0,0.0,0.0,0.0,0.0,0.0,0.0,0.008827896112431847,0.016911160394981847,0.0013019756893436771,0.0,0.0,0.0,0.0,0.0,0.0,0.0,0.0,0.0
5.236,152,5,238000000,base_footprint,-0.0038145327322558474,0.0005528881387405479,0.989376578785571,0.14532422029826766,0.0,0.0,0.0,0.0,0.0,0.0,0.0,0.0,0.0,-0.0007617187927188177,8.730270766314187e-05,0.08618336126301679,0.0,0.0,0.0,0.0,0.0,0.0,0.0,0.0,0.0,0.010642450614076895,0.015525649331447296,0.00031877546572426984,0.0,0.0,0.0,0.0,0.0,0.0,0.0,0.0,0.0
5.272,153,5,272000000,base_footprint,-0.0038190566708256888,0.0005459397941719886,0.9895879976586547,0.1438774188183147,0.0,0.0,0.0,0.0,0.0,0.0,0.0,0.0,0.0,-0.0009019478880125173,0.004639492166439887,0.08735165935486586,0.0,0.0,0.0,0.0,0.0,0.0,0.0,0.0,0.0,-0.029989567913069812,0.04207784982307199,-0.004044741632028795,0.0,0.0,0.0,0.0,0.0,0.0,0.0,0.0,0.0
5.303,154,5,306000000,base_footprint,-0.0038158465411154536,0.0005444523657413252,0.9897415955901591,0.1428170747685374,0.0,0.0,0.0,0.0,0.0,0.0,0.0,0.0,0.0,-0.0003014509767588501,6.282373493234695e-05,0.04604012718573566,0.0,0.0,0.0,0.0,0.0,0.0,0.0,0.0,0.0,-0.22728221222582798,0.1636044152922992,0.0014010055049177533,0.0,0.0,0.0,0.0,0.0,0.0,0.0,0.0,0.0
5.34,155,5,340000000,base_footprint,-0.003816517877899737,0.0005420918852906753,0.9898521929683834,0.14204850017989656,0.0,0.0,0.0,0.0,0.0,0.0,0.0,0.0,0.0,-0.00028076519747362836,-6.571001336485617e-05,0.04565897140196006,0.0,0.0,0.0,0.0,0.0,0.0,0.0,0.0,0.0,0.005429929297848831,0.007825391265763895,0.00020592483307537855,0.0,0.0,0.0,0.0,0.0,0.0,0.0,0.0,0.0
5.374,156,5,374000000,base_footprint,-0.003809847371373913,0.0005350757799069218,0.9899536525997387,0.1413398898448436,0.0,0.0,0.0,0.0,0.0,0.0,0.0,0.0,0.0,-0.0029887434872166337,-0.0035687985223804277,0.0033605240695696852,0.0,0.0,0.0,0.0,0.0,0.0,0.0,0.0,0.0,0.042605140827846326,-0.015201092463425495,0.004835993136904017,0.0,0.0,0.0,0.0,0.0,0.0,0.0,0.0,0.0
5.408,157,5,408000000,base_footprint,-0.0038208409098456474,0.0005478224641084123,0.9897635511107231,0.14266469064901988,0.0,0.0,0.0,0.0,0.0,0.0,0.0,0.0,0.0,0.0012539607543255497,0.001374097395285701,-0.09375156181362333,0.0,0.0,0.0,0.0,0.0,0.0,0.0,0.0,0.0,-0.03539733284709294,0.003387223284830418,-0.0065510369905571785,0.0,0.0,0.0,0.0,0.0,0.0,0.0,0.0,0.0
5.442,158,5,442000000,base_footprint,-0.003811858652222334,0.000545938498457793,0.9895165821019766,0.14436795153355086,0.0,0.0,0.0,0.0,0.0,0.0,0.0,0.0,0.0,0.0006039355119831194,-0.0004781210488313442,-0.10159180714136445,0.0,0.0,0.0,0.0,0.0,0.0,0.0,0.0,0.0,-0.023492120792653972,-0.009284900369188151,0.0020028689962613058,0.0,0.0,0.0,0.0,0.0,0.0,0.0,0.0,0.0
5.476,159,5,476000000,base_footprint,-0.0038103188881392744,0.0005498754545059548,0.9892938265070389,0.14588661330641767,0.0,0.0,0.0,0.0,0.0,0.0,0.0,0.0,0.0,0.0009592493647348963,-0.00046478010906201753,-0.10365387624610534,0.0,0.0,0.0,0.0,0.0,0.0,0.0,0.0,0.0,0.10832520496914558,-0.09466496693050248,0.0010871016734023916,0.0,0.0,0.0,0.0,0.0,0.0,0.0,0.0,0.0
5.51,160,5,510000000,base_footprint,-0.0038109056946484584,0.0005557188573165299,0.9891096848072539,0.14712987322373736,0.0,0.0,0.0,0.0,0.0,0.0,0.0,0.0,0.0,0.0001399085229923183,-0.00014264102180685782,-0.03293483551613979,0.0,0.0,0.0,0.0,0.0,0.0,0.0,0.0,0.0,0.13600408659355032,-0.1112358731112546,0.0007058581257721125,0.0,0.0,0.0,0.0,0.0,0.0,0.0,0.0,0.0
5.5440000000000005,161,5,544000000,base_footprint,-0.003814423670295163,0.0005591305132696645,0.9890725859952699,0.147378957717044,0.0,0.0,0.0,0.0,0.0,0.0,0.0,0.0,0.0,-2.3662228139138696e-05,-9.828136805644573e-05,-0.013185248952674401,0.0,0.0,0.0,0.0,0.0,0.0,0.0,0.0,0.0,0.03216772752953495,-0.025795527403048177,0.00026245602952895274,0.0,0.0,0.0,0.0,0.0,0.0,0.0,0.0,0.0
5.578,162,5,578000000,base_footprint,-0.0038052424283200135,0.0005608476960017909,0.9890617621781488,0.14745180967685304,0.0,0.0,0.0,0.0,0.0,0.0,0.0,0.0,0.0,0.00021796385306875957,0.0005829156819603989,0.049011280182698444,0.0,0.0,0.0,0.0,0.0,0.0,0.0,0.0,0.0,0.02300993387845108,-0.016545466756401325,-9.249884011540843e-05,0.0,0.0,0.0,0.0,0.0,0.0,0.0,0.0,0.0
5.611,163,5,612000000,base_footprint,-0.003816839356437072,0.0005544286544825075,0.9892333545959726,0.14629591416370172,0.0,0.0,0.0,0.0,0.0,0.0,0.0,0.0,0.0,-0.0007508454261035931,0.0002984455407871576,0.0756007721148777,0.0,0.0,0.0,0.0,0.0,0.0,0.0,0.0,0.0,-0.04556241313944302,0.04776482362189559,-0.0003441640771732105,0.0,0.0,0.0,0.0,0.0,0.0,0.0,0.0,0.0
5.646,164,5,646000000,base_footprint,-0.003812159609947789,0.0005525330077710586,0.9894285359607248,0.14497011544797953,0.0,0.0,0.0,0.0,0.0,0.0,0.0,0.0,0.0,-0.0007775262009967014,0.0003732044777338728,0.07547751031740073,0.0,0.0,0.0,0.0,0.0,0.0,0.0,0.0,0.0,0.010163212988183814,0.013675554515877505,-0.0001311284011868244,0.0,0.0,0.0,0.0,0.0,0.0,0.0,0.0,0.0
5.68,165,5,680000000,base_footprint,-0.003808461876289716,0.0005497823363763989,0.9895753049291064,0.1439649583474594,0.0,0.0,0.0,0.0,0.0,0.0,0.0,0.0,0.0,0.0001490403456928627,-0.00012327084759874272,0.019085224805516755,0.0,0.0,0.0,0.0,0.0,0.0,0.0,0.0,0.0,0.01457376572264507,0.007541827550125881,0.0011474961805947436,0.0,0.0,0.0,0.0,0.0,0.0,0.0,0.0,0.0
5.714,166,5,714000000,base_footprint,-0.003815822925778273,0.0005467182500687934,0.9896068507828802,0.14374777034147226,0.0,0.0,0.0,0.0,0.0,0.0,0.0,0.0,0.0,-0.0002542336245256903,-0.0001131304173622786,0.013276437945597389,0.0,0.0,0.0,0.0,0.0,0.0,0.0,0.0,0.0,0.015730779925319828,-0.007632430943743418,-0.00026134797029666847,0.0,0.0,0.0,0.0,0.0,0.0,0.0,0.0,0.0
5.748,167,5,748000000,base_footprint,-0.0038154707122795154,0.0005465925179716948,0.9896386894018917,0.14352842178038894,0.0,0.0,0.0,0.0,0.0,0.0,0.0,0.0,0.0,-0.00015432187972733087,-7.489268473485444e-05,0.013221612819053104,0.0,0.0,0.0,0.0,0.0,0.0,0.0,0.0,0.0,0.0025056199022275073,0.0018228579876982634,-0.00012826347071866504,0.0,0.0,0.0,0.0,0.0,0.0,0.0,0.0,0.0
5.782,168,5,782000000,base_footprint,-0.003819081375814882,0.0005419929672509257,0.9896846195775557,0.1432112936632351,0.0,0.0,0.0,0.0,0.0,0.0,0.0,0.0,0.0,-0.0005287949657459191,-0.00028819299884196947,0.044602473934775316,0.0,0.0,0.0,0.0,0.0,0.0,0.0,0.0,0.0,-0.22186844159750208,0.14873994494121742,-0.0013182949360072869,0.0,0.0,0.0,0.0,0.0,0.0,0.0,0.0,0.0
5.816,169,5,816000000,base_footprint,-0.0038167441947141428,0.0005477944546114125,0.9896681203577918,0.1433253080668697,0.0,0.0,0.0,0.0,0.0,0.0,0.0,0.0,0.0,-0.00039202568869564923,-0.0009839083968329063,-0.01906416354244275,0.0,0.0,0.0,0.0,0.0,0.0,0.0,0.0,0.0,-0.09374297235165516,0.059409764441911025,-7.051769482121746e-05,0.0,0.0,0.0,0.0,0.0,0.0,0.0,0.0,0.0
5.85,170,5,850000000,base_footprint,-0.0038166509175625455,0.0005479731869257292,0.9896625981153848,0.14336343603815485,0.0,0.0,0.0,0.0,0.0,0.0,0.0,0.0,0.0,7.007163922291015e-05,-0.00020893744747799606,-0.00010626951728691295,0.0,0.0,0.0,0.0,0.0,0.0,0.0,0.0,0.0,0.03444638237633448,-0.0230251672671093,-0.00105033928167991,0.0,0.0,0.0,0.0,0.0,0.0,0.0,0.0,0.0
5.885,171,5,884000000,base_footprint,-0.003818345469301159,0.0005502204369702813,0.9896025486934578,0.14377730389307142,0.0,0.0,0.0,0.0,0.0,0.0,0.0,0.0,0.0,0.0011499040781415414,0.0006138556717330633,-0.08708703115571856,0.0,0.0,0.0,0.0,0.0,0.0,0.0,0.0,0.0,0.09098529867570636,-0.0633041962365263,-0.0005573621288786511,0.0,0.0,0.0,0.0,0.0,0.0,0.0,0.0,0.0
5.915,172,5,918000000,base_footprint,-0.0038112183055912345,0.0005498156793731597,0.9893702185872921,0.14536761293451758,0.0,0.0,0.0,0.0,0.0,0.0,0.0,0.0,0.0,0.0005685476189062578,-0.0004577792046868103,-0.09473164076633837,0.0,0.0,0.0,0.0,0.0,0.0,0.0,0.0,0.0,-0.024105338629277828,-0.008656552920596059,0.0014960494227855168,0.0,0.0,0.0,0.0,0.0,0.0,0.0,0.0,0.0
5.948,173,5,952000000,base_footprint,-0.0038105568599850776,0.0005544529905844947,0.9891726566869846,0.1467059218338206,0.0,0.0,0.0,0.0,0.0,0.0,0.0,0.0,0.0,0.0003401706481506259,-0.0002621084097768823,-0.058411697763535754,0.0,0.0,0.0,0.0,0.0,0.0,0.0,0.0,0.0,0.05435456337682258,-0.05708003628182156,0.0002720239559538749,0.0,0.0,0.0,0.0,0.0,0.0,0.0,0.0,0.0
5.991,174,5,986000000,base_footprint,-0.003810799685163812,0.000555201725182576,0.9891336356057987,0.1469687737924593,0.0,0.0,0.0,0.0,0.0,0.0,0.0,0.0,0.0,-0.0004079581234730442,-7.738760847386843e-05,0.032590744096980796,0.0,0.0,0.0,0.0,0.0,0.0,0.0,0.0,0.0,0.11437900401546754,-0.08219653036122995,0.0009543255936196995,0.0,0.0,0.0,0.0,0.0,0.0,0.0,0.0,0.0
6.019,175,6,20000000,base_footprint,-0.0038149345358125717,0.0005547925649285166,0.9892357201609894,0.14627996594635365,0.0,0.0,0.0,0.0,0.0,0.0,0.0,0.0,0.0,-0.0003861162696063131,5.0631813600761615e-05,0.04116795912750943,0.0,0.0,0.0,0.0,0.0,0.0,0.0,0.0,0.0,0.01991898577870549,-0.002526887738125943,-3.3112604365919226e-05,0.0,0.0,0.0,0.0,0.0,0.0,0.0,0.0,0.0
6.055,176,6,54000000,base_footprint,-0.0038156846067219728,0.0005519237288658515,0.9893388067327391,0.14558111630228476,0.0,0.0,0.0,0.0,0.0,0.0,0.0,0.0,0.0,-0.00040967516994040276,4.467101225808595e-05,0.04124692833269316,0.0,0.0,0.0,0.0,0.0,0.0,0.0,0.0,0.0,0.00585176784676162,0.007446972356141682,3.198180288128155e-06,0.0,0.0,0.0,0.0,0.0,0.0,0.0,0.0,0.0
6.088,177,6,88000000,base_footprint,-0.003816291037544938,0.0005496135821659445,0.989446625664618,0.14484650085013576,0.0,0.0,0.0,0.0,0.0,0.0,0.0,0.0,0.0,-0.000495270152833259,0.0002750986780690154,0.0477883244386757,0.0,0.0,0.0,0.0,0.0,0.0,0.0,0.0,0.0,0.00420922028569312,0.008947426761800246,-0.00021587466179659467,0.0,0.0,0.0,0.0,0.0,0.0,0.0,0.0,0.0
6.122,178,6,122000000,base_footprint,-0.00381427760193663,0.000547833528969758,0.9895741187484078,0.14397296505980534,0.0,0.0,0.0,0.0,0.0,0.0,0.0,0.0,0.0,-0.000577355054178116,-0.0003490511361892601,0.05355136236764926,0.0,0.0,0.0,0.0,0.0,0.0,0.0,0.0,0.0,-0.006173269962861817,0.017175929068874392,0.0009230852071197598,0.0,0.0,0.0,0.0,0.0,0.0,0.0,0.0,0.0
6.155,179,6,156000000,base_footprint,-0.003815690296225988,0.0005441374570742757,0.9896947157154863,0.14314158762160684,0.0,0.0,0.0,0.0,0.0,0.0,0.0,0.0,0.0,-0.0005242733397605868,-3.7601264541591007e-05,0.05059723671625468,0.0,0.0,0.0,0.0,0.0,0.0,0.0,0.0,0.0,0.0128336486101167,0.004333813457798493,-0.0003589130712615355,0.0,0.0,0.0,0.0,0.0,0.0,0.0,0.0,0.0
6.189,180,6,190000000,base_footprint,-0.0038167055972836623,0.0005407373670618649,0.9898312727085088,0.14219420497944804,0.0,0.0,0.0,0.0,0.0,0.0,0.0,0.0,0.0,-0.0005600941154286447,0.00026479172018999445,0.06093776494842719,0.0,0.0,0.0,0.0,0.0,0.0,0.0,0.0,0.0,0.0058400515798482724,0.010727451048477492,-0.0003512451564098812,0.0,0.0,0.0,0.0,0.0,0.0,0.0,0.0,0.0
6.224,181,6,224000000,base_footprint,-0.0038168177485046564,0.0005374460834575913,0.9899779192072418,0.1411696232766886,0.0,0.0,0.0,0.0,0.0,0.0,0.0,0.0,0.0,-0.0004910993491537483,2.846116107475313e-05,0.0610842929595957,0.0,0.0,0.0,0.0,0.0,0.0,0.0,0.0,0.0,0.007674444646605541,0.011014513703472197,0.00023603569031100213,0.0,0.0,0.0,0.0,0.0,0.0,0.0,0.0,0.0
6.259,182,6,258000000,base_footprint,-0.00381741811040814,0.0005342336706468002,0.9901232906855194,0.1401463918744753,0.0,0.0,0.0,0.0,0.0,0.0,0.0,0.0,0.0,-0.0004560672726869045,1.5721973329320863e-05,0.06089227329956904,0.0,0.0,0.0,0.0,0.0,0.0,0.0,0.0,0.0,0.007956703713244296,0.010793001027287223,-8.39911882940701e-06,0.0,0.0,0.0,0.0,0.0,0.0,0.0,0.0,0.0
6.292,183,6,292000000,base_footprint,-0.003818468464232531,0.0005299621636356673,0.9903055288254432,0.13885279261308436,0.0,0.0,0.0,0.0,0.0,0.0,0.0,0.0,0.0,-0.0007186993539596725,-0.00022908305679109235,0.08671017977052638,0.0,0.0,0.0,0.0,0.0,0.0,0.0,0.0,0.0,0.003371399610715692,0.017468119453898454,0.00040191416647696596,0.0,0.0,0.0,0.0,0.0,0.0,0.0,0.0,0.0
6.323,184,6,326000000,base_footprint,-0.003820019895790027,0.0005253550579200427,0.9905069630345643,0.13740847000859552,0.0,0.0,0.0,0.0,0.0,0.0,0.0,0.0,0.0,-0.000438126060193118,5.393774458960701e-05,0.08496132079515868,0.0,0.0,0.0,0.0,0.0,0.0,0.0,0.0,0.0,0.00839083387123019,0.017720533025304117,-0.0005064304921350357,0.0,0.0,0.0,0.0,0.0,0.0,0.0,0.0,0.0
6.358,185,6,360000000,base_footprint,-0.0038185716284981244,0.0005170774733131296,0.9906862352814698,0.136110008322066,0.0,0.0,0.0,0.0,0.0,0.0,0.0,0.0,0.0,-0.001853936377239108,-0.0006734231136253439,0.0645026081555516,0.0,0.0,0.0,0.0,0.0,0.0,0.0,0.0,0.0,-0.02663951107298262,0.03545946092152123,0.0020318258602384665,0.0,0.0,0.0,0.0,0.0,0.0,0.0,0.0,0.0
6.394,186,6,394000000,base_footprint,-0.0038169824062115137,0.0005115881402106801,0.9908139617734408,0.13517715072342687,0.0,0.0,0.0,0.0,0.0,0.0,0.0,0.0,0.0,0.00012966299372172777,5.8239275773822434e-05,0.05833265458079191,0.0,0.0,0.0,0.0,0.0,0.0,0.0,0.0,0.0,0.04486016677816267,-0.01289640107758979,-0.002264039323054746,0.0,0.0,0.0,0.0,0.0,0.0,0.0,0.0,0.0
6.432,187,6,428000000,base_footprint,-0.0038204165361183763,0.0005097270250340116,0.9909524225177337,0.13415826810929538,0.0,0.0,0.0,0.0,0.0,0.0,0.0,0.0,0.0,-0.0004933426164966598,1.7994760613120506e-05,0.05998393737600778,0.0,0.0,0.0,0.0,0.0,0.0,0.0,0.0,0.0,0.010907315564534156,0.00899431892099076,0.00047142530236479795,0.0,0.0,0.0,0.0,0.0,0.0,0.0,0.0,0.0
6.459,188,6,462000000,base_footprint,-0.003821104873552021,0.0005051323825545498,0.9910890846608127,0.13314492203991168,0.0,0.0,0.0,0.0,0.0,0.0,0.0,0.0,0.0,-0.0005023301402208478,5.4599194516156556e-05,0.05988326802967133,0.0,0.0,0.0,0.0,0.0,0.0,0.0,0.0,0.0,0.007811113675936532,0.010686298834126423,2.683628364595106e-06,0.0,0.0,0.0,0.0,0.0,0.0,0.0,0.0,0.0
6.499,189,6,496000000,base_footprint,-0.003822867521362398,0.0005083967030203178,0.9911678746688928,0.13255704975993043,0.0,0.0,0.0,0.0,0.0,0.0,0.0,0.0,0.0,2.9721618130262716e-05,-0.00017915695964338223,-0.010789949163648359,0.0,0.0,0.0,0.0,0.0,0.0,0.0,0.0,0.0,-0.44392931614596787,0.27093669093855294,-0.003393518609901649,0.0,0.0,0.0,0.0,0.0,0.0,0.0,0.0,0.0
6.53,190,6,530000000,base_footprint,-0.003819992047420783,0.0005009005895042168,0.9911460977897658,0.13271989148382077,0.0,0.0,0.0,0.0,0.0,0.0,0.0,0.0,0.0,-0.0006400752901157974,0.00022638977354029103,0.048721587469876676,0.0,0.0,0.0,0.0,0.0,0.0,0.0,0.0,0.0,0.1466426437273237,-0.0897140133900314,0.0005556772295275832,0.0,0.0,0.0,0.0,0.0,0.0,0.0,0.0,0.0
6.57,191,6,564000000,base_footprint,-0.003823059657943344,0.0004992812733980535,0.9912612725616433,0.1318568331658758,0.0,0.0,0.0,0.0,0.0,0.0,0.0,0.0,0.0,-0.0005457416627646517,9.361801695109875e-05,0.05061031106974139,0.0,0.0,0.0,0.0,0.0,0.0,0.0,0.0,0.0,0.017883195013039522,0.002105121506664277,0.0003840935201571646,0.0,0.0,0.0,0.0,0.0,0.0,0.0,0.0,0.0
6.599,192,6,598000000,base_footprint,-0.0038245884450566607,0.0004939821451996248,0.9914502941491741,0.13042792161336653,0.0,0.0,0.0,0.0,0.0,0.0,0.0,0.0,0.0,-0.0011629836744897002,0.0010655322259567096,0.0990903761809847,0.0,0.0,0.0,0.0,0.0,0.0,0.0,0.0,0.0,0.029701690307636256,0.0017601266780311754,-0.0012307234660224396,0.0,0.0,0.0,0.0,0.0,0.0,0.0,0.0,0.0
6.631,193,6,632000000,base_footprint,-0.0038204461839798,0.0004890052846699017,0.9917022972954314,0.12849793229367815,0.0,0.0,0.0,0.0,0.0,0.0,0.0,0.0,0.0,-0.0010256231238021016,-1.4539758111687296e-05,0.12115907181729924,0.0,0.0,0.0,0.0,0.0,0.0,0.0,0.0,0.0,-0.03788083123719082,0.04983723997860847,0.0013841412593255235,0.0,0.0,0.0,0.0,0.0,0.0,0.0,0.0,0.0
6.667,194,6,666000000,base_footprint,-0.0038250470243702227,0.0004800109669172526,0.9919576826061915,0.12651124267545175,0.0,0.0,0.0,0.0,0.0,0.0,0.0,0.0,0.0,-0.0009973444666454565,0.0004041107747322051,0.11843572894167184,0.0,0.0,0.0,0.0,0.0,0.0,0.0,0.0,0.0,0.019190366239605138,0.016929486635173654,-0.0004248013199413136,0.0,0.0,0.0,0.0,0.0,0.0,0.0,0.0,0.0
6.7,195,6,700000000,base_footprint,-0.003819674290735032,0.0004754422215536511,0.9922182644835014,0.12445119392097219,0.0,0.0,0.0,0.0,0.0,0.0,0.0,0.0,0.0,-0.0006886839725388449,-4.1951139359117106e-05,0.08735940599152289,0.0,0.0,0.0,0.0,0.0,0.0,0.0,0.0,0.0,0.29987879910346726,-0.13392961994686425,0.0030136087416480226,0.0,0.0,0.0,0.0,0.0,0.0,0.0,0.0,0.0
6.732,196,6,734000000,base_footprint,-0.0038262463875124,0.00046850850439316365,0.9923836997846356,0.12312486645727429,0.0,0.0,0.0,0.0,0.0,0.0,0.0,0.0,0.0,-0.0005873153768168606,1.810930235230495e-05,0.07859057232156362,0.0,0.0,0.0,0.0,0.0,0.0,0.0,0.0,0.0,0.02943176887343361,0.0035132563508071544,-7.4551021535476e-06,0.0,0.0,0.0,0.0,0.0,0.0,0.0,0.0,0.0
6.768,197,6,768000000,base_footprint,-0.0038270943595897916,0.00046414954099072256,0.9925463342675899,0.12180686452715314,0.0,0.0,0.0,0.0,0.0,0.0,0.0,0.0,0.0,-0.0005336930092768456,3.617306933241972e-05,0.07807237846020058,0.0,0.0,0.0,0.0,0.0,0.0,0.0,0.0,0.0,0.008293977684940442,0.01502439839762857,-6.224768441841948e-05,0.0,0.0,0.0,0.0,0.0,0.0,0.0,0.0,0.0
6.801,198,6,802000000,base_footprint,-0.003829095045443331,0.00045896436082780797,0.992755820809444,0.12008749989826442,0.0,0.0,0.0,0.0,0.0,0.0,0.0,0.0,0.0,-0.0005040045514258592,0.000143141465432465,0.10214963717365053,0.0,0.0,0.0,0.0,0.0,0.0,0.0,0.0,0.0,-0.0002725849302037068,0.025909550739814702,-0.0002537346173388805,0.0,0.0,0.0,0.0,0.0,0.0,0.0,0.0,0.0
6.836,199,6,836000000,base_footprint,-0.003825574625403699,0.00044837385743858114,0.99294558712391,0.11850833283285638,0.0,0.0,0.0,0.0,0.0,0.0,0.0,0.0,0.0,-0.001235479512197107,-0.0007707370599914679,0.08176474480098553,0.0,0.0,0.0,0.0,0.0,0.0,0.0,0.0,0.0,-0.027456152546502337,0.03698941519900655,0.001452095407740352,0.0,0.0,0.0,0.0,0.0,0.0,0.0,0.0,0.0
6.87,200,6,870000000,base_footprint,-0.0038246319393030097,0.00044108737670759144,0.9931159715487289,0.11707196371155336,0.0,0.0,0.0,0.0,0.0,0.0,0.0,0.0,0.0,-0.000690336339883268,-2.157753324937429e-05,0.0959514844032538,0.0,0.0,0.0,0.0,0.0,0.0,0.0,0.0,0.0,0.03558597229600452,0.0020997034228947,-0.0009406001677757437,0.0,0.0,0.0,0.0,0.0,0.0,0.0,0.0,0.0
6.9030000000000005,201,6,904000000,base_footprint,-0.0038286261024372374,0.00043938571541036884,0.9932529905166164,0.11590360387908268,0.0,0.0,0.0,0.0,0.0,0.0,0.0,0.0,0.0,-0.0004764485725948337,-4.6655235408540324e-05,0.06840235532775002,0.0,0.0,0.0,0.0,0.0,0.0,0.0,0.0,0.0,0.029483827287129654,0.0025306482635575134,0.00012890410107238763,0.0,0.0,0.0,0.0,0.0,0.0,0.0,0.0,0.0
6.938,202,6,938000000,base_footprint,-0.0038294195857511283,0.00043437521875559917,0.9933874233224843,0.11474569294104722,0.0,0.0,0.0,0.0,0.0,0.0,0.0,0.0,0.0,-0.0005554376374306404,3.1361254707533426e-05,0.06831554837847363,0.0,0.0,0.0,0.0,0.0,0.0,0.0,0.0,0.0,0.0077674426476099685,0.012907095732176101,-0.000129050463526614,0.0,0.0,0.0,0.0,0.0,0.0,0.0,0.0,0.0
6.972,203,6,972000000,base_footprint,-0.0038288415773190215,0.0004296030164566992,0.9935220124084136,0.11357449657982163,0.0,0.0,0.0,0.0,0.0,0.0,0.0,0.0,0.0,-0.0011897399833053664,-0.0020587833620114926,0.08704189481739302,0.0,0.0,0.0,0.0,0.0,0.0,0.0,0.0,0.0,0.00819340866090288,0.013013189967930439,0.004499415396433153,0.0,0.0,0.0,0.0,0.0,0.0,0.0,0.0,0.0
7.007,204,7,6000000,base_footprint,-0.003831614465002167,0.0004229915437622775,0.9936981506513018,0.11202287802466149,0.0,0.0,0.0,0.0,0.0,0.0,0.0,0.0,0.0,-0.0008006071383210743,0.00011465500110583075,0.0917571923598367,0.0,0.0,0.0,0.0,0.0,0.0,0.0,0.0,0.0,0.0028069949194003993,0.02051196535486018,-0.0044942965996903304,0.0,0.0,0.0,0.0,0.0,0.0,0.0,0.0,0.0
7.04,205,7,40000000,base_footprint,-0.0038328674266529562,0.00041671680015607305,0.9938724559335046,0.1104657268617843,0.0,0.0,0.0,0.0,0.0,0.0,0.0,0.0,0.0,-0.0008609455408902231,0.000125900340853174,0.09231669683805337,0.0,0.0,0.0,0.0,0.0,0.0,0.0,0.0,0.0,0.008086753060271786,0.018493625838129146,7.746855532318624e-06,0.0,0.0,0.0,0.0,0.0,0.0,0.0,0.0,0.0
7.073,206,7,74000000,base_footprint,-0.0038336654778478954,0.00041647706104357504,0.9940408326156162,0.10894013332429076,0.0,0.0,0.0,0.0,0.0,0.0,0.0,0.0,0.0,-0.0014817782925674163,-0.005545158167038778,0.06061670225442565,0.0,0.0,0.0,0.0,0.0,0.0,0.0,0.0,0.0,-0.03539578763699156,0.03868088782072708,0.0013979357144739662,0.0,0.0,0.0,0.0,0.0,0.0,0.0,0.0,0.0
7.113,207,7,108000000,base_footprint,-0.0038318968506740867,0.000414855980289701,0.9939025801636181,0.11019439915505796,0.0,0.0,0.0,0.0,0.0,0.0,0.0,0.0,0.0,0.001038103273037918,-0.000342587218986484,-0.13091393887603212,0.0,0.0,0.0,0.0,0.0,0.0,0.0,0.0,0.0,-0.34831113873438213,0.14912362744161922,-0.003971076592613662,0.0,0.0,0.0,0.0,0.0,0.0,0.0,0.0,0.0
7.143,208,7,142000000,base_footprint,-0.0038348725324626326,0.00041988413517026895,0.9937792003004154,0.11130147573253261,0.0,0.0,0.0,0.0,0.0,0.0,0.0,0.0,0.0,-4.1421691434841635e-05,0.00039022324815935584,0.009370378211086158,0.0,0.0,0.0,0.0,0.0,0.0,0.0,0.0,0.0,-0.07813892759110425,0.020826183087392168,-0.0014016879786041248,0.0,0.0,0.0,0.0,0.0,0.0,0.0,0.0,0.0
7.177,209,7,176000000,base_footprint,-0.0038333453119606055,0.0004163216733510777,0.9939258631930721,0.10998413801949071,0.0,0.0,0.0,0.0,0.0,0.0,0.0,0.0,0.0,-0.0009415933722944549,-0.0005835885987975141,0.10430083167829145,0.0,0.0,0.0,0.0,0.0,0.0,0.0,0.0,0.0,0.15041369512168484,-0.05454506468218615,0.002298686729690893,0.0,0.0,0.0,0.0,0.0,0.0,0.0,0.0,0.0
7.21,210,7,210000000,base_footprint,-0.0038332461911495344,0.0004106798021012375,0.9941174189874523,0.10823906333419772,0.0,0.0,0.0,0.0,0.0,0.0,0.0,0.0,0.0,-0.0007739491212865597,5.738654471981722e-05,0.10334763019970308,0.0,0.0,0.0,0.0,0.0,0.0,0.0,0.0,0.0,0.010596723062400193,0.01874506675007185,-0.0008354014660640706,0.0,0.0,0.0,0.0,0.0,0.0,0.0,0.0,0.0
7.244,211,7,244000000,base_footprint,-0.003834082822435128,0.00040478222681718365,0.9943052145305332,0.10650012355697028,0.0,0.0,0.0,0.0,0.0,0.0,0.0,0.0,0.0,-0.0007168673029721653,6.409070476898931e-05,0.10287801320896525,0.0,0.0,0.0,0.0,0.0,0.0,0.0,0.0,0.0,0.009005150497393012,0.0194002352814535,-3.5660631575955306e-05,0.0,0.0,0.0,0.0,0.0,0.0,0.0,0.0,0.0
7.2780000000000005,212,7,278000000,base_footprint,-0.003836269900236188,0.00039990816077049293,0.9944989002473126,0.10467597868470799,0.0,0.0,0.0,0.0,0.0,0.0,0.0,0.0,0.0,-0.002243337533166092,-0.0028762635534955545,0.13257096171934044,0.0,0.0,0.0,0.0,0.0,0.0,0.0,0.0,0.0,-0.027636509977321144,0.03610631756777042,0.003957495049381311,0.0,0.0,0.0,0.0,0.0,0.0,0.0,0.0,0.0
7.312,213,7,312000000,base_footprint,-0.00383178823982764,0.0003867686972901075,0.9947156428607338,0.1025960898719697,0.0,0.0,0.0,0.0,0.0,0.0,0.0,0.0,0.0,-0.0012557999416701055,-0.00047559120965849026,0.11190135453721843,0.0,0.0,0.0,0.0,0.0,0.0,0.0,0.0,0.0,-0.025689737488643605,0.04001545144310775,-0.0030823131521018443,0.0,0.0,0.0,0.0,0.0,0.0,0.0,0.0,0.0
7.345,214,7,346000000,base_footprint,-0.0038312871875279494,0.0003779386164681643,0.9949118798463688,0.10067536809693772,0.0,0.0,0.0,0.0,0.0,0.0,0.0,0.0,0.0,-0.0009395527067688933,-2.3007164025848532e-05,0.12265898663481475,0.0,0.0,0.0,0.0,0.0,0.0,0.0,0.0,0.0,0.030905764804001694,0.011602512733465473,-0.0007547426548441621,0.0,0.0,0.0,0.0,0.0,0.0,0.0,0.0,0.0
7.381,215,7,380000000,base_footprint,-0.003837334377820982,0.00037547709886287913,0.9951111802009026,0.0986857280511629,0.0,0.0,0.0,0.0,0.0,0.0,0.0,0.0,0.0,-0.0005681980937454171,-0.0006705126902404072,0.012760633404142192,0.0,0.0,0.0,0.0,0.0,0.0,0.0,0.0,0.0,0.10958434690949927,-0.018230860222813724,0.0016688416517717376,0.0,0.0,0.0,0.0,0.0,0.0,0.0,0.0,0.0
7.415,216,7,414000000,base_footprint,-0.0038320237495323524,0.0003708447303591314,0.9950960495045337,0.09883840512998791,0.0,0.0,0.0,0.0,0.0,0.0,0.0,0.0,0.0,-0.00011582389152547247,0.00010111020604157041,0.039926684824330295,0.0,0.0,0.0,0.0,0.0,0.0,0.0,0.0,0.0,0.059551852409604956,-0.027355683734120076,-0.0005730355898423026,0.0,0.0,0.0,0.0,0.0,0.0,0.0,0.0,0.0
7.448,217,7,448000000,base_footprint,-0.0038369225709358047,0.00036661117792420936,0.9952622719697634,0.0971501601388994,0.0,0.0,0.0,0.0,0.0,0.0,0.0,0.0,0.0,-0.0005928445779875081,0.0008915058036159994,0.14182330471894614,0.0,0.0,0.0,0.0,0.0,0.0,0.0,0.0,0.0,0.20621720679927266,-0.06321560557551448,0.00046137716577286696,0.0,0.0,0.0,0.0,0.0,0.0,0.0,0.0,0.0
7.482,218,7,482000000,base_footprint,-0.0038378565987026445,0.0003566197164248579,0.9954959769995596,0.09472541082939658,0.0,0.0,0.0,0.0,0.0,0.0,0.0,0.0,0.0,-0.0012173709077142577,7.496679637950145e-05,0.14603100638969999,0.0,0.0,0.0,0.0,0.0,0.0,0.0,0.0,0.0,0.011324327479209865,0.029274563715440398,0.0012132466312112164,0.0,0.0,0.0,0.0,0.0,0.0,0.0,0.0,0.0
7.516,219,7,516000000,base_footprint,-0.003839225605662664,0.0003467611045216448,0.9957285521955956,0.09224852544051011,0.0,0.0,0.0,0.0,0.0,0.0,0.0,0.0,0.0,-0.0012339351947115507,0.00013156965649000561,0.14635807015339403,0.0,0.0,0.0,0.0,0.0,0.0,0.0,0.0,0.0,0.011729778062325988,0.029753936478846867,-2.0069467372072373e-05,0.0,0.0,0.0,0.0,0.0,0.0,0.0,0.0,0.0
7.55,220,7,550000000,base_footprint,-0.0038406911637121595,0.00033700518700965296,0.9959555624073133,0.0897644318693176,0.0,0.0,0.0,0.0,0.0,0.0,0.0,0.0,0.0,-0.0012566463858029067,0.00015278591212996496,0.14689802440092473,0.0,0.0,0.0,0.0,0.0,0.0,0.0,0.0,0.0,0.010868340443221502,0.030170561203092888,-4.692542636323553e-05,0.0,0.0,0.0,0.0,0.0,0.0,0.0,0.0,0.0
7.584,221,7,584000000,base_footprint,-0.003839655141531118,0.00032930148863521535,0.9961932073386421,0.08708755514580124,0.0,0.0,0.0,0.0,0.0,0.0,0.0,0.0,0.0,-0.0016880511609555027,0.00046610696184158727,0.1798242460213336,0.0,0.0,0.0,0.0,0.0,0.0,0.0,0.0,0.0,0.020178194551895314,0.029681683221668635,-0.0005303288672612553,0.0,0.0,0.0,0.0,0.0,0.0,0.0,0.0,0.0
7.624,222,7,618000000,base_footprint,-0.0038440115837480074,0.00031525561200758536,0.9964601704394128,0.08397769297080955,0.0,0.0,0.0,0.0,0.0,0.0,0.0,0.0,0.0,-0.001511793714102995,0.00023281260501055125,0.18740411387162423,0.0,0.0,0.0,0.0,0.0,0.0,0.0,0.0,0.0,-0.004988235932659818,0.04386268025246349,0.00044183893807024383,0.0,0.0,0.0,0.0,0.0,0.0,0.0,0.0,0.0
7.651,223,7,652000000,base_footprint,-0.003844282370886868,0.00030406583603382215,0.9967248025377202,0.080776215825965,0.0,0.0,0.0,0.0,0.0,0.0,0.0,0.0,0.0,-0.001454858921232166,9.459375978242698e-05,0.18894220042530654,0.0,0.0,0.0,0.0,0.0,0.0,0.0,0.0,0.0,0.010132250519181544,0.040017058436746494,0.00020702672674084556,0.0,0.0,0.0,0.0,0.0,0.0,0.0,0.0,0.0
7.686,224,7,686000000,base_footprint,-0.003846498077365801,0.0002932749035875528,0.9969546578377619,0.07788792369785526,0.0,0.0,0.0,0.0,0.0,0.0,0.0,0.0,0.0,-0.001644404103940986,5.632769864958654e-05,0.1445732973886596,0.0,0.0,0.0,0.0,0.0,0.0,0.0,0.0,0.0,0.02587273457224449,0.03130138268531538,-6.61629442404195e-05,0.0,0.0,0.0,0.0,0.0,0.0,0.0,0.0,0.0
7.721,225,7,720000000,base_footprint,-0.003845651403032087,0.0002855968593876829,0.9971423348460914,0.07544728926479463,0.0,0.0,0.0,0.0,0.0,0.0,0.0,0.0,0.0,-0.0009686949561940241,9.867803999603755e-05,0.14360015385984168,0.0,0.0,0.0,0.0,0.0,0.0,0.0,0.0,0.0,0.004713428993720424,0.031540881702284716,5.5785827271100224e-05,0.0,0.0,0.0,0.0,0.0,0.0,0.0,0.0,0.0
7.754,226,7,754000000,base_footprint,-0.0038472716225717496,0.0002770656798669956,0.9973191030176067,0.07307344587350229,0.0,0.0,0.0,0.0,0.0,0.0,0.0,0.0,0.0,-0.0010913962160367906,9.47330009796801e-05,0.13142531126172677,0.0,0.0,0.0,0.0,0.0,0.0,0.0,0.0,0.0,-0.013650842697745367,0.03672160399639898,0.00013572462280295687,0.0,0.0,0.0,0.0,0.0,0.0,0.0,0.0,0.0
7.788,227,7,788000000,base_footprint,-0.003849114902512268,0.00026968331074319127,0.9974704951391351,0.0709769181654709,0.0,0.0,0.0,0.0,0.0,0.0,0.0,0.0,0.0,-0.00063402740459106,0.0007623048491008041,0.10398689386226154,0.0,0.0,0.0,0.0,0.0,0.0,0.0,0.0,0.0,-0.1351293393747549,0.06694403867788982,-0.002134396745938972,0.0,0.0,0.0,0.0,0.0,0.0,0.0,0.0,0.0
7.822,228,7,822000000,base_footprint,-0.003842481552264003,0.00026234115382745905,0.9975394153102904,0.07000201007859301,0.0,0.0,0.0,0.0,0.0,0.0,0.0,0.0,0.0,0.0008131606630007982,0.0014693023273559592,0.03841654903527215,0.0,0.0,0.0,0.0,0.0,0.0,0.0,0.0,0.0,-0.12812973370055658,0.0506951123421316,-0.0023114101386839535,0.0,0.0,0.0,0.0,0.0,0.0,0.0,0.0,0.0
7.856,229,7,856000000,base_footprint,-0.003844496928864006,0.0002605383707576468,0.9975834517194535,0.06937152743469092,0.0,0.0,0.0,0.0,0.0,0.0,0.0,0.0,0.0,-0.0002012936606561032,-0.00012195946742256137,0.03683099434583072,0.0,0.0,0.0,0.0,0.0,0.0,0.0,0.0,0.0,0.00047562045207974436,0.007991577239175247,0.002428251288969761,0.0,0.0,0.0,0.0,0.0,0.0,0.0,0.0,0.0
7.89,230,7,890000000,base_footprint,-0.0038447471169814197,0.00025796247533399263,0.9976247417138835,0.06877518517078052,0.0,0.0,0.0,0.0,0.0,0.0,0.0,0.0,0.0,-0.00021759583352842852,-0.00010912751287251178,0.033731865018341425,0.0,0.0,0.0,0.0,0.0,0.0,0.0,0.0,0.0,0.003954836993430399,0.006500344446891292,-3.4486765767170216e-05,0.0,0.0,0.0,0.0,0.0,0.0,0.0,0.0,0.0
7.924,231,7,924000000,base_footprint,-0.0038450613056206597,0.0002554322444579334,0.9976641033160475,0.06820181238435952,0.0,0.0,0.0,0.0,0.0,0.0,0.0,0.0,0.0,-0.0003439715510230648,-8.443648539052507e-05,0.0336156391185483,0.0,0.0,0.0,0.0,0.0,0.0,0.0,0.0,0.0,0.003066803905314528,0.006372724220125102,2.4825840066405775e-05,0.0,0.0,0.0,0.0,0.0,0.0,0.0,0.0,0.0
7.958,232,7,958000000,base_footprint,-0.003845626071153591,0.00025292402804061206,0.9977029841278352,0.06763063397580842,0.0,0.0,0.0,0.0,0.0,0.0,0.0,0.0,0.0,-0.0003618552873245946,-7.142029454075823e-05,0.033469950130752324,0.0,0.0,0.0,0.0,0.0,0.0,0.0,0.0,0.0,0.0031623818217486888,0.006410371644012153,-1.5530967262339654e-05,0.0,0.0,0.0,0.0,0.0,0.0,0.0,0.0,0.0
7.993,233,7,992000000,base_footprint,-0.0038443131927795096,0.00024795564194477366,0.9977703041935612,0.06663017217120151,0.0,0.0,0.0,0.0,0.0,0.0,0.0,0.0,0.0,-0.0010694457785456598,6.288221549408494e-05,0.127277091679075,0.0,0.0,0.0,0.0,0.0,0.0,0.0,0.0,0.0,0.2734583284920916,-0.06315788384408261,0.002043901467623143,0.0,0.0,0.0,0.0,0.0,0.0,0.0,0.0,0.0
8.026,234,8,26000000,base_footprint,-0.0038478342528947243,0.00023924912786140527,0.9979283029559807,0.06422023895014356,0.0,0.0,0.0,0.0,0.0,0.0,0.0,0.0,0.0,-0.0012418912305323386,5.56841690517948e-05,0.14261414799314207,0.0,0.0,0.0,0.0,0.0,0.0,0.0,0.0,0.0,0.03922171488987298,0.021545560673746703,0.000277358248730683,0.0,0.0,0.0,0.0,0.0,0.0,0.0,0.0,0.0
8.059,235,8,60000000,base_footprint,-0.0038491441930453224,0.00022974400204742946,0.9980814154768278,0.06179497865074842,0.0,0.0,0.0,0.0,0.0,0.0,0.0,0.0,0.0,-0.0012273884270355183,7.992038013680185e-05,0.14322024397992877,0.0,0.0,0.0,0.0,0.0,0.0,0.0,0.0,0.0,0.0069908624363966025,0.030414882411003517,-0.00012872829721633698,0.0,0.0,0.0,0.0,0.0,0.0,0.0,0.0,0.0
8.091,236,8,94000000,base_footprint,-0.003851174093383423,0.00021963312951835286,0.9982329362990014,0.0592969232529367,0.0,0.0,0.0,0.0,0.0,0.0,0.0,0.0,0.0,-0.0012673092186549122,0.000246437559611389,0.14975479437425324,0.0,0.0,0.0,0.0,0.0,0.0,0.0,0.0,0.0,0.007999692826714694,0.03167037575589669,-0.00030860570849825674,0.0,0.0,0.0,0.0,0.0,0.0,0.0,0.0,0.0
8.127,237,8,128000000,base_footprint,-0.0038483931958218,0.00021277808313590924,0.9983849261632441,0.05668054168152739,0.0,0.0,0.0,0.0,0.0,0.0,0.0,0.0,0.0,-0.0012366840553478765,0.000104263457155969,0.15302486698217266,0.0,0.0,0.0,0.0,0.0,0.0,0.0,0.0,0.0,-0.0007924183396765235,0.03460257494346804,0.0001212198929912854,0.0,0.0,0.0,0.0,0.0,0.0,0.0,0.0,0.0
8.162,238,8,162000000,base_footprint,-0.0038511710363313112,0.0002022545607943476,0.9985272991784337,0.05411432684755753,0.0,0.0,0.0,0.0,0.0,0.0,0.0,0.0,0.0,-0.0012297616839082792,0.0002883281131251116,0.15172781264680424,0.0,0.0,0.0,0.0,0.0,0.0,0.0,0.0,0.0,0.009920247810001597,0.03147175045272156,-0.0001382547690099095,0.0,0.0,0.0,0.0,0.0,0.0,0.0,0.0,0.0
8.195,239,8,196000000,base_footprint,-0.0038531953904845065,0.00019673550774570666,0.9986079928282725,0.052604095276999566,0.0,0.0,0.0,0.0,0.0,0.0,0.0,0.0,0.0,0.0006397992784667029,0.0013481308375001052,0.023025813264026782,0.0,0.0,0.0,0.0,0.0,0.0,0.0,0.0,0.0,0.022252202780776453,0.017432020808653616,-0.0023597904151878373,0.0,0.0,0.0,0.0,0.0,0.0,0.0,0.0,0.0
8.23,240,8,230000000,base_footprint,-0.003848976275107038,0.00019335289412032657,0.9986227379316737,0.052323754472897374,0.0,0.0,0.0,0.0,0.0,0.0,0.0,0.0,0.0,-0.0012464614609887425,-0.001263761313745697,0.004470944721760619,0.0,0.0,0.0,0.0,0.0,0.0,0.0,0.0,0.0,-0.03937864009211426,0.011212013428287902,0.004915957761241304,0.0,0.0,0.0,0.0,0.0,0.0,0.0,0.0,0.0
8.265,241,8,264000000,base_footprint,-0.0038455529921180872,0.00019117717210517766,0.9986266489455026,0.05224931759697848,0.0,0.0,0.0,0.0,0.0,0.0,0.0,0.0,0.0,-8.838969311505611e-05,-0.00020270724357805497,0.01226393127775434,0.0,0.0,0.0,0.0,0.0,0.0,0.0,0.0,0.0,0.017281996744937387,-0.002490243023919399,-0.0017129507656344408,0.0,0.0,0.0,0.0,0.0,0.0,0.0,0.0,0.0
8.3,242,8,298000000,base_footprint,-0.003848633562486135,0.0001931940855834984,0.9986398787952638,0.0519956072714596,0.0,0.0,0.0,0.0,0.0,0.0,0.0,0.0,0.0,0.00011171225695947065,9.376640370076558e-05,0.014984838078435833,0.0,0.0,0.0,0.0,0.0,0.0,0.0,0.0,0.0,0.03936951178547884,-0.005061233025673474,-0.00018205874509914219,0.0,0.0,0.0,0.0,0.0,0.0,0.0,0.0,0.0
8.332,243,8,332000000,base_footprint,-0.0038485415159287993,0.00019210499112964365,0.9986529747193419,0.05174348179318948,0.0,0.0,0.0,0.0,0.0,0.0,0.0,0.0,0.0,-2.358576852643791e-05,-0.00014510192792586252,0.014688034342995945,0.0,0.0,0.0,0.0,0.0,0.0,0.0,0.0,0.0,0.001481956642959835,0.0029814484350206014,0.00036241107335782723,0.0,0.0,0.0,0.0,0.0,0.0,0.0,0.0,0.0
8.366,244,8,366000000,base_footprint,-0.0038485014745749005,0.0001909197386180522,0.9986658996656181,0.05149343095109419,0.0,0.0,0.0,0.0,0.0,0.0,0.0,0.0,0.0,-3.964362187412396e-05,-0.0001464270499411493,0.014564323275832323,0.0,0.0,0.0,0.0,0.0,0.0,0.0,0.0,0.0,0.0019312906197181852,0.002888141398654832,1.733338500137035e-05,0.0,0.0,0.0,0.0,0.0,0.0,0.0,0.0,0.0
8.4,245,8,400000000,base_footprint,-0.0038487615937661352,0.0001892664283091476,0.9986846084643055,0.051129287389033065,0.0,0.0,0.0,0.0,0.0,0.0,0.0,0.0,0.0,-0.0001572564628959854,-0.00015768795818709103,0.02220423625435093,0.0,0.0,0.0,0.0,0.0,0.0,0.0,0.0,0.0,0.0002694905190956919,0.004648872576567289,4.8830403597759636e-05,0.0,0.0,0.0,0.0,0.0,0.0,0.0,0.0,0.0
8.434,246,8,434000000,base_footprint,-0.0038492953338696264,0.00018754061500849396,0.9987038980039454,0.05075107748290366,0.0,0.0,0.0,0.0,0.0,0.0,0.0,0.0,0.0,-0.0002570591762226412,-9.763763872585536e-05,0.02211566683630321,0.0,0.0,0.0,0.0,0.0,0.0,0.0,0.0,0.0,0.002266371275258881,0.004530401072181949,-0.00013372753493399078,0.0,0.0,0.0,0.0,0.0,0.0,0.0,0.0,0.0
8.468,247,8,468000000,base_footprint,-0.003850040529272461,0.00018577950999961867,0.9987229631989207,0.0503744523847562,0.0,0.0,0.0,0.0,0.0,0.0,0.0,0.0,0.0,-0.00027441591562646996,-9.833217221602255e-05,0.022005814713787496,0.0,0.0,0.0,0.0,0.0,0.0,0.0,0.0,0.0,0.00231107661706549,0.004380878493043966,-3.070226008733651e-05,0.0,0.0,0.0,0.0,0.0,0.0,0.0,0.0,0.0
8.502,248,8,502000000,base_footprint,-0.003851170124828437,0.00018249287870311307,0.9987605067967172,0.049624442044052884,0.0,0.0,0.0,0.0,0.0,0.0,0.0,0.0,0.0,-0.00046283201806107796,-6.75542350178906e-05,0.046081725364822725,0.0,0.0,0.0,0.0,0.0,0.0,0.0,0.0,0.0,-0.004364979042464462,0.010552776529091895,-0.00016690717673104854,0.0,0.0,0.0,0.0,0.0,0.0,0.0,0.0,0.0
8.536,249,8,536000000,base_footprint,-0.003851737899166911,0.00017962857535682106,0.9987991728212996,0.04883998587447284,0.0,0.0,0.0,0.0,0.0,0.0,0.0,0.0,0.0,-0.00039660411017899315,-7.780517210164025e-05,0.0457790523456164,0.0,0.0,0.0,0.0,0.0,0.0,0.0,0.0,0.0,0.003683568124963888,0.009977657363209503,-4.0415201296412975e-05,0.0,0.0,0.0,0.0,0.0,0.0,0.0,0.0,0.0
8.57,250,8,570000000,base_footprint,-0.0038529418037817295,0.0001771166549602967,0.9988362049704069,0.04807659627575933,0.0,0.0,0.0,0.0,0.0,0.0,0.0,0.0,0.0,-0.00043851706583966513,7.073314099507159e-05,0.04519280236180277,0.0,0.0,0.0,0.0,0.0,0.0,0.0,0.0,0.0,0.004001169967011201,0.009542295907015625,-0.00025864746156983523,0.0,0.0,0.0,0.0,0.0,0.0,0.0,0.0,0.0
8.604,251,8,604000000,base_footprint,-0.003855324193118238,0.0001772887130316107,0.998818441321775,0.04844405350110798,0.0,0.0,0.0,0.0,0.0,0.0,0.0,0.0,0.0,0.0003426260187319068,-0.00017908905622751424,-0.027603206141258853,0.0,0.0,0.0,0.0,0.0,0.0,0.0,0.0,0.0,-0.20646243286292493,0.03560055420689413,-0.0010300035853889038,0.0,0.0,0.0,0.0,0.0,0.0,0.0,0.0,0.0
8.637,252,8,638000000,base_footprint,-0.003849450687732029,0.00018176309345421132,0.9988224121753551,0.04836256432185785,0.0,0.0,0.0,0.0,0.0,0.0,0.0,0.0,0.0,0.00014606194209982432,-0.0002891217133923621,0.024368120455833243,0.0,0.0,0.0,0.0,0.0,0.0,0.0,0.0,0.0,-0.13952431377357585,0.028443233490203383,-0.0012529712067013224,0.0,0.0,0.0,0.0,0.0,0.0,0.0,0.0,0.0
8.673,253,8,672000000,base_footprint,-0.003855405791871436,0.0001788885170765877,0.9988408637539279,0.04797950333617329,0.0,0.0,0.0,0.0,0.0,0.0,0.0,0.0,0.0,-0.0002576869553995693,0.001993025111656344,0.028029281630725104,0.0,0.0,0.0,0.0,0.0,0.0,0.0,0.0,0.0,-0.006543661361712126,0.005589754302688787,-0.003011394422347918,0.0,0.0,0.0,0.0,0.0,0.0,0.0,0.0,0.0
8.704,254,8,706000000,base_footprint,-0.003848226488943131,0.00017408058361547955,0.998859227131777,0.04759627320021509,0.0,0.0,0.0,0.0,0.0,0.0,0.0,0.0,0.0,-0.001143794530105954,-0.0011821092440012283,0.010892769056401469,0.0,0.0,0.0,0.0,0.0,0.0,0.0,0.0,0.0,-0.04356932401679436,0.01347887133871687,0.004790931360686136,0.0,0.0,0.0,0.0,0.0,0.0,0.0,0.0,0.0
8.735,255,8,740000000,base_footprint,-0.003846505099788209,0.00017242312519342634,0.9988688825472263,0.04739335552204254,0.0,0.0,0.0,0.0,0.0,0.0,0.0,0.0,0.0,-0.00017420012743211679,-0.00018174961657787996,0.02069730481644056,0.0,0.0,0.0,0.0,0.0,0.0,0.0,0.0,0.0,0.022029582187615165,-0.0016402358186404682,-0.0017404320614760338,0.0,0.0,0.0,0.0,0.0,0.0,0.0,0.0,0.0
8.774000000000001,256,8,774000000,base_footprint,-0.0038407442746642233,0.0001727500658629972,0.9988945851967722,0.04684897550000141,0.0,0.0,0.0,0.0,0.0,0.0,0.0,0.0,0.0,-0.0011493735059378378,-0.00363963541906695,0.016405628943209828,0.0,0.0,0.0,0.0,0.0,0.0,0.0,0.0,0.0,0.10012181862267615,-0.011952845591701709,0.005061126957678745,0.0,0.0,0.0,0.0,0.0,0.0,0.0,0.0,0.0
8.808,257,8,808000000,base_footprint,-0.003851475466872592,0.0001725840385668573,0.9988715024559522,0.047337700967268206,0.0,0.0,0.0,0.0,0.0,0.0,0.0,0.0,0.0,0.001056069433886212,0.002152490587116432,0.029610371076069602,0.0,0.0,0.0,0.0,0.0,0.0,0.0,0.0,0.0,0.289375746733017,-0.06215738382562927,-0.006149752982579823,0.0,0.0,0.0,0.0,0.0,0.0,0.0,0.0,0.0
8.841,258,8,842000000,base_footprint,-0.003849361353028393,0.0001725397480287281,0.9989002963770481,0.046726336739087236,0.0,0.0,0.0,0.0,0.0,0.0,0.0,0.0,0.0,-0.00018965191071868828,-0.00013053957246776082,0.03586901316203894,0.0,0.0,0.0,0.0,0.0,0.0,0.0,0.0,0.0,-0.017229404853291042,0.011286363020004065,0.0039124421966597695,0.0,0.0,0.0,0.0,0.0,0.0,0.0,0.0,0.0
8.875,259,8,876000000,base_footprint,-0.0038495417037627006,0.00017009196891884978,0.9989274808399986,0.046141522732215015,0.0,0.0,0.0,0.0,0.0,0.0,0.0,0.0,0.0,-0.0002823463295310828,-0.0003509725865764715,0.027011739155970698,0.0,0.0,0.0,0.0,0.0,0.0,0.0,0.0,0.0,0.005050548301823736,0.006879162981474921,0.00027842496431236226,0.0,0.0,0.0,0.0,0.0,0.0,0.0,0.0,0.0
8.909,260,8,910000000,base_footprint,-0.003850044988959575,0.00016803887727439112,0.9989487007548092,0.04567977864216561,0.0,0.0,0.0,0.0,0.0,0.0,0.0,0.0,0.0,-0.0002835651771697663,-9.062377258807094e-05,0.027056953285049576,0.0,0.0,0.0,0.0,0.0,0.0,0.0,0.0,0.0,0.0022517457631500686,0.005599136623878255,-0.0003427809761226824,0.0,0.0,0.0,0.0,0.0,0.0,0.0,0.0,0.0
8.944,261,8,944000000,base_footprint,-0.0038508397775501146,0.00016596524748641335,0.9989696163985682,0.04522000664575489,0.0,0.0,0.0,0.0,0.0,0.0,0.0,0.0,0.0,-0.00030817121680464806,-8.278726754511892e-05,0.0269444448786194,0.0,0.0,0.0,0.0,0.0,0.0,0.0,0.0,0.0,0.0024158309084422094,0.005571846010403834,-4.3254487694830364e-05,0.0,0.0,0.0,0.0,0.0,0.0,0.0,0.0,0.0
8.977,262,8,978000000,base_footprint,-0.00385172863305887,0.00016373795771528661,0.9989915957072913,0.04473174580337859,0.0,0.0,0.0,0.0,0.0,0.0,0.0,0.0,0.0,-0.00046278524689807063,0.00024283433241757492,0.03479447042280722,0.0,0.0,0.0,0.0,0.0,0.0,0.0,0.0,0.0,-0.0012721098195581902,0.006369150557672005,-0.0006481106728062199,0.0,0.0,0.0,0.0,0.0,0.0,0.0,0.0,0.0
9.012,263,9,12000000,base_footprint,-0.0038522429120157213,0.00016163253015911337,0.9990176574932464,0.04414582784565954,0.0,0.0,0.0,0.0,0.0,0.0,0.0,0.0,0.0,-0.0003175556512893194,-8.333339738696044e-05,0.03415272667492861,0.0,0.0,0.0,0.0,0.0,0.0,0.0,0.0,0.0,0.003999416510771462,0.007205471593220425,0.0005071447451371613,0.0,0.0,0.0,0.0,0.0,0.0,0.0,0.0,0.0
9.046,264,9,46000000,base_footprint,-0.003853307677668324,0.00015992871625280616,0.9990428989501715,0.043570775756054406,0.0,0.0,0.0,0.0,0.0,0.0,0.0,0.0,0.0,-0.0003399928662241226,3.4909812461892286e-05,0.03416625617397449,0.0,0.0,0.0,0.0,0.0,0.0,0.0,0.0,0.0,0.001959333936978869,0.007912314453407234,-0.0002469957895715253,0.0,0.0,0.0,0.0,0.0,0.0,0.0,0.0,0.0
9.08,265,9,80000000,base_footprint,-0.003853827782549015,0.00015832009834006096,0.999069281027475,0.0429615485453325,0.0,0.0,0.0,0.0,0.0,0.0,0.0,0.0,0.0,-0.00020568481441854593,-0.0002633921441446974,0.03878210018216666,0.0,0.0,0.0,0.0,0.0,0.0,0.0,0.0,0.0,-0.011171730587501792,0.009365503303093803,0.0004519285696226119,0.0,0.0,0.0,0.0,0.0,0.0,0.0,0.0,0.0
9.115,266,9,114000000,base_footprint,-0.0038541515639363188,0.00015659449088295416,0.999095809561154,0.042340102872220425,0.0,0.0,0.0,0.0,0.0,0.0,0.0,0.0,0.0,-0.00012816427787581917,-0.0002511883293651139,0.036852969402321266,0.0,0.0,0.0,0.0,0.0,0.0,0.0,0.0,0.0,0.004417432044813756,0.007309886313105907,-4.642213482328885e-05,0.0,0.0,0.0,0.0,0.0,0.0,0.0,0.0,0.0
9.146,267,9,148000000,base_footprint,-0.003855023926220289,0.0001557307155198192,0.9991211776431037,0.041737116856944305,0.0,0.0,0.0,0.0,0.0,0.0,0.0,0.0,0.0,-0.00010146466598734316,9.281336472079062e-05,0.03370867948513997,0.0,0.0,0.0,0.0,0.0,0.0,0.0,0.0,0.0,-0.0034341590518978332,0.00931073653492952,-0.0005694783863465636,0.0,0.0,0.0,0.0,0.0,0.0,0.0,0.0,0.0
9.19,268,9,182000000,base_footprint,-0.003849326991914978,0.00014974868003518604,0.9991355870709099,0.04139129021316483,0.0,0.0,0.0,0.0,0.0,0.0,0.0,0.0,0.0,-0.0005153148669810995,-0.0003720876965283174,0.007810812726884561,0.0,0.0,0.0,0.0,0.0,0.0,0.0,0.0,0.0,-0.036335167235909495,0.010393241896882646,0.0007449653781132089,0.0,0.0,0.0,0.0,0.0,0.0,0.0,0.0,0.0
9.219,269,9,216000000,base_footprint,-0.003847930242683979,0.00014896648219838265,0.9991457318504549,0.0411458110486824,0.0,0.0,0.0,0.0,0.0,0.0,0.0,0.0,0.0,0.000454297196104235,0.00020365413189396846,0.027166144615152675,0.0,0.0,0.0,0.0,0.0,0.0,0.0,0.0,0.0,0.04043486183862638,-0.004089928098400088,-0.0009198374570461502,0.0,0.0,0.0,0.0,0.0,0.0,0.0,0.0,0.0
9.252,270,9,250000000,base_footprint,-0.003850892408198072,0.00014955349274792137,0.99916560350838,0.040660115926396755,0.0,0.0,0.0,0.0,0.0,0.0,0.0,0.0,0.0,-0.0001425232757126056,-0.00021973739087843754,0.028230812515972453,0.0,0.0,0.0,0.0,0.0,0.0,0.0,0.0,0.0,0.0049491941367798015,0.005654446761572058,0.0009665869509635604,0.0,0.0,0.0,0.0,0.0,0.0,0.0,0.0,0.0
9.284,271,9,284000000,base_footprint,-0.0038537060182915984,0.00015012587439084185,0.9991811317429343,0.04027644945939615,0.0,0.0,0.0,0.0,0.0,0.0,0.0,0.0,0.0,0.0002828716970136835,0.0010269916324702967,-0.020614408627851175,0.0,0.0,0.0,0.0,0.0,0.0,0.0,0.0,0.0,-0.2282700388167445,0.042718448739427324,-0.003045159404723031,0.0,0.0,0.0,0.0,0.0,0.0,0.0,0.0,0.0
9.318,272,9,318000000,base_footprint,-0.0038486258094315015,0.00014807906806667883,0.9991749327885378,0.04043043209007236,0.0,0.0,0.0,0.0,0.0,0.0,0.0,0.0,0.0,5.762367396326337e-07,0.00020256584757275667,0.022848440333619574,0.0,0.0,0.0,0.0,0.0,0.0,0.0,0.0,0.0,-0.10397455797281284,0.014522989744967053,7.409175259816378e-05,0.0,0.0,0.0,0.0,0.0,0.0,0.0,0.0,0.0
9.354,273,9,352000000,base_footprint,-0.00385049220756554,0.0001466755193885948,0.9991905722955955,0.04004188346783872,0.0,0.0,0.0,0.0,0.0,0.0,0.0,0.0,0.0,-0.00013653607713205292,-0.00012875903666898652,0.022702600283321692,0.0,0.0,0.0,0.0,0.0,0.0,0.0,0.0,0.0,0.0024787032034842625,0.004305885464756809,0.00035457197442595624,0.0,0.0,0.0,0.0,0.0,0.0,0.0,0.0,0.0
9.385,274,9,386000000,base_footprint,-0.003850835359722197,0.00014457199047476289,0.9992100542710736,0.03955271937010278,0.0,0.0,0.0,0.0,0.0,0.0,0.0,0.0,0.0,-0.0003471912517652416,-0.00018059461180673978,0.035547101330706474,0.0,0.0,0.0,0.0,0.0,0.0,0.0,0.0,0.0,-0.0012545896229641791,0.006141070144920059,9.544061664795393e-06,0.0,0.0,0.0,0.0,0.0,0.0,0.0,0.0,0.0
9.421,275,9,420000000,base_footprint,-0.003851599631674915,0.00014204705122580587,0.9992337922861098,0.038948342152551746,0.0,0.0,0.0,0.0,0.0,0.0,0.0,0.0,0.0,-0.00036232579748299044,-9.27780230834363e-05,0.03544174728413058,0.0,0.0,0.0,0.0,0.0,0.0,0.0,0.0,0.0,0.002478740710832331,0.007095298814910652,-0.0001719217717931263,0.0,0.0,0.0,0.0,0.0,0.0,0.0,0.0,0.0
9.454,276,9,454000000,base_footprint,-0.00385266311444004,0.00013933315279038525,0.9992571180997696,0.03834513659047967,0.0,0.0,0.0,0.0,0.0,0.0,0.0,0.0,0.0,-0.00036521711762875476,-7.671615990709499e-05,0.035538990609188165,0.0,0.0,0.0,0.0,0.0,0.0,0.0,0.0,0.0,0.0017902643085374063,0.007120323030778562,-0.00010919586512626788,0.0,0.0,0.0,0.0,0.0,0.0,0.0,0.0,0.0
9.488,277,9,488000000,base_footprint,-0.003853644392910502,0.0001347392683217124,0.9992842733329137,0.03763073663553961,0.0,0.0,0.0,0.0,0.0,0.0,0.0,0.0,0.0,-7.396973947077881e-05,0.00021482384833330868,0.041846004623369376,0.0,0.0,0.0,0.0,0.0,0.0,0.0,0.0,0.0,0.22168026125457474,-0.025136368788213244,0.0015560339732267256,0.0,0.0,0.0,0.0,0.0,0.0,0.0,0.0,0.0
9.522,278,9,522000000,base_footprint,-0.0038533163265256592,0.00013630376928929153,0.9992989651038232,0.03723857834287347,0.0,0.0,0.0,0.0,0.0,0.0,0.0,0.0,0.0,-0.0003853125066275623,0.00014924626466720155,0.026856574816460057,0.0,0.0,0.0,0.0,0.0,0.0,0.0,0.0,0.0,0.12049907537819554,-0.011734589232615415,0.00041903602779585266,0.0,0.0,0.0,0.0,0.0,0.0,0.0,0.0,0.0
9.556000000000001,279,9,556000000,base_footprint,-0.0038550021602974365,0.00013416752542553392,0.9993174102466253,0.03674009438470808,0.0,0.0,0.0,0.0,0.0,0.0,0.0,0.0,0.0,-0.00018699289131137613,-0.00019534837370445603,0.03138490356189809,0.0,0.0,0.0,0.0,0.0,0.0,0.0,0.0,0.0,-0.011485126025106328,0.0072765940405418676,0.000669155200195582,0.0,0.0,0.0,0.0,0.0,0.0,0.0,0.0,0.0
9.589,280,9,590000000,base_footprint,-0.003859103319480016,0.00012978051966527508,0.9993530299658724,0.03575768416182252,0.0,0.0,0.0,0.0,0.0,0.0,0.0,0.0,0.0,-0.0013573993955427201,-3.885143243008527e-05,0.11823214308967345,0.0,0.0,0.0,0.0,0.0,0.0,0.0,0.0,0.0,-0.011676489348306058,0.013512085562822374,0.0007295716865494435,0.0,0.0,0.0,0.0,0.0,0.0,0.0,0.0,0.0
9.627,281,9,624000000,base_footprint,-0.0038556176569584212,0.00012489932647830927,0.9994224440371676,0.033762360216907226,0.0,0.0,0.0,0.0,0.0,0.0,0.0,0.0,0.0,-0.0007861281801522775,0.00017346260534469523,0.11569265996679337,0.0,0.0,0.0,0.0,0.0,0.0,0.0,0.0,0.0,-0.003508129823316921,0.027387387093174877,-0.0013582827742242654,0.0,0.0,0.0,0.0,0.0,0.0,0.0,0.0,0.0
9.658,282,9,658000000,base_footprint,-0.0038497035812666957,0.00011332658570133341,0.9994804247709155,0.032000741228477,0.0,0.0,0.0,0.0,0.0,0.0,0.0,0.0,0.0,-0.0009025026954525685,-7.751926326990158e-05,0.09437252987814473,0.0,0.0,0.0,0.0,0.0,0.0,0.0,0.0,0.0,-0.04079671268814304,0.028034026010690247,0.00034389405756838655,0.0,0.0,0.0,0.0,0.0,0.0,0.0,0.0,0.0
9.691,283,9,692000000,base_footprint,-0.003849653726813999,0.00010425236521020858,0.9995523769215652,0.02966841903569246,0.0,0.0,0.0,0.0,0.0,0.0,0.0,0.0,0.0,-0.0015023988278637479,0.0007578094989764621,0.18264266462508658,0.0,0.0,0.0,0.0,0.0,0.0,0.0,0.0,0.0,-0.05643695829245481,0.03557399970719697,-0.0018616015066018916,0.0,0.0,0.0,0.0,0.0,0.0,0.0,0.0,0.0
9.727,284,9,726000000,base_footprint,-0.0038528084475207224,9.340423394624127e-05,0.9996513352443324,0.026121927320533325,0.0,0.0,0.0,0.0,0.0,0.0,0.0,0.0,0.0,-0.0016664889033523587,-0.0005646925153354337,0.2200449980450825,0.0,0.0,0.0,0.0,0.0,0.0,0.0,0.0,0.0,0.08193952514257678,0.03603665874292555,0.00260572451440152,0.0,0.0,0.0,0.0,0.0,0.0,0.0,0.0,0.0
9.76,285,9,760000000,base_footprint,-0.0038522734083454835,7.886059836687128e-05,0.9997421377764216,0.022378823133129194,0.0,0.0,0.0,0.0,0.0,0.0,0.0,0.0,0.0,-0.0015985546698869457,-8.532696394926122e-05,0.22019057920334476,0.0,0.0,0.0,0.0,0.0,0.0,0.0,0.0,0.0,0.006367675324619364,0.04761605794348077,-0.0005410201250910809,0.0,0.0,0.0,0.0,0.0,0.0,0.0,0.0,0.0
9.794,286,9,794000000,base_footprint,-0.003856882128062426,7.357437115790393e-05,0.9997808233519755,0.020577276416192964,0.0,0.0,0.0,0.0,0.0,0.0,0.0,0.0,0.0,0.00026293496516184686,-0.00043695142248509366,-0.04055797697835426,0.0,0.0,0.0,0.0,0.0,0.0,0.0,0.0,0.0,-0.17493149535446065,0.040545877207394394,-0.0009455980931917399,0.0,0.0,0.0,0.0,0.0,0.0,0.0,0.0,0.0
9.828,287,9,828000000,base_footprint,-0.0038522132236785468,6.671077167036765e-05,0.999806885030292,0.01927040863544088,0.0,0.0,0.0,0.0,0.0,0.0,0.0,0.0,0.0,-0.0017602309226962827,-0.0013541185945551307,0.2086566856410614,0.0,0.0,0.0,0.0,0.0,0.0,0.0,0.0,0.0,-0.1554338776962363,0.025440804421428646,-5.9820793440002644e-05,0.0,0.0,0.0,0.0,0.0,0.0,0.0,0.0,0.0
9.862,288,9,862000000,base_footprint,-0.00385286061860393,5.30299747827868e-05,0.9998689237810771,0.015725390607113258,0.0,0.0,0.0,0.0,0.0,0.0,0.0,0.0,0.0,-0.001589979173771826,-9.51537917266096e-05,0.20836186551483932,0.0,0.0,0.0,0.0,0.0,0.0,0.0,0.0,0.0,0.003952589601442698,0.04302310200217465,-0.0015482704381251575,0.0,0.0,0.0,0.0,0.0,0.0,0.0,0.0,0.0
9.895,289,9,896000000,base_footprint,-0.0038537203942212088,3.9858796771744255e-05,0.9999166510796794,0.012322262129909532,0.0,0.0,0.0,0.0,0.0,0.0,0.0,0.0,0.0,-0.0016980618872732864,-0.0004166053519403485,0.19577276400096003,0.0,0.0,0.0,0.0,0.0,0.0,0.0,0.0,0.0,0.3464109811351662,0.02442783859601997,0.002775267369763159,0.0,0.0,0.0,0.0,0.0,0.0,0.0,0.0,0.0
9.93,290,9,930000000,base_footprint,-0.0038544832878280155,2.693933836180677e-05,0.9999520191986593,0.009005638976785938,0.0,0.0,0.0,0.0,0.0,0.0,0.0,0.0,0.0,-0.001526663218851192,-6.633150386182974e-05,0.1948519900942594,0.0,0.0,0.0,0.0,0.0,0.0,0.0,0.0,0.0,0.003836396989847793,0.04249584624726289,-0.00038104474088598817,0.0,0.0,0.0,0.0,0.0,0.0,0.0,0.0,0.0
9.964,291,9,964000000,base_footprint,-0.0038555805347388044,1.4108095071803025e-05,0.9999763721613989,0.005691170233723366,0.0,0.0,0.0,0.0,0.0,0.0,0.0,0.0,0.0,-0.0015259636255690974,-6.886445056917935e-05,0.19509404433517383,0.0,0.0,0.0,0.0,0.0,0.0,0.0,0.0,0.0,0.001642132886788952,0.042502748478864316,-6.161341243617802e-05,0.0,0.0,0.0,0.0,0.0,0.0,0.0,0.0,0.0
9.995000000000001,292,9,998000000,base_footprint,-0.0038530998004785576,6.366302719552084e-06,0.9999887711981154,0.0027588147964897843,0.0,0.0,0.0,0.0,0.0,0.0,0.0,0.0,0.0,-0.002173440175892045,0.0005644834680287262,0.16944369683035507,0.0,0.0,0.0,0.0,0.0,0.0,0.0,0.0,0.0,-0.3286639614358221,0.04184345731640473,-0.004749404321991213,0.0,0.0,0.0,0.0,0.0,0.0,0.0,0.0,0.0
10.032,293,10,32000000,base_footprint,-0.003857272410063424,-7.751801484093406e-06,0.9999925488006183,-0.00015405423488911647,0.0,0.0,0.0,0.0,0.0,0.0,0.0,0.0,0.0,-0.0013576887135532457,2.370485813567674e-05,0.1708155801389805,0.0,0.0,0.0,0.0,0.0,0.0,0.0,0.0,0.0,-0.0061102535098580355,0.03555818146979867,0.0018269582315214247,0.0,0.0,0.0,0.0,0.0,0.0,0.0,0.0,0.0
10.068,294,10,66000000,base_footprint,-0.0038596295292473988,-1.933331505820235e-05,0.9999878655457699,-0.003061314641666095,0.0,0.0,0.0,0.0,0.0,0.0,0.0,0.0,0.0,-0.0012161332594885028,-3.250082040855525e-05,0.17248848372707012,0.0,0.0,0.0,0.0,0.0,0.0,0.0,0.0,0.0,-0.008926581243403097,0.0345985059095286,0.0001172666884565894,0.0,0.0,0.0,0.0,0.0,0.0,0.0,0.0,0.0
10.101,295,10,100000000,base_footprint,-0.0038450435795846756,-2.816247835063486e-05,0.9999766385415924,-0.005651302310406303,0.0,0.0,0.0,0.0,0.0,0.0,0.0,0.0,0.0,-0.0006175464029851839,-0.0005864894337458598,0.11572458906850071,0.0,0.0,0.0,0.0,0.0,0.0,0.0,0.0,0.0,0.0356154869836355,0.03548767245549806,0.0014324293679472712,0.0,0.0,0.0,0.0,0.0,0.0,0.0,0.0,0.0
10.126,296,10,134000000,base_footprint,-0.0038515301089215906,-3.724525877595331e-05,0.9999687987909833,-0.0068967944096441774,0.0,0.0,0.0,0.0,0.0,0.0,0.0,0.0,0.0,-0.0012755384006849343,0.0015356734356606315,0.047568273402687704,0.0,0.0,0.0,0.0,0.0,0.0,0.0,0.0,0.0,0.1456695073818292,0.018217805219233458,-0.0025141471992543565,0.0,0.0,0.0,0.0,0.0,0.0,0.0,0.0,0.0
10.168,297,10,168000000,base_footprint,-0.0038502918493556557,-4.194524087025246e-05,0.9999592517657435,-0.008165065913154041,0.0,0.0,0.0,0.0,0.0,0.0,0.0,0.0,0.0,-0.0008086482688631815,-0.00014922363956542924,0.10437321121193324,0.0,0.0,0.0,0.0,0.0,0.0,0.0,0.0,0.0,0.10851954172065864,0.018458548091611213,0.0036991376961721155,0.0,0.0,0.0,0.0,0.0,0.0,0.0,0.0,0.0
10.202,298,10,202000000,base_footprint,-0.0038538025189611773,-4.6882552810723565e-05,0.9999415024692314,-0.010106317219788948,0.0,0.0,0.0,0.0,0.0,0.0,0.0,0.0,0.0,-0.0008684084305099111,-2.3727603013536435e-05,0.11615904213809652,0.0,0.0,0.0,0.0,0.0,0.0,0.0,0.0,0.0,0.06411954424570558,0.02721307024090438,0.00030177257055064987,0.0,0.0,0.0,0.0,0.0,0.0,0.0,0.0,0.0
10.236,299,10,236000000,base_footprint,-0.0038529552581450487,-5.435481939181061e-05,0.9999196024980361,-0.012080576207358898,0.0,0.0,0.0,0.0,0.0,0.0,0.0,0.0,0.0,-0.0007833089027146487,-0.00015470686184299918,0.1161256355228109,0.0,0.0,0.0,0.0,0.0,0.0,0.0,0.0,0.0,-0.00022866067603260056,0.025440231211250462,0.0003410200082663596,0.0,0.0,0.0,0.0,0.0,0.0,0.0,0.0,0.0
10.27,300,10,270000000,base_footprint,-0.0038525438468226263,-6.180653880874595e-05,0.9998938147151694,-0.014053945360884378,0.0,0.0,0.0,0.0,0.0,0.0,0.0,0.0,0.0,-0.0007842251454403957,-0.0001626151267206128,0.11605951644230374,0.0,0.0,0.0,0.0,0.0,0.0,0.0,0.0,0.0,-0.00012635492114367391,0.025441367160661567,2.7084124868288185e-05,0.0,0.0,0.0,0.0,0.0,0.0,0.0,0.0,0.0
10.304,301,10,304000000,base_footprint,-0.0038523009725548733,-6.826135293656e-05,0.9998683396008948,-0.015762568996023397,0.0,0.0,0.0,0.0,0.0,0.0,0.0,0.0,0.0,-0.0007044992293968834,-0.00018023090587798005,0.1006567340206382,0.0,0.0,0.0,0.0,0.0,0.0,0.0,0.0,0.0,0.0038975484620726603,0.02231628159939062,0.00010510653196023618,0.0,0.0,0.0,0.0,0.0,0.0,0.0,0.0,0.0
10.339,302,10,338000000,base_footprint,-0.0038524545242152406,-7.493548843415042e-05,0.9998399206589622,-0.017472436449786806,0.0,0.0,0.0,0.0,0.0,0.0,0.0,0.0,0.0,-0.0006887650630026476,-0.00017931102847278997,0.10051122769503375,0.0,0.0,0.0,0.0,0.0,0.0,0.0,0.0,0.0,-0.00011563917085549464,0.022250313295980654,-4.013941934854106e-05,0.0,0.0,0.0,0.0,0.0,0.0,0.0,0.0,0.0
10.372,303,10,372000000,base_footprint,-0.0038526286953409,-8.239520432841051e-05,0.9998089525596728,-0.019162694087633124,0.0,0.0,0.0,0.0,0.0,0.0,0.0,0.0,0.0,-0.0013220719300107613,-0.000510566474879386,0.07812942517306881,0.0,0.0,0.0,0.0,0.0,0.0,0.0,0.0,0.0,0.004072307218031437,0.021996211173323833,-0.00028644815423116556,0.0,0.0,0.0,0.0,0.0,0.0,0.0,0.0,0.0
10.408,304,10,406000000,base_footprint,-0.00385356186380628,-8.672981576411762e-05,0.999783425185531,-0.020451045528008128,0.0,0.0,0.0,0.0,0.0,0.0,0.0,0.0,0.0,-0.0005746660375228847,-0.00012030643512224681,0.07580384124939776,0.0,0.0,0.0,0.0,0.0,0.0,0.0,0.0,0.0,0.0021184615419066275,0.01725969724764135,3.514915483813506e-05,0.0,0.0,0.0,0.0,0.0,0.0,0.0,0.0,0.0
10.441,305,10,440000000,base_footprint,-0.0038545966959495814,-9.1828947876678e-05,0.9997562350917569,-0.021739458293890564,0.0,0.0,0.0,0.0,0.0,0.0,0.0,0.0,0.0,-0.0005759309593263673,-9.111179608301319e-05,0.07581110605319821,0.0,0.0,0.0,0.0,0.0,0.0,0.0,0.0,0.0,-0.00029677347355450427,0.01665535422758051,-0.0001133746850710389,0.0,0.0,0.0,0.0,0.0,0.0,0.0,0.0,0.0
10.476,306,10,474000000,base_footprint,-0.0038551681109296122,-9.913081970244555e-05,0.9997278698149147,-0.023006828709111127,0.0,0.0,0.0,0.0,0.0,0.0,0.0,0.0,0.0,-4.349288671286544e-05,-0.00019030076855135276,0.0599237200805757,0.0,0.0,0.0,0.0,0.0,0.0,0.0,0.0,0.0,0.0023486266798897646,0.01699243744657827,0.00011740287943181751,0.0,0.0,0.0,0.0,0.0,0.0,0.0,0.0,0.0
10.508,307,10,508000000,base_footprint,-0.003856860191090366,-0.00010080369270897895,0.9997042086257242,-0.024012699225548096,0.0,0.0,0.0,0.0,0.0,0.0,0.0,0.0,0.0,-0.0004602914056577078,-2.938371083508779e-05,0.05990561584195719,0.0,0.0,0.0,0.0,0.0,0.0,0.0,0.0,0.0,-0.0037208815411303876,0.012035444732274803,-0.0003800626488615051,0.0,0.0,0.0,0.0,0.0,0.0,0.0,0.0,0.0
10.543,308,10,542000000,base_footprint,-0.0038587436394692445,-0.00010580457264832838,0.9996778270248393,-0.025086670919295624,0.0,0.0,0.0,0.0,0.0,0.0,0.0,0.0,0.0,-0.0004930871508934464,8.697143267740712e-05,0.06882296726521482,0.0,0.0,0.0,0.0,0.0,0.0,0.0,0.0,0.0,-0.011847062570616714,0.006337808923266302,-0.00022229834155283927,0.0,0.0,0.0,0.0,0.0,0.0,0.0,0.0,0.0
10.576,309,10,576000000,base_footprint,-0.0038522755221379046,-0.00010336241748847928,0.9996458426445912,-0.026331323037353232,0.0,0.0,0.0,0.0,0.0,0.0,0.0,0.0,0.0,-0.0002343295039670907,4.213479059730926e-05,0.06260098441312778,0.0,0.0,0.0,0.0,0.0,0.0,0.0,0.0,0.0,-0.05617281935827429,0.017817595320976584,0.0001725151815045788,0.0,0.0,0.0,0.0,0.0,0.0,0.0,0.0,0.0
10.61,310,10,610000000,base_footprint,-0.0038537933406049526,-0.00011154521455569576,0.9996250141605898,-0.027110272942076984,0.0,0.0,0.0,0.0,0.0,0.0,0.0,0.0,0.0,-0.000863184656221102,0.0010845649668557197,0.03398063742081187,0.0,0.0,0.0,0.0,0.0,0.0,0.0,0.0,0.0,0.06909538198617865,0.017110444319555936,-0.0017359344599571786,0.0,0.0,0.0,0.0,0.0,0.0,0.0,0.0,0.0
10.644,311,10,644000000,base_footprint,-0.003853122818770141,-0.00011383503769129641,0.9996084973422686,-0.02771267809612634,0.0,0.0,0.0,0.0,0.0,0.0,0.0,0.0,0.0,-0.00024372940631757291,-0.00016756621889097326,0.03546943463870657,0.0,0.0,0.0,0.0,0.0,0.0,0.0,0.0,0.0,-0.0065824331891013,0.007137954044433214,0.0022572273742327786,0.0,0.0,0.0,0.0,0.0,0.0,0.0,0.0,0.0
10.678,312,10,678000000,base_footprint,-0.0038607696424826734,-0.0001190076424124524,0.9995878129542616,-0.028447925904446773,0.0,0.0,0.0,0.0,0.0,0.0,0.0,0.0,0.0,-0.0002651039847533317,-0.0004188879678329758,0.08853516305422289,0.0,0.0,0.0,0.0,0.0,0.0,0.0,0.0,0.0,-0.11254028908122334,-0.0040108519937346095,-0.0004456236314189995,0.0,0.0,0.0,0.0,0.0,0.0,0.0,0.0,0.0
10.712,313,10,712000000,base_footprint,-0.003851103583801834,-0.00012314689574745654,0.9995128051429115,-0.030972668457482817,0.0,0.0,0.0,0.0,0.0,0.0,0.0,0.0,0.0,-0.0006842417789666575,-0.0011294882573152792,0.067903005363036,0.0,0.0,0.0,0.0,0.0,0.0,0.0,0.0,0.0,-0.2723741395725002,-0.0009924826831580755,-0.0013473904587583986,0.0,0.0,0.0,0.0,0.0,0.0,0.0,0.0,0.0
10.745,314,10,746000000,base_footprint,-0.0038508626404817232,-0.0001283142166705908,0.9994971273312745,-0.03147454287064479,0.0,0.0,0.0,0.0,0.0,0.0,0.0,0.0,0.0,-0.00010170060300383665,-0.00041481210948266493,0.027935513985150102,0.0,0.0,0.0,0.0,0.0,0.0,0.0,0.0,0.0,0.04616598060243064,0.01214473888326562,-0.00023342794511456953,0.0,0.0,0.0,0.0,0.0,0.0,0.0,0.0,0.0
10.78,315,10,780000000,base_footprint,-0.0038454208246179694,-0.00012983165545952364,0.999481264031221,-0.0319749704139942,0.0,0.0,0.0,0.0,0.0,0.0,0.0,0.0,0.0,-0.00045259665078066144,0.0012849858190751141,0.03783951379760676,0.0,0.0,0.0,0.0,0.0,0.0,0.0,0.0,0.0,0.22187391390466807,0.034630821234622376,-0.0005624782824692023,0.0,0.0,0.0,0.0,0.0,0.0,0.0,0.0,0.0
10.814,316,10,814000000,base_footprint,-0.00385078188849116,-0.00013402540655366944,0.9994493611368621,-0.032956456714215245,0.0,0.0,0.0,0.0,0.0,0.0,0.0,0.0,0.0,-0.0003997378397011069,-0.0002078880116858121,0.06002076083264141,0.0,0.0,0.0,0.0,0.0,0.0,0.0,0.0,0.0,0.10776600515916974,0.026610391714904764,0.002848572765777709,0.0,0.0,0.0,0.0,0.0,0.0,0.0,0.0,0.0
10.848,317,10,848000000,base_footprint,-0.003851223087159941,-0.00013805559409838636,0.9994152463683186,-0.03397520195582511,0.0,0.0,0.0,0.0,0.0,0.0,0.0,0.0,0.0,-0.00043929764145554895,-0.00016617271420132722,0.05992073228271003,0.0,0.0,0.0,0.0,0.0,0.0,0.0,0.0,0.0,-0.0003894927871522088,0.013217087268260793,-0.00021510517688417882,0.0,0.0,0.0,0.0,0.0,0.0,0.0,0.0,0.0
10.882,318,10,882000000,base_footprint,-0.0038518824165234993,-0.0001418917827896847,0.9993817240566685,-0.03494728158372842,0.0,0.0,0.0,0.0,0.0,0.0,0.0,0.0,0.0,-0.00040524792232074855,-0.00014560108481473963,0.05224162275922119,0.0,0.0,0.0,0.0,0.0,0.0,0.0,0.0,0.0,0.0016163737045749096,0.013034144301842817,-0.0001785610650715931,0.0,0.0,0.0,0.0,0.0,0.0,0.0,0.0,0.0
10.916,319,10,916000000,base_footprint,-0.0038528490396749415,-0.00014546326117333844,0.9993503203275329,-0.035833945582010376,0.0,0.0,0.0,0.0,0.0,0.0,0.0,0.0,0.0,-0.0003799090467607528,-9.319195599963529e-05,0.05214279727247962,0.0,0.0,0.0,0.0,0.0,0.0,0.0,0.0,0.0,-0.0004523933683939831,0.011473397376728823,-0.00010488276790298194,0.0,0.0,0.0,0.0,0.0,0.0,0.0,0.0,0.0
10.951,320,10,950000000,base_footprint,-0.0038539223887522293,-0.00014911420372498217,0.9993181780879263,-0.036719259118385944,0.0,0.0,0.0,0.0,0.0,0.0,0.0,0.0,0.0,-0.00037594643789508943,-8.762018903603664e-05,0.05215083578827655,0.0,0.0,0.0,0.0,0.0,0.0,0.0,0.0,0.0,-0.0022854592223653875,0.011197161443641645,-8.652457804620347e-05,0.0,0.0,0.0,0.0,0.0,0.0,0.0,0.0,0.0
10.986,321,10,984000000,base_footprint,-0.0038544740806547035,-0.0001524210028398758,0.9992871900662401,-0.037553050034816765,0.0,0.0,0.0,0.0,0.0,0.0,0.0,0.0,0.0,-0.0002468687617793238,1.7537746241326286e-05,0.0435877538435285,0.0,0.0,0.0,0.0,0.0,0.0,0.0,0.0,0.0,0.0019607902685662756,0.010969103910575992,-0.00021702211827635362,0.0,0.0,0.0,0.0,0.0,0.0,0.0,0.0,0.0
11.018,322,11,18000000,base_footprint,-0.003856505654387762,-0.0001560630840408994,0.9992578783954874,-0.038324867553596306,0.0,0.0,0.0,0.0,0.0,0.0,0.0,0.0,0.0,-0.0003893746046240061,7.861499109329096e-05,0.04468790779750987,0.0,0.0,0.0,0.0,0.0,0.0,0.0,0.0,0.0,-0.00686364809107822,0.008745711450079002,-0.00018502517042254441,0.0,0.0,0.0,0.0,0.0,0.0,0.0,0.0,0.0
11.051,323,11,52000000,base_footprint,-0.0038503909224491223,-0.00015548402724591874,0.9992236936203249,-0.03920663747654121,0.0,0.0,0.0,0.0,0.0,0.0,0.0,0.0,0.0,-0.00013269421635417602,-0.0006839407600780613,0.06226115020235696,0.0,0.0,0.0,0.0,0.0,0.0,0.0,0.0,0.0,-0.04988589192041739,0.004322278632493033,0.0006635121140762389,0.0,0.0,0.0,0.0,0.0,0.0,0.0,0.0,0.0
11.086,324,11,86000000,base_footprint,-0.0038494038407937475,-0.00016003369142106937,0.9991890028328325,-0.040081081537529005,0.0,0.0,0.0,0.0,0.0,0.0,0.0,0.0,0.0,-0.000950279384541374,0.0009581807314195187,0.0377083959320237,0.0,0.0,0.0,0.0,0.0,0.0,0.0,0.0,0.0,0.04502712601595085,0.01868600755354057,-0.0023382781093336837,0.0,0.0,0.0,0.0,0.0,0.0,0.0,0.0,0.0
11.122,325,11,120000000,base_footprint,-0.003851551919169911,-0.00016416018321219105,0.9991629399446957,-0.04072539797621039,0.0,0.0,0.0,0.0,0.0,0.0,0.0,0.0,0.0,-0.00027405618372670026,-0.00017983262208323437,0.038283965397897496,0.0,0.0,0.0,0.0,0.0,0.0,0.0,0.0,0.0,-0.003660865040102344,0.007882857006538133,0.0022819275280481703,0.0,0.0,0.0,0.0,0.0,0.0,0.0,0.0,0.0
11.154,326,11,154000000,base_footprint,-0.0038504196382937866,-0.00016648407669680443,0.9991362419197738,-0.04137531430808334,0.0,0.0,0.0,0.0,0.0,0.0,0.0,0.0,0.0,-0.0002960641266067163,-0.00015372462355060397,0.03824101508383257,0.0,0.0,0.0,0.0,0.0,0.0,0.0,0.0,0.0,-0.00039167782613864447,0.008437309505619524,4.6286480136564225e-05,0.0,0.0,0.0,0.0,0.0,0.0,0.0,0.0,0.0
