Time,header.seq,header.stamp.secs,header.stamp.nsecs,header.frame_id,orientation.x,orientation.y,orientation.z,orientation.w,orientation_covariance_0,orientation_covariance_1,orientation_covariance_2,orientation_covariance_3,orientation_covariance_4,orientation_covariance_5,orientation_covariance_6,orientation_covariance_7,orientation_covariance_8,angular_velocity.x,angular_velocity.y,angular_velocity.z,angular_velocity_covariance_0,angular_velocity_covariance_1,angular_velocity_covariance_2,angular_velocity_covariance_3,angular_velocity_covariance_4,angular_velocity_covariance_5,angular_velocity_covariance_6,angular_velocity_covariance_7,angular_velocity_covariance_8,linear_acceleration.x,linear_acceleration.y,linear_acceleration.z,linear_acceleration_covariance_0,linear_acceleration_covariance_1,linear_acceleration_covariance_2,linear_acceleration_covariance_3,linear_acceleration_covariance_4,linear_acceleration_covariance_5,linear_acceleration_covariance_6,linear_acceleration_covariance_7,linear_acceleration_covariance_8
0.29100000000000004,0,0,291000000,base_footprint,0.00044839931057841627,0.0004996166695910095,-0.707954201598566,0.706258024917366,0.0,0.0,0.0,0.0,0.0,0.0,0.0,0.0,0.0,0.00028209688279983575,-0.06782082956882379,-0.00012847909878340913,0.0,0.0,0.0,0.0,0.0,0.0,0.0,0.0,0.0,5.207401217553077e-05,6.799499272350958e-05,-0.0348719084018297,0.0,0.0,0.0,0.0,0.0,0.0,0.0,0.0,0.0
0.325,1,0,325000000,base_footprint,0.001258503856737274,0.0013226187618866412,-0.7079533391956182,0.7062568487239095,0.0,0.0,0.0,0.0,0.0,0.0,0.0,0.0,0.0,0.0002793736611221287,-0.06774851617137102,-0.00025178294469000925,0.0,0.0,0.0,0.0,0.0,0.0,0.0,0.0,0.0,0.00019346599602713193,-6.348171814313803e-05,0.00014191948978027955,0.0,0.0,0.0,0.0,0.0,0.0,0.0,0.0,0.0
0.35900000000000004,2,0,359000000,base_footprint,0.002067724145374339,0.002144688035574814,-0.7079513400463062,0.7062549291557038,0.0,0.0,0.0,0.0,0.0,0.0,0.0,0.0,0.0,0.0002788436349631107,-0.0676716824215742,-0.0003991378975601743,0.0,0.0,0.0,0.0,0.0,0.0,0.0,0.0,0.0,0.0002332420395993641,-1.6046813652919958e-05,0.00015133699611361452,0.0,0.0,0.0,0.0,0.0,0.0,0.0,0.0,0.0
0.393,3,0,393000000,base_footprint,0.0027847453135792072,0.002789530344879364,-0.7079512459104974,0.7062503077010076,0.0,0.0,0.0,0.0,0.0,0.0,0.0,0.0,0.0,0.001378643534904701,-0.00876331839089959,-0.0004691020579868076,0.0,0.0,0.0,0.0,0.0,0.0,0.0,0.0,0.0,-0.007717721471640929,-0.0226420322601137,0.12803859343389729,0.0,0.0,0.0,0.0,0.0,0.0,0.0,0.0,0.0
0.42700000000000005,4,0,427000000,base_footprint,0.0027296879663438484,0.0027333615311880047,-0.7079572164896355,0.7062447572609609,0.0,0.0,0.0,0.0,0.0,0.0,0.0,0.0,0.0,3.302454564069792e-06,0.000256956396966171,5.438011756285109e-05,0.0,0.0,0.0,0.0,0.0,0.0,0.0,0.0,0.0,0.007097345198471668,0.021507702853887183,0.004151327785118604,0.0,0.0,0.0,0.0,0.0,0.0,0.0,0.0,0.0
0.461,5,0,461000000,base_footprint,0.0027280618381548298,0.0027318399671239927,-0.7079554413167087,0.7062465489041809,0.0,0.0,0.0,0.0,0.0,0.0,0.0,0.0,0.0,-3.0200693998215655e-05,0.00019704251552067598,0.00026094251648037,0.0,0.0,0.0,0.0,0.0,0.0,0.0,0.0,0.0,5.976072879783795e-05,-0.0004037033137689639,-0.0001278429530602385,0.0,0.0,0.0,0.0,0.0,0.0,0.0,0.0,0.0
0.49500000000000005,6,0,495000000,base_footprint,0.002727946347879279,0.0027318221226251163,-0.707952078446488,0.7062499204105522,0.0,0.0,0.0,0.0,0.0,0.0,0.0,0.0,0.0,-3.064595958236855e-05,0.00017933878715408765,0.00032402504502285624,0.0,0.0,0.0,0.0,0.0,0.0,0.0,0.0,0.0,1.797189505317772e-05,-0.00012381951512236726,-2.7574060406069212e-05,0.0,0.0,0.0,0.0,0.0,0.0,0.0,0.0,0.0
0.529,7,0,529000000,base_footprint,0.0027278949460884643,0.002731826497957277,-0.7079483186988251,0.7062536893812696,0.0,0.0,0.0,0.0,0.0,0.0,0.0,0.0,0.0,-3.1558470322722864e-05,0.00017685091039384458,0.00033966683401295735,0.0,0.0,0.0,0.0,0.0,0.0,0.0,0.0,0.0,4.376517659105216e-06,-3.078448290348945e-05,-4.6918279852488785e-06,0.0,0.0,0.0,0.0,0.0,0.0,0.0,0.0,0.0
0.5630000000000001,8,0,563000000,base_footprint,0.0027278677753712548,0.0027318417951826576,-0.7079444568211223,0.7062575605500111,0.0,0.0,0.0,0.0,0.0,0.0,0.0,0.0,0.0,-3.1820524824038656e-05,0.00017611422282165262,0.0003438168764411921,0.0,0.0,0.0,0.0,0.0,0.0,0.0,0.0,0.0,1.17085615236872e-06,-8.164319501254333e-06,-1.3174935054279275e-06,0.0,0.0,0.0,0.0,0.0,0.0,0.0,0.0,0.0
0.5970000000000001,9,0,597000000,base_footprint,0.0027278471550595327,0.0027318595839854703,-0.7079405677880451,0.7062614588614138,0.0,0.0,0.0,0.0,0.0,0.0,0.0,0.0,0.0,-3.191624953178515e-05,0.00017592096656320267,0.0003449268527670757,0.0,0.0,0.0,0.0,0.0,0.0,0.0,0.0,0.0,3.2027687327928634e-07,-2.1796184213836658e-06,-3.41726427268234e-07,0.0,0.0,0.0,0.0,0.0,0.0,0.0,0.0,0.0
0.631,10,0,631000000,base_footprint,0.002727828510633442,0.002731877795461119,-0.7079366714342111,0.7062653644586978,0.0,0.0,0.0,0.0,0.0,0.0,0.0,0.0,0.0,-3.19657963557152e-05,0.00017586909828703535,0.0003452329949439163,0.0,0.0,0.0,0.0,0.0,0.0,0.0,0.0,0.0,9.540224767707406e-08,-5.971574370898925e-07,-8.676323828046437e-08,0.0,0.0,0.0,0.0,0.0,0.0,0.0,0.0,0.0
0.665,11,0,665000000,base_footprint,0.002727810607713838,0.0027318959025236047,-0.7079327730042737,0.7062692720914212,0.0,0.0,0.0,0.0,0.0,0.0,0.0,0.0,0.0,-3.200135912014987e-05,0.00017585467775912012,0.0003453265903052953,0.0,0.0,0.0,0.0,0.0,0.0,0.0,0.0,0.0,3.5925515764696065e-08,-1.7868875448591279e-07,-1.9772374393022583e-08,0.0,0.0,0.0,0.0,0.0,0.0,0.0,0.0,0.0
0.6990000000000001,12,0,699000000,base_footprint,0.00272779309955183,0.0027319137859594038,-0.7079288738850761,0.7062731803712218,0.0,0.0,0.0,0.0,0.0,0.0,0.0,0.0,0.0,-3.2031610752200434e-05,0.00017585016222125847,0.00034536398718549416,0.0,0.0,0.0,0.0,0.0,0.0,0.0,0.0,0.0,2.0192391616649073e-08,-6.800637970528052e-08,-2.50252801947703e-09,0.0,0.0,0.0,0.0,0.0,0.0,0.0,0.0,0.0
0.7330000000000001,13,0,733000000,base_footprint,0.002727775875956862,0.0027319314324963503,-0.7079249744433648,0.7062770889309521,0.0,0.0,0.0,0.0,0.0,0.0,0.0,0.0,0.0,-3.2058994526069974e-05,0.00017584826976865025,0.00034538652707017195,0.0,0.0,0.0,0.0,0.0,0.0,0.0,0.0,0.0,1.602820154576556e-08,-3.871174002505809e-08,1.6628583783037185e-09,0.0,0.0,0.0,0.0,0.0,0.0,0.0,0.0,0.0
0.767,14,0,767000000,base_footprint,0.002727758891006737,0.002731948855179705,-0.7079210747761485,0.7062809976734955,0.0,0.0,0.0,0.0,0.0,0.0,0.0,0.0,0.0,-3.208429227895118e-05,0.00017584707461927823,0.00034540514099627863,0.0,0.0,0.0,0.0,0.0,0.0,0.0,0.0,0.0,1.4923914869550078e-08,-3.093974251867896e-08,2.4006070225081105e-09,0.0,0.0,0.0,0.0,0.0,0.0,0.0,0.0,0.0
0.801,15,0,801000000,base_footprint,0.002727742117331826,0.0027319660724750435,-0.707917174909109,0.7062849065731379,0.0,0.0,0.0,0.0,0.0,0.0,0.0,0.0,0.0,-3.2107834213604725e-05,0.00017584606725760238,0.0003454227191358641,0.0,0.0,0.0,0.0,0.0,0.0,0.0,0.0,0.0,1.4629260889136637e-08,-2.8861141624123665e-08,2.2656046163761917e-09,0.0,0.0,0.0,0.0,0.0,0.0,0.0,0.0,0.0
0.8350000000000001,16,0,835000000,base_footprint,0.0027277255338823713,0.0027319831028863165,-0.7079132748490639,0.7062888156230503,0.0,0.0,0.0,0.0,0.0,0.0,0.0,0.0,0.0,-3.2129819405289e-05,0.00017584511263204718,0.00034544002561134966,0.0,0.0,0.0,0.0,0.0,0.0,0.0,0.0,0.0,1.4549121446257385e-08,-2.829034773914202e-08,1.930827400428902e-09,0.0,0.0,0.0,0.0,0.0,0.0,0.0,0.0,0.0
0.8690000000000001,17,0,869000000,base_footprint,0.0027277091225625092,0.0027319999636621394,-0.7079093745978395,0.7062927248213994,0.0,0.0,0.0,0.0,0.0,0.0,0.0,0.0,0.0,-3.215040205622915e-05,0.0001758441748129808,0.0003454572621866971,0.0,0.0,0.0,0.0,0.0,0.0,0.0,0.0,0.0,1.4526016308328846e-08,-2.8120004570734447e-08,1.5706329558119857e-09,0.0,0.0,0.0,0.0,0.0,0.0,0.0,0.0,0.0
0.902,18,0,903000000,base_footprint,0.0027276928672215228,0.0027320166705713084,-0.7079054741559402,0.7062966341676757,0.0,0.0,0.0,0.0,0.0,0.0,0.0,0.0,0.0,-3.216971491402046e-05,0.00017584324403829808,0.0003454744822305726,0.0,0.0,0.0,0.0,0.0,0.0,0.0,0.0,0.0,1.451835042418394e-08,-2.8057681633738867e-08,1.2290825867943042e-09,0.0,0.0,0.0,0.0,0.0,0.0,0.0,0.0,0.0
0.937,19,0,937000000,base_footprint,0.0027276767532788972,0.002732033237950249,-0.7079015735235171,0.7063005436617227,0.0,0.0,0.0,0.0,0.0,0.0,0.0,0.0,0.0,-3.218787678786888e-05,0.0001758423173875983,0.0003454916996886301,0.0,0.0,0.0,0.0,0.0,0.0,0.0,0.0,0.0,1.451504102364112e-08,-2.8025513011664043e-08,9.154953513959883e-10,0.0,0.0,0.0,0.0,0.0,0.0,0.0,0.0,0.0
0.9710000000000001,20,0,971000000,base_footprint,0.002727660767526636,0.00273204967881193,-0.7078976727006255,0.7063044533034801,0.0,0.0,0.0,0.0,0.0,0.0,0.0,0.0,0.0,-3.220499470433736e-05,0.0001758413939745257,0.0003455089181438976,0.0,0.0,0.0,0.0,0.0,0.0,0.0,0.0,0.0,1.4513139275110015e-08,-2.800283366622339e-08,6.297078744607409e-10,0.0,0.0,0.0,0.0,0.0,0.0,0.0,0.0,0.0
1.005,21,1,5000000,base_footprint,0.0027276448979886556,0.002732066004962821,-0.7078937716872942,0.7063083630929142,0.0,0.0,0.0,0.0,0.0,0.0,0.0,0.0,0.0,-3.2221165749583074e-05,0.00017584047331849217,0.0003455261384627585,0.0,0.0,0.0,0.0,0.0,0.0,0.0,0.0,0.0,1.4511849775128755e-08,-2.7984076739485722e-08,3.702138924511032e-10,0.0,0.0,0.0,0.0,0.0,0.0,0.0,0.0,0.0
1.039,22,1,39000000,base_footprint,0.0027276291338026474,0.0027320822271132265,-0.7078898704835417,0.7063122730300015,0.0,0.0,0.0,0.0,0.0,0.0,0.0,0.0,0.0,-3.223647787976463e-05,0.00017583955508267715,0.00034554336080904553,0.0,0.0,0.0,0.0,0.0,0.0,0.0,0.0,0.0,1.4510941322544782e-08,-2.796765202634715e-08,1.347943507265578e-10,0.0,0.0,0.0,0.0,0.0,0.0,0.0,0.0,0.0
1.073,23,1,73000000,base_footprint,0.0027276134651155657,0.002732098354978601,-0.7078859690893821,0.7063161831147226,0.0,0.0,0.0,0.0,0.0,0.0,0.0,0.0,0.0,-3.225101087513967e-05,0.00017583863913767095,0.00034556058510111157,0.0,0.0,0.0,0.0,0.0,0.0,0.0,0.0,0.0,1.4510308505141357e-08,-2.7952890001792808e-08,-7.874189368436467e-11,0.0,0.0,0.0,0.0,0.0,0.0,0.0,0.0,0.0
1.107,24,1,107000000,base_footprint,0.0027275978829896796,0.002732114397371746,-0.7078820675048272,0.7063200933470601,0.0,0.0,0.0,0.0,0.0,0.0,0.0,0.0,0.0,-3.2264837290126245e-05,0.0001758377251668475,0.00034557781127250974,0.0,0.0,0.0,0.0,0.0,0.0,0.0,0.0,0.0,1.45099355634571e-08,-2.79396540549651e-08,-2.7267296213141816e-10,0.0,0.0,0.0,0.0,0.0,0.0,0.0,0.0,0.0
1.141,25,1,141000000,base_footprint,0.0027275823793174877,0.0027321303622869987,-0.7078781657298859,0.7063240037270004,0.0,0.0,0.0,0.0,0.0,0.0,0.0,0.0,0.0,-3.227802265780408e-05,0.00017583681304393823,0.00034559503929723276,0.0,0.0,0.0,0.0,0.0,0.0,0.0,0.0,0.0,1.4509801983538527e-08,-2.7927863585557843e-08,-4.484088209863311e-10,0.0,0.0,0.0,0.0,0.0,0.0,0.0,0.0,0.0
1.175,26,1,175000000,base_footprint,0.0027275669467446157,0.002732146256975835,-0.7078742637645656,0.7063279142545308,0.0,0.0,0.0,0.0,0.0,0.0,0.0,0.0,0.0,-3.229062660691232e-05,0.00017583590250315354,0.0003456122690490438,0.0,0.0,0.0,0.0,0.0,0.0,0.0,0.0,0.0,1.4509861409150491e-08,-2.791718851987823e-08,-6.080416619216436e-10,0.0,0.0,0.0,0.0,0.0,0.0,0.0,0.0,0.0
1.209,27,1,209000000,base_footprint,0.0027275515785998967,0.00273216208801622,-0.7078703616088718,0.7063318249296402,0.0,0.0,0.0,0.0,0.0,0.0,0.0,0.0,0.0,-3.230270316555241e-05,0.00017583499346089947,0.00034562950046345005,0.0,0.0,0.0,0.0,0.0,0.0,0.0,0.0,0.0,1.4510105383441744e-08,-2.7907620268121234e-08,-7.527015546281233e-10,0.0,0.0,0.0,0.0,0.0,0.0,0.0,0.0,0.0
1.243,28,1,243000000,base_footprint,0.0027275362688316167,0.002732177861374994,-0.7078664592628083,0.7063357357523199,0.0,0.0,0.0,0.0,0.0,0.0,0.0,0.0,0.0,-3.231430136425174e-05,0.00017583408574878422,0.0003456467335365849,0.0,0.0,0.0,0.0,0.0,0.0,0.0,0.0,0.0,1.4510534215582111e-08,-2.7899164909441127e-08,-8.839838712315546e-10,0.0,0.0,0.0,0.0,0.0,0.0,0.0,0.0,0.0
1.2770000000000001,29,1,277000000,base_footprint,0.0027275210119505357,0.00273219358246478,-0.7078625567263771,0.7063396467225623,0.0,0.0,0.0,0.0,0.0,0.0,0.0,0.0,0.0,-3.2325465608005317e-05,0.00017583317920894979,0.00034566396808952815,0.0,0.0,0.0,0.0,0.0,0.0,0.0,0.0,0.0,1.4511081638291964e-08,-2.7891372898753938e-08,-1.0033221311927336e-09,0.0,0.0,0.0,0.0,0.0,0.0,0.0,0.0,0.0
1.311,30,1,311000000,base_footprint,0.0027275058029769443,0.002732209256195119,-0.7078586539995794,0.7063435578403607,0.0,0.0,0.0,0.0,0.0,0.0,0.0,0.0,0.0,-3.233623631859772e-05,0.000175832273733838,0.0003456812041614156,0.0,0.0,0.0,0.0,0.0,0.0,0.0,0.0,0.0,1.4511792881820724e-08,-2.788458181050789e-08,-1.1112617436770627e-09,0.0,0.0,0.0,0.0,0.0,0.0,0.0,0.0,0.0
1.345,31,1,345000000,base_footprint,0.0027237361129989245,0.0027281788073168895,-0.7078548443014295,0.7063474058145759,0.0,0.0,0.0,0.0,0.0,0.0,0.0,0.0,0.0,-5.370239469716968e-05,0.001081307812573647,0.0003515034923670035,0.0,0.0,0.0,0.0,0.0,0.0,0.0,0.0,0.0,-0.34535617120404205,0.0007338727901322895,0.0009448680829126178,0.0,0.0,0.0,0.0,0.0,0.0,0.0,0.0,0.0
1.379,32,1,379000000,base_footprint,0.002723797075328977,0.002728212165940583,-0.7078608477329724,0.7063413891558585,0.0,0.0,0.0,0.0,0.0,0.0,0.0,0.0,0.0,-3.8502614120366964e-05,9.490298324213988e-05,-0.0007791313435527298,0.0,0.0,0.0,0.0,0.0,0.0,0.0,0.0,0.0,-0.7839335574749199,0.003873787569258935,-0.0010704587977573088,0.0,0.0,0.0,0.0,0.0,0.0,0.0,0.0,0.0
1.411,33,1,413000000,base_footprint,0.0027242399142262566,0.002728609581161682,-0.7078777472817348,0.706324449605123,0.0,0.0,0.0,0.0,0.0,0.0,0.0,0.0,0.0,-3.7580293801818157e-05,0.00010362486834441549,-0.0017435696285689572,0.0,0.0,0.0,0.0,0.0,0.0,0.0,0.0,0.0,-0.7865295733833411,0.003600456952990827,1.8684122498526228e-05,0.0,0.0,0.0,0.0,0.0,0.0,0.0,0.0,0.0
1.447,34,1,447000000,base_footprint,0.002725067094699597,0.0027293379088597323,-0.7079065839251283,0.7062955423612441,0.0,0.0,0.0,0.0,0.0,0.0,0.0,0.0,0.0,-3.240301182998789e-05,-0.0001315139393698578,-0.0028214606406645765,0.0,0.0,0.0,0.0,0.0,0.0,0.0,0.0,0.0,-0.7805884214660677,0.0038700636360254337,-0.0002499266182560806,0.0,0.0,0.0,0.0,0.0,0.0,0.0,0.0,0.0
1.481,35,1,481000000,base_footprint,0.002726259471768321,0.0027303624935118265,-0.7079488678195226,0.7062531509189909,0.0,0.0,0.0,0.0,0.0,0.0,0.0,0.0,0.0,-2.9226445373952786e-05,-0.00026321895769459427,-0.004035427621985152,0.0,0.0,0.0,0.0,0.0,0.0,0.0,0.0,0.0,-0.7591139541970237,0.004176956680725485,-0.0001319842345271771,0.0,0.0,0.0,0.0,0.0,0.0,0.0,0.0,0.0
1.5150000000000001,36,1,515000000,base_footprint,0.002727692076039092,0.002731527409603776,-0.7080066028669866,0.7061952624810636,0.0,0.0,0.0,0.0,0.0,0.0,0.0,0.0,0.0,-2.8943353040463668e-05,-0.0002820629971024926,-0.005437102254993664,0.0,0.0,0.0,0.0,0.0,0.0,0.0,0.0,0.0,-0.7088229361739161,0.004537576502478768,-6.850740662393915e-06,0.0,0.0,0.0,0.0,0.0,0.0,0.0,0.0,0.0
1.549,37,1,549000000,base_footprint,0.002729665480703969,0.0027331897823817323,-0.7080815467680409,0.7061201043211812,0.0,0.0,0.0,0.0,0.0,0.0,0.0,0.0,0.0,-2.3323782208219238e-05,-0.0001224537956205419,-0.0069250896188691475,0.0,0.0,0.0,0.0,0.0,0.0,0.0,0.0,0.0,-0.6171273330081699,0.004602752737694171,0.00021218857442864471,0.0,0.0,0.0,0.0,0.0,0.0,0.0,0.0,0.0
1.5830000000000002,38,1,583000000,base_footprint,0.002731715656034411,0.0027348715630640457,-0.7081738058223478,0.7060275624607016,0.0,0.0,0.0,0.0,0.0,0.0,0.0,0.0,0.0,-2.5069450457264236e-05,0.00011926694266702545,-0.008364868016920005,0.0,0.0,0.0,0.0,0.0,0.0,0.0,0.0,0.0,-0.4779015644412928,0.0042485269048185,0.0003133590380260217,0.0,0.0,0.0,0.0,0.0,0.0,0.0,0.0,0.0
1.617,39,1,617000000,base_footprint,0.002733360715586074,0.002736024034033631,-0.7082874923992255,0.7059135010909628,0.0,0.0,0.0,0.0,0.0,0.0,0.0,0.0,0.0,-2.2163653785729016e-05,0.0003140673683990785,-0.011216314378654776,0.0,0.0,0.0,0.0,0.0,0.0,0.0,0.0,0.0,-0.2996039674158195,0.006543286620123462,0.00039319424374440446,0.0,0.0,0.0,0.0,0.0,0.0,0.0,0.0,0.0
1.651,40,1,651000000,base_footprint,0.002731941681601064,0.0027321481554655387,-0.7084516192654794,0.7057488044773618,0.0,0.0,0.0,0.0,0.0,0.0,0.0,0.0,0.0,-0.0007212846563094002,0.0015020486625721714,-0.016120690533594835,0.0,0.0,0.0,0.0,0.0,0.0,0.0,0.0,0.0,-0.09559617581960803,0.009862986863803193,0.0022554650701021193,0.0,0.0,0.0,0.0,0.0,0.0,0.0,0.0,0.0
1.685,41,1,685000000,base_footprint,0.0027209430760915857,0.002716299599779959,-0.7086315550717113,0.7055682371974443,0.0,0.0,0.0,0.0,0.0,0.0,0.0,0.0,0.0,0.0012224163712612523,0.002138089172990643,-0.010250097839329557,0.0,0.0,0.0,0.0,0.0,0.0,0.0,0.0,0.0,-0.0036697618613953974,-0.015873421964460385,-0.0013962104713959342,0.0,0.0,0.0,0.0,0.0,0.0,0.0,0.0,0.0
1.719,42,1,719000000,base_footprint,0.002726460077364371,0.002721763236484157,-0.7087455585724446,0.7054536778727323,0.0,0.0,0.0,0.0,0.0,0.0,0.0,0.0,0.0,-2.5950703071686652e-05,0.0002733121048810981,-0.012887001483902427,0.0,0.0,0.0,0.0,0.0,0.0,0.0,0.0,0.0,-0.1723596346860779,0.010443777960685019,-0.0011067814966897,0.0,0.0,0.0,0.0,0.0,0.0,0.0,0.0,0.0
1.7530000000000001,43,1,753000000,base_footprint,0.0027268928256146737,0.002721137628868084,-0.7089170042638088,0.7052813910285379,0.0,0.0,0.0,0.0,0.0,0.0,0.0,0.0,0.0,-7.014951306461513e-07,0.0003942156029223022,-0.015921205521643094,0.0,0.0,0.0,0.0,0.0,0.0,0.0,0.0,0.0,-0.33982889947884176,0.007643759354418939,0.00024156057274158976,0.0,0.0,0.0,0.0,0.0,0.0,0.0,0.0,0.0
1.787,44,1,787000000,base_footprint,0.0027398168978683586,0.0027315143116280246,-0.7093068887206597,0.7048891897641425,0.0,0.0,0.0,0.0,0.0,0.0,0.0,0.0,0.0,0.0004902322786390083,-7.94880272241484e-05,-0.05622660567014988,0.0,0.0,0.0,0.0,0.0,0.0,0.0,0.0,0.0,-0.3029492516862663,0.006206455796608723,-0.0015907488623613866,0.0,0.0,0.0,0.0,0.0,0.0,0.0,0.0,0.0
1.8210000000000002,45,1,821000000,base_footprint,0.002738580180589298,0.002726270758484556,-0.7099813239629478,0.7042099028344929,0.0,0.0,0.0,0.0,0.0,0.0,0.0,0.0,0.0,-6.231404776376641e-05,0.0008237518982385053,-0.05655330427129515,0.0,0.0,0.0,0.0,0.0,0.0,0.0,0.0,0.0,-0.0016405184594914454,0.01612103155194388,0.0020472126123856965,0.0,0.0,0.0,0.0,0.0,0.0,0.0,0.0,0.0
1.855,46,1,855000000,base_footprint,0.00274014581067257,0.0027216268646222466,-0.7107365011123917,0.7034477310608523,0.0,0.0,0.0,0.0,0.0,0.0,0.0,0.0,0.0,4.545080754067335e-05,0.0007262944407240401,-0.07475906144630465,0.0,0.0,0.0,0.0,0.0,0.0,0.0,0.0,0.0,0.3222500140933497,0.007009292819262353,-0.00038608457646743214,0.0,0.0,0.0,0.0,0.0,0.0,0.0,0.0,0.0
1.889,47,1,889000000,base_footprint,0.002742491974347483,0.0027175140311294504,-0.7115961225812925,0.7025781466730456,0.0,0.0,0.0,0.0,0.0,0.0,0.0,0.0,0.0,-2.5498609815464962e-05,0.000737887367324773,-0.07107574715093293,0.0,0.0,0.0,0.0,0.0,0.0,0.0,0.0,0.0,0.004136199036229094,0.015111733816886075,0.00020600653918452993,0.0,0.0,0.0,0.0,0.0,0.0,0.0,0.0,0.0
1.923,48,1,923000000,base_footprint,0.002745971861415121,0.002714931526463668,-0.7124472529272678,0.7017150422940446,0.0,0.0,0.0,0.0,0.0,0.0,0.0,0.0,0.0,-6.079814626416271e-06,0.0006801630657223715,-0.07157331805617836,0.0,0.0,0.0,0.0,0.0,0.0,0.0,0.0,0.0,-0.005172188691798561,0.015186718773589184,-2.445906340395408e-05,0.0,0.0,0.0,0.0,0.0,0.0,0.0,0.0,0.0
1.957,49,1,957000000,base_footprint,0.002750268155445577,0.0027145152513264534,-0.7131169073350899,0.7010344812524277,0.0,0.0,0.0,0.0,0.0,0.0,0.0,0.0,0.0,3.146397509464345e-05,0.0003050930588877696,-0.05239131900221476,0.0,0.0,0.0,0.0,0.0,0.0,0.0,0.0,0.0,0.0003694735968418168,0.00999118283141066,-0.0004052918677331757,0.0,0.0,0.0,0.0,0.0,0.0,0.0,0.0,0.0
1.991,50,1,991000000,base_footprint,0.0027545381183661666,0.0027167116351219304,-0.7137449567189739,0.7003950090883545,0.0,0.0,0.0,0.0,0.0,0.0,0.0,0.0,0.0,6.8957357803876e-05,0.00034832730380751734,-0.052593942635783465,0.0,0.0,0.0,0.0,0.0,0.0,0.0,0.0,0.0,-0.004444749181803218,0.013542252948247544,0.00016633913016654803,0.0,0.0,0.0,0.0,0.0,0.0,0.0,0.0,0.0
2.025,51,2,25000000,base_footprint,0.002759855339679063,0.002717361779245509,-0.7143703317684613,0.6997571208872999,0.0,0.0,0.0,0.0,0.0,0.0,0.0,0.0,0.0,4.377633540069434e-05,0.00033398322338669027,-0.052388502896986495,0.0,0.0,0.0,0.0,0.0,0.0,0.0,0.0,0.0,-0.002865888854371704,0.011665053871054442,-6.085646652735559e-05,0.0,0.0,0.0,0.0,0.0,0.0,0.0,0.0,0.0
2.059,52,2,59000000,base_footprint,0.0027612075482838236,0.0027100393500996216,-0.7150988242489014,0.699012662959288,0.0,0.0,0.0,0.0,0.0,0.0,0.0,0.0,0.0,-0.0002290988278004669,-0.0026439639912965223,-0.07549816412645577,0.0,0.0,0.0,0.0,0.0,0.0,0.0,0.0,0.0,-0.34841353499263156,0.027922886388760615,-0.004426868047446627,0.0,0.0,0.0,0.0,0.0,0.0,0.0,0.0,0.0
2.093,53,2,93000000,base_footprint,0.0027688496082168665,0.0027153424616923427,-0.7157109413731721,0.698385859526015,0.0,0.0,0.0,0.0,0.0,0.0,0.0,0.0,0.0,2.4432525567240728e-05,0.000538232904297792,-0.04857005700449181,0.0,0.0,0.0,0.0,0.0,0.0,0.0,0.0,0.0,0.016799984447958043,0.011350698067588231,0.005046072175879997,0.0,0.0,0.0,0.0,0.0,0.0,0.0,0.0,0.0
2.127,54,2,127000000,base_footprint,0.0027715772608082976,0.002711261028782422,-0.7162944890654559,0.6977873403534767,0.0,0.0,0.0,0.0,0.0,0.0,0.0,0.0,0.0,-6.363756003880652e-05,0.0004024673810800335,-0.05053880812855405,0.0,0.0,0.0,0.0,0.0,0.0,0.0,0.0,0.0,0.00913222541750176,0.005745303652866455,-0.00024127089620477993,0.0,0.0,0.0,0.0,0.0,0.0,0.0,0.0,0.0
2.161,55,2,161000000,base_footprint,0.002766455031754992,0.002707919465728428,-0.7169502740873132,0.69711356204341,0.0,0.0,0.0,0.0,0.0,0.0,0.0,0.0,0.0,0.0004309381923962768,0.00033377602647769865,-0.06440985459729834,0.0,0.0,0.0,0.0,0.0,0.0,0.0,0.0,0.0,0.056384810001624396,0.005413005915141669,-0.00043095279932554945,0.0,0.0,0.0,0.0,0.0,0.0,0.0,0.0,0.0
2.195,56,2,195000000,base_footprint,0.0027680531061158465,0.0027052410912050697,-0.7178088642448652,0.6962294549673527,0.0,0.0,0.0,0.0,0.0,0.0,0.0,0.0,0.0,0.0005500594375914754,0.001239118780334574,-0.0700496462253788,0.0,0.0,0.0,0.0,0.0,0.0,0.0,0.0,0.0,0.020412700977377015,0.022774135556626565,0.0019199134458103644,0.0,0.0,0.0,0.0,0.0,0.0,0.0,0.0,0.0
2.229,57,2,229000000,base_footprint,0.002776569651367107,0.002701958572705663,-0.7185061643533246,0.6955097999792065,0.0,0.0,0.0,0.0,0.0,0.0,0.0,0.0,0.0,0.00023576737739354963,0.0007243140273729667,-0.050440120443061086,0.0,0.0,0.0,0.0,0.0,0.0,0.0,0.0,0.0,-0.05338718729744971,0.01623217309251195,-0.0004689228921620029,0.0,0.0,0.0,0.0,0.0,0.0,0.0,0.0,0.0
2.263,58,2,263000000,base_footprint,0.002775597718251022,0.002696908783845035,-0.7190261403048354,0.6949722528983798,0.0,0.0,0.0,0.0,0.0,0.0,0.0,0.0,0.0,-0.00010069337023054458,0.0005417976128531262,-0.042846866535479006,0.0,0.0,0.0,0.0,0.0,0.0,0.0,0.0,0.0,0.0008286151075855711,0.009097303407100257,-0.00010918000959301724,0.0,0.0,0.0,0.0,0.0,0.0,0.0,0.0,0.0
2.297,59,2,297000000,base_footprint,0.002775508409910245,0.002691579143883394,-0.7195324391012686,0.6944480693585071,0.0,0.0,0.0,0.0,0.0,0.0,0.0,0.0,0.0,-7.0622633669265825e-06,0.0007474159449790315,-0.04306572703500887,0.0,0.0,0.0,0.0,0.0,0.0,0.0,0.0,0.0,-0.004277800519928434,0.009658040173216979,0.0006092960189604506,0.0,0.0,0.0,0.0,0.0,0.0,0.0,0.0,0.0
2.331,60,2,331000000,base_footprint,0.0027762777536202658,0.0026868659636079917,-0.7200481693189631,0.6939133280846667,0.0,0.0,0.0,0.0,0.0,0.0,0.0,0.0,0.0,-0.0025174322914081754,0.0007747410202667864,-0.05947095618733553,0.0,0.0,0.0,0.0,0.0,0.0,0.0,0.0,0.0,-0.006161850959363676,0.009573803962966374,-0.0007629985144292791,0.0,0.0,0.0,0.0,0.0,0.0,0.0,0.0,0.0
2.365,61,2,365000000,base_footprint,0.002778471849728908,0.0026834186830718334,-0.7210509328419743,0.692871295123467,0.0,0.0,0.0,0.0,0.0,0.0,0.0,0.0,0.0,2.2807094709608768e-05,0.00090261696364949,-0.08558935856020866,0.0,0.0,0.0,0.0,0.0,0.0,0.0,0.0,0.0,-0.01392319548198484,0.0200514371494347,0.0006488346719511937,0.0,0.0,0.0,0.0,0.0,0.0,0.0,0.0,0.0
2.399,62,2,399000000,base_footprint,0.0027824522458396467,0.0026802003411005074,-0.7220604785913741,0.6918191524828053,0.0,0.0,0.0,0.0,0.0,0.0,0.0,0.0,0.0,3.939901868271357e-05,0.0007845758968371825,-0.08595914359016436,0.0,0.0,0.0,0.0,0.0,0.0,0.0,0.0,0.0,-0.003996865776228109,0.01940887679562546,-7.084532337834601e-05,0.0,0.0,0.0,0.0,0.0,0.0,0.0,0.0,0.0
2.433,63,2,433000000,base_footprint,0.00278738672888158,0.002678372853738138,-0.7230789261777657,0.6907546042638365,0.0,0.0,0.0,0.0,0.0,0.0,0.0,0.0,0.0,-0.000290772874083094,0.0008226775494413084,-0.09434002935520047,0.0,0.0,0.0,0.0,0.0,0.0,0.0,0.0,0.0,-0.004552746593611909,0.019832936617484337,0.0002924188894148284,0.0,0.0,0.0,0.0,0.0,0.0,0.0,0.0,0.0
2.467,64,2,467000000,base_footprint,0.002793803566972584,0.002677739707041381,-0.7242074852144686,0.689571274583727,0.0,0.0,0.0,0.0,0.0,0.0,0.0,0.0,0.0,0.00017710562909643585,0.0006266109360208298,-0.09613064908206564,0.0,0.0,0.0,0.0,0.0,0.0,0.0,0.0,0.0,-0.004326748234621805,0.0218805034431739,-0.0005972884287971195,0.0,0.0,0.0,0.0,0.0,0.0,0.0,0.0,0.0
2.501,65,2,501000000,base_footprint,0.002801189073498791,0.0026765129667086058,-0.7253318609794605,0.6883884666859158,0.0,0.0,0.0,0.0,0.0,0.0,0.0,0.0,0.0,7.202787543976503e-05,0.0006518937422458437,-0.0956244816971371,0.0,0.0,0.0,0.0,0.0,0.0,0.0,0.0,0.0,-0.0006820641303021558,0.022067132029269153,0.00021197148729875916,0.0,0.0,0.0,0.0,0.0,0.0,0.0,0.0,0.0
2.535,66,2,535000000,base_footprint,0.0028033698308368863,0.002666370401639431,-0.7264517279601992,0.6872066054179875,0.0,0.0,0.0,0.0,0.0,0.0,0.0,0.0,0.0,-0.003596267983438344,0.008245111763390042,-0.10481791783776465,0.0,0.0,0.0,0.0,0.0,0.0,0.0,0.0,0.0,0.06034661276293565,0.011557631149757136,0.010009548157501824,0.0,0.0,0.0,0.0,0.0,0.0,0.0,0.0,0.0
2.569,67,2,569000000,base_footprint,0.0028138067858453526,0.002657860051626729,-0.7274372170320224,0.68616332862375,0.0,0.0,0.0,0.0,0.0,0.0,0.0,0.0,0.0,-8.760973883045116e-05,0.0004400885456910771,-0.06302124442306392,0.0,0.0,0.0,0.0,0.0,0.0,0.0,0.0,0.0,0.160658414172496,0.0016524124275038854,-0.010372123576267826,0.0,0.0,0.0,0.0,0.0,0.0,0.0,0.0,0.0
2.603,68,2,603000000,base_footprint,0.002819907001655945,0.002668107304404897,-0.7281090799264892,0.6854502878083251,0.0,0.0,0.0,0.0,0.0,0.0,0.0,0.0,0.0,0.0004969001158964871,0.0006829016539739987,-0.05506292217928096,0.0,0.0,0.0,0.0,0.0,0.0,0.0,0.0,0.0,0.035281701858647485,0.013597434891054165,0.001345371307225751,0.0,0.0,0.0,0.0,0.0,0.0,0.0,0.0,0.0
2.637,69,2,637000000,base_footprint,0.0028126618121087177,0.0026568867256967915,-0.7285150429992009,0.6850188771196967,0.0,0.0,0.0,0.0,0.0,0.0,0.0,0.0,0.0,-0.0004710020433847114,0.0008910881866924607,-0.008345174218094845,0.0,0.0,0.0,0.0,0.0,0.0,0.0,0.0,0.0,0.13075265032292985,-0.02279505437740046,0.0013794293606819348,0.0,0.0,0.0,0.0,0.0,0.0,0.0,0.0,0.0
2.6710000000000003,70,2,671000000,base_footprint,0.0028126534240155952,0.0026616140099902093,-0.7286960221802773,0.684826337147031,0.0,0.0,0.0,0.0,0.0,0.0,0.0,0.0,0.0,-0.00027548977580911516,0.0008207076625855708,-0.02392916156511219,0.0,0.0,0.0,0.0,0.0,0.0,0.0,0.0,0.0,0.06744220313380007,0.0022845225383677503,-0.001591092349641646,0.0,0.0,0.0,0.0,0.0,0.0,0.0,0.0,0.0
2.705,71,2,705000000,base_footprint,0.0028132410589488403,0.0026573238742410243,-0.7289097333648934,0.6845988788411005,0.0,0.0,0.0,0.0,0.0,0.0,0.0,0.0,0.0,-0.000884933554237183,-0.0005524708076243173,-0.006597487711042918,0.0,0.0,0.0,0.0,0.0,0.0,0.0,0.0,0.0,-0.04113132599510473,0.012008359280166777,-0.001512075692416873,0.0,0.0,0.0,0.0,0.0,0.0,0.0,0.0,0.0
2.739,72,2,739000000,base_footprint,0.002801634902669635,0.0026471036838504893,-0.7290117081276314,0.6844903747291063,0.0,0.0,0.0,0.0,0.0,0.0,0.0,0.0,0.0,0.0002753391652630625,0.00032336649826771675,-0.0340219282115337,0.0,0.0,0.0,0.0,0.0,0.0,0.0,0.0,0.0,-0.13531828749253866,0.014382615093220898,0.002250421448053608,0.0,0.0,0.0,0.0,0.0,0.0,0.0,0.0,0.0
2.773,73,2,773000000,base_footprint,0.0028169873169146026,0.0026520120369776744,-0.7297924887012187,0.683657776120402,0.0,0.0,0.0,0.0,0.0,0.0,0.0,0.0,0.0,-0.0003588199695090082,-0.0009100082518560659,-0.015407979206263807,0.0,0.0,0.0,0.0,0.0,0.0,0.0,0.0,0.0,-0.2569071453418511,0.055399389126945975,-0.0022118452055728127,0.0,0.0,0.0,0.0,0.0,0.0,0.0,0.0,0.0
2.807,74,2,807000000,base_footprint,0.0028126678786794717,0.002648773966626948,-0.7298305042662576,0.6836172232604575,0.0,0.0,0.0,0.0,0.0,0.0,0.0,0.0,0.0,0.0001448440629606782,0.0002583526845755441,-0.0028881204889745484,0.0,0.0,0.0,0.0,0.0,0.0,0.0,0.0,0.0,0.03824906400827614,-0.007692170191594025,0.002031908507387539,0.0,0.0,0.0,0.0,0.0,0.0,0.0,0.0,0.0
2.841,75,2,841000000,base_footprint,0.002811553849237081,0.0026485390960866995,-0.7298606971314631,0.6835849933902765,0.0,0.0,0.0,0.0,0.0,0.0,0.0,0.0,0.0,0.00012887819608687945,0.00019626394865410215,-0.001823346349715164,0.0,0.0,0.0,0.0,0.0,0.0,0.0,0.0,0.0,-0.005069374288742903,0.0013522396276993403,-9.835057356661627e-05,0.0,0.0,0.0,0.0,0.0,0.0,0.0,0.0,0.0
2.875,76,2,875000000,base_footprint,0.002811518049401044,0.0026491433033546093,-0.7298828628788862,0.6835613241558781,0.0,0.0,0.0,0.0,0.0,0.0,0.0,0.0,0.0,0.00011566436093137868,0.00010102480331072484,-0.002007256756713772,0.0,0.0,0.0,0.0,0.0,0.0,0.0,0.0,0.0,-0.005430909807693704,0.0011898300585490183,-0.00017160909114716634,0.0,0.0,0.0,0.0,0.0,0.0,0.0,0.0,0.0
2.909,77,2,909000000,base_footprint,0.002812494014941068,0.002650749066015888,-0.7299068229946479,0.683535729243662,0.0,0.0,0.0,0.0,0.0,0.0,0.0,0.0,0.0,0.00011931797424013805,2.144870959791475e-05,-0.0021423934747625663,0.0,0.0,0.0,0.0,0.0,0.0,0.0,0.0,0.0,-0.005255075670376698,0.0013020877024583297,-0.00016650974588082972,0.0,0.0,0.0,0.0,0.0,0.0,0.0,0.0,0.0
2.943,78,2,943000000,base_footprint,0.002812564336515877,0.0026473546661871772,-0.7302400155463552,0.6831797718682715,0.0,0.0,0.0,0.0,0.0,0.0,0.0,0.0,0.0,0.00015020601129961067,0.0012756376756835434,-0.10696065983419303,0.0,0.0,0.0,0.0,0.0,0.0,0.0,0.0,0.0,-0.11978075893726071,0.01919680166727146,0.0008323896954898059,0.0,0.0,0.0,0.0,0.0,0.0,0.0,0.0,0.0
2.9770000000000003,79,2,977000000,base_footprint,0.002827647689052702,0.0026365823935642282,-0.7322559099064522,0.6810186012502907,0.0,0.0,0.0,0.0,0.0,0.0,0.0,0.0,0.0,-0.0004626080148699601,0.0014006688821594578,-0.18724095119371978,0.0,0.0,0.0,0.0,0.0,0.0,0.0,0.0,0.0,-0.03556772181844236,0.04442118193804391,-0.0002008107612116858,0.0,0.0,0.0,0.0,0.0,0.0,0.0,0.0,0.0
3.011,80,3,11000000,base_footprint,0.002836275240625809,0.002643205816754455,-0.7339877786419096,0.6791516103272411,0.0,0.0,0.0,0.0,0.0,0.0,0.0,0.0,0.0,-4.591782779258787e-05,0.001168924769015801,-0.14185242979642504,0.0,0.0,0.0,0.0,0.0,0.0,0.0,0.0,0.0,0.1241675723038761,0.016379867133767274,7.95851950861101e-06,0.0,0.0,0.0,0.0,0.0,0.0,0.0,0.0,0.0
3.045,81,3,45000000,base_footprint,0.0028461461523923027,0.0026256493763163243,-0.7358155836566446,0.6771709032921183,0.0,0.0,0.0,0.0,0.0,0.0,0.0,0.0,0.0,-0.0005249228780358064,0.003110866828580402,-0.19862401537582375,0.0,0.0,0.0,0.0,0.0,0.0,0.0,0.0,0.0,0.045386793521639573,0.02717140805160658,0.0028805725481248342,0.0,0.0,0.0,0.0,0.0,0.0,0.0,0.0,0.0
3.079,82,3,79000000,base_footprint,0.002860101021832392,0.0026146704425753266,-0.7381903679102747,0.6745813250047135,0.0,0.0,0.0,0.0,0.0,0.0,0.0,0.0,0.0,-0.0011009300344551856,0.0007187470565904936,-0.2284731794052832,0.0,0.0,0.0,0.0,0.0,0.0,0.0,0.0,0.0,0.10399913498298982,0.028430369298061392,-0.00440518613637516,0.0,0.0,0.0,0.0,0.0,0.0,0.0,0.0,0.0
3.113,83,3,113000000,base_footprint,0.002861884813959579,0.0026088251705970217,-0.7404344524346925,0.6721174192760354,0.0,0.0,0.0,0.0,0.0,0.0,0.0,0.0,0.0,-1.7438948033976726e-05,0.0012479867113628158,-0.15345688571529112,0.0,0.0,0.0,0.0,0.0,0.0,0.0,0.0,0.0,0.17425023491193115,0.007224690795692781,0.0022334938374084117,0.0,0.0,0.0,0.0,0.0,0.0,0.0,0.0,0.0
3.1470000000000002,84,3,147000000,base_footprint,0.002857532846892894,0.002594803610840855,-0.7422310639527665,0.6701329339793669,0.0,0.0,0.0,0.0,0.0,0.0,0.0,0.0,0.0,0.0020941160326626612,-0.000783026452380945,-0.21099308482242535,0.0,0.0,0.0,0.0,0.0,0.0,0.0,0.0,0.0,-0.0009546978753562189,0.0340937356491825,-0.004320855590444167,0.0,0.0,0.0,0.0,0.0,0.0,0.0,0.0,0.0
3.181,85,3,181000000,base_footprint,0.002863243567981868,0.00258898805493144,-0.7446885206134644,0.6674010085725461,0.0,0.0,0.0,0.0,0.0,0.0,0.0,0.0,0.0,8.624744607658264e-05,0.0017950573040865269,-0.20568284377875712,0.0,0.0,0.0,0.0,0.0,0.0,0.0,0.0,0.0,-0.03999959846795154,0.05543749522851036,0.005387318959702427,0.0,0.0,0.0,0.0,0.0,0.0,0.0,0.0,0.0
3.215,86,3,215000000,base_footprint,0.0028714932194189914,0.0025774789281269145,-0.746734713366857,0.6651108020337542,0.0,0.0,0.0,0.0,0.0,0.0,0.0,0.0,0.0,0.0001930910000929582,0.0014268485046673503,-0.15041424265910786,0.0,0.0,0.0,0.0,0.0,0.0,0.0,0.0,0.0,-0.1071250423872622,0.06716454717144506,0.0005287139813132261,0.0,0.0,0.0,0.0,0.0,0.0,0.0,0.0,0.0
3.249,87,3,249000000,base_footprint,0.002885590827934911,0.002573586411946588,-0.7478212399768421,0.6638888785467433,0.0,0.0,0.0,0.0,0.0,0.0,0.0,0.0,0.0,-0.0009890571844750895,0.0011052615949012857,-0.018668612024170986,0.0,0.0,0.0,0.0,0.0,0.0,0.0,0.0,0.0,0.2608656516204884,-0.040091384499087016,-6.483248454876506e-05,0.0,0.0,0.0,0.0,0.0,0.0,0.0,0.0,0.0
3.283,88,3,283000000,base_footprint,0.0028840384817956878,0.0025720016398252657,-0.7480187956846411,0.6636662929756939,0.0,0.0,0.0,0.0,0.0,0.0,0.0,0.0,0.0,0.00014226393527483198,0.00033530752444206716,-0.01764613818009554,0.0,0.0,0.0,0.0,0.0,0.0,0.0,0.0,0.0,0.003428161025159741,0.0027487780559300513,-0.0001485703317380556,0.0,0.0,0.0,0.0,0.0,0.0,0.0,0.0,0.0
3.317,89,3,317000000,base_footprint,0.002883339025896039,0.0025712160338844533,-0.7482181155185949,0.6634415775439247,0.0,0.0,0.0,0.0,0.0,0.0,0.0,0.0,0.0,0.00017320827979400925,0.00028358572339071234,-0.01777547292656546,0.0,0.0,0.0,0.0,0.0,0.0,0.0,0.0,0.0,-0.004152430260716519,0.004884696983727149,-1.795599888770598e-05,0.0,0.0,0.0,0.0,0.0,0.0,0.0,0.0,0.0
3.351,90,3,351000000,base_footprint,0.00288320482387152,0.0025716882916138046,-0.7483190638774999,0.6633277110047314,0.0,0.0,0.0,0.0,0.0,0.0,0.0,0.0,0.0,0.00011777423599539963,4.409644845846828e-05,-0.0029517679831412525,0.0,0.0,0.0,0.0,0.0,0.0,0.0,0.0,0.0,-0.0007133561224809903,0.0022874692478597803,-0.00017355005182052575,0.0,0.0,0.0,0.0,0.0,0.0,0.0,0.0,0.0
3.385,91,3,385000000,base_footprint,0.002883748577666182,0.002573329631771002,-0.7483528293177478,0.6632896085578825,0.0,0.0,0.0,0.0,0.0,0.0,0.0,0.0,0.0,0.0001495358583781215,2.6788526369863442e-05,-0.003060232153255338,0.0,0.0,0.0,0.0,0.0,0.0,0.0,0.0,0.0,-0.004737563760685335,0.002019403208903976,-9.867653522331965e-05,0.0,0.0,0.0,0.0,0.0,0.0,0.0,0.0,0.0
3.419,92,3,419000000,base_footprint,0.0028852332596669187,0.0025761104131008096,-0.7483864965557073,0.6632516044890138,0.0,0.0,0.0,0.0,0.0,0.0,0.0,0.0,0.0,0.00015200030305394246,-6.401979077669571e-05,-0.002929759802411209,0.0,0.0,0.0,0.0,0.0,0.0,0.0,0.0,0.0,-0.0041187525369130555,0.0018583637942122973,-0.00018209700730120336,0.0,0.0,0.0,0.0,0.0,0.0,0.0,0.0,0.0
3.453,93,3,453000000,base_footprint,0.0028843446864340984,0.002570687991749439,-0.7485239533126335,0.6630964963232767,0.0,0.0,0.0,0.0,0.0,0.0,0.0,0.0,0.0,1.6296214403320735e-05,0.0004378545341677556,-0.05007652730238528,0.0,0.0,0.0,0.0,0.0,0.0,0.0,0.0,0.0,-0.2831890031416071,0.0715319338586105,0.000566844515269729,0.0,0.0,0.0,0.0,0.0,0.0,0.0,0.0,0.0
3.487,94,3,487000000,base_footprint,0.0028930785360103558,0.0025833084419988575,-0.7488745095359578,0.6627004795391028,0.0,0.0,0.0,0.0,0.0,0.0,0.0,0.0,0.0,0.00016166146916145844,0.0003595184218066728,0.0051700767530138605,0.0,0.0,0.0,0.0,0.0,0.0,0.0,0.0,0.0,-0.034536964500146934,0.018576133210450017,0.0002890891690559798,0.0,0.0,0.0,0.0,0.0,0.0,0.0,0.0,0.0
3.521,95,3,521000000,base_footprint,0.0028946185772381772,0.002573935233926735,-0.7488579001458829,0.6627192779977075,0.0,0.0,0.0,0.0,0.0,0.0,0.0,0.0,0.0,-0.0005850889862165982,0.00030823260623328175,-0.0019169139522755949,0.0,0.0,0.0,0.0,0.0,0.0,0.0,0.0,0.0,-0.01730882137362641,-0.0026859397408434023,-1.8667261549844787e-05,0.0,0.0,0.0,0.0,0.0,0.0,0.0,0.0,0.0
3.555,96,3,555000000,base_footprint,0.002899705714782768,0.002569959365681513,-0.7491735478318794,0.6623624251454947,0.0,0.0,0.0,0.0,0.0,0.0,0.0,0.0,0.0,0.0003499296193423637,0.0005923596887791235,-0.04825899021794618,0.0,0.0,0.0,0.0,0.0,0.0,0.0,0.0,0.0,0.05829311948287999,-0.008216265619665927,-0.00035299553043136283,0.0,0.0,0.0,0.0,0.0,0.0,0.0,0.0,0.0
3.589,97,3,589000000,base_footprint,0.002901195346401354,0.0025697634310229336,-0.7498890592902276,0.6615522489858894,0.0,0.0,0.0,0.0,0.0,0.0,0.0,0.0,0.0,0.00026283391634875075,0.0011384473695466469,-0.06588864080199056,0.0,0.0,0.0,0.0,0.0,0.0,0.0,0.0,0.0,-0.04160521441748263,0.021480450251763095,0.0012896305067457863,0.0,0.0,0.0,0.0,0.0,0.0,0.0,0.0,0.0
3.623,98,3,623000000,base_footprint,0.0028971601207574914,0.002568467552876601,-0.7507132847980678,0.6606168128842618,0.0,0.0,0.0,0.0,0.0,0.0,0.0,0.0,0.0,0.00037422929338397435,0.0009256025255607728,-0.08675882867427785,0.0,0.0,0.0,0.0,0.0,0.0,0.0,0.0,0.0,0.03830316302910003,0.011231944884538407,-0.000544951703426338,0.0,0.0,0.0,0.0,0.0,0.0,0.0,0.0,0.0
3.657,99,3,657000000,base_footprint,0.0028958381349778587,0.0025594090609634495,-0.7517629983955063,0.6594220634693327,0.0,0.0,0.0,0.0,0.0,0.0,0.0,0.0,0.0,-0.00015993756528713397,0.0012946450120158138,-0.09314455112160652,0.0,0.0,0.0,0.0,0.0,0.0,0.0,0.0,0.0,0.03914942487820011,0.01013631245665893,-1.2760776268031022e-05,0.0,0.0,0.0,0.0,0.0,0.0,0.0,0.0,0.0
3.691,100,3,691000000,base_footprint,0.002907651451557913,0.0025532433778227203,-0.7526591681900937,0.6583989695091315,0.0,0.0,0.0,0.0,0.0,0.0,0.0,0.0,0.0,-0.0009536455869554581,1.04286829395718e-05,-0.06447192272705951,0.0,0.0,0.0,0.0,0.0,0.0,0.0,0.0,0.0,-0.05710631023129044,0.038981169290103916,-0.0008352714996056831,0.0,0.0,0.0,0.0,0.0,0.0,0.0,0.0,0.0
3.725,101,3,725000000,base_footprint,0.0029090013349054996,0.0025478821245235824,-0.7533961785128072,0.6575555065621544,0.0,0.0,0.0,0.0,0.0,0.0,0.0,0.0,0.0,6.697978833056234e-05,0.000854888874683046,-0.06576923883686128,0.0,0.0,0.0,0.0,0.0,0.0,0.0,0.0,0.0,-7.047760199862738e-05,0.012731887395751039,0.0015086013709895351,0.0,0.0,0.0,0.0,0.0,0.0,0.0,0.0,0.0
3.759,102,3,759000000,base_footprint,0.002908323038670176,0.002545610163963895,-0.7537545145630817,0.657144727820112,0.0,0.0,0.0,0.0,0.0,0.0,0.0,0.0,0.0,8.769741856979446e-05,0.00034641906652391695,-0.02410376804552875,0.0,0.0,0.0,0.0,0.0,0.0,0.0,0.0,0.0,0.00739015636741997,0.005520504217487572,-9.03501107376007e-05,0.0,0.0,0.0,0.0,0.0,0.0,0.0,0.0,0.0
3.793,103,3,793000000,base_footprint,0.002907205944222665,0.0025447219086193475,-0.7540259055960995,0.6568333169335944,0.0,0.0,0.0,0.0,0.0,0.0,0.0,0.0,0.0,0.0001229936105888235,0.0003802644636611963,-0.02450425043841234,0.0,0.0,0.0,0.0,0.0,0.0,0.0,0.0,0.0,-0.003707318924486264,0.006878784489102192,3.4576750759201e-05,0.0,0.0,0.0,0.0,0.0,0.0,0.0,0.0,0.0
3.827,104,3,827000000,base_footprint,0.0029075782789244,0.0025451901169505895,-0.7543005457869636,0.6565179012192353,0.0,0.0,0.0,0.0,0.0,0.0,0.0,0.0,0.0,0.00012348595393984872,0.0002792690962936735,-0.024788482198904407,0.0,0.0,0.0,0.0,0.0,0.0,0.0,0.0,0.0,-0.0038636964238625577,0.0068297972211550685,-0.00015810284161058843,0.0,0.0,0.0,0.0,0.0,0.0,0.0,0.0,0.0
3.861,105,3,861000000,base_footprint,0.002910305175483654,0.002546108768705217,-0.7548525645639322,0.6558831094220814,0.0,0.0,0.0,0.0,0.0,0.0,0.0,0.0,0.0,0.00019030802293427062,0.00042064837154134833,-0.05272933254321563,0.0,0.0,0.0,0.0,0.0,0.0,0.0,0.0,0.0,-0.009097994339070622,0.013941045984653018,-9.498129008530764e-05,0.0,0.0,0.0,0.0,0.0,0.0,0.0,0.0,0.0
3.895,106,3,895000000,base_footprint,0.0029139588164741287,0.0025472277876026767,-0.7554383320861572,0.6552083232755053,0.0,0.0,0.0,0.0,0.0,0.0,0.0,0.0,0.0,0.00019183597260565824,0.0003711603287862396,-0.05240775067383433,0.0,0.0,0.0,0.0,0.0,0.0,0.0,0.0,0.0,-0.00041747010535885844,0.012571876978895877,-7.569153357235427e-05,0.0,0.0,0.0,0.0,0.0,0.0,0.0,0.0,0.0
3.9290000000000003,107,3,929000000,base_footprint,0.002918023563633165,0.0025469973741525024,-0.7560125844318336,0.6545456211170907,0.0,0.0,0.0,0.0,0.0,0.0,0.0,0.0,0.0,0.00014144129056873212,0.00034869847216029533,-0.050543413077064156,0.0,0.0,0.0,0.0,0.0,0.0,0.0,0.0,0.0,0.0033666548864579107,0.011131920316456156,5.3121557929163165e-05,0.0,0.0,0.0,0.0,0.0,0.0,0.0,0.0,0.0
3.963,108,3,963000000,base_footprint,0.0029275674026672995,0.0025377029691650912,-0.7577875242357568,0.6524898907457384,0.0,0.0,0.0,0.0,0.0,0.0,0.0,0.0,0.0,0.00038542130972834377,0.0008406224229906201,-0.1908360148751075,0.0,0.0,0.0,0.0,0.0,0.0,0.0,0.0,0.0,0.009469975277174464,0.032577184119380764,-0.0010627519049454554,0.0,0.0,0.0,0.0,0.0,0.0,0.0,0.0,0.0
3.997,109,3,997000000,base_footprint,0.00294116997744787,0.002529651973732821,-0.7595655290998111,0.6504192166467558,0.0,0.0,0.0,0.0,0.0,0.0,0.0,0.0,0.0,0.0005825250777267019,-0.0009011261763430544,-0.15313281752402613,0.0,0.0,0.0,0.0,0.0,0.0,0.0,0.0,0.0,0.040709375130436265,0.023070018964816405,-0.001709182917579359,0.0,0.0,0.0,0.0,0.0,0.0,0.0,0.0,0.0
4.031,110,4,31000000,base_footprint,0.0029466517804180676,0.0025147393842849435,-0.761093656735589,0.6486304333023262,0.0,0.0,0.0,0.0,0.0,0.0,0.0,0.0,0.0,-0.0020030282825215075,0.0010968476243055159,-0.11235971171905093,0.0,0.0,0.0,0.0,0.0,0.0,0.0,0.0,0.0,0.10107029762107031,-0.0026077763735448123,0.0004089926067257059,0.0,0.0,0.0,0.0,0.0,0.0,0.0,0.0,0.0
4.065,111,4,65000000,base_footprint,0.0029496883555395004,0.0025138542429505527,-0.7615293329814197,0.6481188586087621,0.0,0.0,0.0,0.0,0.0,0.0,0.0,0.0,0.0,5.1638435876030455e-05,0.00024240489740198632,0.011390660287545564,0.0,0.0,0.0,0.0,0.0,0.0,0.0,0.0,0.0,0.18350979708716597,-0.04859695022863862,0.003522906998265978,0.0,0.0,0.0,0.0,0.0,0.0,0.0,0.0,0.0
4.099,112,4,99000000,base_footprint,0.002939915055268319,0.0025173934276173774,-0.7611810207052273,0.6485279279629729,0.0,0.0,0.0,0.0,0.0,0.0,0.0,0.0,0.0,0.000970761296230876,0.0006289190844708687,0.025401289697984976,0.0,0.0,0.0,0.0,0.0,0.0,0.0,0.0,0.0,0.08260400396315881,-0.039635278219909406,0.0009179636840001095,0.0,0.0,0.0,0.0,0.0,0.0,0.0,0.0,0.0
4.133,113,4,133000000,base_footprint,0.0029347550634455126,0.002511411304542575,-0.7610925323688338,0.6486318194464198,0.0,0.0,0.0,0.0,0.0,0.0,0.0,0.0,0.0,0.001120268797770685,0.004697954877825115,-0.01577842770776207,0.0,0.0,0.0,0.0,0.0,0.0,0.0,0.0,0.0,0.012787375672686455,-0.0012166594241313378,0.00875736000793394,0.0,0.0,0.0,0.0,0.0,0.0,0.0,0.0,0.0
4.167,114,4,167000000,base_footprint,0.0029309480155926427,0.002510344788042207,-0.7619878123379957,0.6475798650059547,0.0,0.0,0.0,0.0,0.0,0.0,0.0,0.0,0.0,-1.075194286102544e-05,0.0006278658719083253,-0.08806055645201308,0.0,0.0,0.0,0.0,0.0,0.0,0.0,0.0,0.0,-0.20598842939790696,0.0854493869273603,-0.009934779456728864,0.0,0.0,0.0,0.0,0.0,0.0,0.0,0.0,0.0
4.201,115,4,201000000,base_footprint,0.0029332111923510823,0.0025061363106720054,-0.7626014180419206,0.6468571656504589,0.0,0.0,0.0,0.0,0.0,0.0,0.0,0.0,0.0,-0.001615118813286467,-0.0011550264253360654,-0.021300329337809176,0.0,0.0,0.0,0.0,0.0,0.0,0.0,0.0,0.0,-0.13101930303740966,0.059808983205164055,-0.0026143492439953705,0.0,0.0,0.0,0.0,0.0,0.0,0.0,0.0,0.0
4.235,116,4,235000000,base_footprint,0.002941873855951072,0.0025066214416403234,-0.7627453342240096,0.6466874185776834,0.0,0.0,0.0,0.0,0.0,0.0,0.0,0.0,0.0,-0.0001310618818825338,0.00021331709489923713,-0.006807985952054745,0.0,0.0,0.0,0.0,0.0,0.0,0.0,0.0,0.0,-0.02050015898845805,0.00931828068563538,0.00278017267053164,0.0,0.0,0.0,0.0,0.0,0.0,0.0,0.0,0.0
4.269,117,4,269000000,base_footprint,0.0029409962529206926,0.0025066507452474367,-0.76281898914984,0.6466005390003149,0.0,0.0,0.0,0.0,0.0,0.0,0.0,0.0,0.0,0.00020406331845314158,0.00019385169688769836,-0.006903705414376992,0.0,0.0,0.0,0.0,0.0,0.0,0.0,0.0,0.0,-0.004475187713767949,0.0033177378961953786,0.00039924797995244605,0.0,0.0,0.0,0.0,0.0,0.0,0.0,0.0,0.0
4.303,118,4,303000000,base_footprint,0.002940302383809075,0.00250745093109008,-0.7628949252868102,0.6465109436686685,0.0,0.0,0.0,0.0,0.0,0.0,0.0,0.0,0.0,0.00019049608414037236,0.00011238403224713965,-0.0070220232343954515,0.0,0.0,0.0,0.0,0.0,0.0,0.0,0.0,0.0,-0.00465104724046499,0.0032968045010783936,-0.00016023741688817348,0.0,0.0,0.0,0.0,0.0,0.0,0.0,0.0,0.0
4.337,119,4,337000000,base_footprint,0.0029415044161386216,0.0025107884103789647,-0.7629321880467439,0.6464669519283536,0.0,0.0,0.0,0.0,0.0,0.0,0.0,0.0,0.0,-0.0006289238006910496,-0.0004655954054557426,0.014940717255659583,0.0,0.0,0.0,0.0,0.0,0.0,0.0,0.0,0.0,0.0006835177270752048,0.0010301583730785524,-0.00017836100287631803,0.0,0.0,0.0,0.0,0.0,0.0,0.0,0.0,0.0
4.371,120,4,371000000,base_footprint,0.0029404450574135967,0.0025121582952310397,-0.762775882106989,0.6466513716984362,0.0,0.0,0.0,0.0,0.0,0.0,0.0,0.0,0.0,0.00015891844000488986,-0.00018600694058634208,0.014218301033243442,0.0,0.0,0.0,0.0,0.0,0.0,0.0,0.0,0.0,-0.0049476536068332865,-0.0007177254705595859,-0.00011305138165076921,0.0,0.0,0.0,0.0,0.0,0.0,0.0,0.0,0.0
4.405,121,4,405000000,base_footprint,0.0029415045059453452,0.002516316861607257,-0.7626118404794238,0.646844800907667,0.0,0.0,0.0,0.0,0.0,0.0,0.0,0.0,0.0,9.016843607947363e-05,-0.00018861608626425356,0.01583414602196179,0.0,0.0,0.0,0.0,0.0,0.0,0.0,0.0,0.0,-0.0020755766214732674,-0.0026413828566735427,-4.779220042770896e-05,0.0,0.0,0.0,0.0,0.0,0.0,0.0,0.0,0.0
4.439,122,4,439000000,base_footprint,0.002943277605847338,0.0025196736441500103,-0.7624156170607219,0.647076050571786,0.0,0.0,0.0,0.0,0.0,0.0,0.0,0.0,0.0,-0.0002457362322630114,-0.0001683315426187021,0.02201249906686099,0.0,0.0,0.0,0.0,0.0,0.0,0.0,0.0,0.0,-0.0017901737547675158,-0.006751367843130553,-0.00018310763236698764,0.0,0.0,0.0,0.0,0.0,0.0,0.0,0.0,0.0
4.473,123,4,473000000,base_footprint,0.0029480280525467696,0.0025141295434118814,-0.7621731412770486,0.6473616384982328,0.0,0.0,0.0,0.0,0.0,0.0,0.0,0.0,0.0,-0.0004022143147528593,-6.721574433471311e-05,0.02290401120587509,0.0,0.0,0.0,0.0,0.0,0.0,0.0,0.0,0.0,0.0010592222191573007,-0.006695251138035246,0.00016089651902928139,0.0,0.0,0.0,0.0,0.0,0.0,0.0,0.0,0.0
4.507,124,4,507000000,base_footprint,0.0029496388925720264,0.00251415687933245,-0.7618478024265526,0.647744474761014,0.0,0.0,0.0,0.0,0.0,0.0,0.0,0.0,0.0,-3.570697608818826e-05,-0.000554786228574528,0.03400352707668558,0.0,0.0,0.0,0.0,0.0,0.0,0.0,0.0,0.0,0.030976009208706766,-0.01320459204525548,-0.0008557404179372224,0.0,0.0,0.0,0.0,0.0,0.0,0.0,0.0,0.0
4.541,125,4,541000000,base_footprint,0.0029483361796906523,0.0025159042906874505,-0.7615328071878575,0.6481147746471708,0.0,0.0,0.0,0.0,0.0,0.0,0.0,0.0,0.0,0.0002557442920259411,0.0003876843684871215,0.03135675797826047,0.0,0.0,0.0,0.0,0.0,0.0,0.0,0.0,0.0,-0.007661932385261732,-0.007143984350930406,0.0018129245851377198,0.0,0.0,0.0,0.0,0.0,0.0,0.0,0.0,0.0
4.575,126,4,575000000,base_footprint,0.0029367632924177847,0.002518091197387145,-0.7612486345684429,0.6484485723677454,0.0,0.0,0.0,0.0,0.0,0.0,0.0,0.0,0.0,0.0009833848608320635,0.0003613342432966241,0.01750765880014656,0.0,0.0,0.0,0.0,0.0,0.0,0.0,0.0,0.0,0.016392157590647213,-0.014658177176872816,0.00012413181707102126,0.0,0.0,0.0,0.0,0.0,0.0,0.0,0.0,0.0
4.609,127,4,609000000,base_footprint,0.0029347116622711993,0.0025165340658189986,-0.7612229898010863,0.648478692265251,0.0,0.0,0.0,0.0,0.0,0.0,0.0,0.0,0.0,0.0008442549619017169,0.0007031488591271171,-0.002339131393152327,0.0,0.0,0.0,0.0,0.0,0.0,0.0,0.0,0.0,0.03753650380256067,-0.00974824831806139,-3.3538514988574466e-05,0.0,0.0,0.0,0.0,0.0,0.0,0.0,0.0,0.0
4.643,128,4,643000000,base_footprint,0.002928008420696164,0.0025141226995133046,-0.7609927739200144,0.648748875910596,0.0,0.0,0.0,0.0,0.0,0.0,0.0,0.0,0.0,-0.0008654107234883765,-0.002150742542100575,0.06446829527871772,0.0,0.0,0.0,0.0,0.0,0.0,0.0,0.0,0.0,-0.0039501800715710765,-0.0013604073157373212,-0.004253937166920594,0.0,0.0,0.0,0.0,0.0,0.0,0.0,0.0,0.0
4.677,129,4,677000000,base_footprint,0.0029328714943420184,0.0025177235909392614,-0.7601318878011615,0.6497573181431354,0.0,0.0,0.0,0.0,0.0,0.0,0.0,0.0,0.0,-0.00020807992239717178,-0.000500095099381941,0.08004792775617181,0.0,0.0,0.0,0.0,0.0,0.0,0.0,0.0,0.0,-0.047690420112392246,-0.0021125207171045247,0.003206222547234438,0.0,0.0,0.0,0.0,0.0,0.0,0.0,0.0,0.0
4.71,130,4,711000000,base_footprint,0.0029280615381489295,0.0025214551376743877,-0.7592502547583198,0.6507873073201751,0.0,0.0,0.0,0.0,0.0,0.0,0.0,0.0,0.0,-0.00014308862128192172,-0.00042879583482705844,0.07951007422045178,0.0,0.0,0.0,0.0,0.0,0.0,0.0,0.0,0.0,-0.009781745356051481,-0.01525192083918216,-6.799681467429977e-05,0.0,0.0,0.0,0.0,0.0,0.0,0.0,0.0,0.0
4.745,131,4,745000000,base_footprint,0.0029236671669081835,0.002527033142186049,-0.7584090726536531,0.6517674008343938,0.0,0.0,0.0,0.0,0.0,0.0,0.0,0.0,0.0,0.0013696445008136676,-2.5184722169386393e-05,0.04863686013729909,0.0,0.0,0.0,0.0,0.0,0.0,0.0,0.0,0.0,0.30211204789318824,-0.11099867314991763,0.0008128236115052659,0.0,0.0,0.0,0.0,0.0,0.0,0.0,0.0,0.0
4.779,132,4,779000000,base_footprint,0.002920541697105601,0.0025294003813996734,-0.7578882096670313,0.6523730023672103,0.0,0.0,0.0,0.0,0.0,0.0,0.0,0.0,0.0,4.4153203999799836e-05,-0.0002445805571438953,0.0469751196752574,0.0,0.0,0.0,0.0,0.0,0.0,0.0,0.0,0.0,-0.003271809617627913,-0.009540196186564914,-0.0014006365725992974,0.0,0.0,0.0,0.0,0.0,0.0,0.0,0.0,0.0
4.813,133,4,813000000,base_footprint,0.002919030232865031,0.002534168280927949,-0.757366411361507,0.6529786950544529,0.0,0.0,0.0,0.0,0.0,0.0,0.0,0.0,0.0,8.794944093038869e-05,-0.0003312990137192377,0.04703302940223744,0.0,0.0,0.0,0.0,0.0,0.0,0.0,0.0,0.0,-0.0073152882619912755,-0.007669394085108385,-0.00031293803845998803,0.0,0.0,0.0,0.0,0.0,0.0,0.0,0.0,0.0
4.847,134,4,847000000,base_footprint,0.002914354612133255,0.0025332692369483224,-0.7568460147792644,0.6535818227252909,0.0,0.0,0.0,0.0,0.0,0.0,0.0,0.0,0.0,-1.9688922826433933e-05,-0.00019568518311392777,0.03494561535941443,0.0,0.0,0.0,0.0,0.0,0.0,0.0,0.0,0.0,-0.29568842685082714,0.07911203642531071,0.0004757829568895049,0.0,0.0,0.0,0.0,0.0,0.0,0.0,0.0,0.0
4.881,135,4,881000000,base_footprint,0.002919387804439666,0.0025434207090332924,-0.7566284423027476,0.6538336244676178,0.0,0.0,0.0,0.0,0.0,0.0,0.0,0.0,0.0,9.665857285179772e-05,-0.00020076729654120787,0.01999222030593383,0.0,0.0,0.0,0.0,0.0,0.0,0.0,0.0,0.0,-0.04823697222768561,0.010569290195963865,-0.000361680134036257,0.0,0.0,0.0,0.0,0.0,0.0,0.0,0.0,0.0
4.915,136,4,915000000,base_footprint,0.002920813322637805,0.0025470251900394088,-0.756393373991285,0.6541055307015037,0.0,0.0,0.0,0.0,0.0,0.0,0.0,0.0,0.0,1.516928990954547e-05,-0.00021241812504673,0.02235483025666639,0.0,0.0,0.0,0.0,0.0,0.0,0.0,0.0,0.0,0.00042829510521818614,-0.004563024835628891,-0.00018169291668621127,0.0,0.0,0.0,0.0,0.0,0.0,0.0,0.0,0.0
4.949,137,4,949000000,base_footprint,0.0029237086709618964,0.0025423504576452065,-0.756145420013787,0.654392154731344,0.0,0.0,0.0,0.0,0.0,0.0,0.0,0.0,0.0,-0.0005393068150815831,5.293523658213544e-05,0.021660838237074237,0.0,0.0,0.0,0.0,0.0,0.0,0.0,0.0,0.0,-0.0060265218338086774,-0.007984020489022544,0.0003084069789753281,0.0,0.0,0.0,0.0,0.0,0.0,0.0,0.0,0.0
4.9830000000000005,138,4,983000000,base_footprint,0.0029259168340232023,0.0025400292446196397,-0.7558551098926779,0.6547274548323484,0.0,0.0,0.0,0.0,0.0,0.0,0.0,0.0,0.0,-0.0002165023552405699,-0.0002914529083153055,0.03396737105913598,0.0,0.0,0.0,0.0,0.0,0.0,0.0,0.0,0.0,0.03371750885219556,-0.013656208353329305,-0.0005247149872710606,0.0,0.0,0.0,0.0,0.0,0.0,0.0,0.0,0.0
5.017,139,5,17000000,base_footprint,0.00292396699609034,0.0025438839527731484,-0.7555333368738061,0.6550987375531818,0.0,0.0,0.0,0.0,0.0,0.0,0.0,0.0,0.0,0.0002028970687853291,0.0005010481580758888,0.026913935460591842,0.0,0.0,0.0,0.0,0.0,0.0,0.0,0.0,0.0,-0.00975379642063584,-0.00914566518572484,0.0014430306914300674,0.0,0.0,0.0,0.0,0.0,0.0,0.0,0.0,0.0
5.051,140,5,51000000,base_footprint,0.002912967353173222,0.0025465389103409876,-0.7552634066422815,0.6554099605192717,0.0,0.0,0.0,0.0,0.0,0.0,0.0,0.0,0.0,3.5697710766685316e-06,-0.0006245018497366885,0.013665485618018197,0.0,0.0,0.0,0.0,0.0,0.0,0.0,0.0,0.0,0.04520154968280843,-0.016137765836421424,-0.0021059426178731706,0.0,0.0,0.0,0.0,0.0,0.0,0.0,0.0,0.0
5.085,141,5,85000000,base_footprint,0.002909921067789392,0.002544636725147616,-0.7552142538359852,0.6554666185140724,0.0,0.0,0.0,0.0,0.0,0.0,0.0,0.0,0.0,0.0005871284528211249,0.0002854793481410866,0.0052280548671230585,0.0,0.0,0.0,0.0,0.0,0.0,0.0,0.0,0.0,0.016331256316159427,-0.004475626025497876,0.002115030032034035,0.0,0.0,0.0,0.0,0.0,0.0,0.0,0.0,0.0
5.119,142,5,119000000,base_footprint,0.0029172169011912343,0.002542976892629928,-0.7550012312049782,0.6557119519980111,0.0,0.0,0.0,0.0,0.0,0.0,0.0,0.0,0.0,-0.00018213654025962014,-0.00015243956006444242,0.03175912641074062,0.0,0.0,0.0,0.0,0.0,0.0,0.0,0.0,0.0,-0.05995431460269747,0.01580125457203493,-0.0008208087990847144,0.0,0.0,0.0,0.0,0.0,0.0,0.0,0.0,0.0
5.153,143,5,153000000,base_footprint,0.0029115615553526753,0.0025425881505037823,-0.7546656610972069,0.6560981618748235,0.0,0.0,0.0,0.0,0.0,0.0,0.0,0.0,0.0,-6.428475718276401e-05,1.5982155600548163e-05,0.02996877320346737,0.0,0.0,0.0,0.0,0.0,0.0,0.0,0.0,0.0,-0.0017704136480924094,-0.007678991232494466,2.0252417044099377e-05,0.0,0.0,0.0,0.0,0.0,0.0,0.0,0.0,0.0
5.187,144,5,187000000,base_footprint,0.0029090453128557854,0.002543618635743525,-0.7543332699275898,0.656480300801139,0.0,0.0,0.0,0.0,0.0,0.0,0.0,0.0,0.0,2.086597716758491e-05,4.56529242224823e-05,0.029564802891112997,0.0,0.0,0.0,0.0,0.0,0.0,0.0,0.0,0.0,-0.006655867617553579,-0.004583881542420766,8.009420328363872e-05,0.0,0.0,0.0,0.0,0.0,0.0,0.0,0.0,0.0
5.221,145,5,221000000,base_footprint,0.002906011978365674,0.0025451895741008994,-0.7540036888793799,0.6568588236909824,0.0,0.0,0.0,0.0,0.0,0.0,0.0,0.0,0.0,5.069598567608524e-05,-2.364867826637579e-05,0.0293873314261781,0.0,0.0,0.0,0.0,0.0,0.0,0.0,0.0,0.0,-0.007188784603907812,-0.0044858714931987325,-0.00013578243686337244,0.0,0.0,0.0,0.0,0.0,0.0,0.0,0.0,0.0
5.255,146,5,255000000,base_footprint,0.0029040033369046214,0.0025481229535147727,-0.7536312768100669,0.6572860659162502,0.0,0.0,0.0,0.0,0.0,0.0,0.0,0.0,0.0,4.557123546994503e-05,-0.00014475801353537533,0.034839341245599204,0.0,0.0,0.0,0.0,0.0,0.0,0.0,0.0,0.0,-0.005958641958039466,-0.005804587233581155,-0.0002254131795316816,0.0,0.0,0.0,0.0,0.0,0.0,0.0,0.0,0.0
5.289,147,5,289000000,base_footprint,0.0029030930581980235,0.0025519948327664124,-0.7532411050893199,0.6577331502797233,0.0,0.0,0.0,0.0,0.0,0.0,0.0,0.0,0.0,7.21080028932712e-05,-0.0001780368809391483,0.034966497566827924,0.0,0.0,0.0,0.0,0.0,0.0,0.0,0.0,0.0,-0.006459371845604251,-0.005519657589184307,-0.00020459953927270486,0.0,0.0,0.0,0.0,0.0,0.0,0.0,0.0,0.0
5.323,148,5,323000000,base_footprint,0.0029019718982692044,0.002554385658345173,-0.7528513120641067,0.6581792731439994,0.0,0.0,0.0,0.0,0.0,0.0,0.0,0.0,0.0,0.0001204684799860784,-0.00026331434669012155,0.03481957180334154,0.0,0.0,0.0,0.0,0.0,0.0,0.0,0.0,0.0,-0.007313432436830443,-0.004581724195044462,-0.00022206236252149164,0.0,0.0,0.0,0.0,0.0,0.0,0.0,0.0,0.0
5.357,149,5,357000000,base_footprint,0.0029018453579803603,0.0025593261415839783,-0.7524155212710901,0.6586773963736522,0.0,0.0,0.0,0.0,0.0,0.0,0.0,0.0,0.0,2.5930786174713672e-05,-0.0004326089587095587,0.040554973750899434,0.0,0.0,0.0,0.0,0.0,0.0,0.0,0.0,0.0,-0.004227856759826279,-0.00747867408915297,-0.00042795805599190185,0.0,0.0,0.0,0.0,0.0,0.0,0.0,0.0,0.0
5.391,150,5,391000000,base_footprint,0.002901916024287795,0.0025647680290186684,-0.7519507100381099,0.6592079569616313,0.0,0.0,0.0,0.0,0.0,0.0,0.0,0.0,0.0,-8.622583064350189e-05,-0.0006005718458701982,0.042684745702270405,0.0,0.0,0.0,0.0,0.0,0.0,0.0,0.0,0.0,-0.0021973375884281844,-0.011987006799631304,-0.0004664877094848111,0.0,0.0,0.0,0.0,0.0,0.0,0.0,0.0,0.0
5.425,151,5,425000000,base_footprint,0.002906102181366012,0.0025636651966522727,-0.7514783755399685,0.6597463401085912,0.0,0.0,0.0,0.0,0.0,0.0,0.0,0.0,0.0,-0.0005358204372150704,-8.240513379465853e-05,0.04116768533809928,0.0,0.0,0.0,0.0,0.0,0.0,0.0,0.0,0.0,-0.005288570457431422,-0.009329760454282448,0.0008325940318963901,0.0,0.0,0.0,0.0,0.0,0.0,0.0,0.0,0.0
5.459,152,5,459000000,base_footprint,0.002897813080414043,0.002563332953496145,-0.751634380938241,0.6595686388808277,0.0,0.0,0.0,0.0,0.0,0.0,0.0,0.0,0.0,0.0004966648158896875,0.00042274161707347383,-0.08604906698760105,0.0,0.0,0.0,0.0,0.0,0.0,0.0,0.0,0.0,0.17022074209528495,-0.042615093301291776,-0.0006738002206140065,0.0,0.0,0.0,0.0,0.0,0.0,0.0,0.0,0.0
5.493,153,5,493000000,base_footprint,0.0029017242494255926,0.0025562008694297385,-0.7521950811510145,0.6589291355872149,0.0,0.0,0.0,0.0,0.0,0.0,0.0,0.0,0.0,0.00020717735024733207,-0.0002250682712471349,0.014314724332610615,0.0,0.0,0.0,0.0,0.0,0.0,0.0,0.0,0.0,0.1160100521826062,-0.02208606268640713,0.00047754480757269924,0.0,0.0,0.0,0.0,0.0,0.0,0.0,0.0,0.0
5.527,154,5,527000000,base_footprint,0.0029034639262123644,0.0025617415401969997,-0.751776254803926,0.6594069078273999,0.0,0.0,0.0,0.0,0.0,0.0,0.0,0.0,0.0,5.86119654248477e-05,0.0003890995757393275,0.025582276201223293,0.0,0.0,0.0,0.0,0.0,0.0,0.0,0.0,0.0,0.10022533046123808,-0.03273155782004226,0.0005245274452975045,0.0,0.0,0.0,0.0,0.0,0.0,0.0,0.0,0.0
5.561,155,5,561000000,base_footprint,0.0029013504718384134,0.0025617253702604026,-0.7514847428816592,0.6597391158212871,0.0,0.0,0.0,0.0,0.0,0.0,0.0,0.0,0.0,-4.80091715756852e-05,0.0002476287126072851,-0.006602394154946236,0.0,0.0,0.0,0.0,0.0,0.0,0.0,0.0,0.0,0.19946546701056406,-0.05838964358933765,-0.0006331088565130446,0.0,0.0,0.0,0.0,0.0,0.0,0.0,0.0,0.0
5.594,156,5,595000000,base_footprint,0.00290771749934941,0.0025564388772536814,-0.75197427672876,0.6591810805366526,0.0,0.0,0.0,0.0,0.0,0.0,0.0,0.0,0.0,-0.00027441061647708807,0.00042498284940697224,-0.049253184979024776,0.0,0.0,0.0,0.0,0.0,0.0,0.0,0.0,0.0,0.08534818144171907,-0.0110827652612027,-0.00024218179879825517,0.0,0.0,0.0,0.0,0.0,0.0,0.0,0.0,0.0
5.629,157,5,629000000,base_footprint,0.002907270206898554,0.0025512604087477814,-0.7525481054508015,0.6585259203954542,0.0,0.0,0.0,0.0,0.0,0.0,0.0,0.0,0.0,-1.1899792306391667e-05,0.0007039373621047963,-0.05087882810494807,0.0,0.0,0.0,0.0,0.0,0.0,0.0,0.0,0.0,0.0009477432378034402,0.008161457420655613,0.00039691248428980923,0.0,0.0,0.0,0.0,0.0,0.0,0.0,0.0,0.0
5.663,158,5,663000000,base_footprint,0.002901141854621455,0.0025426162294023766,-0.7538270464199356,0.6570615667990677,0.0,0.0,0.0,0.0,0.0,0.0,0.0,0.0,0.0,0.0002642234013416169,-0.0004547931741541189,-0.161647002347514,0.0,0.0,0.0,0.0,0.0,0.0,0.0,0.0,0.0,-0.5546719444436234,0.1766948411022692,-0.0018007875859904596,0.0,0.0,0.0,0.0,0.0,0.0,0.0,0.0,0.0
5.697,159,5,697000000,base_footprint,0.002909312432233822,0.0025408270801593217,-0.7545520727441277,0.656228808889446,0.0,0.0,0.0,0.0,0.0,0.0,0.0,0.0,0.0,0.00023816069456247758,0.0007174373381900196,-0.04012153038998856,0.0,0.0,0.0,0.0,0.0,0.0,0.0,0.0,0.0,-0.09835873109127721,0.045249587954512345,0.0030024225286126435,0.0,0.0,0.0,0.0,0.0,0.0,0.0,0.0,0.0
5.731,160,5,731000000,base_footprint,0.002911199432682152,0.002540626678086703,-0.7550047622299716,0.6557079221299753,0.0,0.0,0.0,0.0,0.0,0.0,0.0,0.0,0.0,-0.0003698728647621018,-1.0831400941335828e-05,-0.056804566141535055,0.0,0.0,0.0,0.0,0.0,0.0,0.0,0.0,0.0,-0.002339795943583682,0.011516007186898176,-0.0034250605672664735,0.0,0.0,0.0,0.0,0.0,0.0,0.0,0.0,0.0
5.765,161,5,765000000,base_footprint,0.0029160271942699784,0.0025380280852780397,-0.7562264861147349,0.6542985227687752,0.0,0.0,0.0,0.0,0.0,0.0,0.0,0.0,0.0,0.0002528322970263692,0.0009544176428893662,-0.11196155420524183,0.0,0.0,0.0,0.0,0.0,0.0,0.0,0.0,0.0,-0.01741755453400879,0.028546337762775043,0.003186781672799308,0.0,0.0,0.0,0.0,0.0,0.0,0.0,0.0,0.0
5.799,162,5,799000000,base_footprint,0.0029221495472570975,0.0025367591225089058,-0.7574707631198182,0.6528576176425134,0.0,0.0,0.0,0.0,0.0,0.0,0.0,0.0,0.0,0.0002645817589573734,0.0007599370085614831,-0.1119810181233345,0.0,0.0,0.0,0.0,0.0,0.0,0.0,0.0,0.0,0.0028985285530587074,0.025147617205265378,-0.0002160669835282737,0.0,0.0,0.0,0.0,0.0,0.0,0.0,0.0,0.0
5.833,163,5,833000000,base_footprint,0.002929328373249972,0.0025294686815202604,-0.7586870025335144,0.6514438218374492,0.0,0.0,0.0,0.0,0.0,0.0,0.0,0.0,0.0,-0.0025393456239525447,0.0045786083928217106,-0.07952302846537283,0.0,0.0,0.0,0.0,0.0,0.0,0.0,0.0,0.0,-0.004271351394967237,0.0222442141072295,0.009218125363262043,0.0,0.0,0.0,0.0,0.0,0.0,0.0,0.0,0.0
5.867,164,5,867000000,base_footprint,0.0029310506684314323,0.0025342332093088674,-0.7588358900758625,0.6512703574835825,0.0,0.0,0.0,0.0,0.0,0.0,0.0,0.0,0.0,-5.396880541639131e-05,9.134197044342304e-05,-0.005640357900723796,0.0,0.0,0.0,0.0,0.0,0.0,0.0,0.0,0.0,0.038882664263727315,-0.0033691627576745847,-0.008803565006231957,0.0,0.0,0.0,0.0,0.0,0.0,0.0,0.0,0.0
5.901,165,5,901000000,base_footprint,0.002933762682144054,0.0025307518321339272,-0.7588874585316591,0.6512102683581151,0.0,0.0,0.0,0.0,0.0,0.0,0.0,0.0,0.0,-0.0004902393435927813,0.00042652754341116384,-0.003995101903796165,0.0,0.0,0.0,0.0,0.0,0.0,0.0,0.0,0.0,0.0013213103191051612,-0.003710960693841854,0.00034726714087148435,0.0,0.0,0.0,0.0,0.0,0.0,0.0,0.0,0.0
5.9350000000000005,166,5,935000000,base_footprint,0.002936038948928662,0.0025256803593959073,-0.7589150213093137,0.6511781561486047,0.0,0.0,0.0,0.0,0.0,0.0,0.0,0.0,0.0,-0.001278625200807085,0.0003752000199522067,-0.016306459277152508,0.0,0.0,0.0,0.0,0.0,0.0,0.0,0.0,0.0,0.049201866306823674,-0.008930787485958571,-0.0021915159214936303,0.0,0.0,0.0,0.0,0.0,0.0,0.0,0.0,0.0
5.969,167,5,969000000,base_footprint,0.0029398540208734245,0.002528829894705055,-0.75933232885182,0.6506914604005275,0.0,0.0,0.0,0.0,0.0,0.0,0.0,0.0,0.0,-0.0001789414939018373,0.0010789820232438175,-0.040319690288626586,0.0,0.0,0.0,0.0,0.0,0.0,0.0,0.0,0.0,-0.03979389731697869,0.015532716713073534,0.0030789810842691686,0.0,0.0,0.0,0.0,0.0,0.0,0.0,0.0,0.0
6.003,168,6,3000000,base_footprint,0.002932803126681539,0.002525993252866015,-0.759818582238818,0.650123634479242,0.0,0.0,0.0,0.0,0.0,0.0,0.0,0.0,0.0,0.0011421114999029343,0.0009201292164409207,-0.05209754398838261,0.0,0.0,0.0,0.0,0.0,0.0,0.0,0.0,0.0,0.031294188841867715,-0.0007921317505805905,4.8973073214179856e-05,0.0,0.0,0.0,0.0,0.0,0.0,0.0,0.0,0.0
6.037,169,6,37000000,base_footprint,0.002942650318038874,0.0025230136844532885,-0.7605402947494948,0.6492791659012365,0.0,0.0,0.0,0.0,0.0,0.0,0.0,0.0,0.0,0.0023062846333496015,0.0043794713865536895,-0.04348020597136204,0.0,0.0,0.0,0.0,0.0,0.0,0.0,0.0,0.0,0.14793623411342874,-0.028461064293678562,0.00464391346666527,0.0,0.0,0.0,0.0,0.0,0.0,0.0,0.0,0.0
6.071,170,6,71000000,base_footprint,0.0029381839842271607,0.0025145765092799838,-0.7613211749971408,0.6483634108128147,0.0,0.0,0.0,0.0,0.0,0.0,0.0,0.0,0.0,-0.0009843524372003046,-2.2579493963486652e-05,-0.09191970289166375,0.0,0.0,0.0,0.0,0.0,0.0,0.0,0.0,0.0,0.16684204977049963,-0.038529165941738844,-0.007855296719628245,0.0,0.0,0.0,0.0,0.0,0.0,0.0,0.0,0.0
6.105,171,6,105000000,base_footprint,0.0029442322060880964,0.0025083480716697137,-0.7622970066510741,0.6472158166620161,0.0,0.0,0.0,0.0,0.0,0.0,0.0,0.0,0.0,0.00017645684116395795,0.0010816565882222277,-0.0884592626422783,0.0,0.0,0.0,0.0,0.0,0.0,0.0,0.0,0.0,-0.0080999238679427,0.02066205182917477,0.002726554947964187,0.0,0.0,0.0,0.0,0.0,0.0,0.0,0.0,0.0
6.139,172,6,139000000,base_footprint,0.002936098875356697,0.0024991695805213062,-0.7633275640122577,0.6460001265432653,0.0,0.0,0.0,0.0,0.0,0.0,0.0,0.0,0.0,-2.1774996736456187e-05,-0.0008251192335533121,-0.12159863695961494,0.0,0.0,0.0,0.0,0.0,0.0,0.0,0.0,0.0,-0.15208773974909737,0.0711739491753686,-0.0019056642209873986,0.0,0.0,0.0,0.0,0.0,0.0,0.0,0.0,0.0
6.173,173,6,173000000,base_footprint,0.0029463359723195933,0.0024987627784433487,-0.7641883338222222,0.6449816010855902,0.0,0.0,0.0,0.0,0.0,0.0,0.0,0.0,0.0,0.00021253135021976385,0.0006911924789921005,-0.058652774181437176,0.0,0.0,0.0,0.0,0.0,0.0,0.0,0.0,0.0,-0.1593718383438412,0.07557113160875589,0.002389788843395203,0.0,0.0,0.0,0.0,0.0,0.0,0.0,0.0,0.0
6.207,174,6,207000000,base_footprint,0.0029484986131209927,0.002497787508383249,-0.7648301161629497,0.6442204287537461,0.0,0.0,0.0,0.0,0.0,0.0,0.0,0.0,0.0,0.0001833390776546251,0.0005493407618225302,-0.05876829209418248,0.0,0.0,0.0,0.0,0.0,0.0,0.0,0.0,0.0,-0.0013654129396933412,0.014632252791818026,-9.439567912587719e-05,0.0,0.0,0.0,0.0,0.0,0.0,0.0,0.0,0.0
6.241,175,6,241000000,base_footprint,0.0029512775711483894,0.0024980041314179146,-0.7654595508129947,0.6434723972364517,0.0,0.0,0.0,0.0,0.0,0.0,0.0,0.0,0.0,0.0002969815212046934,0.0004980544221708391,-0.054315706296158464,0.0,0.0,0.0,0.0,0.0,0.0,0.0,0.0,0.0,0.0007472684131762351,0.013714440231998117,-9.012205226564243e-05,0.0,0.0,0.0,0.0,0.0,0.0,0.0,0.0,0.0
6.275,176,6,275000000,base_footprint,0.002954453717489733,0.0024985658918668945,-0.7660539474318446,0.6427646365473165,0.0,0.0,0.0,0.0,0.0,0.0,0.0,0.0,0.0,0.0002526875128720483,0.0002926113476092063,-0.054286797255868026,0.0,0.0,0.0,0.0,0.0,0.0,0.0,0.0,0.0,6.753474853501713e-05,0.012792369929873315,-0.00024049946448981247,0.0,0.0,0.0,0.0,0.0,0.0,0.0,0.0,0.0
6.309,177,6,309000000,base_footprint,0.0029583975163619083,0.0024987724153596774,-0.7666400372341748,0.6420654618729577,0.0,0.0,0.0,0.0,0.0,0.0,0.0,0.0,0.0,0.0001762591477073895,0.0003693795124622474,-0.05274556151328401,0.0,0.0,0.0,0.0,0.0,0.0,0.0,0.0,0.0,0.0034146250633986346,0.011800803337728202,0.00022227088910582843,0.0,0.0,0.0,0.0,0.0,0.0,0.0,0.0,0.0
6.343,178,6,343000000,base_footprint,0.0029634484197970335,0.0024997302229967135,-0.7671451868254224,0.6414617928239088,0.0,0.0,0.0,0.0,0.0,0.0,0.0,0.0,0.0,5.817347590995466e-05,-0.00018093252897811914,-0.031984217645883155,0.0,0.0,0.0,0.0,0.0,0.0,0.0,0.0,0.0,0.012856992360244953,0.008762339754446026,-0.0005878642168434216,0.0,0.0,0.0,0.0,0.0,0.0,0.0,0.0,0.0
6.377,179,6,377000000,base_footprint,0.002967774374270767,0.0024887615508866956,-0.7674843888337843,0.6410559345935726,0.0,0.0,0.0,0.0,0.0,0.0,0.0,0.0,0.0,-0.0002941741704810471,0.00043444319799184933,-0.030771422756144216,0.0,0.0,0.0,0.0,0.0,0.0,0.0,0.0,0.0,0.004420022665785988,-0.0015718212308806889,0.0009606700865583948,0.0,0.0,0.0,0.0,0.0,0.0,0.0,0.0,0.0
6.411,180,6,411000000,base_footprint,0.0029721575333155827,0.0024875818333394144,-0.7677559691545349,0.6407306376659387,0.0,0.0,0.0,0.0,0.0,0.0,0.0,0.0,0.0,0.00013010578633887305,-0.00020100017080554983,-0.02241260260018478,0.0,0.0,0.0,0.0,0.0,0.0,0.0,0.0,0.0,0.027214212915165986,0.0001302376495102963,-0.001141381847561887,0.0,0.0,0.0,0.0,0.0,0.0,0.0,0.0,0.0
6.445,181,6,445000000,base_footprint,0.0029732035057409944,0.0024858879300399153,-0.7680152911628733,0.6404197787093399,0.0,0.0,0.0,0.0,0.0,0.0,0.0,0.0,0.0,-0.0005762316566965907,-0.0002691244709520267,-0.014327037014158168,0.0,0.0,0.0,0.0,0.0,0.0,0.0,0.0,0.0,0.0019571466000729313,0.005768046389491608,0.00014437468278531246,0.0,0.0,0.0,0.0,0.0,0.0,0.0,0.0,0.0
6.479,182,6,479000000,base_footprint,0.0029680338349092794,0.0024854402301331007,-0.768227593343711,0.6401651179089245,0.0,0.0,0.0,0.0,0.0,0.0,0.0,0.0,0.0,0.0007716835307298627,0.00041503015603955334,-0.022859350592276617,0.0,0.0,0.0,0.0,0.0,0.0,0.0,0.0,0.0,0.0025627430385203607,-0.002494010422906706,0.0015674546508952412,0.0,0.0,0.0,0.0,0.0,0.0,0.0,0.0,0.0
6.513,183,6,513000000,base_footprint,0.0029665952666700656,0.0024824670707444658,-0.7686363869683482,0.6396742462363246,0.0,0.0,0.0,0.0,0.0,0.0,0.0,0.0,0.0,0.00027844963271744355,0.0006760766393220986,-0.051222684646464164,0.0,0.0,0.0,0.0,0.0,0.0,0.0,0.0,0.0,0.055339993406236423,-0.006813794903711826,0.00014450260616087748,0.0,0.0,0.0,0.0,0.0,0.0,0.0,0.0,0.0
6.546,184,6,547000000,base_footprint,0.0029703240391839004,0.00248103921581311,-0.7689028302197485,0.6393539389880791,0.0,0.0,0.0,0.0,0.0,0.0,0.0,0.0,0.0,-0.00017440649515123078,0.0010649096951222607,0.04429214229999241,0.0,0.0,0.0,0.0,0.0,0.0,0.0,0.0,0.0,0.269100483456961,-0.09989031516779578,0.0012220047891505989,0.0,0.0,0.0,0.0,0.0,0.0,0.0,0.0,0.0
6.581,185,6,581000000,base_footprint,0.0029654211674521006,0.002480139561206995,-0.7683417280550774,0.6400281588449012,0.0,0.0,0.0,0.0,0.0,0.0,0.0,0.0,0.0,-0.00011889667932264511,-0.0002367942024395302,0.05194110613897968,0.0,0.0,0.0,0.0,0.0,0.0,0.0,0.0,0.0,0.007205259035541213,-0.012783119131790427,-0.0022011047151178267,0.0,0.0,0.0,0.0,0.0,0.0,0.0,0.0,0.0
6.614,186,6,615000000,base_footprint,0.0029615680823316046,0.002482619418466124,-0.7677775452286538,0.6407048515174357,0.0,0.0,0.0,0.0,0.0,0.0,0.0,0.0,0.0,-7.920705385304101e-05,-0.00019028429426873051,0.051546177028636286,0.0,0.0,0.0,0.0,0.0,0.0,0.0,0.0,0.0,-0.00824725749521534,-0.008081784027609612,-2.5342885621890533e-05,0.0,0.0,0.0,0.0,0.0,0.0,0.0,0.0,0.0
6.649,187,6,649000000,base_footprint,0.0029555136423081566,0.0024820755939992272,-0.7674176998421681,0.6411358500417925,0.0,0.0,0.0,0.0,0.0,0.0,0.0,0.0,0.0,-0.0022824334927970514,-0.00196620472881371,-0.006343302837255977,0.0,0.0,0.0,0.0,0.0,0.0,0.0,0.0,0.0,-0.3320769189121211,0.11692368652473852,-0.0023726202367954927,0.0,0.0,0.0,0.0,0.0,0.0,0.0,0.0,0.0
6.683,188,6,683000000,base_footprint,0.0029584959540940384,0.00248625039063452,-0.767499510988352,0.641037882260733,0.0,0.0,0.0,0.0,0.0,0.0,0.0,0.0,0.0,0.00019270235527888574,0.00010955628300927923,-0.007517479573797951,0.0,0.0,0.0,0.0,0.0,0.0,0.0,0.0,0.0,-0.013326757196229016,0.006573430463594615,0.0026459928345464053,0.0,0.0,0.0,0.0,0.0,0.0,0.0,0.0,0.0
6.7170000000000005,189,6,717000000,base_footprint,0.002958753408418382,0.002487976247028262,-0.7675811135141326,0.6409401609579999,0.0,0.0,0.0,0.0,0.0,0.0,0.0,0.0,0.0,0.00019117187316878564,3.6710652593418546e-05,-0.007549328276389114,0.0,0.0,0.0,0.0,0.0,0.0,0.0,0.0,0.0,-0.0042169069655179445,0.0034840906186773173,-0.00015146589372427182,0.0,0.0,0.0,0.0,0.0,0.0,0.0,0.0,0.0
6.751,190,6,751000000,base_footprint,0.0029582128184815993,0.002489295794336878,-0.7674090375634576,0.6411461779105423,0.0,0.0,0.0,0.0,0.0,0.0,0.0,0.0,0.0,5.363706065714897e-06,-0.0003504629553267378,0.03250412525683215,0.0,0.0,0.0,0.0,0.0,0.0,0.0,0.0,0.0,-0.004667511298357262,0.000221259630538572,7.878865458380037e-06,0.0,0.0,0.0,0.0,0.0,0.0,0.0,0.0,0.0
6.785,191,6,785000000,base_footprint,0.002962058517949416,0.0024976965810633465,-0.7673265402654366,0.6412448583227789,0.0,0.0,0.0,0.0,0.0,0.0,0.0,0.0,0.0,0.0011262767628455093,-0.0013087542739305587,-0.016201406148461873,0.0,0.0,0.0,0.0,0.0,0.0,0.0,0.0,0.0,0.3174214340514844,-0.12105170662810005,-0.0031657667636004498,0.0,0.0,0.0,0.0,0.0,0.0,0.0,0.0,0.0
6.819,192,6,819000000,base_footprint,0.002963038817365977,0.00249726970573482,-0.7675021501901454,0.6410346585782138,0.0,0.0,0.0,0.0,0.0,0.0,0.0,0.0,0.0,3.549739260849853e-05,8.918810964343718e-05,-0.015403253596524218,0.0,0.0,0.0,0.0,0.0,0.0,0.0,0.0,0.0,0.0001719367458407129,0.0029458563146587393,0.0025757093747976593,0.0,0.0,0.0,0.0,0.0,0.0,0.0,0.0,0.0
6.853,193,6,853000000,base_footprint,0.002968897451758235,0.002496078431289617,-0.7673289297798555,0.6412419736443391,0.0,0.0,0.0,0.0,0.0,0.0,0.0,0.0,0.0,-8.379573212589925e-05,-0.0009950714061291162,0.04342339185320676,0.0,0.0,0.0,0.0,0.0,0.0,0.0,0.0,0.0,-0.022079226237936518,0.003558819131091663,-0.0012999893755966186,0.0,0.0,0.0,0.0,0.0,0.0,0.0,0.0,0.0
6.8870000000000005,194,6,887000000,base_footprint,0.0029669978657744568,0.0024942167347794543,-0.7668178045680559,0.6418531221424192,0.0,0.0,0.0,0.0,0.0,0.0,0.0,0.0,0.0,-0.0002952506411857945,0.0005356712773842383,0.05470961284003448,0.0,0.0,0.0,0.0,0.0,0.0,0.0,0.0,0.0,0.02410767029492282,-0.019533847758214828,0.002872916152260092,0.0,0.0,0.0,0.0,0.0,0.0,0.0,0.0,0.0
6.921,195,6,921000000,base_footprint,0.0029659503524610315,0.0024981385278301065,-0.7661043079870453,0.6427045602188403,0.0,0.0,0.0,0.0,0.0,0.0,0.0,0.0,0.0,0.00014781117114216573,-0.0006230561851008399,0.06051634179332138,0.0,0.0,0.0,0.0,0.0,0.0,0.0,0.0,0.0,0.01973472694095777,-0.02137003937549841,-0.0019496836499696924,0.0,0.0,0.0,0.0,0.0,0.0,0.0,0.0,0.0
6.955,196,6,955000000,base_footprint,0.002951383495493932,0.0024824688069518164,-0.7656849299079098,0.643204255890774,0.0,0.0,0.0,0.0,0.0,0.0,0.0,0.0,0.0,5.315803409253108e-05,0.0008516561172728378,-0.009906971298808373,0.0,0.0,0.0,0.0,0.0,0.0,0.0,0.0,0.0,-0.1624827467071947,0.04480488706208642,0.002171835025596663,0.0,0.0,0.0,0.0,0.0,0.0,0.0,0.0,0.0
6.989,197,6,989000000,base_footprint,0.002954993293531194,0.0024949990079458063,-0.7662808945341951,0.6424940728648469,0.0,0.0,0.0,0.0,0.0,0.0,0.0,0.0,0.0,0.000573222910032386,0.0005701372398896038,-0.07079962776134606,0.0,0.0,0.0,0.0,0.0,0.0,0.0,0.0,0.0,-0.01771419247320872,0.023856046129002877,4.066184336229914e-05,0.0,0.0,0.0,0.0,0.0,0.0,0.0,0.0,0.0
7.023,198,7,23000000,base_footprint,0.00294804130383042,0.002487334312710503,-0.7670184170724553,0.641613489643222,0.0,0.0,0.0,0.0,0.0,0.0,0.0,0.0,0.0,4.271266256098327e-05,0.0006322713284814567,-0.05757473520559803,0.0,0.0,0.0,0.0,0.0,0.0,0.0,0.0,0.0,-0.024875097884949623,0.023388710853243577,-0.0012770611405011657,0.0,0.0,0.0,0.0,0.0,0.0,0.0,0.0,0.0
7.057,199,7,57000000,base_footprint,0.0029565673313805994,0.0024850503562478038,-0.767377218028075,0.6411842859005779,0.0,0.0,0.0,0.0,0.0,0.0,0.0,0.0,0.0,-0.0017605575998744824,-0.0010315720033283883,-0.006845761061735578,0.0,0.0,0.0,0.0,0.0,0.0,0.0,0.0,0.0,-0.1017687180986598,0.049566802131884455,-0.002823579332217391,0.0,0.0,0.0,0.0,0.0,0.0,0.0,0.0,0.0
7.091,200,7,91000000,base_footprint,0.002960152843953592,0.0024852537863969066,-0.767411502960936,0.6411432337099061,0.0,0.0,0.0,0.0,0.0,0.0,0.0,0.0,0.0,0.00011849513347853997,0.00021491137426814244,-0.0034938052660029193,0.0,0.0,0.0,0.0,0.0,0.0,0.0,0.0,0.0,-0.01284031576544132,0.0028298583704940775,0.003054130050804976,0.0,0.0,0.0,0.0,0.0,0.0,0.0,0.0,0.0
7.125,201,7,125000000,base_footprint,0.00295940013748587,0.0024852774066888533,-0.7674501576449825,0.641096966829301,0.0,0.0,0.0,0.0,0.0,0.0,0.0,0.0,0.0,0.00019880434051764172,0.000172277834237482,-0.0036793194715914112,0.0,0.0,0.0,0.0,0.0,0.0,0.0,0.0,0.0,-0.004482128679589565,0.0029722119975179413,9.145175187419007e-05,0.0,0.0,0.0,0.0,0.0,0.0,0.0,0.0,0.0
7.159,202,7,159000000,base_footprint,0.002955081386016754,0.002489268620111638,-0.7667616240445787,0.6419203088610449,0.0,0.0,0.0,0.0,0.0,0.0,0.0,0.0,0.0,6.64685160177259e-05,-0.0005888552086287941,0.08298641735872653,0.0,0.0,0.0,0.0,0.0,0.0,0.0,0.0,0.0,0.011522388854550356,-0.018380665063645715,-0.0003150780154016338,0.0,0.0,0.0,0.0,0.0,0.0,0.0,0.0,0.0
7.193,203,7,193000000,base_footprint,0.002951355767333846,0.002495339081293081,-0.7658556500871307,0.6430009222478785,0.0,0.0,0.0,0.0,0.0,0.0,0.0,0.0,0.0,6.0186809551793775e-05,-0.0006396417548943799,0.08291211000100653,0.0,0.0,0.0,0.0,0.0,0.0,0.0,0.0,0.0,-0.011023258355697053,-0.014819758509077833,-0.0002510388777924167,0.0,0.0,0.0,0.0,0.0,0.0,0.0,0.0,0.0
7.227,204,7,227000000,base_footprint,0.0029488181548234823,0.0025026264273640014,-0.7649477435108668,0.6440807333169406,0.0,0.0,0.0,0.0,0.0,0.0,0.0,0.0,0.0,5.5488198593382456e-05,-0.0007409548053262573,0.08306526315415419,0.0,0.0,0.0,0.0,0.0,0.0,0.0,0.0,0.0,-0.010679806468025202,-0.015317183143585069,-0.00034247041745210293,0.0,0.0,0.0,0.0,0.0,0.0,0.0,0.0,0.0
7.261,205,7,261000000,base_footprint,0.002947027136631016,0.0025105774384980213,-0.7639908119870595,0.6452155075874532,0.0,0.0,0.0,0.0,0.0,0.0,0.0,0.0,0.0,8.407802123238371e-07,-0.0007656391183776857,0.0883680138596851,0.0,0.0,0.0,0.0,0.0,0.0,0.0,0.0,0.0,-0.0077869926782483685,-0.016847639506621798,-0.0001478082813350338,0.0,0.0,0.0,0.0,0.0,0.0,0.0,0.0,0.0
7.295,206,7,295000000,base_footprint,0.002945551906892107,0.0025169097928056444,-0.7630096684247353,0.6463754596048912,0.0,0.0,0.0,0.0,0.0,0.0,0.0,0.0,0.0,-0.0001341594626227445,-0.0006965747696257937,0.09023334892454472,0.0,0.0,0.0,0.0,0.0,0.0,0.0,0.0,0.0,-0.006319724116678922,-0.018130930329616532,-0.0001448299261615003,0.0,0.0,0.0,0.0,0.0,0.0,0.0,0.0,0.0
7.329,207,7,329000000,base_footprint,0.002944388570530202,0.002518285405281249,-0.7620166621091162,0.647545825005956,0.0,0.0,0.0,0.0,0.0,0.0,0.0,0.0,0.0,-0.0005894979770516254,-0.00034787799969293267,0.08892104549272575,0.0,0.0,0.0,0.0,0.0,0.0,0.0,0.0,0.0,-0.01287896778298143,-0.021876039724145088,0.0002989561439701604,0.0,0.0,0.0,0.0,0.0,0.0,0.0,0.0,0.0
7.363,208,7,363000000,base_footprint,0.0029441626359206427,0.0025164442413759245,-0.7609666757992011,0.6487794060679385,0.0,0.0,0.0,0.0,0.0,0.0,0.0,0.0,0.0,-0.0002976079016958432,-0.00048712005186542115,0.10346451604927911,0.0,0.0,0.0,0.0,0.0,0.0,0.0,0.0,0.0,0.014976732392117768,-0.023849452830365096,-8.31458881477127e-05,0.0,0.0,0.0,0.0,0.0,0.0,0.0,0.0,0.0
7.397,209,7,397000000,base_footprint,0.00294152996978638,0.002526805626630835,-0.759781185529786,0.6501672959859754,0.0,0.0,0.0,0.0,0.0,0.0,0.0,0.0,0.0,0.0001266875673955523,-0.0007340782375188748,0.09973626436115246,0.0,0.0,0.0,0.0,0.0,0.0,0.0,0.0,0.0,-0.002416260481433794,-0.024074158969136023,-0.00045070736400733356,0.0,0.0,0.0,0.0,0.0,0.0,0.0,0.0,0.0
7.431,210,7,431000000,base_footprint,0.002930201141196643,0.0025320228754237683,-0.7586698286526278,0.651463808567769,0.0,0.0,0.0,0.0,0.0,0.0,0.0,0.0,0.0,0.0024026061809946327,-0.003706141302612562,0.09834886087026776,0.0,0.0,0.0,0.0,0.0,0.0,0.0,0.0,0.0,0.028482796961618536,-0.033550531908464014,-0.004407654909400148,0.0,0.0,0.0,0.0,0.0,0.0,0.0,0.0,0.0
7.465,211,7,465000000,base_footprint,0.002924353176800068,0.0025383230128201767,-0.7574665849985723,0.6528624492842123,0.0,0.0,0.0,0.0,0.0,0.0,0.0,0.0,0.0,-9.262343511727208e-05,-0.003623261683786124,0.0914901158223155,0.0,0.0,0.0,0.0,0.0,0.0,0.0,0.0,0.0,0.17480144660103827,-0.0773747631484433,0.0005699922004218499,0.0,0.0,0.0,0.0,0.0,0.0,0.0,0.0,0.0
7.499,212,7,499000000,base_footprint,0.0029245448000200644,0.0025362693636674953,-0.756435372395616,0.6540569866335301,0.0,0.0,0.0,0.0,0.0,0.0,0.0,0.0,0.0,-0.0007517373192334822,-0.000854530855515657,0.09264358329777864,0.0,0.0,0.0,0.0,0.0,0.0,0.0,0.0,0.0,0.11102331482312003,-0.050419185749956776,0.0026143366260125665,0.0,0.0,0.0,0.0,0.0,0.0,0.0,0.0,0.0
7.533,213,7,533000000,base_footprint,0.002910669130601407,0.002534195293183888,-0.7554385373597221,0.6552081517588375,0.0,0.0,0.0,0.0,0.0,0.0,0.0,0.0,0.0,0.0028592451948114134,0.004921612250851747,0.0784714335494893,0.0,0.0,0.0,0.0,0.0,0.0,0.0,0.0,0.0,-0.06007984556723815,-0.004184262009161315,0.010137249448837142,0.0,0.0,0.0,0.0,0.0,0.0,0.0,0.0,0.0
7.567,214,7,567000000,base_footprint,0.0029137644588660173,0.002539020526048389,-0.7552152214532022,0.6554655083502392,0.0,0.0,0.0,0.0,0.0,0.0,0.0,0.0,0.0,1.2240550470962857e-05,0.00016105424922013774,-0.00277267837276833,0.0,0.0,0.0,0.0,0.0,0.0,0.0,0.0,0.0,-0.3018298106633861,0.081265107822301,-0.009324470003876553,0.0,0.0,0.0,0.0,0.0,0.0,0.0,0.0,0.0
7.601,215,7,601000000,base_footprint,0.0029121113726522092,0.0025387764271200142,-0.7552445076828697,0.6554317720682041,0.0,0.0,0.0,0.0,0.0,0.0,0.0,0.0,0.0,8.894235922950332e-05,0.00024882852412563274,-0.0028090370534283324,0.0,0.0,0.0,0.0,0.0,0.0,0.0,0.0,0.0,-0.004903251386204667,0.0036125638046941577,0.00019617456321910714,0.0,0.0,0.0,0.0,0.0,0.0,0.0,0.0,0.0
7.635,216,7,635000000,base_footprint,0.0029111966888141945,0.002539481776242647,-0.7552778119883434,0.6553933953620892,0.0,0.0,0.0,0.0,0.0,0.0,0.0,0.0,0.0,9.379947216131524e-05,0.00019538265178269167,-0.0037080051615082633,0.0,0.0,0.0,0.0,0.0,0.0,0.0,0.0,0.0,-0.005362561186274554,0.00234265855694128,-0.00012140861898286641,0.0,0.0,0.0,0.0,0.0,0.0,0.0,0.0,0.0
7.6690000000000005,217,7,669000000,base_footprint,0.0029114674673198656,0.0025414949675663136,-0.7553202293345322,0.6553445012499504,0.0,0.0,0.0,0.0,0.0,0.0,0.0,0.0,0.0,9.148068440889784e-05,7.111279991731912e-05,-0.003959767064111792,0.0,0.0,0.0,0.0,0.0,0.0,0.0,0.0,0.0,-0.005042561969917951,0.0024468953336838463,-0.00023817594582710482,0.0,0.0,0.0,0.0,0.0,0.0,0.0,0.0,0.0
7.703,218,7,703000000,base_footprint,0.002912796753370162,0.002545098893624248,-0.7553645720041278,0.6552933705201939,0.0,0.0,0.0,0.0,0.0,0.0,0.0,0.0,0.0,0.00011157132546916798,-5.380592848197715e-05,-0.004037426020071606,0.0,0.0,0.0,0.0,0.0,0.0,0.0,0.0,0.0,-0.004496659514203569,0.0023993410182771395,-0.00025133316479624307,0.0,0.0,0.0,0.0,0.0,0.0,0.0,0.0,0.0
7.737,219,7,737000000,base_footprint,0.0029114569662012945,0.002537971528185856,-0.7553180537600706,0.6553470224109936,0.0,0.0,0.0,0.0,0.0,0.0,0.0,0.0,0.0,0.0004175008297347528,0.0032814962712812553,0.05493909962451552,0.0,0.0,0.0,0.0,0.0,0.0,0.0,0.0,0.0,0.013991112751823357,-0.003443519082537037,0.005472732637521805,0.0,0.0,0.0,0.0,0.0,0.0,0.0,0.0,0.0
7.771,220,7,771000000,base_footprint,0.002908943935642705,0.0025467856989657063,-0.7540765554852518,0.6567751520842433,0.0,0.0,0.0,0.0,0.0,0.0,0.0,0.0,0.0,0.00030269999608653305,-0.000370923839408251,0.15347994205392576,0.0,0.0,0.0,0.0,0.0,0.0,0.0,0.0,0.0,0.09843328226497819,-0.05399209158516814,-0.004933554906746669,0.0,0.0,0.0,0.0,0.0,0.0,0.0,0.0,0.0
7.804,221,7,805000000,base_footprint,0.0029078051698803874,0.0025648788805212167,-0.7522443435835059,0.6588728356914122,0.0,0.0,0.0,0.0,0.0,0.0,0.0,0.0,0.0,-3.2220131417627336e-05,-0.001255297807306606,0.16592239096754618,0.0,0.0,0.0,0.0,0.0,0.0,0.0,0.0,0.0,-0.09522664230371586,-0.0059740680743561175,-0.0010960383412190388,0.0,0.0,0.0,0.0,0.0,0.0,0.0,0.0,0.0
7.839,222,7,839000000,base_footprint,0.0029041050192062153,0.0025675907078038063,-0.7503891548018068,0.66098493931997,0.0,0.0,0.0,0.0,0.0,0.0,0.0,0.0,0.0,-0.0007761669476513451,-0.0008656607998162194,0.16295227210397084,0.0,0.0,0.0,0.0,0.0,0.0,0.0,0.0,0.0,0.001762928401263044,-0.042996108743498754,0.0004510454836595246,0.0,0.0,0.0,0.0,0.0,0.0,0.0,0.0,0.0
7.873,223,7,873000000,base_footprint,0.002897402000743377,0.0025736707204086742,-0.7484640929454568,0.6631639939351378,0.0,0.0,0.0,0.0,0.0,0.0,0.0,0.0,0.0,0.00018208213677005358,-0.0016822257996564147,0.17136130068769184,0.0,0.0,0.0,0.0,0.0,0.0,0.0,0.0,0.0,0.030849191703454525,-0.04238856588880185,-0.0018190650651445732,0.0,0.0,0.0,0.0,0.0,0.0,0.0,0.0,0.0
7.907,224,7,907000000,base_footprint,0.002880268488541672,0.0025844974452421026,-0.7466867728143762,0.665164556880808,0.0,0.0,0.0,0.0,0.0,0.0,0.0,0.0,0.0,-8.488287465553994e-05,-0.0017753523284738128,0.1446233894228606,0.0,0.0,0.0,0.0,0.0,0.0,0.0,0.0,0.0,0.018740907081676937,-0.04706505924646916,-0.0007497517161868833,0.0,0.0,0.0,0.0,0.0,0.0,0.0,0.0,0.0
7.941,225,7,941000000,base_footprint,0.002875262258380034,0.0025883906713097607,-0.7450771542840178,0.6669670661019989,0.0,0.0,0.0,0.0,0.0,0.0,0.0,0.0,0.0,0.0009459869619049975,0.0011617137402339533,0.16501275388221123,0.0,0.0,0.0,0.0,0.0,0.0,0.0,0.0,0.0,0.16566340207553903,-0.06852642277161558,0.004373505577067199,0.0,0.0,0.0,0.0,0.0,0.0,0.0,0.0,0.0
7.975,226,7,975000000,base_footprint,0.002872274680201291,0.0025963097346245116,-0.7433197011799639,0.668925131125788,0.0,0.0,0.0,0.0,0.0,0.0,0.0,0.0,0.0,0.00011828455372372211,-0.0002955095032919551,0.1517481379402275,0.0,0.0,0.0,0.0,0.0,0.0,0.0,0.0,0.0,0.10910515525013925,-0.05273874893727264,-0.0021709480824315137,0.0,0.0,0.0,0.0,0.0,0.0,0.0,0.0,0.0
8.009,227,8,9000000,base_footprint,0.0028614006045891644,0.0026004903186080393,-0.7416042380407811,0.6708265080903076,0.0,0.0,0.0,0.0,0.0,0.0,0.0,0.0,0.0,-0.0001970281534139529,-0.0008744211845891333,0.15051961575017245,0.0,0.0,0.0,0.0,0.0,0.0,0.0,0.0,0.0,-0.007448585413872489,-0.030514565710869454,-0.0012733752866243226,0.0,0.0,0.0,0.0,0.0,0.0,0.0,0.0,0.0
8.043,228,8,43000000,base_footprint,0.002849738277167157,0.0026011772215153253,-0.7399768669889167,0.6726212524073863,0.0,0.0,0.0,0.0,0.0,0.0,0.0,0.0,0.0,-0.0015962070364075004,-0.0027277109196972276,0.10700465205146006,0.0,0.0,0.0,0.0,0.0,0.0,0.0,0.0,0.0,-0.2388834260587451,0.01740113479465924,-0.003244496406468335,0.0,0.0,0.0,0.0,0.0,0.0,0.0,0.0,0.0
8.077,229,8,77000000,base_footprint,0.0028490220902318603,0.002608150519159139,-0.7392407651950738,0.6734301535406628,0.0,0.0,0.0,0.0,0.0,0.0,0.0,0.0,0.0,2.1969503638206354e-05,-4.3273028846520107e-05,0.05884056981171144,0.0,0.0,0.0,0.0,0.0,0.0,0.0,0.0,0.0,-0.13823200247328823,0.010263226547121265,0.003434959892997716,0.0,0.0,0.0,0.0,0.0,0.0,0.0,0.0,0.0
8.111,230,8,111000000,base_footprint,0.00284570158929392,0.00261109364614026,-0.7385679225747324,0.674168011638108,0.0,0.0,0.0,0.0,0.0,0.0,0.0,0.0,0.0,-1.6581659022488364e-05,-0.00027752610351055516,0.058609863599552156,0.0,0.0,0.0,0.0,0.0,0.0,0.0,0.0,0.0,-0.007868313046335828,-0.011738098621067223,-0.0004543255207959565,0.0,0.0,0.0,0.0,0.0,0.0,0.0,0.0,0.0
8.145,231,8,145000000,base_footprint,0.002846009248241791,0.0026144239672606095,-0.7379129133398824,0.674884877104922,0.0,0.0,0.0,0.0,0.0,0.0,0.0,0.0,0.0,-0.00020382688243021828,-0.0007672616785646482,0.06512540459186929,0.0,0.0,0.0,0.0,0.0,0.0,0.0,0.0,0.0,0.3732064288581217,-0.08112116077832315,-0.001074529471490368,0.0,0.0,0.0,0.0,0.0,0.0,0.0,0.0,0.0
8.179,232,8,179000000,base_footprint,0.0028358304873540873,0.0026190628146439735,-0.7364935744655431,0.6764335247061514,0.0,0.0,0.0,0.0,0.0,0.0,0.0,0.0,0.0,-9.321711189445529e-05,-0.00041010208429594736,0.08319265398104665,0.0,0.0,0.0,0.0,0.0,0.0,0.0,0.0,0.0,0.03939340587276789,-0.03175739898499386,0.0005097016277956681,0.0,0.0,0.0,0.0,0.0,0.0,0.0,0.0,0.0
8.213,233,8,213000000,base_footprint,0.0028395484904531615,0.0026294396210877896,-0.7359101581022128,0.6770681370538905,0.0,0.0,0.0,0.0,0.0,0.0,0.0,0.0,0.0,2.827921765093065e-05,-0.00039955977882939514,0.04815485749733854,0.0,0.0,0.0,0.0,0.0,0.0,0.0,0.0,0.0,-0.10305713059280103,0.0074410163579492275,-0.0005509702943498474,0.0,0.0,0.0,0.0,0.0,0.0,0.0,0.0,0.0
8.247,234,8,247000000,base_footprint,0.0028377587574079464,0.0026217441788723064,-0.735434052712215,0.6775852918223525,0.0,0.0,0.0,0.0,0.0,0.0,0.0,0.0,0.0,-0.0026981504766119906,-0.0014773550087739578,0.027819169754022096,0.0,0.0,0.0,0.0,0.0,0.0,0.0,0.0,0.0,0.2969338212313187,-0.058319850944012874,-0.0028964769741120448,0.0,0.0,0.0,0.0,0.0,0.0,0.0,0.0,0.0
8.281,235,8,281000000,base_footprint,0.0028388613282916185,0.0026311743134286017,-0.7347834487262925,0.6782907203154022,0.0,0.0,0.0,0.0,0.0,0.0,0.0,0.0,0.0,0.00033233328309231,-0.002549600539685194,0.0439797354410628,0.0,0.0,0.0,0.0,0.0,0.0,0.0,0.0,0.0,0.02085591933548453,-0.014281864338352324,-0.0007137539967875667,0.0,0.0,0.0,0.0,0.0,0.0,0.0,0.0,0.0
8.315,236,8,315000000,base_footprint,0.0028404045302648463,0.0026407602164716056,-0.7342243897993117,0.6788957975355364,0.0,0.0,0.0,0.0,0.0,0.0,0.0,0.0,0.0,-1.2482282348782111e-05,-0.00024449385333092836,0.04848190902488991,0.0,0.0,0.0,0.0,0.0,0.0,0.0,0.0,0.0,0.011902186142421863,-0.008742585822677734,0.0033021826025528946,0.0,0.0,0.0,0.0,0.0,0.0,0.0,0.0,0.0
8.349,237,8,349000000,base_footprint,0.0028339842217858058,0.002641286322584427,-0.7335681648059936,0.6796048408620701,0.0,0.0,0.0,0.0,0.0,0.0,0.0,0.0,0.0,7.005078361582927e-05,-0.0004033479145926619,0.07304509804579119,0.0,0.0,0.0,0.0,0.0,0.0,0.0,0.0,0.0,-0.027244806652949302,-0.01090876000922994,6.715457041623607e-05,0.0,0.0,0.0,0.0,0.0,0.0,0.0,0.0,0.0
8.383,238,8,383000000,base_footprint,0.002819182619048182,0.002619558543491621,-0.7327598395411478,0.6804764563730541,0.0,0.0,0.0,0.0,0.0,0.0,0.0,0.0,0.0,0.0017218124541180135,-0.0010811711945180784,0.047541617575291475,0.0,0.0,0.0,0.0,0.0,0.0,0.0,0.0,0.0,-0.004983455426160665,-0.028318458686989734,-0.0019065687045059369,0.0,0.0,0.0,0.0,0.0,0.0,0.0,0.0,0.0
8.417,239,8,417000000,base_footprint,0.002814920175686444,0.0026297728364565874,-0.7326361534855907,0.6806095996421673,0.0,0.0,0.0,0.0,0.0,0.0,0.0,0.0,0.0,-2.400051935190561e-05,0.0003237946079764798,-0.02391637873811846,0.0,0.0,0.0,0.0,0.0,0.0,0.0,0.0,0.0,-0.12040126765924093,0.028567869546577404,0.001971888613389633,0.0,0.0,0.0,0.0,0.0,0.0,0.0,0.0,0.0
8.451,240,8,451000000,base_footprint,0.002831476372092718,0.002639154060308792,-0.7330080472350697,0.6802089534077231,0.0,0.0,0.0,0.0,0.0,0.0,0.0,0.0,0.0,-0.0008494691622971676,-0.0010372805774381227,0.012271690939376838,0.0,0.0,0.0,0.0,0.0,0.0,0.0,0.0,0.0,0.1518672876538642,-0.011699909246956242,-0.0019106537218293693,0.0,0.0,0.0,0.0,0.0,0.0,0.0,0.0,0.0
8.485,241,8,485000000,base_footprint,0.002827561848937437,0.002643139708789558,-0.7325243544589422,0.6807298207299137,0.0,0.0,0.0,0.0,0.0,0.0,0.0,0.0,0.0,0.0003153916609003471,0.001446659749996432,0.03670875994557736,0.0,0.0,0.0,0.0,0.0,0.0,0.0,0.0,0.0,0.027410825389410816,-0.01722385670007237,0.0037240811420312016,0.0,0.0,0.0,0.0,0.0,0.0,0.0,0.0,0.0
8.519,242,8,519000000,base_footprint,0.002823763834585944,0.002642282245220622,-0.7321004086419193,0.6811857576085089,0.0,0.0,0.0,0.0,0.0,0.0,0.0,0.0,0.0,-4.953728496448854e-05,-6.970922772636822e-05,0.03659370854668956,0.0,0.0,0.0,0.0,0.0,0.0,0.0,0.0,0.0,-0.0035647335642251454,-0.004348617536112935,-0.0020031094875793743,0.0,0.0,0.0,0.0,0.0,0.0,0.0,0.0,0.0
8.553,243,8,553000000,base_footprint,0.0028136414031287374,0.0026425708974888483,-0.7312602884907103,0.6820875975397803,0.0,0.0,0.0,0.0,0.0,0.0,0.0,0.0,0.0,-0.00013209703171649796,-0.0008542109327664729,0.13738586750919082,0.0,0.0,0.0,0.0,0.0,0.0,0.0,0.0,0.0,-0.20136805062627094,0.015798253469265486,0.0002501899033532128,0.0,0.0,0.0,0.0,0.0,0.0,0.0,0.0,0.0
8.587,244,8,587000000,base_footprint,0.002809083523851095,0.0026443063021559946,-0.7297920705024951,0.68365828490966,0.0,0.0,0.0,0.0,0.0,0.0,0.0,0.0,0.0,0.0002687697329520995,-0.0009405389755318338,0.04653098100093889,0.0,0.0,0.0,0.0,0.0,0.0,0.0,0.0,0.0,-0.4643111608732492,0.03266574797850588,-0.0013513045373955298,0.0,0.0,0.0,0.0,0.0,0.0,0.0,0.0,0.0
8.621,245,8,621000000,base_footprint,0.0028095917144060943,0.0026497252072302567,-0.7293327037372315,0.6841482970892089,0.0,0.0,0.0,0.0,0.0,0.0,0.0,0.0,0.0,-4.253390505392348e-05,-0.0001475628344927506,0.039243079036644396,0.0,0.0,0.0,0.0,0.0,0.0,0.0,0.0,0.0,-0.03085392768982773,-0.0038344072054575865,0.0012209345399715648,0.0,0.0,0.0,0.0,0.0,0.0,0.0,0.0,0.0
8.655,246,8,655000000,base_footprint,0.0028108360652604526,0.0026538327789236782,-0.7287036543846068,0.6848182535963211,0.0,0.0,0.0,0.0,0.0,0.0,0.0,0.0,0.0,-0.0001458441946757349,-0.0005545036320168327,0.1180214080134509,0.0,0.0,0.0,0.0,0.0,0.0,0.0,0.0,0.0,0.560807333163651,-0.08102148897755629,-0.00013575162476605284,0.0,0.0,0.0,0.0,0.0,0.0,0.0,0.0,0.0
8.689,247,8,689000000,base_footprint,0.0028029205399188813,0.0026557461539343536,-0.7274873450412178,0.6861102341852167,0.0,0.0,0.0,0.0,0.0,0.0,0.0,0.0,0.0,-0.00014623742673118865,-0.0008341361093895506,0.03568342770768882,0.0,0.0,0.0,0.0,0.0,0.0,0.0,0.0,0.0,-0.24036440125274594,0.005347735047132721,-0.0014507782468272303,0.0,0.0,0.0,0.0,0.0,0.0,0.0,0.0,0.0
8.723,248,8,723000000,base_footprint,0.0028061772259439116,0.002664554678491814,-0.727065128922605,0.6865575895891748,0.0,0.0,0.0,0.0,0.0,0.0,0.0,0.0,0.0,-2.6243442240291722e-05,-0.0003795097105010177,0.03628615828851882,0.0,0.0,0.0,0.0,0.0,0.0,0.0,0.0,0.0,-0.0028616059906121302,-0.00597122753273552,0.0005259688485786693,0.0,0.0,0.0,0.0,0.0,0.0,0.0,0.0,0.0
8.757,249,8,757000000,base_footprint,0.002807954660531753,0.0026587062395899133,-0.7266314819221855,0.6870165472179871,0.0,0.0,0.0,0.0,0.0,0.0,0.0,0.0,0.0,-0.0002391831134890019,0.00036361682354677226,0.06284520890113647,0.0,0.0,0.0,0.0,0.0,0.0,0.0,0.0,0.0,0.45780043165630985,-0.05959697709486447,0.000831480667261101,0.0,0.0,0.0,0.0,0.0,0.0,0.0,0.0,0.0
8.791,250,8,791000000,base_footprint,0.002807347906412424,0.0026712628649057024,-0.7260548009193969,0.6876259224420892,0.0,0.0,0.0,0.0,0.0,0.0,0.0,0.0,0.0,0.000348008969694533,-0.0015344684192720858,0.026523899817253036,0.0,0.0,0.0,0.0,0.0,0.0,0.0,0.0,0.0,-0.1331339695457906,0.00747072789095414,-0.003661136149973474,0.0,0.0,0.0,0.0,0.0,0.0,0.0,0.0,0.0
8.825,251,8,825000000,base_footprint,0.0028077900917076993,0.002675661295317771,-0.7257390492385969,0.6879591481779214,0.0,0.0,0.0,0.0,0.0,0.0,0.0,0.0,0.0,2.2988039791706535e-05,-0.00014588638882952055,0.02682235229491736,0.0,0.0,0.0,0.0,0.0,0.0,0.0,0.0,0.0,0.009805989418873956,-0.005988962187963598,0.0025834581133673765,0.0,0.0,0.0,0.0,0.0,0.0,0.0,0.0,0.0
8.859,252,8,859000000,base_footprint,0.0027995340760194687,0.002675917808760803,-0.7252285678526659,0.6884972958866356,0.0,0.0,0.0,0.0,0.0,0.0,0.0,0.0,0.0,-0.00016766657069399555,0.00021033512384137354,0.05096811228996604,0.0,0.0,0.0,0.0,0.0,0.0,0.0,0.0,0.0,0.008935824234094909,-0.005721530437361551,0.0012730549691547923,0.0,0.0,0.0,0.0,0.0,0.0,0.0,0.0,0.0
8.893,253,8,893000000,base_footprint,0.002785658302056237,0.0026611172267806574,-0.7248307046357619,0.6889162562896557,0.0,0.0,0.0,0.0,0.0,0.0,0.0,0.0,0.0,-0.0005207294207359723,-0.0014531268595029232,0.023098668478244502,0.0,0.0,0.0,0.0,0.0,0.0,0.0,0.0,0.0,0.017848921690802516,-0.031660264556538004,-0.0050108371189486155,0.0,0.0,0.0,0.0,0.0,0.0,0.0,0.0,0.0
8.927,254,8,927000000,base_footprint,0.002788506592650268,0.002659252686661981,-0.7246955681233276,0.6890584054697676,0.0,0.0,0.0,0.0,0.0,0.0,0.0,0.0,0.0,2.9588142789605452e-05,0.00010629613192723429,-0.00018859531967620137,0.0,0.0,0.0,0.0,0.0,0.0,0.0,0.0,0.0,-0.13131674364908114,0.02378907396959047,0.003823568274348153,0.0,0.0,0.0,0.0,0.0,0.0,0.0,0.0,0.0
8.961,255,8,961000000,base_footprint,0.002802610645201065,0.0026738961355259735,-0.7247729106528139,0.6889769398440533,0.0,0.0,0.0,0.0,0.0,0.0,0.0,0.0,0.0,-0.0008466401350020424,-0.001295095902874606,0.025835487292347047,0.0,0.0,0.0,0.0,0.0,0.0,0.0,0.0,0.0,0.34265503654563756,-0.029003697044199833,-0.0016321604059231312,0.0,0.0,0.0,0.0,0.0,0.0,0.0,0.0,0.0
8.995000000000001,256,8,995000000,base_footprint,0.0028016964702150577,0.0026730757901239945,-0.7248655743174871,0.6888794555886312,0.0,0.0,0.0,0.0,0.0,0.0,0.0,0.0,0.0,0.0005689184329875101,-0.0015877382565611634,-0.04686219295065827,0.0,0.0,0.0,0.0,0.0,0.0,0.0,0.0,0.0,-0.23240813486865175,0.023386863202999944,-0.0015804071893591556,0.0,0.0,0.0,0.0,0.0,0.0,0.0,0.0,0.0
9.029,257,9,29000000,base_footprint,0.002799716217837869,0.0026690381880778613,-0.7254037269635224,0.6883127710072521,0.0,0.0,0.0,0.0,0.0,0.0,0.0,0.0,0.0,-3.835783919276629e-05,0.0007064157726482342,-0.045993213114455374,0.0,0.0,0.0,0.0,0.0,0.0,0.0,0.0,0.0,0.00377267433746465,0.008570832729242417,0.003968612155808261,0.0,0.0,0.0,0.0,0.0,0.0,0.0,0.0,0.0
9.063,258,9,63000000,base_footprint,0.0027941724857038362,0.002666885296293831,-0.7249831217550249,0.6887558010596174,0.0,0.0,0.0,0.0,0.0,0.0,0.0,0.0,0.0,-0.0014588559266024233,-0.002180048781310259,0.10215534874680812,0.0,0.0,0.0,0.0,0.0,0.0,0.0,0.0,0.0,-0.26987138607169064,0.022942526255736048,-0.0024870913188393957,0.0,0.0,0.0,0.0,0.0,0.0,0.0,0.0,0.0
9.097,259,9,97000000,base_footprint,0.0027953708964076453,0.002668197033628068,-0.7247746855598471,0.6889751242227589,0.0,0.0,0.0,0.0,0.0,0.0,0.0,0.0,0.0,-0.00016164126482500754,0.0005534511647954834,-0.039994282469409864,0.0,0.0,0.0,0.0,0.0,0.0,0.0,0.0,0.0,-0.42166985876512586,0.035663384373685936,0.002563683973060623,0.0,0.0,0.0,0.0,0.0,0.0,0.0,0.0,0.0
9.131,260,9,131000000,base_footprint,0.0027981080688140123,0.002666690907010241,-0.7252456181852357,0.6884793770723688,0.0,0.0,0.0,0.0,0.0,0.0,0.0,0.0,0.0,-0.0005252944644120526,-0.0052901153758334735,-0.040787483663443515,0.0,0.0,0.0,0.0,0.0,0.0,0.0,0.0,0.0,0.03306545053162793,0.007242741713008588,-0.003932050362525124,0.0,0.0,0.0,0.0,0.0,0.0,0.0,0.0,0.0
9.165,261,9,165000000,base_footprint,0.0027954939574255863,0.002664253832330272,-0.725124782284848,0.688606663547052,0.0,0.0,0.0,0.0,0.0,0.0,0.0,0.0,0.0,0.0012682075588842305,0.004286331128471218,0.08381733725453666,0.0,0.0,0.0,0.0,0.0,0.0,0.0,0.0,0.0,0.6364796310527373,-0.06485441624568389,0.006807111764046005,0.0,0.0,0.0,0.0,0.0,0.0,0.0,0.0,0.0
9.199,262,9,199000000,base_footprint,0.00279823939634432,0.0026676234273087084,-0.725155913130753,0.6885738560917302,0.0,0.0,0.0,0.0,0.0,0.0,0.0,0.0,0.0,3.422023106321892e-05,0.00023524548706513698,-0.03865107137913325,0.0,0.0,0.0,0.0,0.0,0.0,0.0,0.0,0.0,-0.34316706179523204,0.03222680811061934,-0.0038676539249299356,0.0,0.0,0.0,0.0,0.0,0.0,0.0,0.0,0.0
9.233,263,9,233000000,base_footprint,0.002804347192496629,0.0026705487151426283,-0.7256082353984726,0.6880971534080772,0.0,0.0,0.0,0.0,0.0,0.0,0.0,0.0,0.0,-0.00024811576037207474,0.0010122155995232922,-0.03798389194930879,0.0,0.0,0.0,0.0,0.0,0.0,0.0,0.0,0.0,0.06244123492644223,0.00255384951126017,0.004871007031948775,0.0,0.0,0.0,0.0,0.0,0.0,0.0,0.0,0.0
9.267,264,9,267000000,base_footprint,0.0028035602785877263,0.0026645721033455856,-0.7258188616090799,0.6878750033529127,0.0,0.0,0.0,0.0,0.0,0.0,0.0,0.0,0.0,0.002044737889418591,-0.0015395166582579684,0.01141644529809837,0.0,0.0,0.0,0.0,0.0,0.0,0.0,0.0,0.0,0.44518672649001656,-0.04495776457813688,-0.004383673795970496,0.0,0.0,0.0,0.0,0.0,0.0,0.0,0.0,0.0
9.301,265,9,301000000,base_footprint,0.00281061051441576,0.002671079838711145,-0.7262415014810722,0.687428721634141,0.0,0.0,0.0,0.0,0.0,0.0,0.0,0.0,0.0,-4.083900424744255e-06,0.00035828537334862487,-0.04721269845453395,0.0,0.0,0.0,0.0,0.0,0.0,0.0,0.0,0.0,-0.17170989242848902,0.027657599450779988,-0.0005470956004684995,0.0,0.0,0.0,0.0,0.0,0.0,0.0,0.0,0.0
9.335,266,9,335000000,base_footprint,0.00281265136509465,0.0026722120650330963,-0.7268075784330755,0.6868301771233023,0.0,0.0,0.0,0.0,0.0,0.0,0.0,0.0,0.0,-2.8467179542616787e-05,0.0022253986279421674,-0.056809783730415994,0.0,0.0,0.0,0.0,0.0,0.0,0.0,0.0,0.0,-0.028997048789441503,0.009917790370413963,0.006853068499424575,0.0,0.0,0.0,0.0,0.0,0.0,0.0,0.0,0.0
9.369,267,9,369000000,base_footprint,0.0028077696388669688,0.002663565912880712,-0.727788665241667,0.6857905515476541,0.0,0.0,0.0,0.0,0.0,0.0,0.0,0.0,0.0,0.0008503986357426705,0.0005264674111975503,-0.09987453786096949,0.0,0.0,0.0,0.0,0.0,0.0,0.0,0.0,0.0,-0.08496575477290087,0.029538783876292246,-0.006663634982640849,0.0,0.0,0.0,0.0,0.0,0.0,0.0,0.0,0.0
9.403,268,9,403000000,base_footprint,0.0028032885024193437,0.0026591692111236076,-0.7290624751456246,0.6844362481102345,0.0,0.0,0.0,0.0,0.0,0.0,0.0,0.0,0.0,-0.000459845512135731,0.000747795703914313,-0.11214422288731996,0.0,0.0,0.0,0.0,0.0,0.0,0.0,0.0,0.0,0.03935571412118506,-0.011164031077557446,0.00039270840743204917,0.0,0.0,0.0,0.0,0.0,0.0,0.0,0.0,0.0
9.437,269,9,437000000,base_footprint,0.0028231349784554436,0.0026558162451911648,-0.7300646331779784,0.6833671106599067,0.0,0.0,0.0,0.0,0.0,0.0,0.0,0.0,0.0,-0.0022626550071558143,0.0024670592556091417,-0.05437333554754557,0.0,0.0,0.0,0.0,0.0,0.0,0.0,0.0,0.0,0.04807723778911006,0.04099964738158292,0.001044009465488097,0.0,0.0,0.0,0.0,0.0,0.0,0.0,0.0,0.0
9.47,270,9,471000000,base_footprint,0.0028245906103053493,0.002653921899980295,-0.7303712310689001,0.6830394155635034,0.0,0.0,0.0,0.0,0.0,0.0,0.0,0.0,0.0,4.945024244882958e-05,0.0003642244597068026,-0.02322109047968908,0.0,0.0,0.0,0.0,0.0,0.0,0.0,0.0,0.0,0.07556353763238179,-0.007657606504265967,-0.0005063768838111989,0.0,0.0,0.0,0.0,0.0,0.0,0.0,0.0,0.0
9.505,271,9,505000000,base_footprint,0.0028228446694106048,0.0026505780176219423,-0.7306253061487047,0.6827676530118107,0.0,0.0,0.0,0.0,0.0,0.0,0.0,0.0,0.0,0.0002149442271394321,0.0004381995603535458,-0.021619644946360525,0.0,0.0,0.0,0.0,0.0,0.0,0.0,0.0,0.0,0.0017873144047769738,0.004278938024479039,0.00022133905306322946,0.0,0.0,0.0,0.0,0.0,0.0,0.0,0.0,0.0
9.539,272,9,539000000,base_footprint,0.0028151712577667402,0.0026436739718615743,-0.7307095105058582,0.6826775937842176,0.0,0.0,0.0,0.0,0.0,0.0,0.0,0.0,0.0,-0.0005285168486126224,0.003883456649286687,0.06956999507633996,0.0,0.0,0.0,0.0,0.0,0.0,0.0,0.0,0.0,0.007393998954590812,0.0005614862142019131,0.005638847575343013,0.0,0.0,0.0,0.0,0.0,0.0,0.0,0.0,0.0
9.573,273,9,573000000,base_footprint,0.002805461990957182,0.002643414426250857,-0.7291610653948488,0.6843312666066321,0.0,0.0,0.0,0.0,0.0,0.0,0.0,0.0,0.0,-0.0008373617140714977,-0.001961942827314299,0.1563903251334164,0.0,0.0,0.0,0.0,0.0,0.0,0.0,0.0,0.0,-0.4150370040896807,0.028839433926260982,-0.007048258207142405,0.0,0.0,0.0,0.0,0.0,0.0,0.0,0.0,0.0
9.607,274,9,607000000,base_footprint,0.002806420802091638,0.002653244263600738,-0.7281086241119217,0.6854508850318917,0.0,0.0,0.0,0.0,0.0,0.0,0.0,0.0,0.0,-0.00011736652120908082,-0.0006089974073426857,0.06804108192079762,0.0,0.0,0.0,0.0,0.0,0.0,0.0,0.0,0.0,-0.26519024591311313,0.011483620665078742,0.001159304023320426,0.0,0.0,0.0,0.0,0.0,0.0,0.0,0.0,0.0
9.641,275,9,641000000,base_footprint,0.002802642810132269,0.002656777245592184,-0.7271304701893169,0.6864884311117042,0.0,0.0,0.0,0.0,0.0,0.0,0.0,0.0,0.0,-6.650038689249192e-05,-0.0005860257608395596,0.12712713608977372,0.0,0.0,0.0,0.0,0.0,0.0,0.0,0.0,0.0,0.009189167160238394,-0.016939946163289813,0.00037601009460710397,0.0,0.0,0.0,0.0,0.0,0.0,0.0,0.0,0.0
9.675,276,9,675000000,base_footprint,0.002797982262079808,0.0026633309020352735,-0.7256621560313155,0.6880403427617819,0.0,0.0,0.0,0.0,0.0,0.0,0.0,0.0,0.0,-9.004478915847371e-05,-0.0008712848038874858,0.12533670503499622,0.0,0.0,0.0,0.0,0.0,0.0,0.0,0.0,0.0,-0.010310777072128526,-0.028588117006707624,-0.0006984610016037859,0.0,0.0,0.0,0.0,0.0,0.0,0.0,0.0,0.0
9.709,277,9,709000000,base_footprint,0.002794514412058497,0.0026711950559682174,-0.7241972200179019,0.689582077728617,0.0,0.0,0.0,0.0,0.0,0.0,0.0,0.0,0.0,-9.339722802238017e-05,-0.0009772770129413714,0.12493177449725812,0.0,0.0,0.0,0.0,0.0,0.0,0.0,0.0,0.0,-0.008125063090006051,-0.026622868789152442,-0.00044402125176397,0.0,0.0,0.0,0.0,0.0,0.0,0.0,0.0,0.0
9.743,278,9,743000000,base_footprint,0.002785539516423083,0.0026746339490605294,-0.7227094386698644,0.6911411971227953,0.0,0.0,0.0,0.0,0.0,0.0,0.0,0.0,0.0,-0.00012743432098224008,-0.002143351707588626,0.13366710743777988,0.0,0.0,0.0,0.0,0.0,0.0,0.0,0.0,0.0,0.269284283365948,-0.052401614287470394,-0.0010386349042174083,0.0,0.0,0.0,0.0,0.0,0.0,0.0,0.0,0.0
9.777,279,9,777000000,base_footprint,0.0027809989076835557,0.0026825448620733557,-0.721033752771728,0.692889166722974,0.0,0.0,0.0,0.0,0.0,0.0,0.0,0.0,0.0,0.00011819000202686826,-0.001970602221554188,0.12211426692489197,0.0,0.0,0.0,0.0,0.0,0.0,0.0,0.0,0.0,0.15038571799656197,-0.04376150600221246,-0.000582994964154188,0.0,0.0,0.0,0.0,0.0,0.0,0.0,0.0,0.0
9.811,280,9,811000000,base_footprint,0.002785199600885016,0.002698391912904184,-0.7195350656545522,0.6944452826809085,0.0,0.0,0.0,0.0,0.0,0.0,0.0,0.0,0.0,-4.029210854884319e-06,-0.0009705961175615868,0.1289873035261403,0.0,0.0,0.0,0.0,0.0,0.0,0.0,0.0,0.0,-0.08855180068119867,-0.01575443985505915,0.0006422646744698417,0.0,0.0,0.0,0.0,0.0,0.0,0.0,0.0,0.0
9.845,281,9,845000000,base_footprint,0.002760990079502614,0.002690346209334621,-0.717967707487155,0.6960657368213825,0.0,0.0,0.0,0.0,0.0,0.0,0.0,0.0,0.0,-0.000769076160901013,-0.0034433741130140334,0.1453594946264498,0.0,0.0,0.0,0.0,0.0,0.0,0.0,0.0,0.0,0.1254552906371377,-0.04067579696742516,-0.0022363545788358545,0.0,0.0,0.0,0.0,0.0,0.0,0.0,0.0,0.0
9.879,282,9,879000000,base_footprint,0.002762857193163228,0.0027104133760133845,-0.7161458222410338,0.6979399555593411,0.0,0.0,0.0,0.0,0.0,0.0,0.0,0.0,0.0,0.0007336753123145391,-0.0008201867132213566,0.13494979417500713,0.0,0.0,0.0,0.0,0.0,0.0,0.0,0.0,0.0,0.13259174682029146,-0.034603835295265395,0.002161842630353121,0.0,0.0,0.0,0.0,0.0,0.0,0.0,0.0,0.0
9.913,283,9,913000000,base_footprint,0.002765061353011247,0.002719317559035787,-0.7149159155917826,0.6991996806215592,0.0,0.0,0.0,0.0,0.0,0.0,0.0,0.0,0.0,-0.00044172475938971496,-0.0011188284083260129,0.09614923098014747,0.0,0.0,0.0,0.0,0.0,0.0,0.0,0.0,0.0,0.08176999671031349,-0.026585848565372435,-0.0008823924303504581,0.0,0.0,0.0,0.0,0.0,0.0,0.0,0.0,0.0
9.947,284,9,947000000,base_footprint,0.002758474573324431,0.00271738287798184,-0.7138456054184732,0.7002924091214014,0.0,0.0,0.0,0.0,0.0,0.0,0.0,0.0,0.0,6.689735416104045e-05,-0.001590833073369833,0.048304644776529425,0.0,0.0,0.0,0.0,0.0,0.0,0.0,0.0,0.0,0.1776711778935899,-0.02474014742392497,-0.0008252967508011681,0.0,0.0,0.0,0.0,0.0,0.0,0.0,0.0,0.0
9.981,285,9,981000000,base_footprint,0.0027542940379468722,0.0027169750543729514,-0.7132789123928707,0.7008696205761454,0.0,0.0,0.0,0.0,0.0,0.0,0.0,0.0,0.0,-0.0020615331032976004,-0.003201910914637277,0.11627472362804758,0.0,0.0,0.0,0.0,0.0,0.0,0.0,0.0,0.0,0.19344537873060957,-0.011431130195660652,-0.0018806581951769838,0.0,0.0,0.0,0.0,0.0,0.0,0.0,0.0,0.0
10.015,286,10,15000000,base_footprint,0.0027481574698002818,0.0027265937374410273,-0.7119372935155189,0.7022323713835116,0.0,0.0,0.0,0.0,0.0,0.0,0.0,0.0,0.0,5.94075060065058e-05,-0.0005545911479527616,0.11172791408574564,0.0,0.0,0.0,0.0,0.0,0.0,0.0,0.0,0.0,-0.007736422211181941,-0.02306558063529109,0.0032614738835094062,0.0,0.0,0.0,0.0,0.0,0.0,0.0,0.0,0.0
10.049,287,10,49000000,base_footprint,0.0027461251592712115,0.002731417774416391,-0.7107609150626054,0.7034230020214859,0.0,0.0,0.0,0.0,0.0,0.0,0.0,0.0,0.0,0.0007400114901794131,-0.00032343203381629765,0.07012629053742982,0.0,0.0,0.0,0.0,0.0,0.0,0.0,0.0,0.0,0.4288424976254069,-0.027217001656735046,0.0005574319134319187,0.0,0.0,0.0,0.0,0.0,0.0,0.0,0.0,0.0
10.083,288,10,83000000,base_footprint,0.0027325423886640377,0.00272780633273519,-0.709358624473459,0.7048371685501748,0.0,0.0,0.0,0.0,0.0,0.0,0.0,0.0,0.0,0.0017225769692117907,-0.00412572739346239,0.10527543261920422,0.0,0.0,0.0,0.0,0.0,0.0,0.0,0.0,0.0,-0.09250970385141832,-0.016740146912767262,-0.006593172359674223,0.0,0.0,0.0,0.0,0.0,0.0,0.0,0.0,0.0
10.117,289,10,117000000,base_footprint,0.0027291284756442435,0.0027353006517748025,-0.7081021868854352,0.7060994001669822,0.0,0.0,0.0,0.0,0.0,0.0,0.0,0.0,0.0,-9.104943430848412e-05,-0.0005973510455609015,0.1049377664431248,0.0,0.0,0.0,0.0,0.0,0.0,0.0,0.0,0.0,-0.009427520782314316,-0.01961748510349897,0.005609026183033225,0.0,0.0,0.0,0.0,0.0,0.0,0.0,0.0,0.0
10.151,290,10,151000000,base_footprint,0.002724298287297937,0.0027385804619484847,-0.706574903297028,0.7076277159684257,0.0,0.0,0.0,0.0,0.0,0.0,0.0,0.0,0.0,-0.00044951641389271053,0.002051578690456407,0.18210422620936573,0.0,0.0,0.0,0.0,0.0,0.0,0.0,0.0,0.0,0.3579565334681497,-0.018412726358308734,0.003454477195877527,0.0,0.0,0.0,0.0,0.0,0.0,0.0,0.0,0.0
10.185,291,10,185000000,base_footprint,0.0027151806074600057,0.002746893780034492,-0.7043916859141879,0.7098009827999665,0.0,0.0,0.0,0.0,0.0,0.0,0.0,0.0,0.0,-8.016455380939602e-05,-0.001236735573526477,0.18099422011007738,0.0,0.0,0.0,0.0,0.0,0.0,0.0,0.0,0.0,-0.005049362031040722,-0.030802418469854292,-0.0039788124761826905,0.0,0.0,0.0,0.0,0.0,0.0,0.0,0.0,0.0
10.219,292,10,219000000,base_footprint,0.0027079332305517197,0.002755022826355564,-0.7022065665036148,0.7119627903943081,0.0,0.0,0.0,0.0,0.0,0.0,0.0,0.0,0.0,-8.39518433794047e-05,-0.0012637406200197235,0.18076899851638706,0.0,0.0,0.0,0.0,0.0,0.0,0.0,0.0,0.0,-0.00336960361668775,-0.02909351277868688,-0.00030059608085816866,0.0,0.0,0.0,0.0,0.0,0.0,0.0,0.0,0.0
10.253,293,10,253000000,base_footprint,0.0027028619282112973,0.002764613931736236,-0.6999969966647318,0.7141353205853643,0.0,0.0,0.0,0.0,0.0,0.0,0.0,0.0,0.0,0.00014603062437260376,-0.0015685224552033938,0.17136670391174683,0.0,0.0,0.0,0.0,0.0,0.0,0.0,0.0,0.0,0.38062807536167753,-0.014083045641675396,-0.0006472516989869176,0.0,0.0,0.0,0.0,0.0,0.0,0.0,0.0,0.0
10.287,294,10,287000000,base_footprint,0.002695310247953134,0.0027727695756329693,-0.6978441629252001,0.7162391858330389,0.0,0.0,0.0,0.0,0.0,0.0,0.0,0.0,0.0,-7.184780011909483e-05,-0.0015190614876495604,0.17971042223836564,0.0,0.0,0.0,0.0,0.0,0.0,0.0,0.0,0.0,-0.04483504552059816,-0.028348338549759586,-0.00012670902506277696,0.0,0.0,0.0,0.0,0.0,0.0,0.0,0.0,0.0
10.321,295,10,321000000,base_footprint,0.00268874939622595,0.00278217117036862,-0.6956573276117066,0.7183633570070246,0.0,0.0,0.0,0.0,0.0,0.0,0.0,0.0,0.0,-0.00010359899394688226,-0.0013494203075078474,0.1788855633579983,0.0,0.0,0.0,0.0,0.0,0.0,0.0,0.0,0.0,-0.0009147848967250762,-0.02673828810204503,-0.00011342584905890452,0.0,0.0,0.0,0.0,0.0,0.0,0.0,0.0,0.0
10.355,296,10,355000000,base_footprint,0.002667665838257079,0.0027911780362164457,-0.6933087222673759,0.7206303549755064,0.0,0.0,0.0,0.0,0.0,0.0,0.0,0.0,0.0,-0.0016814945188611437,-0.0020962608270883097,0.1752015678244078,0.0,0.0,0.0,0.0,0.0,0.0,0.0,0.0,0.0,0.3423353411259781,-0.002751975667260542,-0.0012353164554341567,0.0,0.0,0.0,0.0,0.0,0.0,0.0,0.0,0.0
10.389,297,10,389000000,base_footprint,0.0026732582876467115,0.002802051073127948,-0.6913574473739472,0.7225025136015036,0.0,0.0,0.0,0.0,0.0,0.0,0.0,0.0,0.0,-0.0004220045412384907,-0.001445235317877337,0.16029457736225833,0.0,0.0,0.0,0.0,0.0,0.0,0.0,0.0,0.0,-0.006196365499108834,-0.019819163578987553,0.0004423171235926779,0.0,0.0,0.0,0.0,0.0,0.0,0.0,0.0,0.0
10.423,298,10,423000000,base_footprint,0.0026631023313480025,0.0028099508511668634,-0.6894299768421475,0.724341990425533,0.0,0.0,0.0,0.0,0.0,0.0,0.0,0.0,0.0,0.0006180771392461527,-0.0004338056533418073,0.15410483310662138,0.0,0.0,0.0,0.0,0.0,0.0,0.0,0.0,0.0,0.0138022673688608,-0.02449683619812575,0.0012778894833170172,0.0,0.0,0.0,0.0,0.0,0.0,0.0,0.0,0.0
10.457,299,10,457000000,base_footprint,0.002649444649369533,0.0028205923264332344,-0.6873694453067193,0.7262976458454972,0.0,0.0,0.0,0.0,0.0,0.0,0.0,0.0,0.0,3.400484925264051e-05,-0.0014950930601230683,0.16085013636311024,0.0,0.0,0.0,0.0,0.0,0.0,0.0,0.0,0.0,0.09992726025732544,-0.012394201177136834,-0.001896559485653864,0.0,0.0,0.0,0.0,0.0,0.0,0.0,0.0,0.0
10.491,300,10,491000000,base_footprint,0.00263730485117909,0.0028287217285711173,-0.6854649441397488,0.7280953600401499,0.0,0.0,0.0,0.0,0.0,0.0,0.0,0.0,0.0,-0.0010435048398752158,-0.0011436773281999733,0.15389328388026197,0.0,0.0,0.0,0.0,0.0,0.0,0.0,0.0,0.0,0.019472889434823507,-0.019665552081544677,-0.0015241776523328438,0.0,0.0,0.0,0.0,0.0,0.0,0.0,0.0,0.0
10.525,301,10,525000000,base_footprint,0.002628399358720104,0.002838248043601535,-0.6834160284135098,0.7300188819286518,0.0,0.0,0.0,0.0,0.0,0.0,0.0,0.0,0.0,-0.0007621845132169856,-0.00175701424828775,0.18063991366162047,0.0,0.0,0.0,0.0,0.0,0.0,0.0,0.0,0.0,-0.048395493263900725,-0.026378189021072265,0.00020310022395388317,0.0,0.0,0.0,0.0,0.0,0.0,0.0,0.0,0.0
10.559,302,10,559000000,base_footprint,0.0026279852314182407,0.002825309085316774,-0.6813660074675112,0.731932698538588,0.0,0.0,0.0,0.0,0.0,0.0,0.0,0.0,0.0,0.00035272220664463747,-0.0009433767482955357,0.1335958607967661,0.0,0.0,0.0,0.0,0.0,0.0,0.0,0.0,0.0,0.33056960550888603,0.028313518430865797,0.001674920014020097,0.0,0.0,0.0,0.0,0.0,0.0,0.0,0.0,0.0
10.593,303,10,593000000,base_footprint,0.002624555929991911,0.0028497231686749314,-0.6799000065428807,0.7332946010213242,0.0,0.0,0.0,0.0,0.0,0.0,0.0,0.0,0.0,0.0010269029066120004,-0.001694080763429493,0.13261124816287806,0.0,0.0,0.0,0.0,0.0,0.0,0.0,0.0,0.0,0.26392266857277413,0.0237615144178826,-0.0019488673318404054,0.0,0.0,0.0,0.0,0.0,0.0,0.0,0.0,0.0
10.627,304,10,627000000,base_footprint,0.002619172473365937,0.0028565014179951784,-0.6781411259891051,0.7349214880362612,0.0,0.0,0.0,0.0,0.0,0.0,0.0,0.0,0.0,-0.000338070354268115,-0.0007949756338037475,0.1407918153131672,0.0,0.0,0.0,0.0,0.0,0.0,0.0,0.0,0.0,0.023841662802210818,-0.01353016297112336,0.00259397262757855,0.0,0.0,0.0,0.0,0.0,0.0,0.0,0.0,0.0
10.661,305,10,661000000,base_footprint,0.002611554252471793,0.002864105582025596,-0.6760932737469385,0.736805850871007,0.0,0.0,0.0,0.0,0.0,0.0,0.0,0.0,0.0,0.00024369241512450497,-0.0010480787977594414,0.16865319920781552,0.0,0.0,0.0,0.0,0.0,0.0,0.0,0.0,0.0,-0.03689752915414008,-0.027565412875956197,-0.0006321361755487279,0.0,0.0,0.0,0.0,0.0,0.0,0.0,0.0,0.0
10.695,306,10,695000000,base_footprint,0.00259910753060224,0.0028612341133901708,-0.6739332568221456,0.7387821216898043,0.0,0.0,0.0,0.0,0.0,0.0,0.0,0.0,0.0,5.150352010600568e-05,-0.0013141101326710198,0.18138568184636636,0.0,0.0,0.0,0.0,0.0,0.0,0.0,0.0,0.0,0.033535166360813516,-0.013601670636116893,0.00013293888572009184,0.0,0.0,0.0,0.0,0.0,0.0,0.0,0.0,0.0
10.729,307,10,729000000,base_footprint,0.0025900182247589384,0.002874043172729815,-0.6714497707243883,0.7410399699581686,0.0,0.0,0.0,0.0,0.0,0.0,0.0,0.0,0.0,0.0008206319285705653,-0.0018445767430308188,0.20413358920075697,0.0,0.0,0.0,0.0,0.0,0.0,0.0,0.0,0.0,0.06132696497247624,-0.00727706728879635,-0.0016975891914976027,0.0,0.0,0.0,0.0,0.0,0.0,0.0,0.0,0.0
10.763,308,10,763000000,base_footprint,0.0025809131933449856,0.0028739351310457825,-0.669594284748011,0.7427170209553238,0.0,0.0,0.0,0.0,0.0,0.0,0.0,0.0,0.0,0.00039297991629707555,-0.0012082950272967082,0.13155060531512766,0.0,0.0,0.0,0.0,0.0,0.0,0.0,0.0,0.0,0.006902405652496383,-0.018934198598986724,0.0009202220700500392,0.0,0.0,0.0,0.0,0.0,0.0,0.0,0.0,0.0
10.797,309,10,797000000,base_footprint,0.0025754358743251392,0.0028865883367550126,-0.6680965206240929,0.7440645629700506,0.0,0.0,0.0,0.0,0.0,0.0,0.0,0.0,0.0,-8.746991642391799e-05,-0.0005847783934321689,0.11628206798183843,0.0,0.0,0.0,0.0,0.0,0.0,0.0,0.0,0.0,-0.03950577767779238,-0.02333698806749286,0.0004761284522994855,0.0,0.0,0.0,0.0,0.0,0.0,0.0,0.0,0.0
10.831,310,10,831000000,base_footprint,0.002569533556806939,0.0028900075103958935,-0.666626482603159,0.745381900803897,0.0,0.0,0.0,0.0,0.0,0.0,0.0,0.0,0.0,-0.0006723174453693545,-0.00082107573491468,0.11197675761014311,0.0,0.0,0.0,0.0,0.0,0.0,0.0,0.0,0.0,0.00297886718829698,-0.011721455406615629,0.0008129336517698849,0.0,0.0,0.0,0.0,0.0,0.0,0.0,0.0,0.0
10.865,311,10,865000000,base_footprint,0.0025640451287208613,0.0028936075404026383,-0.6653295353768525,0.7465397926856959,0.0,0.0,0.0,0.0,0.0,0.0,0.0,0.0,0.0,9.649538751100147e-05,-0.0005920569517864154,0.10240373481498488,0.0,0.0,0.0,0.0,0.0,0.0,0.0,0.0,0.0,-0.005266084648237013,-0.012735482306953665,-0.0012591311896341336,0.0,0.0,0.0,0.0,0.0,0.0,0.0,0.0,0.0
10.899000000000001,312,10,899000000,base_footprint,0.002559136561131653,0.0028971988093553927,-0.6640284233258076,0.7476973385498725,0.0,0.0,0.0,0.0,0.0,0.0,0.0,0.0,0.0,9.743200446785253e-05,-0.0006253271808143899,0.102613414818547,0.0,0.0,0.0,0.0,0.0,0.0,0.0,0.0,0.0,0.0007284808399870722,-0.012093425762018578,-0.00015641912261140107,0.0,0.0,0.0,0.0,0.0,0.0,0.0,0.0,0.0
10.933,313,10,933000000,base_footprint,0.0025546091911367165,0.002900040193351945,-0.6627363073313074,0.7488428744961259,0.0,0.0,0.0,0.0,0.0,0.0,0.0,0.0,0.0,-0.00044058578734304776,-0.00014986605690938337,0.08741335532101974,0.0,0.0,0.0,0.0,0.0,0.0,0.0,0.0,0.0,-0.0004910078074348316,-0.011308336544090164,-0.0006248434672730121,0.0,0.0,0.0,0.0,0.0,0.0,0.0,0.0,0.0
10.967,314,10,967000000,base_footprint,0.0025512416759643592,0.0029035850051200747,-0.6616748558416955,0.7497809316773136,0.0,0.0,0.0,0.0,0.0,0.0,0.0,0.0,0.0,-0.00010079740447231089,-0.00046616963469335923,0.0836124263620303,0.0,0.0,0.0,0.0,0.0,0.0,0.0,0.0,0.0,-0.004062296571340937,-0.011769576518139676,0.0007006599396767046,0.0,0.0,0.0,0.0,0.0,0.0,0.0,0.0,0.0
11.001,315,11,1000000,base_footprint,0.002548358025241004,0.002905870492578628,-0.6606109966507397,0.7507184378261745,0.0,0.0,0.0,0.0,0.0,0.0,0.0,0.0,0.0,-0.00010512297470094113,-0.0005043661576235414,0.08340553145181528,0.0,0.0,0.0,0.0,0.0,0.0,0.0,0.0,0.0,-0.0004092693317555981,-0.010074915210095983,-0.00014842379895772974,0.0,0.0,0.0,0.0,0.0,0.0,0.0,0.0,0.0
11.035,316,11,35000000,base_footprint,0.0025453047883858323,0.0029094948561414207,-0.6595065544945253,0.751688872368067,0.0,0.0,0.0,0.0,0.0,0.0,0.0,0.0,0.0,-8.618813903643271e-05,0.00132057138257289,0.11395987974715346,0.0,0.0,0.0,0.0,0.0,0.0,0.0,0.0,0.0,0.003461293139401335,-0.010994341028791588,0.00330884790200114,0.0,0.0,0.0,0.0,0.0,0.0,0.0,0.0,0.0
11.069,317,11,69000000,base_footprint,0.0025416099326115316,0.0029129240038701927,-0.658051406416934,0.7529630811702479,0.0,0.0,0.0,0.0,0.0,0.0,0.0,0.0,0.0,-0.00012068715426823736,-0.0008134664801673382,0.11327015850320282,0.0,0.0,0.0,0.0,0.0,0.0,0.0,0.0,0.0,0.004876445262459419,-0.010110156952256096,-0.0036631647263231336,0.0,0.0,0.0,0.0,0.0,0.0,0.0,0.0,0.0
11.103,318,11,103000000,base_footprint,0.002537581183931918,0.0029172540242008043,-0.6566048327286813,0.7542248629871823,0.0,0.0,0.0,0.0,0.0,0.0,0.0,0.0,0.0,-0.00012216547147382806,-0.0008195037669706415,0.11264610905206256,0.0,0.0,0.0,0.0,0.0,0.0,0.0,0.0,0.0,0.0014183694351593956,-0.013039168718134556,-0.0001299267045191837,0.0,0.0,0.0,0.0,0.0,0.0,0.0,0.0,0.0
11.137,319,11,137000000,base_footprint,0.0025298441282696044,0.0029188757696187203,-0.6552545663240676,0.7553982614253135,0.0,0.0,0.0,0.0,0.0,0.0,0.0,0.0,0.0,-0.0007543255173021227,-0.003018194672774562,0.06185449834627402,0.0,0.0,0.0,0.0,0.0,0.0,0.0,0.0,0.0,-0.014708728927434005,-0.014829670304086552,-0.0030300782622632227,0.0,0.0,0.0,0.0,0.0,0.0,0.0,0.0,0.0
11.171,320,11,171000000,base_footprint,0.0025320253467030294,0.0029240092319863897,-0.6545151016007973,0.7560390339090655,0.0,0.0,0.0,0.0,0.0,0.0,0.0,0.0,0.0,-0.00019826818939830648,-0.00037020222909365033,0.058002219968952995,0.0,0.0,0.0,0.0,0.0,0.0,0.0,0.0,0.0,0.003287666123728946,-0.007553297966821969,0.0028970409784277416,0.0,0.0,0.0,0.0,0.0,0.0,0.0,0.0,0.0
11.205,321,11,205000000,base_footprint,0.002529075613810919,0.0029261302327063415,-0.6537743989689382,0.7566796394718208,0.0,0.0,0.0,0.0,0.0,0.0,0.0,0.0,0.0,4.949040821179058e-06,-0.0001795105030780116,0.05748934933890153,0.0,0.0,0.0,0.0,0.0,0.0,0.0,0.0,0.0,0.00029531668124794467,-0.00924060277204017,7.241988172326647e-05,0.0,0.0,0.0,0.0,0.0,0.0,0.0,0.0,0.0
11.239,322,11,239000000,base_footprint,0.0025227564682951537,0.0029297196429394533,-0.6530353425489294,0.7573175647141812,0.0,0.0,0.0,0.0,0.0,0.0,0.0,0.0,0.0,4.7071302044835687e-05,-0.0004794418773421906,0.05428384080472442,0.0,0.0,0.0,0.0,0.0,0.0,0.0,0.0,0.0,-0.006968381144463791,-0.009473024079999004,-0.0005229507029611688,0.0,0.0,0.0,0.0,0.0,0.0,0.0,0.0,0.0
11.273,323,11,273000000,base_footprint,0.0025193820826714458,0.0029340849144744207,-0.6523786076278284,0.7578833658084945,0.0,0.0,0.0,0.0,0.0,0.0,0.0,0.0,0.0,-7.458485441890053e-05,-0.00010218759204807469,0.04601348073312961,0.0,0.0,0.0,0.0,0.0,0.0,0.0,0.0,0.0,0.014535269528680846,0.0016219629641593966,0.0005331687205144047,0.0,0.0,0.0,0.0,0.0,0.0,0.0,0.0,0.0
11.307,324,11,307000000,base_footprint,0.0025198164447840597,0.0029368736411454987,-0.6518611971277022,0.758328428174455,0.0,0.0,0.0,0.0,0.0,0.0,0.0,0.0,0.0,-0.0003383191356303595,-0.0006806152495066051,0.04050194457270663,0.0,0.0,0.0,0.0,0.0,0.0,0.0,0.0,0.0,0.011085010116572955,-0.0025122821805984522,-0.0009485687435434485,0.0,0.0,0.0,0.0,0.0,0.0,0.0,0.0,0.0
11.341,325,11,341000000,base_footprint,0.0025152399272721027,0.0029411820604117235,-0.6513188233479149,0.7587943155881465,0.0,0.0,0.0,0.0,0.0,0.0,0.0,0.0,0.0,0.0004056139675492344,-0.00010368711393206269,0.031956156062361775,0.0,0.0,0.0,0.0,0.0,0.0,0.0,0.0,0.0,-0.004166432595619374,-0.008684947777985248,0.00024954264312534617,0.0,0.0,0.0,0.0,0.0,0.0,0.0,0.0,0.0
11.375,326,11,375000000,base_footprint,0.0025141040789279476,0.002945194939620816,-0.6508856929023827,0.759165871125957,0.0,0.0,0.0,0.0,0.0,0.0,0.0,0.0,0.0,0.00014305002739647098,-0.00020306183983651203,0.033385440324479064,0.0,0.0,0.0,0.0,0.0,0.0,0.0,0.0,0.0,-0.0020074976114891657,-0.003423702949301739,-8.257183185759112e-05,0.0,0.0,0.0,0.0,0.0,0.0,0.0,0.0,0.0
11.409,327,11,409000000,base_footprint,0.0025111330231915767,0.002948357666734466,-0.6504544031864334,0.7595354308874535,0.0,0.0,0.0,0.0,0.0,0.0,0.0,0.0,0.0,0.00013694295854049435,-0.0001106017683705553,0.033042615264630135,0.0,0.0,0.0,0.0,0.0,0.0,0.0,0.0,0.0,-0.0004787119575748104,-0.0033976520997644065,0.00014145077731709805,0.0,0.0,0.0,0.0,0.0,0.0,0.0,0.0,0.0
11.443,328,11,443000000,base_footprint,0.002507564312404748,0.0029512861643564764,-0.6500233157080288,0.7599043960046129,0.0,0.0,0.0,0.0,0.0,0.0,0.0,0.0,0.0,7.361518669990921e-06,2.675687040441991e-06,0.0338851208410237,0.0,0.0,0.0,0.0,0.0,0.0,0.0,0.0,0.0,0.00023845630358699382,-0.0034844753828789446,0.00024034981748345853,0.0,0.0,0.0,0.0,0.0,0.0,0.0,0.0,0.0
11.477,329,11,477000000,base_footprint,0.002503744812885114,0.0029519471601498807,-0.6495778320687823,0.760285247360947,0.0,0.0,0.0,0.0,0.0,0.0,0.0,0.0,0.0,6.784313437391433e-05,-5.616152796719326e-05,0.03479472557056873,0.0,0.0,0.0,0.0,0.0,0.0,0.0,0.0,0.0,0.0025658275141625005,-0.003196527391126948,-0.00011734448338446874,0.0,0.0,0.0,0.0,0.0,0.0,0.0,0.0,0.0
