Time,header.seq,header.stamp.secs,header.stamp.nsecs,header.frame_id,orientation.x,orientation.y,orientation.z,orientation.w,orientation_covariance_0,orientation_covariance_1,orientation_covariance_2,orientation_covariance_3,orientation_covariance_4,orientation_covariance_5,orientation_covariance_6,orientation_covariance_7,orientation_covariance_8,angular_velocity.x,angular_velocity.y,angular_velocity.z,angular_velocity_covariance_0,angular_velocity_covariance_1,angular_velocity_covariance_2,angular_velocity_covariance_3,angular_velocity_covariance_4,angular_velocity_covariance_5,angular_velocity_covariance_6,angular_velocity_covariance_7,angular_velocity_covariance_8,linear_acceleration.x,linear_acceleration.y,linear_acceleration.z,linear_acceleration_covariance_0,linear_acceleration_covariance_1,linear_acceleration_covariance_2,linear_acceleration_covariance_3,linear_acceleration_covariance_4,linear_acceleration_covariance_5,linear_acceleration_covariance_6,linear_acceleration_covariance_7,linear_acceleration_covariance_8
0.18400000000000002,0,0,185000000,base_footprint,0.00031123682072377415,-2.1741237673409742e-05,0.9999999502426647,4.66221840835984e-05,0.0,0.0,0.0,0.0,0.0,0.0,0.0,0.0,0.0,-0.00028370995309235844,0.047565954085312,3.1255446681074917e-06,0.0,0.0,0.0,0.0,0.0,0.0,0.0,0.0,0.0,-7.3567995667212705e-06,1.7260481115566502e-06,-0.04795392226389733,0.0,0.0,0.0,0.0,0.0,0.0,0.0,0.0,0.0
0.219,1,0,219000000,base_footprint,-0.0007012992061849388,-2.9180514560847726e-05,0.9999997525786982,4.6588233360756664e-05,0.0,0.0,0.0,0.0,0.0,0.0,0.0,0.0,0.0,-0.0004198522618758305,0.067788204826998,6.62871360218661e-06,0.0,0.0,0.0,0.0,0.0,0.0,0.0,0.0,0.0,-0.0003436588908437559,9.952091587536896e-08,0.0027911641578696957,0.0,0.0,0.0,0.0,0.0,0.0,0.0,0.0,0.0
0.253,2,0,253000000,base_footprint,-0.0018550863595958103,-3.66385742164984e-05,0.9999982775738626,4.649216506250552e-05,0.0,0.0,0.0,0.0,0.0,0.0,0.0,0.0,0.0,-0.00042067884344977716,0.06770914187696335,7.805434504499726e-06,0.0,0.0,0.0,0.0,0.0,0.0,0.0,0.0,0.0,-0.00030142205600119487,3.262219377288811e-07,0.00015861423010986116,0.0,0.0,0.0,0.0,0.0,0.0,0.0,0.0,0.0
0.28700000000000003,3,0,287000000,base_footprint,-0.0030075682420304083,-4.410399687478431e-05,0.9999954752084285,4.63764644604856e-05,0.0,0.0,0.0,0.0,0.0,0.0,0.0,0.0,0.0,-0.00042115699164608274,0.0676326454892533,8.854051799656656e-06,0.0,0.0,0.0,0.0,0.0,0.0,0.0,0.0,0.0,-0.0002947320953075535,8.093660957273985e-08,0.00015003323813602405,0.0,0.0,0.0,0.0,0.0,0.0,0.0,0.0,0.0
0.322,4,0,321000000,base_footprint,-0.00397199102836963,-7.261622246730049e-06,0.9999921104719296,4.7206308927533784e-05,0.0,0.0,0.0,0.0,0.0,0.0,0.0,0.0,0.0,-0.0002709638115946364,0.009329679001562887,-0.00017202251406050228,0.0,0.0,0.0,0.0,0.0,0.0,0.0,0.0,0.0,0.0009924170823077377,0.0009986048108828695,0.13026939581817526,0.0,0.0,0.0,0.0,0.0,0.0,0.0,0.0,0.0
0.35500000000000004,5,0,355000000,base_footprint,-0.0038538770477351994,-6.7975285583386245e-06,0.9999925725951617,4.83735967776337e-05,0.0,0.0,0.0,0.0,0.0,0.0,0.0,0.0,0.0,-1.3305862742245055e-05,0.0015897106531043094,-3.74689803729234e-06,0.0,0.0,0.0,0.0,0.0,0.0,0.0,0.0,0.0,-0.0011968562937391663,-0.001008363299103712,-0.0006251544313445047,0.0,0.0,0.0,0.0,0.0,0.0,0.0,0.0,0.0
0.389,6,0,389000000,base_footprint,-0.00385310223224555,-6.875142929289692e-06,0.9999925755862419,4.825261564117802e-05,0.0,0.0,0.0,0.0,0.0,0.0,0.0,0.0,0.0,3.910758827892894e-05,-0.000219754876140845,8.702968639757131e-06,0.0,0.0,0.0,0.0,0.0,0.0,0.0,0.0,0.0,3.1672527941868456e-05,2.498503096718697e-05,0.002345692994359836,0.0,0.0,0.0,0.0,0.0,0.0,0.0,0.0,0.0
0.42300000000000004,7,0,423000000,base_footprint,-0.003853101564949505,-6.875816863622427e-06,0.9999925755958015,4.810747025757243e-05,0.0,0.0,0.0,0.0,0.0,0.0,0.0,0.0,0.0,3.870186297055116e-05,-0.0001796291177614152,9.70790963516669e-06,0.0,0.0,0.0,0.0,0.0,0.0,0.0,0.0,0.0,-1.137125721024593e-06,1.9490241974839687e-06,-4.386459942070975e-05,0.0,0.0,0.0,0.0,0.0,0.0,0.0,0.0,0.0
0.457,8,0,457000000,base_footprint,-0.003853101656674369,-6.876467481284211e-06,0.9999925756027624,4.795509373766657e-05,0.0,0.0,0.0,0.0,0.0,0.0,0.0,0.0,0.0,3.8711428538421263e-05,-0.000180427747918647,9.85112933364849e-06,0.0,0.0,0.0,0.0,0.0,0.0,0.0,0.0,0.0,-2.5027571394251316e-08,2.7874289606394833e-07,8.623816484771855e-07,0.0,0.0,0.0,0.0,0.0,0.0,0.0,0.0,0.0
0.49100000000000005,9,0,491000000,base_footprint,-0.003853101628640667,-6.8771023844034e-06,0.999992575610213,4.780164527646349e-05,0.0,0.0,0.0,0.0,0.0,0.0,0.0,0.0,0.0,3.871149833526925e-05,-0.0001804102537356163,9.872013276222853e-06,0.0,0.0,0.0,0.0,0.0,0.0,0.0,0.0,0.0,-6.469892398414487e-09,4.062040327310789e-08,-2.1035351463285007e-08,0.0,0.0,0.0,0.0,0.0,0.0,0.0,0.0,0.0
0.522,10,0,525000000,base_footprint,-0.0038531016256096915,-6.877733254826018e-06,0.9999925756175512,4.764804030103548e-05,0.0,0.0,0.0,0.0,0.0,0.0,0.0,0.0,0.0,3.8711760309758324e-05,-0.0001804101810819153,9.874932252658046e-06,0.0,0.0,0.0,0.0,0.0,0.0,0.0,0.0,0.0,-8.598341126591668e-10,5.677733785198029e-09,-2.9282529901238115e-10,0.0,0.0,0.0,0.0,0.0,0.0,0.0,0.0,0.0
0.5640000000000001,11,0,559000000,base_footprint,-0.0038531016245941527,-6.878361410176653e-06,0.9999925756248591,4.749441209896346e-05,0.0,0.0,0.0,0.0,0.0,0.0,0.0,0.0,0.0,3.871200571609785e-05,-0.00018041010853552097,9.875250560201813e-06,0.0,0.0,0.0,0.0,0.0,0.0,0.0,0.0,0.0,-1.0058041817050382e-10,6.186175564920105e-10,-7.00432453591376e-11,0.0,0.0,0.0,0.0,0.0,0.0,0.0,0.0,0.0
0.5960000000000001,12,0,593000000,base_footprint,-0.003853101623909672,-6.878987228276037e-06,0.9999925756321423,4.734078012766468e-05,0.0,0.0,0.0,0.0,0.0,0.0,0.0,0.0,0.0,3.871224285945314e-05,-0.00018041007838569693,9.875206569363822e-06,0.0,0.0,0.0,0.0,0.0,0.0,0.0,0.0,0.0,6.056226785273264e-12,-8.628496235083487e-11,7.768544602176814e-12,0.0,0.0,0.0,0.0,0.0,0.0,0.0,0.0,0.0
0.654,13,0,627000000,base_footprint,-0.0038531016232632095,-6.8796108864067385e-06,0.9999925756394019,4.718714723391928e-05,0.0,0.0,0.0,0.0,0.0,0.0,0.0,0.0,0.0,3.871247306380128e-05,-0.00018041005323957674,9.875123666947623e-06,0.0,0.0,0.0,0.0,0.0,0.0,0.0,0.0,0.0,1.7501593180439692e-11,-1.6210610674914828e-10,1.6276081435613354e-11,0.0,0.0,0.0,0.0,0.0,0.0,0.0,0.0,0.0
0.661,14,0,661000000,base_footprint,-0.0038531016226136076,-6.880232526098169e-06,0.999992575646638,4.70335138410677e-05,0.0,0.0,0.0,0.0,0.0,0.0,0.0,0.0,0.0,3.8712696819269533e-05,-0.00018041002846342456,9.87504993111084e-06,0.0,0.0,0.0,0.0,0.0,0.0,0.0,0.0,0.0,1.4811178537524267e-11,-1.4440083589063173e-10,1.5806571178265916e-11,0.0,0.0,0.0,0.0,0.0,0.0,0.0,0.0,0.0
0.6960000000000001,15,0,695000000,base_footprint,-0.003853101621955361,-6.880852276287285e-06,0.9999925756538505,4.687988001119488e-05,0.0,0.0,0.0,0.0,0.0,0.0,0.0,0.0,0.0,3.871291452580312e-05,-0.00018041000337783918,9.87499137424517e-06,0.0,0.0,0.0,0.0,0.0,0.0,0.0,0.0,0.0,1.0355204878953058e-11,-1.1499132676073412e-10,1.3819063409990322e-11,0.0,0.0,0.0,0.0,0.0,0.0,0.0,0.0,0.0
0.7290000000000001,16,0,729000000,base_footprint,-0.003853101621288172,-6.881470256726156e-06,0.9999925756610393,4.6726245755072454e-05,0.0,0.0,0.0,0.0,0.0,0.0,0.0,0.0,0.0,3.871312645465037e-05,-0.00018040997782913334,9.874948205188416e-06,0.0,0.0,0.0,0.0,0.0,0.0,0.0,0.0,0.0,5.833227081047762e-12,-8.517169886189246e-11,1.1857498978490374e-11,0.0,0.0,0.0,0.0,0.0,0.0,0.0,0.0,0.0
0.763,17,0,763000000,base_footprint,-0.0038531016206126444,-6.8820865797593314e-06,0.9999925756682048,4.6572611079466136e-05,0.0,0.0,0.0,0.0,0.0,0.0,0.0,0.0,0.0,3.871333321941594e-05,-0.0001804099518869637,9.87491826159534e-06,0.0,0.0,0.0,0.0,0.0,0.0,0.0,0.0,0.0,1.9475231869247217e-12,-5.954406798614501e-11,1.0096332099271613e-11,0.0,0.0,0.0,0.0,0.0,0.0,0.0,0.0,0.0
0.797,18,0,797000000,base_footprint,-0.0038531016199291144,-6.8827013501629575e-06,0.9999925756753465,4.64189759895776e-05,0.0,0.0,0.0,0.0,0.0,0.0,0.0,0.0,0.0,3.871353496416519e-05,-0.00018040992559508685,9.8749016765635e-06,0.0,0.0,0.0,0.0,0.0,0.0,0.0,0.0,0.0,-1.9749519237187054e-12,-3.365549637895412e-11,8.276242940177108e-12,0.0,0.0,0.0,0.0,0.0,0.0,0.0,0.0,0.0
0.8310000000000001,19,0,831000000,base_footprint,-0.003853101619238177,-6.8833146767762965e-06,0.9999925756824649,4.626534049641931e-05,0.0,0.0,0.0,0.0,0.0,0.0,0.0,0.0,0.0,3.871373316212608e-05,-0.00018040989888157684,9.874898455896238e-06,0.0,0.0,0.0,0.0,0.0,0.0,0.0,0.0,0.0,-5.901369825080731e-12,-7.735586215701554e-12,6.85716250244147e-12,0.0,0.0,0.0,0.0,0.0,0.0,0.0,0.0,0.0
0.8660000000000001,20,0,865000000,base_footprint,-0.0038531016185400628,-6.8839266427566394e-06,0.9999925756895597,4.611170459448478e-05,0.0,0.0,0.0,0.0,0.0,0.0,0.0,0.0,0.0,3.8713927472091085e-05,-0.00018040987181329135,9.874906722428552e-06,0.0,0.0,0.0,0.0,0.0,0.0,0.0,0.0,0.0,-9.275118889548729e-12,1.4533362223013235e-11,5.338606602370554e-12,0.0,0.0,0.0,0.0,0.0,0.0,0.0,0.0,0.0
0.911,21,0,899000000,base_footprint,-0.0038531016178354445,-6.884537333472009e-06,0.9999925756966309,4.5958068289287226e-05,0.0,0.0,0.0,0.0,0.0,0.0,0.0,0.0,0.0,3.8714117704612545e-05,-0.00018040984443620434,9.87492597307301e-06,0.0,0.0,0.0,0.0,0.0,0.0,0.0,0.0,0.0,-1.2502325950684528e-11,3.5819404204433776e-11,3.8620128700374645e-12,0.0,0.0,0.0,0.0,0.0,0.0,0.0,0.0,0.0
0.929,22,0,933000000,base_footprint,-0.0038531016171245904,-6.885146829720193e-06,0.9999925757036784,4.580443158366024e-05,0.0,0.0,0.0,0.0,0.0,0.0,0.0,0.0,0.0,3.8714304163153935e-05,-0.00018040981683570498,9.874955885557713e-06,0.0,0.0,0.0,0.0,0.0,0.0,0.0,0.0,0.0,-1.5633391476396884e-11,5.648566221176062e-11,2.839157501468205e-12,0.0,0.0,0.0,0.0,0.0,0.0,0.0,0.0,0.0
0.9710000000000001,23,0,967000000,base_footprint,-0.00385310161640784,-6.885755207797406e-06,0.9999925757107025,4.5650794472333405e-05,0.0,0.0,0.0,0.0,0.0,0.0,0.0,0.0,0.0,3.871448694131716e-05,-0.00018040978899390328,9.87499533939959e-06,0.0,0.0,0.0,0.0,0.0,0.0,0.0,0.0,0.0,-1.8435145273853308e-11,7.497540269017564e-11,1.4720011210935875e-12,0.0,0.0,0.0,0.0,0.0,0.0,0.0,0.0,0.0
1.0,24,1,1000000,base_footprint,-0.0038531016156856607,-6.8863625380930035e-06,0.999992575717703,4.5497156963770996e-05,0.0,0.0,0.0,0.0,0.0,0.0,0.0,0.0,0.0,3.871466636339732e-05,-0.000180409760771934,9.875043019133589e-06,0.0,0.0,0.0,0.0,0.0,0.0,0.0,0.0,0.0,-2.085364479997887e-11,9.091246352840514e-11,-2.355877021521053e-15,0.0,0.0,0.0,0.0,0.0,0.0,0.0,0.0,0.0
1.035,25,1,35000000,base_footprint,-0.003853101614958808,-6.886968886988008e-06,0.99999257572468,4.534351906114788e-05,0.0,0.0,0.0,0.0,0.0,0.0,0.0,0.0,0.0,3.8714842805886085e-05,-0.0001804097323281175,9.875099709922183e-06,0.0,0.0,0.0,0.0,0.0,0.0,0.0,0.0,0.0,-2.3502135645644874e-11,1.083796209354516e-10,-8.392427264464501e-13,0.0,0.0,0.0,0.0,0.0,0.0,0.0,0.0,0.0
1.069,26,1,69000000,base_footprint,-0.003853101614226817,-6.887574317048611e-06,0.9999925757316334,4.5189880762429695e-05,0.0,0.0,0.0,0.0,0.0,0.0,0.0,0.0,0.0,3.871501610343801e-05,-0.00018040970357731235,9.875164218472321e-06,0.0,0.0,0.0,0.0,0.0,0.0,0.0,0.0,0.0,-2.5799758091191457e-11,1.2352883880993602e-10,-2.0699496401569076e-12,0.0,0.0,0.0,0.0,0.0,0.0,0.0,0.0,0.0
1.103,27,1,103000000,base_footprint,-0.0038531016134906925,-6.888178887006948e-06,0.9999925757385633,4.503624207314902e-05,0.0,0.0,0.0,0.0,0.0,0.0,0.0,0.0,0.0,3.871518677974196e-05,-0.0001804096747624786,9.875234795806014e-06,0.0,0.0,0.0,0.0,0.0,0.0,0.0,0.0,0.0,-2.7579607922388367e-11,1.3528467073001819e-10,-2.9097183629644855e-12,0.0,0.0,0.0,0.0,0.0,0.0,0.0,0.0,0.0
1.133,28,1,137000000,base_footprint,-0.003853101612749949,-6.888782650982498e-06,0.9999925757454695,4.488260299196073e-05,0.0,0.0,0.0,0.0,0.0,0.0,0.0,0.0,0.0,3.871535483046199e-05,-0.000180409645657873,9.875313987606975e-06,0.0,0.0,0.0,0.0,0.0,0.0,0.0,0.0,0.0,-3.011314454560653e-11,1.519871824885161e-10,-3.731695512318607e-12,0.0,0.0,0.0,0.0,0.0,0.0,0.0,0.0,0.0
1.17,29,1,171000000,base_footprint,-0.0038531016120056474,-6.88938566017322e-06,0.9999925757523521,4.472896351831548e-05,0.0,0.0,0.0,0.0,0.0,0.0,0.0,0.0,0.0,3.871552048545221e-05,-0.00018040961625570082,9.8753989275125e-06,0.0,0.0,0.0,0.0,0.0,0.0,0.0,0.0,0.0,-3.180369599655405e-11,1.6312299179234835e-10,-4.8502498674619065e-12,0.0,0.0,0.0,0.0,0.0,0.0,0.0,0.0,0.0
1.213,30,1,205000000,base_footprint,-0.003853101611257885,-6.889987962533842e-06,0.9999925757592113,4.457532367033999e-05,0.0,0.0,0.0,0.0,0.0,0.0,0.0,0.0,0.0,3.871568395526092e-05,-0.00018040958693917722,9.875488457663385e-06,0.0,0.0,0.0,0.0,0.0,0.0,0.0,0.0,0.0,-3.3146949380822625e-11,1.7201290574228024e-10,-5.380775817241895e-12,0.0,0.0,0.0,0.0,0.0,0.0,0.0,0.0,0.0
1.24,31,1,239000000,base_footprint,-0.003853101610506859,-6.890589602778351e-06,0.9999925757660469,4.442168345925541e-05,0.0,0.0,0.0,0.0,0.0,0.0,0.0,0.0,0.0,3.8715845181170857e-05,-0.0001804095573669006,9.875584502812027e-06,0.0,0.0,0.0,0.0,0.0,0.0,0.0,0.0,0.0,-3.506291502405572e-11,1.8464037164210196e-10,-6.281931757032153e-12,0.0,0.0,0.0,0.0,0.0,0.0,0.0,0.0,0.0
1.2730000000000001,32,1,273000000,base_footprint,-0.0038531016097522216,-6.891190622736539e-06,0.9999925757728589,4.4268042862293186e-05,0.0,0.0,0.0,0.0,0.0,0.0,0.0,0.0,0.0,3.871600444447597e-05,-0.00018040952763036255,9.875685903968129e-06,0.0,0.0,0.0,0.0,0.0,0.0,0.0,0.0,0.0,-3.6637603784972256e-11,1.9502099407318068e-10,-6.855978277880737e-12,0.0,0.0,0.0,0.0,0.0,0.0,0.0,0.0,0.0
1.307,33,1,307000000,base_footprint,-0.0038531016089941323,-6.89179106314692e-06,0.9999925757796474,4.411440188307716e-05,0.0,0.0,0.0,0.0,0.0,0.0,0.0,0.0,0.0,3.87161617462863e-05,-0.00018040949782390542,9.875793065173035e-06,0.0,0.0,0.0,0.0,0.0,0.0,0.0,0.0,0.0,-3.8327847510937764e-11,2.061877844529716e-10,-7.451553375627888e-12,0.0,0.0,0.0,0.0,0.0,0.0,0.0,0.0,0.0
1.333,34,1,341000000,base_footprint,-0.0038531016082337943,-6.892390959418389e-06,0.9999925757864121,4.396076052471499e-05,0.0,0.0,0.0,0.0,0.0,0.0,0.0,0.0,0.0,3.871631748657026e-05,-0.00018040946766605492,9.875904063061695e-06,0.0,0.0,0.0,0.0,0.0,0.0,0.0,0.0,0.0,-3.945918242901455e-11,2.1361953470279574e-10,-8.411135271859034e-12,0.0,0.0,0.0,0.0,0.0,0.0,0.0,0.0,0.0
1.376,35,1,375000000,base_footprint,-0.0038531016074705086,-6.892990346718118e-06,0.9999925757931535,4.380711878871721e-05,0.0,0.0,0.0,0.0,0.0,0.0,0.0,0.0,0.0,3.8716471538228135e-05,-0.00018040943739855179,9.876019468819382e-06,0.0,0.0,0.0,0.0,0.0,0.0,0.0,0.0,0.0,-4.075615459620744e-11,2.221619407143443e-10,-8.73738505365018e-12,0.0,0.0,0.0,0.0,0.0,0.0,0.0,0.0,0.0
1.403,36,1,409000000,base_footprint,-0.003853101606704776,-6.893589257212029e-06,0.9999925757998711,4.3653476677912566e-05,0.0,0.0,0.0,0.0,0.0,0.0,0.0,0.0,0.0,3.871662403523546e-05,-0.00018040940712645335,9.87613903047555e-06,0.0,0.0,0.0,0.0,0.0,0.0,0.0,0.0,0.0,-4.197328722583787e-11,2.3021592822801312e-10,-9.363488760140997e-12,0.0,0.0,0.0,0.0,0.0,0.0,0.0,0.0,0.0
1.443,37,1,443000000,base_footprint,-0.0038531016059366,-6.894187721437513e-06,0.9999925758065651,4.349983418769609e-05,0.0,0.0,0.0,0.0,0.0,0.0,0.0,0.0,0.0,3.8716775094490225e-05,-0.00018040937679007806,9.876263042274035e-06,0.0,0.0,0.0,0.0,0.0,0.0,0.0,0.0,0.0,-4.327984571914118e-11,2.38842446821034e-10,-9.801791091148656e-12,0.0,0.0,0.0,0.0,0.0,0.0,0.0,0.0,0.0
1.477,38,1,477000000,base_footprint,-0.003853101605166123,-6.894785767549137e-06,0.9999925758132358,4.3346191324107397e-05,0.0,0.0,0.0,0.0,0.0,0.0,0.0,0.0,0.0,3.871692486654045e-05,-0.00018040934634494497,9.876390100924345e-06,0.0,0.0,0.0,0.0,0.0,0.0,0.0,0.0,0.0,-4.4176932224819854e-11,2.4474576767877247e-10,-1.0089965054907666e-11,0.0,0.0,0.0,0.0,0.0,0.0,0.0,0.0,0.0
1.513,39,1,511000000,base_footprint,-0.0038531016043938065,-6.895383422128668e-06,0.9999925758198827,4.319254808548154e-05,0.0,0.0,0.0,0.0,0.0,0.0,0.0,0.0,0.0,3.871707332350112e-05,-0.00018040931567643936,9.876520783251738e-06,0.0,0.0,0.0,0.0,0.0,0.0,0.0,0.0,0.0,-4.5241805947232196e-11,2.5176906947187934e-10,-1.0935873530469275e-11,0.0,0.0,0.0,0.0,0.0,0.0,0.0,0.0,0.0
1.546,40,1,545000000,base_footprint,-0.003853101603619373,-6.895980710093765e-06,0.9999925758265061,4.303890447252576e-05,0.0,0.0,0.0,0.0,0.0,0.0,0.0,0.0,0.0,3.871722062673181e-05,-0.00018040928497293303,9.876653864401354e-06,0.0,0.0,0.0,0.0,0.0,0.0,0.0,0.0,0.0,-4.594771575839941e-11,2.564145934015147e-10,-1.1095216469381568e-11,0.0,0.0,0.0,0.0,0.0,0.0,0.0,0.0,0.0
1.581,41,1,579000000,base_footprint,-0.0038531016028431377,-6.8965776546628065e-06,0.9999925758331059,4.288526048409697e-05,0.0,0.0,0.0,0.0,0.0,0.0,0.0,0.0,0.0,3.871736677028257e-05,-0.00018040925422380648,9.87679072751898e-06,0.0,0.0,0.0,0.0,0.0,0.0,0.0,0.0,0.0,-4.705721725123364e-11,2.637464905336149e-10,-1.1525670932997147e-11,0.0,0.0,0.0,0.0,0.0,0.0,0.0,0.0,0.0
1.613,42,1,613000000,base_footprint,-0.0038531016020651792,-6.897174278048597e-06,0.999992575839682,4.273161612461196e-05,0.0,0.0,0.0,0.0,0.0,0.0,0.0,0.0,0.0,3.871751198223129e-05,-0.000180409223413484,9.876929965795175e-06,0.0,0.0,0.0,0.0,0.0,0.0,0.0,0.0,0.0,-4.7755433983019946e-11,2.6834944993379674e-10,-1.1774267320534492e-11,0.0,0.0,0.0,0.0,0.0,0.0,0.0,0.0,0.0
1.645,43,1,647000000,base_footprint,-0.0038531016012854943,-6.8977706005721796e-06,0.9999925758462347,4.257797139077641e-05,0.0,0.0,0.0,0.0,0.0,0.0,0.0,0.0,0.0,3.871765622174495e-05,-0.00018040919257023404,9.877071806609374e-06,0.0,0.0,0.0,0.0,0.0,0.0,0.0,0.0,0.0,-4.8518745193562903e-11,2.7339310102931727e-10,-1.2168267117498498e-11,0.0,0.0,0.0,0.0,0.0,0.0,0.0,0.0,0.0
1.682,44,1,681000000,base_footprint,-0.0038531016005043444,-6.898366640956685e-06,0.9999925758527637,4.2424326282849466e-05,0.0,0.0,0.0,0.0,0.0,0.0,0.0,0.0,0.0,3.8717799473986906e-05,-0.0001804091614470693,9.87721621086368e-06,0.0,0.0,0.0,0.0,0.0,0.0,0.0,0.0,0.0,-4.927697300251726e-11,2.783602392122482e-10,-1.272902146210994e-11,0.0,0.0,0.0,0.0,0.0,0.0,0.0,0.0,0.0
1.703,45,1,715000000,base_footprint,-0.00384804043968737,-6.966142703974083e-06,0.9999925953879679,4.129749982207715e-05,0.0,0.0,0.0,0.0,0.0,0.0,0.0,0.0,0.0,3.915035096598073e-05,-0.0002132485621139814,-1.3860838470340011e-05,0.0,0.0,0.0,0.0,0.0,0.0,0.0,0.0,0.0,0.5757573809176914,-9.388462689561114e-05,0.0044588993615293174,0.0,0.0,0.0,0.0,0.0,0.0,0.0,0.0,0.0
1.749,46,1,749000000,base_footprint,-0.0038482952916936712,-6.997412645214128e-06,0.9999925943722187,4.2131978013183704e-05,0.0,0.0,0.0,0.0,0.0,0.0,0.0,0.0,0.0,4.350358506655167e-05,-0.0002955195958058143,-6.911267241318455e-05,0.0,0.0,0.0,0.0,0.0,0.0,0.0,0.0,0.0,0.7860492213634827,-0.00017347053022166318,0.006131442065509366,0.0,0.0,0.0,0.0,0.0,0.0,0.0,0.0,0.0
1.7890000000000001,47,1,783000000,base_footprint,-0.0038488954586802094,-7.054298537024737e-06,0.9999925919711183,4.423651683800608e-05,0.0,0.0,0.0,0.0,0.0,0.0,0.0,0.0,0.0,4.3321879745822754e-05,-0.0002814096234384903,-0.00014926639700350681,0.0,0.0,0.0,0.0,0.0,0.0,0.0,0.0,0.0,0.7858834667537367,-0.00022517221256609119,0.006024752859693904,0.0,0.0,0.0,0.0,0.0,0.0,0.0,0.0,0.0
1.816,48,1,817000000,base_footprint,-0.0038498421943479184,-7.126939720687914e-06,0.9999925881395911,4.827180982939744e-05,0.0,0.0,0.0,0.0,0.0,0.0,0.0,0.0,0.0,4.143580239340008e-05,-0.00024076067512402447,-0.00027062421975943614,0.0,0.0,0.0,0.0,0.0,0.0,0.0,0.0,0.0,0.7768130310817535,-0.0003106521594349991,0.005927581131365096,0.0,0.0,0.0,0.0,0.0,0.0,0.0,0.0,0.0
1.851,49,1,851000000,base_footprint,-0.003851244289815977,-7.2130798118121565e-06,0.9999925823769225,5.5285854499652795e-05,0.0,0.0,0.0,0.0,0.0,0.0,0.0,0.0,0.0,4.453496942972666e-05,-0.00022590934089292293,-0.0004675146294842406,0.0,0.0,0.0,0.0,0.0,0.0,0.0,0.0,0.0,0.7484857125134989,-0.0004649729505600454,0.005747813631165773,0.0,0.0,0.0,0.0,0.0,0.0,0.0,0.0,0.0
1.8860000000000001,50,1,885000000,base_footprint,-0.0038530496735651415,-7.313898608247963e-06,0.9999925747013862,6.705827741052719e-05,0.0,0.0,0.0,0.0,0.0,0.0,0.0,0.0,0.0,4.156547086399701e-05,-0.00017075443435954013,-0.0007846964409687763,0.0,0.0,0.0,0.0,0.0,0.0,0.0,0.0,0.0,0.6874986333489146,-0.0007080265739483295,0.0052351495181518215,0.0,0.0,0.0,0.0,0.0,0.0,0.0,0.0,0.0
1.923,51,1,919000000,base_footprint,-0.003855267101471215,-7.80345369429347e-06,0.999992564802179,8.48235955882284e-05,0.0,0.0,0.0,0.0,0.0,0.0,0.0,0.0,0.0,1.1061702632040268e-05,-0.00010041296470544622,-0.001181102625601759,0.0,0.0,0.0,0.0,0.0,0.0,0.0,0.0,0.0,0.581421190727812,-0.0008687413830602901,0.004390938722704086,0.0,0.0,0.0,0.0,0.0,0.0,0.0,0.0,0.0
1.9540000000000002,52,1,953000000,base_footprint,-0.0038573958119626356,-8.056438296025933e-06,0.9999925545310767,0.00010637224861849214,0.0,0.0,0.0,0.0,0.0,0.0,0.0,0.0,0.0,0.00013655020019772305,-7.159777810777933e-05,-0.0008039270328041848,0.0,0.0,0.0,0.0,0.0,0.0,0.0,0.0,0.0,0.42856629605927493,0.0006427277960352772,0.003374874993658083,0.0,0.0,0.0,0.0,0.0,0.0,0.0,0.0,0.0
1.988,53,1,987000000,base_footprint,-0.003859427391127433,-7.401939513368975e-06,0.999992545801283,0.00011448708545988654,0.0,0.0,0.0,0.0,0.0,0.0,0.0,0.0,0.0,2.6142318834298198e-05,-5.315672743377839e-05,-0.0001280220169916389,0.0,0.0,0.0,0.0,0.0,0.0,0.0,0.0,0.0,0.23919334642467746,0.0005533699542569389,0.0017452265514534824,0.0,0.0,0.0,0.0,0.0,0.0,0.0,0.0,0.0
2.021,54,2,21000000,base_footprint,-0.003857763755725937,-5.4814689000305925e-06,0.999992521512437,0.0002730347170790305,0.0,0.0,0.0,0.0,0.0,0.0,0.0,0.0,0.0,0.00019200820148180967,-8.280709136920171e-05,-0.0063667931800059875,0.0,0.0,0.0,0.0,0.0,0.0,0.0,0.0,0.0,-0.07154550252081482,-0.002004699874492234,-0.001028305577776559,0.0,0.0,0.0,0.0,0.0,0.0,0.0,0.0,0.0
2.055,55,2,55000000,base_footprint,-0.0038530669768298592,5.878804851525287e-07,0.9999924756791997,0.000449955011043722,0.0,0.0,0.0,0.0,0.0,0.0,0.0,0.0,0.0,0.0006778515205545821,0.00033990754244480383,-0.026168121800923212,0.0,0.0,0.0,0.0,0.0,0.0,0.0,0.0,0.0,0.013993807332343153,0.0014963685704527693,-0.0003137063161869565,0.0,0.0,0.0,0.0,0.0,0.0,0.0,0.0,0.0
2.089,56,2,89000000,base_footprint,-0.003849927581404465,2.570929252294754e-06,0.9999914524755804,0.0015076560573232462,0.0,0.0,0.0,0.0,0.0,0.0,0.0,0.0,0.0,0.0011490292946855355,0.0003821633206905984,-0.08875342122830457,0.0,0.0,0.0,0.0,0.0,0.0,0.0,0.0,0.0,0.1382394733517389,-0.01444460356648959,0.0010491563031418936,0.0,0.0,0.0,0.0,0.0,0.0,0.0,0.0,0.0
2.123,57,2,123000000,base_footprint,-0.003848791390602909,1.200403997323911e-05,0.999983819825054,0.004188883959807717,0.0,0.0,0.0,0.0,0.0,0.0,0.0,0.0,0.0,0.0015463009075546872,-0.00046790391358598874,-0.21038269373864107,0.0,0.0,0.0,0.0,0.0,0.0,0.0,0.0,0.0,0.22113868309519433,-0.033413392034935624,0.002886388663318256,0.0,0.0,0.0,0.0,0.0,0.0,0.0,0.0,0.0
2.158,58,2,157000000,base_footprint,-0.003853383445202508,2.812879807289211e-05,0.9999534863397754,0.008841708077265009,0.0,0.0,0.0,0.0,0.0,0.0,0.0,0.0,0.0,0.00217514206808058,0.002085761695666714,-0.3238185383231621,0.0,0.0,0.0,0.0,0.0,0.0,0.0,0.0,0.0,0.3004671055707624,-0.0643346453156821,-0.001156910951300406,0.0,0.0,0.0,0.0,0.0,0.0,0.0,0.0,0.0
2.191,59,2,191000000,base_footprint,-0.0038543101836955884,4.7619140483924765e-05,0.9998896735570734,0.014345129464546622,0.0,0.0,0.0,0.0,0.0,0.0,0.0,0.0,0.0,0.00017343621431963638,0.0013057431051529062,-0.3096803490832124,0.0,0.0,0.0,0.0,0.0,0.0,0.0,0.0,0.0,-0.01307792090155125,-0.06802838768320482,0.0031740600881592566,0.0,0.0,0.0,0.0,0.0,0.0,0.0,0.0,0.0
2.227,60,2,225000000,base_footprint,-0.003849015571064494,5.589547054984965e-05,0.9998638363168777,0.01604651926512195,0.0,0.0,0.0,0.0,0.0,0.0,0.0,0.0,0.0,0.002076623381419498,-0.0017809242657731684,-0.019838099175357574,0.0,0.0,0.0,0.0,0.0,0.0,0.0,0.0,0.0,-0.315800549155677,-0.004132047521425454,-0.0026600265387470476,0.0,0.0,0.0,0.0,0.0,0.0,0.0,0.0,0.0
2.259,61,2,259000000,base_footprint,-0.0038497747086796985,6.446108477872456e-05,0.9998199290601157,0.018581833431775368,0.0,0.0,0.0,0.0,0.0,0.0,0.0,0.0,0.0,0.0018010691361599316,-0.0002416480136390867,-0.24153152897130695,0.0,0.0,0.0,0.0,0.0,0.0,0.0,0.0,0.0,0.4544518357871784,-0.061448089008746334,0.0037294604984561127,0.0,0.0,0.0,0.0,0.0,0.0,0.0,0.0,0.0
2.291,62,2,293000000,base_footprint,-0.0038530486906285443,8.431300690886659e-05,0.9997101036501206,0.023766690282194875,0.0,0.0,0.0,0.0,0.0,0.0,0.0,0.0,0.0,0.002388589242558633,-0.00011875716750104457,-0.3208412414383441,0.0,0.0,0.0,0.0,0.0,0.0,0.0,0.0,0.0,0.20236149443910226,-0.08458159843842387,0.001366915419586112,0.0,0.0,0.0,0.0,0.0,0.0,0.0,0.0,0.0
2.328,63,2,327000000,base_footprint,-0.0038586566304724093,0.00010727631403293363,0.9995654108637081,0.029224795391363738,0.0,0.0,0.0,0.0,0.0,0.0,0.0,0.0,0.0,0.00406848286091704,0.001590321554045494,-0.32659246096114514,0.0,0.0,0.0,0.0,0.0,0.0,0.0,0.0,0.0,-0.08225055839745286,-0.061938652587051383,-0.0019116926689771293,0.0,0.0,0.0,0.0,0.0,0.0,0.0,0.0,0.0
2.363,64,2,361000000,base_footprint,-0.0038516637922394363,0.00012018114028675344,0.9994298604859492,0.03354257312075642,0.0,0.0,0.0,0.0,0.0,0.0,0.0,0.0,0.0,0.0008264272446058985,0.0018676859512688803,-0.23830854761474415,0.0,0.0,0.0,0.0,0.0,0.0,0.0,0.0,0.0,-0.4333797644757388,0.00035311670355798325,-0.004436846531859813,0.0,0.0,0.0,0.0,0.0,0.0,0.0,0.0,0.0
2.3970000000000002,65,2,395000000,base_footprint,-0.0038551540488700087,0.00013771446125272413,0.9992479492426707,0.03858308899380519,0.0,0.0,0.0,0.0,0.0,0.0,0.0,0.0,0.0,0.0031417167562574544,0.00033047693881834485,-0.35400071499293134,0.0,0.0,0.0,0.0,0.0,0.0,0.0,0.0,0.0,0.13766628694631863,-0.08250985478582053,0.0017185350890129467,0.0,0.0,0.0,0.0,0.0,0.0,0.0,0.0,0.0
2.4290000000000003,66,2,429000000,base_footprint,-0.003854067922846396,0.00016390738218053188,0.9989710898081754,0.04518717763129942,0.0,0.0,0.0,0.0,0.0,0.0,0.0,0.0,0.0,0.0031984893250808872,-0.0003882445364903097,-0.4115415612435442,0.0,0.0,0.0,0.0,0.0,0.0,0.0,0.0,0.0,0.13391983459596546,-0.10730835217930072,0.0030694457772840467,0.0,0.0,0.0,0.0,0.0,0.0,0.0,0.0,0.0
2.463,67,2,463000000,base_footprint,-0.0038471503563807167,0.00019687598901590108,0.9986273488927114,0.052235799194566,0.0,0.0,0.0,0.0,0.0,0.0,0.0,0.0,0.0,0.0037054970709640544,-0.003548869401417855,-0.4105679981050438,0.0,0.0,0.0,0.0,0.0,0.0,0.0,0.0,0.0,-0.018920488036926433,-0.08659718366611936,0.003793912428954592,0.0,0.0,0.0,0.0,0.0,0.0,0.0,0.0,0.0
2.501,68,2,497000000,base_footprint,-0.003857520625998849,0.00021997346319966554,0.9982423907706295,0.0591371322844922,0.0,0.0,0.0,0.0,0.0,0.0,0.0,0.0,0.0,0.0022080478430042,-0.0008980631111385532,-0.3662825736037187,0.0,0.0,0.0,0.0,0.0,0.0,0.0,0.0,0.0,0.00210948791513872,-0.09377345646907925,-0.0036246048672057126,0.0,0.0,0.0,0.0,0.0,0.0,0.0,0.0,0.0
2.532,69,2,531000000,base_footprint,-0.0038489469613089454,0.00023202801330093642,0.9979698830605636,0.06357078160897077,0.0,0.0,0.0,0.0,0.0,0.0,0.0,0.0,0.0,0.002457606439715116,0.0005536422895015423,-0.19069765261224542,0.0,0.0,0.0,0.0,0.0,0.0,0.0,0.0,0.0,-0.16968289668119302,-0.01439957919658684,-0.0019644784644106167,0.0,0.0,0.0,0.0,0.0,0.0,0.0,0.0,0.0
2.566,70,2,565000000,base_footprint,-0.0038450052192010743,0.0002537400091414961,0.997790961575478,0.06632004635971908,0.0,0.0,0.0,0.0,0.0,0.0,0.0,0.0,0.0,0.0011820141771667733,0.0011472734828033015,-0.17673669938627554,0.0,0.0,0.0,0.0,0.0,0.0,0.0,0.0,0.0,-0.24084932395237663,0.03068414655619669,-0.0029021454932798597,0.0,0.0,0.0,0.0,0.0,0.0,0.0,0.0,0.0
2.603,71,2,599000000,base_footprint,-0.0038366201847129487,0.00026601580305130377,0.9974636400034199,0.07107388023935834,0.0,0.0,0.0,0.0,0.0,0.0,0.0,0.0,0.0,0.0028665447261243676,-0.0010504060600793935,-0.3919607120615681,0.0,0.0,0.0,0.0,0.0,0.0,0.0,0.0,0.0,0.27390449233209946,-0.13631166152256985,0.004690181708831983,0.0,0.0,0.0,0.0,0.0,0.0,0.0,0.0,0.0
2.633,72,2,633000000,base_footprint,-0.003839615839251233,0.00029136341663094735,0.996920396963654,0.07832556782684146,0.0,0.0,0.0,0.0,0.0,0.0,0.0,0.0,0.0,0.00321550032292545,-0.0006977192762167325,-0.4265969690651876,0.0,0.0,0.0,0.0,0.0,0.0,0.0,0.0,0.0,0.02809972636940359,-0.10540283655193355,-0.00039338374164105784,0.0,0.0,0.0,0.0,0.0,0.0,0.0,0.0,0.0
2.668,73,2,667000000,base_footprint,-0.0038370372991893514,0.000318092194543583,0.9963497890264152,0.08527762818663749,0.0,0.0,0.0,0.0,0.0,0.0,0.0,0.0,0.0,0.002948732923788926,-0.0007084156553973709,-0.3887176338688093,0.0,0.0,0.0,0.0,0.0,0.0,0.0,0.0,0.0,0.04663235923484571,-0.1108683193982436,0.00048305656416057274,0.0,0.0,0.0,0.0,0.0,0.0,0.0,0.0,0.0
2.701,74,2,701000000,base_footprint,-0.003836048095730071,0.00034254391190115496,0.9958186444344789,0.09127099646302095,0.0,0.0,0.0,0.0,0.0,0.0,0.0,0.0,0.0,0.0038981153456848386,0.0002738462185234037,-0.3204416110269572,0.0,0.0,0.0,0.0,0.0,0.0,0.0,0.0,0.0,0.1069350487643892,-0.12452296278466328,-0.0009635359533308401,0.0,0.0,0.0,0.0,0.0,0.0,0.0,0.0,0.0
2.743,75,2,735000000,base_footprint,-0.003841229329521333,0.00036825967019964156,0.9953084922229708,0.09667530527952768,0.0,0.0,0.0,0.0,0.0,0.0,0.0,0.0,0.0,0.001922586902695993,-0.0017348976074011498,-0.3132201704759068,0.0,0.0,0.0,0.0,0.0,0.0,0.0,0.0,0.0,-0.27617652307309126,0.035876893690256206,0.001208842247503485,0.0,0.0,0.0,0.0,0.0,0.0,0.0,0.0,0.0
2.759,76,2,769000000,base_footprint,-0.0038325101021177846,0.0003799773164233642,0.9948379754928931,0.10140300784867351,0.0,0.0,0.0,0.0,0.0,0.0,0.0,0.0,0.0,0.002771898724767458,0.00015358178788417144,-0.2721719172075937,0.0,0.0,0.0,0.0,0.0,0.0,0.0,0.0,0.0,-0.2152550204466461,0.026947456096388354,-0.004754898674252902,0.0,0.0,0.0,0.0,0.0,0.0,0.0,0.0,0.0
2.802,77,2,803000000,base_footprint,-0.003833898909257279,0.00040448697702186946,0.994322460971876,0.10633899198446141,0.0,0.0,0.0,0.0,0.0,0.0,0.0,0.0,0.0,0.0021283351326535464,0.00030159828706418415,-0.22163491733965932,0.0,0.0,0.0,0.0,0.0,0.0,0.0,0.0,0.0,0.026567580777726585,-0.07855261134441537,0.000576829383802157,0.0,0.0,0.0,0.0,0.0,0.0,0.0,0.0,0.0
2.837,78,2,837000000,base_footprint,-0.00383393503558198,0.00041036409469489334,0.9940262575072026,0.10907305776257158,0.0,0.0,0.0,0.0,0.0,0.0,0.0,0.0,0.0,0.0010434456018434373,-0.0005228120565056403,-0.14882987040977955,0.0,0.0,0.0,0.0,0.0,0.0,0.0,0.0,0.0,-0.05922285185971177,-0.010924870518927437,0.0009797511481356785,0.0,0.0,0.0,0.0,0.0,0.0,0.0,0.0,0.0
2.871,79,2,871000000,base_footprint,-0.003832798512930119,0.0004228984337099461,0.9936881245659477,0.11211173849817797,0.0,0.0,0.0,0.0,0.0,0.0,0.0,0.0,0.0,0.0011773123381115256,-0.0003993097002212326,-0.1847662828532386,0.0,0.0,0.0,0.0,0.0,0.0,0.0,0.0,0.0,0.07023300888556827,-0.07467290165391653,0.0003626535805751603,0.0,0.0,0.0,0.0,0.0,0.0,0.0,0.0,0.0
2.906,80,2,905000000,base_footprint,-0.0038311989696310556,0.00043274878341088304,0.9933694931916871,0.11490075995848065,0.0,0.0,0.0,0.0,0.0,0.0,0.0,0.0,0.0,0.0007756107393094424,-0.00039241660115794756,-0.09848631170776377,0.0,0.0,0.0,0.0,0.0,0.0,0.0,0.0,0.0,0.1244574070101038,-0.10072884154498304,0.001525409411730832,0.0,0.0,0.0,0.0,0.0,0.0,0.0,0.0,0.0
2.939,81,2,939000000,base_footprint,-0.0038241025869803834,0.0004433365817832074,0.9932315811238548,0.11608706194183328,0.0,0.0,0.0,0.0,0.0,0.0,0.0,0.0,0.0,0.0005448513644769362,-0.0003260768762018781,-0.07533023240423907,0.0,0.0,0.0,0.0,0.0,0.0,0.0,0.0,0.0,0.0507484906299616,-0.04300662886406726,0.00036541207763249827,0.0,0.0,0.0,0.0,0.0,0.0,0.0,0.0,0.0
2.973,82,2,973000000,base_footprint,-0.003829821453983437,0.0004467468207439103,0.9930381485179788,0.11773006613815125,0.0,0.0,0.0,0.0,0.0,0.0,0.0,0.0,0.0,0.0006487452726097723,0.0011222694844139178,-0.1147372674643171,0.0,0.0,0.0,0.0,0.0,0.0,0.0,0.0,0.0,0.08322574603667683,-0.06634993109455614,-0.0017029768841792556,0.0,0.0,0.0,0.0,0.0,0.0,0.0,0.0,0.0
3.009,83,3,7000000,base_footprint,-0.0038330550151623394,0.00045000374449722465,0.9928056175338582,0.11967502236931234,0.0,0.0,0.0,0.0,0.0,0.0,0.0,0.0,0.0,0.0008913420428249765,6.3257269606110706e-06,-0.11922072354811904,0.0,0.0,0.0,0.0,0.0,0.0,0.0,0.0,0.0,-0.28875324526632834,0.1214606179821961,-0.0004372271094891417,0.0,0.0,0.0,0.0,0.0,0.0,0.0,0.0,0.0
3.041,84,3,41000000,base_footprint,-0.0038282786891988764,0.0004630369013089205,0.9925792510838839,0.12153830752837527,0.0,0.0,0.0,0.0,0.0,0.0,0.0,0.0,0.0,-1.2420796332668176e-06,-0.001226544976667568,-0.08959014541248167,0.0,0.0,0.0,0.0,0.0,0.0,0.0,0.0,0.0,-0.16428171483654583,0.06065390589500425,0.00024950972959854746,0.0,0.0,0.0,0.0,0.0,0.0,0.0,0.0,0.0
3.075,85,3,75000000,base_footprint,-0.0038268818167132798,0.00046792129667073306,0.9923922156095109,0.12305619213541137,0.0,0.0,0.0,0.0,0.0,0.0,0.0,0.0,0.0,0.0006310089760373672,-0.0011011953775809807,-0.10823196988800639,0.0,0.0,0.0,0.0,0.0,0.0,0.0,0.0,0.0,0.11704600014357898,-0.08360461748302951,0.0006322099760563589,0.0,0.0,0.0,0.0,0.0,0.0,0.0,0.0,0.0
3.108,86,3,109000000,base_footprint,-0.0038268361635626883,0.00047876167186153463,0.9921076526516189,0.12532969186243736,0.0,0.0,0.0,0.0,0.0,0.0,0.0,0.0,0.0,0.0008185698498753527,-0.001193052819848363,-0.16306353699282042,0.0,0.0,0.0,0.0,0.0,0.0,0.0,0.0,0.0,0.05777912908438904,-0.0625759793335949,0.0008200355170637796,0.0,0.0,0.0,0.0,0.0,0.0,0.0,0.0,0.0
3.143,87,3,143000000,base_footprint,-0.0038199396284765816,0.00048422869241783646,0.9917313765670817,0.12827334218835054,0.0,0.0,0.0,0.0,0.0,0.0,0.0,0.0,0.0,0.0013399583010534261,-0.0004003109357915666,-0.1806315370600261,0.0,0.0,0.0,0.0,0.0,0.0,0.0,0.0,0.0,-0.048495503864626976,-0.015029106719997206,-0.0014544795575901557,0.0,0.0,0.0,0.0,0.0,0.0,0.0,0.0,0.0
3.177,88,3,177000000,base_footprint,-0.0038182226680413996,0.0004950732094901023,0.9913517731296191,0.13117483749155112,0.0,0.0,0.0,0.0,0.0,0.0,0.0,0.0,0.0,0.0011045887262896583,-0.0005148468988656701,-0.15718832872099775,0.0,0.0,0.0,0.0,0.0,0.0,0.0,0.0,0.0,0.025050979875689633,-0.05709389522399845,0.0004584907292244191,0.0,0.0,0.0,0.0,0.0,0.0,0.0,0.0,0.0
3.211,89,3,211000000,base_footprint,-0.003816632637528717,0.0005049275201881936,0.9910024509967772,0.13378834210008672,0.0,0.0,0.0,0.0,0.0,0.0,0.0,0.0,0.0,0.0010611299681373859,-0.0004057404364397419,-0.14544193654132237,0.0,0.0,0.0,0.0,0.0,0.0,0.0,0.0,0.0,0.1749711458764951,-0.14300787471779547,0.0014183516413917327,0.0,0.0,0.0,0.0,0.0,0.0,0.0,0.0,0.0
3.246,90,3,245000000,base_footprint,-0.0038194464758376074,0.0005160501065637003,0.9906944459640387,0.1360502122633863,0.0,0.0,0.0,0.0,0.0,0.0,0.0,0.0,0.0,0.0009347907853672949,-0.0004257315308273787,-0.1339470959368483,0.0,0.0,0.0,0.0,0.0,0.0,0.0,0.0,0.0,0.006746814055258161,-0.038820905293676065,5.178715102982462e-05,0.0,0.0,0.0,0.0,0.0,0.0,0.0,0.0,0.0
3.279,91,3,279000000,base_footprint,-0.00381886041580193,0.0005242491945212491,0.9903825089892597,0.1383026657589998,0.0,0.0,0.0,0.0,0.0,0.0,0.0,0.0,0.0,0.0009208859981826778,-0.000331009962729754,-0.1339795922033832,0.0,0.0,0.0,0.0,0.0,0.0,0.0,0.0,0.0,-0.014546436821100805,-0.02584373747674843,-0.00024153092034505294,0.0,0.0,0.0,0.0,0.0,0.0,0.0,0.0,0.0
3.314,92,3,313000000,base_footprint,-0.0038148360554858076,0.0005365901689936877,0.9900581977887671,0.14060556208101752,0.0,0.0,0.0,0.0,0.0,0.0,0.0,0.0,0.0,0.0004305108281471607,-0.0009933187733010696,-0.10994927775437065,0.0,0.0,0.0,0.0,0.0,0.0,0.0,0.0,0.0,-0.2516013204484985,0.12323578030831728,-0.000915621810643887,0.0,0.0,0.0,0.0,0.0,0.0,0.0,0.0,0.0
3.347,93,3,347000000,base_footprint,-0.0038176069729841653,0.0005385249766544949,0.9898560830797402,0.14202137394731815,0.0,0.0,0.0,0.0,0.0,0.0,0.0,0.0,0.0,0.00048204883599694084,-0.0002176337019073247,-0.08094494641473389,0.0,0.0,0.0,0.0,0.0,0.0,0.0,0.0,0.0,-0.07277997332144745,0.025678150266816222,-0.001738704727092397,0.0,0.0,0.0,0.0,0.0,0.0,0.0,0.0,0.0
3.38,94,3,381000000,base_footprint,-0.0038181743489180612,0.0005434850575666097,0.9896641798730728,0.14335249298422367,0.0,0.0,0.0,0.0,0.0,0.0,0.0,0.0,0.0,0.00041235621226505667,-0.000152100674352294,-0.07743920295089639,0.0,0.0,0.0,0.0,0.0,0.0,0.0,0.0,0.0,-0.016254927402448386,-0.00929449590145981,-0.00016316361937998022,0.0,0.0,0.0,0.0,0.0,0.0,0.0,0.0,0.0
3.415,95,3,415000000,base_footprint,-0.0038103798556295603,0.0005497721268202081,0.9896045596054585,0.1437636753983808,0.0,0.0,0.0,0.0,0.0,0.0,0.0,0.0,0.0,-0.00035579369036401994,-0.0003227513359157261,0.019841929763685342,0.0,0.0,0.0,0.0,0.0,0.0,0.0,0.0,0.0,0.1474069824916242,-0.10375074962707137,0.00198695968328091,0.0,0.0,0.0,0.0,0.0,0.0,0.0,0.0,0.0
3.452,96,3,449000000,base_footprint,-0.0038097795534291364,0.0005501885992978152,0.9895920795529958,0.1438495705875995,0.0,0.0,0.0,0.0,0.0,0.0,0.0,0.0,0.0,5.747495376870598e-05,0.00020807322741380754,-0.0348168103288464,0.0,0.0,0.0,0.0,0.0,0.0,0.0,0.0,0.0,0.11959790782656356,-0.07823599858411662,-0.0002527166932898215,0.0,0.0,0.0,0.0,0.0,0.0,0.0,0.0,0.0
3.483,97,3,483000000,base_footprint,-0.003815852447423407,0.0005501478273288145,0.9894972166209652,0.14450050140684736,0.0,0.0,0.0,0.0,0.0,0.0,0.0,0.0,0.0,0.00019829857946999073,-0.0002624110655122823,-0.038408747523131684,0.0,0.0,0.0,0.0,0.0,0.0,0.0,0.0,0.0,0.004283989686425309,-0.01350100859682504,0.0009969495865347169,0.0,0.0,0.0,0.0,0.0,0.0,0.0,0.0,0.0
3.518,98,3,517000000,base_footprint,-0.0038144886902031316,0.0005571097703320792,0.989269033673613,0.1460545046180091,0.0,0.0,0.0,0.0,0.0,0.0,0.0,0.0,0.0,0.0008874871382112189,-0.00020292194418055463,-0.11469333483873742,0.0,0.0,0.0,0.0,0.0,0.0,0.0,0.0,0.0,0.006697748661831074,-0.027806867530911043,-0.0002968446943868342,0.0,0.0,0.0,0.0,0.0,0.0,0.0,0.0,0.0
3.551,99,3,551000000,base_footprint,-0.0038136350563299495,0.0005651475822068022,0.9889813089052235,0.1479902274880962,0.0,0.0,0.0,0.0,0.0,0.0,0.0,0.0,0.0,0.0008673592447773939,-0.00038454477023562583,-0.11514573696206724,0.0,0.0,0.0,0.0,0.0,0.0,0.0,0.0,0.0,-0.013715230345659989,-0.02094949517147616,8.364213520497768e-05,0.0,0.0,0.0,0.0,0.0,0.0,0.0,0.0,0.0
3.585,100,3,585000000,base_footprint,-0.0038132498764787454,0.0005734021763113512,0.9886878605889118,0.1499381361076774,0.0,0.0,0.0,0.0,0.0,0.0,0.0,0.0,0.0,0.0010349571745212295,-0.0004279054586271195,-0.1165788030820324,0.0,0.0,0.0,0.0,0.0,0.0,0.0,0.0,0.0,-0.015672319289917053,-0.02000343227829102,-5.8197508333485174e-05,0.0,0.0,0.0,0.0,0.0,0.0,0.0,0.0,0.0
3.6189999999999998,101,3,619000000,base_footprint,-0.003817064632231711,0.0005771378784340734,0.9886310943306701,0.15031186331093277,0.0,0.0,0.0,0.0,0.0,0.0,0.0,0.0,0.0,0.00011969402617950685,-0.00018785567991660122,0.08378544088584919,0.0,0.0,0.0,0.0,0.0,0.0,0.0,0.0,0.0,-0.3951709129475429,0.2619009569673873,-0.0038163207486922347,0.0,0.0,0.0,0.0,0.0,0.0,0.0,0.0,0.0
3.653,102,3,653000000,base_footprint,-0.00381180611452111,0.0005746749800223731,0.9885534600036653,0.15082173781519206,0.0,0.0,0.0,0.0,0.0,0.0,0.0,0.0,0.0,-0.0014467535750928326,-0.0016441855978527788,-0.1150577847035296,0.0,0.0,0.0,0.0,0.0,0.0,0.0,0.0,0.0,0.09438195234305928,-0.06919114097866755,0.004589460346576209,0.0,0.0,0.0,0.0,0.0,0.0,0.0,0.0,0.0
3.686,103,3,687000000,base_footprint,-0.0038097531262496933,0.000581176834576839,0.9882710187116763,0.1526615262244862,0.0,0.0,0.0,0.0,0.0,0.0,0.0,0.0,0.0,0.0006130321474587313,-0.000498787916160419,-0.10820820134579665,0.0,0.0,0.0,0.0,0.0,0.0,0.0,0.0,0.0,-0.0002635355216781248,-0.027742207986929175,-0.0030604635162402036,0.0,0.0,0.0,0.0,0.0,0.0,0.0,0.0,0.0
3.721,104,3,721000000,base_footprint,-0.0038058180748886962,0.0005864818613200679,0.9879240074404512,0.1548913403344645,0.0,0.0,0.0,0.0,0.0,0.0,0.0,0.0,0.0,0.0006502795687369352,-0.0003499284618497502,-0.1096437204826008,0.0,0.0,0.0,0.0,0.0,0.0,0.0,0.0,0.0,0.2010957376270849,-0.1784129750947933,0.0017467819652320594,0.0,0.0,0.0,0.0,0.0,0.0,0.0,0.0,0.0
3.755,105,3,755000000,base_footprint,-0.003808862315519464,0.0005941310433435148,0.9877061056049455,0.1562747213303456,0.0,0.0,0.0,0.0,0.0,0.0,0.0,0.0,0.0,0.0005250139456946065,-0.00020877536394582814,-0.07780705857084469,0.0,0.0,0.0,0.0,0.0,0.0,0.0,0.0,0.0,0.044162352228124965,-0.05469900580764542,0.00017323432551069896,0.0,0.0,0.0,0.0,0.0,0.0,0.0,0.0,0.0
3.789,106,3,789000000,base_footprint,-0.0038085540297506703,0.0005986627340142497,0.9874995880509223,0.15757442723485457,0.0,0.0,0.0,0.0,0.0,0.0,0.0,0.0,0.0,0.0004194921833988094,-0.00020566197031949955,-0.07741298307403399,0.0,0.0,0.0,0.0,0.0,0.0,0.0,0.0,0.0,-0.010482505333687765,-0.013620194565856877,7.399622814861178e-05,0.0,0.0,0.0,0.0,0.0,0.0,0.0,0.0,0.0
3.823,107,3,823000000,base_footprint,-0.0038021813650852393,0.0006129594848774706,0.9870770366668546,0.1602001603698255,0.0,0.0,0.0,0.0,0.0,0.0,0.0,0.0,0.0,0.0017763477380927178,5.515358862405185e-05,-0.18425877761369247,0.0,0.0,0.0,0.0,0.0,0.0,0.0,0.0,0.0,-0.3659133183577449,0.23376353234870023,-0.003986684937602566,0.0,0.0,0.0,0.0,0.0,0.0,0.0,0.0,0.0
3.857,108,3,857000000,base_footprint,-0.0038049432002468116,0.0006161887689864121,0.9868280422973418,0.1617267994311394,0.0,0.0,0.0,0.0,0.0,0.0,0.0,0.0,0.0,0.00032279529132318705,-5.32186667827481e-05,-0.05724039155080224,0.0,0.0,0.0,0.0,0.0,0.0,0.0,0.0,0.0,0.04987722235991939,-0.06458164136397566,0.0011608355035704384,0.0,0.0,0.0,0.0,0.0,0.0,0.0,0.0,0.0
3.891,109,3,891000000,base_footprint,-0.00380404504869045,0.0006195378368300492,0.9866661279678715,0.1627117000557245,0.0,0.0,0.0,0.0,0.0,0.0,0.0,0.0,0.0,-0.00023680028701136434,-0.004456374758380337,-0.054241039144497384,0.0,0.0,0.0,0.0,0.0,0.0,0.0,0.0,0.0,0.010492123241204427,-0.0226828215855632,0.007160880138812368,0.0,0.0,0.0,0.0,0.0,0.0,0.0,0.0,0.0
3.925,110,3,925000000,base_footprint,-0.0037981820129973,0.0006230007941307405,0.9866420784643497,0.16285759020369564,0.0,0.0,0.0,0.0,0.0,0.0,0.0,0.0,0.0,9.674761088182417e-05,-0.0001168231610926227,-0.022302822678574547,0.0,0.0,0.0,0.0,0.0,0.0,0.0,0.0,0.0,0.2237209932022806,-0.17441784367587318,-0.00465625597705561,0.0,0.0,0.0,0.0,0.0,0.0,0.0,0.0,0.0
3.959,111,3,959000000,base_footprint,-0.0038043206387258595,0.0006227709182203271,0.9865471589766879,0.16343146091217303,0.0,0.0,0.0,0.0,0.0,0.0,0.0,0.0,0.0,0.0001224797249164373,-0.00024096426129567824,-0.03489996633365464,0.0,0.0,0.0,0.0,0.0,0.0,0.0,0.0,0.0,0.022660039738486588,-0.027119626165624314,0.00031735055586225275,0.0,0.0,0.0,0.0,0.0,0.0,0.0,0.0,0.0
3.9930000000000003,112,3,993000000,base_footprint,-0.0038108621941061165,0.0006233282051840969,0.9864500549123701,0.1640163953837185,0.0,0.0,0.0,0.0,0.0,0.0,0.0,0.0,0.0,0.0001901827114232545,0.0033197904353045645,-0.030229868562526036,0.0,0.0,0.0,0.0,0.0,0.0,0.0,0.0,0.0,-0.05733766402279887,0.03518919599571321,-0.004914740623424435,0.0,0.0,0.0,0.0,0.0,0.0,0.0,0.0,0.0
4.028,113,4,27000000,base_footprint,-0.0037960033699948005,0.0006283603332925202,0.9864714245442158,0.16388814502401422,0.0,0.0,0.0,0.0,0.0,0.0,0.0,0.0,0.0,-0.00016837915177543876,-0.006961204700380181,0.03332194860327434,0.0,0.0,0.0,0.0,0.0,0.0,0.0,0.0,0.0,-0.4925958023255673,0.3811751955583816,0.006837553442092868,0.0,0.0,0.0,0.0,0.0,0.0,0.0,0.0,0.0
4.062,114,4,61000000,base_footprint,-0.0038025941401910648,0.0006264165181709347,0.9864261843004737,0.16416007677434527,0.0,0.0,0.0,0.0,0.0,0.0,0.0,0.0,0.0,-0.000606291471061931,-0.0004044611578472104,-0.024962128069231034,0.0,0.0,0.0,0.0,0.0,0.0,0.0,0.0,0.0,0.27893399777277633,-0.21905555956221728,-0.0035818016436430615,0.0,0.0,0.0,0.0,0.0,0.0,0.0,0.0,0.0
4.095,115,4,95000000,base_footprint,-0.0038002149233545605,0.0006311633984924749,0.9863381212389347,0.16468840454066344,0.0,0.0,0.0,0.0,0.0,0.0,0.0,0.0,0.0,-1.4858293021695313e-05,-0.0002168541004707865,-0.06601221972502966,0.0,0.0,0.0,0.0,0.0,0.0,0.0,0.0,0.0,0.04411553442114718,-0.04237145245385273,0.00013985772194194634,0.0,0.0,0.0,0.0,0.0,0.0,0.0,0.0,0.0
4.132,116,4,129000000,base_footprint,-0.00379879123109587,0.0006315542377932131,0.9860421906435998,0.16645109971159153,0.0,0.0,0.0,0.0,0.0,0.0,0.0,0.0,0.0,0.0012670942538938485,0.00047827345420157146,-0.11714638617685556,0.0,0.0,0.0,0.0,0.0,0.0,0.0,0.0,0.0,0.005254639848268534,-0.030702843195482867,-0.0016483791345670725,0.0,0.0,0.0,0.0,0.0,0.0,0.0,0.0,0.0
4.166,117,4,163000000,base_footprint,-0.0037973188059636444,0.0006382846548146039,0.9857143416252229,0.16838173795557154,0.0,0.0,0.0,0.0,0.0,0.0,0.0,0.0,0.0,0.0006672900751348019,-0.00044508912871800107,-0.10657516376871902,0.0,0.0,0.0,0.0,0.0,0.0,0.0,0.0,0.0,0.0029976591495251984,-0.034033977344077315,0.0014118741060520788,0.0,0.0,0.0,0.0,0.0,0.0,0.0,0.0,0.0
4.197,118,4,197000000,base_footprint,-0.0037966604401253375,0.0006430187454001785,0.985480073960617,0.16974744688204446,0.0,0.0,0.0,0.0,0.0,0.0,0.0,0.0,0.0,9.256344450173924e-05,-0.00010832092976990746,-0.04754121030245396,0.0,0.0,0.0,0.0,0.0,0.0,0.0,0.0,0.0,0.06776769352527395,-0.07842817716174193,0.0004173405740776747,0.0,0.0,0.0,0.0,0.0,0.0,0.0,0.0,0.0
4.231,119,4,231000000,base_footprint,-0.003800141116313505,0.000646441867601691,0.9854504101787461,0.16991948128142664,0.0,0.0,0.0,0.0,0.0,0.0,0.0,0.0,0.0,-0.00047264800121286324,-0.000268948493077167,0.006916250128057276,0.0,0.0,0.0,0.0,0.0,0.0,0.0,0.0,0.0,0.0887641655136138,-0.07607675532123229,0.0010995203922986507,0.0,0.0,0.0,0.0,0.0,0.0,0.0,0.0,0.0
4.265,120,4,265000000,base_footprint,-0.003800543460102706,0.0006454462651005945,0.9854722251328034,0.1697929113959949,0.0,0.0,0.0,0.0,0.0,0.0,0.0,0.0,0.0,-0.00014610892029098496,-3.892037873919872e-05,0.007464007452238445,0.0,0.0,0.0,0.0,0.0,0.0,0.0,0.0,0.0,0.0017026514437349749,0.0011762430576288268,-0.00036278466600958364,0.0,0.0,0.0,0.0,0.0,0.0,0.0,0.0,0.0
4.298,121,4,299000000,base_footprint,-0.003794835609433707,0.0006477628898661166,0.9855211988339105,0.1695085433684916,0.0,0.0,0.0,0.0,0.0,0.0,0.0,0.0,0.0,0.0014673751934428918,0.001953855854914699,0.057092891116566194,0.0,0.0,0.0,0.0,0.0,0.0,0.0,0.0,0.0,0.006018329908060715,-0.000607778667748459,-0.00265477997207477,0.0,0.0,0.0,0.0,0.0,0.0,0.0,0.0,0.0
4.333,122,4,333000000,base_footprint,-0.0038042241709114097,0.0006391704247291116,0.9857125700321163,0.16839194939279553,0.0,0.0,0.0,0.0,0.0,0.0,0.0,0.0,0.0,-0.000634042506213944,0.0002117411535736514,0.06859001370367701,0.0,0.0,0.0,0.0,0.0,0.0,0.0,0.0,0.0,-0.015360011261678679,0.03108464783298788,0.0025194155585573715,0.0,0.0,0.0,0.0,0.0,0.0,0.0,0.0,0.0
4.367,123,4,367000000,base_footprint,-0.0037985018776810027,0.000638278786770634,0.9859216029776394,0.1671638620207062,0.0,0.0,0.0,0.0,0.0,0.0,0.0,0.0,0.0,-0.000636800611913944,0.00033265701055179954,0.06906995089013382,0.0,0.0,0.0,0.0,0.0,0.0,0.0,0.0,0.0,0.009255529875724415,0.012810886564682659,-0.0002896357802164179,0.0,0.0,0.0,0.0,0.0,0.0,0.0,0.0,0.0
4.401,124,4,401000000,base_footprint,-0.0038023756714793615,0.0006325858389127671,0.986107742839594,0.16606222112874047,0.0,0.0,0.0,0.0,0.0,0.0,0.0,0.0,0.0,-0.0005784632494141703,0.00035598800804026995,0.06632275586090948,0.0,0.0,0.0,0.0,0.0,0.0,0.0,0.0,0.0,0.015438129980282489,0.005919300968123181,0.00023450884115756905,0.0,0.0,0.0,0.0,0.0,0.0,0.0,0.0,0.0
4.4350000000000005,125,4,435000000,base_footprint,-0.0038030487614625634,0.0006287018223865497,0.9862947684671194,0.16494778339986257,0.0,0.0,0.0,0.0,0.0,0.0,0.0,0.0,0.0,-0.0006286306343922313,7.07929720187237e-05,0.06678246462897973,0.0,0.0,0.0,0.0,0.0,0.0,0.0,0.0,0.0,0.008838175489701632,0.011568618222462811,0.00047133913765598447,0.0,0.0,0.0,0.0,0.0,0.0,0.0,0.0,0.0
4.468,126,4,469000000,base_footprint,-0.0038034948163189466,0.0006251301639070253,0.9864806771229033,0.1638322810150634,0.0,0.0,0.0,0.0,0.0,0.0,0.0,0.0,0.0,-0.0005236237526566208,5.450670397105526e-05,0.06670707087206398,0.0,0.0,0.0,0.0,0.0,0.0,0.0,0.0,0.0,0.009832136569482766,0.010936360763965088,-0.00011426821650799477,0.0,0.0,0.0,0.0,0.0,0.0,0.0,0.0,0.0
4.503,127,4,503000000,base_footprint,-0.003807485119652951,0.000616528243680058,0.9866887914024393,0.1625741426881358,0.0,0.0,0.0,0.0,0.0,0.0,0.0,0.0,0.0,-0.0008536206922824259,0.00024210772900338693,0.10922905607519633,0.0,0.0,0.0,0.0,0.0,0.0,0.0,0.0,0.0,-0.21105186554886166,0.18217348981834525,-0.0017287616597359615,0.0,0.0,0.0,0.0,0.0,0.0,0.0,0.0,0.0
4.537,128,4,537000000,base_footprint,-0.0038072129357525106,0.0006173768355884089,0.9869026890417171,0.16127059973142335,0.0,0.0,0.0,0.0,0.0,0.0,0.0,0.0,0.0,-0.0008156955804206771,-0.0003964157796351355,0.05315116586943376,0.0,0.0,0.0,0.0,0.0,0.0,0.0,0.0,0.0,-0.07859955579502924,0.08016135872880296,-0.00033573542540662733,0.0,0.0,0.0,0.0,0.0,0.0,0.0,0.0,0.0
4.571,129,4,571000000,base_footprint,-0.003807168681222527,0.0006131295521473176,0.9870896165655844,0.1601225106198156,0.0,0.0,0.0,0.0,0.0,0.0,0.0,0.0,0.0,-0.000645117312655592,9.090250360476907e-06,0.07485829535389261,0.0,0.0,0.0,0.0,0.0,0.0,0.0,0.0,0.0,0.04594714693152095,-0.016816194454351722,9.204052101572238e-05,0.0,0.0,0.0,0.0,0.0,0.0,0.0,0.0,0.0
4.605,130,4,605000000,base_footprint,-0.003809523406507863,0.000610504807877145,0.9872135774607155,0.15935641591260385,0.0,0.0,0.0,0.0,0.0,0.0,0.0,0.0,0.0,-0.0004640005945385818,-0.000685706516710171,-0.0038601095640587503,0.0,0.0,0.0,0.0,0.0,0.0,0.0,0.0,0.0,0.021680271830469642,-0.0033602794689042014,0.000868031160207419,0.0,0.0,0.0,0.0,0.0,0.0,0.0,0.0,0.0
4.639,131,4,639000000,base_footprint,-0.0038024713091706773,0.0006051886232778925,0.987151763765748,0.15973906927500933,0.0,0.0,0.0,0.0,0.0,0.0,0.0,0.0,0.0,-0.00016063171225387171,-0.0006857563480694118,-0.03312794600103123,0.0,0.0,0.0,0.0,0.0,0.0,0.0,0.0,0.0,0.046138837413154665,-0.03925434857020871,0.00024174153135418398,0.0,0.0,0.0,0.0,0.0,0.0,0.0,0.0,0.0
4.673,132,4,673000000,base_footprint,-0.0038025309665379063,0.0006052027134379493,0.9871324031294371,0.15985866626438147,0.0,0.0,0.0,0.0,0.0,0.0,0.0,0.0,0.0,-0.0002381658052497251,-9.545389759701575e-05,0.024250560368448193,0.0,0.0,0.0,0.0,0.0,0.0,0.0,0.0,0.0,0.09485846328322275,-0.07429515848961019,9.581064656272571e-05,0.0,0.0,0.0,0.0,0.0,0.0,0.0,0.0,0.0
4.707,133,4,707000000,base_footprint,-0.0038089277341773193,0.0006055525246894307,0.9872774125032434,0.15896048608555619,0.0,0.0,0.0,0.0,0.0,0.0,0.0,0.0,0.0,-0.0030641469777671288,0.0001996693204411946,0.041322611209730506,0.0,0.0,0.0,0.0,0.0,0.0,0.0,0.0,0.0,-0.15033910155670724,0.12545173806547893,0.0005801180464749356,0.0,0.0,0.0,0.0,0.0,0.0,0.0,0.0,0.0
4.741,134,4,741000000,base_footprint,-0.0038077352160686877,0.0006010233091549044,0.9873940626595085,0.15823433555412927,0.0,0.0,0.0,0.0,0.0,0.0,0.0,0.0,0.0,-0.00040856356409674373,4.8962395163702124e-05,0.043287196287744356,0.0,0.0,0.0,0.0,0.0,0.0,0.0,0.0,0.0,0.009713662209800291,0.003976235741082333,-0.002160527553428456,0.0,0.0,0.0,0.0,0.0,0.0,0.0,0.0,0.0
4.775,135,4,775000000,base_footprint,-0.003808799733721638,0.0005977891619606246,0.9875114030173082,0.15750036382019555,0.0,0.0,0.0,0.0,0.0,0.0,0.0,0.0,0.0,-0.0004211708557861514,5.4671109739234944e-05,0.04371417226461381,0.0,0.0,0.0,0.0,0.0,0.0,0.0,0.0,0.0,0.005418316416978434,0.007804685947365799,-1.959299813300052e-05,0.0,0.0,0.0,0.0,0.0,0.0,0.0,0.0,0.0
4.816,136,4,809000000,base_footprint,-0.0038114946886884135,0.0005928984348209951,0.987680398171081,0.15643705458841609,0.0,0.0,0.0,0.0,0.0,0.0,0.0,0.0,0.0,-0.0007143553288364894,2.9576192191197218e-05,0.08809728295114076,0.0,0.0,0.0,0.0,0.0,0.0,0.0,0.0,0.0,0.12800654229715036,-0.0770000768010566,0.0014816670324592253,0.0,0.0,0.0,0.0,0.0,0.0,0.0,0.0,0.0
4.843,137,4,843000000,base_footprint,-0.003804130653103497,0.0005911933595363232,0.9879437622417545,0.15476531177235214,0.0,0.0,0.0,0.0,0.0,0.0,0.0,0.0,0.0,-0.0005741755630964577,-0.0003746552433493432,0.11352836214472714,0.0,0.0,0.0,0.0,0.0,0.0,0.0,0.0,0.0,0.04983227878035262,-0.010310307895638481,0.0012938079457579057,0.0,0.0,0.0,0.0,0.0,0.0,0.0,0.0,0.0
4.876,138,4,877000000,base_footprint,-0.0038042647428498427,0.0005856193273668475,0.9882078348228585,0.1530701140474128,0.0,0.0,0.0,0.0,0.0,0.0,0.0,0.0,0.0,-0.0007260987271957906,3.818715161379364e-05,0.08191260529030941,0.0,0.0,0.0,0.0,0.0,0.0,0.0,0.0,0.0,0.08073790436953482,-0.030160731842114395,-0.0002142255358555769,0.0,0.0,0.0,0.0,0.0,0.0,0.0,0.0,0.0
4.911,139,4,911000000,base_footprint,-0.0038127502994022506,0.0005807369270121105,0.9882856872498001,0.15256646439164273,0.0,0.0,0.0,0.0,0.0,0.0,0.0,0.0,0.0,-0.00012335181624597032,0.0004783785419830328,-0.005597424137751172,0.0,0.0,0.0,0.0,0.0,0.0,0.0,0.0,0.0,0.0647648102516028,-0.03681654113244749,-0.0004837974802317166,0.0,0.0,0.0,0.0,0.0,0.0,0.0,0.0,0.0
4.945,140,4,945000000,base_footprint,-0.0038105936849600454,0.0005820199198527504,0.9882730482478579,0.152648363029114,0.0,0.0,0.0,0.0,0.0,0.0,0.0,0.0,0.0,-2.044387970636611e-05,-9.668019112940106e-05,-0.004771595439737853,0.0,0.0,0.0,0.0,0.0,0.0,0.0,0.0,0.0,-0.0022154571302341474,0.00016892533835275694,0.0007786607968934444,0.0,0.0,0.0,0.0,0.0,0.0,0.0,0.0,0.0
4.979,141,4,979000000,base_footprint,-0.003810501057461378,0.0005830409957751031,0.9882597266901019,0.15273458268281465,0.0,0.0,0.0,0.0,0.0,0.0,0.0,0.0,0.0,2.901465583591904e-05,-0.0001257896635639175,-0.005080346673788438,0.0,0.0,0.0,0.0,0.0,0.0,0.0,0.0,0.0,2.2077861425347922e-05,-0.0013094104461244661,-4.569068325205348e-05,0.0,0.0,0.0,0.0,0.0,0.0,0.0,0.0,0.0
5.013,142,5,13000000,base_footprint,-0.0038081097689419523,0.0005784260273988823,0.9883042413172641,0.1524463522608055,0.0,0.0,0.0,0.0,0.0,0.0,0.0,0.0,0.0,0.0004191320554126733,0.000947514924741734,0.01822395780077193,0.0,0.0,0.0,0.0,0.0,0.0,0.0,0.0,0.0,-0.25975019649225056,0.18680834628779186,-0.0035175825673854836,0.0,0.0,0.0,0.0,0.0,0.0,0.0,0.0,0.0
5.047,143,5,47000000,base_footprint,-0.0038123759269944484,0.0005843872467357287,0.9882864342671498,0.1525616207466992,0.0,0.0,0.0,0.0,0.0,0.0,0.0,0.0,0.0,0.00018007923128451553,-9.649987844968146e-05,-0.014873655971619767,0.0,0.0,0.0,0.0,0.0,0.0,0.0,0.0,0.0,-0.01963278175358823,0.013305806137310895,0.001040927437413575,0.0,0.0,0.0,0.0,0.0,0.0,0.0,0.0,0.0
5.081,144,5,81000000,base_footprint,-0.003807554070743744,0.0005808536044925949,0.988222506747189,0.15297529963817882,0.0,0.0,0.0,0.0,0.0,0.0,0.0,0.0,0.0,-0.0004969324547590217,-0.0006869506280273808,-0.03643032425657135,0.0,0.0,0.0,0.0,0.0,0.0,0.0,0.0,0.0,-0.038830806327519854,0.020947522213625547,0.001165542378354832,0.0,0.0,0.0,0.0,0.0,0.0,0.0,0.0,0.0
5.114,145,5,115000000,base_footprint,-0.003806014720642391,0.000583607406665938,0.9880407847629076,0.15414467651994682,0.0,0.0,0.0,0.0,0.0,0.0,0.0,0.0,0.0,0.0006115078399367827,-0.00025137178176488895,-0.07937129225647829,0.0,0.0,0.0,0.0,0.0,0.0,0.0,0.0,0.0,0.08933751386525944,-0.08074637367808746,-0.0005389356343892769,0.0,0.0,0.0,0.0,0.0,0.0,0.0,0.0,0.0
5.149,146,5,149000000,base_footprint,-0.003805328957055757,0.000586716192086903,0.9878988384051933,0.15505179880707057,0.0,0.0,0.0,0.0,0.0,0.0,0.0,0.0,0.0,0.00012252469336889588,-0.00022849186166214384,-0.02349125451060408,0.0,0.0,0.0,0.0,0.0,0.0,0.0,0.0,0.0,0.0886379892955408,-0.07862022629283362,0.000909551979492727,0.0,0.0,0.0,0.0,0.0,0.0,0.0,0.0,0.0
5.183,147,5,183000000,base_footprint,-0.003809721263493848,0.0005883016663580836,0.987946798714849,0.15474580069948754,0.0,0.0,0.0,0.0,0.0,0.0,0.0,0.0,0.0,-0.00046207089423577893,-2.7507875907422066e-05,0.042085488054160645,0.0,0.0,0.0,0.0,0.0,0.0,0.0,0.0,0.0,0.1145023523452221,-0.07827577153491136,0.0006930385389269931,0.0,0.0,0.0,0.0,0.0,0.0,0.0,0.0,0.0
5.217,148,5,217000000,base_footprint,-0.003809578825918453,0.0005860795462354891,0.9879999840075468,0.1544058781945226,0.0,0.0,0.0,0.0,0.0,0.0,0.0,0.0,0.0,0.0008847479455931154,0.0005786881492841453,-0.0013347638191618186,0.0,0.0,0.0,0.0,0.0,0.0,0.0,0.0,0.0,-0.2637154954986844,0.19440627299198615,-0.0032358217189959993,0.0,0.0,0.0,0.0,0.0,0.0,0.0,0.0,0.0
5.251,149,5,251000000,base_footprint,-0.0038104024169728313,0.0005860734197085804,0.9879970189477043,0.15442482929185058,0.0,0.0,0.0,0.0,0.0,0.0,0.0,0.0,0.0,-0.00010995380362713318,-3.606559293109982e-05,-0.0011051304247677051,0.0,0.0,0.0,0.0,0.0,0.0,0.0,0.0,0.0,-0.0009071869499456957,0.0002470637199256629,0.0008641864486494597,0.0,0.0,0.0,0.0,0.0,0.0,0.0,0.0,0.0
5.285,150,5,285000000,base_footprint,-0.0038109232233169295,0.0005861897948936014,0.9879951985897312,0.15443646204620243,0.0,0.0,0.0,0.0,0.0,0.0,0.0,0.0,0.0,-0.0001522107631340015,4.2928860159817525e-06,-0.00047439830480749403,0.0,0.0,0.0,0.0,0.0,0.0,0.0,0.0,0.0,-0.00039742232427854345,0.0008321341058816894,4.957405176651267e-06,0.0,0.0,0.0,0.0,0.0,0.0,0.0,0.0,0.0
5.319,151,5,319000000,base_footprint,-0.0038119525811920276,0.0005825968287103937,0.9881707926283484,0.15330888491772354,0.0,0.0,0.0,0.0,0.0,0.0,0.0,0.0,0.0,-0.0012483496924720551,-0.001550885909276397,0.12086211579823641,0.0,0.0,0.0,0.0,0.0,0.0,0.0,0.0,0.0,0.16592584550852998,-0.1017738313186687,0.0044424724805169225,0.0,0.0,0.0,0.0,0.0,0.0,0.0,0.0,0.0
5.353,152,5,353000000,base_footprint,-0.003805343476617764,0.0005791040049111626,0.9884686864749911,0.15137648383412267,0.0,0.0,0.0,0.0,0.0,0.0,0.0,0.0,0.0,-0.0008558006773161658,7.886015180766813e-05,0.10167255655252429,0.0,0.0,0.0,0.0,0.0,0.0,0.0,0.0,0.0,0.05540044927842295,-0.008485035058712974,-0.0021869520602426137,0.0,0.0,0.0,0.0,0.0,0.0,0.0,0.0,0.0
5.3870000000000005,153,5,387000000,base_footprint,-0.0038130387426091135,0.0005708432316851997,0.9886754961919886,0.15001965905533085,0.0,0.0,0.0,0.0,0.0,0.0,0.0,0.0,0.0,-0.0008168324512306186,-0.000541974959460173,0.07454556526404293,0.0,0.0,0.0,0.0,0.0,0.0,0.0,0.0,0.0,0.06939461429280878,-0.026566417098473148,0.0012731922759588675,0.0,0.0,0.0,0.0,0.0,0.0,0.0,0.0,0.0
5.421,154,5,421000000,base_footprint,-0.003812874848228099,0.0005687633289059085,0.9887922608178354,0.14924812709183802,0.0,0.0,0.0,0.0,0.0,0.0,0.0,0.0,0.0,-0.00035002777633378235,0.00010210894949901542,0.04223206078919336,0.0,0.0,0.0,0.0,0.0,0.0,0.0,0.0,0.0,0.014951965739791904,0.0024049936094208226,-0.0009954988953090242,0.0,0.0,0.0,0.0,0.0,0.0,0.0,0.0,0.0
5.455,155,5,455000000,base_footprint,-0.0038130458856409587,0.0005667996718021934,0.9888985311676143,0.14854236592212078,0.0,0.0,0.0,0.0,0.0,0.0,0.0,0.0,0.0,-0.0003187377069159415,-2.0385696521586056e-05,0.04206427750910727,0.0,0.0,0.0,0.0,0.0,0.0,0.0,0.0,0.0,0.005539270300319652,0.007371555097234159,0.00012106667317121985,0.0,0.0,0.0,0.0,0.0,0.0,0.0,0.0,0.0
5.489,156,5,489000000,base_footprint,-0.003813650948472131,0.000564820637838245,0.9890032522905216,0.14784351187272798,0.0,0.0,0.0,0.0,0.0,0.0,0.0,0.0,0.0,-0.0002628491395957596,-2.544971706458072e-05,0.04149118586165165,0.0,0.0,0.0,0.0,0.0,0.0,0.0,0.0,0.0,0.005420823554207053,0.007817172243862048,-4.4755107198651276e-05,0.0,0.0,0.0,0.0,0.0,0.0,0.0,0.0,0.0
5.524,157,5,523000000,base_footprint,-0.0038154595490354423,0.0005616253874126507,0.9891663624824082,0.1467481999163021,0.0,0.0,0.0,0.0,0.0,0.0,0.0,0.0,0.0,-0.00013646952638059703,5.61089098446748e-05,0.063502362747819,0.0,0.0,0.0,0.0,0.0,0.0,0.0,0.0,0.0,-0.0037862439392364025,0.02009959284326964,-0.00030261578735003386,0.0,0.0,0.0,0.0,0.0,0.0,0.0,0.0,0.0
5.564,158,5,557000000,base_footprint,-0.003811073420293009,0.0005526209388783953,0.9892956501789886,0.14587421590677188,0.0,0.0,0.0,0.0,0.0,0.0,0.0,0.0,0.0,-0.0006909994082284028,-4.589870122567624e-05,0.04283970680798048,0.0,0.0,0.0,0.0,0.0,0.0,0.0,0.0,0.0,-0.02874261723704031,0.032453021858831796,0.0005790611616234358,0.0,0.0,0.0,0.0,0.0,0.0,0.0,0.0,0.0
5.591,159,5,591000000,base_footprint,-0.003810742908490555,0.0005497352842937308,0.9894194335587527,0.14503227408366567,0.0,0.0,0.0,0.0,0.0,0.0,0.0,0.0,0.0,0.0011305594484438634,-0.0008027276273691715,0.0538778767404721,0.0,0.0,0.0,0.0,0.0,0.0,0.0,0.0,0.0,0.05114137796748989,-0.021389424529141818,-0.003408486999895816,0.0,0.0,0.0,0.0,0.0,0.0,0.0,0.0,0.0
5.625,160,5,625000000,base_footprint,-0.0038146064882010767,0.0005484353948298605,0.989538887921319,0.14421489967197262,0.0,0.0,0.0,0.0,0.0,0.0,0.0,0.0,0.0,-0.00036386939935113783,-6.065623779165266e-05,0.04824548259263491,0.0,0.0,0.0,0.0,0.0,0.0,0.0,0.0,0.0,0.006111193925325499,0.009048175343410996,0.0034521194022863032,0.0,0.0,0.0,0.0,0.0,0.0,0.0,0.0,0.0
5.659,161,5,659000000,base_footprint,-0.0038153606792607703,0.0005447445647170031,0.9896572517756539,0.14340038453263076,0.0,0.0,0.0,0.0,0.0,0.0,0.0,0.0,0.0,-0.00041159284949920455,2.8427994495006532e-05,0.048163294272053014,0.0,0.0,0.0,0.0,0.0,0.0,0.0,0.0,0.0,0.0068029032101343525,0.008200929532560956,-0.00014216564726063152,0.0,0.0,0.0,0.0,0.0,0.0,0.0,0.0,0.0
5.693,162,5,693000000,base_footprint,-0.003815734691684017,0.0005411399941096727,0.9897759230854072,0.1425789936024936,0.0,0.0,0.0,0.0,0.0,0.0,0.0,0.0,0.0,-0.0005410363537006772,-0.00024412858972097318,0.05486715802783555,0.0,0.0,0.0,0.0,0.0,0.0,0.0,0.0,0.0,0.005701197613609085,0.008934266344226907,-0.00031414071797878994,0.0,0.0,0.0,0.0,0.0,0.0,0.0,0.0,0.0
5.727,163,5,727000000,base_footprint,-0.0038175094080350512,0.0005371336894596586,0.9899095101548145,0.14164850798499215,0.0,0.0,0.0,0.0,0.0,0.0,0.0,0.0,0.0,-0.0005452382902053881,8.718352566289454e-05,0.0552519935628482,0.0,0.0,0.0,0.0,0.0,0.0,0.0,0.0,0.0,0.005956466283450926,0.01051625696030741,0.00036377231177217714,0.0,0.0,0.0,0.0,0.0,0.0,0.0,0.0,0.0
5.761,164,5,761000000,base_footprint,-0.003818699745839303,0.0005331255864634847,0.9900431122518176,0.14071165265213512,0.0,0.0,0.0,0.0,0.0,0.0,0.0,0.0,0.0,-0.0005748604896121314,8.292725335874003e-05,0.05557976275799897,0.0,0.0,0.0,0.0,0.0,0.0,0.0,0.0,0.0,0.0066448748730739745,0.01060068183546959,5.447788854193479e-06,0.0,0.0,0.0,0.0,0.0,0.0,0.0,0.0,0.0
5.795,165,5,795000000,base_footprint,-0.0038200852565660236,0.0005325698065403701,0.9901654411690703,0.1398482121176169,0.0,0.0,0.0,0.0,0.0,0.0,0.0,0.0,0.0,-0.0016517848431352872,-0.0007776317119990956,0.013155445292950551,0.0,0.0,0.0,0.0,0.0,0.0,0.0,0.0,0.0,-0.04713260243904845,0.04297096313873607,-0.0002477869178095728,0.0,0.0,0.0,0.0,0.0,0.0,0.0,0.0,0.0
5.829,166,5,829000000,base_footprint,-0.00381911804484869,0.0005346351806858156,0.9899712116940321,0.1412166014306851,0.0,0.0,0.0,0.0,0.0,0.0,0.0,0.0,0.0,0.00046672457927690375,-0.00017498728902064122,-0.06416257114568774,0.0,0.0,0.0,0.0,0.0,0.0,0.0,0.0,0.0,-0.22116256465520168,0.12053633783624272,-0.0016491518561952407,0.0,0.0,0.0,0.0,0.0,0.0,0.0,0.0,0.0
5.863,167,5,863000000,base_footprint,-0.003814158688792268,0.0005353858073137467,0.9900659162582705,0.1405512256054905,0.0,0.0,0.0,0.0,0.0,0.0,0.0,0.0,0.0,-0.0011671373294811097,-0.0009790422458871397,0.07732938042031781,0.0,0.0,0.0,0.0,0.0,0.0,0.0,0.0,0.0,-0.03242805978734316,0.02921224907310158,0.0007858532887952273,0.0,0.0,0.0,0.0,0.0,0.0,0.0,0.0,0.0
5.897,168,5,897000000,base_footprint,-0.003816362157137631,0.0005306034577273586,0.9902322410379044,0.13937454089218032,0.0,0.0,0.0,0.0,0.0,0.0,0.0,0.0,0.0,0.0003628186394498701,0.001653461605524329,0.051287753493416834,0.0,0.0,0.0,0.0,0.0,0.0,0.0,0.0,0.0,0.020500424378978265,0.00442052966370927,-0.0032992834811996713,0.0,0.0,0.0,0.0,0.0,0.0,0.0,0.0,0.0
5.932,169,5,931000000,base_footprint,-0.0038189849296634683,0.0005275182041675786,0.9903549184732733,0.1385000813517723,0.0,0.0,0.0,0.0,0.0,0.0,0.0,0.0,0.0,-0.0003804973797295663,4.272036294660625e-06,0.05215886427942776,0.0,0.0,0.0,0.0,0.0,0.0,0.0,0.0,0.0,0.005632285913189578,0.009175139310500235,0.0019356824048933196,0.0,0.0,0.0,0.0,0.0,0.0,0.0,0.0,0.0
5.965,170,5,965000000,base_footprint,-0.0038196937305018932,0.0005250075371325505,0.9904761574343812,0.13763035951749122,0.0,0.0,0.0,0.0,0.0,0.0,0.0,0.0,0.0,-0.0003045553492644661,-1.831941429256461e-05,0.051560317657528915,0.0,0.0,0.0,0.0,0.0,0.0,0.0,0.0,0.0,0.005554199312305123,0.009239823027312861,-1.653914209527024e-05,0.0,0.0,0.0,0.0,0.0,0.0,0.0,0.0,0.0
5.9990000000000006,171,5,999000000,base_footprint,-0.0038206678083818205,0.0005222921519809155,0.9905879069609926,0.136823712458937,0.0,0.0,0.0,0.0,0.0,0.0,0.0,0.0,0.0,6.254071388404142e-05,0.0004292558592442404,0.037412421874746055,0.0,0.0,0.0,0.0,0.0,0.0,0.0,0.0,0.0,0.007627146761005317,0.007089844359942525,-0.0007129098597926567,0.0,0.0,0.0,0.0,0.0,0.0,0.0,0.0,0.0
6.033,172,6,33000000,base_footprint,-0.0038121991308876684,0.0005169254939546945,0.9906221957095203,0.13657549301931549,0.0,0.0,0.0,0.0,0.0,0.0,0.0,0.0,0.0,0.0007506522424990307,0.0009567100346105935,-0.05348702595292575,0.0,0.0,0.0,0.0,0.0,0.0,0.0,0.0,0.0,0.06210492203099121,-0.03236698536924851,0.00017941942545285106,0.0,0.0,0.0,0.0,0.0,0.0,0.0,0.0,0.0
6.067,173,6,67000000,base_footprint,-0.0038148801754110686,0.0005192270040266493,0.9905066282869842,0.13741104909036939,0.0,0.0,0.0,0.0,0.0,0.0,0.0,0.0,0.0,0.000202626728197627,-0.0002749581777048736,-0.03542076315945247,0.0,0.0,0.0,0.0,0.0,0.0,0.0,0.0,0.0,0.03987891615082005,-0.03736529112974658,0.0019051523963678168,0.0,0.0,0.0,0.0,0.0,0.0,0.0,0.0,0.0
6.101,174,6,101000000,base_footprint,-0.0038145052872833565,0.0005192884907305697,0.9904975966188004,0.1374761469537786,0.0,0.0,0.0,0.0,0.0,0.0,0.0,0.0,0.0,-0.0002692605338602589,-0.0001042635175209384,0.034837012503862466,0.0,0.0,0.0,0.0,0.0,0.0,0.0,0.0,0.0,0.10612253122515149,-0.06747135091091892,0.0008116891153182354,0.0,0.0,0.0,0.0,0.0,0.0,0.0,0.0,0.0
6.135,175,6,135000000,base_footprint,-0.0038187118332000153,0.0005174078162787214,0.9906518802147163,0.1363598253010551,0.0,0.0,0.0,0.0,0.0,0.0,0.0,0.0,0.0,-0.00043398529568232494,0.00017382854873591663,0.074159935662686,0.0,0.0,0.0,0.0,0.0,0.0,0.0,0.0,0.0,0.0788348679795011,-0.031738838663434174,0.00030810750366064185,0.0,0.0,0.0,0.0,0.0,0.0,0.0,0.0,0.0
6.167,176,6,169000000,base_footprint,-0.0038199251681543455,0.0005122165304105428,0.9908232404655882,0.13510903729657373,0.0,0.0,0.0,0.0,0.0,0.0,0.0,0.0,0.0,-0.0006147153339968816,8.356539208290159e-05,0.07404416181821673,0.0,0.0,0.0,0.0,0.0,0.0,0.0,0.0,0.0,0.009474694871966342,0.013275584798516494,0.00011879256037357362,0.0,0.0,0.0,0.0,0.0,0.0,0.0,0.0,0.0
6.203,177,6,203000000,base_footprint,-0.003821280115936191,0.000506977535335027,0.990994770313781,0.1338450821016247,0.0,0.0,0.0,0.0,0.0,0.0,0.0,0.0,0.0,-0.0006887197873498977,5.6337044783970165e-05,0.07622437642297461,0.0,0.0,0.0,0.0,0.0,0.0,0.0,0.0,0.0,0.008494626515050771,0.014006968923534402,9.03964118623176e-05,0.0,0.0,0.0,0.0,0.0,0.0,0.0,0.0,0.0
6.237,178,6,237000000,base_footprint,-0.0038224538427818573,0.0005018013205080849,0.9911682433807252,0.1325543298260078,0.0,0.0,0.0,0.0,0.0,0.0,0.0,0.0,0.0,-0.0006988260505715591,0.00011411691103410592,0.07669522802866947,0.0,0.0,0.0,0.0,0.0,0.0,0.0,0.0,0.0,0.00829740180653102,0.014729009762387415,-5.902775518309964e-05,0.0,0.0,0.0,0.0,0.0,0.0,0.0,0.0,0.0
6.271,179,6,271000000,base_footprint,-0.0038241525860694347,0.0004967279228495563,0.991341022682866,0.13125587935196908,0.0,0.0,0.0,0.0,0.0,0.0,0.0,0.0,0.0,-0.0007518397406600288,0.0001986172583942021,0.07716221874169403,0.0,0.0,0.0,0.0,0.0,0.0,0.0,0.0,0.0,0.008422337918230669,0.015357316302955153,-9.407982222618043e-05,0.0,0.0,0.0,0.0,0.0,0.0,0.0,0.0,0.0
6.305,180,6,305000000,base_footprint,-0.003826006010873458,0.0004915363737101927,0.9915198221623498,0.1298982768520831,0.0,0.0,0.0,0.0,0.0,0.0,0.0,0.0,0.0,-0.0007925578287983411,-0.00011925558783003939,0.08885917667182115,0.0,0.0,0.0,0.0,0.0,0.0,0.0,0.0,0.0,-0.002525741916310104,0.020884525660546015,0.0005834426798207514,0.0,0.0,0.0,0.0,0.0,0.0,0.0,0.0,0.0
6.339,181,6,339000000,base_footprint,-0.0038257940389966,0.0004870611612065983,0.9917138142976822,0.12840886496865628,0.0,0.0,0.0,0.0,0.0,0.0,0.0,0.0,0.0,-0.0007070398088668967,0.0005515178969693043,0.0845073806626902,0.0,0.0,0.0,0.0,0.0,0.0,0.0,0.0,0.0,0.020045593204841953,0.010830243480832977,-0.0010596781567111496,0.0,0.0,0.0,0.0,0.0,0.0,0.0,0.0,0.0
6.373,182,6,373000000,base_footprint,-0.0038252942038899864,0.000482613767864605,0.9919009507036921,0.1269552606287612,0.0,0.0,0.0,0.0,0.0,0.0,0.0,0.0,0.0,-0.0006745106908146274,3.6559967228866255e-05,0.08657897903394468,0.0,0.0,0.0,0.0,0.0,0.0,0.0,0.0,0.0,0.004919886502726801,0.01899902275571355,0.0007373038343313719,0.0,0.0,0.0,0.0,0.0,0.0,0.0,0.0,0.0
6.407,183,6,407000000,base_footprint,-0.003824073605203431,0.0004760595751529105,0.992141203737635,0.1250639103593819,0.0,0.0,0.0,0.0,0.0,0.0,0.0,0.0,0.0,0.0001222656580684437,0.0024696309905137296,0.1459555982999545,0.0,0.0,0.0,0.0,0.0,0.0,0.0,0.0,0.0,-0.002530170175128034,0.028559514186379843,-0.003189059485260146,0.0,0.0,0.0,0.0,0.0,0.0,0.0,0.0,0.0
6.44,184,6,441000000,base_footprint,-0.003827499193060716,0.0004677226550704059,0.9924502118343043,0.12258755448857682,0.0,0.0,0.0,0.0,0.0,0.0,0.0,0.0,0.0,-0.0009754066375881597,0.00019415475641983927,0.14651168605156803,0.0,0.0,0.0,0.0,0.0,0.0,0.0,0.0,0.0,0.01467355164133697,0.029081165191282617,0.0029654830860859063,0.0,0.0,0.0,0.0,0.0,0.0,0.0,0.0,0.0
6.474,185,6,475000000,base_footprint,-0.00382920124918673,0.00045835756814653834,0.9927423182949591,0.12019907068061424,0.0,0.0,0.0,0.0,0.0,0.0,0.0,0.0,0.0,-0.0015003947145802686,-7.680614269937538e-05,0.13076480518463118,0.0,0.0,0.0,0.0,0.0,0.0,0.0,0.0,0.0,-0.013180373763802773,0.04198696478715591,0.0008027507831219641,0.0,0.0,0.0,0.0,0.0,0.0,0.0,0.0,0.0
6.508,186,6,509000000,base_footprint,-0.0038322816187163584,0.00045065498123609594,0.9930213414391097,0.11787165042601995,0.0,0.0,0.0,0.0,0.0,0.0,0.0,0.0,0.0,-0.0005413856539571999,0.0011514611122235016,0.1318311516484752,0.0,0.0,0.0,0.0,0.0,0.0,0.0,0.0,0.0,-0.1677915765045399,0.11897256983575055,-0.003637981420472839,0.0,0.0,0.0,0.0,0.0,0.0,0.0,0.0,0.0
6.545,187,6,543000000,base_footprint,-0.003829534711985332,0.0004419281732685991,0.993213675335716,0.11623998662034601,0.0,0.0,0.0,0.0,0.0,0.0,0.0,0.0,0.0,-0.0006379954610803024,-0.00010819608154883349,0.0889222058242891,0.0,0.0,0.0,0.0,0.0,0.0,0.0,0.0,0.0,-0.07035793300804796,0.058941868019156546,0.0009886586978003272,0.0,0.0,0.0,0.0,0.0,0.0,0.0,0.0,0.0
6.577,188,6,577000000,base_footprint,-0.0038287491168315963,0.00043519762116516305,0.9933879168950408,0.11474143911491856,0.0,0.0,0.0,0.0,0.0,0.0,0.0,0.0,0.0,-0.0006152971112997224,-1.3456485320365887e-05,0.08861560242414976,0.0,0.0,0.0,0.0,0.0,0.0,0.0,0.0,0.0,0.008675544000185283,0.01623797709832355,4.0210016437090143e-07,0.0,0.0,0.0,0.0,0.0,0.0,0.0,0.0,0.0
6.611,189,6,611000000,base_footprint,-0.003827819247367246,0.0004282578007064305,0.9935521773061263,0.11331034977141982,0.0,0.0,0.0,0.0,0.0,0.0,0.0,0.0,0.0,-0.0014942822457086342,-0.0017270317133800837,0.06454891200527536,0.0,0.0,0.0,0.0,0.0,0.0,0.0,0.0,0.0,-0.2929440493045675,0.16304710401424238,-0.0005890291464920941,0.0,0.0,0.0,0.0,0.0,0.0,0.0,0.0,0.0
6.645,190,6,645000000,base_footprint,-0.003830241711522454,0.0004247641727143241,0.9936774820162755,0.11220610748806593,0.0,0.0,0.0,0.0,0.0,0.0,0.0,0.0,0.0,-0.0005781946680767556,3.377181914798452e-05,0.06515769628730696,0.0,0.0,0.0,0.0,0.0,0.0,0.0,0.0,0.0,0.007968546133392117,0.010150322878439777,-0.001938334970164608,0.0,0.0,0.0,0.0,0.0,0.0,0.0,0.0,0.0
6.682,191,6,679000000,base_footprint,-0.003831268131721972,0.0004202010065863003,0.993801354982224,0.11110360773220877,0.0,0.0,0.0,0.0,0.0,0.0,0.0,0.0,0.0,-0.0006239181541999241,3.2735644735251126e-05,0.06506603877359199,0.0,0.0,0.0,0.0,0.0,0.0,0.0,0.0,0.0,0.006592506387149041,0.011046480339036676,3.074763390405182e-05,0.0,0.0,0.0,0.0,0.0,0.0,0.0,0.0,0.0
6.71,192,6,713000000,base_footprint,-0.0038306382180678116,0.00041277970701748465,0.9939426440562739,0.10983249132282845,0.0,0.0,0.0,0.0,0.0,0.0,0.0,0.0,0.0,-0.0006875498554369566,0.0001360765761658197,0.09939533805345159,0.0,0.0,0.0,0.0,0.0,0.0,0.0,0.0,0.0,0.36444360827829386,-0.15624085007889113,0.0029939217912814623,0.0,0.0,0.0,0.0,0.0,0.0,0.0,0.0,0.0
6.744,193,6,747000000,base_footprint,-0.0038325286744168257,0.00040828988701883506,0.9941500087677839,0.10793935839323579,0.0,0.0,0.0,0.0,0.0,0.0,0.0,0.0,0.0,-0.0009228335386606626,0.0006299121938355788,0.10500879844967148,0.0,0.0,0.0,0.0,0.0,0.0,0.0,0.0,0.0,0.26059991269598043,-0.09394022197208528,0.0010670693431194089,0.0,0.0,0.0,0.0,0.0,0.0,0.0,0.0,0.0
6.781,194,6,781000000,base_footprint,-0.0038357859713859972,0.0004001926868012585,0.9943432219959342,0.10614463463849583,0.0,0.0,0.0,0.0,0.0,0.0,0.0,0.0,0.0,-0.0009388573192698453,0.00024701880139982427,0.1055662242881082,0.0,0.0,0.0,0.0,0.0,0.0,0.0,0.0,0.0,0.008958687995771698,0.02213832833752051,0.0006251741740989932,0.0,0.0,0.0,0.0,0.0,0.0,0.0,0.0,0.0
6.815,195,6,815000000,base_footprint,-0.0038377335268121133,0.00039281110354130646,0.9945511423308556,0.1041784180586573,0.0,0.0,0.0,0.0,0.0,0.0,0.0,0.0,0.0,-0.0008855459901407291,-0.0003783708844282551,0.12823120923760722,0.0,0.0,0.0,0.0,0.0,0.0,0.0,0.0,0.0,-0.00790219201797766,0.0306251562071052,0.0009931571937985397,0.0,0.0,0.0,0.0,0.0,0.0,0.0,0.0,0.0
6.849,196,6,849000000,base_footprint,-0.0038379567043537203,0.0003858941443818115,0.9947709397637616,0.1020583096840607,0.0,0.0,0.0,0.0,0.0,0.0,0.0,0.0,0.0,-0.0008923474133436967,-0.00041321796502686133,0.1248664785232178,0.0,0.0,0.0,0.0,0.0,0.0,0.0,0.0,0.0,0.019211511375471113,0.021339581293624055,2.5115593129782017e-05,0.0,0.0,0.0,0.0,0.0,0.0,0.0,0.0,0.0
6.883,197,6,883000000,base_footprint,-0.003837546067872622,0.00037919759233933585,0.9949840685699727,0.0999591553651132,0.0,0.0,0.0,0.0,0.0,0.0,0.0,0.0,0.0,-0.0009097676338340084,0.0001388882764189006,0.12410154617382017,0.0,0.0,0.0,0.0,0.0,0.0,0.0,0.0,0.0,0.011211051296833465,0.02477357219674839,-0.0007855433615429189,0.0,0.0,0.0,0.0,0.0,0.0,0.0,0.0,0.0
6.918,198,6,917000000,base_footprint,-0.003838793347495895,0.0003724646666661595,0.9951911698480422,0.0978757395486364,0.0,0.0,0.0,0.0,0.0,0.0,0.0,0.0,0.0,-0.00076851913827665,0.0001531676122955053,0.1223202258609741,0.0,0.0,0.0,0.0,0.0,0.0,0.0,0.0,0.0,0.008543563859639189,0.026382677028223382,-9.077900915140178e-05,0.0,0.0,0.0,0.0,0.0,0.0,0.0,0.0,0.0
6.95,199,6,951000000,base_footprint,-0.0038359040023342467,0.0003614863444060835,0.9953784720115991,0.09595234558864127,0.0,0.0,0.0,0.0,0.0,0.0,0.0,0.0,0.0,-0.002143996002515357,-0.0009605028843400723,0.10165426582244842,0.0,0.0,0.0,0.0,0.0,0.0,0.0,0.0,0.0,-0.02989805129787736,0.03849590982313658,0.0022374998614729425,0.0,0.0,0.0,0.0,0.0,0.0,0.0,0.0,0.0
6.985,200,6,985000000,base_footprint,-0.0038337769687043968,0.000352949665517968,0.9955464558154027,0.09419358732991483,0.0,0.0,0.0,0.0,0.0,0.0,0.0,0.0,0.0,-0.0008284223049951093,-2.568937272714921e-05,0.11429869312738061,0.0,0.0,0.0,0.0,0.0,0.0,0.0,0.0,0.0,0.033748910017650825,0.01071498337962284,-0.001732017169900697,0.0,0.0,0.0,0.0,0.0,0.0,0.0,0.0,0.0
7.019,201,7,19000000,base_footprint,-0.003837725327476675,0.00035091696935018687,0.9956736301114926,0.0928394906394606,0.0,0.0,0.0,0.0,0.0,0.0,0.0,0.0,0.0,-0.000747485655445907,-0.00045414299451193314,0.07109043271441089,0.0,0.0,0.0,0.0,0.0,0.0,0.0,0.0,0.0,0.03353754191899789,0.006213195327192117,0.0007516153253056474,0.0,0.0,0.0,0.0,0.0,0.0,0.0,0.0,0.0
7.053,202,7,53000000,base_footprint,-0.003839065563773255,0.0003442384463935904,0.995828535463908,0.09116288187248897,0.0,0.0,0.0,0.0,0.0,0.0,0.0,0.0,0.0,-0.0005353543543298778,0.0004364342720593596,0.11530623158632408,0.0,0.0,0.0,0.0,0.0,0.0,0.0,0.0,0.0,-0.31823022074133817,0.14441446753566675,-0.0039683427234970215,0.0,0.0,0.0,0.0,0.0,0.0,0.0,0.0,0.0
7.087,203,7,87000000,base_footprint,-0.0038384937267775805,0.0003363092670782372,0.9960050024092968,0.08921428157892168,0.0,0.0,0.0,0.0,0.0,0.0,0.0,0.0,0.0,-0.0008323245503954282,-1.6697671406416174e-05,0.11494370902733776,0.0,0.0,0.0,0.0,0.0,0.0,0.0,0.0,0.0,0.008804550961067333,0.022149265004322644,0.0008624383036075698,0.0,0.0,0.0,0.0,0.0,0.0,0.0,0.0,0.0
7.121,204,7,121000000,base_footprint,-0.0038394258363192582,0.000327782107163463,0.9961950186010492,0.08706684950423436,0.0,0.0,0.0,0.0,0.0,0.0,0.0,0.0,0.0,-0.0010175391707200158,1.7261164550776714e-05,0.12783026952072277,0.0,0.0,0.0,0.0,0.0,0.0,0.0,0.0,0.0,0.006942890319170598,0.02526250891019846,-3.1934094506817997e-06,0.0,0.0,0.0,0.0,0.0,0.0,0.0,0.0,0.0
7.156,205,7,155000000,base_footprint,-0.003840587016444031,0.0003192091279718721,0.9963820056632524,0.08490021665093872,0.0,0.0,0.0,0.0,0.0,0.0,0.0,0.0,0.0,-0.001071771579366462,6.17786079798059e-05,0.1277677551380948,0.0,0.0,0.0,0.0,0.0,0.0,0.0,0.0,0.0,0.010092560568598532,0.024556600758573122,-4.562962781343598e-05,0.0,0.0,0.0,0.0,0.0,0.0,0.0,0.0,0.0
7.189,206,7,189000000,base_footprint,-0.003841994385166055,0.0003106204512907418,0.9965641768344491,0.08273441874067057,0.0,0.0,0.0,0.0,0.0,0.0,0.0,0.0,0.0,-0.0010853930695936258,7.884880129172903e-05,0.12774169205602434,0.0,0.0,0.0,0.0,0.0,0.0,0.0,0.0,0.0,0.009782152505873862,0.024659489522711145,-3.300548506534446e-05,0.0,0.0,0.0,0.0,0.0,0.0,0.0,0.0,0.0
7.223,207,7,223000000,base_footprint,-0.0038434570290356495,0.0003016541205169384,0.99675143197397,0.0804469993268727,0.0,0.0,0.0,0.0,0.0,0.0,0.0,0.0,0.0,-0.0011260886066552706,8.942831179656788e-05,0.13532785267533384,0.0,0.0,0.0,0.0,0.0,0.0,0.0,0.0,0.0,0.007098534238374943,0.027036575996900816,-7.51492297108135e-05,0.0,0.0,0.0,0.0,0.0,0.0,0.0,0.0,0.0
7.257,208,7,257000000,base_footprint,-0.0038448958115951427,0.0002927671783866382,0.9969342709810993,0.07814851506562014,0.0,0.0,0.0,0.0,0.0,0.0,0.0,0.0,0.0,-0.0011263505151847355,0.00011056642155637226,0.13585634443283084,0.0,0.0,0.0,0.0,0.0,0.0,0.0,0.0,0.0,0.008231185688840207,0.02687877905615317,-9.129246341283665e-05,0.0,0.0,0.0,0.0,0.0,0.0,0.0,0.0,0.0
7.291,209,7,291000000,base_footprint,-0.00384574589370222,0.00028335721498362924,0.9971127000342934,0.07583794154334107,0.0,0.0,0.0,0.0,0.0,0.0,0.0,0.0,0.0,-0.002375424499856992,-0.0017706197533972684,0.14037200304362357,0.0,0.0,0.0,0.0,0.0,0.0,0.0,0.0,0.0,0.015908322538589904,0.02515093457087773,-0.0035271071054002357,0.0,0.0,0.0,0.0,0.0,0.0,0.0,0.0,0.0
7.325,210,7,325000000,base_footprint,-0.0038410036837627647,0.00027470145531641394,0.9973765634036802,0.07228528206264719,0.0,0.0,0.0,0.0,0.0,0.0,0.0,0.0,0.0,-0.005002351771857352,0.0016234065626287704,0.25384838290736067,0.0,0.0,0.0,0.0,0.0,0.0,0.0,0.0,0.0,0.19921594600780038,-0.017133912361035147,0.01125222854605871,0.0,0.0,0.0,0.0,0.0,0.0,0.0,0.0,0.0
7.359,211,7,359000000,base_footprint,-0.0038420686411240745,0.00026391883533199306,0.997609905664492,0.06899018028305708,0.0,0.0,0.0,0.0,0.0,0.0,0.0,0.0,0.0,-0.0010857226865484343,8.555721454666085e-05,0.16216386574910724,0.0,0.0,0.0,0.0,0.0,0.0,0.0,0.0,0.0,0.07383701730560709,0.02535180591346191,-0.005560226049370023,0.0,0.0,0.0,0.0,0.0,0.0,0.0,0.0,0.0
7.393,212,7,393000000,base_footprint,-0.003846711558606572,0.00025262356843141755,0.9977711858012382,0.06661681301524831,0.0,0.0,0.0,0.0,0.0,0.0,0.0,0.0,0.0,-0.0011534673413006711,-0.0014126785375379283,0.1265547355029158,0.0,0.0,0.0,0.0,0.0,0.0,0.0,0.0,0.0,0.08194611984685754,0.00932557797367127,0.0017060744684667332,0.0,0.0,0.0,0.0,0.0,0.0,0.0,0.0,0.0
7.427,213,7,427000000,base_footprint,-0.0038432125047365056,0.0002392684804747388,0.9978945472298537,0.06474291526617484,0.0,0.0,0.0,0.0,0.0,0.0,0.0,0.0,0.0,-0.0007617996897208317,1.4338744955937314e-05,0.10450858423127433,0.0,0.0,0.0,0.0,0.0,0.0,0.0,0.0,0.0,-0.031192678605646448,0.03342237211161455,-0.0011025476319563208,0.0,0.0,0.0,0.0,0.0,0.0,0.0,0.0,0.0
7.461,214,7,461000000,base_footprint,-0.0038478266086534405,0.00023539922836710915,0.9980177687092789,0.06281458555260372,0.0,0.0,0.0,0.0,0.0,0.0,0.0,0.0,0.0,-0.0007690311381381067,0.0002050757290566173,0.11989114543283351,0.0,0.0,0.0,0.0,0.0,0.0,0.0,0.0,0.0,0.039055300319440434,0.015055794663498354,-0.0001522658629527138,0.0,0.0,0.0,0.0,0.0,0.0,0.0,0.0,0.0
7.495,215,7,495000000,base_footprint,-0.0038469876566819094,0.0002274587308111663,0.9981422062263082,0.06080530485223616,0.0,0.0,0.0,0.0,0.0,0.0,0.0,0.0,0.0,-0.0013110692193714652,0.00026659521027589804,0.11158800212421817,0.0,0.0,0.0,0.0,0.0,0.0,0.0,0.0,0.0,0.007583081004744618,0.024938371240662307,0.0002636363576248769,0.0,0.0,0.0,0.0,0.0,0.0,0.0,0.0,0.0
7.529,216,7,529000000,base_footprint,-0.0038468661005583845,0.00021970296048386446,0.998256308683342,0.05890242376780244,0.0,0.0,0.0,0.0,0.0,0.0,0.0,0.0,0.0,-0.0007798800800043989,-6.356736258654329e-05,0.11206180479136173,0.0,0.0,0.0,0.0,0.0,0.0,0.0,0.0,0.0,0.007278278963940852,0.02343676377125183,0.0004059383375767372,0.0,0.0,0.0,0.0,0.0,0.0,0.0,0.0,0.0
7.563,217,7,563000000,base_footprint,-0.0038471907950035802,0.00021226142328987797,0.99836673362956,0.05700016885868259,0.0,0.0,0.0,0.0,0.0,0.0,0.0,0.0,0.0,-0.0007905047469588858,-6.493525393106853e-05,0.11196240421034753,0.0,0.0,0.0,0.0,0.0,0.0,0.0,0.0,0.0,0.006870418891145922,0.023559806890940296,3.561877330082232e-05,0.0,0.0,0.0,0.0,0.0,0.0,0.0,0.0,0.0
7.597,218,7,597000000,base_footprint,-0.0038478251965011314,0.00020467517554719684,0.9984749182673536,0.05507258792113834,0.0,0.0,0.0,0.0,0.0,0.0,0.0,0.0,0.0,-0.0008442785547552963,6.491212210402713e-05,0.11968997309710137,0.0,0.0,0.0,0.0,0.0,0.0,0.0,0.0,0.0,0.00472859138358829,0.024264792280065308,-4.4419593671416466e-05,0.0,0.0,0.0,0.0,0.0,0.0,0.0,0.0,0.0
7.631,219,7,631000000,base_footprint,-0.003848588246316604,0.00019668349016805847,0.9985848951338226,0.053041086854318686,0.0,0.0,0.0,0.0,0.0,0.0,0.0,0.0,0.0,-0.0009984601484337794,-2.080155287837395e-05,0.1195593607380098,0.0,0.0,0.0,0.0,0.0,0.0,0.0,0.0,0.0,0.006912114684451203,0.02535041974374428,-1.3945421525987983e-05,0.0,0.0,0.0,0.0,0.0,0.0,0.0,0.0,0.0
7.666,220,7,665000000,base_footprint,-0.003849629845709709,0.00018872874825706347,0.998690654869455,0.051010985169176425,0.0,0.0,0.0,0.0,0.0,0.0,0.0,0.0,0.0,-0.0009896019287618642,-1.0156626150755298e-05,0.11947935643012352,0.0,0.0,0.0,0.0,0.0,0.0,0.0,0.0,0.0,0.006720988236296751,0.025342011750104525,-6.015929581303036e-05,0.0,0.0,0.0,0.0,0.0,0.0,0.0,0.0,0.0
7.699,221,7,699000000,base_footprint,-0.003851390692484159,0.00017984692534527412,0.9987786176230888,0.04925857715899873,0.0,0.0,0.0,0.0,0.0,0.0,0.0,0.0,0.0,0.0007700806496662525,-0.0017416987556522602,0.020711378261226224,0.0,0.0,0.0,0.0,0.0,0.0,0.0,0.0,0.0,0.008685171915838164,0.022673275838893205,0.0009099734983817247,0.0,0.0,0.0,0.0,0.0,0.0,0.0,0.0,0.0
7.7330000000000005,222,7,733000000,base_footprint,-0.0038517804902706812,0.00018104959057119925,0.9987887001859865,0.04905367864786559,0.0,0.0,0.0,0.0,0.0,0.0,0.0,0.0,0.0,-0.00017093783194218405,-5.169594827980634e-05,0.012349371937558602,0.0,0.0,0.0,0.0,0.0,0.0,0.0,0.0,0.0,0.025555864681420203,-0.002765955952225888,-0.0009019945595537926,0.0,0.0,0.0,0.0,0.0,0.0,0.0,0.0,0.0
7.768,223,7,767000000,base_footprint,-0.00385263168538591,0.0001802589390291477,0.9987992225246503,0.048838896588333625,0.0,0.0,0.0,0.0,0.0,0.0,0.0,0.0,0.0,-0.00014156491863363352,-2.8313515706167838e-05,0.01294965019570418,0.0,0.0,0.0,0.0,0.0,0.0,0.0,0.0,0.0,0.0003747497756599543,0.0032962691105837875,-8.75292127487251e-05,0.0,0.0,0.0,0.0,0.0,0.0,0.0,0.0,0.0
7.801,224,7,801000000,base_footprint,-0.0038570572616708214,0.00017814190212856213,0.9988149412710788,0.04851602280066267,0.0,0.0,0.0,0.0,0.0,0.0,0.0,0.0,0.0,-0.0011233889466034511,-1.5005745656125572e-05,0.045266908647450095,0.0,0.0,0.0,0.0,0.0,0.0,0.0,0.0,0.0,0.023498409469857713,-0.0020129799044860982,0.001301825493559112,0.0,0.0,0.0,0.0,0.0,0.0,0.0,0.0,0.0
7.835,225,7,835000000,base_footprint,-0.0038530410894541925,0.0001703629327057077,0.9988636664303174,0.04750264136043061,0.0,0.0,0.0,0.0,0.0,0.0,0.0,0.0,0.0,-0.0006402705125544363,-0.0006190262624721954,0.0695453393591302,0.0,0.0,0.0,0.0,0.0,0.0,0.0,0.0,0.0,-0.14781752001261403,0.04333437753345343,-0.0009038162894339132,0.0,0.0,0.0,0.0,0.0,0.0,0.0,0.0,0.0
7.869,226,7,869000000,base_footprint,-0.0038564742285834043,0.0001750476294920165,0.9989141631339796,0.0464283496927565,0.0,0.0,0.0,0.0,0.0,0.0,0.0,0.0,0.0,0.0006459077751999053,0.0010651987886978384,0.04559585104381177,0.0,0.0,0.0,0.0,0.0,0.0,0.0,0.0,0.0,-0.11795652907848572,0.03542246265101051,-0.003475587859892165,0.0,0.0,0.0,0.0,0.0,0.0,0.0,0.0,0.0
7.9030000000000005,227,7,903000000,base_footprint,-0.003847197854976349,0.00016840786772558155,0.9989286446036867,0.04611652304430822,0.0,0.0,0.0,0.0,0.0,0.0,0.0,0.0,0.0,-0.0005229496223512361,-0.0006351304517624419,0.0027618901565931065,0.0,0.0,0.0,0.0,0.0,0.0,0.0,0.0,0.0,-0.10754446926243318,0.024635636645897015,0.0020730478909062678,0.0,0.0,0.0,0.0,0.0,0.0,0.0,0.0,0.0
7.937,228,7,937000000,base_footprint,-0.0038503307623511383,0.00017009851701780935,0.9989347151616496,0.04598457202616281,0.0,0.0,0.0,0.0,0.0,0.0,0.0,0.0,0.0,5.242709377920284e-05,3.69349270375432e-05,0.00847875832257899,0.0,0.0,0.0,0.0,0.0,0.0,0.0,0.0,0.0,0.014939519086497004,-0.0011538121491601987,-0.0015507340214047983,0.0,0.0,0.0,0.0,0.0,0.0,0.0,0.0,0.0
7.971,229,7,971000000,base_footprint,-0.003849964380008788,0.00016956303036142858,0.998941216397197,0.04584315876485794,0.0,0.0,0.0,0.0,0.0,0.0,0.0,0.0,0.0,-1.0080299134530973e-05,-0.00012141704833686445,0.008226683464504664,0.0,0.0,0.0,0.0,0.0,0.0,0.0,0.0,0.0,0.0009603628912984344,0.0015954821805417348,0.0003184475130189534,0.0,0.0,0.0,0.0,0.0,0.0,0.0,0.0,0.0
8.005,230,8,5000000,base_footprint,-0.0038426136483385065,0.0001686571165104952,0.9989383435678154,0.04590633534835873,0.0,0.0,0.0,0.0,0.0,0.0,0.0,0.0,0.0,0.00017994689796086149,-0.0009459237508702449,-0.04164774695144612,0.0,0.0,0.0,0.0,0.0,0.0,0.0,0.0,0.0,0.28457995714693407,-0.05287442841082191,0.0033046524030742705,0.0,0.0,0.0,0.0,0.0,0.0,0.0,0.0,0.0
8.039,231,8,39000000,base_footprint,-0.003844823945238428,0.00017025342675504448,0.9989255029397719,0.04618471521103642,0.0,0.0,0.0,0.0,0.0,0.0,0.0,0.0,0.0,0.00023044356697652445,0.0016380331987665474,0.016484836587246445,0.0,0.0,0.0,0.0,0.0,0.0,0.0,0.0,0.0,0.04886687939176939,-0.01362580860218593,-0.002460582930968916,0.0,0.0,0.0,0.0,0.0,0.0,0.0,0.0,0.0
8.073,232,8,73000000,base_footprint,-0.0038495493450166943,0.00016949277350739958,0.9989383129887393,0.045906416602169466,0.0,0.0,0.0,0.0,0.0,0.0,0.0,0.0,0.0,-0.00011203638104431967,-0.0001296421406632628,0.016228598152864614,0.0,0.0,0.0,0.0,0.0,0.0,0.0,0.0,0.0,0.0028448963981610705,0.0030506310103357746,0.001980315644637452,0.0,0.0,0.0,0.0,0.0,0.0,0.0,0.0,0.0
8.107,233,8,107000000,base_footprint,-0.003849942237196606,0.00016813452031514949,0.9989526347228914,0.04559367561128275,0.0,0.0,0.0,0.0,0.0,0.0,0.0,0.0,0.0,-0.00023265362454099055,-0.00011349232688294912,0.020517493450204514,0.0,0.0,0.0,0.0,0.0,0.0,0.0,0.0,0.0,0.0008502338998804931,0.003915628760402432,-0.00011949633637533862,0.0,0.0,0.0,0.0,0.0,0.0,0.0,0.0,0.0
8.14,234,8,141000000,base_footprint,-0.003850696847963817,0.00016660401793193886,0.9989684600364144,0.04524555480222445,0.0,0.0,0.0,0.0,0.0,0.0,0.0,0.0,0.0,-0.0002500572925547359,-0.00010433408643490735,0.020430418897221168,0.0,0.0,0.0,0.0,0.0,0.0,0.0,0.0,0.0,0.0021122191745751597,0.0041235855277557305,-7.929137626479826e-05,0.0,0.0,0.0,0.0,0.0,0.0,0.0,0.0,0.0
8.175,235,8,175000000,base_footprint,-0.003851499455291904,0.00016519299863875596,0.9989840503611042,0.044899953088418106,0.0,0.0,0.0,0.0,0.0,0.0,0.0,0.0,0.0,-0.000199272514818255,-8.512089241233443e-05,0.020126016671131425,0.0,0.0,0.0,0.0,0.0,0.0,0.0,0.0,0.0,0.002575471410979264,0.0039608799867462095,-0.00013654931325297212,0.0,0.0,0.0,0.0,0.0,0.0,0.0,0.0,0.0
8.209,236,8,209000000,base_footprint,-0.0038492151368743795,0.0001632596502138655,0.9990334564374351,0.04378709636169172,0.0,0.0,0.0,0.0,0.0,0.0,0.0,0.0,0.0,-0.0017494071720350864,0.0010250480127538446,0.1428021306003119,0.0,0.0,0.0,0.0,0.0,0.0,0.0,0.0,0.0,-0.02853399781886918,0.018502026292279435,-0.0030057124454589096,0.0,0.0,0.0,0.0,0.0,0.0,0.0,0.0,0.0
8.243,237,8,243000000,base_footprint,-0.003854089834871714,0.00015160411043044152,0.9991375008681982,0.041344617141651524,0.0,0.0,0.0,0.0,0.0,0.0,0.0,0.0,0.0,-0.0011778217018105265,7.720093648875438e-05,0.143958473847282,0.0,0.0,0.0,0.0,0.0,0.0,0.0,0.0,0.0,0.0016483409031077044,0.03153413653598693,0.0024711724463295504,0.0,0.0,0.0,0.0,0.0,0.0,0.0,0.0,0.0
8.277,238,8,277000000,base_footprint,-0.003856402905475036,0.00014179048109257104,0.9992354686411979,0.03890483596541323,0.0,0.0,0.0,0.0,0.0,0.0,0.0,0.0,0.0,-0.0011215553121772485,0.00011679640737948413,0.1441298617084346,0.0,0.0,0.0,0.0,0.0,0.0,0.0,0.0,0.0,0.00291244322778874,0.0315511219693108,-5.413327615522819e-05,0.0,0.0,0.0,0.0,0.0,0.0,0.0,0.0,0.0
8.311,239,8,311000000,base_footprint,-0.003855284944884404,0.00013663884468638818,0.9993257884511353,0.036511459082548325,0.0,0.0,0.0,0.0,0.0,0.0,0.0,0.0,0.0,-0.001817567251601562,0.0007032671597897547,0.12668095945780042,0.0,0.0,0.0,0.0,0.0,0.0,0.0,0.0,0.0,0.001665375088313813,0.03171386495746203,-0.0008302402930757474,0.0,0.0,0.0,0.0,0.0,0.0,0.0,0.0,0.0
8.345,240,8,345000000,base_footprint,-0.0038504683997533217,0.00012253020288244295,0.9993982014022219,0.03447308969987997,0.0,0.0,0.0,0.0,0.0,0.0,0.0,0.0,0.0,-0.0011531080098829884,-0.00035850474514079276,0.11092090121025541,0.0,0.0,0.0,0.0,0.0,0.0,0.0,0.0,0.0,-0.04663311242012068,0.03282255409811235,0.0015218750378433999,0.0,0.0,0.0,0.0,0.0,0.0,0.0,0.0,0.0
8.379,241,8,379000000,base_footprint,-0.0038492762373146657,0.00011464267492513159,0.9994645625814377,0.03249243101710559,0.0,0.0,0.0,0.0,0.0,0.0,0.0,0.0,0.0,-0.0011520479968120346,-6.57322713001557e-05,0.12980214660002615,0.0,0.0,0.0,0.0,0.0,0.0,0.0,0.0,0.0,0.04275195661716154,0.019066625364014784,-1.1063959742315256e-06,0.0,0.0,0.0,0.0,0.0,0.0,0.0,0.0,0.0
8.413,242,8,413000000,base_footprint,-0.0038529252640273053,0.00010946242921254234,0.9995326144968472,0.03032648251913959,0.0,0.0,0.0,0.0,0.0,0.0,0.0,0.0,0.0,-0.000943965614838251,-2.3185867901768454e-05,0.12399684809297713,0.0,0.0,0.0,0.0,0.0,0.0,0.0,0.0,0.0,0.017973518444030147,0.02625733079993525,-0.00026435041082919987,0.0,0.0,0.0,0.0,0.0,0.0,0.0,0.0,0.0
8.447,243,8,447000000,base_footprint,-0.0038522003415945773,0.00010124614505722947,0.9995943125901096,0.028219860723480875,0.0,0.0,0.0,0.0,0.0,0.0,0.0,0.0,0.0,-0.0008894098816643746,-7.773895003738231e-05,0.12392542084949582,0.0,0.0,0.0,0.0,0.0,0.0,0.0,0.0,0.0,0.004025440400980797,0.026829519755346556,0.00021735769066869544,0.0,0.0,0.0,0.0,0.0,0.0,0.0,0.0,0.0
8.481,244,8,481000000,base_footprint,-0.003851996890279406,9.3187085556838e-05,0.999651541795162,0.026114142196896194,0.0,0.0,0.0,0.0,0.0,0.0,0.0,0.0,0.0,-0.0008664457907827574,-0.00010168831105141833,0.12386110254756601,0.0,0.0,0.0,0.0,0.0,0.0,0.0,0.0,0.0,0.004078364997285876,0.026761359558438048,0.00011369380163776455,0.0,0.0,0.0,0.0,0.0,0.0,0.0,0.0,0.0
8.515,245,8,515000000,base_footprint,-0.0038519108994236723,8.769802927325713e-05,0.9996877042584731,0.024691072190211147,0.0,0.0,0.0,0.0,0.0,0.0,0.0,0.0,0.0,-0.00043822928114345237,-2.4542481415140567e-05,0.06630116778509218,0.0,0.0,0.0,0.0,0.0,0.0,0.0,0.0,0.0,0.01831324038839938,0.01721780196365594,7.166277112936329e-05,0.0,0.0,0.0,0.0,0.0,0.0,0.0,0.0,0.0
8.549,246,8,549000000,base_footprint,-0.003852228043949423,8.336180938229837e-05,0.9997148889252886,0.023564682280993007,0.0,0.0,0.0,0.0,0.0,0.0,0.0,0.0,0.0,-0.00047995753826520426,-0.0001539583176629057,0.06619309446691536,0.0,0.0,0.0,0.0,0.0,0.0,0.0,0.0,0.0,0.002726577240470381,0.014340102845994403,0.00018942059698918415,0.0,0.0,0.0,0.0,0.0,0.0,0.0,0.0,0.0
8.583,247,8,583000000,base_footprint,-0.003852723114468687,7.897082063337126e-05,0.9997407683139342,0.022439840892423162,0.0,0.0,0.0,0.0,0.0,0.0,0.0,0.0,0.0,-0.0005023298671588802,-0.00013643941232329907,0.0661008841319438,0.0,0.0,0.0,0.0,0.0,0.0,0.0,0.0,0.0,0.0026851765794874164,0.014332464754134425,-7.779597940820282e-05,0.0,0.0,0.0,0.0,0.0,0.0,0.0,0.0,0.0
8.617,248,8,617000000,base_footprint,-0.0038534888733998142,7.499664788707381e-05,0.9997630858333423,0.02142235290528487,0.0,0.0,0.0,0.0,0.0,0.0,0.0,0.0,0.0,-0.0004660292291643515,-7.996021329045787e-05,0.05814982517680433,0.0,0.0,0.0,0.0,0.0,0.0,0.0,0.0,0.0,0.001427540166494149,0.013166594091177201,-0.0002467970248043734,0.0,0.0,0.0,0.0,0.0,0.0,0.0,0.0,0.0
8.651,249,8,651000000,base_footprint,-0.0038546806279282668,7.149539978709563e-05,0.9997822438402587,0.02050856473286213,0.0,0.0,0.0,0.0,0.0,0.0,0.0,0.0,0.0,-0.00047255458912915554,-6.691329104791441e-05,0.05786499724264495,0.0,0.0,0.0,0.0,0.0,0.0,0.0,0.0,0.0,-0.3369728416785636,0.03957558735668566,-0.0027959574306545996,0.0,0.0,0.0,0.0,0.0,0.0,0.0,0.0,0.0
8.685,250,8,685000000,base_footprint,-0.0038556697469501237,6.768826328121536e-05,0.9998018526702942,0.01952907130789383,0.0,0.0,0.0,0.0,0.0,0.0,0.0,0.0,0.0,-0.000454912034465046,-5.5950021280370605e-05,0.057666806659489395,0.0,0.0,0.0,0.0,0.0,0.0,0.0,0.0,0.0,0.004234965934739502,0.011631208973499703,4.779565333305981e-05,0.0,0.0,0.0,0.0,0.0,0.0,0.0,0.0,0.0
8.719,251,8,719000000,base_footprint,-0.0038565190940114532,6.209805074670006e-05,0.9998306979483508,0.017991632622512355,0.0,0.0,0.0,0.0,0.0,0.0,0.0,0.0,0.0,-0.0007604510910603893,2.130890909047997e-05,0.09879437344303292,0.0,0.0,0.0,0.0,0.0,0.0,0.0,0.0,0.0,-0.010347742585337506,0.019186414167037258,-0.00025693113735236707,0.0,0.0,0.0,0.0,0.0,0.0,0.0,0.0,0.0
8.753,252,8,753000000,base_footprint,-0.003858088085688635,5.5621047071059054e-05,0.9998594933958128,0.016312741305215258,0.0,0.0,0.0,0.0,0.0,0.0,0.0,0.0,0.0,-0.0007643998177735488,6.654090811825595e-05,0.09797735370077935,0.0,0.0,0.0,0.0,0.0,0.0,0.0,0.0,0.0,0.0006845659842409819,0.021118763765319667,-0.00019343592034119672,0.0,0.0,0.0,0.0,0.0,0.0,0.0,0.0,0.0
8.787,253,8,787000000,base_footprint,-0.003860136719701785,4.9705073466805955e-05,0.9998848273837874,0.014677494391240706,0.0,0.0,0.0,0.0,0.0,0.0,0.0,0.0,0.0,-0.0009028129524787671,-0.00037839311681791963,0.0955512192346145,0.0,0.0,0.0,0.0,0.0,0.0,0.0,0.0,0.0,-0.01991403324713335,0.021773805717044126,0.0008733640416386541,0.0,0.0,0.0,0.0,0.0,0.0,0.0,0.0,0.0
8.821,254,8,821000000,base_footprint,-0.0038457637549331987,4.533341862494042e-05,0.9999006730228706,0.013559208473691313,0.0,0.0,0.0,0.0,0.0,0.0,0.0,0.0,0.0,-0.0002532020545727811,-0.00025206698951056567,0.03392432939454897,0.0,0.0,0.0,0.0,0.0,0.0,0.0,0.0,0.0,0.05740956917401779,0.01119521460672065,0.0003276138894083615,0.0,0.0,0.0,0.0,0.0,0.0,0.0,0.0,0.0
8.855,255,8,855000000,base_footprint,-0.0038508036140952333,4.0551730063566315e-05,0.9999033327631193,0.01336019447050818,0.0,0.0,0.0,0.0,0.0,0.0,0.0,0.0,0.0,-3.862454824285269e-05,-0.0007301548258477794,0.020575030022227367,0.0,0.0,0.0,0.0,0.0,0.0,0.0,0.0,0.0,0.14853187863340836,-0.0062701230406798526,0.0017388325645342757,0.0,0.0,0.0,0.0,0.0,0.0,0.0,0.0,0.0
8.888,256,8,889000000,base_footprint,-0.0038509290483291986,3.8202040433603715e-05,0.9999153126758201,0.012431265522294057,0.0,0.0,0.0,0.0,0.0,0.0,0.0,0.0,0.0,0.00018864468028684917,0.0009222615519462421,0.0909709397253766,0.0,0.0,0.0,0.0,0.0,0.0,0.0,0.0,0.0,0.15106289764143876,0.0031356576258260334,-0.0015527517332629825,0.0,0.0,0.0,0.0,0.0,0.0,0.0,0.0,0.0
8.923,257,8,923000000,base_footprint,-0.0038535323712249625,3.429782411887066e-05,0.9999323707669437,0.010972830278581137,0.0,0.0,0.0,0.0,0.0,0.0,0.0,0.0,0.0,-0.0005969246082774857,-0.00012148099172346521,0.0855675724664219,0.0,0.0,0.0,0.0,0.0,0.0,0.0,0.0,0.0,0.0034495388806337246,0.018801278962274872,0.0019074725946529767,0.0,0.0,0.0,0.0,0.0,0.0,0.0,0.0,0.0
8.957,258,8,957000000,base_footprint,-0.0038531250635834564,2.8880144329652526e-05,0.9999472725676536,0.00951864894259673,0.0,0.0,0.0,0.0,0.0,0.0,0.0,0.0,0.0,-0.0005636854752753415,-0.00012819670933739052,0.08553259814903914,0.0,0.0,0.0,0.0,0.0,0.0,0.0,0.0,0.0,0.0019320683404766203,0.01867401736607349,9.543672595660749e-05,0.0,0.0,0.0,0.0,0.0,0.0,0.0,0.0,0.0
8.991,259,8,991000000,base_footprint,-0.0038528914626512253,2.3733709478236995e-05,0.9999600244661039,0.00806871327021849,0.0,0.0,0.0,0.0,0.0,0.0,0.0,0.0,0.0,7.286201665576258e-05,-0.0002732891151468325,0.07877920453706848,0.0,0.0,0.0,0.0,0.0,0.0,0.0,0.0,0.0,0.002901108665284261,0.018612081900212053,0.00035548679025587166,0.0,0.0,0.0,0.0,0.0,0.0,0.0,0.0,0.0
9.025,260,9,25000000,base_footprint,-0.003853023697041325,1.8462167971169628e-05,0.999969756484501,0.0067557371075410355,0.0,0.0,0.0,0.0,0.0,0.0,0.0,0.0,0.0,-0.0005277714381278181,-0.00015512458551020702,0.0772096170757435,0.0,0.0,0.0,0.0,0.0,0.0,0.0,0.0,0.0,0.002971184490087095,0.01692972702735465,-0.0002383122885938673,0.0,0.0,0.0,0.0,0.0,0.0,0.0,0.0,0.0
9.059,261,9,59000000,base_footprint,-0.0038533805028717434,1.3447999331993413e-05,0.9999777583526137,0.005443719126959832,0.0,0.0,0.0,0.0,0.0,0.0,0.0,0.0,0.0,-0.0005216906063521888,-0.00014939688858114637,0.07712290767670459,0.0,0.0,0.0,0.0,0.0,0.0,0.0,0.0,0.0,0.0017609571726199794,0.016886389269277918,-4.1663767616210407e-05,0.0,0.0,0.0,0.0,0.0,0.0,0.0,0.0,0.0
9.093,262,9,93000000,base_footprint,-0.0038539172145612578,8.169083962139242e-06,0.9999839854002766,0.004144417733433171,0.0,0.0,0.0,0.0,0.0,0.0,0.0,0.0,0.0,-0.0002759859317181731,-0.0001852968939016312,0.06852540440931973,0.0,0.0,0.0,0.0,0.0,0.0,0.0,0.0,0.0,0.0038430315191589804,0.016967432337893554,2.0576456128594707e-05,0.0,0.0,0.0,0.0,0.0,0.0,0.0,0.0,0.0
9.126,263,9,127000000,base_footprint,-0.0038549506263520217,4.028153021355483e-06,0.9999881374441211,0.0029772991922358953,0.0,0.0,0.0,0.0,0.0,0.0,0.0,0.0,0.0,-0.0005213742251375662,-8.520197238077907e-05,0.06865599124937191,0.0,0.0,0.0,0.0,0.0,0.0,0.0,0.0,0.0,0.0015881428376326836,0.01485459254101248,-0.0003090031653738174,0.0,0.0,0.0,0.0,0.0,0.0,0.0,0.0,0.0
9.161,264,9,161000000,base_footprint,-0.0038562207802564537,-3.48027164606246e-07,0.9999909243018685,0.0018113185991292,0.0,0.0,0.0,0.0,0.0,0.0,0.0,0.0,0.0,-0.0005194557717590493,-6.859209619123438e-05,0.06855890852840407,0.0,0.0,0.0,0.0,0.0,0.0,0.0,0.0,0.0,0.0006415255154967282,0.015064766347326473,-9.625883299469706e-05,0.0,0.0,0.0,0.0,0.0,0.0,0.0,0.0,0.0
9.195,265,9,195000000,base_footprint,-0.003857268956027728,-6.482794469698495e-06,0.9999923314236148,0.0006771470577970955,0.0,0.0,0.0,0.0,0.0,0.0,0.0,0.0,0.0,0.0006361370241389045,0.00017842515818687992,0.050219436885526006,0.0,0.0,0.0,0.0,0.0,0.0,0.0,0.0,0.0,0.0022179260001460393,0.015005135507905306,-0.00020634790059566213,0.0,0.0,0.0,0.0,0.0,0.0,0.0,0.0,0.0
9.229,266,9,229000000,base_footprint,-0.0038586762032618055,-6.866493861696376e-06,0.9999925394711261,-0.00017768764144283016,0.0,0.0,0.0,0.0,0.0,0.0,0.0,0.0,0.0,-0.0002818064601322586,2.195368304175431e-05,0.04870536468438666,0.0,0.0,0.0,0.0,0.0,0.0,0.0,0.0,0.0,0.0006078078624140385,0.011296258660241414,-3.1399593404891816e-05,0.0,0.0,0.0,0.0,0.0,0.0,0.0,0.0,0.0
9.263,267,9,263000000,base_footprint,-0.003855789518724617,-1.3033397690648456e-05,0.9999922123026612,-0.0008414578701588912,0.0,0.0,0.0,0.0,0.0,0.0,0.0,0.0,0.0,-0.0013942757621048588,-0.001202799253844295,0.02520865785127494,0.0,0.0,0.0,0.0,0.0,0.0,0.0,0.0,0.0,-0.036940110283266506,0.015100301947882127,0.00159390266019077,0.0,0.0,0.0,0.0,0.0,0.0,0.0,0.0,0.0
9.297,268,9,297000000,base_footprint,-0.0038680700190177383,-1.3805473577001833e-05,0.9999915482771554,-0.0013932759936168804,0.0,0.0,0.0,0.0,0.0,0.0,0.0,0.0,0.0,-0.00019752684912485572,-0.0002917920041937048,0.03356389472038142,0.0,0.0,0.0,0.0,0.0,0.0,0.0,0.0,0.0,-0.07591034221286219,-0.0008653109594786929,-0.0022853403702441906,0.0,0.0,0.0,0.0,0.0,0.0,0.0,0.0,0.0
9.331,269,9,331000000,base_footprint,-0.0038526655875640477,-1.4461750949324806e-05,0.9999907549231134,-0.0019096667327287158,0.0,0.0,0.0,0.0,0.0,0.0,0.0,0.0,0.0,-0.0007505579293587813,0.00040018227937713857,0.04134470239531931,0.0,0.0,0.0,0.0,0.0,0.0,0.0,0.0,0.0,-0.23387855688913692,0.005458452569909661,-0.002493298485062158,0.0,0.0,0.0,0.0,0.0,0.0,0.0,0.0,0.0
9.365,270,9,365000000,base_footprint,-0.0038546124070450555,-1.796136071074246e-05,0.9999891463072152,-0.0026170419079482986,0.0,0.0,0.0,0.0,0.0,0.0,0.0,0.0,0.0,-0.00029841610437498324,-0.00015917569277489326,0.0417243297452113,0.0,0.0,0.0,0.0,0.0,0.0,0.0,0.0,0.0,0.0009658895810066999,0.008595073434567368,0.0010386615301332407,0.0,0.0,0.0,0.0,0.0,0.0,0.0,0.0,0.0
9.399000000000001,271,9,399000000,base_footprint,-0.0038537943586289904,-2.0445042721052348e-05,0.9999871184385061,-0.003303151237051392,0.0,0.0,0.0,0.0,0.0,0.0,0.0,0.0,0.0,-0.00025922050458964595,1.1575373270617513e-05,0.03654317702626971,0.0,0.0,0.0,0.0,0.0,0.0,0.0,0.0,0.0,0.002472316594207169,0.008497891049174427,-0.00015713034858236396,0.0,0.0,0.0,0.0,0.0,0.0,0.0,0.0,0.0
9.433,272,9,433000000,base_footprint,-0.003853364590081247,-2.2578984152161376e-05,0.9999848756872564,-0.003924215624546808,0.0,0.0,0.0,0.0,0.0,0.0,0.0,0.0,0.0,-0.0002628382034419782,-0.00015199682230478923,0.03651259290416268,0.0,0.0,0.0,0.0,0.0,0.0,0.0,0.0,0.0,0.0008445652130933469,0.007555625238814538,0.00033947611637182154,0.0,0.0,0.0,0.0,0.0,0.0,0.0,0.0,0.0
9.467,273,9,467000000,base_footprint,-0.0038530886059878135,-2.478375381366524e-05,0.9999822536392263,-0.004543732009502016,0.0,0.0,0.0,0.0,0.0,0.0,0.0,0.0,0.0,-0.00023708637937188133,-0.0001750039702284191,0.036425756246589294,0.0,0.0,0.0,0.0,0.0,0.0,0.0,0.0,0.0,0.0010249798914332621,0.007595253097635069,0.00014983248775484088,0.0,0.0,0.0,0.0,0.0,0.0,0.0,0.0,0.0
9.501,274,9,501000000,base_footprint,-0.0038483646213729383,-2.6704549045648075e-05,0.9999793672202211,-0.005143394837492174,0.0,0.0,0.0,0.0,0.0,0.0,0.0,0.0,0.0,-0.00028105855551072395,0.0007553927005760406,0.03359305793939415,0.0,0.0,0.0,0.0,0.0,0.0,0.0,0.0,0.0,0.2511263122210414,0.012499937580673602,0.0003977797957634015,0.0,0.0,0.0,0.0,0.0,0.0,0.0,0.0,0.0
9.535,275,9,535000000,base_footprint,-0.0038531585474745576,-2.898714582533554e-05,0.999976579547936,-0.00565620761323177,0.0,0.0,0.0,0.0,0.0,0.0,0.0,0.0,0.0,-0.00016977197767474323,-0.00012896725821095952,0.028319365008584105,0.0,0.0,0.0,0.0,0.0,0.0,0.0,0.0,0.0,0.09371921938160488,0.008786430787935642,0.002169743167451654,0.0,0.0,0.0,0.0,0.0,0.0,0.0,0.0,0.0
9.568,276,9,569000000,base_footprint,-0.003853751649120787,-3.092352382058168e-05,0.9999737434384477,-0.006136780561532718,0.0,0.0,0.0,0.0,0.0,0.0,0.0,0.0,0.0,-0.000181390068464771,-0.00011796236294093332,0.02821885874232215,0.0,0.0,0.0,0.0,0.0,0.0,0.0,0.0,0.0,0.0011904631440169393,0.006250129197378409,-0.00020167596313993403,0.0,0.0,0.0,0.0,0.0,0.0,0.0,0.0,0.0
9.603,277,9,603000000,base_footprint,-0.0038545986944100237,-3.270364250885392e-05,0.9999709431111359,-0.006576772217605867,0.0,0.0,0.0,0.0,0.0,0.0,0.0,0.0,0.0,-0.00017383105922574532,-0.00010196311301813374,0.022066237244311084,0.0,0.0,0.0,0.0,0.0,0.0,0.0,0.0,0.0,0.0029364118095843894,0.005832421285424207,-0.00011556974568989761,0.0,0.0,0.0,0.0,0.0,0.0,0.0,0.0,0.0
9.637,278,9,637000000,base_footprint,-0.0038556776531720413,-3.429206298703679e-05,0.9999684074247576,-0.006951023398277142,0.0,0.0,0.0,0.0,0.0,0.0,0.0,0.0,0.0,-0.00015628052030001159,-0.00010434109587198107,0.021918770082737443,0.0,0.0,0.0,0.0,0.0,0.0,0.0,0.0,0.0,0.0011502751492926061,0.004656171997755821,-4.917139742479793e-05,0.0,0.0,0.0,0.0,0.0,0.0,0.0,0.0,0.0
9.67,279,9,671000000,base_footprint,-0.003856103324208601,-3.6069210282950886e-05,0.9999657331597009,-0.007325412790208146,0.0,0.0,0.0,0.0,0.0,0.0,0.0,0.0,0.0,-0.00015428061895371957,-8.734243562222752e-05,0.022172020332060883,0.0,0.0,0.0,0.0,0.0,0.0,0.0,0.0,0.0,0.0015922294841541151,0.004655012241706124,-8.102801615395728e-05,0.0,0.0,0.0,0.0,0.0,0.0,0.0,0.0,0.0
9.705,280,9,705000000,base_footprint,-0.0038571542762773116,-3.699369184189428e-05,0.9999633759552897,-0.007639878301117227,0.0,0.0,0.0,0.0,0.0,0.0,0.0,0.0,0.0,0.00015140841873599825,0.00016633321054732172,0.011055601524137277,0.0,0.0,0.0,0.0,0.0,0.0,0.0,0.0,0.0,-0.0027246555405973324,0.004266246286967449,-0.00046257464366069104,0.0,0.0,0.0,0.0,0.0,0.0,0.0,0.0,0.0
9.739,281,9,739000000,base_footprint,-0.003859557787597829,-3.954736916733386e-05,0.999961518074781,-0.007878110133099978,0.0,0.0,0.0,0.0,0.0,0.0,0.0,0.0,0.0,-0.000268513978936714,-8.792269605032349e-05,0.015765707902215764,0.0,0.0,0.0,0.0,0.0,0.0,0.0,0.0,0.0,-0.019024940574549454,0.0011368519877477169,0.0002522787471330132,0.0,0.0,0.0,0.0,0.0,0.0,0.0,0.0,0.0
9.773,282,9,773000000,base_footprint,-0.0038505658154000598,-3.5626052756095005e-05,0.999957761353974,-0.00834550068207583,0.0,0.0,0.0,0.0,0.0,0.0,0.0,0.0,0.0,-0.00035402943236492084,-0.0007007048389426194,0.02932375876759354,0.0,0.0,0.0,0.0,0.0,0.0,0.0,0.0,0.0,-0.02943260894654069,0.006484506261438389,-0.0001260925627009915,0.0,0.0,0.0,0.0,0.0,0.0,0.0,0.0,0.0
9.807,283,9,807000000,base_footprint,-0.0038560482146890863,-4.0904849020590174e-05,0.9999543488180418,-0.008742396630526748,0.0,0.0,0.0,0.0,0.0,0.0,0.0,0.0,0.0,-0.0002740409631826375,-0.0004718834171809597,0.02268079884396793,0.0,0.0,0.0,0.0,0.0,0.0,0.0,0.0,0.0,0.03780340460899512,0.006518121730303593,0.0008300630836600901,0.0,0.0,0.0,0.0,0.0,0.0,0.0,0.0,0.0
9.841,284,9,841000000,base_footprint,-0.0038544669743115307,-4.229699243290764e-05,0.9999508495564624,-0.00913453702261366,0.0,0.0,0.0,0.0,0.0,0.0,0.0,0.0,0.0,-0.00018007834388815628,-8.418696740402685e-05,0.023040639931970825,0.0,0.0,0.0,0.0,0.0,0.0,0.0,0.0,0.0,0.0007612719468161071,0.005075581020125699,-0.00039957353915245225,0.0,0.0,0.0,0.0,0.0,0.0,0.0,0.0,0.0
9.875,285,9,875000000,base_footprint,-0.00385359811572738,-4.3710981314123466e-05,0.9999472002127309,-0.009525999035981855,0.0,0.0,0.0,0.0,0.0,0.0,0.0,0.0,0.0,-0.00019978634501643353,-0.00013785719755676093,0.02300309629740942,0.0,0.0,0.0,0.0,0.0,0.0,0.0,0.0,0.0,0.0007395449889015887,0.005077165428801939,0.00016247404436678292,0.0,0.0,0.0,0.0,0.0,0.0,0.0,0.0,0.0
9.909,286,9,909000000,base_footprint,-0.0038487636425891284,-4.4676989834235095e-05,0.9999435135408574,-0.00990730790655447,0.0,0.0,0.0,0.0,0.0,0.0,0.0,0.0,0.0,-9.109011705710137e-05,-0.0018607817053876564,0.02296031027378432,0.0,0.0,0.0,0.0,0.0,0.0,0.0,0.0,0.0,-0.34081874317504846,-0.00885729307779668,-0.0006990799825675446,0.0,0.0,0.0,0.0,0.0,0.0,0.0,0.0,0.0
9.943,287,9,943000000,base_footprint,-0.0038527454970159,-4.6311781710450525e-05,0.9999403613488129,-0.010218999606586787,0.0,0.0,0.0,0.0,0.0,0.0,0.0,0.0,0.0,-0.00010158463711905556,-0.00015385768241770083,0.014990740537328124,0.0,0.0,0.0,0.0,0.0,0.0,0.0,0.0,0.0,0.004534027194110475,0.0043890377999615355,-0.0017143682967821706,0.0,0.0,0.0,0.0,0.0,0.0,0.0,0.0,0.0
9.976,288,9,977000000,base_footprint,-0.003852793907236712,-4.729262318826931e-05,0.9999377384007603,-0.010472490844537516,0.0,0.0,0.0,0.0,0.0,0.0,0.0,0.0,0.0,-7.545139498912593e-05,-0.00017777322143808908,0.014875575567950152,0.0,0.0,0.0,0.0,0.0,0.0,0.0,0.0,0.0,0.0011385106337387764,0.0031649659976429505,7.719383391290629e-05,0.0,0.0,0.0,0.0,0.0,0.0,0.0,0.0,0.0
10.011,289,10,11000000,base_footprint,-0.003853129373953004,-5.063108521472559e-05,0.9999280565286107,-0.011359251623074882,0.0,0.0,0.0,0.0,0.0,0.0,0.0,0.0,0.0,-0.0005703272756620682,-0.00034171782461925966,0.07993854714242431,0.0,0.0,0.0,0.0,0.0,0.0,0.0,0.0,0.0,-0.016199859313874982,0.009406834437189962,1.0072673168417745e-05,0.0,0.0,0.0,0.0,0.0,0.0,0.0,0.0,0.0
10.045,290,10,45000000,base_footprint,-0.0038535388212034044,-5.600478303592132e-05,0.9999117429224411,-0.012714301704142101,0.0,0.0,0.0,0.0,0.0,0.0,0.0,0.0,0.0,-0.0006917174707001225,-0.00014752926241442318,0.07977687490943998,0.0,0.0,0.0,0.0,0.0,0.0,0.0,0.0,0.0,0.00039985159435074213,0.016291822163210415,-0.0003742856139691855,0.0,0.0,0.0,0.0,0.0,0.0,0.0,0.0,0.0
10.082,291,10,79000000,base_footprint,-0.003853976179195656,-6.12556739537852e-05,0.9998935313522461,-0.01407370154890009,0.0,0.0,0.0,0.0,0.0,0.0,0.0,0.0,0.0,-0.0005935565222714885,-0.00011633357062968482,0.07989897105810544,0.0,0.0,0.0,0.0,0.0,0.0,0.0,0.0,0.0,0.0003451912763370334,0.017017197728584437,-0.0001558178942729009,0.0,0.0,0.0,0.0,0.0,0.0,0.0,0.0,0.0
10.114,292,10,113000000,base_footprint,-0.003855010361857666,-6.35690362737106e-05,0.9998854847032581,-0.01463394457479917,0.0,0.0,0.0,0.0,0.0,0.0,0.0,0.0,0.0,4.479906326340068e-05,-7.880822414559207e-05,-0.000324569476150368,0.0,0.0,0.0,0.0,0.0,0.0,0.0,0.0,0.0,0.021698242450100286,0.008985691727413831,5.501515642453041e-05,0.0,0.0,0.0,0.0,0.0,0.0,0.0,0.0,0.0
10.147,293,10,147000000,base_footprint,-0.003856207504581732,-6.377767809513443e-05,0.9998855753149911,-0.014627435629618877,0.0,0.0,0.0,0.0,0.0,0.0,0.0,0.0,0.0,2.8910864640645912e-05,-6.636474837788546e-05,-0.0003881003342524467,0.0,0.0,0.0,0.0,0.0,0.0,0.0,0.0,0.0,-0.0006588007243434063,-0.00017388443609750914,-8.299643900724064e-05,0.0,0.0,0.0,0.0,0.0,0.0,0.0,0.0,0.0
10.181,294,10,181000000,base_footprint,-0.0038571337872213554,-6.399624497110204e-05,0.9998856542400923,-0.014621794291078488,0.0,0.0,0.0,0.0,0.0,0.0,0.0,0.0,0.0,2.5414930415179303e-05,-2.901634806154996e-05,-0.00032243848219997535,0.0,0.0,0.0,0.0,0.0,0.0,0.0,0.0,0.0,-0.0018975089087789666,-0.0002689780981434619,-0.0001442033340904319,0.0,0.0,0.0,0.0,0.0,0.0,0.0,0.0,0.0
10.215,295,10,215000000,base_footprint,-0.003853927746304423,-6.82462034755359e-05,0.9998875870761516,-0.014489851428282753,0.0,0.0,0.0,0.0,0.0,0.0,0.0,0.0,0.0,-0.00021636830155548836,-0.0025496229750733607,-0.019194249609048322,0.0,0.0,0.0,0.0,0.0,0.0,0.0,0.0,0.0,0.05796219698031231,0.0018854503401684612,0.003588087946138337,0.0,0.0,0.0,0.0,0.0,0.0,0.0,0.0,0.0
10.249,296,10,249000000,base_footprint,-0.003847735591144013,-6.399483152773204e-05,0.9998876392244209,-0.01448791778333085,0.0,0.0,0.0,0.0,0.0,0.0,0.0,0.0,0.0,9.783056654572492e-05,-0.0011617335462915195,0.032828621510396935,0.0,0.0,0.0,0.0,0.0,0.0,0.0,0.0,0.0,0.021632019574138364,0.001864673011923832,-0.0009599796048622176,0.0,0.0,0.0,0.0,0.0,0.0,0.0,0.0,0.0
10.283,297,10,283000000,base_footprint,-0.0038481651320169973,-6.416948294376584e-05,0.9998697098402687,-0.015676442559821167,0.0,0.0,0.0,0.0,0.0,0.0,0.0,0.0,0.0,0.00022739743715737232,0.001722236262021298,0.09608118111346416,0.0,0.0,0.0,0.0,0.0,0.0,0.0,0.0,0.0,0.14388987687573326,0.02202375595564654,-0.0028062195239032493,0.0,0.0,0.0,0.0,0.0,0.0,0.0,0.0,0.0
10.323,298,10,317000000,base_footprint,-0.0038558097822330483,-7.250925906895823e-05,0.9998498204293446,-0.01689568171865647,0.0,0.0,0.0,0.0,0.0,0.0,0.0,0.0,0.0,-0.0006010443255148705,0.0002186641779006977,0.058365601061587925,0.0,0.0,0.0,0.0,0.0,0.0,0.0,0.0,0.0,0.09391647038431075,0.022490025772296165,0.002316407443865878,0.0,0.0,0.0,0.0,0.0,0.0,0.0,0.0,0.0
10.356,299,10,351000000,base_footprint,-0.0038533272584435753,-7.594561402033404e-05,0.9998324227104035,-0.017896161553480595,0.0,0.0,0.0,0.0,0.0,0.0,0.0,0.0,0.0,-0.0004800355935566824,-0.00011861855466484271,0.0587958782831393,0.0,0.0,0.0,0.0,0.0,0.0,0.0,0.0,0.0,-0.0019581184833955315,0.01272623047851009,0.0007419607739568398,0.0,0.0,0.0,0.0,0.0,0.0,0.0,0.0,0.0
10.385,300,10,385000000,base_footprint,-0.003852659406117688,-7.965603058975942e-05,0.9998140530645899,-0.018894707327045467,0.0,0.0,0.0,0.0,0.0,0.0,0.0,0.0,0.0,-0.0005017312049430831,-0.0001791449221279618,0.058717331010439265,0.0,0.0,0.0,0.0,0.0,0.0,0.0,0.0,0.0,0.0001313814752655895,0.012933561902899949,0.00014414411357297085,0.0,0.0,0.0,0.0,0.0,0.0,0.0,0.0,0.0
10.419,301,10,419000000,base_footprint,-0.0038522223507677154,-8.355564714282637e-05,0.999794214778542,-0.01991686463208821,0.0,0.0,0.0,0.0,0.0,0.0,0.0,0.0,0.0,-0.0005091756967841132,-0.0001664869547197631,0.06036952978583471,0.0,0.0,0.0,0.0,0.0,0.0,0.0,0.0,0.0,-0.00028612181133413813,0.01316594615916206,-3.535137696578859e-06,0.0,0.0,0.0,0.0,0.0,0.0,0.0,0.0,0.0
10.453,302,10,453000000,base_footprint,-0.0038520303149591397,-8.746117459216249e-05,0.9997732785426229,-0.020941483355548317,0.0,0.0,0.0,0.0,0.0,0.0,0.0,0.0,0.0,-0.0004509305689631474,-0.00018638861918983952,0.06027041380362351,0.0,0.0,0.0,0.0,0.0,0.0,0.0,0.0,0.0,0.00017634501186198905,0.013318549830042171,0.00011060686071598306,0.0,0.0,0.0,0.0,0.0,0.0,0.0,0.0,0.0
10.487,303,10,487000000,base_footprint,-0.003852110213117292,-9.137873253454182e-05,0.9997513350031054,-0.02196408560222649,0.0,0.0,0.0,0.0,0.0,0.0,0.0,0.0,0.0,-0.00043352824888138314,-0.00018980674032403156,0.0601557781695141,0.0,0.0,0.0,0.0,0.0,0.0,0.0,0.0,0.0,0.00023337946010518662,0.013274559428483292,8.965759436308093e-06,0.0,0.0,0.0,0.0,0.0,0.0,0.0,0.0,0.0
10.521,304,10,521000000,base_footprint,-0.003852511138317474,-9.47703406158039e-05,0.9997317465616897,-0.022838215631373848,0.0,0.0,0.0,0.0,0.0,0.0,0.0,0.0,0.0,-0.0003716857022130226,-0.0001561536898255836,0.05055104400475064,0.0,0.0,0.0,0.0,0.0,0.0,0.0,0.0,0.0,0.0028568696830412973,0.01167229180072059,-0.00014070522164931162,0.0,0.0,0.0,0.0,0.0,0.0,0.0,0.0,0.0
10.555,305,10,555000000,base_footprint,-0.003853191915015851,-9.809734585442433e-05,0.9997117853282638,-0.023695771030976892,0.0,0.0,0.0,0.0,0.0,0.0,0.0,0.0,0.0,-0.00035457382177997605,-0.00011297180502417402,0.050449764769056306,0.0,0.0,0.0,0.0,0.0,0.0,0.0,0.0,0.0,0.00035359530409400297,0.01120880958998581,-0.00018182665353086297,0.0,0.0,0.0,0.0,0.0,0.0,0.0,0.0,0.0
10.589,306,10,589000000,base_footprint,-0.003854149264770032,-0.00010144443215219795,0.9996911454590305,-0.024550945669847217,0.0,0.0,0.0,0.0,0.0,0.0,0.0,0.0,0.0,-0.00035259437046523685,-9.200985943818576e-05,0.05020263175436962,0.0,0.0,0.0,0.0,0.0,0.0,0.0,0.0,0.0,-0.00013057651357268593,0.011097601996792017,-9.576137770722039e-05,0.0,0.0,0.0,0.0,0.0,0.0,0.0,0.0,0.0
10.623,307,10,623000000,base_footprint,-0.0038505445228053364,-0.00010999819295838146,0.9996538714294882,-0.026024960005956214,0.0,0.0,0.0,0.0,0.0,0.0,0.0,0.0,0.0,-0.0020446407293096035,0.0006500907960058464,0.10974060325143523,0.0,0.0,0.0,0.0,0.0,0.0,0.0,0.0,0.0,-0.4778013963550659,-0.031079686996021913,-0.005639317507119622,0.0,0.0,0.0,0.0,0.0,0.0,0.0,0.0,0.0
10.669,308,10,657000000,base_footprint,-0.0038552178936187456,-0.00011214451360649612,0.9996271427456498,-0.02703146693705226,0.0,0.0,0.0,0.0,0.0,0.0,0.0,0.0,0.0,-0.0006162653183169912,0.0002421235509258915,0.045094126482035424,0.0,0.0,0.0,0.0,0.0,0.0,0.0,0.0,0.0,0.14175106224793652,0.027601087389683428,0.0022148347979483152,0.0,0.0,0.0,0.0,0.0,0.0,0.0,0.0,0.0
10.691,309,10,691000000,base_footprint,-0.003856420534886421,-0.0001151534151505852,0.9996072290288199,-0.027757925601050032,0.0,0.0,0.0,0.0,0.0,0.0,0.0,0.0,0.0,-0.000398833034834101,-0.00014314662829987697,0.03959247244644662,0.0,0.0,0.0,0.0,0.0,0.0,0.0,0.0,0.0,-0.010386149070090804,0.007924959596121833,0.0006065006791407699,0.0,0.0,0.0,0.0,0.0,0.0,0.0,0.0,0.0
10.725,310,10,725000000,base_footprint,-0.0038577249855310442,-0.0001192583629201569,0.999587007221751,-0.028476634787880702,0.0,0.0,0.0,0.0,0.0,0.0,0.0,0.0,0.0,-0.0004624334414089913,-0.00020897598433426402,0.04737316184808576,0.0,0.0,0.0,0.0,0.0,0.0,0.0,0.0,0.0,-0.018251700516775545,0.007851372528317704,9.340486940468574e-05,0.0,0.0,0.0,0.0,0.0,0.0,0.0,0.0,0.0
10.759,311,10,759000000,base_footprint,-0.003849207741408675,-0.00011731253873003495,0.9995590485828713,-0.029442795954814957,0.0,0.0,0.0,0.0,0.0,0.0,0.0,0.0,0.0,-0.00060376548737265,-1.6104222467002238e-05,0.05644468960172921,0.0,0.0,0.0,0.0,0.0,0.0,0.0,0.0,0.0,-0.024913714128951214,0.007984262567047859,-0.00030916255328628515,0.0,0.0,0.0,0.0,0.0,0.0,0.0,0.0,0.0
10.793,312,10,793000000,base_footprint,-0.0038540250231100972,-0.00012361956783049586,0.9995357491746386,-0.030222794894213558,0.0,0.0,0.0,0.0,0.0,0.0,0.0,0.0,0.0,-9.386005997568352e-05,-0.0005524017912966626,0.03977935774901448,0.0,0.0,0.0,0.0,0.0,0.0,0.0,0.0,0.0,0.03509402228345335,0.01390797884942902,0.0011828997837269593,0.0,0.0,0.0,0.0,0.0,0.0,0.0,0.0,0.0
10.827,313,10,827000000,base_footprint,-0.0038523781526507805,-0.00012630402424260636,0.9995153446393485,-0.030890436389711142,0.0,0.0,0.0,0.0,0.0,0.0,0.0,0.0,0.0,-0.0003352668130116482,-0.0001239190832707576,0.039318637855870656,0.0,0.0,0.0,0.0,0.0,0.0,0.0,0.0,0.0,0.0011736310060158298,0.008346568729752759,-0.0006632841669520379,0.0,0.0,0.0,0.0,0.0,0.0,0.0,0.0,0.0
10.861,314,10,861000000,base_footprint,-0.0038515871720676688,-0.00012863161015612992,0.9994944872097575,-0.03155818067425005,0.0,0.0,0.0,0.0,0.0,0.0,0.0,0.0,0.0,-0.0003400357952570073,-0.00015828334530336582,0.039303823303349916,0.0,0.0,0.0,0.0,0.0,0.0,0.0,0.0,0.0,-0.00012595159292434427,0.008214177798407007,0.00013856068724670662,0.0,0.0,0.0,0.0,0.0,0.0,0.0,0.0,0.0
10.895,315,10,895000000,base_footprint,-0.0038408841867330094,-0.0001298523998948251,0.9994728093985663,-0.03223870375736973,0.0,0.0,0.0,0.0,0.0,0.0,0.0,0.0,0.0,4.509146992218857e-05,-0.0020965012813142763,0.04894525108135623,0.0,0.0,0.0,0.0,0.0,0.0,0.0,0.0,0.0,0.10201234164336273,0.02129381932609781,0.003009197511192617,0.0,0.0,0.0,0.0,0.0,0.0,0.0,0.0,0.0
10.928,316,10,929000000,base_footprint,-0.0038506152538247095,-0.0001329958795715211,0.9994559541773673,-0.032755926695353495,0.0,0.0,0.0,0.0,0.0,0.0,0.0,0.0,0.0,-0.00021925195312503073,0.00014041176773709312,0.017700774261574244,0.0,0.0,0.0,0.0,0.0,0.0,0.0,0.0,0.0,0.24167932843156875,0.03894952685478328,-0.0006306182709447011,0.0,0.0,0.0,0.0,0.0,0.0,0.0,0.0,0.0
10.963000000000001,317,10,963000000,base_footprint,-0.0038508191267854295,-0.00013414000141763623,0.9994461047319468,-0.03305505913852394,0.0,0.0,0.0,0.0,0.0,0.0,0.0,0.0,0.0,-9.173837054080912e-05,-0.0001771119725759909,0.017611906587458766,0.0,0.0,0.0,0.0,0.0,0.0,0.0,0.0,0.0,0.0007881847547675961,0.003996611473032334,0.00045827145063323635,0.0,0.0,0.0,0.0,0.0,0.0,0.0,0.0,0.0
10.998,318,10,997000000,base_footprint,-0.0038511211645739746,-0.00013506673672605946,0.9994371045324391,-0.033326036466505164,0.0,0.0,0.0,0.0,0.0,0.0,0.0,0.0,0.0,-3.3040891488609925e-05,7.901816108405324e-05,0.009730230794655926,0.0,0.0,0.0,0.0,0.0,0.0,0.0,0.0,0.0,0.0028693642695047004,0.004039188429977809,-0.00030812842040433246,0.0,0.0,0.0,0.0,0.0,0.0,0.0,0.0,0.0
11.031,319,11,31000000,base_footprint,-0.0038517890870624705,-0.00013579684820808167,0.9994315886411024,-0.033490967534056254,0.0,0.0,0.0,0.0,0.0,0.0,0.0,0.0,0.0,-3.116935127068089e-05,-0.00011430898779552756,0.00973738022389481,0.0,0.0,0.0,0.0,0.0,0.0,0.0,0.0,0.0,0.0011020298892214417,0.002210705924380781,1.3970169537071034e-05,0.0,0.0,0.0,0.0,0.0,0.0,0.0,0.0,0.0
11.065,320,11,65000000,base_footprint,-0.003852398961377011,-0.00013645681074462445,0.9994260465524973,-0.033655874290037684,0.0,0.0,0.0,0.0,0.0,0.0,0.0,0.0,0.0,-1.8426304175270007e-05,-9.821046117979595e-05,0.009627482098650617,0.0,0.0,0.0,0.0,0.0,0.0,0.0,0.0,0.0,0.0016639264222893786,0.0022599363461466133,-6.868073190255606e-05,0.0,0.0,0.0,0.0,0.0,0.0,0.0,0.0,0.0
11.099,321,11,99000000,base_footprint,-0.0038510393009184396,-0.00013509448911450326,0.9994173310492355,-0.03391385622728077,0.0,0.0,0.0,0.0,0.0,0.0,0.0,0.0,0.0,-0.00014100131919921423,6.950608570886459e-05,0.04986280652402683,0.0,0.0,0.0,0.0,0.0,0.0,0.0,0.0,0.0,-0.11614873142480839,-0.012833743026006598,-0.0006552999632054122,0.0,0.0,0.0,0.0,0.0,0.0,0.0,0.0,0.0
11.133,322,11,133000000,base_footprint,-0.003854885265529301,-0.00014515916590649434,0.9993476609217185,-0.03590781807206196,0.0,0.0,0.0,0.0,0.0,0.0,0.0,0.0,0.0,-0.0008854584529842009,-0.0002297992852302455,0.14646416071404067,0.0,0.0,0.0,0.0,0.0,0.0,0.0,0.0,0.0,-0.26647747008434014,-0.013425041982096217,-0.0025237206746411014,0.0,0.0,0.0,0.0,0.0,0.0,0.0,0.0,0.0
11.167,323,11,167000000,base_footprint,-0.003855209324561324,-0.0001552272956225817,0.9992548061935714,-0.03840502004424194,0.0,0.0,0.0,0.0,0.0,0.0,0.0,0.0,0.0,-0.001251269077437655,-0.000394444259282114,0.14362093158285585,0.0,0.0,0.0,0.0,0.0,0.0,0.0,0.0,0.0,-0.01245318745746904,0.02852455954370468,0.00031301235421532953,0.0,0.0,0.0,0.0,0.0,0.0,0.0,0.0,0.0
11.2,324,11,201000000,base_footprint,-0.0038501570585519644,-0.0001705847083073727,0.9991535466353563,-0.04095531024752226,0.0,0.0,0.0,0.0,0.0,0.0,0.0,0.0,0.0,-0.0011472674253243825,-0.0006294138131246672,0.16654887924085107,0.0,0.0,0.0,0.0,0.0,0.0,0.0,0.0,0.0,0.04580206339563112,0.0362670764627564,0.0012681919321979246,0.0,0.0,0.0,0.0,0.0,0.0,0.0,0.0,0.0
11.235,325,11,235000000,base_footprint,-0.0038463120817959495,-0.00017510658398597466,0.999004054110833,-0.04445306616166794,0.0,0.0,0.0,0.0,0.0,0.0,0.0,0.0,0.0,-0.0013952345383648338,-0.0007028033456887699,0.22499373486405316,0.0,0.0,0.0,0.0,0.0,0.0,0.0,0.0,0.0,0.026008340080006485,0.050561385174485406,0.0001951832749212981,0.0,0.0,0.0,0.0,0.0,0.0,0.0,0.0,0.0
11.269,326,11,269000000,base_footprint,-0.0038447027343029875,-0.00018913990251946008,0.9988298561048463,-0.04820893112851849,0.0,0.0,0.0,0.0,0.0,0.0,0.0,0.0,0.0,-0.0015131721017268944,-0.0003092364921484685,0.2100183159853411,0.0,0.0,0.0,0.0,0.0,0.0,0.0,0.0,0.0,0.0321169482703945,0.05369501962700635,-0.0004974716977499502,0.0,0.0,0.0,0.0,0.0,0.0,0.0,0.0,0.0
