Time,header.seq,header.stamp.secs,header.stamp.nsecs,header.frame_id,orientation.x,orientation.y,orientation.z,orientation.w,orientation_covariance_0,orientation_covariance_1,orientation_covariance_2,orientation_covariance_3,orientation_covariance_4,orientation_covariance_5,orientation_covariance_6,orientation_covariance_7,orientation_covariance_8,angular_velocity.x,angular_velocity.y,angular_velocity.z,angular_velocity_covariance_0,angular_velocity_covariance_1,angular_velocity_covariance_2,angular_velocity_covariance_3,angular_velocity_covariance_4,angular_velocity_covariance_5,angular_velocity_covariance_6,angular_velocity_covariance_7,angular_velocity_covariance_8,linear_acceleration.x,linear_acceleration.y,linear_acceleration.z,linear_acceleration_covariance_0,linear_acceleration_covariance_1,linear_acceleration_covariance_2,linear_acceleration_covariance_3,linear_acceleration_covariance_4,linear_acceleration_covariance_5,linear_acceleration_covariance_6,linear_acceleration_covariance_7,linear_acceleration_covariance_8
0.17600000000000002,0,0,175000000,base_footprint,0.00069295252057133,-1.9364976082167145e-05,0.999999758633229,4.663996009316956e-05,0.0,0.0,0.0,0.0,0.0,0.0,0.0,0.0,0.0,-0.00028353994013672934,0.04757869564551238,2.854038381846281e-06,0.0,0.0,0.0,0.0,0.0,0.0,0.0,0.0,0.0,-9.712909655729595e-06,1.7471933104558228e-06,-0.057681759387261756,0.0,0.0,0.0,0.0,0.0,0.0,0.0,0.0,0.0
0.20800000000000002,1,0,209000000,base_footprint,-0.00015616587344650828,-2.5679599509518837e-05,0.99999998638869,4.6641162840674094e-05,0.0,0.0,0.0,0.0,0.0,0.0,0.0,0.0,0.0,-0.0006437755064517817,0.06941556629217124,-9.110677538294452e-06,0.0,0.0,0.0,0.0,0.0,0.0,0.0,0.0,0.0,-0.0008757025593453199,-3.29027313384142e-05,0.0066000894078523265,0.0,0.0,0.0,0.0,0.0,0.0,0.0,0.0,0.0
0.24300000000000002,2,0,243000000,base_footprint,-0.001312290624564281,-3.3127899800827357e-05,0.9999991373145682,4.654007243944294e-05,0.0,0.0,0.0,0.0,0.0,0.0,0.0,0.0,0.0,-0.0004204622687042635,0.06774535925152964,7.247619064671433e-06,0.0,0.0,0.0,0.0,0.0,0.0,0.0,0.0,0.0,0.00028092082358521526,3.337139928769503e-05,-0.00368361110315269,0.0,0.0,0.0,0.0,0.0,0.0,0.0,0.0,0.0
0.277,3,0,277000000,base_footprint,-0.002465385927470567,-4.0589956989397457e-05,0.999996959029699,4.6433162390461423e-05,0.0,0.0,0.0,0.0,0.0,0.0,0.0,0.0,0.0,-0.0004209295053967724,0.06766856712432985,8.373224885186547e-06,0.0,0.0,0.0,0.0,0.0,0.0,0.0,0.0,0.0,-0.00029485751364368616,2.307785171781726e-07,0.00015060561574212723,0.0,0.0,0.0,0.0,0.0,0.0,0.0,0.0,0.0
0.311,4,0,311000000,base_footprint,-0.0036171800562454608,-4.8059230266588696e-05,0.9999934557557447,4.6308038761274116e-05,0.0,0.0,0.0,0.0,0.0,0.0,0.0,0.0,0.0,-0.00042141717872377693,0.0675923968076553,9.383828448654284e-06,0.0,0.0,0.0,0.0,0.0,0.0,0.0,0.0,0.0,-0.00029474972434439595,7.034853629959773e-09,0.0001494118691027851,0.0,0.0,0.0,0.0,0.0,0.0,0.0,0.0,0.0
0.34500000000000003,5,0,345000000,base_footprint,-0.0038458541809297834,-5.958779139499641e-06,0.9999926034986851,4.8145961248824334e-05,0.0,0.0,0.0,0.0,0.0,0.0,0.0,0.0,0.0,0.0005045182982392017,0.01828427850004464,-0.00019188003441574118,0.0,0.0,0.0,0.0,0.0,0.0,0.0,0.0,0.0,-0.0003114612077617153,-0.00036725201330916344,0.1116715383962527,0.0,0.0,0.0,0.0,0.0,0.0,0.0,0.0,0.0
0.378,6,0,379000000,base_footprint,-0.003853307689695691,-6.882441188742246e-06,0.9999925747917244,4.831043486709823e-05,0.0,0.0,0.0,0.0,0.0,0.0,0.0,0.0,0.0,4.0820268803439826e-05,-0.000319975828706027,7.111497512830081e-06,0.0,0.0,0.0,0.0,0.0,0.0,0.0,0.0,0.0,0.00032981784381808733,0.00037970547745448836,0.02035935971801279,0.0,0.0,0.0,0.0,0.0,0.0,0.0,0.0,0.0
0.41400000000000003,7,0,413000000,base_footprint,-0.0038530971260985806,-6.875444034562055e-06,0.9999925756095297,4.817763175812967e-05,0.0,0.0,0.0,0.0,0.0,0.0,0.0,0.0,0.0,3.869185892557032e-05,-0.0001787151960679374,9.474381707309101e-06,0.0,0.0,0.0,0.0,0.0,0.0,0.0,0.0,0.0,-3.5777013421755836e-06,4.566702105567271e-06,-0.00016507465289983318,0.0,0.0,0.0,0.0,0.0,0.0,0.0,0.0,0.0
0.448,8,0,447000000,base_footprint,-0.0038531017878406042,-6.876166625208534e-06,0.9999925755988047,4.802707452296252e-05,0.0,0.0,0.0,0.0,0.0,0.0,0.0,0.0,0.0,3.87112415631522e-05,-0.000180425302325248,9.814586414325378e-06,0.0,0.0,0.0,0.0,0.0,0.0,0.0,0.0,0.0,-6.381932097282701e-08,6.621903168564919e-07,1.9111942293236968e-06,0.0,0.0,0.0,0.0,0.0,0.0,0.0,0.0,0.0
0.48100000000000004,9,0,481000000,base_footprint,-0.003853101631613399,-6.876804232042273e-06,0.9999925756067474,4.787389636826462e-05,0.0,0.0,0.0,0.0,0.0,0.0,0.0,0.0,0.0,3.871138509808782e-05,-0.00018041146567204005,9.866803031482634e-06,0.0,0.0,0.0,0.0,0.0,0.0,0.0,0.0,0.0,-1.5528113449037465e-08,1.015689838847515e-07,-2.1328323695327362e-08,0.0,0.0,0.0,0.0,0.0,0.0,0.0,0.0,0.0
0.515,10,0,515000000,base_footprint,-0.0038531016266091594,-6.877436757719288e-06,0.9999925756141023,4.772033088387965e-05,0.0,0.0,0.0,0.0,0.0,0.0,0.0,0.0,0.0,3.871164059606089e-05,-0.00018041024638287625,9.874227595217464e-06,0.0,0.0,0.0,0.0,0.0,0.0,0.0,0.0,0.0,-2.1995150204139878e-09,1.4441989871839036e-08,-1.9119771861628662e-09,0.0,0.0,0.0,0.0,0.0,0.0,0.0,0.0,0.0
0.549,11,0,549000000,base_footprint,-0.003853101624983529,-6.878066112894432e-06,0.9999925756214233,4.7566708630290845e-05,0.0,0.0,0.0,0.0,0.0,0.0,0.0,0.0,0.0,3.8711891431020535e-05,-0.00018041013161325606,9.875196843021706e-06,0.0,0.0,0.0,0.0,0.0,0.0,0.0,0.0,0.0,-2.914905135110128e-10,1.8849247571372886e-09,-1.7344074659485657e-10,0.0,0.0,0.0,0.0,0.0,0.0,0.0,0.0,0.0
0.5840000000000001,12,0,583000000,base_footprint,-0.0038531016242206186,-6.878693004134823e-06,0.9999925756287179,4.74130777055085e-05,0.0,0.0,0.0,0.0,0.0,0.0,0.0,0.0,0.0,3.871213218212814e-05,-0.0001804100911229581,9.875239380822278e-06,0.0,0.0,0.0,0.0,0.0,0.0,0.0,0.0,0.0,-1.9411905452358793e-11,8.21019246144819e-11,-1.090629917948481e-11,0.0,0.0,0.0,0.0,0.0,0.0,0.0,0.0,0.0
0.617,13,0,617000000,base_footprint,-0.00385310162356676,-6.879317659885367e-06,0.9999925756359886,4.7259445137554945e-05,0.0,0.0,0.0,0.0,0.0,0.0,0.0,0.0,0.0,3.87123655975892e-05,-0.00018041006485784405,9.875162101259297e-06,0.0,0.0,0.0,0.0,0.0,0.0,0.0,0.0,0.0,1.584637115592947e-11,-1.5110604262444501e-10,1.4762701702118162e-11,0.0,0.0,0.0,0.0,0.0,0.0,0.0,0.0,0.0
0.654,14,0,651000000,base_footprint,-0.0038531016229203124,-6.8799402327716676e-06,0.9999925756432356,4.7105811963441324e-05,0.0,0.0,0.0,0.0,0.0,0.0,0.0,0.0,0.0,3.871259240614808e-05,-0.00018041004014985126,9.875082865233389e-06,0.0,0.0,0.0,0.0,0.0,0.0,0.0,0.0,0.0,1.6428103126416697e-11,-1.5504277474106623e-10,1.6394859608322e-11,0.0,0.0,0.0,0.0,0.0,0.0,0.0,0.0,0.0
0.686,15,0,685000000,base_footprint,-0.0038531016222662345,-6.880560856630306e-06,0.9999925756504593,4.695217833683558e-05,0.0,0.0,0.0,0.0,0.0,0.0,0.0,0.0,0.0,3.871281279224895e-05,-0.00018041001519165784,9.87501736203646e-06,0.0,0.0,0.0,0.0,0.0,0.0,0.0,0.0,0.0,1.2393474246547398e-11,-1.2845200296979897e-10,1.4718372397936077e-11,0.0,0.0,0.0,0.0,0.0,0.0,0.0,0.0,0.0
0.7190000000000001,16,0,719000000,base_footprint,-0.003853101621603283,-6.88117965549325e-06,0.9999925756576592,4.679854428203559e-05,0.0,0.0,0.0,0.0,0.0,0.0,0.0,0.0,0.0,3.871302743763098e-05,-0.00018040998985707833,9.874966437035167e-06,0.0,0.0,0.0,0.0,0.0,0.0,0.0,0.0,0.0,8.111301595455418e-12,-1.0020409237468318e-10,1.2888990727582736e-11,0.0,0.0,0.0,0.0,0.0,0.0,0.0,0.0,0.0
0.754,17,0,753000000,base_footprint,-0.0038531016209315382,-6.881796745074907e-06,0.9999925756648357,4.66449098021322e-05,0.0,0.0,0.0,0.0,0.0,0.0,0.0,0.0,0.0,3.871323659949909e-05,-0.0001804099641587421,9.87493036027829e-06,0.0,0.0,0.0,0.0,0.0,0.0,0.0,0.0,0.0,3.7522550643158965e-12,-7.14285806426435e-11,1.0774711088684206e-11,0.0,0.0,0.0,0.0,0.0,0.0,0.0,0.0,0.0
0.787,18,0,787000000,base_footprint,-0.0038531016202517044,-6.882412233272467e-06,0.9999925756719886,4.6491274907320547e-05,0.0,0.0,0.0,0.0,0.0,0.0,0.0,0.0,0.0,3.871344067909686e-05,-0.00018040993801721458,9.874908151881806e-06,0.0,0.0,0.0,0.0,0.0,0.0,0.0,0.0,0.0,-3.235279501108636e-13,-4.455031151486792e-11,9.140186752855884e-12,0.0,0.0,0.0,0.0,0.0,0.0,0.0,0.0,0.0
0.8220000000000001,19,0,821000000,base_footprint,-0.0038531016195643172,-6.88302622717882e-06,0.9999925756791179,4.633763960257428e-05,0.0,0.0,0.0,0.0,0.0,0.0,0.0,0.0,0.0,3.8713640240599855e-05,-0.00018040991149316334,9.874898382185474e-06,0.0,0.0,0.0,0.0,0.0,0.0,0.0,0.0,0.0,-3.977771723093962e-12,-2.044327531463447e-11,7.402722399242847e-12,0.0,0.0,0.0,0.0,0.0,0.0,0.0,0.0,0.0
0.8550000000000001,20,0,855000000,base_footprint,-0.0038531016188693436,-6.88363882279501e-06,0.9999925756862239,4.618400389240617e-05,0.0,0.0,0.0,0.0,0.0,0.0,0.0,0.0,0.0,3.871383655396445e-05,-0.0001804098846141195,9.874901709638142e-06,0.0,0.0,0.0,0.0,0.0,0.0,0.0,0.0,0.0,-7.823958970124713e-12,4.9639641529513285e-12,6.191315893607788e-12,0.0,0.0,0.0,0.0,0.0,0.0,0.0,0.0,0.0
0.889,21,0,889000000,base_footprint,-0.003853101618167748,-6.8842501032125615e-06,0.999992575693306,4.603036777668418e-05,0.0,0.0,0.0,0.0,0.0,0.0,0.0,0.0,0.0,3.871402865445868e-05,-0.00018040985735980858,9.874915927639783e-06,0.0,0.0,0.0,0.0,0.0,0.0,0.0,0.0,0.0,-1.1024730576175513e-11,2.6065904566247756e-11,4.559268368525534e-12,0.0,0.0,0.0,0.0,0.0,0.0,0.0,0.0,0.0
0.923,22,0,923000000,base_footprint,-0.003853101617459789,-6.8848601520198996e-06,0.9999925757003648,4.587673125942524e-05,0.0,0.0,0.0,0.0,0.0,0.0,0.0,0.0,0.0,3.871421681383104e-05,-0.00018040982995918108,9.87494099380318e-06,0.0,0.0,0.0,0.0,0.0,0.0,0.0,0.0,0.0,-1.4208271519246783e-11,4.709248913807483e-11,3.4867753997404208e-12,0.0,0.0,0.0,0.0,0.0,0.0,0.0,0.0,0.0
0.9580000000000001,23,0,957000000,base_footprint,-0.0038531016167458157,-6.885469047016989e-06,0.9999925757074,4.572309433925587e-05,0.0,0.0,0.0,0.0,0.0,0.0,0.0,0.0,0.0,3.871440132448513e-05,-0.0001804098020885314,9.874975802345147e-06,0.0,0.0,0.0,0.0,0.0,0.0,0.0,0.0,0.0,-1.7073391788211567e-11,6.597234525932494e-11,1.8238526276521895e-12,0.0,0.0,0.0,0.0,0.0,0.0,0.0,0.0,0.0
0.9960000000000001,24,0,991000000,base_footprint,-0.003853101616026175,-6.886076861633201e-06,0.9999925757144116,4.556945701667036e-05,0.0,0.0,0.0,0.0,0.0,0.0,0.0,0.0,0.0,3.871458234244031e-05,-0.00018040977407423115,9.875019299248336e-06,0.0,0.0,0.0,0.0,0.0,0.0,0.0,0.0,0.0,-1.962365431183675e-11,8.280748576430712e-11,7.605955601233595e-13,0.0,0.0,0.0,0.0,0.0,0.0,0.0,0.0,0.0
1.025,25,1,25000000,base_footprint,-0.0038531016153014555,-6.886683664530012e-06,0.9999925757213995,4.5415819299195413e-05,0.0,0.0,0.0,0.0,0.0,0.0,0.0,0.0,0.0,3.8714760146271634e-05,-0.0001804097457408837,9.875072289794964e-06,0.0,0.0,0.0,0.0,0.0,0.0,0.0,0.0,0.0,-2.2414071632311405e-11,1.0120832815916663e-10,-4.3879488457303214e-13,0.0,0.0,0.0,0.0,0.0,0.0,0.0,0.0,0.0
1.059,26,1,59000000,base_footprint,-0.0038531016145716985,-6.887289519434995e-06,0.9999925757283641,4.5262181186748894e-05,0.0,0.0,0.0,0.0,0.0,0.0,0.0,0.0,0.0,3.8714934995949495e-05,-0.00018040971706796433,9.875132426192224e-06,0.0,0.0,0.0,0.0,0.0,0.0,0.0,0.0,0.0,-2.451607194716686e-11,1.1505424164448175e-10,-1.6327275381906088e-12,0.0,0.0,0.0,0.0,0.0,0.0,0.0,0.0,0.0
1.093,27,1,93000000,base_footprint,-0.0038531016138374716,-6.887894487191035e-06,0.9999925757353051,4.5108542677951556e-05,0.0,0.0,0.0,0.0,0.0,0.0,0.0,0.0,0.0,3.8715106794142293e-05,-0.00018040968832033497,9.875200735323515e-06,0.0,0.0,0.0,0.0,0.0,0.0,0.0,0.0,0.0,-2.6914155275764973e-11,1.3089284989180682e-10,-2.4669739445363123e-12,0.0,0.0,0.0,0.0,0.0,0.0,0.0,0.0,0.0
1.127,28,1,127000000,base_footprint,-0.0038531016130990093,-6.888498623804037e-06,0.9999925757422224,4.4954903786155755e-05,0.0,0.0,0.0,0.0,0.0,0.0,0.0,0.0,0.0,3.8715276041459694e-05,-0.00018040965941265165,9.875276063959063e-06,0.0,0.0,0.0,0.0,0.0,0.0,0.0,0.0,0.0,-2.897558206421766e-11,1.444970525821213e-10,-3.2678423016262375e-12,0.0,0.0,0.0,0.0,0.0,0.0,0.0,0.0,0.0
1.161,29,1,161000000,base_footprint,-0.003853101612356232,-6.889101981995312e-06,0.9999925757491162,4.480126449460828e-05,0.0,0.0,0.0,0.0,0.0,0.0,0.0,0.0,0.0,3.8715442849981794e-05,-0.0001804096301751817,9.875358079580852e-06,0.0,0.0,0.0,0.0,0.0,0.0,0.0,0.0,0.0,-3.0942747541106984e-11,1.5745745346805538e-10,-4.375684989441384e-12,0.0,0.0,0.0,0.0,0.0,0.0,0.0,0.0,0.0
1.196,30,1,195000000,base_footprint,-0.0038531016116101005,-6.889704611354963e-06,0.9999925757559864,4.4647624820769486e-05,0.0,0.0,0.0,0.0,0.0,0.0,0.0,0.0,0.0,3.871560724041791e-05,-0.00018040960085296084,9.875445457230647e-06,0.0,0.0,0.0,0.0,0.0,0.0,0.0,0.0,0.0,-3.251666782576457e-11,1.6784248423034049e-10,-5.09007361470153e-12,0.0,0.0,0.0,0.0,0.0,0.0,0.0,0.0,0.0
1.229,31,1,229000000,base_footprint,-0.0038531016108608223,-6.890306557616094e-06,0.9999925757628331,4.449398478220186e-05,0.0,0.0,0.0,0.0,0.0,0.0,0.0,0.0,0.0,3.8715769505730164e-05,-0.00018040957125530575,9.875538031922393e-06,0.0,0.0,0.0,0.0,0.0,0.0,0.0,0.0,0.0,-3.404592949879649e-11,1.7791098916707446e-10,-5.987916356387654e-12,0.0,0.0,0.0,0.0,0.0,0.0,0.0,0.0,0.0
1.263,32,1,263000000,base_footprint,-0.0038531016101074926,-6.890907864562673e-06,0.9999925757696562,4.434034436521607e-05,0.0,0.0,0.0,0.0,0.0,0.0,0.0,0.0,0.0,3.8715929695463305e-05,-0.00018040954158925234,9.87563730967585e-06,0.0,0.0,0.0,0.0,0.0,0.0,0.0,0.0,0.0,-3.6013168304298906e-11,1.9090838465086925e-10,-6.544629656524484e-12,0.0,0.0,0.0,0.0,0.0,0.0,0.0,0.0,0.0
1.295,33,1,297000000,base_footprint,-0.0038531016093513587,-6.891508572922783e-06,0.9999925757764556,4.418670356838959e-05,0.0,0.0,0.0,0.0,0.0,0.0,0.0,0.0,0.0,3.871608792674461e-05,-0.0001804095117207757,9.875741800576309e-06,0.0,0.0,0.0,0.0,0.0,0.0,0.0,0.0,0.0,-3.7546156694207865e-11,2.010103333604269e-10,-7.312068566293334e-12,0.0,0.0,0.0,0.0,0.0,0.0,0.0,0.0,0.0
1.33,34,1,331000000,base_footprint,-0.003853101608591951,-6.892108720724745e-06,0.9999925757832316,4.4033062387848336e-05,0.0,0.0,0.0,0.0,0.0,0.0,0.0,0.0,0.0,3.8716244479607294e-05,-0.0001804094818701553,9.87585178364275e-06,0.0,0.0,0.0,0.0,0.0,0.0,0.0,0.0,0.0,-3.915603202452511e-11,2.116591331234903e-10,-7.777621501729289e-12,0.0,0.0,0.0,0.0,0.0,0.0,0.0,0.0,0.0
1.363,35,1,365000000,base_footprint,-0.003853101607829954,-6.8927083433922385e-06,0.9999925757899839,4.387942082897778e-05,0.0,0.0,0.0,0.0,0.0,0.0,0.0,0.0,0.0,3.871639919990095e-05,-0.00018040945168239892,9.87596482957222e-06,0.0,0.0,0.0,0.0,0.0,0.0,0.0,0.0,0.0,-4.006124575076946e-11,2.1758675088163985e-10,-8.559154225000352e-12,0.0,0.0,0.0,0.0,0.0,0.0,0.0,0.0,0.0
1.3860000000000001,36,1,399000000,base_footprint,-0.0038531016070654576,-6.893307474323678e-06,0.9999925757967129,4.372577889412638e-05,0.0,0.0,0.0,0.0,0.0,0.0,0.0,0.0,0.0,3.8716552405256954e-05,-0.00018040942140272418,9.87608226806578e-06,0.0,0.0,0.0,0.0,0.0,0.0,0.0,0.0,0.0,-4.135147122302166e-11,2.2609968452745976e-10,-9.092533035406335e-12,0.0,0.0,0.0,0.0,0.0,0.0,0.0,0.0,0.0
1.4340000000000002,37,1,433000000,base_footprint,-0.0038531016062983833,-6.8939061449383715e-06,0.9999925758034179,4.3572136583015645e-05,0.0,0.0,0.0,0.0,0.0,0.0,0.0,0.0,0.0,3.871670418107852e-05,-0.0001804093910541926,9.876204434773194e-06,0.0,0.0,0.0,0.0,0.0,0.0,0.0,0.0,0.0,-4.273937931648219e-11,2.3526768839764187e-10,-9.612631280377667e-12,0.0,0.0,0.0,0.0,0.0,0.0,0.0,0.0,0.0
1.468,38,1,467000000,base_footprint,-0.003853101605529065,-6.8945043845349196e-06,0.9999925758100997,4.341849389529801e-05,0.0,0.0,0.0,0.0,0.0,0.0,0.0,0.0,0.0,3.871685453116451e-05,-0.00018040936073560624,9.876329566474605e-06,0.0,0.0,0.0,0.0,0.0,0.0,0.0,0.0,0.0,-4.360797486043191e-11,2.410099885833254e-10,-9.879341653412452e-12,0.0,0.0,0.0,0.0,0.0,0.0,0.0,0.0,0.0
1.501,39,1,501000000,base_footprint,-0.003853101604757536,-6.895102220089355e-06,0.9999925758167576,4.3264850832560566e-05,0.0,0.0,0.0,0.0,0.0,0.0,0.0,0.0,0.0,3.8717003575521907e-05,-0.00018040933003988545,9.876458506831444e-06,0.0,0.0,0.0,0.0,0.0,0.0,0.0,0.0,0.0,-4.473328003069535e-11,2.483912775488778e-10,-1.0723978851615331e-11,0.0,0.0,0.0,0.0,0.0,0.0,0.0,0.0,0.0
1.533,40,1,535000000,base_footprint,-0.0038531016039839976,-6.895699677605184e-06,0.9999925758233921,4.3111207395632014e-05,0.0,0.0,0.0,0.0,0.0,0.0,0.0,0.0,0.0,3.871715142971952e-05,-0.00018040929947329878,9.876590838514981e-06,0.0,0.0,0.0,0.0,0.0,0.0,0.0,0.0,0.0,-4.572377298567813e-11,2.5496477460525627e-10,-1.094723411281748e-11,0.0,0.0,0.0,0.0,0.0,0.0,0.0,0.0,0.0
1.569,41,1,569000000,base_footprint,-0.0038531016032085728,-6.896296780975749e-06,0.9999925758300029,4.29575635831601e-05,0.0,0.0,0.0,0.0,0.0,0.0,0.0,0.0,0.0,3.8717298234244757e-05,-0.00018040926870833575,9.876725648750525e-06,0.0,0.0,0.0,0.0,0.0,0.0,0.0,0.0,0.0,-4.6455657602639644e-11,2.597681992777984e-10,-1.1297098475837e-11,0.0,0.0,0.0,0.0,0.0,0.0,0.0,0.0,0.0
1.6030000000000002,42,1,603000000,base_footprint,-0.0038531016024314904,-6.896893552681108e-06,0.9999925758365903,4.280391940001581e-05,0.0,0.0,0.0,0.0,0.0,0.0,0.0,0.0,0.0,3.871744382455946e-05,-0.00018040923792684985,9.876863917846205e-06,0.0,0.0,0.0,0.0,0.0,0.0,0.0,0.0,0.0,-4.747097847138934e-11,2.664706457925116e-10,-1.1645194352819624e-11,0.0,0.0,0.0,0.0,0.0,0.0,0.0,0.0,0.0
1.638,43,1,637000000,base_footprint,-0.003853101601652625,-6.897490014476685e-06,0.9999925758431539,4.265027484135548e-05,0.0,0.0,0.0,0.0,0.0,0.0,0.0,0.0,0.0,3.871758840437824e-05,-0.00018040920702286876,9.877004697103372e-06,0.0,0.0,0.0,0.0,0.0,0.0,0.0,0.0,0.0,-4.8209193603012605e-11,2.713353378586016e-10,-1.206065457291383e-11,0.0,0.0,0.0,0.0,0.0,0.0,0.0,0.0,0.0
1.671,44,1,671000000,base_footprint,-0.0038531016008721587,-6.8980861854267244e-06,0.9999925758496943,4.249662991028573e-05,0.0,0.0,0.0,0.0,0.0,0.0,0.0,0.0,0.0,3.871773214538846e-05,-0.0001804091761486808,9.87714810392893e-06,0.0,0.0,0.0,0.0,0.0,0.0,0.0,0.0,0.0,-4.8979013605973764e-11,2.76428897151718e-10,-1.2323127817658537e-11,0.0,0.0,0.0,0.0,0.0,0.0,0.0,0.0,0.0
1.705,45,1,705000000,base_footprint,-0.0038481244731512795,-6.864257146176113e-06,0.999992595060325,4.141784930756318e-05,0.0,0.0,0.0,0.0,0.0,0.0,0.0,0.0,0.0,-3.108526935899887e-06,0.0017336776955448874,9.268665580931716e-05,0.0,0.0,0.0,0.0,0.0,0.0,0.0,0.0,0.0,0.2019072658389132,0.00014317752160759628,-0.0009071630610300226,0.0,0.0,0.0,0.0,0.0,0.0,0.0,0.0,0.0
1.739,46,1,739000000,base_footprint,-0.003849030631695871,-6.9388759419117145e-06,0.9999925915622165,4.166209819264198e-05,0.0,0.0,0.0,0.0,0.0,0.0,0.0,0.0,0.0,-5.7554160124128e-05,0.00038641496177847714,-2.919227437586433e-05,0.0,0.0,0.0,0.0,0.0,0.0,0.0,0.0,0.0,0.7870557600201683,-0.0003029989672506979,0.007416331399417108,0.0,0.0,0.0,0.0,0.0,0.0,0.0,0.0,0.0
1.7690000000000001,47,1,773000000,base_footprint,-0.0038495408719378555,-7.0260044075375124e-06,0.9999925895363113,4.310652974676155e-05,0.0,0.0,0.0,0.0,0.0,0.0,0.0,0.0,0.0,-6.488170751496044e-05,-0.00015006393935084546,-0.00011183806679762128,0.0,0.0,0.0,0.0,0.0,0.0,0.0,0.0,0.0,0.7874335389497336,-0.00022846788917097,0.006822114401867483,0.0,0.0,0.0,0.0,0.0,0.0,0.0,0.0,0.0
1.807,48,1,807000000,base_footprint,-0.003850165839923234,-7.127168492299694e-06,0.999992586993297,4.615909713686952e-05,0.0,0.0,0.0,0.0,0.0,0.0,0.0,0.0,0.0,-3.8661273934692185e-05,-0.0005401720558470927,-0.00023743633235363847,0.0,0.0,0.0,0.0,0.0,0.0,0.0,0.0,0.0,0.7835191010166679,-0.0003158104041949063,0.006665227035778425,0.0,0.0,0.0,0.0,0.0,0.0,0.0,0.0,0.0
1.843,49,1,841000000,base_footprint,-0.0038513956336787055,-7.20599041505253e-06,0.9999925819895119,5.1630379084930254e-05,0.0,0.0,0.0,0.0,0.0,0.0,0.0,0.0,0.0,-4.7534576975729044e-05,-0.0004999619401888128,-0.000426340435468586,0.0,0.0,0.0,0.0,0.0,0.0,0.0,0.0,0.0,0.765033404211168,-0.0004458778495891188,0.005825241907103092,0.0,0.0,0.0,0.0,0.0,0.0,0.0,0.0,0.0
1.875,50,1,875000000,base_footprint,-0.003852700722816398,-7.3131161904514465e-06,0.9999925764355325,6.097117621656267e-05,0.0,0.0,0.0,0.0,0.0,0.0,0.0,0.0,0.0,4.759130375487185e-06,-0.0006950243452601742,-0.0007214456838779387,0.0,0.0,0.0,0.0,0.0,0.0,0.0,0.0,0.0,0.7217903972230465,-0.0006601749962012785,0.005912520506720218,0.0,0.0,0.0,0.0,0.0,0.0,0.0,0.0,0.0
1.909,51,1,909000000,base_footprint,-0.0038543785253491404,-7.541345760499142e-06,0.9999925689552395,7.578662433785904e-05,0.0,0.0,0.0,0.0,0.0,0.0,0.0,0.0,0.0,3.338657395611818e-05,-0.0005572876928008336,-0.0010681857358925833,0.0,0.0,0.0,0.0,0.0,0.0,0.0,0.0,0.0,0.6381196393281844,-0.0007695036891482695,0.00477503397610252,0.0,0.0,0.0,0.0,0.0,0.0,0.0,0.0,0.0
1.944,52,1,943000000,base_footprint,-0.0038565250493021023,-8.165218690201894e-06,0.9999925589191416,9.619885897124286e-05,0.0,0.0,0.0,0.0,0.0,0.0,0.0,0.0,0.0,4.210161817040939e-05,-4.1046886249022425e-05,-0.0013361916219202814,0.0,0.0,0.0,0.0,0.0,0.0,0.0,0.0,0.0,0.5055741183981104,-0.0006175955274827386,0.003217822692484792,0.0,0.0,0.0,0.0,0.0,0.0,0.0,0.0,0.0
1.976,53,1,977000000,base_footprint,-0.0038584226502382224,-7.711788148266218e-06,0.999992550015778,0.00011148148769615193,0.0,0.0,0.0,0.0,0.0,0.0,0.0,0.0,0.0,8.354963618991388e-05,-7.816569880818196e-05,-0.00047131930906298976,0.0,0.0,0.0,0.0,0.0,0.0,0.0,0.0,0.0,0.3320651234564481,0.0016065975531467562,0.002619186349586828,0.0,0.0,0.0,0.0,0.0,0.0,0.0,0.0,0.0
2.011,54,2,11000000,base_footprint,-0.003854908921633581,-7.886691310149485e-06,0.9999925526071204,0.00018532485453702166,0.0,0.0,0.0,0.0,0.0,0.0,0.0,0.0,0.0,0.0006464609971951903,0.0005559543770193958,-0.013595637181649654,0.0,0.0,0.0,0.0,0.0,0.0,0.0,0.0,0.0,0.04675200537193452,-0.0015548995861206405,-0.0015717798155467635,0.0,0.0,0.0,0.0,0.0,0.0,0.0,0.0,0.0
2.045,55,2,45000000,base_footprint,-0.003850162398650513,-2.4530685414225254e-06,0.9999925342696946,0.0003280980957014932,0.0,0.0,0.0,0.0,0.0,0.0,0.0,0.0,0.0,0.0005636118259540878,-0.00012537382462847512,-0.008643529902077103,0.0,0.0,0.0,0.0,0.0,0.0,0.0,0.0,0.0,-0.03722336513692569,0.0025827873644607494,0.001486033122544804,0.0,0.0,0.0,0.0,0.0,0.0,0.0,0.0,0.0
2.078,56,2,79000000,base_footprint,-0.0038475564755514496,-1.5149802565524104e-06,0.9999921895918507,0.0009039149122781222,0.0,0.0,0.0,0.0,0.0,0.0,0.0,0.0,0.0,0.00011964059975357573,-0.0010063616731152741,-0.06688606477282626,0.0,0.0,0.0,0.0,0.0,0.0,0.0,0.0,0.0,0.06352818247845532,-0.00783556261353256,0.0017728537801340147,0.0,0.0,0.0,0.0,0.0,0.0,0.0,0.0,0.0
2.113,57,2,113000000,base_footprint,-0.003845387549184012,4.9116415930300495e-06,0.9999889067621087,0.0027201696997104143,0.0,0.0,0.0,0.0,0.0,0.0,0.0,0.0,0.0,0.0016866162285924379,0.0007127977285637349,-0.15986055391362688,0.0,0.0,0.0,0.0,0.0,0.0,0.0,0.0,0.0,0.18241294782536568,-0.022784832786537843,-0.0006214830923469525,0.0,0.0,0.0,0.0,0.0,0.0,0.0,0.0,0.0
2.146,58,2,147000000,base_footprint,-0.0038489860265268003,2.025054407486246e-05,0.9999721688999352,0.006391112739007388,0.0,0.0,0.0,0.0,0.0,0.0,0.0,0.0,0.0,0.0021550923582797313,-0.00015964494677481208,-0.2762221236964188,0.0,0.0,0.0,0.0,0.0,0.0,0.0,0.0,0.0,0.3064752999141578,-0.04926028437435788,0.0031243109451528648,0.0,0.0,0.0,0.0,0.0,0.0,0.0,0.0,0.0
2.181,59,2,181000000,base_footprint,-0.0038539935406200015,3.893405816790539e-05,0.9999232937278003,0.011770806194789646,0.0,0.0,0.0,0.0,0.0,0.0,0.0,0.0,0.0,0.0025387866428059017,4.728841668634393e-05,-0.3244513123980786,0.0,0.0,0.0,0.0,0.0,0.0,0.0,0.0,0.0,0.12476699145967557,-0.07101864515005119,0.000705091400524322,0.0,0.0,0.0,0.0,0.0,0.0,0.0,0.0,0.0
2.215,60,2,215000000,base_footprint,-0.003849574022583425,6.115132013975628e-05,0.9998409547350179,0.017413852960471037,0.0,0.0,0.0,0.0,0.0,0.0,0.0,0.0,0.0,0.0027781841574438188,2.8415351866081253e-05,-0.3692358217340133,0.0,0.0,0.0,0.0,0.0,0.0,0.0,0.0,0.0,0.3250989063794547,-0.09243453046520711,0.002440663566946791,0.0,0.0,0.0,0.0,0.0,0.0,0.0,0.0,0.0
2.249,61,2,249000000,base_footprint,-0.00385260280653913,8.500505994046332e-05,0.9997081836387547,0.02384738542181818,0.0,0.0,0.0,0.0,0.0,0.0,0.0,0.0,0.0,0.002952279012860868,-0.0002504088056404975,-0.37889727472861845,0.0,0.0,0.0,0.0,0.0,0.0,0.0,0.0,0.0,0.019153260124073607,-0.08632899626971982,0.0007754365189138483,0.0,0.0,0.0,0.0,0.0,0.0,0.0,0.0,0.0
2.283,62,2,283000000,base_footprint,-0.003852254268041594,0.00010951729949996994,0.9995338234382923,0.030286695855510175,0.0,0.0,0.0,0.0,0.0,0.0,0.0,0.0,0.0,0.0028826714558185394,-0.0003227060949117826,-0.37913390777085476,0.0,0.0,0.0,0.0,0.0,0.0,0.0,0.0,0.0,-0.008340717017143884,-0.08426556174478668,-6.0596387848688164e-05,0.0,0.0,0.0,0.0,0.0,0.0,0.0,0.0,0.0
2.317,63,2,317000000,base_footprint,-0.0038519590004465784,0.0001324230603440808,0.9993328276666099,0.03631865118433967,0.0,0.0,0.0,0.0,0.0,0.0,0.0,0.0,0.0,0.002541275136843024,-0.00020739241447272284,-0.3385573566044035,0.0,0.0,0.0,0.0,0.0,0.0,0.0,0.0,0.0,-0.020424741265734205,-0.07765034496735349,-0.00032671793475232017,0.0,0.0,0.0,0.0,0.0,0.0,0.0,0.0,0.0
2.351,64,2,351000000,base_footprint,-0.0038520264428131864,0.00015408421066638435,0.9991072468691298,0.04206955435855834,0.0,0.0,0.0,0.0,0.0,0.0,0.0,0.0,0.0,0.0024783577666537965,-0.00031215542476008544,-0.3386895313081328,0.0,0.0,0.0,0.0,0.0,0.0,0.0,0.0,0.0,-0.011056383791965715,-0.07469802352983525,-3.035488110545527e-05,0.0,0.0,0.0,0.0,0.0,0.0,0.0,0.0,0.0
2.385,65,2,385000000,base_footprint,-0.0038520955182361253,0.00017572920652633226,0.9988486733544096,0.047816923965268446,0.0,0.0,0.0,0.0,0.0,0.0,0.0,0.0,0.0,0.0024539073462848497,-0.00033298362985746666,-0.3382461688953263,0.0,0.0,0.0,0.0,0.0,0.0,0.0,0.0,0.0,-0.01440698684816701,-0.07417595807547352,-0.00012238172198989738,0.0,0.0,0.0,0.0,0.0,0.0,0.0,0.0,0.0
2.42,66,2,419000000,base_footprint,-0.003846235066958017,0.00020327165178502944,0.9985264566886769,0.05413021752405182,0.0,0.0,0.0,0.0,0.0,0.0,0.0,0.0,0.0,0.003294158027729428,-0.0006596230017159312,-0.4327700586256898,0.0,0.0,0.0,0.0,0.0,0.0,0.0,0.0,0.0,-0.36982277506340716,-0.002729103609373524,-0.002307823669237374,0.0,0.0,0.0,0.0,0.0,0.0,0.0,0.0,0.0
2.453,67,2,453000000,base_footprint,-0.00384440329611068,0.00023138596759176108,0.9981325627416822,0.060963548277252234,0.0,0.0,0.0,0.0,0.0,0.0,0.0,0.0,0.0,0.0029441274670234246,-0.0004740140036884333,-0.3683255642989343,0.0,0.0,0.0,0.0,0.0,0.0,0.0,0.0,0.0,-0.14209313963769782,-0.051773987606344975,-0.0014980791707473306,0.0,0.0,0.0,0.0,0.0,0.0,0.0,0.0,0.0
2.491,68,2,487000000,base_footprint,-0.003851922552974532,0.00024889113741734345,0.9977397216579453,0.06708612801297645,0.0,0.0,0.0,0.0,0.0,0.0,0.0,0.0,0.0,0.0027813221294700017,-0.0004463992368775784,-0.34757498270213893,0.0,0.0,0.0,0.0,0.0,0.0,0.0,0.0,0.0,-0.0710193700112178,-0.05951949933116818,-0.0004141499404105831,0.0,0.0,0.0,0.0,0.0,0.0,0.0,0.0,0.0
2.5220000000000002,69,2,521000000,base_footprint,-0.0038509670705214796,0.00026688630773868114,0.9974123829316772,0.07178883756458174,0.0,0.0,0.0,0.0,0.0,0.0,0.0,0.0,0.0,0.00011151653772685933,-0.0006311998824113751,-0.18494006021352458,0.0,0.0,0.0,0.0,0.0,0.0,0.0,0.0,0.0,-0.06675302309085548,-0.041955492929504574,0.0013878596805107155,0.0,0.0,0.0,0.0,0.0,0.0,0.0,0.0,0.0
2.555,70,2,555000000,base_footprint,-0.003841131483887568,0.0002859734202894311,0.9971888138223765,0.07483069901884074,0.0,0.0,0.0,0.0,0.0,0.0,0.0,0.0,0.0,0.0016274714428126053,-0.0003175873371086518,-0.20881425891940206,0.0,0.0,0.0,0.0,0.0,0.0,0.0,0.0,0.0,0.12107619230459112,-0.07358947243372434,-0.0007805130459860711,0.0,0.0,0.0,0.0,0.0,0.0,0.0,0.0,0.0
2.589,71,2,589000000,base_footprint,-0.003840243985773132,0.0003040410596883338,0.9968200628786049,0.07959222529781303,0.0,0.0,0.0,0.0,0.0,0.0,0.0,0.0,0.0,0.0027209411918106526,-0.0005649015759651724,-0.366357879565881,0.0,0.0,0.0,0.0,0.0,0.0,0.0,0.0,0.0,0.2755841638325706,-0.15008172459257843,0.0023538219910161106,0.0,0.0,0.0,0.0,0.0,0.0,0.0,0.0,0.0
2.623,72,2,623000000,base_footprint,-0.0038375977534531314,0.00032163685550383567,0.9962746177332428,0.0861513520131681,0.0,0.0,0.0,0.0,0.0,0.0,0.0,0.0,0.0,0.0028272089551839973,-0.0010469864204853143,-0.3909226794616502,0.0,0.0,0.0,0.0,0.0,0.0,0.0,0.0,0.0,-0.0634354422254255,-0.06708891480747217,0.0001309091092506323,0.0,0.0,0.0,0.0,0.0,0.0,0.0,0.0,0.0
2.657,73,2,657000000,base_footprint,-0.003834782923628742,0.00034681932726173713,0.9956846435209787,0.09272143664107363,0.0,0.0,0.0,0.0,0.0,0.0,0.0,0.0,0.0,0.0028272442201433775,-0.0007412737729555151,-0.3785523930173126,0.0,0.0,0.0,0.0,0.0,0.0,0.0,0.0,0.0,-0.0045002053460655705,-0.08879042973742836,-0.0003122539103028503,0.0,0.0,0.0,0.0,0.0,0.0,0.0,0.0,0.0
2.691,74,2,691000000,base_footprint,-0.0038322483612509774,0.00037006535666381837,0.995105661889763,0.09874157482573484,0.0,0.0,0.0,0.0,0.0,0.0,0.0,0.0,0.0,0.002468440464744536,-0.0006995815092422661,-0.3281507624779148,0.0,0.0,0.0,0.0,0.0,0.0,0.0,0.0,0.0,0.06850071772854258,-0.11350537209440079,0.0006498557361624416,0.0,0.0,0.0,0.0,0.0,0.0,0.0,0.0,0.0
2.725,75,2,725000000,base_footprint,-0.0038347612452764132,0.00038849430691635146,0.9946932667927156,0.10281268732797867,0.0,0.0,0.0,0.0,0.0,0.0,0.0,0.0,0.0,0.0015234870599939252,-0.0006332923173609065,-0.20428170451874905,0.0,0.0,0.0,0.0,0.0,0.0,0.0,0.0,0.0,-0.010699913580029394,-0.054933909218270606,-4.5389467151869144e-05,0.0,0.0,0.0,0.0,0.0,0.0,0.0,0.0,0.0
2.76,76,2,759000000,base_footprint,-0.003832962613477235,0.00040126574280503356,0.9943305647766882,0.10626323604276128,0.0,0.0,0.0,0.0,0.0,0.0,0.0,0.0,0.0,0.0015548048174262698,-0.000483063885126787,-0.20430688413241518,0.0,0.0,0.0,0.0,0.0,0.0,0.0,0.0,0.0,-0.017319083496847965,-0.04181714302142919,-0.00020673181358643155,0.0,0.0,0.0,0.0,0.0,0.0,0.0,0.0,0.0
2.793,77,2,793000000,base_footprint,-0.0038321218761649643,0.0004141494071481426,0.9939557307839013,0.10971393969790529,0.0,0.0,0.0,0.0,0.0,0.0,0.0,0.0,0.0,0.0014555337967480926,-0.0004188691494289655,-0.2044053367010616,0.0,0.0,0.0,0.0,0.0,0.0,0.0,0.0,0.0,-0.018037753776483235,-0.0416105530271597,-0.00022929303553548443,0.0,0.0,0.0,0.0,0.0,0.0,0.0,0.0,0.0
2.827,78,2,827000000,base_footprint,-0.003831443249873301,0.00042702588199326264,0.9935711789049395,0.11314349358654265,0.0,0.0,0.0,0.0,0.0,0.0,0.0,0.0,0.0,0.0014623858219468529,7.125966483011436e-05,-0.1806511519645746,0.0,0.0,0.0,0.0,0.0,0.0,0.0,0.0,0.0,-0.3315664686743868,0.11114896581277435,-0.0033776317074530274,0.0,0.0,0.0,0.0,0.0,0.0,0.0,0.0,0.0
2.861,79,2,861000000,base_footprint,-0.0038305201007687987,0.0004386954649131007,0.9932192918647268,0.11619196585727129,0.0,0.0,0.0,0.0,0.0,0.0,0.0,0.0,0.0,0.001202012476298075,-0.00037739378346037086,-0.1804046562226613,0.0,0.0,0.0,0.0,0.0,0.0,0.0,0.0,0.0,-0.016706921660664446,-0.03354873658671833,0.0006335023149266887,0.0,0.0,0.0,0.0,0.0,0.0,0.0,0.0,0.0
2.894,80,2,895000000,base_footprint,-0.003829906509240918,0.0004506202416487878,0.9928594424033118,0.11922775007569836,0.0,0.0,0.0,0.0,0.0,0.0,0.0,0.0,0.0,0.0011777198490293074,-0.00031781992351655815,-0.17914562098250378,0.0,0.0,0.0,0.0,0.0,0.0,0.0,0.0,0.0,-0.019510094521183446,-0.03207062252666175,-0.00019542911478497227,0.0,0.0,0.0,0.0,0.0,0.0,0.0,0.0,0.0
2.9290000000000003,81,2,929000000,base_footprint,-0.003822199485744185,0.0004614794671966217,0.9926611890456613,0.12086745463625269,0.0,0.0,0.0,0.0,0.0,0.0,0.0,0.0,0.0,0.00038956371179755785,-0.000612733525657081,-0.06710864906787378,0.0,0.0,0.0,0.0,0.0,0.0,0.0,0.0,0.0,0.14903175340074837,-0.10345131540736739,0.00221726211091269,0.0,0.0,0.0,0.0,0.0,0.0,0.0,0.0,0.0
2.971,82,2,963000000,base_footprint,-0.0038210007690152965,0.00046751024715729824,0.9924832951034435,0.12231962364192903,0.0,0.0,0.0,0.0,0.0,0.0,0.0,0.0,0.0,0.0007401591294827779,-0.00036609922531933756,-0.11130732132427715,0.0,0.0,0.0,0.0,0.0,0.0,0.0,0.0,0.0,0.09350655890123713,-0.0704792169871227,0.0002543354882549718,0.0,0.0,0.0,0.0,0.0,0.0,0.0,0.0,0.0
2.997,83,2,997000000,base_footprint,-0.0038295243141205706,0.000471528247367676,0.9922280085620606,0.12437319417626459,0.0,0.0,0.0,0.0,0.0,0.0,0.0,0.0,0.0,0.0007837237235725826,0.006088826800332991,-0.12242385623474643,0.0,0.0,0.0,0.0,0.0,0.0,0.0,0.0,0.0,-0.0077953887624749325,-0.027179709798674352,-0.004289708959117118,0.0,0.0,0.0,0.0,0.0,0.0,0.0,0.0,0.0
3.031,84,3,31000000,base_footprint,-0.003824755320347634,0.00047875428467124016,0.9919872569987777,0.1262791510626976,0.0,0.0,0.0,0.0,0.0,0.0,0.0,0.0,0.0,0.00337315105165678,-0.010514504202260492,-0.09633097805237496,0.0,0.0,0.0,0.0,0.0,0.0,0.0,0.0,0.0,-0.5364029451778984,0.2709013265114547,0.008405612843586223,0.0,0.0,0.0,0.0,0.0,0.0,0.0,0.0,0.0
3.065,85,3,65000000,base_footprint,-0.0038194081179248537,0.0004930137427168574,0.9916671855654119,0.1287686379979746,0.0,0.0,0.0,0.0,0.0,0.0,0.0,0.0,0.0,0.0014518273313811037,-0.0005838280797123656,-0.21157896190009967,0.0,0.0,0.0,0.0,0.0,0.0,0.0,0.0,0.0,0.3893983635383716,-0.2548452809923534,-0.005044992862758741,0.0,0.0,0.0,0.0,0.0,0.0,0.0,0.0,0.0
3.099,86,3,99000000,base_footprint,-0.0038271739442123425,0.0005096769803696464,0.991062243113084,0.13334437837658894,0.0,0.0,0.0,0.0,0.0,0.0,0.0,0.0,0.0,0.003988482486673301,0.002798286063072485,-0.2628397396476157,0.0,0.0,0.0,0.0,0.0,0.0,0.0,0.0,0.0,0.10455985323427533,-0.1283689155137196,-0.00385927562944837,0.0,0.0,0.0,0.0,0.0,0.0,0.0,0.0,0.0
3.133,87,3,133000000,base_footprint,-0.0038123920311709083,0.0005137442764919857,0.9907306966977464,0.13578618617008498,0.0,0.0,0.0,0.0,0.0,0.0,0.0,0.0,0.0,0.00014263548541876777,-0.00269883502289023,-0.1339742113924243,0.0,0.0,0.0,0.0,0.0,0.0,0.0,0.0,0.0,-0.24837589330230403,0.11050762291358601,0.005720655787253653,0.0,0.0,0.0,0.0,0.0,0.0,0.0,0.0,0.0
3.167,88,3,167000000,base_footprint,-0.003814773043039125,0.0005224854054238294,0.9903869853241333,0.13827072653387767,0.0,0.0,0.0,0.0,0.0,0.0,0.0,0.0,0.0,0.0009704275730513883,-0.00047248755428255893,-0.1410673838156099,0.0,0.0,0.0,0.0,0.0,0.0,0.0,0.0,0.0,0.011510997607537567,-0.04357566535198028,-0.0028009277347876014,0.0,0.0,0.0,0.0,0.0,0.0,0.0,0.0,0.0
3.201,89,3,201000000,base_footprint,-0.003819761681636394,0.000534678449469642,0.9900890165788032,0.1403882573069043,0.0,0.0,0.0,0.0,0.0,0.0,0.0,0.0,0.0,0.0010237816927197087,0.0011619707531680408,-0.16093240345710785,0.0,0.0,0.0,0.0,0.0,0.0,0.0,0.0,0.0,0.08095182281331424,-0.08362287872262517,0.00016849083879951342,0.0,0.0,0.0,0.0,0.0,0.0,0.0,0.0,0.0
3.235,90,3,235000000,base_footprint,-0.0038139687269973634,0.0005425821255648761,0.9896345671422466,0.14355689730683333,0.0,0.0,0.0,0.0,0.0,0.0,0.0,0.0,0.0,0.0009774044285368025,-0.0009187762900007598,-0.21338779443601144,0.0,0.0,0.0,0.0,0.0,0.0,0.0,0.0,0.0,0.09803067063665491,-0.1110549993792745,0.002280842598199499,0.0,0.0,0.0,0.0,0.0,0.0,0.0,0.0,0.0
3.269,91,3,269000000,base_footprint,-0.0038142369468186967,0.0005585002484586676,0.9890999137266815,0.1471954494536335,0.0,0.0,0.0,0.0,0.0,0.0,0.0,0.0,0.0,0.0015289822128116593,-0.0005261223227647344,-0.21651930063369362,0.0,0.0,0.0,0.0,0.0,0.0,0.0,0.0,0.0,-0.015514513663042632,-0.04729229287217815,-0.0011521460441586443,0.0,0.0,0.0,0.0,0.0,0.0,0.0,0.0,0.0
3.303,92,3,303000000,base_footprint,-0.003804006803444015,0.0005729852789981096,0.988571875605684,0.15070118772448163,0.0,0.0,0.0,0.0,0.0,0.0,0.0,0.0,0.0,0.0009432151404041007,-0.0008052627525895969,-0.15260571627217925,0.0,0.0,0.0,0.0,0.0,0.0,0.0,0.0,0.0,-0.014942935144825122,-0.04612953247212737,0.0010375582773702989,0.0,0.0,0.0,0.0,0.0,0.0,0.0,0.0,0.0
3.337,93,3,337000000,base_footprint,-0.0038116619503595264,0.0005805073188378512,0.9882340566799177,0.15290056724022374,0.0,0.0,0.0,0.0,0.0,0.0,0.0,0.0,0.0,0.0008244294171135286,-0.0003045831035476365,-0.13038684276057128,0.0,0.0,0.0,0.0,0.0,0.0,0.0,0.0,0.0,-0.04627276358031966,-0.0031879378838870973,-0.001337000499266714,0.0,0.0,0.0,0.0,0.0,0.0,0.0,0.0,0.0
3.371,94,3,371000000,base_footprint,-0.0038107640091737316,0.0005890424343122504,0.9879012623782856,0.15503621157028696,0.0,0.0,0.0,0.0,0.0,0.0,0.0,0.0,0.0,0.0007267996193731142,-0.000524579567816148,-0.1231079139157115,0.0,0.0,0.0,0.0,0.0,0.0,0.0,0.0,0.0,-0.031899312765650924,-0.01296242497629345,0.0002302263604575019,0.0,0.0,0.0,0.0,0.0,0.0,0.0,0.0,0.0
3.4050000000000002,95,3,405000000,base_footprint,-0.0038145573841431965,0.0005948115876513418,0.9875984855469079,0.15695326277778432,0.0,0.0,0.0,0.0,0.0,0.0,0.0,0.0,0.0,0.0005385237505143756,-0.0012190531055866621,-0.06746712070650282,0.0,0.0,0.0,0.0,0.0,0.0,0.0,0.0,0.0,0.0055383600727235876,-0.036273278644694214,0.001693475536311462,0.0,0.0,0.0,0.0,0.0,0.0,0.0,0.0,0.0
3.439,96,3,439000000,base_footprint,-0.0038077410306907623,0.0006008450556099236,0.9874495794655522,0.15788751726075848,0.0,0.0,0.0,0.0,0.0,0.0,0.0,0.0,0.0,0.00024101124650048925,-0.0004068364890011816,-0.055583824393488586,0.0,0.0,0.0,0.0,0.0,0.0,0.0,0.0,0.0,-0.032661307721778214,0.009132499008561473,-0.0017836232565828073,0.0,0.0,0.0,0.0,0.0,0.0,0.0,0.0,0.0
3.477,97,3,473000000,base_footprint,-0.003806868774251252,0.0006051101793749158,0.9872986924021865,0.15882831477019266,0.0,0.0,0.0,0.0,0.0,0.0,0.0,0.0,0.0,0.00033139095503132484,-0.0002448285873817037,-0.05588669412022003,0.0,0.0,0.0,0.0,0.0,0.0,0.0,0.0,0.0,-0.005916594445890578,-0.010971806559392668,-0.0003314803970844972,0.0,0.0,0.0,0.0,0.0,0.0,0.0,0.0,0.0
3.507,98,3,507000000,base_footprint,-0.003803117915164433,0.000606933103490798,0.9871393571467562,0.15981569853497044,0.0,0.0,0.0,0.0,0.0,0.0,0.0,0.0,0.0,-0.00014055956406600916,-0.000860316778005017,-0.08617940872832783,0.0,0.0,0.0,0.0,0.0,0.0,0.0,0.0,0.0,-0.12904694259563215,0.0811675037848294,-0.00019228464409157763,0.0,0.0,0.0,0.0,0.0,0.0,0.0,0.0,0.0
3.541,99,3,541000000,base_footprint,-0.003803705892723352,0.0006203554332039411,0.9867646335757798,0.1621132471597408,0.0,0.0,0.0,0.0,0.0,0.0,0.0,0.0,0.0,-0.0017755861358739224,-0.004284507371766814,-0.09502557812696617,0.0,0.0,0.0,0.0,0.0,0.0,0.0,0.0,0.0,-0.22087964078695402,0.1305892157242028,0.0027217396715335145,0.0,0.0,0.0,0.0,0.0,0.0,0.0,0.0,0.0
3.575,100,3,575000000,base_footprint,-0.0038047666221587275,0.0006245918192332007,0.9865673735996501,0.16330937200509618,0.0,0.0,0.0,0.0,0.0,0.0,0.0,0.0,0.0,0.00067766851662154,-0.0003195035579323451,-0.06500210401182788,0.0,0.0,0.0,0.0,0.0,0.0,0.0,0.0,0.0,0.045445407224504686,-0.05344847108481249,-0.005349951281803556,0.0,0.0,0.0,0.0,0.0,0.0,0.0,0.0,0.0
3.61,101,3,609000000,base_footprint,-0.003806184509724909,0.0006308605180638945,0.9863426868525257,0.16466092149330744,0.0,0.0,0.0,0.0,0.0,0.0,0.0,0.0,0.0,0.0008493408900447903,-0.00020387148298454442,-0.11752064630998213,0.0,0.0,0.0,0.0,0.0,0.0,0.0,0.0,0.0,0.05425190581361546,-0.06200951020839906,0.0003205062896571971,0.0,0.0,0.0,0.0,0.0,0.0,0.0,0.0,0.0
3.643,102,3,643000000,base_footprint,-0.003798344002544371,0.0006325302566602758,0.9859824667729193,0.16680451943727995,0.0,0.0,0.0,0.0,0.0,0.0,0.0,0.0,0.0,0.0009389502901571879,-0.00038988761811642567,-0.1338119479285093,0.0,0.0,0.0,0.0,0.0,0.0,0.0,0.0,0.0,-0.04284651168221009,-0.000681471868296468,0.00021835332865108076,0.0,0.0,0.0,0.0,0.0,0.0,0.0,0.0,0.0
3.677,103,3,677000000,base_footprint,-0.0037971255045959936,0.0006400551867861197,0.98562630806496,0.16889627887403796,0.0,0.0,0.0,0.0,0.0,0.0,0.0,0.0,0.0,0.000682291002649254,-0.0004416378978415585,-0.1094183626767492,0.0,0.0,0.0,0.0,0.0,0.0,0.0,0.0,0.0,0.023912312938977998,-0.05361644521836689,0.0003974780017158765,0.0,0.0,0.0,0.0,0.0,0.0,0.0,0.0,0.0
3.7110000000000003,104,3,711000000,base_footprint,-0.003796454807804724,0.0006454586854733491,0.9853703729083142,0.17038309337638965,0.0,0.0,0.0,0.0,0.0,0.0,0.0,0.0,0.0,0.0004545872509421771,-4.776290523665715e-05,-0.06877196185068035,0.0,0.0,0.0,0.0,0.0,0.0,0.0,0.0,0.0,0.12855108948509605,-0.13025798619568751,0.0006641667896596328,0.0,0.0,0.0,0.0,0.0,0.0,0.0,0.0,0.0
3.745,105,3,745000000,base_footprint,-0.003799755128204303,0.0006509528245896674,0.9852367482186098,0.17115398938092413,0.0,0.0,0.0,0.0,0.0,0.0,0.0,0.0,0.0,0.00023107155732195823,-0.00015953860552410972,-0.04275910437782243,0.0,0.0,0.0,0.0,0.0,0.0,0.0,0.0,0.0,0.03597227041997528,-0.0430498015428188,0.0005844143327064686,0.0,0.0,0.0,0.0,0.0,0.0,0.0,0.0,0.0
3.779,106,3,779000000,base_footprint,-0.0037996316079873774,0.0006533702616468715,0.9851133922062613,0.17186256254000673,0.0,0.0,0.0,0.0,0.0,0.0,0.0,0.0,0.0,0.00023610217656386178,-0.0001429757074859395,-0.042279583365804806,0.0,0.0,0.0,0.0,0.0,0.0,0.0,0.0,0.0,-0.005839190054572429,-0.006450134993668891,-6.7197072315235e-05,0.0,0.0,0.0,0.0,0.0,0.0,0.0,0.0,0.0
3.813,107,3,813000000,base_footprint,-0.003797406669424534,0.0006644818944351318,0.9848982943282036,0.1730909818442145,0.0,0.0,0.0,0.0,0.0,0.0,0.0,0.0,0.0,0.000955140278962793,-0.0006032984105302079,-0.16356315995342852,0.0,0.0,0.0,0.0,0.0,0.0,0.0,0.0,0.0,-0.21394175515456323,0.1591246183813709,-0.0013985487939764001,0.0,0.0,0.0,0.0,0.0,0.0,0.0,0.0,0.0
3.847,108,3,847000000,base_footprint,-0.00379614721883927,0.0006713446299811659,0.9841902980995868,0.1770722894450945,0.0,0.0,0.0,0.0,0.0,0.0,0.0,0.0,0.0,0.00035491458122468135,-0.002354451129096334,-0.18340738589976444,0.0,0.0,0.0,0.0,0.0,0.0,0.0,0.0,0.0,-0.11791860490149676,0.033731875740582444,0.0015119032861485983,0.0,0.0,0.0,0.0,0.0,0.0,0.0,0.0,0.0
3.8810000000000002,109,3,881000000,base_footprint,-0.0037983776791034414,0.0006797823737561151,0.9838427558656947,0.17899313381670937,0.0,0.0,0.0,0.0,0.0,0.0,0.0,0.0,0.0,0.0004765049795532164,-0.00038517752719111894,-0.07945103939099891,0.0,0.0,0.0,0.0,0.0,0.0,0.0,0.0,0.0,-0.07103169851654499,0.029589496823253278,-0.003037995922946351,0.0,0.0,0.0,0.0,0.0,0.0,0.0,0.0,0.0
3.914,110,3,915000000,base_footprint,-0.0037862033994308145,0.0006891062747563522,0.9836109683101184,0.18026273274415733,0.0,0.0,0.0,0.0,0.0,0.0,0.0,0.0,0.0,0.0003790486450311091,-0.0007791795490628574,-0.11160556071995352,0.0,0.0,0.0,0.0,0.0,0.0,0.0,0.0,0.0,-0.038430896036402734,0.014745571613461864,5.625613727542209e-05,0.0,0.0,0.0,0.0,0.0,0.0,0.0,0.0,0.0
3.949,111,3,949000000,base_footprint,-0.003789454879288217,0.0006955095622665317,0.9832351371459048,0.1823014574265397,0.0,0.0,0.0,0.0,0.0,0.0,0.0,0.0,0.0,0.00018352448818692644,-0.0006100781581602796,-0.06900475246804401,0.0,0.0,0.0,0.0,0.0,0.0,0.0,0.0,0.0,0.22570504404602365,-0.23792463337510672,0.00213639755032533,0.0,0.0,0.0,0.0,0.0,0.0,0.0,0.0,0.0
3.983,112,3,983000000,base_footprint,-0.0037908164763602566,0.00069647560342929,0.9831945708970332,0.18252008215748544,0.0,0.0,0.0,0.0,0.0,0.0,0.0,0.0,0.0,-2.7002714411564473e-05,-6.909631648356209e-05,0.001291722093741684,0.0,0.0,0.0,0.0,0.0,0.0,0.0,0.0,0.0,0.10903486454424285,-0.10294432370260846,0.0004004110963829333,0.0,0.0,0.0,0.0,0.0,0.0,0.0,0.0,0.0
4.017,113,4,17000000,base_footprint,-0.0037883107345969454,0.0006963578200218026,0.9832362548773085,0.18229544942869308,0.0,0.0,0.0,0.0,0.0,0.0,0.0,0.0,0.0,0.0005264154899339146,-0.00012092953337180459,0.023364894368586027,0.0,0.0,0.0,0.0,0.0,0.0,0.0,0.0,0.0,-0.2565768396522362,0.2347707655359189,-0.0032081008187041706,0.0,0.0,0.0,0.0,0.0,0.0,0.0,0.0,0.0
4.051,114,4,51000000,base_footprint,-0.003791736490999235,0.0006955718791243293,0.98330788487222,0.18190861019276972,0.0,0.0,0.0,0.0,0.0,0.0,0.0,0.0,0.0,-0.000117368263134919,-0.00014185529813709507,0.0231889302659752,0.0,0.0,0.0,0.0,0.0,0.0,0.0,0.0,0.0,0.005256894354838126,0.0018141473324121598,0.000869142002402835,0.0,0.0,0.0,0.0,0.0,0.0,0.0,0.0,0.0
4.085,115,4,85000000,base_footprint,-0.0037925574579331955,0.0006948308658797788,0.9833786039861009,0.18152590707759506,0.0,0.0,0.0,0.0,0.0,0.0,0.0,0.0,0.0,-1.1907016386766625e-05,-0.0001448061315142394,0.022709011915074215,0.0,0.0,0.0,0.0,0.0,0.0,0.0,0.0,0.0,0.003321539984184615,0.0033654339083177076,-0.00012515163561054366,0.0,0.0,0.0,0.0,0.0,0.0,0.0,0.0,0.0
4.119,116,4,119000000,base_footprint,-0.003790249495658295,0.0006923397361519943,0.9833097696155901,0.18189846522987976,0.0,0.0,0.0,0.0,0.0,0.0,0.0,0.0,0.0,-0.0036147286756584717,-0.0008553826685624994,-0.06374330754279176,0.0,0.0,0.0,0.0,0.0,0.0,0.0,0.0,0.0,0.07260386051165006,-0.07102054482281255,0.005998967966083641,0.0,0.0,0.0,0.0,0.0,0.0,0.0,0.0,0.0
4.153,117,4,153000000,base_footprint,-0.0037874931014182534,0.0006948115836282193,0.98309813298407,0.18303888400038396,0.0,0.0,0.0,0.0,0.0,0.0,0.0,0.0,0.0,0.00034053041925335536,-0.00032175452590237844,-0.06414134671347108,0.0,0.0,0.0,0.0,0.0,0.0,0.0,0.0,0.0,-0.00904259635597432,-0.009848124171932413,-0.0049728261348566324,0.0,0.0,0.0,0.0,0.0,0.0,0.0,0.0,0.0
4.187,118,4,187000000,base_footprint,-0.0037871570013095083,0.0006971907480331769,0.9829594174257504,0.18378235786097016,0.0,0.0,0.0,0.0,0.0,0.0,0.0,0.0,0.0,1.203053842192062e-05,-0.00011711270335917396,-0.01914692228093005,0.0,0.0,0.0,0.0,0.0,0.0,0.0,0.0,0.0,0.06335734074021898,-0.07144368580228351,0.0003637826482603072,0.0,0.0,0.0,0.0,0.0,0.0,0.0,0.0,0.0
4.221,119,4,221000000,base_footprint,-0.0037895896297534134,0.0006964152114435126,0.9830687286988254,0.18319669394060156,0.0,0.0,0.0,0.0,0.0,0.0,0.0,0.0,0.0,0.0011265082339245033,0.0006692272607010078,0.07762573240661984,0.0,0.0,0.0,0.0,0.0,0.0,0.0,0.0,0.0,0.10119460395714494,-0.08340810998373242,-0.0009825717200373843,0.0,0.0,0.0,0.0,0.0,0.0,0.0,0.0,0.0
4.255,120,4,255000000,base_footprint,-0.0037924319876223027,0.0006921756589428845,0.9833094255721146,0.1819002801908632,0.0,0.0,0.0,0.0,0.0,0.0,0.0,0.0,0.0,-0.0006461787882157948,0.00018767654984198337,0.0775282927473192,0.0,0.0,0.0,0.0,0.0,0.0,0.0,0.0,0.0,0.010346164128151099,0.013625616176245768,0.0018207445218241048,0.0,0.0,0.0,0.0,0.0,0.0,0.0,0.0,0.0
4.289,121,4,289000000,base_footprint,-0.003793997250752802,0.0006869556831096271,0.9835497074673885,0.1805965299156255,0.0,0.0,0.0,0.0,0.0,0.0,0.0,0.0,0.0,-0.0006699392052167824,0.0002675917570005445,0.07810513189231373,0.0,0.0,0.0,0.0,0.0,0.0,0.0,0.0,0.0,0.011266755586857037,0.013529408484865014,-6.438941113883261e-05,0.0,0.0,0.0,0.0,0.0,0.0,0.0,0.0,0.0
4.323,122,4,323000000,base_footprint,-0.003793863827627973,0.0006813942859278007,0.9838932104898628,0.17871567544856054,0.0,0.0,0.0,0.0,0.0,0.0,0.0,0.0,0.0,-0.0012055974611185811,0.0005876649409983446,0.13099505427825353,0.0,0.0,0.0,0.0,0.0,0.0,0.0,0.0,0.0,0.010574075423308358,0.022574844140868,-0.00019386455268556807,0.0,0.0,0.0,0.0,0.0,0.0,0.0,0.0,0.0
4.357,123,4,357000000,base_footprint,-0.0037957153047991307,0.0006723975616775101,0.9842979034823721,0.17647316404215913,0.0,0.0,0.0,0.0,0.0,0.0,0.0,0.0,0.0,-0.001153494785912671,0.0003822623827411356,0.13510135339848897,0.0,0.0,0.0,0.0,0.0,0.0,0.0,0.0,0.0,0.011303329283873651,0.028614198453286194,0.00041706040536168695,0.0,0.0,0.0,0.0,0.0,0.0,0.0,0.0,0.0
4.391,124,4,391000000,base_footprint,-0.0037972275943473142,0.0006638621632628242,0.984700975366551,0.17421001538886352,0.0,0.0,0.0,0.0,0.0,0.0,0.0,0.0,0.0,-0.001134698075441026,0.00034490551130984993,0.1356554213590805,0.0,0.0,0.0,0.0,0.0,0.0,0.0,0.0,0.0,0.018558152926198078,0.02288253128464855,0.00015773099597445666,0.0,0.0,0.0,0.0,0.0,0.0,0.0,0.0,0.0
4.426,125,4,425000000,base_footprint,-0.003797385863298992,0.0006588241999931167,0.9849555691528925,0.17276478983282573,0.0,0.0,0.0,0.0,0.0,0.0,0.0,0.0,0.0,-0.0005965781342810081,2.9875578994062907e-05,0.07182610988146051,0.0,0.0,0.0,0.0,0.0,0.0,0.0,0.0,0.0,0.02528991146293349,0.0043811598275291545,0.000392399415309519,0.0,0.0,0.0,0.0,0.0,0.0,0.0,0.0,0.0
4.459,126,4,459000000,base_footprint,-0.003798476307549483,0.0006548749993086117,0.9851645361944836,0.1715691678046624,0.0,0.0,0.0,0.0,0.0,0.0,0.0,0.0,0.0,-0.0005607142141183819,7.674989469810771e-05,0.07160465882978692,0.0,0.0,0.0,0.0,0.0,0.0,0.0,0.0,0.0,0.011346499670993757,0.01099743232921696,-0.00019221810576511476,0.0,0.0,0.0,0.0,0.0,0.0,0.0,0.0,0.0
4.493,127,4,493000000,base_footprint,-0.00379934883539088,0.0006509859661355127,0.9853716720288519,0.17037549450776004,0.0,0.0,0.0,0.0,0.0,0.0,0.0,0.0,0.0,-0.0005274465673056382,6.978014229785374e-05,0.07131713462377225,0.0,0.0,0.0,0.0,0.0,0.0,0.0,0.0,0.0,0.01050740289942386,0.01163779221578025,-2.166331445076984e-06,0.0,0.0,0.0,0.0,0.0,0.0,0.0,0.0,0.0
4.527,128,4,527000000,base_footprint,-0.0038009356145248087,0.0006439827685423685,0.9857187958182931,0.1683555575120178,0.0,0.0,0.0,0.0,0.0,0.0,0.0,0.0,0.0,-0.0009224570005782254,0.0002833723368343198,0.12967017551379736,0.0,0.0,0.0,0.0,0.0,0.0,0.0,0.0,0.0,0.004400269865052456,0.029601128250140572,-0.0001137562883285517,0.0,0.0,0.0,0.0,0.0,0.0,0.0,0.0,0.0
4.561,129,4,561000000,base_footprint,-0.003803856778201312,0.0006370492606711738,0.9860832795456598,0.1662073724066614,0.0,0.0,0.0,0.0,0.0,0.0,0.0,0.0,0.0,-0.0008196224718631082,0.00023130995607880474,0.12546623791624623,0.0,0.0,0.0,0.0,0.0,0.0,0.0,0.0,0.0,0.01208404193289871,0.027268813505985427,0.00014827812201112793,0.0,0.0,0.0,0.0,0.0,0.0,0.0,0.0,0.0
4.595,130,4,595000000,base_footprint,-0.003799729521222066,0.000623180160935463,0.9864016276197667,0.16430764659968783,0.0,0.0,0.0,0.0,0.0,0.0,0.0,0.0,0.0,-0.0007413248958869987,0.00031363448793173655,0.10667384300443186,0.0,0.0,0.0,0.0,0.0,0.0,0.0,0.0,0.0,-0.014973718999479455,0.0427266167948989,-0.00031213241610262806,0.0,0.0,0.0,0.0,0.0,0.0,0.0,0.0,0.0
4.629,131,4,629000000,base_footprint,-0.00380451006951068,0.0006202518510447804,0.9866805428273474,0.16262425217876803,0.0,0.0,0.0,0.0,0.0,0.0,0.0,0.0,0.0,-0.0009200765363574734,6.43032391168307e-06,0.10348334960308422,0.0,0.0,0.0,0.0,0.0,0.0,0.0,0.0,0.0,0.05388842751562835,-0.014108525820360072,0.0007715522289097529,0.0,0.0,0.0,0.0,0.0,0.0,0.0,0.0,0.0
4.663,132,4,663000000,base_footprint,-0.003805067424726806,0.0006125678411726684,0.9869654198411402,0.1608863147080425,0.0,0.0,0.0,0.0,0.0,0.0,0.0,0.0,0.0,-0.0007929331833288679,0.00017760445543321283,0.10340286980536546,0.0,0.0,0.0,0.0,0.0,0.0,0.0,0.0,0.0,0.014440235799751639,0.017478474254257758,-0.0002693345801378932,0.0,0.0,0.0,0.0,0.0,0.0,0.0,0.0,0.0
4.697,133,4,697000000,base_footprint,-0.003807899429420651,0.0006070496673274421,0.9872469267175804,0.1591497316344868,0.0,0.0,0.0,0.0,0.0,0.0,0.0,0.0,0.0,0.003678792338531257,0.001007961150588308,0.10142140214630581,0.0,0.0,0.0,0.0,0.0,0.0,0.0,0.0,0.0,-0.005108933497384083,0.03189209488267342,-0.0005319563388352909,0.0,0.0,0.0,0.0,0.0,0.0,0.0,0.0,0.0
4.731,134,4,731000000,base_footprint,-0.0038076168820201602,0.0005995689466405683,0.9874634826672934,0.15780054806412455,0.0,0.0,0.0,0.0,0.0,0.0,0.0,0.0,0.0,-0.0008177755671558526,5.034264376850412e-05,0.07714705838874161,0.0,0.0,0.0,0.0,0.0,0.0,0.0,0.0,0.0,-0.23826856001008917,0.19730047032124345,-0.0015913854571387254,0.0,0.0,0.0,0.0,0.0,0.0,0.0,0.0,0.0
4.765,135,4,765000000,base_footprint,-0.0038092326197913524,0.0005943200944256602,0.987670858792881,0.15649732017452228,0.0,0.0,0.0,0.0,0.0,0.0,0.0,0.0,0.0,-0.00072596765199076,0.00017321752033228318,0.07767549180719989,0.0,0.0,0.0,0.0,0.0,0.0,0.0,0.0,0.0,0.009219128306655546,0.013166589491567859,-0.00016357298847596442,0.0,0.0,0.0,0.0,0.0,0.0,0.0,0.0,0.0
4.799,136,4,799000000,base_footprint,-0.003809773312035658,0.0005860134422026197,0.987880516651049,0.15516838285170467,0.0,0.0,0.0,0.0,0.0,0.0,0.0,0.0,0.0,-0.0019531702576530228,0.0006249935489514672,0.09505522768581257,0.0,0.0,0.0,0.0,0.0,0.0,0.0,0.0,0.0,0.035710749767214146,-0.0040958193341776306,0.00046310314471380266,0.0,0.0,0.0,0.0,0.0,0.0,0.0,0.0,0.0
4.833,137,4,833000000,base_footprint,-0.0038052043015685062,0.0005855130048532221,0.9881981898025947,0.15313234558910013,0.0,0.0,0.0,0.0,0.0,0.0,0.0,0.0,0.0,-0.0004845938656111702,0.0005717842546825759,0.12318263763339608,0.0,0.0,0.0,0.0,0.0,0.0,0.0,0.0,0.0,0.056676418947999525,-0.0106647989690984,-5.262286919646716e-05,0.0,0.0,0.0,0.0,0.0,0.0,0.0,0.0,0.0
4.867,138,4,867000000,base_footprint,-0.003805357527528376,0.0005788783531488497,0.9884823951806796,0.15128694118068062,0.0,0.0,0.0,0.0,0.0,0.0,0.0,0.0,0.0,-0.0007780148327245206,4.578819807565308e-05,0.09030029521539205,0.0,0.0,0.0,0.0,0.0,0.0,0.0,0.0,0.0,0.0848045816388372,-0.030127385491621004,0.0013147601246998493,0.0,0.0,0.0,0.0,0.0,0.0,0.0,0.0,0.0
4.901,139,4,901000000,base_footprint,-0.003806043612830699,0.0005754142719345094,0.9886187799926418,0.1503931207745006,0.0,0.0,0.0,0.0,0.0,0.0,0.0,0.0,0.0,0.00024355041621662726,0.00018158945376972702,0.003821778519784193,0.0,0.0,0.0,0.0,0.0,0.0,0.0,0.0,0.0,0.15371128281522042,-0.09094243969901779,-0.0006029432576357262,0.0,0.0,0.0,0.0,0.0,0.0,0.0,0.0,0.0
4.9350000000000005,140,4,935000000,base_footprint,-0.003812096590870417,0.000573479434265097,0.988621810760181,0.15037305054490746,0.0,0.0,0.0,0.0,0.0,0.0,0.0,0.0,0.0,-3.344344149428127e-05,-0.0001345353052947261,0.001610884426247048,0.0,0.0,0.0,0.0,0.0,0.0,0.0,0.0,0.0,0.0076713398996535774,-0.005640364634817829,0.0017667174723103515,0.0,0.0,0.0,0.0,0.0,0.0,0.0,0.0,0.0
4.969,141,4,969000000,base_footprint,-0.0038120544991734617,0.0005741431570982485,0.9886247549143983,0.15035369157615192,0.0,0.0,0.0,0.0,0.0,0.0,0.0,0.0,0.0,-1.4377495838699433e-07,-0.00011507168636910349,0.001176650647257489,0.0,0.0,0.0,0.0,0.0,0.0,0.0,0.0,0.0,0.0005801698629723569,-2.5427388180553903e-05,-7.402925000494725e-05,0.0,0.0,0.0,0.0,0.0,0.0,0.0,0.0,0.0
5.003,142,5,3000000,base_footprint,-0.003818229731955928,0.000575583432927612,0.9886453048131287,0.15021834473985407,0.0,0.0,0.0,0.0,0.0,0.0,0.0,0.0,0.0,-0.0010970257726245942,-0.0028242943070833906,0.05560147361901107,0.0,0.0,0.0,0.0,0.0,0.0,0.0,0.0,0.0,-0.052717847180125614,0.03799332852788584,0.003548886132990872,0.0,0.0,0.0,0.0,0.0,0.0,0.0,0.0,0.0
5.037,143,5,37000000,base_footprint,-0.0038142706146354365,0.0005712660825636018,0.988791357482506,0.14925406648612405,0.0,0.0,0.0,0.0,0.0,0.0,0.0,0.0,0.0,-0.00045587368752240986,-2.429890067650372e-05,0.051277400815335605,0.0,0.0,0.0,0.0,0.0,0.0,0.0,0.0,0.0,0.003060473830922967,0.013487284508225453,-0.0036228531855690116,0.0,0.0,0.0,0.0,0.0,0.0,0.0,0.0,0.0
5.07,144,5,71000000,base_footprint,-0.0038088879524381105,0.0005622632793696412,0.9888993988328599,0.14853671337611732,0.0,0.0,0.0,0.0,0.0,0.0,0.0,0.0,0.0,-0.00040472138360152265,-0.00011496081544559489,0.04341651325180191,0.0,0.0,0.0,0.0,0.0,0.0,0.0,0.0,0.0,-0.007513042981657439,0.0162257946406515,-8.776042084256043e-05,0.0,0.0,0.0,0.0,0.0,0.0,0.0,0.0,0.0
5.105,145,5,105000000,base_footprint,-0.0038141502221499526,0.0005622137441378645,0.9890130883813735,0.14777769515094769,0.0,0.0,0.0,0.0,0.0,0.0,0.0,0.0,0.0,-0.002431819319674662,-0.0014127127646460394,0.003659367383401469,0.0,0.0,0.0,0.0,0.0,0.0,0.0,0.0,0.0,0.06907118613940604,-0.034439626769603396,0.0029292508032452286,0.0,0.0,0.0,0.0,0.0,0.0,0.0,0.0,0.0
5.139,146,5,139000000,base_footprint,-0.003812917766227339,0.0005614583387580312,0.989031745132691,0.14765281420422022,0.0,0.0,0.0,0.0,0.0,0.0,0.0,0.0,0.0,-0.00011091791301338672,-0.0001515981545649239,0.007358825756606219,0.0,0.0,0.0,0.0,0.0,0.0,0.0,0.0,0.0,0.007239619321550643,-0.0031324311698332917,-0.00251828556384187,0.0,0.0,0.0,0.0,0.0,0.0,0.0,0.0,0.0
5.173,147,5,173000000,base_footprint,-0.003813183195410639,0.0005604310011948599,0.9890505480143956,0.14752680781280006,0.0,0.0,0.0,0.0,0.0,0.0,0.0,0.0,0.0,-0.00012195923511647256,-5.2479343553873965e-05,0.007153172334849225,0.0,0.0,0.0,0.0,0.0,0.0,0.0,0.0,0.0,0.002190393023732011,0.00039788273137379975,-0.0001555470553818421,0.0,0.0,0.0,0.0,0.0,0.0,0.0,0.0,0.0
5.207,148,5,207000000,base_footprint,-0.0038139743573741836,0.0005650292588823041,0.9890515067268933,0.14752034226777003,0.0,0.0,0.0,0.0,0.0,0.0,0.0,0.0,0.0,8.49255267980388e-05,-0.0006719078731955329,-0.033277075022200064,0.0,0.0,0.0,0.0,0.0,0.0,0.0,0.0,0.0,-0.1889725860638431,0.12792356491009155,-0.0006968311101789968,0.0,0.0,0.0,0.0,0.0,0.0,0.0,0.0,0.0
5.241,149,5,241000000,base_footprint,-0.003812723623131173,0.0005642255978855972,0.9888093752451161,0.14913471834355518,0.0,0.0,0.0,0.0,0.0,0.0,0.0,0.0,0.0,0.0007492637830607916,-0.00039323925713284023,-0.09212317572430465,0.0,0.0,0.0,0.0,0.0,0.0,0.0,0.0,0.0,-0.28955902840196235,0.17354303124929496,-0.0035909201976089913,0.0,0.0,0.0,0.0,0.0,0.0,0.0,0.0,0.0
5.274,150,5,275000000,base_footprint,-0.003813067427277847,0.0005670886003449121,0.9887680293198124,0.149408577807062,0.0,0.0,0.0,0.0,0.0,0.0,0.0,0.0,0.0,-0.00013277448493513453,-0.00011124836756843614,0.012302550018982382,0.0,0.0,0.0,0.0,0.0,0.0,0.0,0.0,0.0,0.18757671001479378,-0.13263304106000323,0.0019854860054287046,0.0,0.0,0.0,0.0,0.0,0.0,0.0,0.0,0.0
5.309,151,5,309000000,base_footprint,-0.003817910544198253,0.0005640623758839399,0.9888441221413364,0.14890402109829842,0.0,0.0,0.0,0.0,0.0,0.0,0.0,0.0,0.0,-0.0006857920719463099,0.00140783432688356,0.06808198931061767,0.0,0.0,0.0,0.0,0.0,0.0,0.0,0.0,0.0,0.036629191517994875,-0.02060414472406756,-0.0021383634347989775,0.0,0.0,0.0,0.0,0.0,0.0,0.0,0.0,0.0
5.342,152,5,343000000,base_footprint,-0.0038111920907287116,0.0005617066130891243,0.9890637630399469,0.14743823093685013,0.0,0.0,0.0,0.0,0.0,0.0,0.0,0.0,0.0,-0.0010327391800402093,-0.0010402355390809158,0.10218396918460039,0.0,0.0,0.0,0.0,0.0,0.0,0.0,0.0,0.0,-0.06306945626734213,0.0660951795041545,0.003477783438108043,0.0,0.0,0.0,0.0,0.0,0.0,0.0,0.0,0.0
5.377,153,5,377000000,base_footprint,-0.0038148740638294237,0.0005547515130634886,0.9893032770574911,0.14582237479188517,0.0,0.0,0.0,0.0,0.0,0.0,0.0,0.0,0.0,-0.0007296392430655976,0.00044443549731787197,0.09627997261121184,0.0,0.0,0.0,0.0,0.0,0.0,0.0,0.0,0.0,0.024594652647212844,0.007142952692773041,-0.0021204718899714785,0.0,0.0,0.0,0.0,0.0,0.0,0.0,0.0,0.0
5.411,154,5,411000000,base_footprint,-0.003810051038694779,0.0005523634120050055,0.9895452748847404,0.14417117381441788,0.0,0.0,0.0,0.0,0.0,0.0,0.0,0.0,0.0,-0.0009956676428120228,-0.00023673988946069314,0.10126848275488563,0.0,0.0,0.0,0.0,0.0,0.0,0.0,0.0,0.0,0.18224941599288386,-0.09462422011619052,0.0028074267451735765,0.0,0.0,0.0,0.0,0.0,0.0,0.0,0.0,0.0
5.445,155,5,445000000,base_footprint,-0.003816246447056566,0.0005458217258483793,0.9897001902372745,0.1431037098960104,0.0,0.0,0.0,0.0,0.0,0.0,0.0,0.0,0.0,-0.0003469126958685468,0.00012589272646588138,0.05259848151720453,0.0,0.0,0.0,0.0,0.0,0.0,0.0,0.0,0.0,0.131849721866515,-0.06863572206201352,0.00015553858693179634,0.0,0.0,0.0,0.0,0.0,0.0,0.0,0.0,0.0
5.479,156,5,479000000,base_footprint,-0.0038171854148990286,0.000543272282764397,0.9898264620811308,0.14222766578513074,0.0,0.0,0.0,0.0,0.0,0.0,0.0,0.0,0.0,-0.0002895399211019508,7.375022805071365e-06,0.051809043604302815,0.0,0.0,0.0,0.0,0.0,0.0,0.0,0.0,0.0,0.005760631851269343,0.009907096191249243,4.456296636011908e-05,0.0,0.0,0.0,0.0,0.0,0.0,0.0,0.0,0.0
5.513,157,5,513000000,base_footprint,-0.0038188648542512387,0.0005412843105742901,0.9899387156956685,0.14144420260063895,0.0,0.0,0.0,0.0,0.0,0.0,0.0,0.0,0.0,-0.00016674740526650796,-7.013612295772567e-05,0.037299363722520976,0.0,0.0,0.0,0.0,0.0,0.0,0.0,0.0,0.0,-0.003987074454073864,0.015560108529429535,0.00013947057185080544,0.0,0.0,0.0,0.0,0.0,0.0,0.0,0.0,0.0
5.547,158,5,547000000,base_footprint,-0.003812970739937465,0.0005333262194727856,0.9900011089401484,0.14100702505391915,0.0,0.0,0.0,0.0,0.0,0.0,0.0,0.0,0.0,-0.0003011631151187689,-0.00018784123378743598,0.024575373562322502,0.0,0.0,0.0,0.0,0.0,0.0,0.0,0.0,0.0,-0.018618505843795423,0.018290675845326045,0.00022429380769401597,0.0,0.0,0.0,0.0,0.0,0.0,0.0,0.0,0.0
5.581,159,5,581000000,base_footprint,-0.003817422366045988,0.0005345606605329862,0.9900884457228061,0.1403923472899349,0.0,0.0,0.0,0.0,0.0,0.0,0.0,0.0,0.0,-0.00036257844043095365,-0.0001778332259493535,0.042879719442726436,0.0,0.0,0.0,0.0,0.0,0.0,0.0,0.0,0.0,0.037785189299920134,-0.014854148069410633,0.00012409261768579308,0.0,0.0,0.0,0.0,0.0,0.0,0.0,0.0,0.0
5.615,160,5,615000000,base_footprint,-0.0038170218669823634,0.0005306934677109827,0.9901959469571092,0.13963214292641973,0.0,0.0,0.0,0.0,0.0,0.0,0.0,0.0,0.0,-0.000364075057572459,-8.68055362951224e-05,0.04677204339435728,0.0,0.0,0.0,0.0,0.0,0.0,0.0,0.0,0.0,0.005026966070794034,0.00847831202619076,-4.824512578636743e-05,0.0,0.0,0.0,0.0,0.0,0.0,0.0,0.0,0.0
5.649,161,5,649000000,base_footprint,-0.00381775850526457,0.0005271445944119034,0.9903070576572921,0.1388419187159589,0.0,0.0,0.0,0.0,0.0,0.0,0.0,0.0,0.0,-0.00040234460929403,2.0575602770815668e-05,0.046702866770881805,0.0,0.0,0.0,0.0,0.0,0.0,0.0,0.0,0.0,0.006504699419363679,0.008038236624737004,-0.00018158440922497516,0.0,0.0,0.0,0.0,0.0,0.0,0.0,0.0,0.0
5.682,162,5,683000000,base_footprint,-0.003818775908029875,0.000523636397412152,0.990417279484662,0.13805345071271735,0.0,0.0,0.0,0.0,0.0,0.0,0.0,0.0,0.0,-0.0004498812983885651,4.696200139311587e-05,0.04662310504906191,0.0,0.0,0.0,0.0,0.0,0.0,0.0,0.0,0.0,0.006454535492431719,0.008017023421197532,3.3328612638931214e-05,0.0,0.0,0.0,0.0,0.0,0.0,0.0,0.0,0.0
5.7170000000000005,163,5,717000000,base_footprint,-0.0038196319228988866,0.0005188994891119614,0.9905760507763579,0.13690956425176476,0.0,0.0,0.0,0.0,0.0,0.0,0.0,0.0,0.0,-0.0005963834256996787,0.0001722043825670925,0.0826680567130052,0.0,0.0,0.0,0.0,0.0,0.0,0.0,0.0,0.0,-0.0002081066685432546,0.0171553348433711,-4.113673271179673e-05,0.0,0.0,0.0,0.0,0.0,0.0,0.0,0.0,0.0
5.751,164,5,751000000,base_footprint,-0.003821351419284472,0.0005132327293564949,0.9907687873907469,0.13550772597075372,0.0,0.0,0.0,0.0,0.0,0.0,0.0,0.0,0.0,-0.0007912403837823242,0.0001784382871324867,0.08340672435765449,0.0,0.0,0.0,0.0,0.0,0.0,0.0,0.0,0.0,0.008409977680319453,0.016153293473565263,-3.0217053267252336e-05,0.0,0.0,0.0,0.0,0.0,0.0,0.0,0.0,0.0
5.785,165,5,785000000,base_footprint,-0.003823722686953419,0.0005073871109615096,0.9909607246669231,0.1340968451185177,0.0,0.0,0.0,0.0,0.0,0.0,0.0,0.0,0.0,-0.0007875551985011739,0.0002693452188039334,0.08438528400658553,0.0,0.0,0.0,0.0,0.0,0.0,0.0,0.0,0.0,0.008133043991104618,0.017120336739429375,-0.00010881670027936795,0.0,0.0,0.0,0.0,0.0,0.0,0.0,0.0,0.0
5.819,166,5,819000000,base_footprint,-0.003817859185133742,0.0005066848892957088,0.9911352302804799,0.13280106369500813,0.0,0.0,0.0,0.0,0.0,0.0,0.0,0.0,0.0,-0.0005837165275068958,0.00011609272503460878,0.06592906221074768,0.0,0.0,0.0,0.0,0.0,0.0,0.0,0.0,0.0,-0.001037353216182483,0.020275168164355747,0.00017765904409363775,0.0,0.0,0.0,0.0,0.0,0.0,0.0,0.0,0.0
5.852,167,5,853000000,base_footprint,-0.0038222086079329094,0.0005010989049279161,0.9912691545851171,0.13179758263850067,0.0,0.0,0.0,0.0,0.0,0.0,0.0,0.0,0.0,-0.00047451642942588235,0.00023869206240611428,0.05996678999948111,0.0,0.0,0.0,0.0,0.0,0.0,0.0,0.0,0.0,0.020643295358300826,0.0027821847423138064,-0.00019554851019164447,0.0,0.0,0.0,0.0,0.0,0.0,0.0,0.0,0.0
5.8870000000000005,168,5,887000000,base_footprint,-0.0038232441276600075,0.0004977168766942864,0.9914027173101528,0.13078909431713506,0.0,0.0,0.0,0.0,0.0,0.0,0.0,0.0,0.0,-0.0004648802432977643,2.32039749682432e-06,0.06012244665304382,0.0,0.0,0.0,0.0,0.0,0.0,0.0,0.0,0.0,0.006649104188850664,0.011336396901749316,0.000344886171253926,0.0,0.0,0.0,0.0,0.0,0.0,0.0,0.0,0.0
5.921,169,5,921000000,base_footprint,-0.0038263247510359104,0.00048740939796802573,0.9915833286561488,0.1294126114494654,0.0,0.0,0.0,0.0,0.0,0.0,0.0,0.0,0.0,-0.0009514416391541103,-0.0003043904701341743,0.12236086784252358,0.0,0.0,0.0,0.0,0.0,0.0,0.0,0.0,0.0,-0.3822969258285432,0.23956373714769788,-0.002244008804981209,0.0,0.0,0.0,0.0,0.0,0.0,0.0,0.0,0.0
5.955,170,5,955000000,base_footprint,-0.0038249340542433905,0.0004893931638470486,0.9917352779524994,0.12824300697617325,0.0,0.0,0.0,0.0,0.0,0.0,0.0,0.0,0.0,-0.0007818956573052522,-0.0006552970573019225,0.05022819378465215,0.0,0.0,0.0,0.0,0.0,0.0,0.0,0.0,0.0,0.10872112700119711,-0.04561668197369675,0.001078227972176987,0.0,0.0,0.0,0.0,0.0,0.0,0.0,0.0,0.0
5.989,171,5,989000000,base_footprint,-0.0038261571101079095,0.00048719167934689443,0.9918337521799706,0.12747914026473844,0.0,0.0,0.0,0.0,0.0,0.0,0.0,0.0,0.0,-0.0004179871484851737,-0.0001719627162657509,0.03605470659961975,0.0,0.0,0.0,0.0,0.0,0.0,0.0,0.0,0.0,-0.019168676867208547,0.022166356888058642,-0.0009223685807259977,0.0,0.0,0.0,0.0,0.0,0.0,0.0,0.0,0.0
6.023,172,6,23000000,base_footprint,-0.00382018871401912,0.0004777205177436441,0.9919480625686087,0.1265868046349225,0.0,0.0,0.0,0.0,0.0,0.0,0.0,0.0,0.0,-0.00045264773376094787,7.432895315914978e-05,0.06222018668590827,0.0,0.0,0.0,0.0,0.0,0.0,0.0,0.0,0.0,-0.05938830103852021,0.04536795144115385,-0.0008740633331992818,0.0,0.0,0.0,0.0,0.0,0.0,0.0,0.0,0.0
6.057,173,6,57000000,base_footprint,-0.003820713673721785,0.0004727727269346749,0.9921157933635892,0.12526544292624417,0.0,0.0,0.0,0.0,0.0,0.0,0.0,0.0,0.0,-0.0002877660567947102,3.258850505676388e-05,0.0994835625268307,0.0,0.0,0.0,0.0,0.0,0.0,0.0,0.0,0.0,0.07627346132114682,-0.02461076479004056,0.00016110436581796085,0.0,0.0,0.0,0.0,0.0,0.0,0.0,0.0,0.0
6.091,174,6,91000000,base_footprint,-0.0038248826763988874,0.0004687712167653929,0.9923307620861522,0.12355083627225898,0.0,0.0,0.0,0.0,0.0,0.0,0.0,0.0,0.0,-0.0007632686678189116,-2.4309237675210514e-05,0.10127852027415934,0.0,0.0,0.0,0.0,0.0,0.0,0.0,0.0,0.0,0.014956348339375553,0.01602145349664562,0.0006292747369995772,0.0,0.0,0.0,0.0,0.0,0.0,0.0,0.0,0.0
6.125,175,6,125000000,base_footprint,-0.003825931997178187,0.00046376765863178124,0.9924793791348304,0.12235125318546385,0.0,0.0,0.0,0.0,0.0,0.0,0.0,0.0,0.0,0.0002482105187065069,0.0008388016157786893,0.0689251295358294,0.0,0.0,0.0,0.0,0.0,0.0,0.0,0.0,0.0,0.31684077472968036,-0.15229268181041053,0.0011190438484801769,0.0,0.0,0.0,0.0,0.0,0.0,0.0,0.0,0.0
6.159,176,6,159000000,base_footprint,-0.003826689041235816,0.00045879863276089897,0.9926218225899925,0.1211901946236486,0.0,0.0,0.0,0.0,0.0,0.0,0.0,0.0,0.0,-0.0005857168657521331,5.202188784566618e-05,0.06862322309192297,0.0,0.0,0.0,0.0,0.0,0.0,0.0,0.0,0.0,0.007609658892092716,0.013130708249706738,0.001297686942697838,0.0,0.0,0.0,0.0,0.0,0.0,0.0,0.0,0.0
6.193,177,6,193000000,base_footprint,-0.003827884104160685,0.0004539376911004176,0.9927629118866651,0.12002892162377968,0.0,0.0,0.0,0.0,0.0,0.0,0.0,0.0,0.0,-0.0006411129310597306,6.107657989191034e-05,0.06875569572414755,0.0,0.0,0.0,0.0,0.0,0.0,0.0,0.0,0.0,0.007599304620642425,0.013009213751085586,6.867863957642694e-05,0.0,0.0,0.0,0.0,0.0,0.0,0.0,0.0,0.0
6.227,178,6,227000000,base_footprint,-0.003829167164234482,0.000447876563983716,0.9929449858326187,0.1185132566225081,0.0,0.0,0.0,0.0,0.0,0.0,0.0,0.0,0.0,-0.000865711446588925,0.00011360176239932185,0.09236356142051522,0.0,0.0,0.0,0.0,0.0,0.0,0.0,0.0,0.0,0.0031279544380667604,0.020232963805990475,-6.0768342149047957e-05,0.0,0.0,0.0,0.0,0.0,0.0,0.0,0.0,0.0
6.261,179,6,261000000,base_footprint,-0.0038307928135148973,0.00044168766977050817,0.9931305534078987,0.11694799624680824,0.0,0.0,0.0,0.0,0.0,0.0,0.0,0.0,0.0,-0.0008675533911328642,0.00021192762919138329,0.09302075882570329,0.0,0.0,0.0,0.0,0.0,0.0,0.0,0.0,0.0,0.008791055020920978,0.019323113368040816,-0.0001941626278490804,0.0,0.0,0.0,0.0,0.0,0.0,0.0,0.0,0.0
6.295,180,6,295000000,base_footprint,-0.0038326090802320682,0.000435657710613967,0.9933165883225429,0.11535717001236422,0.0,0.0,0.0,0.0,0.0,0.0,0.0,0.0,0.0,-0.0008158554359813335,-0.00014126252410783473,0.09872050029488387,0.0,0.0,0.0,0.0,0.0,0.0,0.0,0.0,0.0,-0.0037232791682488523,0.023813214395058145,0.0006118723954277715,0.0,0.0,0.0,0.0,0.0,0.0,0.0,0.0,0.0
6.329,181,6,329000000,base_footprint,-0.0038309595042907525,0.00043262531640344886,0.9934683925191623,0.1140424905463041,0.0,0.0,0.0,0.0,0.0,0.0,0.0,0.0,0.0,-0.0007258756231112028,0.0010519210685765586,0.06691473128834848,0.0,0.0,0.0,0.0,0.0,0.0,0.0,0.0,0.0,0.029419714563292933,0.004898642491552059,-0.0018972299122599387,0.0,0.0,0.0,0.0,0.0,0.0,0.0,0.0,0.0
6.363,182,6,363000000,base_footprint,-0.003832098545343903,0.0004284186521530494,0.9936014355365008,0.11287745026355818,0.0,0.0,0.0,0.0,0.0,0.0,0.0,0.0,0.0,-0.0005433307608110552,-3.939103827267503e-05,0.06960682525893218,0.0,0.0,0.0,0.0,0.0,0.0,0.0,0.0,0.0,0.0004675169214810547,0.016723051647485408,0.0016658168132296178,0.0,0.0,0.0,0.0,0.0,0.0,0.0,0.0,0.0
6.397,183,6,397000000,base_footprint,-0.0038327660242691197,0.0004248456270599481,0.9937336099321474,0.11170784172124677,0.0,0.0,0.0,0.0,0.0,0.0,0.0,0.0,0.0,-0.0001543473813497814,0.0007297711006387405,0.07233823284540504,0.0,0.0,0.0,0.0,0.0,0.0,0.0,0.0,0.0,0.0037080520599568384,0.015098350884252276,-0.0027494531303533356,0.0,0.0,0.0,0.0,0.0,0.0,0.0,0.0,0.0
6.43,184,6,431000000,base_footprint,-0.0038335525810690467,0.00042113653969478627,0.9938765679346612,0.11042868390523432,0.0,0.0,0.0,0.0,0.0,0.0,0.0,0.0,0.0,-0.0004156910416710911,8.93577452107197e-05,0.07480102307340594,0.0,0.0,0.0,0.0,0.0,0.0,0.0,0.0,0.0,0.006537523893352398,0.01602148662635721,0.00248172378665615,0.0,0.0,0.0,0.0,0.0,0.0,0.0,0.0,0.0
6.465,185,6,465000000,base_footprint,-0.003830149515511256,0.0004129116905725079,0.9939996522426938,0.10931537311846232,0.0,0.0,0.0,0.0,0.0,0.0,0.0,0.0,0.0,-0.0011469484102459974,-0.0010032147507136686,0.05389951491450223,0.0,0.0,0.0,0.0,0.0,0.0,0.0,0.0,0.0,-0.03263848640739278,0.0310910488843521,0.0012018728274942284,0.0,0.0,0.0,0.0,0.0,0.0,0.0,0.0,0.0
6.499,186,6,499000000,base_footprint,-0.00383002308873517,0.0004072814889308129,0.994105611439572,0.10834758118796803,0.0,0.0,0.0,0.0,0.0,0.0,0.0,0.0,0.0,-0.00028962999835709644,0.0003856586853888349,0.0780279265652875,0.0,0.0,0.0,0.0,0.0,0.0,0.0,0.0,0.0,0.012193078095953123,0.0075554410874258075,-0.0015677226027296465,0.0,0.0,0.0,0.0,0.0,0.0,0.0,0.0,0.0
6.533,187,6,533000000,base_footprint,-0.003831982758353865,0.0004045557362328937,0.9942715605407584,0.10681393234331041,0.0,0.0,0.0,0.0,0.0,0.0,0.0,0.0,0.0,-0.0005297514419875871,9.318132139762405e-05,0.09300169894448479,0.0,0.0,0.0,0.0,0.0,0.0,0.0,0.0,0.0,0.0377600927698589,0.004231736313292854,0.000720270585807689,0.0,0.0,0.0,0.0,0.0,0.0,0.0,0.0,0.0
6.567,188,6,567000000,base_footprint,-0.003832694913391238,0.00039819672865802733,0.994439192295287,0.10524183919033005,0.0,0.0,0.0,0.0,0.0,0.0,0.0,0.0,0.0,-0.0006577316045025945,-1.9578200857405708e-05,0.09278717406097163,0.0,0.0,0.0,0.0,0.0,0.0,0.0,0.0,0.0,0.00937531704965634,0.018089969586133247,0.0002325157358143024,0.0,0.0,0.0,0.0,0.0,0.0,0.0,0.0,0.0
6.601,189,6,601000000,base_footprint,-0.0038444807598296557,0.000396751358715066,0.9946037615562593,0.10367458731138715,0.0,0.0,0.0,0.0,0.0,0.0,0.0,0.0,0.0,5.777666170451892e-05,0.0006929310581410432,0.09065277254273477,0.0,0.0,0.0,0.0,0.0,0.0,0.0,0.0,0.0,-0.10712094499715144,0.06887495349780881,-0.0008005713356229636,0.0,0.0,0.0,0.0,0.0,0.0,0.0,0.0,0.0
6.635,190,6,635000000,base_footprint,-0.0038312245649298874,0.000385129628912964,0.994718291822003,0.1025704309643798,0.0,0.0,0.0,0.0,0.0,0.0,0.0,0.0,0.0,-0.0024094054266854304,-0.001512057264345359,0.0036989473696238447,0.0,0.0,0.0,0.0,0.0,0.0,0.0,0.0,0.0,-0.6238104432330938,0.28922479526742595,-0.003037341138495483,0.0,0.0,0.0,0.0,0.0,0.0,0.0,0.0,0.0
6.6690000000000005,191,6,669000000,base_footprint,-0.0038311284834358235,0.0003885372232361374,0.9946378824575607,0.10334725092477909,0.0,0.0,0.0,0.0,0.0,0.0,0.0,0.0,0.0,0.0005999508949430894,0.0003433968479945929,-0.030747993196756238,0.0,0.0,0.0,0.0,0.0,0.0,0.0,0.0,0.0,0.21484384516064992,-0.10408761267215264,-0.0011846524899204332,0.0,0.0,0.0,0.0,0.0,0.0,0.0,0.0,0.0
6.703,192,6,703000000,base_footprint,-0.0038350731591514065,0.0003867102726038465,0.9947287136611033,0.10246916066385958,0.0,0.0,0.0,0.0,0.0,0.0,0.0,0.0,0.0,-0.0011579391847621524,0.001084284048778197,0.10143346774179894,0.0,0.0,0.0,0.0,0.0,0.0,0.0,0.0,0.0,0.2161470161869216,-0.08460258830258852,0.000772880532008743,0.0,0.0,0.0,0.0,0.0,0.0,0.0,0.0,0.0
6.738,193,6,737000000,base_footprint,-0.00383695648052577,0.00037980467570917527,0.9949020900360865,0.10077184505208599,0.0,0.0,0.0,0.0,0.0,0.0,0.0,0.0,0.0,-0.0009322263875967693,9.883559540959946e-05,0.10041921087721165,0.0,0.0,0.0,0.0,0.0,0.0,0.0,0.0,0.0,0.011446644411645758,0.01791697211209877,0.0015586535953079216,0.0,0.0,0.0,0.0,0.0,0.0,0.0,0.0,0.0
6.771,194,6,771000000,base_footprint,-0.0038388018757918633,0.0003727481264767358,0.9950731634285254,0.09906827990502351,0.0,0.0,0.0,0.0,0.0,0.0,0.0,0.0,0.0,-0.0009171778095147156,0.00022482361134949457,0.10062273353809648,0.0,0.0,0.0,0.0,0.0,0.0,0.0,0.0,0.0,0.008468979018198496,0.01981593060526221,-0.00029519383670688137,0.0,0.0,0.0,0.0,0.0,0.0,0.0,0.0,0.0
6.798,195,6,805000000,base_footprint,-0.0038317099846822754,0.0003714347181427653,0.9952562482392736,0.09721203822330285,0.0,0.0,0.0,0.0,0.0,0.0,0.0,0.0,0.0,-0.0005069756300195295,0.001054268231645609,0.1473555194819994,0.0,0.0,0.0,0.0,0.0,0.0,0.0,0.0,0.0,0.06285519396018505,-0.001536552751507366,-5.2529905797960073e-05,0.0,0.0,0.0,0.0,0.0,0.0,0.0,0.0,0.0
6.839,196,6,839000000,base_footprint,-0.003833159693395941,0.00036036333426178523,0.9955393795307252,0.09426834478556888,0.0,0.0,0.0,0.0,0.0,0.0,0.0,0.0,0.0,-0.001159609431922775,9.693206009702839e-05,0.15760099830993385,0.0,0.0,0.0,0.0,0.0,0.0,0.0,0.0,0.0,0.18956830230953875,-0.03659809874842705,0.0023729370769187954,0.0,0.0,0.0,0.0,0.0,0.0,0.0,0.0,0.0
6.873,197,6,873000000,base_footprint,-0.003840026044691826,0.0003489994619553819,0.995749279623256,0.0920244778801736,0.0,0.0,0.0,0.0,0.0,0.0,0.0,0.0,0.0,-0.0008469372140934814,2.9410571395586572e-05,0.12657761206864737,0.0,0.0,0.0,0.0,0.0,0.0,0.0,0.0,0.0,0.08464436697240785,-0.0018589117487979806,0.000585870526347096,0.0,0.0,0.0,0.0,0.0,0.0,0.0,0.0,0.0
6.907,198,6,907000000,base_footprint,-0.0038415781104554764,0.00034197253429374473,0.9959468372115955,0.08986113053276734,0.0,0.0,0.0,0.0,0.0,0.0,0.0,0.0,0.0,-0.0010609427522201345,-7.63768733199049e-05,0.13299239922257913,0.0,0.0,0.0,0.0,0.0,0.0,0.0,0.0,0.0,0.008608571154041848,0.027283020505231174,0.000319298236638593,0.0,0.0,0.0,0.0,0.0,0.0,0.0,0.0,0.0
6.941,199,6,941000000,base_footprint,-0.0038390011083483406,0.0003299678201706003,0.9961352061811809,0.08774852818198224,0.0,0.0,0.0,0.0,0.0,0.0,0.0,0.0,0.0,-0.002211787780971782,-0.0009581607272590522,0.11239793755216222,0.0,0.0,0.0,0.0,0.0,0.0,0.0,0.0,0.0,-0.029475394860151688,0.03932612750836958,0.0016722078645368002,0.0,0.0,0.0,0.0,0.0,0.0,0.0,0.0,0.0
6.974,200,6,975000000,base_footprint,-0.0038366656694761364,0.0003207087987782087,0.9963045264334927,0.08580482358551483,0.0,0.0,0.0,0.0,0.0,0.0,0.0,0.0,0.0,-0.0008729085566125737,1.0299493109088722e-05,0.12516985683833326,0.0,0.0,0.0,0.0,0.0,0.0,0.0,0.0,0.0,0.03435111801255044,0.01408973861405421,-0.0017148871576509884,0.0,0.0,0.0,0.0,0.0,0.0,0.0,0.0,0.0
7.004,201,7,9000000,base_footprint,-0.0038380658386077014,0.0003131023033575092,0.9965159883280688,0.08331300153096474,0.0,0.0,0.0,0.0,0.0,0.0,0.0,0.0,0.0,-0.00014545713006497196,0.0021109737984509264,0.18351334762410867,0.0,0.0,0.0,0.0,0.0,0.0,0.0,0.0,0.0,0.01315552144036724,0.028723788577679994,-0.0028530409295360448,0.0,0.0,0.0,0.0,0.0,0.0,0.0,0.0,0.0
7.043,202,7,43000000,base_footprint,-0.0038412286156429827,0.00030187373975690675,0.9967699902904282,0.08021683296782132,0.0,0.0,0.0,0.0,0.0,0.0,0.0,0.0,0.0,-0.0013093737114460505,8.697263398229804e-05,0.18251100949049773,0.0,0.0,0.0,0.0,0.0,0.0,0.0,0.0,0.0,0.012217063746265567,0.038048328223823404,0.0029158425086203512,0.0,0.0,0.0,0.0,0.0,0.0,0.0,0.0,0.0
7.077,203,7,77000000,base_footprint,-0.003842189655888371,0.00028971126238479494,0.9970141705441848,0.07712261263808368,0.0,0.0,0.0,0.0,0.0,0.0,0.0,0.0,0.0,-0.0013415211652244357,5.165658315387196e-05,0.18241292449730273,0.0,0.0,0.0,0.0,0.0,0.0,0.0,0.0,0.0,0.013499332803987962,0.037506358180640256,9.190986091681636e-05,0.0,0.0,0.0,0.0,0.0,0.0,0.0,0.0,0.0
7.11,204,7,111000000,base_footprint,-0.0038434088386925,0.00027911267346012754,0.9972190559903165,0.07442650518730783,0.0,0.0,0.0,0.0,0.0,0.0,0.0,0.0,0.0,-0.0007970862219686401,0.0006304173060976853,0.124173125400972,0.0,0.0,0.0,0.0,0.0,0.0,0.0,0.0,0.0,0.02653254103665272,0.02892665381766609,-0.0007473142000851296,0.0,0.0,0.0,0.0,0.0,0.0,0.0,0.0,0.0
7.145,205,7,145000000,base_footprint,-0.0038443947207451056,0.00027071487748118165,0.9973739273092755,0.07232147997903583,0.0,0.0,0.0,0.0,0.0,0.0,0.0,0.0,0.0,-0.0010486460891545998,2.7481791218460097e-05,0.12401399321314464,0.0,0.0,0.0,0.0,0.0,0.0,0.0,0.0,0.0,0.00902814434734408,0.025550493236776894,0.0008477068164090233,0.0,0.0,0.0,0.0,0.0,0.0,0.0,0.0,0.0
7.179,206,7,179000000,base_footprint,-0.00384577744883822,0.00026234929489854617,0.9975242821204104,0.07021714711394471,0.0,0.0,0.0,0.0,0.0,0.0,0.0,0.0,0.0,-0.0010514372027525917,4.789625093716866e-05,0.1240507043719931,0.0,0.0,0.0,0.0,0.0,0.0,0.0,0.0,0.0,0.008582632572408135,0.025782921001624243,-6.05368307455812e-05,0.0,0.0,0.0,0.0,0.0,0.0,0.0,0.0,0.0
7.214,207,7,213000000,base_footprint,-0.003847154587245062,0.00025382946099682054,0.9976746159244542,0.06804774582731923,0.0,0.0,0.0,0.0,0.0,0.0,0.0,0.0,0.0,-0.0010760236671829488,-5.3964952240554e-05,0.13156677838614403,0.0,0.0,0.0,0.0,0.0,0.0,0.0,0.0,0.0,0.005922859633437769,0.027341319949395364,7.92608454246004e-05,0.0,0.0,0.0,0.0,0.0,0.0,0.0,0.0,0.0
7.247,208,7,247000000,base_footprint,-0.003848493753329203,0.00024525368992672807,0.9978248053715122,0.06580871319029082,0.0,0.0,0.0,0.0,0.0,0.0,0.0,0.0,0.0,-0.0010975481344144868,8.90492846525377e-05,0.13232780223412483,0.0,0.0,0.0,0.0,0.0,0.0,0.0,0.0,0.0,0.006565367258520741,0.028082256163808977,-0.00026998213323736124,0.0,0.0,0.0,0.0,0.0,0.0,0.0,0.0,0.0
7.281,209,7,281000000,base_footprint,-0.0038510073776338526,0.00023622877009082087,0.9979705867303522,0.06355959376225048,0.0,0.0,0.0,0.0,0.0,0.0,0.0,0.0,0.0,-0.0010837274156978536,0.00017709435889335374,0.1333978175115697,0.0,0.0,0.0,0.0,0.0,0.0,0.0,0.0,0.0,0.004994369874346825,0.02902814786374062,-0.00013851812488637014,0.0,0.0,0.0,0.0,0.0,0.0,0.0,0.0,0.0
7.315,210,7,315000000,base_footprint,-0.003850599318783983,0.0002244818558890436,0.9980992480449071,0.06150620736945042,0.0,0.0,0.0,0.0,0.0,0.0,0.0,0.0,0.0,-0.00069019805180729,-0.0001474801830057337,0.08806020239539318,0.0,0.0,0.0,0.0,0.0,0.0,0.0,0.0,0.0,-0.18214317022462923,0.07317517141985667,-0.0006100841101192833,0.0,0.0,0.0,0.0,0.0,0.0,0.0,0.0,0.0
7.349,211,7,349000000,base_footprint,-0.00385017409982681,0.00022603221285094667,0.9982009389055516,0.059833190094754254,0.0,0.0,0.0,0.0,0.0,0.0,0.0,0.0,0.0,-0.0009538659131719138,0.0015583109924721386,0.10481046392671307,0.0,0.0,0.0,0.0,0.0,0.0,0.0,0.0,0.0,-0.13362805505522835,0.054185669794589025,-0.004148773625369502,0.0,0.0,0.0,0.0,0.0,0.0,0.0,0.0,0.0
7.383,212,7,383000000,base_footprint,-0.003851910614035659,0.00021844802702432092,0.9983064340943995,0.05804634967683566,0.0,0.0,0.0,0.0,0.0,0.0,0.0,0.0,0.0,-0.0008516528222672196,-2.4805522593464085e-05,0.09672484464544825,0.0,0.0,0.0,0.0,0.0,0.0,0.0,0.0,0.0,-0.018545343220580216,0.027366182044766287,0.0025754848301653473,0.0,0.0,0.0,0.0,0.0,0.0,0.0,0.0,0.0
7.417,213,7,417000000,base_footprint,-0.0038450824866212534,0.00020787210550891075,0.9983883889292655,0.056619757868474334,0.0,0.0,0.0,0.0,0.0,0.0,0.0,0.0,0.0,-0.0006879533400897716,-1.539656847924828e-05,0.08308661184314663,0.0,0.0,0.0,0.0,0.0,0.0,0.0,0.0,0.0,-0.0015021981742544576,0.018038733911299235,-6.542216197219901e-05,0.0,0.0,0.0,0.0,0.0,0.0,0.0,0.0,0.0
7.451,214,7,451000000,base_footprint,-0.0038487670681285223,0.0002049387803302819,0.9984773705337139,0.05502804307107746,0.0,0.0,0.0,0.0,0.0,0.0,0.0,0.0,0.0,-0.0008491907905380852,-0.0003968119271042774,0.09727218056618024,0.0,0.0,0.0,0.0,0.0,0.0,0.0,0.0,0.0,0.03404861222852923,0.01196393048421699,0.0007034368934736642,0.0,0.0,0.0,0.0,0.0,0.0,0.0,0.0,0.0
7.486,215,7,485000000,base_footprint,-0.00384842045032677,0.0001984510402954459,0.9985672729653478,0.053371824399872196,0.0,0.0,0.0,0.0,0.0,0.0,0.0,0.0,0.0,-0.0006599954528702536,-8.40439563747584e-05,0.09749202306319851,0.0,0.0,0.0,0.0,0.0,0.0,0.0,0.0,0.0,0.006112707437530129,0.019370116292060653,-0.00031662524580329315,0.0,0.0,0.0,0.0,0.0,0.0,0.0,0.0,0.0
7.519,216,7,519000000,base_footprint,-0.003848958686218164,0.00019735449912548206,0.9985806096431593,0.05312167742955618,0.0,0.0,0.0,0.0,0.0,0.0,0.0,0.0,0.0,0.0005742878194592548,0.0001039597468567096,-0.0566109007248097,0.0,0.0,0.0,0.0,0.0,0.0,0.0,0.0,0.0,0.04467452534623203,-0.004839020663556808,-0.00012502489978924965,0.0,0.0,0.0,0.0,0.0,0.0,0.0,0.0,0.0
7.554,217,7,553000000,base_footprint,-0.0038445612593432607,0.0001968341508386253,0.9985654868689522,0.05340551506363962,0.0,0.0,0.0,0.0,0.0,0.0,0.0,0.0,0.0,-0.0003221318257321781,-1.4869916039011944e-05,0.05066173621002769,0.0,0.0,0.0,0.0,0.0,0.0,0.0,0.0,0.0,0.1868516136149784,-0.04543740513402663,0.0018967778288063444,0.0,0.0,0.0,0.0,0.0,0.0,0.0,0.0,0.0
7.587,218,7,587000000,base_footprint,-0.003848563241362316,0.0001920831962266752,0.998649121144434,0.051817801019269444,0.0,0.0,0.0,0.0,0.0,0.0,0.0,0.0,0.0,-0.000765749147931469,-0.0001609460012999239,0.10063155090717549,0.0,0.0,0.0,0.0,0.0,0.0,0.0,0.0,0.0,0.1083828997405625,-0.002735821831178396,0.0010357616989368568,0.0,0.0,0.0,0.0,0.0,0.0,0.0,0.0,0.0
7.621,219,7,621000000,base_footprint,-0.0038492351062970206,0.00018462575943827496,0.9987452661782391,0.04993037741679763,0.0,0.0,0.0,0.0,0.0,0.0,0.0,0.0,0.0,-0.0009614857958919005,-3.667257494127164e-05,0.11490040229029755,0.0,0.0,0.0,0.0,0.0,0.0,0.0,0.0,0.0,0.0023803372131498126,0.02422375233694368,-0.0002495002491642581,0.0,0.0,0.0,0.0,0.0,0.0,0.0,0.0,0.0
7.655,220,7,655000000,base_footprint,-0.003850213369556942,0.00017697384309058931,0.9988409063126015,0.047979041402351985,0.0,0.0,0.0,0.0,0.0,0.0,0.0,0.0,0.0,-0.0009501840937972116,-1.6232042593872985e-05,0.11481959179635545,0.0,0.0,0.0,0.0,0.0,0.0,0.0,0.0,0.0,0.00620416266173543,0.024416882170420998,-6.891824420340951e-05,0.0,0.0,0.0,0.0,0.0,0.0,0.0,0.0,0.0
7.689,221,7,689000000,base_footprint,-0.003851520290198655,0.00016929218798002448,0.9989327162962027,0.04602787682154913,0.0,0.0,0.0,0.0,0.0,0.0,0.0,0.0,0.0,-0.0009337505636213889,-4.2186697350899294e-06,0.114948927625286,0.0,0.0,0.0,0.0,0.0,0.0,0.0,0.0,0.0,0.005375033557294028,0.024613882243807,-9.305805359774971e-05,0.0,0.0,0.0,0.0,0.0,0.0,0.0,0.0,0.0
7.723,222,7,723000000,base_footprint,-0.003852159593459696,0.00016672837141091753,0.9989665165430495,0.04528831961954481,0.0,0.0,0.0,0.0,0.0,0.0,0.0,0.0,0.0,-0.000359500918830458,0.0005095810365475649,0.008801204869994828,0.0,0.0,0.0,0.0,0.0,0.0,0.0,0.0,0.0,0.02784889396684406,0.005620584879646042,-0.0009181958985669479,0.0,0.0,0.0,0.0,0.0,0.0,0.0,0.0,0.0
7.757,223,7,757000000,base_footprint,-0.003853399375741991,0.00016610075787611118,0.9989728473017844,0.0451483563106696,0.0,0.0,0.0,0.0,0.0,0.0,0.0,0.0,0.0,-0.00011042732051442811,-1.7105495090457478e-05,0.008537850890484672,0.0,0.0,0.0,0.0,0.0,0.0,0.0,0.0,0.0,0.0014654648756779731,0.0021637867649777188,0.0009062237508398107,0.0,0.0,0.0,0.0,0.0,0.0,0.0,0.0,0.0
7.791,224,7,791000000,base_footprint,-0.0038539469674267798,0.00016618372696692126,0.9989801181214357,0.044987143428133196,0.0,0.0,0.0,0.0,0.0,0.0,0.0,0.0,0.0,-2.1391967925829472e-05,-0.00019261447306433672,0.011758350762604843,0.0,0.0,0.0,0.0,0.0,0.0,0.0,0.0,0.0,-0.008484534209875844,0.0030754100168837867,0.00024830377970407524,0.0,0.0,0.0,0.0,0.0,0.0,0.0,0.0,0.0
7.825,225,7,825000000,base_footprint,-0.0038552656637104933,0.0001662596510871018,0.9989821447212862,0.04494200498920637,0.0,0.0,0.0,0.0,0.0,0.0,0.0,0.0,0.0,9.06792782060104e-05,-0.00034646246909059874,0.001838218000790738,0.0,0.0,0.0,0.0,0.0,0.0,0.0,0.0,0.0,0.0070095615265428814,0.0001412924409124867,0.0003223338861842714,0.0,0.0,0.0,0.0,0.0,0.0,0.0,0.0,0.0
7.859,226,7,859000000,base_footprint,-0.003852626066540144,0.0001661796490652595,0.9989770718772905,0.045054850129488275,0.0,0.0,0.0,0.0,0.0,0.0,0.0,0.0,0.0,-0.0007281602242575288,-0.0009319622273999327,-0.019225604687903283,0.0,0.0,0.0,0.0,0.0,0.0,0.0,0.0,0.0,-0.04593334339797567,0.0064285701341809665,0.0008767907961376716,0.0,0.0,0.0,0.0,0.0,0.0,0.0,0.0,0.0
7.893,227,7,893000000,base_footprint,-0.003847433253949369,0.0001643854562156894,0.998961048941762,0.04540917233283346,0.0,0.0,0.0,0.0,0.0,0.0,0.0,0.0,0.0,4.150690976515359e-05,-0.0001925208674944156,-0.01429459201219717,0.0,0.0,0.0,0.0,0.0,0.0,0.0,0.0,0.0,0.011424912159136144,-0.0065895827223061785,-0.0011819590403077994,0.0,0.0,0.0,0.0,0.0,0.0,0.0,0.0,0.0
7.926,228,7,927000000,base_footprint,-0.003850259392474096,0.0001671773445527575,0.9989647933262911,0.04532647404008751,0.0,0.0,0.0,0.0,0.0,0.0,0.0,0.0,0.0,-9.05258017453995e-05,-0.0004428310082416448,0.009403857111316498,0.0,0.0,0.0,0.0,0.0,0.0,0.0,0.0,0.0,0.02701543193573105,-0.0041483436555349185,0.0005352156859311182,0.0,0.0,0.0,0.0,0.0,0.0,0.0,0.0,0.0
7.961,229,7,961000000,base_footprint,-0.003849978752926617,0.0001666301302502126,0.9989722086935149,0.04516277400694313,0.0,0.0,0.0,0.0,0.0,0.0,0.0,0.0,0.0,1.1523301593500917e-05,-0.00015948660707022257,0.009547516775891612,0.0,0.0,0.0,0.0,0.0,0.0,0.0,0.0,0.0,0.002274469561042579,0.0016880192449937703,-0.00030134588731685325,0.0,0.0,0.0,0.0,0.0,0.0,0.0,0.0,0.0
7.995,230,7,995000000,base_footprint,-0.003849632192017972,0.00016595589168869567,0.9989795170912503,0.04500085802249574,0.0,0.0,0.0,0.0,0.0,0.0,0.0,0.0,0.0,1.0904654772908584e-05,-0.00015026661074498538,0.009440302316135728,0.0,0.0,0.0,0.0,0.0,0.0,0.0,0.0,0.0,0.00160110543496044,0.0018295922171542218,2.075466677822334e-05,0.0,0.0,0.0,0.0,0.0,0.0,0.0,0.0,0.0
8.029,231,8,29000000,base_footprint,-0.0038487834078897148,0.00016554574407707493,0.9989776224530758,0.04504297169244066,0.0,0.0,0.0,0.0,0.0,0.0,0.0,0.0,0.0,-0.00010259927897186999,-0.002695404117225897,-0.04874974979114299,0.0,0.0,0.0,0.0,0.0,0.0,0.0,0.0,0.0,-0.6514731107832062,0.11906716947382316,-0.0022665594739041846,0.0,0.0,0.0,0.0,0.0,0.0,0.0,0.0,0.0
8.063,232,8,63000000,base_footprint,-0.003850143894223523,0.00016729771544264348,0.9989625767217742,0.045375309507058904,0.0,0.0,0.0,0.0,0.0,0.0,0.0,0.0,0.0,-0.0002779711527457543,-0.0006995032109469137,0.01713734681872369,0.0,0.0,0.0,0.0,0.0,0.0,0.0,0.0,0.0,0.316049338224015,-0.06298227485612579,0.000380355918300972,0.0,0.0,0.0,0.0,0.0,0.0,0.0,0.0,0.0
8.097,233,8,97000000,base_footprint,-0.0038502966879697957,0.00016579948092517092,0.9989754773070069,0.04509039216046734,0.0,0.0,0.0,0.0,0.0,0.0,0.0,0.0,0.0,-0.0003954028022818532,0.0004066956149621619,0.0010059567968491265,0.0,0.0,0.0,0.0,0.0,0.0,0.0,0.0,0.0,0.0006117047141393672,0.003074783647473762,-0.0028676017606122264,0.0,0.0,0.0,0.0,0.0,0.0,0.0,0.0,0.0
8.131,234,8,131000000,base_footprint,-0.0038493451539366864,0.00016883642161247617,0.9989331236237248,0.04601921950117212,0.0,0.0,0.0,0.0,0.0,0.0,0.0,0.0,0.0,-0.0011208160922598197,-0.002596005255990487,-0.05678036923698675,0.0,0.0,0.0,0.0,0.0,0.0,0.0,0.0,0.0,0.043759762606474295,-0.019060882296583717,0.0006805839133817206,0.0,0.0,0.0,0.0,0.0,0.0,0.0,0.0,0.0
8.165,235,8,165000000,base_footprint,-0.0038512491727749824,0.00017059155797519965,0.99891781804711,0.04635009780281493,0.0,0.0,0.0,0.0,0.0,0.0,0.0,0.0,0.0,-0.00013058863538136095,-5.5552708844599194e-05,0.007960492747015588,0.0,0.0,0.0,0.0,0.0,0.0,0.0,0.0,0.0,0.29412368007288303,-0.059686684346462626,0.003771606180855748,0.0,0.0,0.0,0.0,0.0,0.0,0.0,0.0,0.0
8.2,236,8,199000000,base_footprint,-0.0038517801925094706,0.00017076209023156642,0.9989246430296369,0.04620272911603621,0.0,0.0,0.0,0.0,0.0,0.0,0.0,0.0,0.0,-0.00014674128598111933,-0.00028375304361555266,0.01533699275749806,0.0,0.0,0.0,0.0,0.0,0.0,0.0,0.0,0.0,0.001655819178230341,0.001455090518975454,0.0007429739468565772,0.0,0.0,0.0,0.0,0.0,0.0,0.0,0.0,0.0
8.233,237,8,233000000,base_footprint,-0.0038530543977427357,0.00016914928854451795,0.9989374657926402,0.045924555480747094,0.0,0.0,0.0,0.0,0.0,0.0,0.0,0.0,0.0,-0.00018843841267638598,-6.972056264867797e-06,0.016558129008161886,0.0,0.0,0.0,0.0,0.0,0.0,0.0,0.0,0.0,-0.002662710445111773,0.004709704332902423,-0.0009799339329113516,0.0,0.0,0.0,0.0,0.0,0.0,0.0,0.0,0.0
8.267,238,8,267000000,base_footprint,-0.00385423195550448,0.0001684864420508167,0.9989508663956858,0.045632039573756264,0.0,0.0,0.0,0.0,0.0,0.0,0.0,0.0,0.0,-0.0001150205536077757,-8.76139499540062e-05,0.019116036369082965,0.0,0.0,0.0,0.0,0.0,0.0,0.0,0.0,0.0,-0.007059428465914419,0.004300287951725076,8.270231669671808e-05,0.0,0.0,0.0,0.0,0.0,0.0,0.0,0.0,0.0
8.301,239,8,301000000,base_footprint,-0.0038569203098826315,0.00016831960135132719,0.9989653966551143,0.04531260442664082,0.0,0.0,0.0,0.0,0.0,0.0,0.0,0.0,0.0,-0.00015290181510864566,0.0008116554088270845,0.022103233540059577,0.0,0.0,0.0,0.0,0.0,0.0,0.0,0.0,0.0,0.0020849499411125065,0.004843334551853559,-0.000913753349915515,0.0,0.0,0.0,0.0,0.0,0.0,0.0,0.0,0.0
8.335,240,8,335000000,base_footprint,-0.003854319563998746,0.0001669893354848443,0.9989819844998503,0.04494564472784085,0.0,0.0,0.0,0.0,0.0,0.0,0.0,0.0,0.0,-0.0005294348390522785,-0.0004728133145409509,0.01024935013578343,0.0,0.0,0.0,0.0,0.0,0.0,0.0,0.0,0.0,-0.03419252887368789,0.010928307784032554,0.001568446957077372,0.0,0.0,0.0,0.0,0.0,0.0,0.0,0.0,0.0
8.369,241,8,369000000,base_footprint,-0.0038476329490178345,0.00016226370557079689,0.9989858280882391,0.044860725250878065,0.0,0.0,0.0,0.0,0.0,0.0,0.0,0.0,0.0,-0.00014976080627767096,-0.0001600304862235213,0.009509217123225942,0.0,0.0,0.0,0.0,0.0,0.0,0.0,0.0,0.0,-0.0010838339623453215,0.0011487242778267378,-0.0005416006048925572,0.0,0.0,0.0,0.0,0.0,0.0,0.0,0.0,0.0
8.401,242,8,403000000,base_footprint,-0.0038505740558771344,0.00016402523092576797,0.9990017512936368,0.04450446143265315,0.0,0.0,0.0,0.0,0.0,0.0,0.0,0.0,0.0,-0.000282651916545784,-0.00032018586226438664,0.02330519067470388,0.0,0.0,0.0,0.0,0.0,0.0,0.0,0.0,0.0,0.03231740302641094,-0.001366947896854499,0.00038439532024667965,0.0,0.0,0.0,0.0,0.0,0.0,0.0,0.0,0.0
8.437,243,8,437000000,base_footprint,-0.003850204846589812,0.00016255867512166477,0.999019529935094,0.04410360875915063,0.0,0.0,0.0,0.0,0.0,0.0,0.0,0.0,0.0,-9.403194873938243e-05,-0.00014621039502006275,0.02352059787564769,0.0,0.0,0.0,0.0,0.0,0.0,0.0,0.0,0.0,0.002694646959364652,0.004767400928770451,-8.939014762776756e-05,0.0,0.0,0.0,0.0,0.0,0.0,0.0,0.0,0.0
8.471,244,8,471000000,base_footprint,-0.0038498532161604744,0.00016097496690976017,0.9990370717078124,0.04370448570517012,0.0,0.0,0.0,0.0,0.0,0.0,0.0,0.0,0.0,-9.59837237670663e-05,-0.00014118450124352326,0.02341058487502431,0.0,0.0,0.0,0.0,0.0,0.0,0.0,0.0,0.0,0.002099993764365456,0.004831029974394019,3.1330463861765066e-05,0.0,0.0,0.0,0.0,0.0,0.0,0.0,0.0,0.0
8.505,245,8,505000000,base_footprint,-0.0038498550085179196,0.00015928985775432851,0.9990561291688498,0.043266661684364244,0.0,0.0,0.0,0.0,0.0,0.0,0.0,0.0,0.0,-0.0002600269605255156,-6.858040579054889e-05,0.03241323370643855,0.0,0.0,0.0,0.0,0.0,0.0,0.0,0.0,0.0,-0.0001703067593381674,0.005625009932685871,-7.077850563601746e-05,0.0,0.0,0.0,0.0,0.0,0.0,0.0,0.0,0.0
8.539,246,8,539000000,base_footprint,-0.003850023387243359,0.0001570149084718836,0.9990798036362383,0.04271649134013635,0.0,0.0,0.0,0.0,0.0,0.0,0.0,0.0,0.0,-0.00023270482126493488,-0.000155381490118251,0.032263088161183326,0.0,0.0,0.0,0.0,0.0,0.0,0.0,0.0,0.0,0.0026107846186788275,0.006809522251827582,0.00017483770305032277,0.0,0.0,0.0,0.0,0.0,0.0,0.0,0.0,0.0
8.573,247,8,573000000,base_footprint,-0.003850552396740153,0.00015475296822772727,0.9991031007757732,0.04216803668650006,0.0,0.0,0.0,0.0,0.0,0.0,0.0,0.0,0.0,-0.00030120310695261126,-0.00011571489484894258,0.03218109478882748,0.0,0.0,0.0,0.0,0.0,0.0,0.0,0.0,0.0,0.002496667397326131,0.006774261503004292,-0.00012525707017661429,0.0,0.0,0.0,0.0,0.0,0.0,0.0,0.0,0.0
8.607,248,8,607000000,base_footprint,-0.0038512701504184533,0.00015268977132347657,0.9991240365121441,0.041668982081906614,0.0,0.0,0.0,0.0,0.0,0.0,0.0,0.0,0.0,-0.0002938176521471307,-6.422289574540941e-05,0.0233137610844397,0.0,0.0,0.0,0.0,0.0,0.0,0.0,0.0,0.0,0.004721042429447463,0.005825489529276885,-0.00016245683557545643,0.0,0.0,0.0,0.0,0.0,0.0,0.0,0.0,0.0
8.641,249,8,641000000,base_footprint,-0.0038522255909860395,0.00015101336387183427,0.9991404891474525,0.04127251505723677,0.0,0.0,0.0,0.0,0.0,0.0,0.0,0.0,0.0,-0.00022677094027270762,-8.438971176815435e-05,0.0232074602520923,0.0,0.0,0.0,0.0,0.0,0.0,0.0,0.0,0.0,0.002183506492304435,0.0046660616082348965,-4.663845094157795e-05,0.0,0.0,0.0,0.0,0.0,0.0,0.0,0.0,0.0
8.675,250,8,675000000,base_footprint,-0.003852972570355772,0.00014960372969107983,0.9991566804984097,0.040878601205218856,0.0,0.0,0.0,0.0,0.0,0.0,0.0,0.0,0.0,-0.00023163972282188954,-4.0217073748573374e-05,0.02316679269004298,0.0,0.0,0.0,0.0,0.0,0.0,0.0,0.0,0.0,0.0019496160326148656,0.0047479566256751855,-0.00011994484440000082,0.0,0.0,0.0,0.0,0.0,0.0,0.0,0.0,0.0
8.709,251,8,709000000,base_footprint,-0.0038474151544412956,0.00015018981374000066,0.9991663479128831,0.04064214608114198,0.0,0.0,0.0,0.0,0.0,0.0,0.0,0.0,0.0,0.0003479178170295912,0.0005806674870411613,-0.022760636018659967,0.0,0.0,0.0,0.0,0.0,0.0,0.0,0.0,0.0,-0.13780282196936566,0.02809292993722322,-0.0015097909798447067,0.0,0.0,0.0,0.0,0.0,0.0,0.0,0.0,0.0
8.743,252,8,743000000,base_footprint,-0.003856091398890943,0.00015397936269275837,0.9991165830991163,0.04184686638000353,0.0,0.0,0.0,0.0,0.0,0.0,0.0,0.0,0.0,-0.0008335799095025242,0.001668528763644633,-0.06777168087766386,0.0,0.0,0.0,0.0,0.0,0.0,0.0,0.0,0.0,-0.14057781066663433,0.0062254368223435795,-0.004011650252671066,0.0,0.0,0.0,0.0,0.0,0.0,0.0,0.0,0.0
8.777,253,8,777000000,base_footprint,-0.0038566434924082586,0.000153172282687645,0.9991017380297872,0.0421997619078927,0.0,0.0,0.0,0.0,0.0,0.0,0.0,0.0,0.0,-7.697089706314588e-05,-0.0002465583815444825,0.019101640159097176,0.0,0.0,0.0,0.0,0.0,0.0,0.0,0.0,0.0,-0.03852862331014347,0.0019619139836591156,0.003694033404600016,0.0,0.0,0.0,0.0,0.0,0.0,0.0,0.0,0.0
8.811,254,8,811000000,base_footprint,-0.003854687970035279,0.00015463922367391406,0.9991140977999197,0.04190628884567144,0.0,0.0,0.0,0.0,0.0,0.0,0.0,0.0,0.0,-0.0005563061534607563,-0.0010793951912204884,0.003526889346867303,0.0,0.0,0.0,0.0,0.0,0.0,0.0,0.0,0.0,-0.07160770324861289,0.01649020083167318,0.0006519391292313138,0.0,0.0,0.0,0.0,0.0,0.0,0.0,0.0,0.0
8.845,255,8,845000000,base_footprint,-0.0038482788337162697,0.00015088444493674196,0.999113074709943,0.04193127624513649,0.0,0.0,0.0,0.0,0.0,0.0,0.0,0.0,0.0,-0.00010893386900715251,-0.0001478946260358054,0.002568768800402734,0.0,0.0,0.0,0.0,0.0,0.0,0.0,0.0,0.0,0.00012586803437719565,-0.0005036858171013108,-0.0014862800401102662,0.0,0.0,0.0,0.0,0.0,0.0,0.0,0.0,0.0
8.879,256,8,879000000,base_footprint,-0.0038518990148552756,0.00015319447208279446,0.9991244848474868,0.04165817067127577,0.0,0.0,0.0,0.0,0.0,0.0,0.0,0.0,0.0,-0.0003105239946635465,-0.0004485578096398776,0.021545781514851838,0.0,0.0,0.0,0.0,0.0,0.0,0.0,0.0,0.0,0.04050623210069238,-0.003765594745221891,0.000602885356367016,0.0,0.0,0.0,0.0,0.0,0.0,0.0,0.0,0.0
8.913,257,8,913000000,base_footprint,-0.0038509403438479355,0.0001535517767024592,0.9991205503472119,0.041752515543431346,0.0,0.0,0.0,0.0,0.0,0.0,0.0,0.0,0.0,0.0006453869719099276,0.000633285319803384,-0.038926673305137646,0.0,0.0,0.0,0.0,0.0,0.0,0.0,0.0,0.0,0.020990397978665146,-0.004036827024272584,-0.0012732807683776047,0.0,0.0,0.0,0.0,0.0,0.0,0.0,0.0,0.0
8.947,258,8,947000000,base_footprint,-0.003846439221668294,0.00015425320617281423,0.999091233286159,0.04244865936639813,0.0,0.0,0.0,0.0,0.0,0.0,0.0,0.0,0.0,0.00010610629444534963,-0.0014236813086090502,-0.018400892769135094,0.0,0.0,0.0,0.0,0.0,0.0,0.0,0.0,0.0,0.191925260400334,-0.04186941922881883,0.004326076421944477,0.0,0.0,0.0,0.0,0.0,0.0,0.0,0.0,0.0
8.981,259,8,981000000,base_footprint,-0.0038499666542856437,0.0001542303595880574,0.9991108496083485,0.0419840941862655,0.0,0.0,0.0,0.0,0.0,0.0,0.0,0.0,0.0,-0.0001612136372540832,0.00012824658027923877,0.03914545630295219,0.0,0.0,0.0,0.0,0.0,0.0,0.0,0.0,0.0,0.12167065384876986,-0.01526963258793476,-0.0009433838662445646,0.0,0.0,0.0,0.0,0.0,0.0,0.0,0.0,0.0
9.015,260,9,15000000,base_footprint,-0.0038501573160049617,0.00015181272716047547,0.9991366454092663,0.04136565050686636,0.0,0.0,0.0,0.0,0.0,0.0,0.0,0.0,0.0,-0.000232341215836327,-0.00016543869850242044,0.034120326988108345,0.0,0.0,0.0,0.0,0.0,0.0,0.0,0.0,0.0,0.003854104460750559,0.007489416953899453,0.0004090058909162933,0.0,0.0,0.0,0.0,0.0,0.0,0.0,0.0,0.0
9.049,261,9,49000000,base_footprint,-0.0038505863195621563,0.00014945188387712052,0.999160485233731,0.040785725402708715,0.0,0.0,0.0,0.0,0.0,0.0,0.0,0.0,0.0,-0.00026263429691334215,-0.0001445836176141379,0.03402012600595499,0.0,0.0,0.0,0.0,0.0,0.0,0.0,0.0,0.0,0.0025645231262289955,0.007181253576057133,-3.285903354653506e-05,0.0,0.0,0.0,0.0,0.0,0.0,0.0,0.0,0.0
9.084,262,9,83000000,base_footprint,-0.003851297197271955,0.00014709649494045365,0.9991839201473203,0.04020745691476961,0.0,0.0,0.0,0.0,0.0,0.0,0.0,0.0,0.0,-0.0003214540188025693,-9.2124302956663e-05,0.033948044388661364,0.0,0.0,0.0,0.0,0.0,0.0,0.0,0.0,0.0,0.0025075445097350797,0.007146463385507523,-0.00019821569192289453,0.0,0.0,0.0,0.0,0.0,0.0,0.0,0.0,0.0
9.117,263,9,117000000,base_footprint,-0.003852176623304024,0.0001430689381096522,0.9992245602847456,0.039184415145549836,0.0,0.0,0.0,0.0,0.0,0.0,0.0,0.0,0.0,-0.0006453576762909551,-1.1498732811059105e-05,0.07936781692575032,0.0,0.0,0.0,0.0,0.0,0.0,0.0,0.0,0.0,-0.00857372252973207,0.014279224070497847,-0.0002245212495997638,0.0,0.0,0.0,0.0,0.0,0.0,0.0,0.0,0.0
9.151,264,9,151000000,base_footprint,-0.0038534732184629483,0.00013783884135366856,0.9992766504669292,0.03783262581692081,0.0,0.0,0.0,0.0,0.0,0.0,0.0,0.0,0.0,-0.000652857720890994,-3.0482898263000363e-05,0.0797354923416486,0.0,0.0,0.0,0.0,0.0,0.0,0.0,0.0,0.0,0.00270666660116133,0.017214844404029664,-6.362290337574389e-05,0.0,0.0,0.0,0.0,0.0,0.0,0.0,0.0,0.0
9.185,265,9,185000000,base_footprint,-0.0038547643283184867,0.0001326810033280118,0.9993271344683768,0.03647466933293981,0.0,0.0,0.0,0.0,0.0,0.0,0.0,0.0,0.0,-0.0006952211771604122,4.095731358646606e-05,0.08010547677819052,0.0,0.0,0.0,0.0,0.0,0.0,0.0,0.0,0.0,0.0016849639326227577,0.017440435614337387,-0.00018631380895407657,0.0,0.0,0.0,0.0,0.0,0.0,0.0,0.0,0.0
9.219,266,9,219000000,base_footprint,-0.0038567033009776334,0.00012797143861146938,0.9993625526881708,0.035490812156702606,0.0,0.0,0.0,0.0,0.0,0.0,0.0,0.0,0.0,-7.447607554315375e-05,3.725569420510189e-05,0.040224544697619574,0.0,0.0,0.0,0.0,0.0,0.0,0.0,0.0,0.0,0.006293280631904878,0.013274037979018556,0.000332554335275383,0.0,0.0,0.0,0.0,0.0,0.0,0.0,0.0,0.0
9.253,267,9,253000000,base_footprint,-0.003853244932611057,0.00013038125548795005,0.999388521763231,0.03475223837570197,0.0,0.0,0.0,0.0,0.0,0.0,0.0,0.0,0.0,5.815032010091339e-05,-0.00027605802111159184,0.04125615895286315,0.0,0.0,0.0,0.0,0.0,0.0,0.0,0.0,0.0,-0.013939456545899965,0.011845564982417954,-6.07942886241524e-05,0.0,0.0,0.0,0.0,0.0,0.0,0.0,0.0,0.0
9.291,268,9,287000000,base_footprint,-0.0038528739496721605,0.00012352622656396444,0.9994048680771939,0.03427899892362908,0.0,0.0,0.0,0.0,0.0,0.0,0.0,0.0,0.0,-0.0013029255874430674,-0.0009724355738244974,0.016260314984362728,0.0,0.0,0.0,0.0,0.0,0.0,0.0,0.0,0.0,-0.031101683549279117,0.009516680247374336,0.0013234764159597145,0.0,0.0,0.0,0.0,0.0,0.0,0.0,0.0,0.0
9.321,269,9,321000000,base_footprint,-0.003859006633593786,0.00011969404771357789,0.9994351966448127,0.033382352353922784,0.0,0.0,0.0,0.0,0.0,0.0,0.0,0.0,0.0,-0.0010116690831344986,-0.0005482718075931844,0.1130026413532915,0.0,0.0,0.0,0.0,0.0,0.0,0.0,0.0,0.0,-0.25641884041900925,0.04511644585859003,-0.0026634953727840164,0.0,0.0,0.0,0.0,0.0,0.0,0.0,0.0,0.0
9.355,270,9,355000000,base_footprint,-0.0038482825549748063,0.00011026853607201067,0.9995031903836876,0.03128179942165924,0.0,0.0,0.0,0.0,0.0,0.0,0.0,0.0,0.0,-0.001062772567969307,-0.00016813242093331548,0.1356527644772897,0.0,0.0,0.0,0.0,0.0,0.0,0.0,0.0,0.0,0.09814823095641273,0.01370754398389747,0.00011721684983047087,0.0,0.0,0.0,0.0,0.0,0.0,0.0,0.0,0.0
9.389,271,9,389000000,base_footprint,-0.0038520088810609283,0.0001008313916312755,0.9995939702614516,0.028232011574790633,0.0,0.0,0.0,0.0,0.0,0.0,0.0,0.0,0.0,-0.0010163697626228206,0.0014765464297040864,0.21422748081701984,0.0,0.0,0.0,0.0,0.0,0.0,0.0,0.0,0.0,0.16995693327347036,0.017867292069895034,-0.0008318361881918384,0.0,0.0,0.0,0.0,0.0,0.0,0.0,0.0,0.0
9.423,272,9,423000000,base_footprint,-0.003855344737921541,8.902559732263264e-05,0.9996900665507403,0.02459469924945372,0.0,0.0,0.0,0.0,0.0,0.0,0.0,0.0,0.0,-0.0015323614853219529,0.0005967017308266564,0.17233598646114556,0.0,0.0,0.0,0.0,0.0,0.0,0.0,0.0,0.0,-0.6013568992570671,0.10704015666997331,-0.003354706248524601,0.0,0.0,0.0,0.0,0.0,0.0,0.0,0.0,0.0
9.457,273,9,457000000,base_footprint,-0.003849578515808969,7.524751391021167e-05,0.9997568850892243,0.021710499758269643,0.0,0.0,0.0,0.0,0.0,0.0,0.0,0.0,0.0,-0.0010532708905291186,0.0007177645881185637,0.2278157318750514,0.0,0.0,0.0,0.0,0.0,0.0,0.0,0.0,0.0,0.2670605163626052,0.009595845725355268,0.0018313849161856652,0.0,0.0,0.0,0.0,0.0,0.0,0.0,0.0,0.0
9.491,274,9,491000000,base_footprint,-0.0038524067065396055,6.120680595626287e-05,0.9998334954204757,0.017836385608301735,0.0,0.0,0.0,0.0,0.0,0.0,0.0,0.0,0.0,-0.0016747342158043204,-7.197362724059697e-05,0.2278868987913818,0.0,0.0,0.0,0.0,0.0,0.0,0.0,0.0,0.0,0.005460712919252502,0.04677424118327468,0.0010358721089718736,0.0,0.0,0.0,0.0,0.0,0.0,0.0,0.0,0.0
9.525,275,9,525000000,base_footprint,-0.003852395210043407,4.777015163064844e-05,0.9998897431595561,0.014340791242993466,0.0,0.0,0.0,0.0,0.0,0.0,0.0,0.0,0.0,-0.0014636437099303937,-0.00036890394530816813,0.18974328766654397,0.0,0.0,0.0,0.0,0.0,0.0,0.0,0.0,0.0,0.3540269991664855,0.022541272705933462,0.0030610318611899506,0.0,0.0,0.0,0.0,0.0,0.0,0.0,0.0,0.0
9.559,276,9,559000000,base_footprint,-0.0038535432651564273,3.5317296227255596e-05,0.99993079965741,0.011115073255929036,0.0,0.0,0.0,0.0,0.0,0.0,0.0,0.0,0.0,-0.0014289787120603862,-8.932433521474538e-05,0.18970944889586933,0.0,0.0,0.0,0.0,0.0,0.0,0.0,0.0,0.0,0.0033052267639698605,0.04131909407617787,-0.00047257443104688787,0.0,0.0,0.0,0.0,0.0,0.0,0.0,0.0,0.0
9.593,277,9,593000000,base_footprint,-0.003854416726605134,2.294107353254891e-05,0.9999614435930847,0.00789013768186588,0.0,0.0,0.0,0.0,0.0,0.0,0.0,0.0,0.0,-0.00146026183771559,-7.62299289924501e-05,0.18968011212606709,0.0,0.0,0.0,0.0,0.0,0.0,0.0,0.0,0.0,0.002856047813997217,0.04133880906785868,-0.00011368106701064002,0.0,0.0,0.0,0.0,0.0,0.0,0.0,0.0,0.0
9.627,278,9,627000000,base_footprint,-0.003855662731704096,1.2088997607096351e-05,0.9999798304598642,0.005047018151030892,0.0,0.0,0.0,0.0,0.0,0.0,0.0,0.0,0.0,-0.0012643935134331102,-5.3436982304838356e-05,0.16470421972887597,0.0,0.0,0.0,0.0,0.0,0.0,0.0,0.0,0.0,0.008565106552684613,0.036632106320647784,-5.8506336330409146e-05,0.0,0.0,0.0,0.0,0.0,0.0,0.0,0.0,0.0
9.661,279,9,661000000,base_footprint,-0.0038568338513645145,1.4915578184387314e-06,0.9999900376320859,0.0022471019108516424,0.0,0.0,0.0,0.0,0.0,0.0,0.0,0.0,0.0,-0.0012525559378370275,-5.7079183215767705e-05,0.16469848478057297,0.0,0.0,0.0,0.0,0.0,0.0,0.0,0.0,0.0,-0.0004655107986058875,0.03601339095201982,-8.201882721299975e-05,0.0,0.0,0.0,0.0,0.0,0.0,0.0,0.0,0.0
9.695,280,9,695000000,base_footprint,-0.00385805592140759,-8.837263747650326e-06,0.9999924060812311,-0.0005505508882349717,0.0,0.0,0.0,0.0,0.0,0.0,0.0,0.0,0.0,-0.0012115166308479682,6.37233148100573e-06,0.16429679056764462,0.0,0.0,0.0,0.0,0.0,0.0,0.0,0.0,0.0,-0.0024599046358897304,0.03591704587985994,-0.00020357252700806423,0.0,0.0,0.0,0.0,0.0,0.0,0.0,0.0,0.0
9.729,281,9,729000000,base_footprint,-0.003858342059942461,-1.6282736575314394e-05,0.9999887216791069,-0.0027693764653677045,0.0,0.0,0.0,0.0,0.0,0.0,0.0,0.0,0.0,-0.0012227011993776425,-4.93776355995016e-05,0.11352378282895316,0.0,0.0,0.0,0.0,0.0,0.0,0.0,0.0,0.0,-0.017242682500874913,0.02992944472023918,0.00021262805318363398,0.0,0.0,0.0,0.0,0.0,0.0,0.0,0.0,0.0
9.763,282,9,763000000,base_footprint,-0.0038531700981720997,-2.9570997945198367e-05,0.9999817833542014,-0.004645983803431415,0.0,0.0,0.0,0.0,0.0,0.0,0.0,0.0,0.0,-0.0005916095242875116,-0.0008473762003240822,0.12522602639542965,0.0,0.0,0.0,0.0,0.0,0.0,0.0,0.0,0.0,-0.03418015131537937,0.022848373301064876,0.0012049010104109212,0.0,0.0,0.0,0.0,0.0,0.0,0.0,0.0,0.0
9.8,283,9,797000000,base_footprint,-0.003856134409210719,-3.2944983727942694e-05,0.9999684938247424,-0.006938335529665594,0.0,0.0,0.0,0.0,0.0,0.0,0.0,0.0,0.0,0.0025597656558707348,-0.0006669099626816223,0.13297868233294619,0.0,0.0,0.0,0.0,0.0,0.0,0.0,0.0,0.0,0.0462504467228521,0.03107223115764191,0.000980405612194726,0.0,0.0,0.0,0.0,0.0,0.0,0.0,0.0,0.0
9.829,284,9,831000000,base_footprint,-0.0038546638737040283,-4.254104292949439e-05,0.9999521470289369,-0.00899129628584509,0.0,0.0,0.0,0.0,0.0,0.0,0.0,0.0,0.0,-0.0009427392025842105,9.797311515234226e-06,0.121005584735332,0.0,0.0,0.0,0.0,0.0,0.0,0.0,0.0,0.0,0.008274924920013535,0.025783716513019396,-0.0021404059167137056,0.0,0.0,0.0,0.0,0.0,0.0,0.0,0.0,0.0
9.872,285,9,865000000,base_footprint,-0.0038536277868093044,-5.020504185062274e-05,0.9999315386513506,-0.011048304968503463,0.0,0.0,0.0,0.0,0.0,0.0,0.0,0.0,0.0,-0.0009101825058190859,-0.00012501098142130685,0.12100160798559133,0.0,0.0,0.0,0.0,0.0,0.0,0.0,0.0,0.0,-0.0004297573547758642,0.0264783004473173,0.00025216492963662824,0.0,0.0,0.0,0.0,0.0,0.0,0.0,0.0,0.0
9.899000000000001,286,9,899000000,base_footprint,-0.003852113709330277,-5.5862200535197526e-05,0.9999071167881988,-0.013073480626700591,0.0,0.0,0.0,0.0,0.0,0.0,0.0,0.0,0.0,-0.0010368339149584834,-0.0010485113549623568,0.09693191572833067,0.0,0.0,0.0,0.0,0.0,0.0,0.0,0.0,0.0,0.0048564317213514,0.026306697850428787,0.000871970412960922,0.0,0.0,0.0,0.0,0.0,0.0,0.0,0.0,0.0
9.935,287,9,933000000,base_footprint,-0.0038526258740287198,-6.373222293291092e-05,0.9998843366824627,-0.0147127995007774,0.0,0.0,0.0,0.0,0.0,0.0,0.0,0.0,0.0,-0.0006630835158363917,-0.00021266647321226847,0.09697336472969957,0.0,0.0,0.0,0.0,0.0,0.0,0.0,0.0,0.0,0.001262136042678439,0.02049798033404516,-0.00041092954361680406,0.0,0.0,0.0,0.0,0.0,0.0,0.0,0.0,0.0
9.967,288,9,967000000,base_footprint,-0.0038523408103298255,-7.006738252478272e-05,0.9998588075807133,-0.016356022258394005,0.0,0.0,0.0,0.0,0.0,0.0,0.0,0.0,0.0,-0.0006945625954080503,-0.00020476112110145834,0.09661308101660429,0.0,0.0,0.0,0.0,0.0,0.0,0.0,0.0,0.0,9.676937972986303e-06,0.022267476947105243,-5.5925351391166785e-05,0.0,0.0,0.0,0.0,0.0,0.0,0.0,0.0,0.0
10.001,289,10,1000000,base_footprint,-0.003852245515631742,-7.626600279278807e-05,0.9998309710368456,-0.01797731190981123,0.0,0.0,0.0,0.0,0.0,0.0,0.0,0.0,0.0,-0.0005635901383138006,-6.947803336216572e-05,0.088312740956272,0.0,0.0,0.0,0.0,0.0,0.0,0.0,0.0,0.0,0.002024801576916743,0.02124082590280192,-0.00017080498104148927,0.0,0.0,0.0,0.0,0.0,0.0,0.0,0.0,0.0
10.038,290,10,35000000,base_footprint,-0.0038529008842545804,-8.212840759677679e-05,0.9998028435786769,-0.019478767458251695,0.0,0.0,0.0,0.0,0.0,0.0,0.0,0.0,0.0,-0.0006197010569604243,-0.00014478497282938737,0.08831783254214431,0.0,0.0,0.0,0.0,0.0,0.0,0.0,0.0,0.0,-9.27648776428531e-05,0.01937110393574248,-9.394972944016369e-05,0.0,0.0,0.0,0.0,0.0,0.0,0.0,0.0,0.0
10.069,291,10,69000000,base_footprint,-0.003853570957998853,-8.793729800862804e-05,0.9997724863103745,-0.02097898650258121,0.0,0.0,0.0,0.0,0.0,0.0,0.0,0.0,0.0,-0.0006461308700175186,-0.00011888495028981159,0.08825774916013626,0.0,0.0,0.0,0.0,0.0,0.0,0.0,0.0,0.0,-0.0001712662230419234,0.019391424693856955,-0.0001451011371392424,0.0,0.0,0.0,0.0,0.0,0.0,0.0,0.0,0.0
10.103,292,10,103000000,base_footprint,-0.0038516232223119316,-9.726234129039008e-05,0.9997428532094106,-0.02234687887150106,0.0,0.0,0.0,0.0,0.0,0.0,0.0,0.0,0.0,0.00013269035495604782,-0.0003525311156600683,0.02340126335999996,0.0,0.0,0.0,0.0,0.0,0.0,0.0,0.0,0.0,0.025368921474933907,0.020739416575631525,0.0012290206927122352,0.0,0.0,0.0,0.0,0.0,0.0,0.0,0.0,0.0
10.137,293,10,137000000,base_footprint,-0.0038558262133383827,-9.35511699886346e-05,0.9997428635448342,-0.022345707497553997,0.0,0.0,0.0,0.0,0.0,0.0,0.0,0.0,0.0,3.639114014909794e-05,-6.89611863305793e-05,-0.00041514595566603633,0.0,0.0,0.0,0.0,0.0,0.0,0.0,0.0,0.0,-0.003876396021197952,-0.00023389134073667234,-0.0012378924753140951,0.0,0.0,0.0,0.0,0.0,0.0,0.0,0.0,0.0
10.171,294,10,171000000,base_footprint,-0.003856813975333643,-9.374465367981605e-05,0.999743027993173,-0.02233817756535257,0.0,0.0,0.0,0.0,0.0,0.0,0.0,0.0,0.0,3.238761777393224e-05,-5.451282143377752e-06,-0.0006580740289269692,0.0,0.0,0.0,0.0,0.0,0.0,0.0,0.0,0.0,-0.0028723954295487263,-0.00041514260979095175,-0.00018622925850916698,0.0,0.0,0.0,0.0,0.0,0.0,0.0,0.0,0.0
10.205,295,10,205000000,base_footprint,-0.0038530410727254066,-8.7540307207002e-05,0.9997434038037981,-0.022322028626056672,0.0,0.0,0.0,0.0,0.0,0.0,0.0,0.0,0.0,-0.00034007845844300785,-0.0006100135197639092,0.0016887972871832018,0.0,0.0,0.0,0.0,0.0,0.0,0.0,0.0,0.0,-0.05251391701743755,-0.004499471472524615,0.0008237478860097182,0.0,0.0,0.0,0.0,0.0,0.0,0.0,0.0,0.0
10.239,296,10,239000000,base_footprint,-0.0038582342927787074,-9.524955167560984e-05,0.9997452728063622,-0.022237231324908385,0.0,0.0,0.0,0.0,0.0,0.0,0.0,0.0,0.0,0.00039542481474663226,0.0006885434090688144,0.0065576865684885775,0.0,0.0,0.0,0.0,0.0,0.0,0.0,0.0,0.0,-0.12927084347108372,-0.013981953981715822,-0.002644756568109272,0.0,0.0,0.0,0.0,0.0,0.0,0.0,0.0,0.0
10.274000000000001,297,10,273000000,base_footprint,-0.0038582442694053377,-9.758046117043094e-05,0.9997304890897374,-0.02289221731518815,0.0,0.0,0.0,0.0,0.0,0.0,0.0,0.0,0.0,0.0004411189563990857,-0.0007463695529741239,0.07700457381771093,0.0,0.0,0.0,0.0,0.0,0.0,0.0,0.0,0.0,-0.19139096610550937,-0.008669890723261128,0.0014342330814356291,0.0,0.0,0.0,0.0,0.0,0.0,0.0,0.0,0.0
10.307,298,10,307000000,base_footprint,-0.003847289092189772,-9.758778580265809e-05,0.9997071442145652,-0.023891727639996346,0.0,0.0,0.0,0.0,0.0,0.0,0.0,0.0,0.0,-0.0005399075308911037,-0.0036121842536411546,-0.0018202955467958085,0.0,0.0,0.0,0.0,0.0,0.0,0.0,0.0,0.0,-0.0007781920694855335,0.013056257167054146,0.0017982059569613658,0.0,0.0,0.0,0.0,0.0,0.0,0.0,0.0,0.0
10.343,299,10,341000000,base_footprint,-0.003852866256922547,-9.90483150262561e-05,0.9997109499715241,-0.023731037020547043,0.0,0.0,0.0,0.0,0.0,0.0,0.0,0.0,0.0,7.728186376872375e-05,-0.00015060601215302223,-0.00986537880616103,0.0,0.0,0.0,0.0,0.0,0.0,0.0,0.0,0.0,0.030563927341087076,0.0005710865207687321,-0.0035817844247925303,0.0,0.0,0.0,0.0,0.0,0.0,0.0,0.0,0.0
10.375,300,10,375000000,base_footprint,-0.0038522931585078224,-9.837353208287544e-05,0.9997149831733599,-0.023560614991076322,0.0,0.0,0.0,0.0,0.0,0.0,0.0,0.0,0.0,5.3244466509934314e-05,-0.00012114073892241454,-0.010133847388224345,0.0,0.0,0.0,0.0,0.0,0.0,0.0,0.0,0.0,0.0017272177940751976,-0.001924184442250075,4.958602268958454e-05,0.0,0.0,0.0,0.0,0.0,0.0,0.0,0.0,0.0
10.408,301,10,409000000,base_footprint,-0.003848342022247762,-9.790264001107372e-05,0.9997168566029863,-0.02348163756208517,0.0,0.0,0.0,0.0,0.0,0.0,0.0,0.0,0.0,-0.000819269951309279,0.0013639685065841055,0.02696514597313046,0.0,0.0,0.0,0.0,0.0,0.0,0.0,0.0,0.0,0.24201260779486714,0.021627356246295918,-0.00043634337780273295,0.0,0.0,0.0,0.0,0.0,0.0,0.0,0.0,0.0
10.443,302,10,443000000,base_footprint,-0.003851604499383278,-0.0001018074861653909,0.9996916370195206,-0.024531319802395528,0.0,0.0,0.0,0.0,0.0,0.0,0.0,0.0,0.0,-0.00043361646642112184,-0.00027808200278592305,0.06450754738784233,0.0,0.0,0.0,0.0,0.0,0.0,0.0,0.0,0.0,0.07857672761198636,0.020615717026766383,0.0032648339658662294,0.0,0.0,0.0,0.0,0.0,0.0,0.0,0.0,0.0
10.478,303,10,477000000,base_footprint,-0.003851720412862468,-0.00010595685920200497,0.9996641745044547,-0.025625987499653734,0.0,0.0,0.0,0.0,0.0,0.0,0.0,0.0,0.0,-0.0004039737185933357,-0.00017578898011377388,0.06440523147152147,0.0,0.0,0.0,0.0,0.0,0.0,0.0,0.0,0.0,-5.8330535480921315e-05,0.014196560795406812,-0.00016952658376380545,0.0,0.0,0.0,0.0,0.0,0.0,0.0,0.0,0.0
10.511,304,10,511000000,base_footprint,-0.003852648587968008,-0.00010843747864892576,0.9996480685733178,-0.02624660621502072,0.0,0.0,0.0,0.0,0.0,0.0,0.0,0.0,0.0,0.00019254729593412378,-0.00038070837854872324,-0.009190516186794784,0.0,0.0,0.0,0.0,0.0,0.0,0.0,0.0,0.0,0.02004083853816441,0.011131611484000837,0.00021896816182106232,0.0,0.0,0.0,0.0,0.0,0.0,0.0,0.0,0.0
10.545,305,10,545000000,base_footprint,-0.003853030548246602,-0.00010778072528569987,0.9996521714102482,-0.02608982049929609,0.0,0.0,0.0,0.0,0.0,0.0,0.0,0.0,0.0,0.00011930547609418098,-8.550631417586163e-05,-0.009230741547123052,0.0,0.0,0.0,0.0,0.0,0.0,0.0,0.0,0.0,0.0012974553804014069,-0.002045953472122874,-0.0003732117362692483,0.0,0.0,0.0,0.0,0.0,0.0,0.0,0.0,0.0
10.579,306,10,579000000,base_footprint,-0.003854111481217235,-0.00010716252957220904,0.9996563072005458,-0.025930711811492937,0.0,0.0,0.0,0.0,0.0,0.0,0.0,0.0,0.0,0.00011368637006863255,-6.886370718219743e-05,-0.009488248270974761,0.0,0.0,0.0,0.0,0.0,0.0,0.0,0.0,0.0,0.0010379433430250694,-0.001967028490049794,-0.00010347895816504314,0.0,0.0,0.0,0.0,0.0,0.0,0.0,0.0,0.0
10.613,307,10,613000000,base_footprint,-0.003854251133101562,-0.00010954663734349238,0.9996475961452426,-0.02626435357619066,0.0,0.0,0.0,0.0,0.0,0.0,0.0,0.0,0.0,-0.0007108829165708569,-0.0008691481765645964,0.0671338849258399,0.0,0.0,0.0,0.0,0.0,0.0,0.0,0.0,0.0,-0.012093188365530628,0.0020655186813388284,0.0008836326572857846,0.0,0.0,0.0,0.0,0.0,0.0,0.0,0.0,0.0
10.649000000000001,308,10,647000000,base_footprint,-0.0038561888790142823,-0.00011285855491639241,0.9996180821577554,-0.027364336160902725,0.0,0.0,0.0,0.0,0.0,0.0,0.0,0.0,0.0,-0.00045294484487888966,-2.85528608821829e-05,0.06632086777981361,0.0,0.0,0.0,0.0,0.0,0.0,0.0,0.0,0.0,-0.006696721614603105,0.013492195694769346,-0.001250506831698434,0.0,0.0,0.0,0.0,0.0,0.0,0.0,0.0,0.0
10.681000000000001,309,10,681000000,base_footprint,-0.003855861710492941,-0.00011872005185389402,0.9995876522709394,-0.028454238058510283,0.0,0.0,0.0,0.0,0.0,0.0,0.0,0.0,0.0,-0.0008165476141512951,-0.0005628960577450267,0.059756289589064794,0.0,0.0,0.0,0.0,0.0,0.0,0.0,0.0,0.0,-0.019089798784862052,0.012242152462247222,0.0005325096110123203,0.0,0.0,0.0,0.0,0.0,0.0,0.0,0.0,0.0
10.715,310,10,715000000,base_footprint,-0.0038555087562786284,-0.0001234579223033353,0.9995552944233587,-0.02956912580047965,0.0,0.0,0.0,0.0,0.0,0.0,0.0,0.0,0.0,8.671479622613737e-05,2.7515203554083064e-05,0.07234258668578378,0.0,0.0,0.0,0.0,0.0,0.0,0.0,0.0,0.0,-0.03368350202341164,0.011284076955526273,-0.00034164547585960054,0.0,0.0,0.0,0.0,0.0,0.0,0.0,0.0,0.0
10.749,311,10,749000000,base_footprint,-0.003848158375862682,-0.00012230768674322836,0.9995169308091303,-0.03083961322455586,0.0,0.0,0.0,0.0,0.0,0.0,0.0,0.0,0.0,-7.736077018556477e-05,-0.00030385596091515345,0.0676570452768957,0.0,0.0,0.0,0.0,0.0,0.0,0.0,0.0,0.0,0.007703246056770854,0.017244728525832663,0.0006662465007984558,0.0,0.0,0.0,0.0,0.0,0.0,0.0,0.0,0.0
10.783,312,10,783000000,base_footprint,-0.0038522774811357223,-0.00012983900916160756,0.9994859994115364,-0.03182577697971472,0.0,0.0,0.0,0.0,0.0,0.0,0.0,0.0,0.0,-0.00037307297015824623,-0.00028110752420683447,0.056602882094354996,0.0,0.0,0.0,0.0,0.0,0.0,0.0,0.0,0.0,0.027895347687522585,0.01579875261607868,-0.00036364450062557733,0.0,0.0,0.0,0.0,0.0,0.0,0.0,0.0,0.0
10.817,313,10,817000000,base_footprint,-0.003861909523319222,-0.00013426333015676748,0.9994620672789768,-0.032567525214944215,0.0,0.0,0.0,0.0,0.0,0.0,0.0,0.0,0.0,-0.00010794649716277869,-0.0005180967727507437,0.01835807732591724,0.0,0.0,0.0,0.0,0.0,0.0,0.0,0.0,0.0,-0.45512458774969633,-0.04994950591432764,-0.002956720716877019,0.0,0.0,0.0,0.0,0.0,0.0,0.0,0.0,0.0
10.851,314,10,851000000,base_footprint,-0.0038443016451220123,-0.0001331676358150747,0.9994406028220191,-0.0332217555526705,0.0,0.0,0.0,0.0,0.0,0.0,0.0,0.0,0.0,-0.00013034910793171216,0.0019584764526151617,0.06776427863565065,0.0,0.0,0.0,0.0,0.0,0.0,0.0,0.0,0.0,0.08045538814886083,0.01848578596940572,-0.0021190219522623736,0.0,0.0,0.0,0.0,0.0,0.0,0.0,0.0,0.0
10.885,315,10,885000000,base_footprint,-0.003850699509725511,-0.0001386855781948379,0.9994100478510438,-0.03412783517849475,0.0,0.0,0.0,0.0,0.0,0.0,0.0,0.0,0.0,-0.0004302020302196785,-0.000191551670436814,0.0526235328122666,0.0,0.0,0.0,0.0,0.0,0.0,0.0,0.0,0.0,0.03776035258312937,0.01650476091099297,0.002470220595193643,0.0,0.0,0.0,0.0,0.0,0.0,0.0,0.0,0.0
10.919,316,10,919000000,base_footprint,-0.0038504561042467665,-0.00014195288458015762,0.9993794708270768,-0.03501181409981214,0.0,0.0,0.0,0.0,0.0,0.0,0.0,0.0,0.0,-0.0003585959511100915,-0.0001905307687654436,0.05181673634347095,0.0,0.0,0.0,0.0,0.0,0.0,0.0,0.0,0.0,-0.00010766896624032001,0.010928077981825312,0.00011360515774542928,0.0,0.0,0.0,0.0,0.0,0.0,0.0,0.0,0.0
10.953,317,10,953000000,base_footprint,-0.0038504160643560432,-0.00014522958979158376,0.9993483100604439,-0.035890226856800204,0.0,0.0,0.0,0.0,0.0,0.0,0.0,0.0,0.0,-0.00032425582073061424,-0.00019720207812027745,0.051727485490991924,0.0,0.0,0.0,0.0,0.0,0.0,0.0,0.0,0.0,-0.0002465134068998944,0.010816850425333806,2.471904213303872e-05,0.0,0.0,0.0,0.0,0.0,0.0,0.0,0.0,0.0
10.987,318,10,987000000,base_footprint,-0.0038506758662313787,-0.00014853448402353094,0.9993164307103004,-0.03676712587768971,0.0,0.0,0.0,0.0,0.0,0.0,0.0,0.0,0.0,-0.0002658622099893851,-0.00014943481755711987,0.05160867934216008,0.0,0.0,0.0,0.0,0.0,0.0,0.0,0.0,0.0,-0.00029205241176909745,0.010844610682297095,-0.0001478577347500172,0.0,0.0,0.0,0.0,0.0,0.0,0.0,0.0,0.0
11.021,319,11,21000000,base_footprint,-0.003851227582777057,-0.00015149696272731653,0.9992874720454573,-0.03754588270071022,0.0,0.0,0.0,0.0,0.0,0.0,0.0,0.0,0.0,-0.000262594383656156,-0.00011927417346357197,0.04376055733691587,0.0,0.0,0.0,0.0,0.0,0.0,0.0,0.0,0.0,0.0019418757861542275,0.009998883963028787,-0.0001575130520785877,0.0,0.0,0.0,0.0,0.0,0.0,0.0,0.0,0.0
11.055,320,11,55000000,base_footprint,-0.003852021220599816,-0.00015427590182065003,0.9992593408643204,-0.03828717574940811,0.0,0.0,0.0,0.0,0.0,0.0,0.0,0.0,0.0,-0.0002777094189954075,-0.00010623185755273055,0.043551512706870764,0.0,0.0,0.0,0.0,0.0,0.0,0.0,0.0,0.0,-0.00044624614561130553,0.009119763552281066,-0.00011262046258735566,0.0,0.0,0.0,0.0,0.0,0.0,0.0,0.0,0.0
11.092,321,11,89000000,base_footprint,-0.0038530539896256878,-0.0001571297014002024,0.9992308809588408,-0.03902276032559558,0.0,0.0,0.0,0.0,0.0,0.0,0.0,0.0,0.0,-0.0002647604156381575,-7.390686043220214e-05,0.043117991071315094,0.0,0.0,0.0,0.0,0.0,0.0,0.0,0.0,0.0,-0.0010994377418164735,0.00890986081975801,-0.00014173733617817058,0.0,0.0,0.0,0.0,0.0,0.0,0.0,0.0,0.0
11.123,322,11,123000000,base_footprint,-0.003854563033550411,-0.00015795408115606586,0.9992132040313427,-0.039472652352571906,0.0,0.0,0.0,0.0,0.0,0.0,0.0,0.0,0.0,-0.0003131648090776868,-0.00014196765624932905,0.024491887346222013,0.0,0.0,0.0,0.0,0.0,0.0,0.0,0.0,0.0,0.16459273116290157,0.03242885292196518,0.0015649750449530458,0.0,0.0,0.0,0.0,0.0,0.0,0.0,0.0,0.0
11.158,323,11,157000000,base_footprint,-0.003849165774750767,-0.0001653673711404109,0.9991942544028755,-0.03994995049750176,0.0,0.0,0.0,0.0,0.0,0.0,0.0,0.0,0.0,-0.0004716686085536682,-0.00044279024271557066,0.032015991146433775,0.0,0.0,0.0,0.0,0.0,0.0,0.0,0.0,0.0,0.013016079362303748,0.0076369028326146865,0.00022575446909927038,0.0,0.0,0.0,0.0,0.0,0.0,0.0,0.0,0.0
11.191,324,11,191000000,base_footprint,-0.0038501483036113473,-0.00017055375758640137,0.9991575205647858,-0.04085824724931044,0.0,0.0,0.0,0.0,0.0,0.0,0.0,0.0,0.0,-0.0008568531040119004,-8.7535896242801e-05,0.08179409355243487,0.0,0.0,0.0,0.0,0.0,0.0,0.0,0.0,0.0,0.08529365464142351,0.024778322671051015,0.000181426094818719,0.0,0.0,0.0,0.0,0.0,0.0,0.0,0.0,0.0
11.225,325,11,225000000,base_footprint,-0.0038518897304783703,-0.00017152958082378882,0.9990803487136972,-0.04270351668451241,0.0,0.0,0.0,0.0,0.0,0.0,0.0,0.0,0.0,5.960125532457523e-05,-0.00099534816955608,0.1218926714794434,0.0,0.0,0.0,0.0,0.0,0.0,0.0,0.0,0.0,-0.010183139053428585,0.022930970522853634,0.002196717089707475,0.0,0.0,0.0,0.0,0.0,0.0,0.0,0.0,0.0
11.259,326,11,259000000,base_footprint,-0.003845865424414611,-0.00017608844914285905,0.9989923406335455,-0.044715564041012706,0.0,0.0,0.0,0.0,0.0,0.0,0.0,0.0,0.0,-0.0008712058670289349,-1.2673919100946242e-05,0.10813211272782171,0.0,0.0,0.0,0.0,0.0,0.0,0.0,0.0,0.0,0.031390980962176435,0.03167813634888059,-0.00209665963068217,0.0,0.0,0.0,0.0,0.0,0.0,0.0,0.0,0.0
