Time,header.seq,header.stamp.secs,header.stamp.nsecs,header.frame_id,orientation.x,orientation.y,orientation.z,orientation.w,orientation_covariance_0,orientation_covariance_1,orientation_covariance_2,orientation_covariance_3,orientation_covariance_4,orientation_covariance_5,orientation_covariance_6,orientation_covariance_7,orientation_covariance_8,angular_velocity.x,angular_velocity.y,angular_velocity.z,angular_velocity_covariance_0,angular_velocity_covariance_1,angular_velocity_covariance_2,angular_velocity_covariance_3,angular_velocity_covariance_4,angular_velocity_covariance_5,angular_velocity_covariance_6,angular_velocity_covariance_7,angular_velocity_covariance_8,linear_acceleration.x,linear_acceleration.y,linear_acceleration.z,linear_acceleration_covariance_0,linear_acceleration_covariance_1,linear_acceleration_covariance_2,linear_acceleration_covariance_3,linear_acceleration_covariance_4,linear_acceleration_covariance_5,linear_acceleration_covariance_6,linear_acceleration_covariance_7,linear_acceleration_covariance_8
0.448,0,0,448000000,base_footprint,-0.00019135532807456585,4.35018346917412e-05,0.9238411873381365,0.3827759423845641,0.0,0.0,0.0,0.0,0.0,0.0,0.0,0.0,0.0,0.06959954521419329,0.0006621383859169161,-0.00016854961914727952,0.0,0.0,0.0,0.0,0.0,0.0,0.0,0.0,0.0,-6.228989485769332e-05,0.0002493167514020083,-0.03880055984770326,0.0,0.0,0.0,0.0,0.0,0.0,0.0,0.0,0.0
0.48200000000000004,1,0,482000000,base_footprint,-0.0012631049332010873,0.000475939807041367,0.9238388540718752,0.38277924415306613,0.0,0.0,0.0,0.0,0.0,0.0,0.0,0.0,0.0,0.06776625117672432,0.000591639370658828,-0.00011116845897530316,0.0,0.0,0.0,0.0,0.0,0.0,0.0,0.0,0.0,0.00030351994552505526,-0.00014620811343526603,-0.0010828712620324383,0.0,0.0,0.0,0.0,0.0,0.0,0.0,0.0,0.0
0.516,2,0,516000000,base_footprint,-0.002333108529804321,0.0009075944724083571,0.9238353375935036,0.38278192471740263,0.0,0.0,0.0,0.0,0.0,0.0,0.0,0.0,0.0,0.0676899126123941,0.0005910485615200391,-1.1910854022106464e-05,0.0,0.0,0.0,0.0,0.0,0.0,0.0,0.0,0.0,9.042398392341007e-06,0.00026558749968615017,0.00015044773059113807,0.0,0.0,0.0,0.0,0.0,0.0,0.0,0.0,0.0
0.55,3,0,550000000,base_footprint,-0.0034019138245796527,0.0013387498927081483,0.9238305174555077,0.38278428618341154,0.0,0.0,0.0,0.0,0.0,0.0,0.0,0.0,0.0,0.06761383923260188,0.0005907831502428643,8.55397014173359e-05,0.0,0.0,0.0,0.0,0.0,0.0,0.0,0.0,0.0,9.489384385720143e-07,0.0002694307879183893,0.0001498179526622454,0.0,0.0,0.0,0.0,0.0,0.0,0.0,0.0,0.0
0.5840000000000001,4,0,584000000,base_footprint,-0.003577748872284799,0.001474324123105106,0.9238266681848333,0.38279147486836324,0.0,0.0,0.0,0.0,0.0,0.0,0.0,0.0,0.0,-0.00045944354515926774,0.00020582387405829734,-0.0005681625917590741,0.0,0.0,0.0,0.0,0.0,0.0,0.0,0.0,0.0,0.0009248410861069601,-0.006243253708593808,0.13243633070919247,0.0,0.0,0.0,0.0,0.0,0.0,0.0,0.0,0.0
0.618,5,0,618000000,base_footprint,-0.003569442230188627,0.0014712590298658693,0.9238263115089747,0.3827924250070204,0.0,0.0,0.0,0.0,0.0,0.0,0.0,0.0,0.0,-0.0002447488800960431,-3.740703004180841e-05,0.00017692126922074904,0.0,0.0,0.0,0.0,0.0,0.0,0.0,0.0,0.0,-0.0013663194655665213,0.005754748038791463,-0.000411393646119265,0.0,0.0,0.0,0.0,0.0,0.0,0.0,0.0,0.0
0.652,6,0,652000000,base_footprint,-0.0035693804046785815,0.001471167781810581,0.9238278528367109,0.38278870609253507,0.0,0.0,0.0,0.0,0.0,0.0,0.0,0.0,0.0,-0.00018237905404838863,-3.0252881430085835e-05,0.00029846727537897663,0.0,0.0,0.0,0.0,0.0,0.0,0.0,0.0,0.0,0.00023508003750830845,3.2061294170111234e-05,-8.11348527485809e-05,0.0,0.0,0.0,0.0,0.0,0.0,0.0,0.0,0.0
0.686,7,0,686000000,base_footprint,-0.003569343695670627,0.0014711099496476717,0.923829799858817,0.38278400765172577,0.0,0.0,0.0,0.0,0.0,0.0,0.0,0.0,0.0,-0.00017946723691425397,-3.0800644428800467e-05,0.00032736037063051934,0.0,0.0,0.0,0.0,0.0,0.0,0.0,0.0,0.0,5.5982336734844375e-05,7.289596466639349e-06,-5.869616106398691e-06,0.0,0.0,0.0,0.0,0.0,0.0,0.0,0.0,0.0
0.7200000000000001,8,0,720000000,base_footprint,-0.003569343670613748,0.0014710757417270794,0.9238318453885779,0.3827790709637324,0.0,0.0,0.0,0.0,0.0,0.0,0.0,0.0,0.0,-0.00017827985873360944,-3.093840237607046e-05,0.0003344837694152261,0.0,0.0,0.0,0.0,0.0,0.0,0.0,0.0,0.0,1.3794125586121191e-05,1.7472699989029303e-06,-1.824554954503732e-06,0.0,0.0,0.0,0.0,0.0,0.0,0.0,0.0,0.0
0.754,9,0,754000000,base_footprint,-0.003569351932966914,0.001471047762935288,0.9238339152056319,0.3827740754819887,0.0,0.0,0.0,0.0,0.0,0.0,0.0,0.0,0.0,-0.0001780001320399913,-3.1009648511570136e-05,0.00033624734457165373,0.0,0.0,0.0,0.0,0.0,0.0,0.0,0.0,0.0,3.4156011934849115e-06,4.4193868911619726e-07,-4.2465075285108855e-07,0.0,0.0,0.0,0.0,0.0,0.0,0.0,0.0,0.0
0.788,10,0,788000000,base_footprint,-0.003569362038761134,0.0014710217946831228,0.9238359910331962,0.3827690653922127,0.0,0.0,0.0,0.0,0.0,0.0,0.0,0.0,0.0,-0.00017793208098494515,-3.10619525577171e-05,0.0003366917748319222,0.0,0.0,0.0,0.0,0.0,0.0,0.0,0.0,0.0,8.617480887556441e-07,1.286864626222518e-07,-1.0726301757701281e-07,0.0,0.0,0.0,0.0,0.0,0.0,0.0,0.0,0.0
0.8220000000000001,11,0,822000000,base_footprint,-0.0035693724248127847,0.001470996749341546,0.9238380683765128,0.3827640515610236,0.0,0.0,0.0,0.0,0.0,0.0,0.0,0.0,0.0,-0.00017791631869600076,-3.1106932474239286e-05,0.00033681171318931306,0.0,0.0,0.0,0.0,0.0,0.0,0.0,0.0,0.0,2.3348586824572519e-07,5.156049026012224e-08,-2.96577473873659e-08,0.0,0.0,0.0,0.0,0.0,0.0,0.0,0.0,0.0
0.8560000000000001,12,0,856000000,base_footprint,-0.00356938272274878,0.0014709723195669294,0.9238401461299437,0.38275903666147204,0.0,0.0,0.0,0.0,0.0,0.0,0.0,0.0,0.0,-0.00017791342591668268,-3.114768819095667e-05,0.0003368518310938724,0.0,0.0,0.0,0.0,0.0,0.0,0.0,0.0,0.0,7.889533727933313e-08,3.2535160807127105e-08,-1.1193634991298363e-08,0.0,0.0,0.0,0.0,0.0,0.0,0.0,0.0,0.0
0.89,13,0,890000000,base_footprint,-0.003569392856555092,0.0014709483936343826,0.9238422240215259,0.3827540213510758,0.0,0.0,0.0,0.0,0.0,0.0,0.0,0.0,0.0,-0.00017791370931665985,-3.11852070484043e-05,0.000336872314569042,0.0,0.0,0.0,0.0,0.0,0.0,0.0,0.0,0.0,4.082598203856059e-08,2.780918125544647e-08,-7.214910002761035e-09,0.0,0.0,0.0,0.0,0.0,0.0,0.0,0.0,0.0
0.924,14,0,924000000,base_footprint,-0.0035694028207754382,0.0014709249112907668,0.9238443019843657,0.3827490057915614,0.0,0.0,0.0,0.0,0.0,0.0,0.0,0.0,0.0,-0.0001779147834500544,-3.121993590108858e-05,0.00033688796836795593,0.0,0.0,0.0,0.0,0.0,0.0,0.0,0.0,0.0,3.142276720415898e-08,2.6605671353060953e-08,-6.7471417354546754e-09,0.0,0.0,0.0,0.0,0.0,0.0,0.0,0.0,0.0
0.9580000000000001,15,0,958000000,base_footprint,-0.0035694126260794917,0.0014709018279862353,0.9238463800020116,0.3827439900226995,0.0,0.0,0.0,0.0,0.0,0.0,0.0,0.0,0.0,-0.00017791606081490657,-3.1252169962394126e-05,0.00033690243426962583,0.0,0.0,0.0,0.0,0.0,0.0,0.0,0.0,0.0,2.9074639940941685e-08,2.6272793606535058e-08,-7.095884879608328e-09,0.0,0.0,0.0,0.0,0.0,0.0,0.0,0.0,0.0
0.9920000000000001,16,0,992000000,base_footprint,-0.003569422285988356,0.0014708791057935415,0.9238484580704196,0.38273897405426177,0.0,0.0,0.0,0.0,0.0,0.0,0.0,0.0,0.0,-0.00017791739608943142,-3.128214965078658e-05,0.00033691660806065465,0.0,0.0,0.0,0.0,0.0,0.0,0.0,0.0,0.0,2.8465144590836665e-08,2.6157727741394238e-08,-7.602428549431071e-09,0.0,0.0,0.0,0.0,0.0,0.0,0.0,0.0,0.0
1.026,17,1,26000000,base_footprint,-0.0035694318137130827,0.0014708567109182255,0.9238505361885972,0.382733957888642,0.0,0.0,0.0,0.0,0.0,0.0,0.0,0.0,0.0,-0.00017791875282402415,-3.131008667086885e-05,0.0003369307101503018,0.0,0.0,0.0,0.0,0.0,0.0,0.0,0.0,0.0,2.828640474904857e-08,2.6099530529854113e-08,-8.108886291587171e-09,0.0,0.0,0.0,0.0,0.0,0.0,0.0,0.0,0.0
1.06,18,1,60000000,base_footprint,-0.0035694412214701916,0.0014708346128535616,0.9238526143563026,0.3827289415264192,0.0,0.0,0.0,0.0,0.0,0.0,0.0,0.0,0.0,-0.0001779201213881683,-3.1336171074987766e-05,0.00033694479477063666,0.0,0.0,0.0,0.0,0.0,0.0,0.0,0.0,0.0,2.821633170119856e-08,2.6058290835327826e-08,-8.57972010706836e-09,0.0,0.0,0.0,0.0,0.0,0.0,0.0,0.0,0.0
1.094,19,1,94000000,base_footprint,-0.003569450520399197,0.0014708127839621306,0.923854692573478,0.38272392496772617,0.0,0.0,0.0,0.0,0.0,0.0,0.0,0.0,0.0,-0.00017792149895648566,-3.1360575177052225e-05,0.0003369588752745195,0.0,0.0,0.0,0.0,0.0,0.0,0.0,0.0,0.0,2.8175452896086145e-08,2.602389307700162e-08,-9.009797983433782e-09,0.0,0.0,0.0,0.0,0.0,0.0,0.0,0.0,0.0
1.1280000000000001,20,1,128000000,base_footprint,-0.0035694597206193204,0.0014707911991813356,0.9238567708401109,0.38271890821258653,0.0,0.0,0.0,0.0,0.0,0.0,0.0,0.0,0.0,-0.00017792288404347981,-3.1383455039878195e-05,0.00033697295495589,0.0,0.0,0.0,0.0,0.0,0.0,0.0,0.0,0.0,2.8143980245635912e-08,2.599360803527247e-08,-9.401215235340797e-09,0.0,0.0,0.0,0.0,0.0,0.0,0.0,0.0,0.0
1.162,21,1,162000000,base_footprint,-0.003569468831313777,0.0014707698357776119,0.9238588491561999,0.3827138912609971,0.0,0.0,0.0,0.0,0.0,0.0,0.0,0.0,0.0,-0.0001779242760785012,-3.140495216999911e-05,0.00033698703466809475,0.0,0.0,0.0,0.0,0.0,0.0,0.0,0.0,0.0,2.8116905965957414e-08,2.596652968063433e-08,-9.756220239558454e-09,0.0,0.0,0.0,0.0,0.0,0.0,0.0,0.0,0.0
1.196,22,1,196000000,base_footprint,-0.003569477860814024,0.0014707486731283838,0.9238609275217463,0.3827088741129483,0.0,0.0,0.0,0.0,0.0,0.0,0.0,0.0,0.0,-0.00017792567424849515,-3.142519502267213e-05,0.0003370011146560185,0.0,0.0,0.0,0.0,0.0,0.0,0.0,0.0,0.0,2.8092795855786778e-08,2.5942231923132954e-08,-1.0078466501891073e-08,0.0,0.0,0.0,0.0,0.0,0.0,0.0,0.0,0.0
1.23,23,1,230000000,base_footprint,-0.003569486816677953,0.0014707276925259379,0.9238630059367513,0.3827038567684292,0.0,0.0,0.0,0.0,0.0,0.0,0.0,0.0,0.0,-0.00017792707804550412,-3.1444300213648076e-05,0.0003370151949640487,0.0,0.0,0.0,0.0,0.0,0.0,0.0,0.0,0.0,2.8071034149889347e-08,2.592040278934749e-08,-1.0371010350130092e-08,0.0,0.0,0.0,0.0,0.0,0.0,0.0,0.0,0.0
1.264,24,1,264000000,base_footprint,-0.003569495705761989,0.00147070687699924,0.9238650844012166,0.38269883922742903,0.0,0.0,0.0,0.0,0.0,0.0,0.0,0.0,0.0,-0.0001779284870143304,-3.146237324716097e-05,0.00033702927562645414,0.0,0.0,0.0,0.0,0.0,0.0,0.0,0.0,0.0,2.8051383188216786e-08,2.5900805663151473e-08,-1.0636293972043353e-08,0.0,0.0,0.0,0.0,0.0,0.0,0.0,0.0,0.0
1.298,25,1,298000000,base_footprint,-0.0035695045342857374,0.0014706862111528492,0.9238671629151437,0.3826938214899368,0.0,0.0,0.0,0.0,0.0,0.0,0.0,0.0,0.0,-0.00017792990061462057,-3.147951012635478e-05,0.0003370433567100356,0.0,0.0,0.0,0.0,0.0,0.0,0.0,0.0,0.0,2.803372278564149e-08,2.5883239461791323e-08,-1.0877358452405143e-08,0.0,0.0,0.0,0.0,0.0,0.0,0.0,0.0,0.0
1.332,26,1,332000000,base_footprint,-0.003569513307891453,0.0014706656810205962,0.9238692414785339,0.38268880355594165,0.0,0.0,0.0,0.0,0.0,0.0,0.0,0.0,0.0,-0.00017793131845571258,-3.1495797690750994e-05,0.0003370574381700394,0.0,0.0,0.0,0.0,0.0,0.0,0.0,0.0,0.0,2.801765722791437e-08,2.586748190743609e-08,-1.1096015510632079e-08,0.0,0.0,0.0,0.0,0.0,0.0,0.0,0.0,0.0
1.366,27,1,366000000,base_footprint,-0.003569522031697645,0.0014706452739329976,0.9238713200913884,0.3826837854254331,0.0,0.0,0.0,0.0,0.0,0.0,0.0,0.0,0.0,-0.00017793274019535575,-3.151131491974958e-05,0.0003370715200745152,0.0,0.0,0.0,0.0,0.0,0.0,0.0,0.0,0.0,2.8003250723035152e-08,2.585338548320925e-08,-1.129411432277367e-08,0.0,0.0,0.0,0.0,0.0,0.0,0.0,0.0,0.0
1.4,28,1,400000000,base_footprint,-0.0035695307103470334,0.0014706249783965133,0.9238733987537084,0.38267876709840054,0.0,0.0,0.0,0.0,0.0,0.0,0.0,0.0,0.0,-0.0001779341654356381,-3.152613341527507e-05,0.00033708560243281803,0.0,0.0,0.0,0.0,0.0,0.0,0.0,0.0,0.0,2.7990251103203777e-08,2.5840784676632325e-08,-1.1474428997785044e-08,0.0,0.0,0.0,0.0,0.0,0.0,0.0,0.0,0.0
1.4340000000000002,29,1,434000000,base_footprint,-0.00356522155371291,0.0014689504397989279,0.9238202166060459,0.3828071822338722,0.0,0.0,0.0,0.0,0.0,0.0,0.0,0.0,0.0,-1.3881168875458178e-05,-0.0001318583386016021,-0.01650001772350836,0.0,0.0,0.0,0.0,0.0,0.0,0.0,0.0,0.0,-0.00021169278402638492,-0.7253174666130755,0.003850323114726263,0.0,0.0,0.0,0.0,0.0,0.0,0.0,0.0,0.0
1.467,30,1,468000000,base_footprint,-0.0035651099174321536,0.0014706590475677133,0.9236536226170619,0.38320896724844616,0.0,0.0,0.0,0.0,0.0,0.0,0.0,0.0,0.0,3.239891531183424e-05,-0.00022515695669724818,-0.033880296253418846,0.0,0.0,0.0,0.0,0.0,0.0,0.0,0.0,0.0,-0.0021920205207019983,-0.7495895054607372,0.0041134599578994575,0.0,0.0,0.0,0.0,0.0,0.0,0.0,0.0,0.0
1.502,31,1,502000000,base_footprint,-0.00356296975770134,0.0014727000737277947,0.9233732795761536,0.3838839967565427,0.0,0.0,0.0,0.0,0.0,0.0,0.0,0.0,0.0,-0.003879008132208049,-0.00022291500253420393,-0.05140114750418039,0.0,0.0,0.0,0.0,0.0,0.0,0.0,0.0,0.0,-0.006211897160052271,-0.7504834744261534,0.006930619601873202,0.0,0.0,0.0,0.0,0.0,0.0,0.0,0.0,0.0
1.536,32,1,536000000,base_footprint,-0.0035617221431435693,0.001476348985356269,0.9229789313119527,0.3848311667254802,0.0,0.0,0.0,0.0,0.0,0.0,0.0,0.0,0.0,-0.0017082648175328673,-0.00035863932447378904,-0.0687565578503633,0.0,0.0,0.0,0.0,0.0,0.0,0.0,0.0,0.0,-0.011583874820791096,-0.7321624803277467,0.0038741745369535226,0.0,0.0,0.0,0.0,0.0,0.0,0.0,0.0,0.0
1.57,33,1,570000000,base_footprint,-0.003561734200955763,0.0014817654490983576,0.9224719556211586,0.38604482837244547,0.0,0.0,0.0,0.0,0.0,0.0,0.0,0.0,0.0,-0.0013355082079377855,-0.0004501630336569289,-0.08544924940172943,0.0,0.0,0.0,0.0,0.0,0.0,0.0,0.0,0.0,-0.01802678244794198,-0.7009047852021248,0.003341745384034351,0.0,0.0,0.0,0.0,0.0,0.0,0.0,0.0,0.0
1.604,34,1,604000000,base_footprint,-0.003562584144242942,0.0014889072486882105,0.9218546406839624,0.38751659654634485,0.0,0.0,0.0,0.0,0.0,0.0,0.0,0.0,0.0,0.00038829638660966973,-0.0006203643887310678,-0.10193771918834184,0.0,0.0,0.0,0.0,0.0,0.0,0.0,0.0,0.0,-0.024934485062862027,-0.631414435263515,0.0012433333905369638,0.0,0.0,0.0,0.0,0.0,0.0,0.0,0.0,0.0
1.638,35,1,638000000,base_footprint,-0.003562883279383732,0.0014970416584589577,0.9211251140737642,0.3892474649263697,0.0,0.0,0.0,0.0,0.0,0.0,0.0,0.0,0.0,0.0005610225133076578,-0.0007098562305232506,-0.11856454237072872,0.0,0.0,0.0,0.0,0.0,0.0,0.0,0.0,0.0,-0.030850269169413663,-0.5245710327050613,0.002340919794177748,0.0,0.0,0.0,0.0,0.0,0.0,0.0,0.0,0.0
1.6720000000000002,36,1,672000000,base_footprint,-0.0035616322263066725,0.001505910420910942,0.9202813264545012,0.39123819750739136,0.0,0.0,0.0,0.0,0.0,0.0,0.0,0.0,0.0,0.0006502468544389912,-0.0008212307351390772,-0.13534292305749132,0.0,0.0,0.0,0.0,0.0,0.0,0.0,0.0,0.0,-0.03482964469058841,-0.376984769523722,0.0019264679277491072,0.0,0.0,0.0,0.0,0.0,0.0,0.0,0.0,0.0
1.706,37,1,706000000,base_footprint,-0.003558129404464794,0.0015162376038965954,0.9193226261739111,0.3934856410891925,0.0,0.0,0.0,0.0,0.0,0.0,0.0,0.0,0.0,0.0007075667433137729,-0.00019910557999918473,-0.14707208008803752,0.0,0.0,0.0,0.0,0.0,0.0,0.0,0.0,0.0,-0.03777179575092644,-0.19266194689598864,-1.6823555820016597e-05,0.0,0.0,0.0,0.0,0.0,0.0,0.0,0.0,0.0
1.74,38,1,740000000,base_footprint,-0.003558636502352984,0.0015175315094615878,0.9184590079001688,0.3954972616989903,0.0,0.0,0.0,0.0,0.0,0.0,0.0,0.0,0.0,-0.00011270534656284851,-0.0003841882201981051,-0.1228896127581272,0.0,0.0,0.0,0.0,0.0,0.0,0.0,0.0,0.0,-0.013839440921647489,0.05583210347469878,0.001395408731917815,0.0,0.0,0.0,0.0,0.0,0.0,0.0,0.0,0.0
1.774,39,1,774000000,base_footprint,-0.003553873414477569,0.0015183340642366534,0.917677309404374,0.39730771506449786,0.0,0.0,0.0,0.0,0.0,0.0,0.0,0.0,0.0,0.00029638704602499144,-0.0004923042278424184,-0.10849649028379761,0.0,0.0,0.0,0.0,0.0,0.0,0.0,0.0,0.0,-0.020989272064232494,0.014789578265069441,-0.0006235622727704654,0.0,0.0,0.0,0.0,0.0,0.0,0.0,0.0,0.0
1.808,40,1,808000000,base_footprint,-0.0035416512766202005,0.0015264099093535283,0.9170023440069008,0.3988631693511864,0.0,0.0,0.0,0.0,0.0,0.0,0.0,0.0,0.0,-0.0032497890009045224,-0.0021647703378962825,-0.0901073716555201,0.0,0.0,0.0,0.0,0.0,0.0,0.0,0.0,0.0,-0.026951302092482244,-0.1379865735149391,0.005882703699528722,0.0,0.0,0.0,0.0,0.0,0.0,0.0,0.0,0.0
1.842,41,1,842000000,base_footprint,-0.00353552131182768,0.0015325783428504307,0.9164184080763169,0.40020301427093935,0.0,0.0,0.0,0.0,0.0,0.0,0.0,0.0,0.0,0.00019223677717177733,-0.00050276927846857,-0.0823409060873833,0.0,0.0,0.0,0.0,0.0,0.0,0.0,0.0,0.0,-0.041315875523722026,-0.30340223639821856,-0.004062463751336924,0.0,0.0,0.0,0.0,0.0,0.0,0.0,0.0,0.0
1.876,42,1,876000000,base_footprint,-0.0035421169776774734,0.0015355481724883629,0.9159364068215625,0.40130486435867124,0.0,0.0,0.0,0.0,0.0,0.0,0.0,0.0,0.0,-0.0007168815958327394,-0.0004601111885431043,-0.032126048210349804,0.0,0.0,0.0,0.0,0.0,0.0,0.0,0.0,0.0,-0.04669106455153253,-0.3800975484592042,0.0028313708779745764,0.0,0.0,0.0,0.0,0.0,0.0,0.0,0.0,0.0
1.9100000000000001,43,1,910000000,base_footprint,-0.003548533763918451,0.0015374713441441003,0.9161851246046042,0.40073664861507025,0.0,0.0,0.0,0.0,0.0,0.0,0.0,0.0,0.0,0.001099349834206046,-0.0004206305684933294,0.07163448820144507,0.0,0.0,0.0,0.0,0.0,0.0,0.0,0.0,0.0,-0.016072419951999456,-0.2988010277811743,-0.0008615194885513305,0.0,0.0,0.0,0.0,0.0,0.0,0.0,0.0,0.0
1.944,44,1,944000000,base_footprint,-0.0035446527904135963,0.0015328263750762577,0.9166788147765698,0.3996061015796966,0.0,0.0,0.0,0.0,0.0,0.0,0.0,0.0,0.0,-0.0006949590943980206,0.0003450924487545081,0.07268098260119349,0.0,0.0,0.0,0.0,0.0,0.0,0.0,0.0,0.0,0.01588159070317712,-0.001431403314265279,0.0018292309808077844,0.0,0.0,0.0,0.0,0.0,0.0,0.0,0.0,0.0
1.9780000000000002,45,1,978000000,base_footprint,-0.0035454475304950803,0.0015287863065281012,0.9171712748368878,0.3984745226840927,0.0,0.0,0.0,0.0,0.0,0.0,0.0,0.0,0.0,-0.0005893001104914104,0.00033924784490646905,0.07252231604114538,0.0,0.0,0.0,0.0,0.0,0.0,0.0,0.0,0.0,0.015427062763354784,-0.006804718194097517,-6.892557929158902e-05,0.0,0.0,0.0,0.0,0.0,0.0,0.0,0.0,0.0
2.012,46,2,12000000,base_footprint,-0.003551168420350198,0.0015257633665243103,0.9176653481318054,0.3973353370732738,0.0,0.0,0.0,0.0,0.0,0.0,0.0,0.0,0.0,-0.0014286439195622337,0.000520389180261923,0.07604538207258192,0.0,0.0,0.0,0.0,0.0,0.0,0.0,0.0,0.0,0.036012348023370194,0.302906594349245,-0.000282271885036176,0.0,0.0,0.0,0.0,0.0,0.0,0.0,0.0,0.0
2.046,47,2,46000000,base_footprint,-0.003551098499111411,0.0015211358569414647,0.9182732962120538,0.39592831334599476,0.0,0.0,0.0,0.0,0.0,0.0,0.0,0.0,0.0,-0.0004275949714534716,0.0005203543352088922,0.08580439927003898,0.0,0.0,0.0,0.0,0.0,0.0,0.0,0.0,0.0,0.040123537517589056,0.3674928795062976,-0.0035384451074454678,0.0,0.0,0.0,0.0,0.0,0.0,0.0,0.0,0.0
2.08,48,2,80000000,base_footprint,-0.003556755746612583,0.0015177349461230618,0.9188517680905632,0.39458392547851984,0.0,0.0,0.0,0.0,0.0,0.0,0.0,0.0,0.0,-0.0004237888546855616,0.0003625696742019303,0.08601251289897756,0.0,0.0,0.0,0.0,0.0,0.0,0.0,0.0,0.0,0.015539565020816087,-0.004981426532249604,-1.459642103525372e-05,0.0,0.0,0.0,0.0,0.0,0.0,0.0,0.0,0.0
2.114,49,2,114000000,base_footprint,-0.003554594127119318,0.001510415776958632,0.9194018609299704,0.3933005232939304,0.0,0.0,0.0,0.0,0.0,0.0,0.0,0.0,0.0,-0.0003402373285976292,0.00033574472495139857,0.06742133590183418,0.0,0.0,0.0,0.0,0.0,0.0,0.0,0.0,0.0,0.006258614736130069,-0.2182488032245219,0.0017676769416655066,0.0,0.0,0.0,0.0,0.0,0.0,0.0,0.0,0.0
2.148,50,2,148000000,base_footprint,-0.003563431747255465,0.0015083691470738237,0.9197692771894667,0.39244044581957227,0.0,0.0,0.0,0.0,0.0,0.0,0.0,0.0,0.0,0.000968299863820885,0.0008432575341631074,0.06996666254097984,0.0,0.0,0.0,0.0,0.0,0.0,0.0,0.0,0.0,-0.00428932852191613,-0.3678067780325426,-0.0005807366855300413,0.0,0.0,0.0,0.0,0.0,0.0,0.0,0.0,0.0
2.182,51,2,182000000,base_footprint,-0.003569965481346104,0.0015016525665345645,0.9204378812929948,0.3908696804139385,0.0,0.0,0.0,0.0,0.0,0.0,0.0,0.0,0.0,0.000486826902755846,2.2166679555473753e-05,0.11698884853894848,0.0,0.0,0.0,0.0,0.0,0.0,0.0,0.0,0.0,0.015479539763242775,-0.09449787896284281,0.0010630077388502608,0.0,0.0,0.0,0.0,0.0,0.0,0.0,0.0,0.0
2.216,52,2,216000000,base_footprint,-0.003563588049725805,0.0014976666131113598,0.9211476101273413,0.3891942165444081,0.0,0.0,0.0,0.0,0.0,0.0,0.0,0.0,0.0,-0.0006519156366594662,0.0005951428043803049,0.07989096153463202,0.0,0.0,0.0,0.0,0.0,0.0,0.0,0.0,0.0,0.023534054330501333,-0.011565744522522774,0.002658782870923493,0.0,0.0,0.0,0.0,0.0,0.0,0.0,0.0,0.0
2.25,53,2,250000000,base_footprint,-0.003571400484207686,0.001496459913782692,0.9215557322977727,0.3882267867824476,0.0,0.0,0.0,0.0,0.0,0.0,0.0,0.0,0.0,-0.000353348479780636,-0.0002569405297779527,0.06901578557759591,0.0,0.0,0.0,0.0,0.0,0.0,0.0,0.0,0.0,0.021722378639835747,0.03889143905604018,-0.0012561374147471245,0.0,0.0,0.0,0.0,0.0,0.0,0.0,0.0,0.0
2.284,54,2,284000000,base_footprint,-0.0035763486783672227,0.001490775916127567,0.9221088503579484,0.38691117250454443,0.0,0.0,0.0,0.0,0.0,0.0,0.0,0.0,0.0,-0.00027985612485829047,0.0007053427082548856,0.08348811492764112,0.0,0.0,0.0,0.0,0.0,0.0,0.0,0.0,0.0,0.013096447528273138,0.01654886954853679,-0.0003695590347335857,0.0,0.0,0.0,0.0,0.0,0.0,0.0,0.0,0.0
2.318,55,2,318000000,base_footprint,-0.003573468639388954,0.0014831340849361877,0.922575326058222,0.3857976132426623,0.0,0.0,0.0,0.0,0.0,0.0,0.0,0.0,0.0,0.0018566293630282173,-0.0006714755497230179,0.08079545369521092,0.0,0.0,0.0,0.0,0.0,0.0,0.0,0.0,0.0,0.02013790816073338,0.19542764350249345,-0.0028614501613585096,0.0,0.0,0.0,0.0,0.0,0.0,0.0,0.0,0.0
2.351,56,2,352000000,base_footprint,-0.003578384371837699,0.0014773038486002915,0.9232368781098281,0.3842117640529047,0.0,0.0,0.0,0.0,0.0,0.0,0.0,0.0,0.0,0.0002029354882703041,0.0006037729447107106,0.07763809469211334,0.0,0.0,0.0,0.0,0.0,0.0,0.0,0.0,0.0,0.02321221691614987,0.11859806062051007,0.0011411197679290544,0.0,0.0,0.0,0.0,0.0,0.0,0.0,0.0,0.0
2.386,57,2,386000000,base_footprint,-0.0035760491205708385,0.001470504187141266,0.9237592531113573,0.3829541640735485,0.0,0.0,0.0,0.0,0.0,0.0,0.0,0.0,0.0,-0.0006810445955193159,0.0005356810668240457,0.08040674573772348,0.0,0.0,0.0,0.0,0.0,0.0,0.0,0.0,0.0,0.014848223813280274,0.005624144164541129,0.0014697010145615,0.0,0.0,0.0,0.0,0.0,0.0,0.0,0.0,0.0
2.42,58,2,420000000,base_footprint,-0.003575109760645341,0.0014681453921892662,0.924038484792074,0.38227992592140525,0.0,0.0,0.0,0.0,0.0,0.0,0.0,0.0,0.0,-0.0012656866011240301,-0.00032578386149274987,0.0032075824103570067,0.0,0.0,0.0,0.0,0.0,0.0,0.0,0.0,0.0,0.012018961850779181,-0.02773584149574365,0.001688567695053962,0.0,0.0,0.0,0.0,0.0,0.0,0.0,0.0,0.0
2.454,59,2,454000000,base_footprint,-0.003572020910459846,0.0014682829338578173,0.9240600773685134,0.38222775700560885,0.0,0.0,0.0,0.0,0.0,0.0,0.0,0.0,0.0,-0.00025771970160257346,-8.415017467804103e-05,0.003180311904208179,0.0,0.0,0.0,0.0,0.0,0.0,0.0,0.0,0.0,-0.0017154795144083217,-0.0030256896306371183,-0.0013040384558029097,0.0,0.0,0.0,0.0,0.0,0.0,0.0,0.0,0.0
2.488,60,2,488000000,base_footprint,-0.003571587667763462,0.001468925216264377,0.9240791161373083,0.38218172789804017,0.0,0.0,0.0,0.0,0.0,0.0,0.0,0.0,0.0,-0.0001840473299183677,-7.757586360328121e-05,0.0027597257205847834,0.0,0.0,0.0,0.0,0.0,0.0,0.0,0.0,0.0,0.0005590004541076341,-0.005463125376112288,-0.00011446494676295666,0.0,0.0,0.0,0.0,0.0,0.0,0.0,0.0,0.0
2.5220000000000002,61,2,522000000,base_footprint,-0.003570824906004119,0.001466429749450897,0.9243490772972089,0.38152835031368115,0.0,0.0,0.0,0.0,0.0,0.0,0.0,0.0,0.0,-0.0007779160848833729,0.0005662120117442345,0.1178563392320236,0.0,0.0,0.0,0.0,0.0,0.0,0.0,0.0,0.0,0.007846862645838434,-0.22790955985566322,0.0012772285578576028,0.0,0.0,0.0,0.0,0.0,0.0,0.0,0.0,0.0
2.556,62,2,556000000,base_footprint,-0.0035773868038177273,0.001464968550344177,0.9248343236700903,0.3803505356016856,0.0,0.0,0.0,0.0,0.0,0.0,0.0,0.0,0.0,4.4129344974252625e-05,-1.6561611422353766e-05,0.010518617964154793,0.0,0.0,0.0,0.0,0.0,0.0,0.0,0.0,0.0,0.02133751762241788,-0.1132591679776905,-0.00012320062211019044,0.0,0.0,0.0,0.0,0.0,0.0,0.0,0.0,0.0
2.59,63,2,590000000,base_footprint,-0.0035820350612964114,0.001466060877728147,0.9249070285039238,0.38017365547123877,0.0,0.0,0.0,0.0,0.0,0.0,0.0,0.0,0.0,3.961484283246345e-05,-4.448499121429967e-05,0.011302492265551165,0.0,0.0,0.0,0.0,0.0,0.0,0.0,0.0,0.0,-0.00045908688813106483,-0.011966352383600156,0.00023332513005946991,0.0,0.0,0.0,0.0,0.0,0.0,0.0,0.0,0.0
2.624,64,2,624000000,base_footprint,-0.0035875628587734723,0.0014681943154251163,0.9250940674298967,0.3797182379135828,0.0,0.0,0.0,0.0,0.0,0.0,0.0,0.0,0.0,0.002431011500572725,0.0006016439611474309,0.05616402930218735,0.0,0.0,0.0,0.0,0.0,0.0,0.0,0.0,0.0,-0.004189763573042293,0.35193430015118277,-0.006810997486561726,0.0,0.0,0.0,0.0,0.0,0.0,0.0,0.0,0.0
2.658,65,2,658000000,base_footprint,-0.0035895207347684567,0.0014614114754359488,0.9254451235038381,0.37886185213130125,0.0,0.0,0.0,0.0,0.0,0.0,0.0,0.0,0.0,-0.0003937832607645109,0.0004003968756880987,0.05302163750765142,0.0,0.0,0.0,0.0,0.0,0.0,0.0,0.0,0.0,0.014150110272137655,0.0013951235548778805,0.005131256003383963,0.0,0.0,0.0,0.0,0.0,0.0,0.0,0.0,0.0
2.692,66,2,692000000,base_footprint,-0.003590064856103886,0.001452579385798238,0.9257587398420032,0.3780949048236475,0.0,0.0,0.0,0.0,0.0,0.0,0.0,0.0,0.0,-0.00042167666636219823,0.0005622191366958778,0.04011738058423309,0.0,0.0,0.0,0.0,0.0,0.0,0.0,0.0,0.0,0.012028109560408052,0.03346853704143775,1.739132287267456e-05,0.0,0.0,0.0,0.0,0.0,0.0,0.0,0.0,0.0
2.726,67,2,726000000,base_footprint,-0.003582951951866844,0.0014554436988587752,0.9258234165335033,0.3779365628477635,0.0,0.0,0.0,0.0,0.0,0.0,0.0,0.0,0.0,0.0013331293091467867,0.0001776194203749168,-0.012081000621657898,0.0,0.0,0.0,0.0,0.0,0.0,0.0,0.0,0.0,0.003007450637849794,-0.00519377702310836,-0.0025972667697895706,0.0,0.0,0.0,0.0,0.0,0.0,0.0,0.0,0.0
2.76,68,2,760000000,base_footprint,-0.0035951283219342054,0.0014573316648034257,0.925621071413833,0.3784317420506311,0.0,0.0,0.0,0.0,0.0,0.0,0.0,0.0,0.0,2.3316350039405344e-05,-0.002474389525405452,-0.04506417827993674,0.0,0.0,0.0,0.0,0.0,0.0,0.0,0.0,0.0,-0.009458112925797645,0.10993907550777376,0.0039277074183694605,0.0,0.0,0.0,0.0,0.0,0.0,0.0,0.0,0.0
2.794,69,2,794000000,base_footprint,-0.003584576179800521,0.0014612278337898495,0.9255130917187375,0.37869583135288526,0.0,0.0,0.0,0.0,0.0,0.0,0.0,0.0,0.0,-0.00027884274468495786,9.61740677249654e-05,0.016654515196474904,0.0,0.0,0.0,0.0,0.0,0.0,0.0,0.0,0.0,-0.003149351955401704,0.15078919063438903,-0.002396743369527451,0.0,0.0,0.0,0.0,0.0,0.0,0.0,0.0,0.0
2.8280000000000003,70,2,828000000,base_footprint,-0.0035688287667025266,0.0014521236248251808,0.925883691434664,0.37778902145712523,0.0,0.0,0.0,0.0,0.0,0.0,0.0,0.0,0.0,-0.0009489036953641884,0.0004382561927021078,0.09308553402958657,0.0,0.0,0.0,0.0,0.0,0.0,0.0,0.0,0.0,0.015871574029028862,-0.2236625015121704,0.001459211890373931,0.0,0.0,0.0,0.0,0.0,0.0,0.0,0.0,0.0
2.862,71,2,862000000,base_footprint,-0.0035733642314751753,0.0014498369607280502,0.9265247459399502,0.37621406699081245,0.0,0.0,0.0,0.0,0.0,0.0,0.0,0.0,0.0,0.0012408638360773285,0.0019008810911669554,0.06658018571307166,0.0,0.0,0.0,0.0,0.0,0.0,0.0,0.0,0.0,0.027426097108768088,-0.34113162346270115,-0.0021023096825155143,0.0,0.0,0.0,0.0,0.0,0.0,0.0,0.0,0.0
2.896,72,2,896000000,base_footprint,-0.0035851833272320384,0.0014433597731496452,0.9268828639518564,0.3753308136637332,0.0,0.0,0.0,0.0,0.0,0.0,0.0,0.0,0.0,-0.0005552476857091723,0.0003638615121927933,0.05594597057862622,0.0,0.0,0.0,0.0,0.0,0.0,0.0,0.0,0.0,0.014950762501161285,-0.03612087951137507,0.004185425007409994,0.0,0.0,0.0,0.0,0.0,0.0,0.0,0.0,0.0
2.93,73,2,930000000,base_footprint,-0.003583517710673584,0.0014428186499550997,0.9269775046562594,0.37509703082857837,0.0,0.0,0.0,0.0,0.0,0.0,0.0,0.0,0.0,-0.00029365153700003366,-9.499249644526333e-05,0.005140871969427102,0.0,0.0,0.0,0.0,0.0,0.0,0.0,0.0,0.0,0.0041316978705448325,-0.02160759008494813,0.0003914069618550375,0.0,0.0,0.0,0.0,0.0,0.0,0.0,0.0,0.0
2.964,74,2,964000000,base_footprint,-0.003582601147909676,0.0014416375424736374,0.9271696321006464,0.37462188932383994,0.0,0.0,0.0,0.0,0.0,0.0,0.0,0.0,0.0,-0.0004226869481548874,0.00024315442619814425,0.049709448983556004,0.0,0.0,0.0,0.0,0.0,0.0,0.0,0.0,0.0,-0.005838971954627542,0.3506905221985345,-0.00217447870364873,0.0,0.0,0.0,0.0,0.0,0.0,0.0,0.0,0.0
2.998,75,2,998000000,base_footprint,-0.003584217577640873,0.0014396501014679376,0.9274826288220916,0.3738462973271286,0.0,0.0,0.0,0.0,0.0,0.0,0.0,0.0,0.0,-0.0003889413269941792,0.0001647609158701026,0.048964336562798666,0.0,0.0,0.0,0.0,0.0,0.0,0.0,0.0,0.0,0.010456979460424986,-0.0059444960286789954,5.862281569072453e-06,0.0,0.0,0.0,0.0,0.0,0.0,0.0,0.0,0.0
3.032,76,3,32000000,base_footprint,-0.0035875122872147864,0.0014373239945836462,0.9278849211681471,0.3728466667734945,0.0,0.0,0.0,0.0,0.0,0.0,0.0,0.0,0.0,-0.000391621529971976,0.00024529092360827087,0.0650110967058095,0.0,0.0,0.0,0.0,0.0,0.0,0.0,0.0,0.0,0.013012472337497973,-0.00035749318585011954,-0.00012765364729921968,0.0,0.0,0.0,0.0,0.0,0.0,0.0,0.0,0.0
3.066,77,3,66000000,base_footprint,-0.003592521396742927,0.0014355481849739166,0.9282935361071526,0.3718281105740947,0.0,0.0,0.0,0.0,0.0,0.0,0.0,0.0,0.0,-0.00030916959057602036,0.0002749623114945943,0.06413300812588694,0.0,0.0,0.0,0.0,0.0,0.0,0.0,0.0,0.0,0.013394551083228868,-0.0038151270518434633,-7.777658703779066e-05,0.0,0.0,0.0,0.0,0.0,0.0,0.0,0.0,0.0
3.1,78,3,100000000,base_footprint,-0.003597883864388802,0.001432516174615283,0.9286932475725432,0.37082860601937234,0.0,0.0,0.0,0.0,0.0,0.0,0.0,0.0,0.0,-0.00029000220329679404,0.0003467188443678311,0.06242984404367122,0.0,0.0,0.0,0.0,0.0,0.0,0.0,0.0,0.0,0.012925940526094899,-0.000901148731099471,-0.0002022726851855503,0.0,0.0,0.0,0.0,0.0,0.0,0.0,0.0,0.0
3.134,79,3,134000000,base_footprint,-0.0035981432857857547,0.00142537353076288,0.9289363610719232,0.3702192036532496,0.0,0.0,0.0,0.0,0.0,0.0,0.0,0.0,0.0,-0.0003325200901177025,0.0005152219114658014,0.047517425601626216,0.0,0.0,0.0,0.0,0.0,0.0,0.0,0.0,0.0,0.01728368927418887,-0.2156903407718025,0.001579351775494266,0.0,0.0,0.0,0.0,0.0,0.0,0.0,0.0,0.0
3.168,80,3,168000000,base_footprint,-0.0036008717757968368,0.0014159234403940176,0.9292543210091775,0.369420405187691,0.0,0.0,0.0,0.0,0.0,0.0,0.0,0.0,0.0,3.814307840683608e-05,0.0005176995337776766,0.04484029175070273,0.0,0.0,0.0,0.0,0.0,0.0,0.0,0.0,0.0,0.014213678587077581,0.005739436812064814,-0.0006661634874833325,0.0,0.0,0.0,0.0,0.0,0.0,0.0,0.0,0.0
3.202,81,3,202000000,base_footprint,-0.0035982874467903906,0.0014079192093132068,0.9295244514157454,0.368740239614838,0.0,0.0,0.0,0.0,0.0,0.0,0.0,0.0,0.0,0.0009364154417477316,-0.005871967200890279,0.04898229288624966,0.0,0.0,0.0,0.0,0.0,0.0,0.0,0.0,0.0,0.014221483348613822,0.01173150666662226,0.002541142897175869,0.0,0.0,0.0,0.0,0.0,0.0,0.0,0.0,0.0
3.236,82,3,236000000,base_footprint,-0.0036085183902694294,0.001420046591638757,0.9297594476667087,0.36814716016452115,0.0,0.0,0.0,0.0,0.0,0.0,0.0,0.0,0.0,0.00045643319664330473,0.0008389428038669322,0.04954990607085898,0.0,0.0,0.0,0.0,0.0,0.0,0.0,0.0,0.0,-0.010464131041963115,0.1683445568611508,-0.004385823537902793,0.0,0.0,0.0,0.0,0.0,0.0,0.0,0.0,0.0
3.27,83,3,270000000,base_footprint,-0.003607880914915962,0.0014123835814820785,0.9301106569387493,0.3672589743177027,0.0,0.0,0.0,0.0,0.0,0.0,0.0,0.0,0.0,-0.0012787608174773166,-4.523249862299682e-05,0.0655613312989541,0.0,0.0,0.0,0.0,0.0,0.0,0.0,0.0,0.0,0.010680865442190577,0.050535132892280926,0.0031609130402916524,0.0,0.0,0.0,0.0,0.0,0.0,0.0,0.0,0.0
3.304,84,3,304000000,base_footprint,-0.0036188815521763507,0.0014083866148875462,0.930572920993029,0.36608599926514007,0.0,0.0,0.0,0.0,0.0,0.0,0.0,0.0,0.0,0.006098910938540629,0.0008225740864625012,0.06028373913002933,0.0,0.0,0.0,0.0,0.0,0.0,0.0,0.0,0.0,0.010688529882118467,0.0758017797022745,-0.007686772274129377,0.0,0.0,0.0,0.0,0.0,0.0,0.0,0.0,0.0
3.338,85,3,338000000,base_footprint,-0.0036047499757957406,0.0014027199122619916,0.930881973761315,0.36529958812007757,0.0,0.0,0.0,0.0,0.0,0.0,0.0,0.0,0.0,0.0005081654280984638,0.0009806265706360571,0.059758198178928496,0.0,0.0,0.0,0.0,0.0,0.0,0.0,0.0,0.0,-0.015352761132302647,0.2810507530786145,0.002554339438150398,0.0,0.0,0.0,0.0,0.0,0.0,0.0,0.0,0.0
3.372,86,3,372000000,base_footprint,-0.003605072822227222,0.0013981766005429466,0.9312517774910908,0.3643558363356133,0.0,0.0,0.0,0.0,0.0,0.0,0.0,0.0,0.0,-0.0005995883017284678,0.00034375538382046977,0.06011852034796672,0.0,0.0,0.0,0.0,0.0,0.0,0.0,0.0,0.0,0.015653819411899184,-0.004402803739349416,0.0020463303590078554,0.0,0.0,0.0,0.0,0.0,0.0,0.0,0.0,0.0
3.406,87,3,406000000,base_footprint,-0.0035915332383809374,0.0013931091028045552,0.9316267228108946,0.36339621555632323,0.0,0.0,0.0,0.0,0.0,0.0,0.0,0.0,0.0,-0.001390045665452368,-0.0008060517796553934,0.06548239787434844,0.0,0.0,0.0,0.0,0.0,0.0,0.0,0.0,0.0,0.01745762097050671,-0.09262800463055494,0.002517627746843464,0.0,0.0,0.0,0.0,0.0,0.0,0.0,0.0,0.0
3.44,88,3,440000000,base_footprint,-0.003603255552237312,0.0013909889926932326,0.9321065218781908,0.36216365578449394,0.0,0.0,0.0,0.0,0.0,0.0,0.0,0.0,0.0,0.0007582344356717617,0.0015941149959325836,0.06752916770689855,0.0,0.0,0.0,0.0,0.0,0.0,0.0,0.0,0.0,0.07037810688287569,-0.5898759619737937,-0.001087592251983739,0.0,0.0,0.0,0.0,0.0,0.0,0.0,0.0,0.0
3.474,89,3,474000000,base_footprint,-0.0036042450437117333,0.0013888184075953776,0.9325151191000848,0.36111027851731176,0.0,0.0,0.0,0.0,0.0,0.0,0.0,0.0,0.0,-0.0005205116998331523,0.00019282074138937647,0.06642055651670718,0.0,0.0,0.0,0.0,0.0,0.0,0.0,0.0,0.0,0.014587325499874283,-0.006535067226356197,0.002693364028543491,0.0,0.0,0.0,0.0,0.0,0.0,0.0,0.0,0.0
3.508,90,3,508000000,base_footprint,-0.0036066536983227196,0.0013887500753360133,0.9328844574261446,0.3601550395524913,0.0,0.0,0.0,0.0,0.0,0.0,0.0,0.0,0.0,0.0010339873637471404,6.129140143018564e-05,0.03011764102295708,0.0,0.0,0.0,0.0,0.0,0.0,0.0,0.0,0.0,0.013927603934817576,-0.010809094720247589,-0.0014479833713292045,0.0,0.0,0.0,0.0,0.0,0.0,0.0,0.0,0.0
3.542,91,3,542000000,base_footprint,-0.003610152553363377,0.0013878575573315094,0.9330752783260964,0.35966034758730336,0.0,0.0,0.0,0.0,0.0,0.0,0.0,0.0,0.0,-0.00014030700387900275,-8.011549342103506e-06,0.03098474138230744,0.0,0.0,0.0,0.0,0.0,0.0,0.0,0.0,0.0,0.007918632516171533,-0.006152535278668022,0.0012029350001940334,0.0,0.0,0.0,0.0,0.0,0.0,0.0,0.0,0.0
3.576,92,3,576000000,base_footprint,-0.0036138175673396202,0.0013872069506978603,0.9332591589763791,0.35918290349927234,0.0,0.0,0.0,0.0,0.0,0.0,0.0,0.0,0.0,-0.00012145645723014197,5.525635732096668e-05,0.029143384364500462,0.0,0.0,0.0,0.0,0.0,0.0,0.0,0.0,0.0,0.006376405157807753,-0.002040495281146742,-3.715402070430611e-05,0.0,0.0,0.0,0.0,0.0,0.0,0.0,0.0,0.0
3.61,93,3,610000000,base_footprint,-0.00360219532580978,0.0013760314226993382,0.9334630858348993,0.35865275422049403,0.0,0.0,0.0,0.0,0.0,0.0,0.0,0.0,0.0,-0.00258577322122131,0.0006996459804919589,0.06426499249384128,0.0,0.0,0.0,0.0,0.0,0.0,0.0,0.0,0.0,-0.004338082006945285,0.13138254054187828,0.003151717442706791,0.0,0.0,0.0,0.0,0.0,0.0,0.0,0.0,0.0
3.644,94,3,644000000,base_footprint,-0.0036229153378418825,0.0013754275580573545,0.9342544023901609,0.35658616672284227,0.0,0.0,0.0,0.0,0.0,0.0,0.0,0.0,0.0,0.0005153328470571804,4.914405213087681e-07,0.15919559488198248,0.0,0.0,0.0,0.0,0.0,0.0,0.0,0.0,0.0,-0.014478215271729974,0.32918418983859793,-0.008767669551995289,0.0,0.0,0.0,0.0,0.0,0.0,0.0,0.0,0.0
3.678,95,3,678000000,base_footprint,-0.003627004403184174,0.001360279537744723,0.9350808561042708,0.3544132997306146,0.0,0.0,0.0,0.0,0.0,0.0,0.0,0.0,0.0,-0.000599899685814663,0.0007750397500504629,0.10591199157395445,0.0,0.0,0.0,0.0,0.0,0.0,0.0,0.0,0.0,0.017999756663127843,0.11684421883146695,0.002570395900550617,0.0,0.0,0.0,0.0,0.0,0.0,0.0,0.0,0.0
3.712,96,3,712000000,base_footprint,-0.0036169846718005034,0.0013489953937450875,0.9354582071662653,0.3534162422393579,0.0,0.0,0.0,0.0,0.0,0.0,0.0,0.0,0.0,-0.00027841324615575033,-0.00017122220235909352,0.04385547759535181,0.0,0.0,0.0,0.0,0.0,0.0,0.0,0.0,0.0,0.003240509152614146,0.07274816023744182,0.0009328886510084533,0.0,0.0,0.0,0.0,0.0,0.0,0.0,0.0,0.0
3.746,97,3,746000000,base_footprint,-0.003613543300349947,0.0013489392057238355,0.9359273490565114,0.35217200336751187,0.0,0.0,0.0,0.0,0.0,0.0,0.0,0.0,0.0,-0.0010168083033138017,0.00022866714248515236,0.12918175447785718,0.0,0.0,0.0,0.0,0.0,0.0,0.0,0.0,0.0,0.04073621356871886,-0.162879310033634,0.000697426153210639,0.0,0.0,0.0,0.0,0.0,0.0,0.0,0.0,0.0
3.7800000000000002,98,3,780000000,base_footprint,-0.0036115645387908716,0.0013479622587561455,0.93709739429408,0.3490467206644071,0.0,0.0,0.0,0.0,0.0,0.0,0.0,0.0,0.0,-0.004820003703302116,-0.0018569189563575877,0.22064857376074268,0.0,0.0,0.0,0.0,0.0,0.0,0.0,0.0,0.0,0.05681435113426434,-0.12863776333932447,0.00713342554350884,0.0,0.0,0.0,0.0,0.0,0.0,0.0,0.0,0.0
3.815,99,3,814000000,base_footprint,-0.0036138642629732535,0.0013314882678875542,0.9381956418899089,0.34608395608993964,0.0,0.0,0.0,0.0,0.0,0.0,0.0,0.0,0.0,-9.049832224665335e-05,0.00023256318721752607,0.12026013885253155,0.0,0.0,0.0,0.0,0.0,0.0,0.0,0.0,0.0,0.04582269045122573,-0.02433891064891479,-0.007426847738040778,0.0,0.0,0.0,0.0,0.0,0.0,0.0,0.0,0.0
3.848,100,3,848000000,base_footprint,-0.0036176148951639073,0.0013293340306228508,0.9386777660059621,0.3447741251015826,0.0,0.0,0.0,0.0,0.0,0.0,0.0,0.0,0.0,-0.0011681833639292643,-0.000936095794083779,0.03804795607535365,0.0,0.0,0.0,0.0,0.0,0.0,0.0,0.0,0.0,0.052029304141644195,-0.22210384169846295,0.004606948219016605,0.0,0.0,0.0,0.0,0.0,0.0,0.0,0.0,0.0
3.882,101,3,882000000,base_footprint,-0.0036314173878709637,0.0013242294165527195,0.9387850910025306,0.3444816571830466,0.0,0.0,0.0,0.0,0.0,0.0,0.0,0.0,0.0,-0.00033192324607441396,9.431738322415545e-05,0.01630861885831904,0.0,0.0,0.0,0.0,0.0,0.0,0.0,0.0,0.0,0.01323757376125028,-0.06265433084645662,-0.0014456791498792423,0.0,0.0,0.0,0.0,0.0,0.0,0.0,0.0,0.0
3.916,102,3,916000000,base_footprint,-0.0036338900916701644,0.0013252777584870925,0.938882765266751,0.3442153273268399,0.0,0.0,0.0,0.0,0.0,0.0,0.0,0.0,0.0,0.001165587854252399,0.00010563452946133888,0.03719497637215844,0.0,0.0,0.0,0.0,0.0,0.0,0.0,0.0,0.0,-0.056484074204867965,0.36033176389252725,-0.003921000782169018,0.0,0.0,0.0,0.0,0.0,0.0,0.0,0.0,0.0
3.95,103,3,950000000,base_footprint,-0.003632515913925828,0.001320374267934532,0.9393744780264628,0.3428711878715362,0.0,0.0,0.0,0.0,0.0,0.0,0.0,0.0,0.0,-0.0012127437139315001,-1.7842381169667074e-05,0.03613007887319591,0.0,0.0,0.0,0.0,0.0,0.0,0.0,0.0,0.0,-0.03221980286373313,0.3152361615297241,0.000995935136034283,0.0,0.0,0.0,0.0,0.0,0.0,0.0,0.0,0.0
3.984,104,3,984000000,base_footprint,-0.0036318947463857823,0.0013194367525524904,0.9395936354501443,0.3422701690898415,0.0,0.0,0.0,0.0,0.0,0.0,0.0,0.0,0.0,-0.0003309048231081895,8.187639803432261e-06,0.039181774187349264,0.0,0.0,0.0,0.0,0.0,0.0,0.0,0.0,0.0,0.004262412725870993,-0.007791648057232162,-0.000980350576991747,0.0,0.0,0.0,0.0,0.0,0.0,0.0,0.0,0.0
4.018,105,4,18000000,base_footprint,-0.003628121093381671,0.0013160118281369572,0.9397505851002224,0.34183905957919714,0.0,0.0,0.0,0.0,0.0,0.0,0.0,0.0,0.0,-0.00014495536155855883,-5.0662374021917994e-05,-0.0076362526408509475,0.0,0.0,0.0,0.0,0.0,0.0,0.0,0.0,0.0,0.06325039261466436,-0.3217993227322882,0.002058979720281023,0.0,0.0,0.0,0.0,0.0,0.0,0.0,0.0,0.0
4.052,106,4,52000000,base_footprint,-0.0036330777808350795,0.001316966084539016,0.9397873462620174,0.3417379261246338,0.0,0.0,0.0,0.0,0.0,0.0,0.0,0.0,0.0,-0.00038298000550290705,0.00022803832226527833,0.04695773639564197,0.0,0.0,0.0,0.0,0.0,0.0,0.0,0.0,0.0,0.05091515663052926,-0.2875055128710614,0.0016299595805312505,0.0,0.0,0.0,0.0,0.0,0.0,0.0,0.0,0.0
4.086,107,4,86000000,base_footprint,-0.0036410778297618356,0.0013171110050381983,0.9401861236678769,0.34063919421172,0.0,0.0,0.0,0.0,0.0,0.0,0.0,0.0,0.0,-0.00021876169774410836,0.00023529643612438058,0.07001156028208476,0.0,0.0,0.0,0.0,0.0,0.0,0.0,0.0,0.0,0.023473336507343925,-0.05449631122484842,-0.0003139255011954242,0.0,0.0,0.0,0.0,0.0,0.0,0.0,0.0,0.0
4.12,108,4,120000000,base_footprint,-0.0036467225401392972,0.0013163391542391958,0.9404125057824207,0.3400136580109319,0.0,0.0,0.0,0.0,0.0,0.0,0.0,0.0,0.0,0.001106261541114867,0.00032707401597275687,-0.001874128191987942,0.0,0.0,0.0,0.0,0.0,0.0,0.0,0.0,0.0,0.02429164708706771,-0.04705960238041101,-0.0018788664251542012,0.0,0.0,0.0,0.0,0.0,0.0,0.0,0.0,0.0
4.154,109,4,154000000,base_footprint,-0.003646065067917345,0.0013101075814272096,0.9403419286890156,0.3402088284819603,0.0,0.0,0.0,0.0,0.0,0.0,0.0,0.0,0.0,0.00022521687135887035,-5.867614115930227e-05,-0.021968560449458385,0.0,0.0,0.0,0.0,0.0,0.0,0.0,0.0,0.0,-0.01452002887496187,0.04510605335910381,0.0018189205607320388,0.0,0.0,0.0,0.0,0.0,0.0,0.0,0.0,0.0
4.188,110,4,188000000,base_footprint,-0.003648417564835001,0.0013095745708973931,0.9402456456298414,0.34047481542375274,0.0,0.0,0.0,0.0,0.0,0.0,0.0,0.0,0.0,0.00010692895120686385,8.706214913661803e-05,-0.01573606841653753,0.0,0.0,0.0,0.0,0.0,0.0,0.0,0.0,0.0,-0.0036624776512239167,-0.004520348246444468,0.00023177455049663308,0.0,0.0,0.0,0.0,0.0,0.0,0.0,0.0,0.0
4.222,111,4,222000000,base_footprint,-0.003633701038931988,0.0013148686984612488,0.9400907964818667,0.34090227589025446,0.0,0.0,0.0,0.0,0.0,0.0,0.0,0.0,0.0,0.0015801046550992107,-7.542292450918162e-05,-0.025335000538483442,0.0,0.0,0.0,0.0,0.0,0.0,0.0,0.0,0.0,-0.028997720635999584,0.1392741214272083,-0.0032923223062138003,0.0,0.0,0.0,0.0,0.0,0.0,0.0,0.0,0.0
4.256,112,4,256000000,base_footprint,-0.0036477162617066733,0.0013119828977796045,0.9398570302741761,0.3415460957340261,0.0,0.0,0.0,0.0,0.0,0.0,0.0,0.0,0.0,-0.0011723208588527007,-0.0001463023748680156,-0.04827021765733068,0.0,0.0,0.0,0.0,0.0,0.0,0.0,0.0,0.0,-0.03399906277740109,0.11844256100066729,0.004357935697520493,0.0,0.0,0.0,0.0,0.0,0.0,0.0,0.0,0.0
4.29,113,4,290000000,base_footprint,-0.003638545827228261,0.0013133181235338777,0.9397326473076439,0.34188826795305055,0.0,0.0,0.0,0.0,0.0,0.0,0.0,0.0,0.0,0.00028457015265273366,0.000920634712828171,-0.007365932991121197,0.0,0.0,0.0,0.0,0.0,0.0,0.0,0.0,0.0,-0.024343846709962157,0.1053646811023653,-0.004555957404675435,0.0,0.0,0.0,0.0,0.0,0.0,0.0,0.0,0.0
4.324,114,4,324000000,base_footprint,-0.0036287410009667198,0.0013148465420584833,0.939794901717308,0.3417172019718562,0.0,0.0,0.0,0.0,0.0,0.0,0.0,0.0,0.0,0.0023442389986184794,0.0009439138133828642,0.04443208536566147,0.0,0.0,0.0,0.0,0.0,0.0,0.0,0.0,0.0,0.0562383635569413,-0.3016678061530753,0.0002463441103597758,0.0,0.0,0.0,0.0,0.0,0.0,0.0,0.0,0.0
4.358,115,4,358000000,base_footprint,-0.003637951519179219,0.0013095829384310352,0.9399663213239531,0.3412453151004225,0.0,0.0,0.0,0.0,0.0,0.0,0.0,0.0,0.0,-0.0004124143309119817,0.00013825531487169276,0.028654770294736422,0.0,0.0,0.0,0.0,0.0,0.0,0.0,0.0,0.0,0.017165247920353892,-0.04652020270108967,0.003824864724554645,0.0,0.0,0.0,0.0,0.0,0.0,0.0,0.0,0.0
4.392,116,4,392000000,base_footprint,-0.003636666235068734,0.0013085702270284533,0.9401322838120232,0.3407878390392552,0.0,0.0,0.0,0.0,0.0,0.0,0.0,0.0,0.0,-0.00048115004644197175,-8.78613283278423e-05,0.02866391973372858,0.0,0.0,0.0,0.0,0.0,0.0,0.0,0.0,0.0,0.006976397370681892,-0.003107241770802648,0.00039165604273467126,0.0,0.0,0.0,0.0,0.0,0.0,0.0,0.0,0.0
4.426,117,4,426000000,base_footprint,-0.0036350382282250566,0.0013104613529870228,0.9401370129383972,0.34077480260633913,0.0,0.0,0.0,0.0,0.0,0.0,0.0,0.0,0.0,-0.00012794596085546642,-0.00026167936969456957,-0.010866568280251518,0.0,0.0,0.0,0.0,0.0,0.0,0.0,0.0,0.0,0.003432428784519834,-0.015827720832789015,-0.00010059003608744897,0.0,0.0,0.0,0.0,0.0,0.0,0.0,0.0,0.0
4.46,118,4,460000000,base_footprint,-0.0036344650008014643,0.0013133636477408316,0.9400718112328874,0.34095462376305347,0.0,0.0,0.0,0.0,0.0,0.0,0.0,0.0,0.0,-5.064578986051761e-06,-0.00024840949039693524,-0.01149756648287652,0.0,0.0,0.0,0.0,0.0,0.0,0.0,0.0,0.0,-0.0013890781916875855,-0.0057072378006397416,-0.00023546193108927986,0.0,0.0,0.0,0.0,0.0,0.0,0.0,0.0,0.0
4.494,119,4,494000000,base_footprint,-0.003635867700715655,0.0013169101390561307,0.9400019416255881,0.34114717638267666,0.0,0.0,0.0,0.0,0.0,0.0,0.0,0.0,0.0,8.154271979025782e-05,-0.00022885070368630642,-0.012510506230657227,0.0,0.0,0.0,0.0,0.0,0.0,0.0,0.0,0.0,-0.0018656398290671785,-0.005237236915183699,-0.0001667668780673943,0.0,0.0,0.0,0.0,0.0,0.0,0.0,0.0,0.0
4.5280000000000005,120,4,528000000,base_footprint,-0.0036338538157311296,0.0013076986793117318,0.9401771268056163,0.34066413850322785,0.0,0.0,0.0,0.0,0.0,0.0,0.0,0.0,0.0,-0.0012437400484184508,0.00035972620399066333,0.0935010028394748,0.0,0.0,0.0,0.0,0.0,0.0,0.0,0.0,0.0,-0.09990969476032266,0.5778951733989692,-0.0022033061245508127,0.0,0.0,0.0,0.0,0.0,0.0,0.0,0.0,0.0
4.562,121,4,562000000,base_footprint,-0.003635441146839775,0.0013077673088871418,0.9403897480309037,0.3400767488534125,0.0,0.0,0.0,0.0,0.0,0.0,0.0,0.0,0.0,0.0018501692017497634,0.00035385233789135063,-0.013981775291187874,0.0,0.0,0.0,0.0,0.0,0.0,0.0,0.0,0.0,0.056005173145623366,-0.24823873086456283,-0.0028043305051350413,0.0,0.0,0.0,0.0,0.0,0.0,0.0,0.0,0.0
4.596,122,4,596000000,base_footprint,-0.0036419883576380733,0.0013088756678382113,0.9402928744933713,0.3403444328063589,0.0,0.0,0.0,0.0,0.0,0.0,0.0,0.0,0.0,-0.0002407695015860779,0.0004088129421783561,-0.022861019992693236,0.0,0.0,0.0,0.0,0.0,0.0,0.0,0.0,0.0,-0.004119699020073347,0.01888481204803444,0.0030182293088779075,0.0,0.0,0.0,0.0,0.0,0.0,0.0,0.0,0.0
4.631,123,4,630000000,base_footprint,-0.0036373169037808694,0.0012996899406341987,0.9398587023762014,0.3415416523639871,0.0,0.0,0.0,0.0,0.0,0.0,0.0,0.0,0.0,0.0016057336097541747,-0.000712971336017022,-0.09283556419532694,0.0,0.0,0.0,0.0,0.0,0.0,0.0,0.0,0.0,-0.0013666979192577117,-0.08430743537795471,-0.0007759329820903528,0.0,0.0,0.0,0.0,0.0,0.0,0.0,0.0,0.0
4.664,124,4,664000000,base_footprint,-0.003636450810971248,0.0013057233820693058,0.9394161167822747,0.3427571018106857,0.0,0.0,0.0,0.0,0.0,0.0,0.0,0.0,0.0,0.00013576545327614127,-0.0003043669047221706,-0.05307130167483041,0.0,0.0,0.0,0.0,0.0,0.0,0.0,0.0,0.0,-0.0052581509531327356,-0.07551161261080253,0.0016356929557430717,0.0,0.0,0.0,0.0,0.0,0.0,0.0,0.0,0.0
4.698,125,4,698000000,base_footprint,-0.003637703060006842,0.0013094499536854313,0.939336366396634,0.3429755723401229,0.0,0.0,0.0,0.0,0.0,0.0,0.0,0.0,0.0,0.002654485784897667,-0.0009874916498207966,0.02765212258474083,0.0,0.0,0.0,0.0,0.0,0.0,0.0,0.0,0.0,0.021974535086442384,-0.14791919803062972,-0.0033681408458116247,0.0,0.0,0.0,0.0,0.0,0.0,0.0,0.0,0.0
4.732,126,4,732000000,base_footprint,-0.0036460978445287764,0.0013181998055619452,0.9392997775344462,0.3430756421600357,0.0,0.0,0.0,0.0,0.0,0.0,0.0,0.0,0.0,-6.922037773052837e-05,0.00026477331956082533,-0.01085777037654463,0.0,0.0,0.0,0.0,0.0,0.0,0.0,0.0,0.0,-0.026816997330070695,0.13974968320943304,0.0030482953752470903,0.0,0.0,0.0,0.0,0.0,0.0,0.0,0.0,0.0
4.766,127,4,766000000,base_footprint,-0.0036357304606664215,0.0013177240605044098,0.9393718118457651,0.34287846852335635,0.0,0.0,0.0,0.0,0.0,0.0,0.0,0.0,0.0,-0.0002669543947682579,0.00022243763821089453,0.04292803624356082,0.0,0.0,0.0,0.0,0.0,0.0,0.0,0.0,0.0,-0.018545402706943617,0.1318392090965547,-0.00046521836256531657,0.0,0.0,0.0,0.0,0.0,0.0,0.0,0.0,0.0
4.8,128,4,800000000,base_footprint,-0.0036418164531626033,0.0013108090726029486,0.9397595426040366,0.34181430782977573,0.0,0.0,0.0,0.0,0.0,0.0,0.0,0.0,0.0,-0.000525706136143601,0.0004177537145923306,0.06538757630907167,0.0,0.0,0.0,0.0,0.0,0.0,0.0,0.0,0.0,0.0031160999165396504,0.058650313116536165,-0.00016067421553839044,0.0,0.0,0.0,0.0,0.0,0.0,0.0,0.0,0.0
4.834,129,4,834000000,base_footprint,-0.003637924648533087,0.0013117197664062445,0.9397458226167881,0.34185206415904873,0.0,0.0,0.0,0.0,0.0,0.0,0.0,0.0,0.0,-0.00017451728793802857,-0.00012254534987416908,-0.012447124193801208,0.0,0.0,0.0,0.0,0.0,0.0,0.0,0.0,0.0,0.0020476717752715787,-0.01503468906472891,0.0001822717560301542,0.0,0.0,0.0,0.0,0.0,0.0,0.0,0.0,0.0
4.868,130,4,868000000,base_footprint,-0.0036365820803033982,0.001312653637139077,0.9396710545472634,0.34205754114949155,0.0,0.0,0.0,0.0,0.0,0.0,0.0,0.0,0.0,-0.0001381586093600056,-0.00016073774192417288,-0.012940016084682586,0.0,0.0,0.0,0.0,0.0,0.0,0.0,0.0,0.0,-0.0019612427344805968,-0.006102129458750286,9.746088991908184e-05,0.0,0.0,0.0,0.0,0.0,0.0,0.0,0.0,0.0
4.902,131,4,902000000,base_footprint,-0.003631635679101215,0.0013153786104161873,0.939594019465909,0.3422691332640184,0.0,0.0,0.0,0.0,0.0,0.0,0.0,0.0,0.0,-0.0034481578545838736,-0.0026506501668859175,-0.013743906614009514,0.0,0.0,0.0,0.0,0.0,0.0,0.0,0.0,0.0,0.00362629918233838,-0.029338504992666083,0.0037557655769698164,0.0,0.0,0.0,0.0,0.0,0.0,0.0,0.0,0.0
4.936,132,4,936000000,base_footprint,-0.0036330299677494638,0.0013164961029315553,0.9396690212682635,0.3420631497253226,0.0,0.0,0.0,0.0,0.0,0.0,0.0,0.0,0.0,-0.0005534417899520766,-0.00023120156299732435,0.03239578133733368,0.0,0.0,0.0,0.0,0.0,0.0,0.0,0.0,0.0,0.05443346668297594,-0.3060253411180092,-0.0015488579294498871,0.0,0.0,0.0,0.0,0.0,0.0,0.0,0.0,0.0
4.974,133,4,970000000,base_footprint,-0.003634619949188912,0.0013175030198316726,0.9398537801577632,0.3415551575467433,0.0,0.0,0.0,0.0,0.0,0.0,0.0,0.0,0.0,-0.00018244700145199455,-4.894071376104037e-05,0.031434520936975276,0.0,0.0,0.0,0.0,0.0,0.0,0.0,0.0,0.0,0.007917456364617206,-0.0025581864929277815,-0.0004898661017839003,0.0,0.0,0.0,0.0,0.0,0.0,0.0,0.0,0.0
5.004,134,5,4000000,base_footprint,-0.0036421845968637747,0.0013161924846529145,0.9400359824669773,0.3410533005206817,0.0,0.0,0.0,0.0,0.0,0.0,0.0,0.0,0.0,-0.0001307123125294953,0.002774968770674656,0.04320147333238139,0.0,0.0,0.0,0.0,0.0,0.0,0.0,0.0,0.0,-0.0028387074195106894,0.06203423165410535,0.002434540039181443,0.0,0.0,0.0,0.0,0.0,0.0,0.0,0.0,0.0
5.038,135,5,38000000,base_footprint,-0.003632439278628157,0.0013038176644807416,0.9407255005100338,0.3391469270604281,0.0,0.0,0.0,0.0,0.0,0.0,0.0,0.0,0.0,0.001814256505517403,-0.0009602839472189915,0.15228561503915047,0.0,0.0,0.0,0.0,0.0,0.0,0.0,0.0,0.0,-0.08646918901875902,0.560150977488506,-0.008504729634638959,0.0,0.0,0.0,0.0,0.0,0.0,0.0,0.0,0.0
5.072,136,5,72000000,base_footprint,-0.003640959023019937,0.0012986856643428788,0.9410725587659086,0.33818263700362167,0.0,0.0,0.0,0.0,0.0,0.0,0.0,0.0,0.0,-0.0003766842372743273,0.0007543803049010039,0.026599977925995166,0.0,0.0,0.0,0.0,0.0,0.0,0.0,0.0,0.0,0.07241337486910776,-0.2588040462863363,0.0038351946326093188,0.0,0.0,0.0,0.0,0.0,0.0,0.0,0.0,0.0
5.106,137,5,106000000,base_footprint,-0.0036421652998100584,0.0012932994063168924,0.9411515845847805,0.3379626559875089,0.0,0.0,0.0,0.0,0.0,0.0,0.0,0.0,0.0,-0.002287610556140893,-0.0006050415331523759,-0.02222354386817733,0.0,0.0,0.0,0.0,0.0,0.0,0.0,0.0,0.0,-0.0016672822914041417,-0.006491371280613876,0.005683549159721763,0.0,0.0,0.0,0.0,0.0,0.0,0.0,0.0,0.0
5.14,138,5,140000000,base_footprint,-0.003640368889827527,0.0012938889893535596,0.9406273938288515,0.3394188850732558,0.0,0.0,0.0,0.0,0.0,0.0,0.0,0.0,0.0,0.00246036796827033,0.00037034669915633994,-0.11484357726829901,0.0,0.0,0.0,0.0,0.0,0.0,0.0,0.0,0.0,0.032067966324536096,-0.2407189338910266,-0.007223823806833306,0.0,0.0,0.0,0.0,0.0,0.0,0.0,0.0,0.0
5.174,139,5,174000000,base_footprint,-0.003644910102208707,0.0013060106960930827,0.9401625774158523,0.3407041781269937,0.0,0.0,0.0,0.0,0.0,0.0,0.0,0.0,0.0,0.0026918455242619073,-0.0008888193722496705,-0.048947773644207354,0.0,0.0,0.0,0.0,0.0,0.0,0.0,0.0,0.0,-0.002944300091086413,-0.12025524589718198,0.00035443391945874387,0.0,0.0,0.0,0.0,0.0,0.0,0.0,0.0,0.0
5.208,140,5,208000000,base_footprint,-0.003636965081473195,0.0013059575980329276,0.9399017132682059,0.3414232510466145,0.0,0.0,0.0,0.0,0.0,0.0,0.0,0.0,0.0,0.0006760845148092104,-0.0011076944717479803,-0.014648770364877524,0.0,0.0,0.0,0.0,0.0,0.0,0.0,0.0,0.0,0.0058067729661232855,-0.030060544346351317,0.0012672011413373393,0.0,0.0,0.0,0.0,0.0,0.0,0.0,0.0,0.0
5.242,141,5,242000000,base_footprint,-0.0036420180090804702,0.0013105282074584513,0.9399132295270033,0.34139147496789946,0.0,0.0,0.0,0.0,0.0,0.0,0.0,0.0,0.0,-0.0006830685520000609,-0.0002718041712709433,0.014202716005239212,0.0,0.0,0.0,0.0,0.0,0.0,0.0,0.0,0.0,-0.013151716723434053,0.042803866567180264,0.0033035170931705275,0.0,0.0,0.0,0.0,0.0,0.0,0.0,0.0,0.0
5.276,142,5,276000000,base_footprint,-0.0036442420343909686,0.0013072818646660562,0.9400359014775477,0.3410535360429733,0.0,0.0,0.0,0.0,0.0,0.0,0.0,0.0,0.0,-0.00031462346025648894,5.5893738332050163e-05,0.017008025203425405,0.0,0.0,0.0,0.0,0.0,0.0,0.0,0.0,0.0,0.004453294252323125,0.004497721829537406,-0.0008350545485618859,0.0,0.0,0.0,0.0,0.0,0.0,0.0,0.0,0.0
5.311,143,5,310000000,base_footprint,-0.0036398592951834424,0.0013063132000639573,0.9401230756871229,0.34081321501772616,0.0,0.0,0.0,0.0,0.0,0.0,0.0,0.0,0.0,0.000451871458120543,0.00025414349605148566,-0.004083985070746783,0.0,0.0,0.0,0.0,0.0,0.0,0.0,0.0,0.0,0.0014471383853982887,-0.002314429139535387,-0.0009880168661673165,0.0,0.0,0.0,0.0,0.0,0.0,0.0,0.0,0.0
5.344,144,5,344000000,base_footprint,-0.003638451717852796,0.0013078214389705598,0.9401115483090232,0.3408450205125374,0.0,0.0,0.0,0.0,0.0,0.0,0.0,0.0,0.0,-0.00018112661116399866,-1.7294232224132848e-05,-0.0015146117381529367,0.0,0.0,0.0,0.0,0.0,0.0,0.0,0.0,0.0,0.00022008612965890566,-0.001486450017351616,0.0008481334250263161,0.0,0.0,0.0,0.0,0.0,0.0,0.0,0.0,0.0
5.378,145,5,378000000,base_footprint,-0.003636011789674934,0.0013094814321691066,0.9401016478182966,0.3408723462617168,0.0,0.0,0.0,0.0,0.0,0.0,0.0,0.0,0.0,-0.00021928580106283003,-0.00024028704221574224,-0.0018216529127258625,0.0,0.0,0.0,0.0,0.0,0.0,0.0,0.0,0.0,0.0003120087203422827,-0.005127981859649151,0.00033571956302737803,0.0,0.0,0.0,0.0,0.0,0.0,0.0,0.0,0.0
5.411,146,5,412000000,base_footprint,-0.003636133136865846,0.0013129686047390948,0.9400266009664311,0.3410792343792746,0.0,0.0,0.0,0.0,0.0,0.0,0.0,0.0,0.0,-0.0009064450454026871,-0.0005219350266922712,-0.0399523059847288,0.0,0.0,0.0,0.0,0.0,0.0,0.0,0.0,0.0,0.0025268941965566893,-0.017595610518995518,0.001279194547760831,0.0,0.0,0.0,0.0,0.0,0.0,0.0,0.0,0.0
5.446,147,5,446000000,base_footprint,-0.003634494886351463,0.0013177978051599059,0.9397976649305824,0.3417095299327935,0.0,0.0,0.0,0.0,0.0,0.0,0.0,0.0,0.0,0.00023059759458479161,-0.00039872827895270067,-0.039642164658684385,0.0,0.0,0.0,0.0,0.0,0.0,0.0,0.0,0.0,-0.009983778762362163,-0.0044409300172109315,-0.00166981544510483,0.0,0.0,0.0,0.0,0.0,0.0,0.0,0.0,0.0
5.48,148,5,480000000,base_footprint,-0.0036351065892845274,0.00132234416242247,0.9395624868128318,0.34235562034248535,0.0,0.0,0.0,0.0,0.0,0.0,0.0,0.0,0.0,0.0002108714838090858,-0.00038758421490069637,-0.04133101107214646,0.0,0.0,0.0,0.0,0.0,0.0,0.0,0.0,0.0,-0.008466563725232436,-0.004926864704671202,-0.00010769172791247115,0.0,0.0,0.0,0.0,0.0,0.0,0.0,0.0,0.0
5.514,149,5,514000000,base_footprint,-0.003631097128880896,0.001316701854810366,0.9393900907971491,0.3428284392257886,0.0,0.0,0.0,0.0,0.0,0.0,0.0,0.0,0.0,0.000812395978521701,0.000475921221973668,0.01964790605631015,0.0,0.0,0.0,0.0,0.0,0.0,0.0,0.0,0.0,-0.04912569113664551,0.24463195740264473,-0.002120546612801941,0.0,0.0,0.0,0.0,0.0,0.0,0.0,0.0,0.0
5.548,150,5,548000000,base_footprint,-0.003634027288174238,0.0013199691031544212,0.9397251674215057,0.3419088493178537,0.0,0.0,0.0,0.0,0.0,0.0,0.0,0.0,0.0,0.0013073878237445922,-0.000986359053004197,-0.010495388887613415,0.0,0.0,0.0,0.0,0.0,0.0,0.0,0.0,0.0,-0.02116411036410211,0.1858847840318927,-0.0020213287409117,0.0,0.0,0.0,0.0,0.0,0.0,0.0,0.0,0.0
5.582,151,5,582000000,base_footprint,-0.0036421003756775677,0.001320414649465345,0.9393305479040034,0.34299141882031364,0.0,0.0,0.0,0.0,0.0,0.0,0.0,0.0,0.0,0.0002534797459227805,-0.0004097798780424277,-0.08204754693989949,0.0,0.0,0.0,0.0,0.0,0.0,0.0,0.0,0.0,-0.009425587493298714,-0.038994726695342735,0.0019062553363315487,0.0,0.0,0.0,0.0,0.0,0.0,0.0,0.0,0.0
5.616,152,5,616000000,base_footprint,-0.003628668050459809,0.0013153844750825156,0.9387864477280683,0.3444780226574365,0.0,0.0,0.0,0.0,0.0,0.0,0.0,0.0,0.0,0.001104914587918513,-0.001774944926215322,-0.12625995434366596,0.0,0.0,0.0,0.0,0.0,0.0,0.0,0.0,0.0,0.009491414289170878,-0.12670242336738202,0.002333446628219462,0.0,0.0,0.0,0.0,0.0,0.0,0.0,0.0,0.0
5.65,153,5,650000000,base_footprint,-0.0036321259378655642,0.0013202731436745812,0.9381825788747032,0.34611921824135816,0.0,0.0,0.0,0.0,0.0,0.0,0.0,0.0,0.0,1.5626468654966562e-06,-0.0005162711084913769,-0.0667767696184748,0.0,0.0,0.0,0.0,0.0,0.0,0.0,0.0,0.0,-0.006506159604440329,-0.13038396857827192,-0.0005504035558177825,0.0,0.0,0.0,0.0,0.0,0.0,0.0,0.0,0.0
5.684,154,5,684000000,base_footprint,-0.0036336876513952585,0.001329754529568332,0.9380353508399897,0.34651797737121914,0.0,0.0,0.0,0.0,0.0,0.0,0.0,0.0,0.0,-0.0009680391492609747,-0.00062532735260265,-0.008053414728904484,0.0,0.0,0.0,0.0,0.0,0.0,0.0,0.0,0.0,0.01693027563017417,-0.11211581934895759,0.0017037512425278614,0.0,0.0,0.0,0.0,0.0,0.0,0.0,0.0,0.0
5.718,155,5,718000000,base_footprint,-0.0036320685500489582,0.001333469850435561,0.9380079710256713,0.34659208910260647,0.0,0.0,0.0,0.0,0.0,0.0,0.0,0.0,0.0,0.0004848479418914955,0.0004067911978632418,-0.004611437610177891,0.0,0.0,0.0,0.0,0.0,0.0,0.0,0.0,0.0,-0.014820044250863907,0.056265683320699866,-0.002639805983098871,0.0,0.0,0.0,0.0,0.0,0.0,0.0,0.0,0.0
5.752,156,5,752000000,base_footprint,-0.003635483843670644,0.0013311021652481474,0.9379160244627158,0.34684080279041923,0.0,0.0,0.0,0.0,0.0,0.0,0.0,0.0,0.0,0.0004222856864260082,0.00029818988868058135,-0.028855971260519236,0.0,0.0,0.0,0.0,0.0,0.0,0.0,0.0,0.0,0.008528457316873683,-0.06757785763614972,0.00037308189294148685,0.0,0.0,0.0,0.0,0.0,0.0,0.0,0.0,0.0
5.786,157,5,786000000,base_footprint,-0.0036309793748681277,0.0013329275566815626,0.9377663696442904,0.3472452667165904,0.0,0.0,0.0,0.0,0.0,0.0,0.0,0.0,0.0,-0.00016206671039400828,-0.00014664338514116932,-0.024508219920802314,0.0,0.0,0.0,0.0,0.0,0.0,0.0,0.0,0.0,-0.007545805832974966,0.005480117442789401,0.0009494107147072362,0.0,0.0,0.0,0.0,0.0,0.0,0.0,0.0,0.0
5.82,158,5,820000000,base_footprint,-0.0036337432692051513,0.0013378510877992715,0.9375480959820306,0.34783411820117577,0.0,0.0,0.0,0.0,0.0,0.0,0.0,0.0,0.0,0.0007435176819043496,-0.0002875393340297937,-0.06458109215917635,0.0,0.0,0.0,0.0,0.0,0.0,0.0,0.0,0.0,-0.07824450893216706,0.46946168501381513,-0.003410439184514319,0.0,0.0,0.0,0.0,0.0,0.0,0.0,0.0,0.0
5.854,159,5,854000000,base_footprint,-0.0036143349319846924,0.001340217349150642,0.9372165741770854,0.3487265884446214,0.0,0.0,0.0,0.0,0.0,0.0,0.0,0.0,0.0,0.0005456549250526902,-0.0005314626694666851,-0.03707289382170379,0.0,0.0,0.0,0.0,0.0,0.0,0.0,0.0,0.0,-0.003163161015375962,-0.05756654640551187,0.0006688206276352611,0.0,0.0,0.0,0.0,0.0,0.0,0.0,0.0,0.0
5.888,160,5,888000000,base_footprint,-0.0036227710780145903,0.0013435704625070534,0.9370103964192938,0.3492800987034425,0.0,0.0,0.0,0.0,0.0,0.0,0.0,0.0,0.0,4.549135355964019e-05,-0.00036129004451534937,-0.03398746990864517,0.0,0.0,0.0,0.0,0.0,0.0,0.0,0.0,0.0,0.0059202140048331894,-0.09566756247794389,0.0006294043227408105,0.0,0.0,0.0,0.0,0.0,0.0,0.0,0.0,0.0
5.922,161,5,922000000,base_footprint,-0.003619675395801957,0.0013454577113875066,0.9368314913408463,0.3497596953990868,0.0,0.0,0.0,0.0,0.0,0.0,0.0,0.0,0.0,-0.00027172822644305056,-0.0001230001580634541,0.005802225710466839,0.0,0.0,0.0,0.0,0.0,0.0,0.0,0.0,0.0,0.036176601568663716,-0.2977818473275321,0.001794241651786715,0.0,0.0,0.0,0.0,0.0,0.0,0.0,0.0,0.0
5.955,162,5,956000000,base_footprint,-0.003624238938547721,0.0013492063291518563,0.936942228602376,0.3494628804265353,0.0,0.0,0.0,0.0,0.0,0.0,0.0,0.0,0.0,-0.00010325683404457115,-0.00011541437260289415,0.01832134575725003,0.0,0.0,0.0,0.0,0.0,0.0,0.0,0.0,0.0,0.00830892356820831,-0.03556236902895413,-0.0002740819585991862,0.0,0.0,0.0,0.0,0.0,0.0,0.0,0.0,0.0
5.99,163,5,990000000,base_footprint,-0.003626467035941996,0.0013495176666826773,0.937045267444969,0.3491864749641535,0.0,0.0,0.0,0.0,0.0,0.0,0.0,0.0,0.0,-8.96962481853997e-05,-7.306559658090082e-05,0.016218945537645753,0.0,0.0,0.0,0.0,0.0,0.0,0.0,0.0,0.0,0.0036333842649061837,-0.001956430471786866,-2.456668256193616e-05,0.0,0.0,0.0,0.0,0.0,0.0,0.0,0.0,0.0
6.024,164,6,24000000,base_footprint,-0.0036241553615934947,0.0013347604885103998,0.937361835394721,0.34833586300838093,0.0,0.0,0.0,0.0,0.0,0.0,0.0,0.0,0.0,0.0005327988300658413,0.0017490606235141897,0.1044215466990775,0.0,0.0,0.0,0.0,0.0,0.0,0.0,0.0,0.0,-0.042671309934152635,0.34938999678660076,-0.004297743877024487,0.0,0.0,0.0,0.0,0.0,0.0,0.0,0.0,0.0
6.058,165,6,58000000,base_footprint,-0.003636748834041994,0.0013462744809385053,0.9376403341381667,0.3475853354216876,0.0,0.0,0.0,0.0,0.0,0.0,0.0,0.0,0.0,0.00031137571991672565,0.00046418015404286334,0.006650880129567171,0.0,0.0,0.0,0.0,0.0,0.0,0.0,0.0,0.0,0.020597780508170765,-0.02064910243347872,0.0012042120055340833,0.0,0.0,0.0,0.0,0.0,0.0,0.0,0.0,0.0
6.092,166,6,92000000,base_footprint,-0.0036359706097483127,0.001341588968117843,0.9376403504005664,0.34758531781056146,0.0,0.0,0.0,0.0,0.0,0.0,0.0,0.0,0.0,6.102534276779965e-05,7.611403173855196e-05,-0.0020201944270808467,0.0,0.0,0.0,0.0,0.0,0.0,0.0,0.0,0.0,-0.006464300858923487,0.018461529489164442,0.0008353828406864666,0.0,0.0,0.0,0.0,0.0,0.0,0.0,0.0,0.0
6.126,167,6,126000000,base_footprint,-0.003628337565420425,0.0013289560142668274,0.9375516376733757,0.34782466234928605,0.0,0.0,0.0,0.0,0.0,0.0,0.0,0.0,0.0,0.0015618280403172586,0.0007342720180839688,-0.019855777980255774,0.0,0.0,0.0,0.0,0.0,0.0,0.0,0.0,0.0,0.024394382143229747,-0.17166902579428223,-0.0012117865633664454,0.0,0.0,0.0,0.0,0.0,0.0,0.0,0.0,0.0
6.16,168,6,160000000,base_footprint,-0.003636179960115881,0.0013332692538028784,0.9377128743686585,0.3473896455446867,0.0,0.0,0.0,0.0,0.0,0.0,0.0,0.0,0.0,0.0009964897899174768,-0.00026934180112320253,0.06441989685704642,0.0,0.0,0.0,0.0,0.0,0.0,0.0,0.0,0.0,0.019556314268722577,-0.13920746368932563,0.0017835673122780877,0.0,0.0,0.0,0.0,0.0,0.0,0.0,0.0,0.0
6.194,169,6,194000000,base_footprint,-0.0036306314708966316,0.0013323518875010655,0.9381026060860257,0.3463358829347279,0.0,0.0,0.0,0.0,0.0,0.0,0.0,0.0,0.0,-0.0006131150544742676,0.00039864718057732086,0.07597418483370198,0.0,0.0,0.0,0.0,0.0,0.0,0.0,0.0,0.0,0.01512699277858539,0.034944377909971736,0.001768271158805044,0.0,0.0,0.0,0.0,0.0,0.0,0.0,0.0,0.0
6.228,170,6,228000000,base_footprint,-0.0036273668318103545,0.0013292631780852087,0.9384101986534915,0.345501627105265,0.0,0.0,0.0,0.0,0.0,0.0,0.0,0.0,0.0,-0.00022670986391871365,0.0002972761516753083,0.03420235031514803,0.0,0.0,0.0,0.0,0.0,0.0,0.0,0.0,0.0,0.009116773217466068,0.01994145218748624,-0.00017944898475977169,0.0,0.0,0.0,0.0,0.0,0.0,0.0,0.0,0.0
6.261,171,6,262000000,base_footprint,-0.0036347398175104037,0.0013252000839080952,0.9385145512408073,0.3452180030364331,0.0,0.0,0.0,0.0,0.0,0.0,0.0,0.0,0.0,-0.0006208904940477149,-0.00020324719785158943,0.014359345979405101,0.0,0.0,0.0,0.0,0.0,0.0,0.0,0.0,0.0,0.013054195414284195,-0.056643703203174314,0.0012356770719029032,0.0,0.0,0.0,0.0,0.0,0.0,0.0,0.0,0.0
6.296,172,6,296000000,base_footprint,-0.0036323273752657923,0.0013247423118853735,0.9385970144591526,0.3449937618334734,0.0,0.0,0.0,0.0,0.0,0.0,0.0,0.0,0.0,-0.00030938696174519415,4.843821808377967e-05,0.014179929059493303,0.0,0.0,0.0,0.0,0.0,0.0,0.0,0.0,0.0,0.0029236117213928114,-0.004133561263985772,-0.0005421420892762151,0.0,0.0,0.0,0.0,0.0,0.0,0.0,0.0,0.0
6.33,173,6,330000000,base_footprint,-0.00363537933489282,0.0013269264369131692,0.9385650876175894,0.345080569706133,0.0,0.0,0.0,0.0,0.0,0.0,0.0,0.0,0.0,0.0002711362638694561,-0.0001368354573647807,-0.024629754256004926,0.0,0.0,0.0,0.0,0.0,0.0,0.0,0.0,0.0,-0.12120915988357586,0.7392171665936259,-0.0046460530398725105,0.0,0.0,0.0,0.0,0.0,0.0,0.0,0.0,0.0
6.364,174,6,364000000,base_footprint,-0.0036284190028097207,0.0013269147900266559,0.93846455960515,0.3453539405273844,0.0,0.0,0.0,0.0,0.0,0.0,0.0,0.0,0.0,0.0011779604714825683,0.0012797608910705143,0.0031937343458464345,0.0,0.0,0.0,0.0,0.0,0.0,0.0,0.0,0.0,0.06397654374211237,-0.41314323693960675,0.0010195787121977593,0.0,0.0,0.0,0.0,0.0,0.0,0.0,0.0,0.0
6.398,175,6,398000000,base_footprint,-0.0036282557684390593,0.0013301667049219435,0.9384861814017099,0.3452951689998759,0.0,0.0,0.0,0.0,0.0,0.0,0.0,0.0,0.0,-0.0001159342901776359,-0.00017338831693165208,0.0034192621098842737,0.0,0.0,0.0,0.0,0.0,0.0,0.0,0.0,0.0,0.0008486666439963108,-0.007232527601064577,0.001631411496503175,0.0,0.0,0.0,0.0,0.0,0.0,0.0,0.0,0.0
6.432,176,6,432000000,base_footprint,-0.0036288801592843814,0.001332173917312909,0.9385212771682666,0.34519975209129206,0.0,0.0,0.0,0.0,0.0,0.0,0.0,0.0,0.0,0.00040421117571529504,-6.134527634573399e-05,-0.00334401859260108,0.0,0.0,0.0,0.0,0.0,0.0,0.0,0.0,0.0,-0.052211710442801124,0.33660763671453653,-0.0026721049570959414,0.0,0.0,0.0,0.0,0.0,0.0,0.0,0.0,0.0
6.466,177,6,466000000,base_footprint,-0.003631043347764956,0.0013338799803473732,0.9385145183319197,0.345218097973744,0.0,0.0,0.0,0.0,0.0,0.0,0.0,0.0,0.0,-4.174515795505823e-05,-0.00017134650060160347,-0.001766069192965782,0.0,0.0,0.0,0.0,0.0,0.0,0.0,0.0,0.0,-0.000318386037142918,-0.008011978864192314,0.00048064381690020514,0.0,0.0,0.0,0.0,0.0,0.0,0.0,0.0,0.0
6.5,178,6,500000000,base_footprint,-0.003632869050237566,0.001334213249341724,0.9384961156637549,0.34526810310469347,0.0,0.0,0.0,0.0,0.0,0.0,0.0,0.0,0.0,-2.319394736333077e-05,-0.00011008536380999896,-0.004549112556643584,0.0,0.0,0.0,0.0,0.0,0.0,0.0,0.0,0.0,-0.0008500790889550838,-0.0002314500988441145,-6.303095289786448e-05,0.0,0.0,0.0,0.0,0.0,0.0,0.0,0.0,0.0
6.534,179,6,534000000,base_footprint,-0.0036280575310424163,0.0013307134739139106,0.937950412327814,0.3467478773032152,0.0,0.0,0.0,0.0,0.0,0.0,0.0,0.0,0.0,0.001622885200554077,0.0007228676583615818,-0.1506843399089641,0.0,0.0,0.0,0.0,0.0,0.0,0.0,0.0,0.0,0.040566971707798785,-0.31694880921322,1.826781404801756e-05,0.0,0.0,0.0,0.0,0.0,0.0,0.0,0.0,0.0
6.568,180,6,568000000,base_footprint,-0.0036239722306077213,0.0013291148344057075,0.9370022519683472,0.34930198981007066,0.0,0.0,0.0,0.0,0.0,0.0,0.0,0.0,0.0,0.0024207459400658582,-0.0010514780732122165,-0.16479914628021863,0.0,0.0,0.0,0.0,0.0,0.0,0.0,0.0,0.0,-0.041106072956444965,0.019229346888138273,3.9465652941004164e-05,0.0,0.0,0.0,0.0,0.0,0.0,0.0,0.0,0.0
6.602,181,6,602000000,base_footprint,-0.003622259963307329,0.0013392855594921364,0.9360939856644167,0.3517287812361329,0.0,0.0,0.0,0.0,0.0,0.0,0.0,0.0,0.0,0.0006575570886040149,0.0004706701029868651,-0.1352112708621346,0.0,0.0,0.0,0.0,0.0,0.0,0.0,0.0,0.0,-0.026198367602882997,-0.06696770948243141,-0.0007762440012620169,0.0,0.0,0.0,0.0,0.0,0.0,0.0,0.0,0.0
6.636,182,6,636000000,base_footprint,-0.003621832812349454,0.0013487876037898573,0.9353896927697649,0.3535974911663886,0.0,0.0,0.0,0.0,0.0,0.0,0.0,0.0,0.0,0.0002422094258816533,-0.00046157740835241375,-0.07735950803540564,0.0,0.0,0.0,0.0,0.0,0.0,0.0,0.0,0.0,0.0008742241995660094,-0.17484480952514708,0.003214674824046749,0.0,0.0,0.0,0.0,0.0,0.0,0.0,0.0,0.0
6.67,183,6,670000000,base_footprint,-0.0036183250800297163,0.0013614600228808874,0.935210741700352,0.35407050534956863,0.0,0.0,0.0,0.0,0.0,0.0,0.0,0.0,0.0,-0.0010918168068511198,-0.000834204509560136,-0.007599289773294171,0.0,0.0,0.0,0.0,0.0,0.0,0.0,0.0,0.0,0.00772169508333586,-0.11704712948252854,0.0029511354313336347,0.0,0.0,0.0,0.0,0.0,0.0,0.0,0.0,0.0
6.704,184,6,704000000,base_footprint,-0.0036334421493673494,0.0013627386569793384,0.9352313165779018,0.35401599615478485,0.0,0.0,0.0,0.0,0.0,0.0,0.0,0.0,0.0,0.007221587749436418,0.0017012267697511315,-0.009264841577980345,0.0,0.0,0.0,0.0,0.0,0.0,0.0,0.0,0.0,-0.016740964357812648,0.09151214436102482,-0.010300449439918598,0.0,0.0,0.0,0.0,0.0,0.0,0.0,0.0,0.0
6.738,185,6,738000000,base_footprint,-0.003621372710892023,0.0013646822071280683,0.9349028076631165,0.35488274616524285,0.0,0.0,0.0,0.0,0.0,0.0,0.0,0.0,0.0,-0.0002490311426188846,0.0005721052265100538,-0.039493578236875174,0.0,0.0,0.0,0.0,0.0,0.0,0.0,0.0,0.0,-0.058911671675375074,0.39902111975203636,0.006148659168479575,0.0,0.0,0.0,0.0,0.0,0.0,0.0,0.0,0.0
6.772,186,6,772000000,base_footprint,-0.003619669132302906,0.001361863728538777,0.9349696254445724,0.3547066997092013,0.0,0.0,0.0,0.0,0.0,0.0,0.0,0.0,0.0,0.00023773390799577965,0.0007102549336499193,0.027167939297100464,0.0,0.0,0.0,0.0,0.0,0.0,0.0,0.0,0.0,-0.02116624916968645,0.17949641077501868,-0.0028586070012353165,0.0,0.0,0.0,0.0,0.0,0.0,0.0,0.0,0.0
6.806,187,6,806000000,base_footprint,-0.0036073270121706916,0.0013600591540851067,0.9351435057249179,0.3542481632012156,0.0,0.0,0.0,0.0,0.0,0.0,0.0,0.0,0.0,-0.0028083372560487605,-0.0017083800714118636,0.03779945684722463,0.0,0.0,0.0,0.0,0.0,0.0,0.0,0.0,0.0,0.01830637480342949,-0.0898519214487504,0.006159080883707262,0.0,0.0,0.0,0.0,0.0,0.0,0.0,0.0,0.0
6.84,188,6,840000000,base_footprint,-0.0036104516316847746,0.0013586064772781064,0.9355091186347402,0.3532814851909265,0.0,0.0,0.0,0.0,0.0,0.0,0.0,0.0,0.0,0.0007733991773828584,0.0018125242905241547,0.048087529300462714,0.0,0.0,0.0,0.0,0.0,0.0,0.0,0.0,0.0,0.08268250250654971,-0.5661546325805591,-0.0048969887395425545,0.0,0.0,0.0,0.0,0.0,0.0,0.0,0.0,0.0
6.874,189,6,874000000,base_footprint,-0.0036177428953953782,0.001357392534365229,0.9357596597561214,0.3526172551009924,0.0,0.0,0.0,0.0,0.0,0.0,0.0,0.0,0.0,-0.0003670852851358685,1.6791352369063638e-05,0.04152518868449753,0.0,0.0,0.0,0.0,0.0,0.0,0.0,0.0,0.0,0.014157823676288737,-0.024506594574500457,0.004029720643783952,0.0,0.0,0.0,0.0,0.0,0.0,0.0,0.0,0.0
6.908,190,6,908000000,base_footprint,-0.003619319378055786,0.0013593431765322533,0.9359670005085583,0.352066508876349,0.0,0.0,0.0,0.0,0.0,0.0,0.0,0.0,0.0,0.0019384660379294638,-0.0002037687532334569,0.0004989103753515511,0.0,0.0,0.0,0.0,0.0,0.0,0.0,0.0,0.0,0.008367516006454103,-0.010534599671121182,-0.002295690620988274,0.0,0.0,0.0,0.0,0.0,0.0,0.0,0.0,0.0
6.942,191,6,942000000,base_footprint,-0.0036207166137243937,0.0013603268132584073,0.9359793751672227,0.35203359098776293,0.0,0.0,0.0,0.0,0.0,0.0,0.0,0.0,0.0,-6.393131832923493e-05,-0.00018982962089588226,0.0016522697154620753,0.0,0.0,0.0,0.0,0.0,0.0,0.0,0.0,0.0,0.0021543153774143753,-0.007256642694279118,0.002150387293290774,0.0,0.0,0.0,0.0,0.0,0.0,0.0,0.0,0.0
6.976,192,6,976000000,base_footprint,-0.0036224570156639527,0.0013608494848840833,0.9359802468762074,0.3520312533730538,0.0,0.0,0.0,0.0,0.0,0.0,0.0,0.0,0.0,-2.357578654973295e-05,-0.00010372293876317559,-0.0013966571696084004,0.0,0.0,0.0,0.0,0.0,0.0,0.0,0.0,0.0,0.00010900640510646029,-0.0003329341278733753,-0.00010112959309964188,0.0,0.0,0.0,0.0,0.0,0.0,0.0,0.0,0.0
7.01,193,7,10000000,base_footprint,-0.003614499821014503,0.0013504000290175404,0.9360072216821316,0.35195964650752587,0.0,0.0,0.0,0.0,0.0,0.0,0.0,0.0,0.0,-0.0003913739407842177,0.0002240579540690612,0.04718704932280589,0.0,0.0,0.0,0.0,0.0,0.0,0.0,0.0,0.0,-0.009703022216717434,0.13780805121530398,-0.001881140431122657,0.0,0.0,0.0,0.0,0.0,0.0,0.0,0.0,0.0
7.044,194,7,44000000,base_footprint,-0.0036209482382966595,0.0013439707964487191,0.9367596127083505,0.34995215455095424,0.0,0.0,0.0,0.0,0.0,0.0,0.0,0.0,0.0,-0.0007822589590883341,0.001642107487302194,0.12728785934619502,0.0,0.0,0.0,0.0,0.0,0.0,0.0,0.0,0.0,-0.020516922620410757,0.27437560867548483,-0.0007968243458982358,0.0,0.0,0.0,0.0,0.0,0.0,0.0,0.0,0.0
7.078,195,7,78000000,base_footprint,-0.0036349437051568703,0.0013378457883814077,0.937306578840832,0.3484843965152559,0.0,0.0,0.0,0.0,0.0,0.0,0.0,0.0,0.0,-0.0002644640036475449,0.0005174933351236558,0.0497681857048422,0.0,0.0,0.0,0.0,0.0,0.0,0.0,0.0,0.0,-0.004129289523133739,0.16430097700594368,-0.0006889251995866412,0.0,0.0,0.0,0.0,0.0,0.0,0.0,0.0,0.0
7.112,196,7,112000000,base_footprint,-0.0036230409788742426,0.0013301098010684157,0.9373440702603704,0.34838369412144476,0.0,0.0,0.0,0.0,0.0,0.0,0.0,0.0,0.0,-0.0005686707831830494,-0.00026545238470048686,-0.010793037856583277,0.0,0.0,0.0,0.0,0.0,0.0,0.0,0.0,0.0,-0.001869071864356751,0.03957001629082061,0.0016924463265590366,0.0,0.0,0.0,0.0,0.0,0.0,0.0,0.0,0.0
7.146,197,7,146000000,base_footprint,-0.00362351635735523,0.0013298792767756113,0.9374008360838556,0.34823092059667227,0.0,0.0,0.0,0.0,0.0,0.0,0.0,0.0,0.0,-0.0003309734469319291,0.00034107019729304986,0.04703124498686815,0.0,0.0,0.0,0.0,0.0,0.0,0.0,0.0,0.0,0.04001769916596684,-0.26317927346413805,-5.963592000221568e-05,0.0,0.0,0.0,0.0,0.0,0.0,0.0,0.0,0.0
7.18,198,7,180000000,base_footprint,-0.0036254939960085573,0.0013350862230084495,0.9379636435505097,0.346712094850345,0.0,0.0,0.0,0.0,0.0,0.0,0.0,0.0,0.0,-0.00011854395590622425,0.00044344630734419687,0.114525400868117,0.0,0.0,0.0,0.0,0.0,0.0,0.0,0.0,0.0,0.034592515712695275,-0.07273416800564494,-0.0004484328161294709,0.0,0.0,0.0,0.0,0.0,0.0,0.0,0.0,0.0
7.214,199,7,214000000,base_footprint,-0.0036158874752663596,0.0013304025926631968,0.9385647190106041,0.3450817636666035,0.0,0.0,0.0,0.0,0.0,0.0,0.0,0.0,0.0,0.0017989059469532057,0.0008278537742663166,0.07868243472632178,0.0,0.0,0.0,0.0,0.0,0.0,0.0,0.0,0.0,0.02299726626462086,-0.01753198301336502,-0.0017128927604632776,0.0,0.0,0.0,0.0,0.0,0.0,0.0,0.0,0.0
7.248,200,7,248000000,base_footprint,-0.003618713096533798,0.0013269613289078482,0.9388592681036914,0.34427956486692274,0.0,0.0,0.0,0.0,0.0,0.0,0.0,0.0,0.0,0.0012385887408584988,0.002181961412461034,0.017366170739731866,0.0,0.0,0.0,0.0,0.0,0.0,0.0,0.0,0.0,0.033496040845972117,-0.1606830863857643,-0.0007840752806385669,0.0,0.0,0.0,0.0,0.0,0.0,0.0,0.0,0.0
7.282,201,7,282000000,base_footprint,-0.0036326893476113222,0.0013236436924426425,0.9388419986839358,0.34432652096902455,0.0,0.0,0.0,0.0,0.0,0.0,0.0,0.0,0.0,-0.00015018169970598344,-9.294947184546104e-06,-0.005826778332961961,0.0,0.0,0.0,0.0,0.0,0.0,0.0,0.0,0.0,0.012353893338004907,-0.0673252459729868,0.005427146894317202,0.0,0.0,0.0,0.0,0.0,0.0,0.0,0.0,0.0
7.316,202,7,316000000,base_footprint,-0.003631598508161727,0.001325275175784525,0.9387286652854467,0.34463538429677787,0.0,0.0,0.0,0.0,0.0,0.0,0.0,0.0,0.0,-9.711142952963647e-05,-0.0003391553698992469,-0.038880665780049596,0.0,0.0,0.0,0.0,0.0,0.0,0.0,0.0,0.0,0.0003555506897139765,-0.014477551491063721,0.0003474588165556508,0.0,0.0,0.0,0.0,0.0,0.0,0.0,0.0,0.0
7.35,203,7,350000000,base_footprint,-0.0036285988728871,0.001329643894629672,0.9385012579689348,0.3452541876763554,0.0,0.0,0.0,0.0,0.0,0.0,0.0,0.0,0.0,5.567896699675809e-05,-0.0004043278396910048,-0.038976071069378046,0.0,0.0,0.0,0.0,0.0,0.0,0.0,0.0,0.0,-0.009332581268964791,-0.00597077653842654,-0.0001296349173118266,0.0,0.0,0.0,0.0,0.0,0.0,0.0,0.0,0.0
7.384,204,7,384000000,base_footprint,-0.003627681781693026,0.0013344954493444661,0.9382692326158346,0.3458842381104977,0.0,0.0,0.0,0.0,0.0,0.0,0.0,0.0,0.0,0.00017161941501942337,-0.00039908951712421654,-0.03982542973970472,0.0,0.0,0.0,0.0,0.0,0.0,0.0,0.0,0.0,-0.007803179461620709,-0.00677836221952264,-0.00024293774530685636,0.0,0.0,0.0,0.0,0.0,0.0,0.0,0.0,0.0
7.418,205,7,418000000,base_footprint,-0.003628729853822704,0.0013362541781908525,0.9382271549864302,0.3459983416007776,0.0,0.0,0.0,0.0,0.0,0.0,0.0,0.0,0.0,0.0018280120251285643,-0.00031827093029817606,0.03790536370682426,0.0,0.0,0.0,0.0,0.0,0.0,0.0,0.0,0.0,-0.0075870061009717955,0.01584457381504773,-0.002734733758643459,0.0,0.0,0.0,0.0,0.0,0.0,0.0,0.0,0.0
7.452,206,7,452000000,base_footprint,-0.0036314334774335062,0.0013362798598377935,0.9384380067676671,0.34542601885347796,0.0,0.0,0.0,0.0,0.0,0.0,0.0,0.0,0.0,-0.00022661866089889994,4.234228993654936e-05,0.034377609588320646,0.0,0.0,0.0,0.0,0.0,0.0,0.0,0.0,0.0,0.010262184450263348,7.840362449568292e-05,0.002421573782758967,0.0,0.0,0.0,0.0,0.0,0.0,0.0,0.0,0.0
7.486,207,7,486000000,base_footprint,-0.0036333135265818614,0.0013301495462098632,0.9386282437278352,0.3449087557766574,0.0,0.0,0.0,0.0,0.0,0.0,0.0,0.0,0.0,-0.0004660126665512086,0.00048652365574677415,0.03036171867254023,0.0,0.0,0.0,0.0,0.0,0.0,0.0,0.0,0.0,0.010735285917085105,0.004502407529426209,0.00019502477037972892,0.0,0.0,0.0,0.0,0.0,0.0,0.0,0.0,0.0
7.52,208,7,520000000,base_footprint,-0.003636202346869783,0.0013227853209229438,0.9386727963824211,0.34478748469614356,0.0,0.0,0.0,0.0,0.0,0.0,0.0,0.0,0.0,0.0002864881507668417,0.00015585499996941286,-0.02136590357804747,0.0,0.0,0.0,0.0,0.0,0.0,0.0,0.0,0.0,-0.0006932078348143903,0.007013475568286116,-0.0011025510542399762,0.0,0.0,0.0,0.0,0.0,0.0,0.0,0.0,0.0
7.554,209,7,554000000,base_footprint,-0.0036391390504327903,0.0013267951846514302,0.9385294211563022,0.3451775223063142,0.0,0.0,0.0,0.0,0.0,0.0,0.0,0.0,0.0,0.0006279837067535556,-0.000464920608676943,-0.016670058454958368,0.0,0.0,0.0,0.0,0.0,0.0,0.0,0.0,0.0,-0.006247730473584382,-0.006743979716394191,-0.0003853735534826053,0.0,0.0,0.0,0.0,0.0,0.0,0.0,0.0,0.0
7.588,210,7,588000000,base_footprint,-0.003641738177331945,0.0013258831349653093,0.9384573415856812,0.34537341791298326,0.0,0.0,0.0,0.0,0.0,0.0,0.0,0.0,0.0,-0.0001815816551436518,6.819371747997984e-05,-0.011757339263128764,0.0,0.0,0.0,0.0,0.0,0.0,0.0,0.0,0.0,-0.0025769684763100728,-0.0038805297887278523,0.0014439905068977985,0.0,0.0,0.0,0.0,0.0,0.0,0.0,0.0,0.0
7.622,211,7,622000000,base_footprint,-0.0036298937369011954,0.0013271097826843875,0.9382273118290319,0.3459979392845455,0.0,0.0,0.0,0.0,0.0,0.0,0.0,0.0,0.0,-0.0007883175496757115,-0.0004350797601344204,-0.08428924296962183,0.0,0.0,0.0,0.0,0.0,0.0,0.0,0.0,0.0,-0.03710126089393527,0.2266687847306944,-0.0018611400501716278,0.0,0.0,0.0,0.0,0.0,0.0,0.0,0.0,0.0
7.656,212,7,656000000,base_footprint,-0.0036407875311800066,0.0013318264460540474,0.93783467005611,0.3470606611893918,0.0,0.0,0.0,0.0,0.0,0.0,0.0,0.0,0.0,-0.0006253178376309102,-0.00047511079248476937,-0.05788771312651263,0.0,0.0,0.0,0.0,0.0,0.0,0.0,0.0,0.0,-0.03254693463677103,0.0433304773288746,0.0016485362963709212,0.0,0.0,0.0,0.0,0.0,0.0,0.0,0.0,0.0
7.69,213,7,690000000,base_footprint,-0.0036312855332900516,0.0013342062171002392,0.9376318113237364,0.3476084292029112,0.0,0.0,0.0,0.0,0.0,0.0,0.0,0.0,0.0,0.0005255973896118483,0.0007858366254608268,-0.024038585252759825,0.0,0.0,0.0,0.0,0.0,0.0,0.0,0.0,0.0,-0.01922256557698109,0.0855795355094445,-0.00377171529675985,0.0,0.0,0.0,0.0,0.0,0.0,0.0,0.0,0.0
7.724,214,7,724000000,base_footprint,-0.0036280285010453456,0.001331784238073049,0.9378433015703916,0.3470374698206038,0.0,0.0,0.0,0.0,0.0,0.0,0.0,0.0,0.0,-0.0014813636589002125,0.000634376589053844,0.10714530786957423,0.0,0.0,0.0,0.0,0.0,0.0,0.0,0.0,0.0,0.00324715317914139,0.020838370230863323,0.002046958440341601,0.0,0.0,0.0,0.0,0.0,0.0,0.0,0.0,0.0
7.758,215,7,758000000,base_footprint,-0.003631059552998284,0.0013284406125886599,0.9381294030749909,0.34626330117155446,0.0,0.0,0.0,0.0,0.0,0.0,0.0,0.0,0.0,-0.0010003799806482488,-0.00022003120442131287,-0.022288835833351076,0.0,0.0,0.0,0.0,0.0,0.0,0.0,0.0,0.0,-0.031649704594281305,0.3030313754430769,-0.001085752538496713,0.0,0.0,0.0,0.0,0.0,0.0,0.0,0.0,0.0
7.792,216,7,792000000,base_footprint,-0.003629778460556023,0.0013304023302961772,0.9379956636553083,0.3466254314123599,0.0,0.0,0.0,0.0,0.0,0.0,0.0,0.0,0.0,-0.00015152253901802812,-0.0003324551110311072,-0.02279497052455848,0.0,0.0,0.0,0.0,0.0,0.0,0.0,0.0,0.0,-0.00476655918223469,-0.009381973089110785,-0.0005122383436443819,0.0,0.0,0.0,0.0,0.0,0.0,0.0,0.0,0.0
7.8260000000000005,217,7,826000000,base_footprint,-0.0036188557110092053,0.0013334478405984571,0.9378858469173529,0.34692256189576237,0.0,0.0,0.0,0.0,0.0,0.0,0.0,0.0,0.0,-0.0001014113043931549,-0.00015848941360726936,-0.015577884384853078,0.0,0.0,0.0,0.0,0.0,0.0,0.0,0.0,0.0,0.07033979329411039,-0.47782462285818067,0.0025053051216126876,0.0,0.0,0.0,0.0,0.0,0.0,0.0,0.0,0.0
7.86,218,7,860000000,base_footprint,-0.0036263705055460268,0.0013376068858393102,0.9377785704000487,0.3472123458968825,0.0,0.0,0.0,0.0,0.0,0.0,0.0,0.0,0.0,2.267258782053525e-05,-0.0003154470060075902,-0.019297112385568905,0.0,0.0,0.0,0.0,0.0,0.0,0.0,0.0,0.0,0.027522362007433077,-0.2061897713035634,0.001121705236350691,0.0,0.0,0.0,0.0,0.0,0.0,0.0,0.0,0.0
7.894,219,7,894000000,base_footprint,-0.0036270522560129474,0.0013415441201555503,0.9376609688670426,0.34752978608261037,0.0,0.0,0.0,0.0,0.0,0.0,0.0,0.0,0.0,8.173807508234446e-05,-0.0003304788897238192,-0.020450760115268037,0.0,0.0,0.0,0.0,0.0,0.0,0.0,0.0,0.0,-0.003774394985843902,-0.005118167243954383,-0.0001991171293597519,0.0,0.0,0.0,0.0,0.0,0.0,0.0,0.0,0.0
7.928,220,7,928000000,base_footprint,-0.0036271790274937494,0.0013470236140143174,0.9372323198200418,0.34868410887855017,0.0,0.0,0.0,0.0,0.0,0.0,0.0,0.0,0.0,0.0006597428597870511,-0.0006213251646223699,-0.09312010893040419,0.0,0.0,0.0,0.0,0.0,0.0,0.0,0.0,0.0,-0.011306214226890555,-0.02199295084575232,-0.0002566753607687179,0.0,0.0,0.0,0.0,0.0,0.0,0.0,0.0,0.0
7.962,221,7,962000000,base_footprint,-0.003626766574692165,0.0013523352401243018,0.9366675968972237,0.35019827337722725,0.0,0.0,0.0,0.0,0.0,0.0,0.0,0.0,0.0,0.00035334440457249243,-0.0004236589877474003,-0.09719284282785602,0.0,0.0,0.0,0.0,0.0,0.0,0.0,0.0,0.0,-0.021756547519068577,-0.0011943203024919972,0.0003626318784213966,0.0,0.0,0.0,0.0,0.0,0.0,0.0,0.0,0.0
7.996,222,7,996000000,base_footprint,-0.003626024167941559,0.0013493942557344597,0.9360573334575502,0.3518262349004364,0.0,0.0,0.0,0.0,0.0,0.0,0.0,0.0,0.0,0.000633469795486075,-0.0003114558972174132,-0.11240383557713662,0.0,0.0,0.0,0.0,0.0,0.0,0.0,0.0,0.0,-0.023600461108959574,0.024405500615095867,-0.0007674046147179639,0.0,0.0,0.0,0.0,0.0,0.0,0.0,0.0,0.0
8.03,223,8,30000000,base_footprint,-0.0036248718042561166,0.0013528546531233721,0.9354103957636145,0.3535426729350342,0.0,0.0,0.0,0.0,0.0,0.0,0.0,0.0,0.0,1.815621561347474e-05,-0.0001652531105812246,-0.10150273357567335,0.0,0.0,0.0,0.0,0.0,0.0,0.0,0.0,0.0,-0.028884602695048063,0.03181602800451,-5.247403301091933e-05,0.0,0.0,0.0,0.0,0.0,0.0,0.0,0.0,0.0
8.064,224,8,64000000,base_footprint,-0.0036290288396440334,0.001364077364266021,0.934889034715789,0.35491895160839976,0.0,0.0,0.0,0.0,0.0,0.0,0.0,0.0,0.0,-2.745590277583121e-06,-0.00010637494670112894,-0.07757514984615564,0.0,0.0,0.0,0.0,0.0,0.0,0.0,0.0,0.0,-0.014508984279231824,-0.0491678778721553,0.00046685769820171323,0.0,0.0,0.0,0.0,0.0,0.0,0.0,0.0,0.0
8.098,225,8,98000000,base_footprint,-0.003624674832531336,0.0013672760463082948,0.9344356234589996,0.35611101906478887,0.0,0.0,0.0,0.0,0.0,0.0,0.0,0.0,0.0,-0.00017515570890309153,-0.0007877394487148693,-0.07245504472016813,0.0,0.0,0.0,0.0,0.0,0.0,0.0,0.0,0.0,-0.015410992354739741,0.0058927164405638026,0.0005787991747450256,0.0,0.0,0.0,0.0,0.0,0.0,0.0,0.0,0.0
8.132,226,8,132000000,base_footprint,-0.0036275201456475595,0.0013685765997049437,0.9344264260845764,0.3561351180808901,0.0,0.0,0.0,0.0,0.0,0.0,0.0,0.0,0.0,-0.0026066911881428654,0.0006847403494684318,0.052067285079056974,0.0,0.0,0.0,0.0,0.0,0.0,0.0,0.0,0.0,-7.309268490465065e-05,-0.09520594405689208,0.0030722011241316187,0.0,0.0,0.0,0.0,0.0,0.0,0.0,0.0,0.0
8.166,227,8,166000000,base_footprint,-0.003613923752192821,0.0013701030513985737,0.9342395282055248,0.3566252463175598,0.0,0.0,0.0,0.0,0.0,0.0,0.0,0.0,0.0,0.000922660840386957,-0.0015764381897756371,-0.07138360803270785,0.0,0.0,0.0,0.0,0.0,0.0,0.0,0.0,0.0,-0.04429148153712792,0.44053533295626734,-0.005914682565152901,0.0,0.0,0.0,0.0,0.0,0.0,0.0,0.0,0.0
8.2,228,8,200000000,base_footprint,-0.0036180204596807817,0.001372274969985995,0.9338295985227971,0.3576972291087979,0.0,0.0,0.0,0.0,0.0,0.0,0.0,0.0,0.0,1.0850746939143911e-05,-0.0003721277106565725,-0.06817146065946296,0.0,0.0,0.0,0.0,0.0,0.0,0.0,0.0,0.0,-0.018033098925043744,0.00028206309352694567,0.00021814912324284342,0.0,0.0,0.0,0.0,0.0,0.0,0.0,0.0,0.0
8.234,229,8,234000000,base_footprint,-0.003614978715696813,0.0013739868082321967,0.9336501448952751,0.3581653961875266,0.0,0.0,0.0,0.0,0.0,0.0,0.0,0.0,0.0,-0.000523740171591632,-0.000140410948767125,-0.015879574981973867,0.0,0.0,0.0,0.0,0.0,0.0,0.0,0.0,0.0,0.031377730226062064,-0.336503747695676,0.002096920016562691,0.0,0.0,0.0,0.0,0.0,0.0,0.0,0.0,0.0
8.268,230,8,268000000,base_footprint,-0.0036118285573469673,0.0013759610869950227,0.9335543523785209,0.3584150283968014,0.0,0.0,0.0,0.0,0.0,0.0,0.0,0.0,0.0,-0.0002022091768495268,-0.00029880444116956047,-0.015879669622290586,0.0,0.0,0.0,0.0,0.0,0.0,0.0,0.0,0.0,-0.005629789783634443,-0.002528507948099045,-7.302147507116342e-05,0.0,0.0,0.0,0.0,0.0,0.0,0.0,0.0,0.0
8.302,231,8,302000000,base_footprint,-0.003611414708098796,0.0013787083948758063,0.9334566136970092,0.35866949576494583,0.0,0.0,0.0,0.0,0.0,0.0,0.0,0.0,0.0,0.0032615321880159823,0.001900479886454646,-0.010598647827861981,0.0,0.0,0.0,0.0,0.0,0.0,0.0,0.0,0.0,-0.0061572690669824326,0.016515981887255525,-0.0044996324047154946,0.0,0.0,0.0,0.0,0.0,0.0,0.0,0.0,0.0
8.336,232,8,336000000,base_footprint,-0.003609062240105425,0.0013752738617789514,0.933915857473488,0.3574720331034468,0.0,0.0,0.0,0.0,0.0,0.0,0.0,0.0,0.0,-0.003138692415208158,0.0009219059628954123,0.07682892922451227,0.0,0.0,0.0,0.0,0.0,0.0,0.0,0.0,0.0,-0.019551681734254783,0.31251244569423475,0.007222424549516533,0.0,0.0,0.0,0.0,0.0,0.0,0.0,0.0,0.0
8.37,233,8,370000000,base_footprint,-0.003612375184843443,0.001379438775528961,0.933908538154452,0.3574911051430551,0.0,0.0,0.0,0.0,0.0,0.0,0.0,0.0,0.0,3.74190452701104e-05,-0.0002507257406788611,-0.008286440547992994,0.0,0.0,0.0,0.0,0.0,0.0,0.0,0.0,0.0,0.002378519178811172,-0.001730719070243087,-0.005156805501279806,0.0,0.0,0.0,0.0,0.0,0.0,0.0,0.0,0.0
8.404,234,8,404000000,base_footprint,-0.0036112084359406662,0.0013816843357640142,0.9338476144465095,0.3576502245415093,0.0,0.0,0.0,0.0,0.0,0.0,0.0,0.0,0.0,-0.000830744590692969,-0.00017889002082754725,-0.023068725757613512,0.0,0.0,0.0,0.0,0.0,0.0,0.0,0.0,0.0,0.002738843289605223,-0.05229673869295717,0.002838033256586454,0.0,0.0,0.0,0.0,0.0,0.0,0.0,0.0,0.0
8.438,235,8,438000000,base_footprint,-0.003609592163761704,0.0013786713498977192,0.9333767235177669,0.3588773636006572,0.0,0.0,0.0,0.0,0.0,0.0,0.0,0.0,0.0,0.0008845678657648707,-0.0006870865446097136,-0.08290733014606234,0.0,0.0,0.0,0.0,0.0,0.0,0.0,0.0,0.0,0.017812491354744914,-0.3157254633009448,-0.001635718186342674,0.0,0.0,0.0,0.0,0.0,0.0,0.0,0.0,0.0
8.472,236,8,472000000,base_footprint,-0.003614263523527996,0.0013861442930746238,0.9328399847674159,0.36027014658768003,0.0,0.0,0.0,0.0,0.0,0.0,0.0,0.0,0.0,0.00036413434120270645,2.012607814270485e-05,-0.0950655611115482,0.0,0.0,0.0,0.0,0.0,0.0,0.0,0.0,0.0,-0.016856711863979197,0.019101227410701242,0.00041873097758895876,0.0,0.0,0.0,0.0,0.0,0.0,0.0,0.0,0.0
8.506,237,8,506000000,base_footprint,-0.003614844539487782,0.0013910025843993869,0.9321788431023188,0.3619773507875707,0.0,0.0,0.0,0.0,0.0,0.0,0.0,0.0,0.0,0.00039635953055144007,-0.0006448769307243044,-0.11691694135558825,0.0,0.0,0.0,0.0,0.0,0.0,0.0,0.0,0.0,-0.029287323726755302,0.023263326917902914,0.0002898504217242955,0.0,0.0,0.0,0.0,0.0,0.0,0.0,0.0,0.0
8.54,238,8,540000000,base_footprint,-0.0036159171015705724,0.0013994279404189566,0.9315106649693947,0.36369334306972184,0.0,0.0,0.0,0.0,0.0,0.0,0.0,0.0,0.0,0.00034466463177883737,-0.00022650613869499227,-0.10309339879249528,0.0,0.0,0.0,0.0,0.0,0.0,0.0,0.0,0.0,-0.021077855481983224,-0.029361230389911418,-0.0004312331696375793,0.0,0.0,0.0,0.0,0.0,0.0,0.0,0.0,0.0
8.574,239,8,574000000,base_footprint,-0.003611074406435888,0.0014042240884139488,0.9308946521690715,0.36526721021652653,0.0,0.0,0.0,0.0,0.0,0.0,0.0,0.0,0.0,-8.871668448237912e-05,-0.0008920441824298371,-0.09694318370093417,0.0,0.0,0.0,0.0,0.0,0.0,0.0,0.0,0.0,-0.02141882033711571,0.0040198509510323095,0.0010406553433063394,0.0,0.0,0.0,0.0,0.0,0.0,0.0,0.0,0.0
8.608,240,8,608000000,base_footprint,-0.003606421775832262,0.0014117544551143233,0.9303104503531662,0.3667525959485802,0.0,0.0,0.0,0.0,0.0,0.0,0.0,0.0,0.0,-0.005488361590981677,0.0005991053889997753,-0.11351061542744896,0.0,0.0,0.0,0.0,0.0,0.0,0.0,0.0,0.0,-0.02933191028883895,0.09544076420816583,0.0064954842799551165,0.0,0.0,0.0,0.0,0.0,0.0,0.0,0.0,0.0
8.642,241,8,642000000,base_footprint,-0.003600044694119736,0.0014153875452367027,0.9298194571039705,0.36799567055493326,0.0,0.0,0.0,0.0,0.0,0.0,0.0,0.0,0.0,2.619166262196343e-05,-0.00020512165884728207,-0.03851316804311888,0.0,0.0,0.0,0.0,0.0,0.0,0.0,0.0,0.0,-0.02833254013681409,0.18734084513250743,-0.00906824863135877,0.0,0.0,0.0,0.0,0.0,0.0,0.0,0.0,0.0
8.676,242,8,676000000,base_footprint,-0.003602031867587357,0.0014137194300287992,0.9297571203722881,0.36815312558883556,0.0,0.0,0.0,0.0,0.0,0.0,0.0,0.0,0.0,-0.0004230214088643036,-0.00012452398799345511,-0.008174267928514055,0.0,0.0,0.0,0.0,0.0,0.0,0.0,0.0,0.0,-0.006886816523225758,0.07779843514043751,-3.6711327157434574e-05,0.0,0.0,0.0,0.0,0.0,0.0,0.0,0.0,0.0
8.71,243,8,710000000,base_footprint,-0.003583780383959491,0.001414251571576672,0.9297322965842543,0.36821598702231856,0.0,0.0,0.0,0.0,0.0,0.0,0.0,0.0,0.0,0.0012649458384446232,0.001094896357106764,0.013955727954608328,0.0,0.0,0.0,0.0,0.0,0.0,0.0,0.0,0.0,0.0039051887334602617,-0.14633208269829406,-0.002002715192806022,0.0,0.0,0.0,0.0,0.0,0.0,0.0,0.0,0.0
8.744,244,8,744000000,base_footprint,-0.003597750930667655,0.0014110742050022853,0.9300838876638011,0.3673268666542358,0.0,0.0,0.0,0.0,0.0,0.0,0.0,0.0,0.0,-0.0006610398269811232,0.00019939851425763015,0.0673553698995541,0.0,0.0,0.0,0.0,0.0,0.0,0.0,0.0,0.0,0.025689291240112495,-0.17780113946536577,0.003691274674032352,0.0,0.0,0.0,0.0,0.0,0.0,0.0,0.0,0.0
8.778,245,8,778000000,base_footprint,-0.003597209547551172,0.001408581785802635,0.9305017198035821,0.36626715034712015,0.0,0.0,0.0,0.0,0.0,0.0,0.0,0.0,0.0,-0.0005869756894410947,0.00017639533300496836,0.06685019142966228,0.0,0.0,0.0,0.0,0.0,0.0,0.0,0.0,0.0,0.015174846926885201,-0.004753854667836576,-3.185076543340054e-05,0.0,0.0,0.0,0.0,0.0,0.0,0.0,0.0,0.0
8.812,246,8,812000000,base_footprint,-0.00360009462793305,0.0014085363517617438,0.9308103245196171,0.3654821406193479,0.0,0.0,0.0,0.0,0.0,0.0,0.0,0.0,0.0,0.0005517005822117521,0.00040781360504765784,0.0018095084104305082,0.0,0.0,0.0,0.0,0.0,0.0,0.0,0.0,0.0,0.015199498344115683,-0.0232592168611743,-0.0006185492695743113,0.0,0.0,0.0,0.0,0.0,0.0,0.0,0.0,0.0
8.846,247,8,846000000,base_footprint,-0.0035998622180294384,0.0014102531012195245,0.9308252870142152,0.36544402749683275,0.0,0.0,0.0,0.0,0.0,0.0,0.0,0.0,0.0,1.9765590740137374e-06,-0.0001671548221576614,0.002191106407253755,0.0,0.0,0.0,0.0,0.0,0.0,0.0,0.0,0.0,-0.0012309241771762825,-0.0031454586464112655,0.00039043804371442596,0.0,0.0,0.0,0.0,0.0,0.0,0.0,0.0,0.0
8.88,248,8,880000000,base_footprint,-0.0036018942388595,0.0014118339705781263,0.9308337392977699,0.3654224717606501,0.0,0.0,0.0,0.0,0.0,0.0,0.0,0.0,0.0,-2.867717529713456e-05,-0.00014063477218725638,0.0003582437708825101,0.0,0.0,0.0,0.0,0.0,0.0,0.0,0.0,0.0,0.00023790094858178634,-0.002996286203251388,-4.9337290564034725e-05,0.0,0.0,0.0,0.0,0.0,0.0,0.0,0.0,0.0
8.914,249,8,914000000,base_footprint,-0.0036052470254485515,0.001414674138953811,0.9307802436642009,0.3655586668311628,0.0,0.0,0.0,0.0,0.0,0.0,0.0,0.0,0.0,0.0005735036932580488,-5.832568736208893e-05,-0.02824812473301173,0.0,0.0,0.0,0.0,0.0,0.0,0.0,0.0,0.0,-0.0022866272999982292,-0.001695686163856688,-0.0008562429065242041,0.0,0.0,0.0,0.0,0.0,0.0,0.0,0.0,0.0
8.948,250,8,948000000,base_footprint,-0.003604951522434963,0.0014078885627047235,0.9306054662485984,0.36600339938659676,0.0,0.0,0.0,0.0,0.0,0.0,0.0,0.0,0.0,-0.00014629017112641763,0.00035587085167844727,-0.030610661301965575,0.0,0.0,0.0,0.0,0.0,0.0,0.0,0.0,0.0,-0.0023852881083084583,0.004090516282287689,0.0010051097064227564,0.0,0.0,0.0,0.0,0.0,0.0,0.0,0.0,0.0
8.982,251,8,982000000,base_footprint,-0.003607099686663269,0.001408683049847798,0.9303343969124717,0.3666918520575871,0.0,0.0,0.0,0.0,0.0,0.0,0.0,0.0,0.0,-7.751395713610638e-05,8.464564043256644e-05,-0.051330239655546485,0.0,0.0,0.0,0.0,0.0,0.0,0.0,0.0,0.0,-0.016181364904508173,0.04276432997486158,5.838721753908364e-05,0.0,0.0,0.0,0.0,0.0,0.0,0.0,0.0,0.0
9.016,252,9,16000000,base_footprint,-0.0036101064378545994,0.0014037440362529075,0.9301586924242967,0.3671373088392282,0.0,0.0,0.0,0.0,0.0,0.0,0.0,0.0,0.0,0.00040239537620935593,-0.00021144367816474166,0.017587437549972586,0.0,0.0,0.0,0.0,0.0,0.0,0.0,0.0,0.0,-0.008087622333121387,0.015779473947280805,-0.0016390446328618667,0.0,0.0,0.0,0.0,0.0,0.0,0.0,0.0,0.0
9.05,253,9,50000000,base_footprint,-0.0036073265279777116,0.001408228879772033,0.9303037572658842,0.3667695779419574,0.0,0.0,0.0,0.0,0.0,0.0,0.0,0.0,0.0,-0.0004478599312973759,-0.00018936936262887508,0.023659669086770703,0.0,0.0,0.0,0.0,0.0,0.0,0.0,0.0,0.0,0.012930598577823393,-0.04142794069519062,0.0017690254245969071,0.0,0.0,0.0,0.0,0.0,0.0,0.0,0.0,0.0
9.084,254,9,84000000,base_footprint,-0.003602887094854808,0.0014102500329902573,0.9304928397606307,0.36628964707403844,0.0,0.0,0.0,0.0,0.0,0.0,0.0,0.0,0.0,-0.00047831467818890307,0.00030528198100772874,0.0412420753292586,0.0,0.0,0.0,0.0,0.0,0.0,0.0,0.0,0.0,0.00023932817601259038,0.041587243840669585,-0.0004694934951189603,0.0,0.0,0.0,0.0,0.0,0.0,0.0,0.0,0.0
9.118,255,9,118000000,base_footprint,-0.003596893522176436,0.001409887742416824,0.9306166782627807,0.36597496186582507,0.0,0.0,0.0,0.0,0.0,0.0,0.0,0.0,0.0,0.00121416287559118,-0.0006999569881557471,-0.01858659883929292,0.0,0.0,0.0,0.0,0.0,0.0,0.0,0.0,0.0,0.005281320497508408,0.029437423459524145,-0.0009762807693888866,0.0,0.0,0.0,0.0,0.0,0.0,0.0,0.0,0.0
9.152,256,9,152000000,base_footprint,-0.0036038662267746887,0.0014078384707784106,0.9303760352802611,0.3665862287583129,0.0,0.0,0.0,0.0,0.0,0.0,0.0,0.0,0.0,-0.0004111580106343465,-0.0004571802131813286,-0.044748595713787476,0.0,0.0,0.0,0.0,0.0,0.0,0.0,0.0,0.0,-0.004336193722602393,-0.07469659303746681,0.002019844216858532,0.0,0.0,0.0,0.0,0.0,0.0,0.0,0.0,0.0
9.186,257,9,186000000,base_footprint,-0.0036009318893411753,0.001409951757919692,0.9300930900462333,0.3673035381994272,0.0,0.0,0.0,0.0,0.0,0.0,0.0,0.0,0.0,3.940648455143015e-05,-0.0001971415694012671,-0.0460586071137875,0.0,0.0,0.0,0.0,0.0,0.0,0.0,0.0,0.0,-0.011229548593165845,-0.007779027365286878,-0.000751416938399392,0.0,0.0,0.0,0.0,0.0,0.0,0.0,0.0,0.0
9.219,258,9,220000000,base_footprint,-0.0035931795094821498,0.0014148378494914387,0.9297700214017344,0.368120625063974,0.0,0.0,0.0,0.0,0.0,0.0,0.0,0.0,0.0,7.08622016339349e-07,0.0005747932487409888,-0.0596954488589994,0.0,0.0,0.0,0.0,0.0,0.0,0.0,0.0,0.0,-0.03458288771106609,0.33869505506401654,-0.002580169984163866,0.0,0.0,0.0,0.0,0.0,0.0,0.0,0.0,0.0
9.254,259,9,254000000,base_footprint,-0.0035934123293101276,0.0014193124034125506,0.929386431442146,0.3690879759506755,0.0,0.0,0.0,0.0,0.0,0.0,0.0,0.0,0.0,0.00014638399392311602,-0.0004858392216140062,-0.06149056715115672,0.0,0.0,0.0,0.0,0.0,0.0,0.0,0.0,0.0,-0.009767332075680186,-0.014088595570574977,0.0007620884232679828,0.0,0.0,0.0,0.0,0.0,0.0,0.0,0.0,0.0
9.288,260,9,288000000,base_footprint,-0.003591683341589769,0.001424946596195246,0.928997674022621,0.3700653874635291,0.0,0.0,0.0,0.0,0.0,0.0,0.0,0.0,0.0,0.00023154272281282983,-0.00048690673541704524,-0.06209887911887971,0.0,0.0,0.0,0.0,0.0,0.0,0.0,0.0,0.0,-0.012669578988300319,-0.006047374132105754,-0.00021791375160210285,0.0,0.0,0.0,0.0,0.0,0.0,0.0,0.0,0.0
9.322,261,9,322000000,base_footprint,-0.0035911193805569235,0.0014331028458039945,0.9284086372465601,0.37154064698739664,0.0,0.0,0.0,0.0,0.0,0.0,0.0,0.0,0.0,0.001158353287894822,-0.0007059607349644848,-0.11688570845641658,0.0,0.0,0.0,0.0,0.0,0.0,0.0,0.0,0.0,-0.017634224298571463,-0.019634474597696412,-0.0007982947395831545,0.0,0.0,0.0,0.0,0.0,0.0,0.0,0.0,0.0
9.356,262,9,356000000,base_footprint,-0.003590396877120215,0.0014420527464272335,0.9276656427159258,0.3733918650139419,0.0,0.0,0.0,0.0,0.0,0.0,0.0,0.0,0.0,0.0006342558447299759,-0.000773458299441036,-0.11807908004574263,0.0,0.0,0.0,0.0,0.0,0.0,0.0,0.0,0.0,-0.025208602532963875,-0.005040295447090389,0.0003635067156008258,0.0,0.0,0.0,0.0,0.0,0.0,0.0,0.0,0.0
9.39,263,9,390000000,base_footprint,-0.0035902671901404623,0.0014495576853107463,0.9269060786412984,0.3752734071871222,0.0,0.0,0.0,0.0,0.0,0.0,0.0,0.0,0.0,0.0006940108740090879,-0.0006891740622547354,-0.1206599318510609,0.0,0.0,0.0,0.0,0.0,0.0,0.0,0.0,0.0,-0.024888787427206245,-0.0015778316277298404,-0.0002814413716910895,0.0,0.0,0.0,0.0,0.0,0.0,0.0,0.0,0.0
9.424,264,9,424000000,base_footprint,-0.0035856030143595727,0.001451693771450556,0.9260158910269829,0.377464707756527,0.0,0.0,0.0,0.0,0.0,0.0,0.0,0.0,0.0,0.00035152763601324394,-0.00021915928021946348,-0.14681916748159834,0.0,0.0,0.0,0.0,0.0,0.0,0.0,0.0,0.0,-0.02382150043802148,-0.11367174622081082,0.000763087434755653,0.0,0.0,0.0,0.0,0.0,0.0,0.0,0.0,0.0
9.458,265,9,458000000,base_footprint,-0.0035863445313809167,0.0014561784636428264,0.9250459113774772,0.3798355953843676,0.0,0.0,0.0,0.0,0.0,0.0,0.0,0.0,0.0,0.0009168200482435608,0.0003390968758470685,-0.1583249651900494,0.0,0.0,0.0,0.0,0.0,0.0,0.0,0.0,0.0,-0.03580251670815062,0.025348907539667436,0.0009425986608843993,0.0,0.0,0.0,0.0,0.0,0.0,0.0,0.0,0.0
9.492,266,9,492000000,base_footprint,-0.003578485470889855,0.0014576382044794607,0.9240617234402714,0.3822237577717992,0.0,0.0,0.0,0.0,0.0,0.0,0.0,0.0,0.0,0.00046910080111676507,-0.0007467501330642356,-0.13889220894439291,0.0,0.0,0.0,0.0,0.0,0.0,0.0,0.0,0.0,-0.030521010865837084,-0.028251127338480144,-0.0010741615049401447,0.0,0.0,0.0,0.0,0.0,0.0,0.0,0.0,0.0
9.525,267,9,526000000,base_footprint,-0.0035661808877979597,0.001468750036043675,0.9232929630654251,0.3840771139772259,0.0,0.0,0.0,0.0,0.0,0.0,0.0,0.0,0.0,0.0017053118282761965,-0.0015684709222547348,-0.09249668950385428,0.0,0.0,0.0,0.0,0.0,0.0,0.0,0.0,0.0,-0.02252528044187374,-0.13734343315773714,0.00010414956988306632,0.0,0.0,0.0,0.0,0.0,0.0,0.0,0.0,0.0
9.56,268,9,560000000,base_footprint,-0.003573459769602643,0.0014859033239376107,0.9228490390202693,0.3851424069820831,0.0,0.0,0.0,0.0,0.0,0.0,0.0,0.0,0.0,0.0007389909342394792,0.00013055269766490548,-0.055857394319979284,0.0,0.0,0.0,0.0,0.0,0.0,0.0,0.0,0.0,-0.018846362882324205,0.015527636214291776,-0.001338696040992666,0.0,0.0,0.0,0.0,0.0,0.0,0.0,0.0,0.0
9.594,269,9,594000000,base_footprint,-0.0035761458750595753,0.0014857294371409455,0.9224212361933419,0.3861658540164665,0.0,0.0,0.0,0.0,0.0,0.0,0.0,0.0,0.0,0.0009667201164549764,0.00019869490900295967,-0.07921653608786229,0.0,0.0,0.0,0.0,0.0,0.0,0.0,0.0,0.0,-0.01575909566592984,-0.06338694395292362,0.0005973403085897196,0.0,0.0,0.0,0.0,0.0,0.0,0.0,0.0,0.0
9.628,270,9,628000000,base_footprint,-0.0035659334204836135,0.001490886639003347,0.9217852667228579,0.3876815489916178,0.0,0.0,0.0,0.0,0.0,0.0,0.0,0.0,0.0,0.00014428933125131693,-1.0630969706539132e-05,-0.08943889266382343,0.0,0.0,0.0,0.0,0.0,0.0,0.0,0.0,0.0,-0.015991835400746585,0.35263222665310046,-0.0012317622462222418,0.0,0.0,0.0,0.0,0.0,0.0,0.0,0.0,0.0
9.662,271,9,662000000,base_footprint,-0.0035661463608620833,0.0014953477844250318,0.9211673438606758,0.3891474927836542,0.0,0.0,0.0,0.0,0.0,0.0,0.0,0.0,0.0,0.00024177581949062055,-0.0004951210140911857,-0.0941913830510631,0.0,0.0,0.0,0.0,0.0,0.0,0.0,0.0,0.0,-0.017547019535328515,-0.019622376454958623,0.0006777135514320276,0.0,0.0,0.0,0.0,0.0,0.0,0.0,0.0,0.0
9.696,272,9,696000000,base_footprint,-0.003560837206599035,0.0015014722727110497,0.9205415521015716,0.390625545598124,0.0,0.0,0.0,0.0,0.0,0.0,0.0,0.0,0.0,0.00017469692989086316,-0.0006550250789378776,-0.09455813970313642,0.0,0.0,0.0,0.0,0.0,0.0,0.0,0.0,0.0,-0.020072849677197135,-0.004209082421974146,0.00017464721337483754,0.0,0.0,0.0,0.0,0.0,0.0,0.0,0.0,0.0
9.73,273,9,730000000,base_footprint,-0.0035575694973516707,0.0015063930292789447,0.920100956456923,0.39166223255040616,0.0,0.0,0.0,0.0,0.0,0.0,0.0,0.0,0.0,-9.219554139038941e-05,-0.00046364223004837835,-0.03225328097605607,0.0,0.0,0.0,0.0,0.0,0.0,0.0,0.0,0.0,-0.028296200842054864,-0.33157419727088794,0.001659561951665064,0.0,0.0,0.0,0.0,0.0,0.0,0.0,0.0,0.0
9.764,274,9,764000000,base_footprint,-0.003555636287827692,0.0015097177497441286,0.9198827550722749,0.39217444476093294,0.0,0.0,0.0,0.0,0.0,0.0,0.0,0.0,0.0,3.217499756356457e-05,-0.00029674863617124584,-0.033007573923247865,0.0,0.0,0.0,0.0,0.0,0.0,0.0,0.0,0.0,-0.006557730721044958,-0.002729427831571856,-0.0003689593865424921,0.0,0.0,0.0,0.0,0.0,0.0,0.0,0.0,0.0
9.798,275,9,798000000,base_footprint,-0.00355614721065443,0.001513604775909828,0.9196599048788207,0.392696730538818,0.0,0.0,0.0,0.0,0.0,0.0,0.0,0.0,0.0,0.00013824101322923877,-0.00031053900093358,-0.03368701687074549,0.0,0.0,0.0,0.0,0.0,0.0,0.0,0.0,0.0,-0.007695962097829441,-0.005222548428974103,-0.00023187753294755018,0.0,0.0,0.0,0.0,0.0,0.0,0.0,0.0,0.0
9.832,276,9,832000000,base_footprint,-0.003558788055382578,0.0015164763415452791,0.9195935817951688,0.39285198185603504,0.0,0.0,0.0,0.0,0.0,0.0,0.0,0.0,0.0,3.885661403356217e-05,-0.00018794368527123696,-0.007306997000598861,0.0,0.0,0.0,0.0,0.0,0.0,0.0,0.0,0.0,-0.002355393687203853,0.002478409576699154,-0.0002622020180313568,0.0,0.0,0.0,0.0,0.0,0.0,0.0,0.0,0.0
9.866,277,9,866000000,base_footprint,-0.0035620035678038,0.0015176396639002814,0.9195379056641834,0.39298225016807187,0.0,0.0,0.0,0.0,0.0,0.0,0.0,0.0,0.0,0.00010779227652709768,-9.16540094798585e-05,-0.009488890368600447,0.0,0.0,0.0,0.0,0.0,0.0,0.0,0.0,0.0,-0.002244769771375726,-0.0014748256071588444,-0.00012676002095866732,0.0,0.0,0.0,0.0,0.0,0.0,0.0,0.0,0.0
9.9,278,9,900000000,base_footprint,-0.0035640080072846586,0.0015183385112849312,0.9194655937066208,0.3931513887611495,0.0,0.0,0.0,0.0,0.0,0.0,0.0,0.0,0.0,-2.712553671006869e-05,-2.9503045202433958e-05,-0.012373975857796714,0.0,0.0,0.0,0.0,0.0,0.0,0.0,0.0,0.0,-0.003603694534295058,0.0026695940907124557,0.0001239915539433831,0.0,0.0,0.0,0.0,0.0,0.0,0.0,0.0,0.0
9.934,279,9,934000000,base_footprint,-0.003568135913091874,0.0015263277786905845,0.9189828707569516,0.394278355968128,0.0,0.0,0.0,0.0,0.0,0.0,0.0,0.0,0.0,0.0003410147486295541,-0.00020333855009569253,-0.09169275220280315,0.0,0.0,0.0,0.0,0.0,0.0,0.0,0.0,0.0,-0.011837727675699145,-0.0020208941185196946,-6.590730708406365e-05,0.0,0.0,0.0,0.0,0.0,0.0,0.0,0.0,0.0
9.968,280,9,968000000,base_footprint,-0.003563719171796941,0.0015285521583591507,0.9183529894287885,0.3957432883084326,0.0,0.0,0.0,0.0,0.0,0.0,0.0,0.0,0.0,0.0004656572073523717,-0.000563451950333956,-0.08841206401699889,0.0,0.0,0.0,0.0,0.0,0.0,0.0,0.0,0.0,-0.023386070832511183,0.00456199139975228,-0.00025230698839372314,0.0,0.0,0.0,0.0,0.0,0.0,0.0,0.0,0.0
10.002,281,10,2000000,base_footprint,-0.0035580558299150946,0.001531312871936064,0.9177709831725978,0.3970911957800156,0.0,0.0,0.0,0.0,0.0,0.0,0.0,0.0,0.0,-0.0006646585670195014,-0.0007381978585556482,-0.08002922259344548,0.0,0.0,0.0,0.0,0.0,0.0,0.0,0.0,0.0,-0.014314735070124079,0.012384258632422117,0.0022834537015048793,0.0,0.0,0.0,0.0,0.0,0.0,0.0,0.0,0.0
10.036,282,10,36000000,base_footprint,-0.00355117033753792,0.0015338833118676406,0.9175778294318503,0.3975373734963216,0.0,0.0,0.0,0.0,0.0,0.0,0.0,0.0,0.0,0.00026298534135695787,0.00014267793837501074,0.005223542586502645,0.0,0.0,0.0,0.0,0.0,0.0,0.0,0.0,0.0,-0.0040493474237098676,0.03498815658176685,-0.003293993344919679,0.0,0.0,0.0,0.0,0.0,0.0,0.0,0.0,0.0
10.07,283,10,70000000,base_footprint,-0.0035583177730652855,0.001530267100357876,0.9176080588766489,0.39746754199790457,0.0,0.0,0.0,0.0,0.0,0.0,0.0,0.0,0.0,-0.000611851646089641,-4.08994643768385e-05,-0.0009479318590523427,0.0,0.0,0.0,0.0,0.0,0.0,0.0,0.0,0.0,-0.00017495682913361288,-0.019257864871927016,0.0020841985473921687,0.0,0.0,0.0,0.0,0.0,0.0,0.0,0.0,0.0
10.104,284,10,104000000,base_footprint,-0.0035630352614712027,0.0015325878190640902,0.9176145318145289,0.3974525467991184,0.0,0.0,0.0,0.0,0.0,0.0,0.0,0.0,0.0,0.006540978865070697,-0.0003115568447235174,-0.005788799422355266,0.0,0.0,0.0,0.0,0.0,0.0,0.0,0.0,0.0,0.002053009017981333,0.07861568899236365,-0.008301946245344029,0.0,0.0,0.0,0.0,0.0,0.0,0.0,0.0,0.0
10.138,285,10,138000000,base_footprint,-0.003536568706219708,0.0015276945475060767,0.9177074801974702,0.39723813968546073,0.0,0.0,0.0,0.0,0.0,0.0,0.0,0.0,0.0,-0.007270541632493577,-0.0002261088960321179,0.06578307688720729,0.0,0.0,0.0,0.0,0.0,0.0,0.0,0.0,0.0,0.025790104521376367,0.4607523104255373,0.011516515191308058,0.0,0.0,0.0,0.0,0.0,0.0,0.0,0.0,0.0
10.172,286,10,172000000,base_footprint,-0.0035491307299093736,0.0015265287408819206,0.9178061397753937,0.3970100290567678,0.0,0.0,0.0,0.0,0.0,0.0,0.0,0.0,0.0,-0.0004249093507168852,-0.00013853726056041007,-0.006287338925401914,0.0,0.0,0.0,0.0,0.0,0.0,0.0,0.0,0.0,-0.003349763626169386,-0.2065772275727974,-0.0053203515856195165,0.0,0.0,0.0,0.0,0.0,0.0,0.0,0.0,0.0
10.206,287,10,206000000,base_footprint,-0.003538932333521988,0.0015258043746801037,0.9177614594532891,0.39711339869251183,0.0,0.0,0.0,0.0,0.0,0.0,0.0,0.0,0.0,-0.0017157491056385317,1.5480118273868138e-07,-0.0062701799978089915,0.0,0.0,0.0,0.0,0.0,0.0,0.0,0.0,0.0,-0.010909032269120968,-0.11094117588352881,0.0021852171657056217,0.0,0.0,0.0,0.0,0.0,0.0,0.0,0.0,0.0
10.24,288,10,240000000,base_footprint,-0.0035463080634063246,0.0015318728780483934,0.9174312667308818,0.39787554321568247,0.0,0.0,0.0,0.0,0.0,0.0,0.0,0.0,0.0,0.00024382491978958818,-0.00048121588293934675,-0.06590405440389045,0.0,0.0,0.0,0.0,0.0,0.0,0.0,0.0,0.0,-0.024870101132661387,-0.2552339984775104,-0.000765584459985181,0.0,0.0,0.0,0.0,0.0,0.0,0.0,0.0,0.0
10.274000000000001,289,10,274000000,base_footprint,-0.003545693769597264,0.0015374004682867735,0.9169825612390734,0.3989085695230443,0.0,0.0,0.0,0.0,0.0,0.0,0.0,0.0,0.0,0.00029775730163662735,-0.00047856252641810537,-0.06654318438594965,0.0,0.0,0.0,0.0,0.0,0.0,0.0,0.0,0.0,-0.014803450406059415,-0.004309980010707059,-0.00023555480344880604,0.0,0.0,0.0,0.0,0.0,0.0,0.0,0.0,0.0
10.308,290,10,308000000,base_footprint,-0.003544593764230383,0.0015392819642079559,0.9165409858546518,0.39992210205821865,0.0,0.0,0.0,0.0,0.0,0.0,0.0,0.0,0.0,-0.004758837500672646,0.00036690915388413255,-0.050547638664834284,0.0,0.0,0.0,0.0,0.0,0.0,0.0,0.0,0.0,-0.0008067645638536111,0.14918200035277482,0.005773628824198088,0.0,0.0,0.0,0.0,0.0,0.0,0.0,0.0,0.0
10.342,291,10,342000000,base_footprint,-0.003543541337392971,0.0015404624204315518,0.9164571119512792,0.4001142739821234,0.0,0.0,0.0,0.0,0.0,0.0,0.0,0.0,0.0,0.0008686489647555104,-0.0001279532669303788,-0.007844463625091289,0.0,0.0,0.0,0.0,0.0,0.0,0.0,0.0,0.0,0.025090354602558734,0.43209067346288066,-0.010000954933667266,0.0,0.0,0.0,0.0,0.0,0.0,0.0,0.0,0.0
10.376,292,10,376000000,base_footprint,-0.0035516725259103037,0.0015486791736786041,0.9161074561029453,0.4009141006346322,0.0,0.0,0.0,0.0,0.0,0.0,0.0,0.0,0.0,0.0006865212974601197,-0.0005939995826548564,-0.06725325199526697,0.0,0.0,0.0,0.0,0.0,0.0,0.0,0.0,0.0,-0.029649205032591996,-0.24640599944980862,0.0012671090444229339,0.0,0.0,0.0,0.0,0.0,0.0,0.0,0.0,0.0
10.41,293,10,410000000,base_footprint,-0.0035458758351162236,0.001545775780195703,0.9156172704972945,0.40203240081973957,0.0,0.0,0.0,0.0,0.0,0.0,0.0,0.0,0.0,-0.0020271481284475307,0.0007613035404619247,-0.08460437964612076,0.0,0.0,0.0,0.0,0.0,0.0,0.0,0.0,0.0,-0.010274741535971514,-0.0244334811656285,0.00477927091523068,0.0,0.0,0.0,0.0,0.0,0.0,0.0,0.0,0.0
10.444,294,10,444000000,base_footprint,-0.0035414385309995196,0.0015363642966277052,0.9150075663350892,0.403418208993368,0.0,0.0,0.0,0.0,0.0,0.0,0.0,0.0,0.0,0.0011709789898364084,-0.0012928014259305605,-0.09002882396663313,0.0,0.0,0.0,0.0,0.0,0.0,0.0,0.0,0.0,-0.016761851217115025,0.036034205175742295,-0.0052734367905991975,0.0,0.0,0.0,0.0,0.0,0.0,0.0,0.0,0.0
10.478,295,10,478000000,base_footprint,-0.00353999567713776,0.0015460828381883658,0.9144913700929673,0.40458696479737283,0.0,0.0,0.0,0.0,0.0,0.0,0.0,0.0,0.0,-0.0002488534542245436,-0.0009452390659591831,-0.05220900258359974,0.0,0.0,0.0,0.0,0.0,0.0,0.0,0.0,0.0,-0.01418567703687806,-0.0530938108224275,0.0023452912288879106,0.0,0.0,0.0,0.0,0.0,0.0,0.0,0.0,0.0
10.512,296,10,512000000,base_footprint,-0.0035379186544223927,0.0015639532553461202,0.9144654554387158,0.40464548433298003,0.0,0.0,0.0,0.0,0.0,0.0,0.0,0.0,0.0,0.0005855181211306345,-0.001323260318222989,0.04072307058353801,0.0,0.0,0.0,0.0,0.0,0.0,0.0,0.0,0.0,-0.022220103778378974,-0.07757674234437006,-0.0019396316777817038,0.0,0.0,0.0,0.0,0.0,0.0,0.0,0.0,0.0
10.546,297,10,546000000,base_footprint,-0.0035302259440107616,0.001561636280527912,0.9146558428462429,0.4042150268658264,0.0,0.0,0.0,0.0,0.0,0.0,0.0,0.0,0.0,0.00011416435680189098,-0.00022743289944423574,0.010757493388173221,0.0,0.0,0.0,0.0,0.0,0.0,0.0,0.0,0.0,0.004722148317190394,-0.07075255804328767,0.003631223474349055,0.0,0.0,0.0,0.0,0.0,0.0,0.0,0.0,0.0
10.58,298,10,580000000,base_footprint,-0.0035426338781628067,0.001557296667269157,0.9145557194581616,0.40444141798121963,0.0,0.0,0.0,0.0,0.0,0.0,0.0,0.0,0.0,-0.0006271800178258803,-0.00012052119557637577,-0.02616445942998465,0.0,0.0,0.0,0.0,0.0,0.0,0.0,0.0,0.0,-0.012464188017999062,-0.10317181970508676,-0.00010874190761908797,0.0,0.0,0.0,0.0,0.0,0.0,0.0,0.0,0.0
10.614,299,10,614000000,base_footprint,-0.003540586271992835,0.0015597575942991723,0.9143428546474225,0.4049224315351029,0.0,0.0,0.0,0.0,0.0,0.0,0.0,0.0,0.0,-0.002100769729422014,-0.00013843336746109333,-0.051409656057099365,0.0,0.0,0.0,0.0,0.0,0.0,0.0,0.0,0.0,0.021611906944777465,0.31837305885760636,0.0011409349142123422,0.0,0.0,0.0,0.0,0.0,0.0,0.0,0.0,0.0
10.648,300,10,648000000,base_footprint,-0.0035345976583844524,0.0015595275142135357,0.9139163872778271,0.4058841109952083,0.0,0.0,0.0,0.0,0.0,0.0,0.0,0.0,0.0,-0.0009798660573191236,0.0006589432389929794,-0.021433406322107953,0.0,0.0,0.0,0.0,0.0,0.0,0.0,0.0,0.0,0.020915196002382383,0.3224834245691558,-0.005034427421965291,0.0,0.0,0.0,0.0,0.0,0.0,0.0,0.0,0.0
10.682,301,10,682000000,base_footprint,-0.0035304832043666656,0.0015593178202023116,0.9140545943209744,0.4055728082810758,0.0,0.0,0.0,0.0,0.0,0.0,0.0,0.0,0.0,0.0022175669632866495,0.0009095095519636793,-0.011334508402449112,0.0,0.0,0.0,0.0,0.0,0.0,0.0,0.0,0.0,-0.02674155390793642,-0.30165422161129496,-0.002369079435245071,0.0,0.0,0.0,0.0,0.0,0.0,0.0,0.0,0.0
10.716,302,10,716000000,base_footprint,-0.0035272101629729518,0.0015604010994771642,0.9139331791929157,0.4058463599777691,0.0,0.0,0.0,0.0,0.0,0.0,0.0,0.0,0.0,-0.0003480607390400408,-0.00040598809562837255,-0.04912643064736023,0.0,0.0,0.0,0.0,0.0,0.0,0.0,0.0,0.0,-0.03238032505567942,-0.28210232294003407,0.005401864129546927,0.0,0.0,0.0,0.0,0.0,0.0,0.0,0.0,0.0
10.75,303,10,750000000,base_footprint,-0.003531057551001675,0.0015682205930821174,0.913388998450653,0.4070695393001743,0.0,0.0,0.0,0.0,0.0,0.0,0.0,0.0,0.0,0.0003228460815250507,-0.0005602131801780908,-0.08153714068617263,0.0,0.0,0.0,0.0,0.0,0.0,0.0,0.0,0.0,-0.02672679499687075,-0.08980585715548801,-0.00015608090456129692,0.0,0.0,0.0,0.0,0.0,0.0,0.0,0.0,0.0
10.784,304,10,784000000,base_footprint,-0.003531192801605988,0.0015750736237036067,0.9128208000915639,0.40834205850080535,0.0,0.0,0.0,0.0,0.0,0.0,0.0,0.0,0.0,0.0004318665260826304,-0.0005809659581946379,-0.08232255840920943,0.0,0.0,0.0,0.0,0.0,0.0,0.0,0.0,0.0,-0.018616985535252116,-0.0034157025486975575,-0.00032809082411138635,0.0,0.0,0.0,0.0,0.0,0.0,0.0,0.0,0.0
10.818,305,10,818000000,base_footprint,-0.00352895005442896,0.0015760036693605092,0.9123226763654984,0.409453778726295,0.0,0.0,0.0,0.0,0.0,0.0,0.0,0.0,0.0,0.0005073087029422364,-0.00023235637198121398,-0.04072436036700667,0.0,0.0,0.0,0.0,0.0,0.0,0.0,0.0,0.0,0.026553024887521606,0.3585892565111753,-0.0018159285206099354,0.0,0.0,0.0,0.0,0.0,0.0,0.0,0.0,0.0
10.852,306,10,852000000,base_footprint,-0.003531916643775075,0.0015704796246246405,0.9123247180519147,0.40944922516725374,0.0,0.0,0.0,0.0,0.0,0.0,0.0,0.0,0.0,-0.0009931298957510059,0.0006807695775547659,0.007682132124692951,0.0,0.0,0.0,0.0,0.0,0.0,0.0,0.0,0.0,0.06333516976718481,0.5602425678941717,-0.0018953452745615862,0.0,0.0,0.0,0.0,0.0,0.0,0.0,0.0,0.0
10.886,307,10,886000000,base_footprint,-0.003535905134218458,0.0015838048658287514,0.9120945901800933,0.40996151953718374,0.0,0.0,0.0,0.0,0.0,0.0,0.0,0.0,0.0,-0.00025470363062356357,0.0004349088980133736,-0.04671015115780959,0.0,0.0,0.0,0.0,0.0,0.0,0.0,0.0,0.0,0.01072167717423668,0.11402551719062466,-0.001085726197870181,0.0,0.0,0.0,0.0,0.0,0.0,0.0,0.0,0.0
10.92,308,10,920000000,base_footprint,-0.003526592026105357,0.0015776699906516157,0.9116339690198015,0.4109848910060875,0.0,0.0,0.0,0.0,0.0,0.0,0.0,0.0,0.0,0.0003240960748712363,-0.0005678983820157552,-0.1171212625938895,0.0,0.0,0.0,0.0,0.0,0.0,0.0,0.0,0.0,-0.023705709203708413,-0.12747564730823577,0.000705703117329075,0.0,0.0,0.0,0.0,0.0,0.0,0.0,0.0,0.0
10.954,309,10,954000000,base_footprint,-0.003519473775051867,0.001578915605808431,0.9105877336236906,0.41329783413892596,0.0,0.0,0.0,0.0,0.0,0.0,0.0,0.0,0.0,0.00017274204973453987,-0.0008396606248726715,-0.17742379850412218,0.0,0.0,0.0,0.0,0.0,0.0,0.0,0.0,0.0,-0.04204408760635915,-0.07472713620487516,0.000374936530305466,0.0,0.0,0.0,0.0,0.0,0.0,0.0,0.0,0.0
10.988,310,10,988000000,base_footprint,-0.0035123538079308582,0.0015949545558288031,0.9093564553595501,0.415999947820438,0.0,0.0,0.0,0.0,0.0,0.0,0.0,0.0,0.0,0.0005666950868857304,-0.0015437420283752265,-0.15246987107339646,0.0,0.0,0.0,0.0,0.0,0.0,0.0,0.0,0.0,-0.03835869572228659,-0.09565613643232816,-0.00012298094288670913,0.0,0.0,0.0,0.0,0.0,0.0,0.0,0.0,0.0
11.022,311,11,22000000,base_footprint,-0.0035001425718132187,0.0016062634295610386,0.9086506994225019,0.4175393099562846,0.0,0.0,0.0,0.0,0.0,0.0,0.0,0.0,0.0,-0.0009795840836659708,-0.0017633861423465077,-0.05130141361290315,0.0,0.0,0.0,0.0,0.0,0.0,0.0,0.0,0.0,-0.04930752575066073,-0.12370751344041156,0.0031396388225781455,0.0,0.0,0.0,0.0,0.0,0.0,0.0,0.0,0.0
11.056,312,11,56000000,base_footprint,-0.003500827094793383,0.0016066635866886715,0.9086153744695364,0.4176161684122823,0.0,0.0,0.0,0.0,0.0,0.0,0.0,0.0,0.0,7.966214031497598e-05,-0.0011671242352012138,0.034470698054847995,0.0,0.0,0.0,0.0,0.0,0.0,0.0,0.0,0.0,-0.04527775711458233,-0.2837321917192089,-0.003701411581268698,0.0,0.0,0.0,0.0,0.0,0.0,0.0,0.0,0.0
11.09,313,11,90000000,base_footprint,-0.0035029435138357002,0.001611281877723399,0.9086303483964123,0.4175835522748279,0.0,0.0,0.0,0.0,0.0,0.0,0.0,0.0,0.0,0.000879398526073375,0.0007418960407669042,-0.041364165062918304,0.0,0.0,0.0,0.0,0.0,0.0,0.0,0.0,0.0,-0.036893318095063,-0.22551684019463927,0.0017076003145853752,0.0,0.0,0.0,0.0,0.0,0.0,0.0,0.0,0.0
11.124,314,11,124000000,base_footprint,-0.003510416504356722,0.0016111991888336542,0.9082317813988381,0.41844965320840344,0.0,0.0,0.0,0.0,0.0,0.0,0.0,0.0,0.0,-0.0007348509214267262,0.0007580931737079159,-0.03789318905668964,0.0,0.0,0.0,0.0,0.0,0.0,0.0,0.0,0.0,0.03304317595720095,0.3010229606762773,0.0004880336155687441,0.0,0.0,0.0,0.0,0.0,0.0,0.0,0.0,0.0
11.157,315,11,158000000,base_footprint,-0.0035106875421139646,0.0016133020726688868,0.9079463071763204,0.4190687003514899,0.0,0.0,0.0,0.0,0.0,0.0,0.0,0.0,0.0,-0.00011467365931334515,-0.0002990742254571674,-0.04048600417391621,0.0,0.0,0.0,0.0,0.0,0.0,0.0,0.0,0.0,-0.00746777522615717,-0.013443389981291076,0.00013899427384133454,0.0,0.0,0.0,0.0,0.0,0.0,0.0,0.0,0.0
11.192,316,11,192000000,base_footprint,-0.0035077746311821902,0.001616185505122783,0.9076549019255045,0.4196994906741641,0.0,0.0,0.0,0.0,0.0,0.0,0.0,0.0,0.0,-3.862268342321945e-05,-0.000296030518651737,-0.04115511038484035,0.0,0.0,0.0,0.0,0.0,0.0,0.0,0.0,0.0,-0.009190012655014047,-0.004205004952039451,-0.00017883867141430616,0.0,0.0,0.0,0.0,0.0,0.0,0.0,0.0,0.0
11.226,317,11,226000000,base_footprint,-0.003506474789835594,0.0016178440995934368,0.9074538347103921,0.42013405608736626,0.0,0.0,0.0,0.0,0.0,0.0,0.0,0.0,0.0,0.0004306860606207374,-0.0004872814869471836,0.0016770071531971233,0.0,0.0,0.0,0.0,0.0,0.0,0.0,0.0,0.0,-0.06147970133052373,-0.332227992361598,0.0007147081041978009,0.0,0.0,0.0,0.0,0.0,0.0,0.0,0.0,0.0
11.26,318,11,260000000,base_footprint,-0.003508026243615428,0.0016197696744008252,0.9074616348084034,0.4201171877571017,0.0,0.0,0.0,0.0,0.0,0.0,0.0,0.0,0.0,-6.982123352528079e-05,-6.771095597055761e-05,0.0007697333184930617,0.0,0.0,0.0,0.0,0.0,0.0,0.0,0.0,0.0,-0.00018654864860407846,-0.002829160555619257,0.0005657811802157671,0.0,0.0,0.0,0.0,0.0,0.0,0.0,0.0,0.0
11.294,319,11,294000000,base_footprint,-0.0035112103551337287,0.0016217202536905134,0.9074640712325046,0.42011189086645556,0.0,0.0,0.0,0.0,0.0,0.0,0.0,0.0,0.0,5.680893050729775e-05,-9.616101655197408e-05,-2.1828725792542855e-05,0.0,0.0,0.0,0.0,0.0,0.0,0.0,0.0,0.0,-0.0009248906479708237,-0.0051297819509884554,-0.0002455385227987588,0.0,0.0,0.0,0.0,0.0,0.0,0.0,0.0,0.0
11.328,320,11,328000000,base_footprint,-0.0035162728019018123,0.0016227943809819546,0.9076203605933121,0.41977408614687745,0.0,0.0,0.0,0.0,0.0,0.0,0.0,0.0,0.0,-0.0008410928919861299,0.0005404581619778286,0.04138088806716918,0.0,0.0,0.0,0.0,0.0,0.0,0.0,0.0,0.0,0.06067759654183247,0.3463211313803078,-0.0009531566036951785,0.0,0.0,0.0,0.0,0.0,0.0,0.0,0.0,0.0
11.362,321,11,362000000,base_footprint,-0.003519632988082172,0.0016201904284043305,0.9079058559578528,0.41915622849248435,0.0,0.0,0.0,0.0,0.0,0.0,0.0,0.0,0.0,-0.0001852176956023873,0.00028511960967185756,0.038579958426975314,0.0,0.0,0.0,0.0,0.0,0.0,0.0,0.0,0.0,0.005804656942366798,-0.004960915959978227,-0.0008825865323212285,0.0,0.0,0.0,0.0,0.0,0.0,0.0,0.0,0.0
11.396,322,11,396000000,base_footprint,-0.0035216408861634095,0.0016153510974445911,0.9081722025615822,0.41857883269552204,0.0,0.0,0.0,0.0,0.0,0.0,0.0,0.0,0.0,-0.00048502197545479043,0.0006304769941467088,0.03582097110487636,0.0,0.0,0.0,0.0,0.0,0.0,0.0,0.0,0.0,0.010086846733515868,0.004741275973622934,0.000664611782336738,0.0,0.0,0.0,0.0,0.0,0.0,0.0,0.0,0.0
11.43,323,11,430000000,base_footprint,-0.003515527206859593,0.001608327635502303,0.9081075093426522,0.41871924463315496,0.0,0.0,0.0,0.0,0.0,0.0,0.0,0.0,0.0,-0.00041619876916135413,0.0009503144849979304,-0.055155323919780674,0.0,0.0,0.0,0.0,0.0,0.0,0.0,0.0,0.0,-0.017441079588587212,-0.099668831285402,0.002083528270344087,0.0,0.0,0.0,0.0,0.0,0.0,0.0,0.0,0.0
11.464,324,11,464000000,base_footprint,-0.0035057238396238046,0.0016062344486184438,0.9076623768537724,0.4196833801277065,0.0,0.0,0.0,0.0,0.0,0.0,0.0,0.0,0.0,-0.0003638858106909289,0.000496681285382629,-0.049656641628092496,0.0,0.0,0.0,0.0,0.0,0.0,0.0,0.0,0.0,-0.01745499367396909,-0.08472849749184579,0.0010632302187002065,0.0,0.0,0.0,0.0,0.0,0.0,0.0,0.0,0.0
11.498,325,11,498000000,base_footprint,-0.003510295398316079,0.001622821203550481,0.9075593135060825,0.4199061046780886,0.0,0.0,0.0,0.0,0.0,0.0,0.0,0.0,0.0,-0.0015004366109043585,-0.0003262028010198579,-0.0045500001961478916,0.0,0.0,0.0,0.0,0.0,0.0,0.0,0.0,0.0,-0.012274852106028472,-0.024861712546681465,0.0003222319812138417,0.0,0.0,0.0,0.0,0.0,0.0,0.0,0.0,0.0
11.532,326,11,532000000,base_footprint,-0.0035199752508293346,0.0016175526091881168,0.9077105741950737,0.4195789637151029,0.0,0.0,0.0,0.0,0.0,0.0,0.0,0.0,0.0,-0.00044764153422709315,8.223845441526919e-07,0.026740919471671943,0.0,0.0,0.0,0.0,0.0,0.0,0.0,0.0,0.0,-0.011791410016097154,-0.10390491107552892,-0.0015769752962406713,0.0,0.0,0.0,0.0,0.0,0.0,0.0,0.0,0.0
11.566,327,11,566000000,base_footprint,-0.003515748922921943,0.001614120071247502,0.9079190484048191,0.4191277080671172,0.0,0.0,0.0,0.0,0.0,0.0,0.0,0.0,0.0,-0.0005066315163611893,0.0002747342791505421,0.029562559233629857,0.0,0.0,0.0,0.0,0.0,0.0,0.0,0.0,0.0,0.0030839736095580016,0.003030057363067184,-7.833557458711156e-05,0.0,0.0,0.0,0.0,0.0,0.0,0.0,0.0,0.0
11.6,328,11,600000000,base_footprint,-0.003513814765424516,0.001611209223658472,0.9081301093442672,0.41867023014898175,0.0,0.0,0.0,0.0,0.0,0.0,0.0,0.0,0.0,-0.00038648858095543306,0.0002827294475373619,0.02970899463555263,0.0,0.0,0.0,0.0,0.0,0.0,0.0,0.0,0.0,0.005683727457878818,-0.005091418439749062,-0.00016180562965124743,0.0,0.0,0.0,0.0,0.0,0.0,0.0,0.0,0.0
11.634,329,11,634000000,base_footprint,-0.0035130716565869523,0.0016075357501554057,0.9085132172545072,0.41783825606353026,0.0,0.0,0.0,0.0,0.0,0.0,0.0,0.0,0.0,-0.0006106592183424894,0.0002599192899854719,0.05514239810350279,0.0,0.0,0.0,0.0,0.0,0.0,0.0,0.0,0.0,0.01143272182573545,0.00018705805337831862,0.0003487326490714988,0.0,0.0,0.0,0.0,0.0,0.0,0.0,0.0,0.0
