Theta_calculated,yaw_world,linear_velocity_x,world_velocity_x,world_velocity_y,angular_velocity_yaw,linear_acceleration_x,angular_acceleration_yaw,delta_position_x_world,delta_position_y_world,delta_yaw,kinematic_delta_x,kinematic_delta_y,kinematic_delta_yaw,twist.twist.linear.x
-1.4819911591246182e-06,-2.842199747809549e-05,0.0001415951119098,0.0001415951119096,-2.0984270402552367e-10,-9.591101900416652e-05,0.0042590929350251,-0.0030287555169138,3.666870495553504e-06,5.8795123367334095e-06,-1.593256222694663e-05,4.7151172265876e-06,-8.180128992662693e-12,-3.193836932838745e-06,0.0002237216557382
-4.675828091826872e-06,-2.446040175647888e-05,5.388125612060363e-05,5.3881256120014616e-05,-2.5193949099071904e-10,-0.0003672238966111,-0.0026340497233996,-0.0081475338620715,-4.3087721750788295e-08,2.484739322405795e-07,3.961595721616613e-06,1.7942458287248727e-06,-1.694855960984078e-11,-1.222855575715125e-05,4.640555512916874e-07
-1.6904383849158933e-05,-1.5193681457419262e-05,-2.89758995131984e-06,-2.897589950905834e-06,4.898197277224346e-11,8.289495321931309e-05,-0.0017050704526103,0.0135170825774913,-9.497051516992733e-08,6.005417870816807e-07,9.266720299059616e-06,-9.64897453692191e-08,1.368238976731936e-12,2.760401942203126e-06,-2.559173401886397e-06
-1.4143981907022152e-05,-4.608030502133604e-06,-2.1427627644549533e-06,-2.142762764240621e-06,3.0307197770481124e-11,0.0002249014800077,2.266748308903561e-05,0.0042644602639159,-1.0821925824824193e-07,6.883354056436318e-07,1.0585650955285658e-05,-7.135400005325773e-08,6.46133591106243e-13,7.489219284256871e-06,-3.1245878077985505e-06
-6.6547626227375645e-06,6.315392177116348e-06,-9.723565913738784e-07,-9.723565913523477e-07,6.470802300199628e-12,0.0002540237131214,3.51473325249572e-05,0.0008745415349471,-1.1159602051648289e-07,7.108479404323501e-07,1.0923422679249954e-05,-3.2379474492634694e-08,3.5009716329088285e-14,8.45898964694438e-06,-3.26624941810286e-06
1.8042270242268896e-06,1.7328578968631352e-05,-2.5802616186934495e-07,-2.58026161868925e-07,-4.655377742019614e-13,0.0002634039308721,2.145136424938539e-05,0.000281688220741,-1.125007513700857e-07,7.168268017680359e-07,1.1013186791515004e-05,-8.592271189977793e-09,-6.473373939636664e-14,8.77135089804187e-06,-3.305411898762707e-06
1.0575577922278256e-05,2.836588526520343e-05,3.729789377837808e-07,3.729789377629233e-07,3.94446781982742e-12,0.0002729730345709,1.894910209168545e-05,0.0002873604714359,-1.1275071505351825e-07,7.184293663937312e-07,1.1037306296572078e-05,1.2420198626473684e-08,2.0449380047983805e-13,9.0900020512125e-06,-3.305411898762707e-06
1.9665579973349168e-05,3.9409932689136666e-05,9.827382473828768e-07,9.82738247192847e-07,1.932611759553128e-11,0.0002631806733348,1.8311090378351228e-05,-0.0002940649019847,-1.128273380756814e-07,7.188733604636344e-07,1.1044047423933236e-05,3.2725183627195583e-08,8.309440303080288e-13,8.763916422050625e-06,-3.3195714096968467e-06
2.842949639569881e-05,5.045612038582287e-05,1.649281960630609e-06,1.6492819599641045e-06,4.6888255548922825e-11,0.0002592936535725,2.0016327725157124e-05,-0.0001167273201901,-1.1285806741228981e-07,7.190106128913448e-07,1.1046187696686206e-05,5.4921089256914593e-08,1.872302661039315e-12,8.634478663965002e-06,-3.320572821239388e-06
4.575244319404703e-05,6.150323007899089e-05,3.342964389094572e-06,3.3429643855956813e-06,1.5294878825841055e-10,0.0002448051704956,2.5354513911477987e-05,-0.0004837774322024,-1.1287664459548768e-07,7.190666283365619e-07,1.104710969316802e-05,1.1132071401078748e-07,5.696556484171761e-12,8.152012177505617e-06,-3.321017821602152e-06
5.390445537134525e-05,7.255093897384078e-05,4.429967609337869e-06,4.429967602901812e-06,2.3879499117841407e-10,0.0002337471793293,3.2642739346645576e-05,-0.0003320718067966,-1.1289200276334844e-07,7.191011065682228e-07,1.104770889484989e-05,1.475179211326004e-07,8.724268014677803e-12,7.78378107166688e-06,-3.321294789833772e-06
6.1688236443036e-05,8.359916135736258e-05,5.933119372162143e-06,5.9331193608730825e-06,3.660036704425615e-10,0.0002259786757844,4.513969257730551e-05,-0.000233288394741,-1.129065071436843e-07,7.191298544139523e-07,1.10482223835218e-05,1.9757287465179282e-07,1.3196845088238018e-11,7.525089903622498e-06,-3.321294789833772e-06
6.921332634668431e-05,9.46478743023249e-05,7.333812607545046e-06,7.333812589978787e-06,5.075975649661701e-10,0.000201529600886,4.20628599214085e-05,-0.0007342064534044,-1.129207841581523e-07,7.191570589781491e-07,1.1048712944962324e-05,2.4421595916370294e-07,1.805069976403426e-11,6.710935709506871e-06,-3.321761244730424e-06
7.592426205604852e-05,0.0001056970715265,9.113240884941428e-06,9.11324085867482e-06,6.9191608846343e-10,0.0001808971949069,5.343628460649796e-05,-0.0006195917711461,-1.1293499988396765e-07,7.191838312310614e-07,1.1049197224243309e-05,3.034709204901682e-07,2.4362719120380008e-11,6.02387659040062e-06,-3.322202059005098e-06
8.194813864648154e-05,0.0001167467511754,-0.0001536112587617,-0.0001536112582459,-1.2588156716579702e-08,0.0022253553082254,-0.0048866216110119,0.0613951385380938,-1.1294919850107776e-07,7.192104675342811e-07,1.104967964893168e-05,-5.115254878554566e-06,-6.155920052850359e-10,7.410433176390752e-05,-3.322202059005098e-06
0.0001560524704102,0.0001277969125859,1.0700560572909885e-05,1.070056044261786e-05,1.6698489054000063e-09,0.0001637296543988,0.0049342888689089,-0.0619106802950924,-1.1296339187845394e-07,7.19237048402413e-07,1.1050161410489505e-05,3.5632866250945626e-07,5.7056276718669797e-11,5.452197491482483e-06,-3.322428359458424e-06
0.0001615046679019,0.0001388475554284,8.886873669864838e-06,8.886873553963307e-06,1.435271574498918e-09,0.0001874847912146,-5.446507216351491e-05,0.0007133674719449,-1.129775833476343e-07,7.192635970538468e-07,1.1050642842433852e-05,2.959328891301123e-07,4.9116077073630976e-11,6.243243547447497e-06,-3.3226478738069027e-06
0.0001677479114494,0.0001498986794775,7.450438993869385e-06,7.450438889044085e-06,1.249795574741851e-09,0.0002154918891787,-4.313617645631992e-05,0.0008410539929169,-1.1299177393123833e-07,7.192901213393274e-07,1.1051124049124285e-05,2.4809961479635924e-07,4.284181408354647e-11,7.1758799096531285e-06,-3.3226478738069027e-06
0.0001749237913588,0.0001609502845504,5.8199539387297305e-06,5.819953849689287e-06,1.0180484033047755e-09,0.0002276628160818,-4.896351516935898e-05,0.0003654933003933,-1.1300596405427329e-07,7.193166248931346e-07,1.1051605072915152e-05,1.938044630175649e-07,3.489612688813683e-11,7.581171775526257e-06,-3.323093343095726e-06
0.0001825049631345,0.0001720023704887,4.679069569662193e-06,4.679069491736825e-06,8.539534145745781e-10,0.0002426869793488,-3.4260791863890005e-05,0.0004511760740825,-1.1302015395352889e-07,7.193431100859441e-07,1.1052085938335472e-05,1.5581301391902825e-07,2.927566921023456e-11,8.08147641231563e-06,-3.323531976571493e-06
0.000190586439547,0.0001830549371528,3.864345424797276e-06,3.864345354614597e-06,7.364918312334539e-10,0.0002627137230722,-2.4466190536484007e-05,0.0006014037154181,-1.1303434381288585e-07,7.193695788318404e-07,1.1052566664088186e-05,1.286827001659118e-07,2.526101345147584e-11,8.748366978305613e-06,-3.323531976571493e-06
0.000199334806525,0.000194107984419,3.015334145009029e-06,3.015334085102836e-06,6.010610444231648e-10,0.000264804894688,-2.549583422787527e-05,6.279794642110532e-05,-1.1304853378066305e-07,7.193960328007217e-07,1.1053047266136362e-05,1.0041062491678829e-07,2.059299951516568e-11,8.818002993112513e-06,-3.323757884727285e-06
0.0002081528095181,0.000205161512177,2.443655350409889e-06,2.443655297471037e-06,5.086537230087204e-10,0.0002725084800494,-1.716753136934356e-05,0.0002313388997426,-1.1306272398696473e-07,7.194224734485937e-07,1.105352775803372e-05,8.137372130448046e-08,1.7416753425191488e-11,9.074532385648124e-06,-3.323757884727285e-06
0.0002172273419041,0.0002163568506634,2.044728571639656e-06,2.0447285233966184e-06,4.4417094903941927e-10,0.000287207654515,-1.1979783146253229e-05,0.0004414166506185,2.777936080539025e-05,7.284947370068624e-07,1.119533848634646e-05,6.808945973696065e-08,1.5208011193078263e-11,9.564014895352508e-06,-3.324196332671748e-06
0.0002165349756952,0.0003520440316377,0.2180174855072822,0.2180174803961461,4.7208410556554966e-05,-2.490317432248792e-06,0.3536044475149885,-0.0006880138814087,0.0057038977736809,1.421674156365212e-06,2.173972149029812e-05,0.0072599820951374,1.5814996494126926e-06,-8.292757049388478e-08,0.1512603172770193
0.0002164520481247,0.0003707913332268,0.2180145281304421,0.2180145230232895,4.718969076629067e-05,1.3581695961077804e-05,-8.881011531786158e-05,0.0004826430448446,0.0061919675194032,1.2240576228384606e-06,1.8747301589072948e-05,0.0072598836141993,1.5828159790649312e-06,4.5227047550389094e-07,0.1697352639450572
0.0002169043185999,0.0003081576680144,0.224621380288357,0.2246213750044217,4.872134705240085e-05,7.961792682600012e-06,0.1984039687061523,-0.0001687658642185,0.0064641521936346,-4.142822422958866e-06,-6.263366521238544e-05,0.0074798917852432,1.6334678791541826e-06,2.6512769633058044e-07,0.1907472562923051
0.0002171694462962,0.0001256677677821,0.2180116618763463,0.2180116567353514,4.73454715236534e-05,-9.259550008626432e-07,-0.1984900424027225,-0.0002668993298337,0.0065104893260375,-1.1547769511556545e-05,-0.0001824899002323,0.0072597881671857,1.5862596364856824e-06,-3.0834301528726016e-08,0.1907472562923051
0.0002171386119949,0.0002930009100616,0.2179946037009638,0.2179945985618308,4.733504529803856e-05,0.0001126629633725,-0.000512257518994,0.0034110786298329,0.0065726585795825,1.15103916418514e-05,0.0001673331422795,0.0072592201269916,1.5996308251435325e-06,3.751676680306681e-06,0.1931301430640604
0.0002208902886753,0.0003539527907136,0.224624673434225,0.2246246679542232,4.9617408554995766e-05,5.437707958710702e-06,0.1991011931910275,-0.0032199776400559,0.0068356929627768,4.009122574395554e-06,6.09518806519542e-05,0.0074800014404978,1.6629928742349851e-06,1.810756750250664e-07,0.2009862998612004
0.0002210713643502,0.0003990259461987,0.2180177983223222,0.2180177929947795,4.819749173516085e-05,7.603478541729436e-06,-0.1984046580151,6.503815564620823e-05,0.0072730917078265,2.961539504511067e-06,4.507315548512952e-05,0.0072599925043577,1.6156500359554468e-06,2.5319583543959024e-07,0.2009862998612004
0.0002213245601856,0.0004549883557114,0.2174919011854411,0.2174918958585684,4.81362989808178e-05,0.0014414185255492,-0.0157927068132466,0.043057508919144,0.007464383025214,3.7757677478254687e-06,5.596240951262422e-05,0.0072424800884448,1.786489721182795e-06,4.799923690078922e-05,0.2137817587771304
0.0002693237970863,-1.7713943634183736e-05,0.2242024255511688,0.2242024174198729,6.0383047835422026e-05,0.0015716405424251,0.2015172482200516,0.0039105710773556,0.007345886802412,4.177795662432598e-06,-0.0004727022993455,0.0074659404410846,2.216157382933417e-06,5.23356300627581e-05,0.2196876198733168
0.0003216594271493,-0.0024595463097662,0.206502116188132,0.2065021055052834,6.642335125278915e-05,-0.0714034309957277,-0.5315408217128174,-2.191443589734322,0.0071035888958597,-7.219789932601406e-06,-0.0024418323661321,0.0068765162714488,-5.954127012533314e-06,-0.0023777342521577,0.2196876198733168
-0.0020560748250084,-0.0049135822336678,0.2064895617134515,0.2064891252521083,-0.0004245576903336,-0.0712395447339226,-0.0003770112516662,0.0049215093635179,0.0071108060539449,-2.4883818326259185e-05,-0.0024540359239015,0.0068760646820853,-2.228450428328875e-05,-0.0023722768396396,0.2091300700029273
-0.0044283516646479,-0.0069017719965447,0.2129297589255287,0.2129276711208783,-0.0009429247705445,-0.0738270079553023,0.1933993156779947,-0.0777015982396324,0.0071130574675543,-4.183506557253256e-05,-0.0019881897628768,0.0070904457631039,-4.010560062845464e-05,-0.0024584393649115,0.2091300700029273
-0.0068867910295598,-0.0085300246956912,0.2068520054834963,0.2068471002257315,-0.0014245352752973,-0.0478186523369304,-0.1825151183793522,0.7810317002514074,0.007115400848552,-5.40198513982877e-05,-0.0016282526991465,0.0068879678293218,-5.291184416732589e-05,-0.0015923611228197,0.2093185152666199
-0.0084791521523794,-0.0101662381294002,0.2070053247354405,0.2069978833504142,-0.0017552086125221,-0.047520906618293,0.0046041817400652,0.0089413128719955,0.0071207513461166,-6.598063537357712e-05,-0.0016362134337089,0.0068929804788518,-6.389308095745482e-05,-0.0015824461903891,0.209437489583451
-0.0100615983427685,-0.0115745213110213,0.2134154700795015,0.2134046675318518,-0.0021472645096523,-0.0490472720821281,0.19249685717901,-0.0458368007157678,0.0072544913415836,-7.797269717850001e-05,-0.0014082831816211,0.0071063139805028,-7.729765358562613e-05,-0.0016332741603348,0.209437489583451
-0.0116948725031034,-0.0131815117130094,0.2288594771299213,0.2288438267480494,-0.0026764213961429,-0.0080843249072092,0.4637839955081034,1.2301185337813458,0.0075569010700252,-9.63385793175e-05,-0.001606990401988,0.0076204874632629,-9.014033893564168e-05,-0.00026920801941,0.2251390430973106
-0.0119640805225134,-0.0150031519514075,0.2186272819025792,0.2186116350196191,-0.0026156120046137,-0.0557667271485212,-0.3072731299502145,-1.431903971210568,0.0075058788007006,-0.0001087341229421,-0.0018216402383981,0.0072796825145601,-9.384942415017668e-05,-0.0018570320140457,0.220825135194356
-0.0138211125365592,-0.0167691717751794,0.224840448302317,0.224818973778627,-0.0031074462041906,-0.0561198902669678,0.1865815735656994,-0.0106054990524522,0.0074692033700435,-0.0001168131467643,-0.0017660198237718,0.0074863709283158,-0.0001104631649587,-0.00186879234589,0.220263550227875
-0.0156899048824494,-0.0186962189286932,0.2179008770593633,0.217874056940712,-0.0034187037653425,-0.054664836747041,-0.2083955328214329,0.0436953008987021,0.0074453011056906,-0.0001290102900647,-0.0019270471535137,0.007255098634903,-0.0001204364870678,-0.0018203390636764,0.220263550227875
-0.0175102439461256,-0.0203122880036632,0.2175056824739354,0.2174723387648245,-0.0038083829389712,-0.0477420391156999,-0.011867705268103,0.2078918207609958,0.0074678996453416,-0.0001444193889925,-0.00161606907497,0.0072417251992842,-0.0001325659296824,-0.0015898099025528,0.2198646488765246
-0.0191000538486787,-0.0219959917772012,0.2240781432454051,0.2240372712837909,-0.0042796443802455,-0.0490105361428343,0.1973711943384268,-0.0380930038178494,0.0074724158074168,-0.0001573508549291,-0.001683703773538,0.0074603217280239,-0.0001485899759185,-0.0016320508535563,0.2198646488765246
-0.020732104702235,-0.0236928649253743,0.2174509526521703,0.2174042219238078,-0.0045078929712408,-0.0490692692002058,-0.1990147325295718,-0.0017637554766229,0.0074777290928034,-0.0001695429169231,-0.001696873148173,0.0072394349355266,-0.0001560177828469,-0.0016340066643668,0.219933209222507
-0.022366111366602,-0.0254043978334338,0.2175696384979055,0.2175152219288667,-0.0048657810621893,-0.049511185279657,0.003564139511567,-0.0132707531366727,0.0074835157744388,-0.0001823774899181,-0.0017115329080595,0.0072431202628453,-0.0001679917597467,-0.0016487224698125,0.2201050009769267
-0.0240148338364143,-0.0269103459242907,0.2243416066851064,0.2242769195182911,-0.0053870085799949,-0.0514324217452972,0.2033624080240505,-0.0576947887579633,0.0074877282246874,-0.0001948264343161,-0.0015059480908568,0.0074682644000979,-0.0001857728401418,-0.0017126996441183,0.2202953938765068
-0.0257275334805329,-0.0283761733910705,0.2179261721677752,0.2178540528277571,-0.0056060843928395,-0.0424767487420518,-0.1926556912111464,0.2689391292265884,0.0074932567452843,-0.0002059885624315,-0.0014658274667798,0.0072544057688974,-0.0001918034823117,-0.0014144757331103,0.2204092988753552
-0.0271420092136431,-0.0298570254559468,0.2181052735687963,0.2180249406593582,-0.0059190885280444,-0.0427401392939938,0.005378420451083,-0.0079096261844438,0.0074993095530965,-0.0002173398101169,-0.0014808520648762,0.0072600880797694,-0.0002022623720471,-0.0014232466384899,0.2205956060876616
-0.0285652558521332,-0.0311400180899576,0.2248964777344831,0.2248047291519582,-0.0064233517957224,-0.0444422557233558,0.203940065035641,-0.0511146074883475,0.0075033228694026,-0.0002282122103073,-0.0012829926340107,0.007485836766656,-0.0002194268397576,-0.0014799271155877,0.2205956060876616
-0.0300451829677208,-0.0323936234667492,0.2184546700193639,0.2183560764990978,-0.0065625230810534,-0.0364863113272195,-0.193447679132708,0.2389172491332221,0.0075078015946827,-0.0002381146914918,-0.0012536053767916,0.0072711231005342,-0.0002229394592256,-0.0012149941671964,0.2208870749186924
-0.0312601771349174,-0.033629982325026,0.2185885090062511,0.2184817155025836,-0.0068320026803304,-0.0363849038882534,0.0040191887954091,0.003045268437419,0.0075096868527771,-0.0002483419031206,-0.0012363588582768,0.0072753018329552,-0.000231903379905,-0.0012116172994788,0.2210023630326429
-0.0337008586900147,-0.0340333510491861,0.2173451466876647,0.217221733724426,-0.0073233316487154,-0.0089741127220083,-0.2378865238970838,0.8388805940856079,0.0074624256778572,-0.000254227860433,-0.0004033687241601,0.0072334475162247,-0.0002449380379448,-0.0002988379536428,0.2209683390585407
-0.0339996966436575,-0.035521049400967,0.2067998557894257,0.2066803391196268,-0.0070297778004252,-0.0351726416320915,-0.3166754023495193,-0.7867426099124084,0.0073246394261773,-0.0002528272373777,-0.0014876983517808,0.0068823169493801,-0.0002381128309705,-0.0011712489663486,0.2192652595426352
-0.0351709456100062,-0.0384327587918407,0.2128457606874055,0.2127141296421143,-0.0074844434127119,-0.0355117807469866,0.1815587056450379,-0.0101843578046583,0.0071825111349875,-0.0002626489233811,-0.0029117093908737,0.0070832318431224,-0.0002534105854459,-0.0011825422988746,0.2127813509859371
-0.0363534879088809,-0.040515409151765,0.2063180482467287,0.2061817307615066,-0.0074987287275318,-0.0331171315488288,-0.196027400620923,0.0719113873320675,0.007024657404899,-0.0002750852098334,-0.0020826503599243,0.0068657128945319,-0.0002534842200621,-0.0011028004805759,0.2127813509859371
-0.0374562883894569,-0.0420517722276128,0.2060345197348751,0.2058900061420409,-0.0077154839907185,-0.0334431395132801,-0.0085143697253339,-0.0097900289625033,0.0070364561049584,-0.0002907441798923,-0.0015363630758478,0.0068559930743421,-0.0002607340396832,-0.0011136565457922,0.2063121563410543
-0.038569944935249,-0.0432389037101885,0.2122658861754044,0.2121080180670918,-0.008185053786017,-0.0347558270581666,0.1871281213372152,-0.0394200463929866,0.0070706508030217,-0.0003009400584416,-0.0011871314825757,0.0070630380690331,-0.0002766400995178,-0.0011573690410369,0.2081327345910026
-0.0397273139762859,-0.04582439674867,0.2286525955865415,0.2284721827537807,-0.0090813642249137,0.005488635804159,0.4920933757098226,1.208542428298067,0.0074020351508087,-0.0003265350914972,-0.0025854930384814,0.007608151684775,-0.0003017039269661,0.0001827715722784,0.2081327345910026
-0.0395445424040072,-0.046659667742583,0.2177762307351572,0.2176059768644205,-0.0086096170701004,-0.0228037202807936,-0.3266175631046318,-0.8496203028514306,0.00747577543154,-0.0003455397986179,-0.0008352709939129,0.0072461698673037,-0.0002894417628912,-0.0007593638853504,0.2242957295019623
-0.0403039062893579,-0.0473941156742376,0.2244630381654692,0.2242807534175381,-0.0090442881939033,-0.0230044059334071,0.2008050279372955,-0.00602659617458,0.0074747144537556,-0.0003506977335753,-0.0007344479316546,0.0074684334099986,-0.0003040253581295,-0.0007660467175824,0.2199684165527884
-0.0410699530069402,-0.0477578574642888,0.2180463807244902,0.2178625126819896,-0.0089526373175319,-0.0109422475846677,-0.192692415645014,0.3622269774396214,0.0074772769296975,-0.0003551827398704,-0.0003637417900511,0.007254767599706,-0.000299434809862,-0.0003643768445694,0.2199684165527884
-0.0414343298515098,-0.0481338448746987,0.2182178570450759,0.2180305652315233,-0.0090391237499932,-0.0108887787042664,0.0051494390566293,0.0016056720841241,0.0074834562309112,-0.0003582708941909,-0.0003759874104098,0.0072603634981789,-0.0003023093564608,-0.000362596330852,0.2202391326070697
-0.041796926182362,-0.0485628599012071,0.2250078246843441,0.2248113108690983,-0.0094018973881972,-0.0114305541803147,0.2039029321101553,-0.0162695338152639,0.0074895411333653,-0.0003616704635613,-0.0004290150265084,0.0074861573082808,-0.0003144978809614,-0.0003806374542044,0.2205960847120288
-0.0421775636365664,-0.0492804585104475,0.2185387636374131,0.21834440802709,-0.009214699966291,-0.0205255707918501,-0.1942660975054366,-0.2731236219680323,0.0074973929786729,-0.0003665397861795,-0.0007175986092403,0.0072707637708798,-0.0003093245375651,-0.0006835015073686,0.2205960847120288
-0.0428610651439349,-0.0499763585678521,0.2186358168373791,0.2184350228306239,-0.0093680950642483,-0.0204154573608652,0.0029145105094887,0.0033067096391873,0.0074994768960355,-0.0003729974193712,-0.0006959000574046,0.0072737800827691,-0.000314420285498,-0.0006798347301168,0.2208528552446242
-0.0435408998740518,-0.0506022105416478,0.2251942209306428,0.2249807919285468,-0.0098020611997222,-0.0198831499340684,0.1969490718697813,0.015985208011915,0.0074954953385347,-0.000378245750591,-0.0006258519737956,0.0074917522068367,-0.00032887875847,-0.0006621088928044,0.2208528552446242
-0.0442030087668561,-0.0510145347356699,0.2183466949874214,0.2181334152612262,-0.0096484381328525,-0.0114875674354576,-0.2056314097063486,0.2521195945528764,0.0074837718889679,-0.0003782395126076,-0.0004123241940221,0.0072637815316671,-0.0003226725597984,-0.0003825359956007,0.2206788827093029
-0.044585544762457,-0.0514908794552367,0.2180261728405352,0.2178095048049363,-0.0097175953877165,-0.0107177646623898,-0.0096252896962819,0.0231172003924265,0.0074545386441832,-0.000378500715795,-0.0004763447195668,0.0072529990467378,-0.000324880484793,-0.0003569015632575,0.2203109445890552
-0.0449424463257144,-0.0526676536795734,0.2243610064633102,0.224134459784566,-0.0100799384080613,-0.0101385548101971,0.1902352439271783,0.0173936892550369,0.007392928293015,-0.0003812247450723,-0.0011767742243366,0.0074636211598024,-0.0003369118317212,-0.0003376138751795,0.2203109445890552
-0.045280060200894,-0.0533286013311106,0.2175629444377089,0.2173399496459684,-0.0098478972523841,-0.0032517836100666,-0.2041460067748152,0.2068099459498656,0.0074098902364886,-0.0003930745777526,-0.0006609476515372,0.0072374029952252,-0.0003283171003345,-0.0001082843942152,0.2174282895967059
-0.0453883445951093,-0.0534984627489369,0.217405548966562,0.2171816486245422,-0.0098642902521208,-0.005223740162779,-0.0047265907251322,-0.0592179144958686,0.0074521738514998,-0.0003974421083005,-0.0001698614178262,0.0072321207353425,-0.0003291001615873,-0.0001739505474205,0.2174282895967059
-0.0455622951425298,-0.0536411701801456,0.2241316127488466,0.223899013035598,-0.010208417854108,-0.0057741458297716,0.2019838973659048,-0.016528698708485,0.0074556809036488,-0.0003989076179612,-0.0001427074312087,0.007455804864293,-0.0003406470921901,-0.0001922790561313,0.2194852194502266
-0.0457545741986611,-0.0536806732367733,0.2176773437896752,0.217449531838951,-0.0099562594557145,-0.0012637793681476,-0.1938218906658068,0.1354464402890066,0.0074604986766247,-0.0003997253021318,-3.950305662762944e-05,0.0072410628775937,-0.000331686073559,-4.208385295931816e-05,0.2197589104455829
-0.0457966580516204,-0.053725112412445,0.2178406521692178,0.217612249802008,-0.0099728869249893,-0.0012368751524185,0.0049041555418196,0.0008079344062803,0.0074667239043333,-0.000400466482509,-4.443917567176214e-05,0.0072464815237062,-0.000332236628892,-4.118794257553793e-05,0.2199423271573002
-0.0458378459941961,-0.053829034640051,0.2246229100878944,0.2243869728922644,-0.0102926251559325,-0.0014238352249501,0.203671408969267,-0.0056144165925406,0.0074631361786127,-0.000400794352018,-0.0001039222276059,0.0074720785300145,-0.0003429115144619,-4.74137129908403e-05,0.2199423271573002
-0.045885259707187,-0.0540984820877788,0.2174123696071028,0.217183533557617,-0.00997252273013,-0.0053790298886581,-0.2165327471709185,-0.1187746145257659,0.0073511775722061,-0.0003964187096836,-0.0002694474477277,0.0072321823341802,-0.0003327230077804,-0.0001791216952923,0.2201332610927029
-0.0460643814024792,-0.0544486766317598,0.2066511761007101,0.2064319654879847,-0.009515892421323,-0.0091472731961045,-0.3231589641559371,-0.1131604596830736,0.0070881482474981,-0.0003841113815027,-0.0003501945439809,0.0068741365103782,-0.0003179169263125,-0.0003046041974302,0.2086952933579411
-0.0463689855999094,-0.054691612456813,0.2133000426338429,0.2130707773373611,-0.0098869627516177,-0.0114907553528602,0.1996656616556376,-0.0703748395422134,0.0070980495553036,-0.0003877699802282,-0.0002429358250531,0.0070951941667588,-0.0003305837875261,-0.0003826421532502,0.2086952933579411
-0.0467516277531596,-0.0547378123367715,0.2071503148555658,0.2069239703432226,-0.0096810868272713,-0.0019012600860746,-0.1846765098581704,0.2879728308344017,0.0070984781785961,-0.0003894084750565,-4.61998799585403e-05,0.0068905584361442,-0.0003225890576215,-6.331196086628577e-05,0.2091168373718313
-0.046814939714026,-0.0547436880761673,0.2071359827104539,0.2069090405573763,-0.0096935168567192,-0.0007093566650949,-0.0004303947481034,0.0357928955249145,0.0070947450931528,-0.0003898070880467,-5.8757393957761805e-06,0.0068900676714187,-0.0003228662278896,-2.362157694766332e-05,0.2090109621898307
-0.0468385612909738,-0.0546024773952994,0.213237463842842,0.2130036010096872,-0.0099840844864879,0.0004390864442638,0.1832276616332743,0.0344877810618282,0.0071108335854495,-0.0003868883164648,0.0001412106808678,0.0070930227907629,-0.0003324086244933,1.4621578593987384e-05,0.2090109621898307
-0.0468239397123797,-0.0539473724223912,0.2174517134396834,0.2172133775790675,-0.0101782257072458,-0.0082473623300916,0.1265540419471895,-0.2608543175482133,0.0071676844074352,-0.0003822603347519,0.0006551049729081,0.007233159297264,-0.000339918443642,-0.000274637165592,0.2088195136009343
-0.0470985768779717,-0.0554583175686101,0.217872860245285,0.2176312538503516,-0.0102577082716034,0.0015325879120121,0.0126470512192688,0.2936921994625757,0.0072227297768465,-0.0003873174757816,-0.0015109451462188,0.0072471299252572,-0.000341387015814,5.103517747000464e-05,0.2088195136009343
-0.0470475417005018,-0.0574792100745702,0.2242821923137705,0.2240340170118002,-0.0105480334957546,0.0036164824281415,0.1924724344890535,0.0625794148987809,0.0073016351581874,-0.0004104655941263,-0.00202089250596,0.0074603543702336,-0.0003507902678344,0.0001204288648571,0.2122386522799925
-0.0469271128356445,-0.0579064517853343,0.2177116462313318,0.2174719729418081,-0.0102128296546094,0.0030177545545755,-0.1973136961693296,-0.0179798160230038,0.0074191014577404,-0.0004299942505696,-0.0004272417107641,0.0072418342312609,-0.0003397136240653,0.0001004912266673,0.2182234991857581
-0.0468266216089774,-0.057955266030011,0.2174799107762171,0.2172415167089117,-0.0101801281545464,-0.001358537055404,-0.0069590226761189,-0.1314201684678539,0.0074528161083234,-0.0004308087513267,-4.8814244676710645e-05,0.0072341352917603,-0.0003391521781582,-4.523928394495336e-05,0.2182234991857581
-0.0468718608929221,-0.0578442863474791,0.2242194556417607,0.2239731988722784,-0.0105057353481956,-0.0015108654502288,0.2023887347010105,-0.0045744262710167,0.0074570966642756,-0.000431356686302,0.0001109796825319,0.007458299189179,-0.0003500185831954,-5.03118194926211e-05,0.2197033197360562
-0.0469221727124149,-0.0576337256381036,0.217776773762163,0.2175370792404497,-0.0102148101201461,0.0060066526530665,-0.1934739303182502,0.225751294393256,0.0074621120350815,-0.0004304833583208,0.0002105607093754,0.007244019165583,-0.0003394189620001,0.0002000215333471,0.2198069574182508
-0.0467221511790678,-0.0574200031650649,0.2179308426990418,0.2176930188750906,-0.0101784936294123,0.006361358155473,0.0046266948011652,0.0106518168890826,0.007468063185718,-0.0004294260142123,0.0002137224730387,0.0072492138286244,-0.00033816628375,0.0002118332265772,0.2198069574182508
-0.0465103179524906,-0.057054352637025,0.2247033487314293,0.2244603523114108,-0.0104472566425678,0.006687567950029,0.2033785595311567,0.0097960899266079,0.0074730269914918,-0.000428179500429,0.0003656505280398,0.0074745688739105,-0.0003470513232017,0.0002226960127359,0.2201623101996247
-0.0462876219397547,-0.0566167505078777,0.2182509802251177,0.2180172158090657,-0.0100987118033928,0.0131243234266203,-0.1937648200093587,0.1932959602579954,0.0074784172387157,-0.000425794255625,0.0004376021291473,0.0072600469906247,-0.0003346908853105,0.0004370399701064,0.2202778524854897
-0.0458505819696481,-0.056174279046804,0.2184100462088038,0.2181805073412435,-0.0100107193172812,0.0133235105688149,0.0047767562668495,0.0059815958617014,0.0074840398790171,-0.000423301520474,0.0004424714610737,0.0072654850526979,-0.0003317354442697,0.0004436729019415,0.2204429448386449
-0.0454069090677067,-0.0540587011560153,0.2251565267553355,0.2249244541891952,-0.0102201491289876,0.0136209653069229,0.2025970134093614,0.0089325747179574,0.0074766466877446,-0.0004168792951535,0.0021155778907886,0.0074900617061493,-0.0003386222407998,0.0004535781447205,0.2205808659161048
-0.0449533309229859,-0.0511287206589839,0.2185956852889055,0.2183748531860688,-0.0098232949100163,0.0845288733478496,-0.197022266259158,2.129366607835636,0.007466160865406,-0.0003948723307855,0.0029299804970314,0.0072723338185142,-0.0003168710316365,0.0028148114824833,0.2205808659161048
-0.0421385194405026,-0.0483325954283379,0.2184617736460609,0.2182678459935732,-0.0092029315931702,0.0863204244815811,-0.0040213706559955,0.0538003343462904,0.0074696518370936,-0.0003703195741821,0.0027961252306459,0.0072687501115961,-0.0002960011543774,0.0028744701352366,0.2199239098165521
-0.0392640493052658,-0.0459045008637292,0.2247927074682612,0.2246194521399549,-0.0088240042643795,0.0893755353619841,0.1901181327988083,0.0917450714835739,0.0074101800491461,-0.0003451789873732,0.0024280945646087,0.0074802543565477,-0.0002826981110398,0.002976205327554,0.2197910812624816
-0.0362878439777119,-0.0429315448221518,0.2059866194217504,0.2058510119283856,-0.0074731699338835,-0.002442823369284,-0.5647473887841087,-2.757308070008053,0.0071784189627589,-0.0003171371439043,0.0029729560415773,0.0068548289027526,-0.0002491261522644,-8.134601819715925e-05,0.2148277577787033
-0.0363691899959093,-0.0398620553952708,0.2064859038317504,0.2063493575748553,-0.0075080696360246,0.0928125170233857,0.0149935258258273,2.8605207325126063,0.0070160970435212,-0.0002914822153815,0.0030694894268809,0.0068718093502213,-0.0002393904717345,0.0030906568168787,0.2057428218625616
-0.0332785331790304,-0.0368775804300364,0.2121388447911381,0.2120213879073882,-0.0070583666059086,0.0957462915858307,0.1697579867683986,0.0881013382115605,0.007033520220984,-0.0002690779485234,0.0029844749652344,0.0070606752565653,-0.0002237783508819,0.0031883515098081,0.2069128311048497
-0.0300901816692222,-0.0339287511940035,0.2059347119566364,0.2058414903868014,-0.0061956778485631,0.0863368656657909,-0.1863102953303802,-0.2825653429441358,0.0070386651112656,-0.0002489173111225,0.0029488292360328,0.0068548090319666,-0.0001964531465127,0.0028750176266708,0.2069128311048497
-0.0272151640425515,-0.0309877053456269,0.2060465381966115,0.2059702371607876,-0.0056068981385955,0.0859704637220985,0.0033581453445952,-0.0110030613721451,0.0070449801696607,-0.0002286415190314,0.0029410458483766,0.0068590670240196,-0.0001768824853668,0.0028628164419458,0.207234226627916
-0.0214103222680832,-0.0300422953182275,0.2174537894375908,0.2174039507264019,-0.004655400017217,-0.0120127382178508,0.1501458830150082,-3.013869288366508,0.0073261646575543,-0.0002198885540515,0.0009454100273993,0.0072395205695725,-0.0001564630840471,-0.0004000241826544,0.2074120790955977
-0.0218103464507377,-0.0277338446459408,0.2180665730696101,0.2180147089493483,-0.0047557304438506,0.0762076640173904,0.0184019108714513,2.649261328385625,0.0074538334459185,-0.000216637781167,0.0023084506722867,0.0072600831597706,-0.0001491441344864,0.0025377152117791,0.2197644280955018
-0.0192726312389583,-0.0251068845031293,0.224829648923121,0.2247878954922277,-0.0043327906791331,0.0789325508066505,0.2030953709763018,0.0818284321099136,0.0074614826693968,-0.0001971386291582,0.0026269601428114,0.0074856181004864,-0.0001344341450683,0.0026284539418614,0.2194451457604349
-0.0166441772970968,-0.0227944865598866,0.2183889180316889,0.2183586687377782,-0.0036347360450205,0.067461557455412,-0.193415342085048,-0.3444742748119672,0.0074708053849457,-0.0001789434511972,0.0023123979432427,0.007271473657308,-0.0001128594115534,0.0022464698632652,0.2196334604067296
-0.0143977074338317,-0.020498213264539,0.2185479804018416,0.2185253289528699,-0.0031464811716842,0.0670221577755295,0.004776647752335,-0.0131951855820571,0.007477081278599,-0.0001621449739664,0.0022962732953476,0.0072770044663883,-9.664753566691484e-05,0.0022318378539251,0.2196334604067296
-0.0121658695799067,-0.018208927169438,0.225240916527088,0.2252242479608009,-0.0027401840183258,0.0695499213192432,0.2009890728302215,0.0759088151265363,0.0074814859437684,-0.0001462985169891,0.0022892860951009,0.0075000665290449,-8.255296097262596e-05,0.0023160123799307,0.2200412385114971
-0.0098498571999758,-0.0162723969819633,0.2185099913974404,0.2184993915976693,-0.0021522574097488,0.0581156551544599,-0.2021298837732019,-0.3433713562997978,0.0074869544517235,-0.0001318462514248,0.0019365301874747,0.0072760946352421,-6.461987676018278e-05,0.0019352513166435,0.2200412385114971
-0.0079146058833323,-0.014333733625459,0.2183116508786551,0.2183048132857834,-0.0017278326374556,0.0579822964884838,-0.0059561717352921,-0.0040047647440255,0.0074845430063601,-0.000119788216499,0.0019386633565043,0.0072696013797976,-5.050896069688658e-05,0.0019308104730665,0.2202328986272022
-0.0059837954102657,-0.0127459079184573,0.224670029369548,0.224666007135637,-0.0013443714678145,0.060509298177378,0.1909422970238102,0.0758859366034289,0.0074639740700932,-9.642757078860004e-05,0.0015878257070016,0.0074814181275808,-3.7220149435425066e-05,0.0020149596293066,0.218819663486307
-0.003968835780959,-0.0132170496312685,0.2177299958999427,0.2177282810980369,-0.0008641323297255,-0.0207855230613771,-0.2084094135016609,-2.4412859230857413,0.0074113354666632,-9.074739082750095e-05,-0.0004711417128111,0.007250341265055,-3.127505360807739e-05,-0.0006921579179438,0.218819663486307
-0.004660993698903,-0.0140898084810067,0.2174649362953455,0.2174625741017282,-0.0010135990277457,-0.0225655832499022,-0.0079597478858031,-0.0534552609166699,0.007458330182569,-0.0001004124574217,-0.0008727588497382,0.0072414904035969,-3.646386722182111e-05,-0.0007514339222217,0.2185521993431096
-0.0054124276211249,-0.0148034796582523,0.224038401245223,0.2240351197210152,-0.0012125857107491,-0.0228514115081392,0.1974013498461715,-0.0085834311782894,0.0074636850259951,-0.0001072060660929,-0.0007136711772455,0.0074603534615247,-4.320756465655975e-05,-0.000760952003221,0.2194982731718396
-0.0061733796243457,-0.01525443305252,0.2174995430142238,0.2174953985066058,-0.001342698718598,-0.0134166137557887,-0.1963621090390133,0.2833272598303459,0.0074668462554737,-0.0001114183587328,-0.0004509533942677,0.0072425866035551,-4.6320030678922216e-05,-0.0004467732380677,0.2194982731718396
-0.0066201528624136,-0.0157233101493996,0.2176510793728246,0.2176463099560077,-0.0014408728913459,-0.0135464373905841,0.0045506413994224,-0.0038986076515124,0.0074729501413559,-0.0001147226737702,-0.0004688770968795,0.0072476111203712,-4.960601252975369e-05,-0.0004510963651064,0.219684985743427
-0.0070712492275202,-0.0162054717375945,0.224430886083274,0.2244252750465983,-0.0015869935041464,-0.0143643986227363,0.2035977991125935,-0.024563400364932,0.0074792766403104,-0.000118389834122,-0.0004821615881949,0.0074733488082438,-5.462422040163104e-05,-0.0004783344741371,0.2200578832351666
-0.0075495837016572,-0.016697927200602,0.2180118249133566,0.2180056120185449,-0.0016458828851815,-0.0141901808829102,-0.1927645996972172,0.0052317639587417,0.0074856077099936,-0.0001222102456431,-0.0004924554630074,0.0072595737367468,-5.651333810065432e-05,-0.0004725330234009,0.2200578832351666
-0.008022116725058,-0.0172056620769149,0.2181895515913255,0.2181825309048555,-0.0017503232774246,-0.0146048802287043,0.0053371374765441,-0.0124534338076312,0.0074919370038419,-0.000126176938471,-0.0005077348763129,0.0072654638999997,-6.00427531942892e-05,-0.0004863425116158,0.220243297181655
-0.0085084592366739,-0.0177516461199219,0.2249825253120851,0.2249743816824041,-0.0019142315489457,-0.0154703987216387,0.2039932048276138,-0.0259915463343638,0.0074532520210408,-0.0001297972762521,-0.000545984043007,0.0074916302476196,-6.566355308277997e-05,-0.0005151642774305,0.2204285537855186
-0.0090236235141043,-0.0184832710250695,0.2062429503578822,0.2062345536681703,-0.0018610334802101,-0.0195048006347537,-0.5627499986247105,-0.1211532106040542,0.0071023318709101,-0.0001277012642924,-0.0007316249051475,0.0068675901147232,-6.419347054120141e-05,-0.0006495098611372,0.2204285537855186
-0.0096731333752417,-0.0193196270816483,0.2071245191483747,0.2071148289541241,-0.0020035118540604,-0.0241252843548884,0.0264735372520254,-0.1387532648689111,0.0071156728662484,-0.0001348009398447,-0.0008363560565787,0.0068968963564132,-6.94780653231349e-05,-0.0008033719690177,0.208412341697265
-0.0104765053442594,-0.0199910128502918,0.2134308117514401,0.2134190990782415,-0.0022359681371661,-0.0247428117604176,0.1893781562482108,-0.0185443665324088,0.0071120133090093,-0.0001407750666994,-0.0006713857686435,0.0071068246250129,-7.737597444876347e-05,-0.0008239356316219,0.2092271908393078
-0.0113004409758814,-0.0202910832405062,0.2069752208681088,0.2069620056443821,-0.0023388614873929,-0.0085937087470582,-0.1938615880880256,0.4849580484492324,0.007098890627639,-0.0001452989374798,-0.0003000703902143,0.0068918236558263,-7.88609434679302e-05,-0.000286170501277,0.2088529085170176
-0.0115866114771585,-0.0208279826826584,0.2066904372089224,0.2066765633134407,-0.0023947882079318,-0.0076414024069847,-0.0085520618374297,0.0285977879901933,0.007082411442765,-0.0001399473367461,-0.0005368994421522,0.0068823194463312,-8.061283064467817e-05,-0.0002544587001525,0.2088529085170176
-0.011841070177311,-0.0220825731997706,0.2126966492451903,0.2126817382205398,-0.002518497095753,-0.0070311126093239,0.1803667278158508,0.0183270209507756,0.0070259707536503,-0.0001416253039798,-0.0012545905171121,0.0070822921138415,-8.468554471537698e-05,-0.0002341360498904,0.2083615524463488
-0.0120752062272018,-0.0245291296565785,0.2174956375735923,0.2174797811809665,-0.0026262408538373,-0.0281885978094366,0.1441137636156758,-0.6353599159193001,0.0071836924579951,-0.0001655350568144,-0.0024465564568078,0.0072420347263192,-9.084307113727272e-05,-0.0009386803070542,0.2115739834878743
-0.0130138865342557,-0.025926233287073,0.2176951030486498,0.2176766687522294,-0.0028329794024061,-0.0140731244281567,0.005989954205931,0.4238880895279234,0.0074052777201019,-0.0001879134616766,-0.0013971036304945,0.0072486108281012,-9.60269499134653e-05,-0.0004686350434576,0.2115739834878743
-0.0134825215777136,-0.0263035896371129,0.224106037182164,0.2240856686736125,-0.003021422941831,-0.019004979874814,0.1925205445499761,-0.1481037671668848,0.0074634667984844,-0.0001948043166739,-0.0003773563500398,0.0074620205697256,-0.0001029645870051,-0.0006328658298313,0.2196512943233058
-0.0141153874075445,-0.026369841928357,0.2175916240824921,0.2175699475120437,-0.0030712880788206,-0.0022230854253773,-0.1956280210111675,0.5039607942773778,0.0074665202743376,-0.0001957264426136,-6.625229124416697e-05,0.0072450755977439,-0.0001025323273082,-7.40287446650667e-05,0.2196754259996279
-0.01418941615221,-0.0264444765024845,0.2177463654586202,0.217724445350885,-0.0030895901165841,-0.0019901713938583,0.0046468881720154,0.0069944153609324,0.0074728584503791,-0.0001964620208668,-7.463457412743707e-05,0.007250220754294,-0.0001031138521896,-6.62727074154823e-05,0.2196754259996279
-0.0142556888596252,-0.0266724546988841,0.2245314161443043,0.2245086013697869,-0.0032007415935875,-0.0023180815941865,0.2037552758463704,-0.0098471531630086,0.0074804130711614,-0.0001975064007561,-0.0002279781963995,0.0074761324480755,-0.0001068631961288,-7.719211708641095e-05,0.2200519852412996
-0.0143328809767115,-0.027052453172417,0.2181074352105225,0.2180850325277544,-0.0031260008766134,-0.0106551072547011,-0.1929123403538085,-0.250361130946386,0.0074881145848809,-0.0002003795778348,-0.0003799984735329,0.0072622131050458,-0.0001053744408817,-0.0003548150715815,0.2200519852412996
-0.0146876960482931,-0.0274435109029714,0.2182859601821362,0.2182624153632887,-0.0032060025608885,-0.0111622666789096,0.0053611102586702,-0.0152300127389943,0.0074942539852765,-0.0002035828693783,-0.0003910577305544,0.0072681185680208,-0.000108100910321,-0.0003717034804076,0.2204947572682582
-0.0150593995287011,-0.0277124842437578,0.2250760572100742,0.2250505356977252,-0.0033893821560191,-0.0118127685736601,0.2039068176557952,-0.0195345914339466,0.0074987832210348,-0.0002066913025019,-0.0002689733407863,0.0074941606002741,-0.0001143303257393,-0.0003933651935028,0.2204947572682582
-0.015452764722204,-0.0278780628071034,0.2186017064149118,0.2185756072089551,-0.0033778663010688,-0.0049852292556293,-0.1944249488036755,0.2050312107516731,0.0075014156240942,-0.0002090253331169,-0.0001655785633456,0.0072785585020721,-0.0001130773153424,-0.0001660081342124,0.2206689263792248
-0.0156187728564165,-0.0280311300763584,0.2186486063062229,0.2186219376147509,-0.0034148840720617,-0.0045907457716926,0.0014084051444757,0.0118463508689708,0.0074988804645129,-0.0002105162548306,-0.0001530672692549,0.0072801019558361,-0.0001142623163125,-0.0001528718341973,0.2206922951036697
-0.0157716446906137,-0.0281967526640678,0.2251322330049369,0.2251042333518791,-0.0035505583859446,-0.0042308966931196,0.1947035044658874,0.010806278635827,0.0074902529663418,-0.0002130249086126,-0.0001656225877094,0.0074959627765345,-0.0001187515683768,-0.0001408888598808,0.2206922951036697
-0.0159125335504946,-0.0286254135062454,0.2182286671438604,0.2182010390256679,-0.0034724244419169,-0.0038398716641007,-0.207314290122417,0.0117424933639304,0.0074694406610481,-0.0002044285923222,-0.0004286608421775,0.0072660873430027,-0.0001160865171713,-0.0001278677264145,0.2201042818718367
-0.0160404012769093,-0.0295373773310455,0.2179605742790095,0.2179325348546558,-0.003496025151489,-0.0030522344413681,-0.0080508367823112,0.0236527694514302,0.0073983306758133,-0.0002113175839676,-0.0009119638248,0.0072571476388144,-0.0001167766898137,-0.0001016394068975,0.2201042818718367
-0.0161420406838068,-0.0302737679770569,0.2242270591131252,0.2241978468320867,-0.0036193251273062,-0.0025151721516385,0.1881827277512225,0.016127996688576,0.0072755255206586,-0.0002153176270092,-0.0007363906460114,0.0074657834059442,-0.0001208261416867,-8.375523264956277e-05,0.2182289149493888
-0.0162257959164562,-0.030570621546996,0.2064878652244871,0.2064606841244557,-0.0033502829474064,-0.0247348944046276,-0.5327085251843271,-0.6672589265161905,0.0070599605690223,-0.0002150638451813,-0.000296853569939,0.0068750942114592,-0.0001143865993798,-0.0008236719836741,0.2079825835768975
-0.0170494679001302,-0.0305985483307188,0.2059689124889898,0.2059389772438345,-0.0035114902335902,-0.0010360268830901,-0.0155841662311482,0.7116777033494748,0.0070662248864403,-0.0002150241119984,-2.7926783722761334e-05,0.0068577660811044,-0.0001170417030726,-3.4499695206902106e-05,0.2078756792401959
-0.0170839675953371,-0.0306113878244708,0.2123029457198894,0.212271964897674,-0.0036268002182358,-0.0008697692464912,0.1902112081351221,0.0049927218197863,0.0070715568549994,-0.0002156319633878,-1.2839493752022507e-05,0.0070686548435738,-0.0001208653125596,-2.896331590815925e-05,0.2078756792401959
-0.0171129309112454,-0.0306252650348672,0.2062199394201736,0.2061897441545363,-0.0035288553309723,-0.0001570330516251,-0.1826728618533276,0.0214034893353195,0.0070774755768244,-0.000215863890658,-1.3877210396428393e-05,0.0068661183310302,-0.0001175196063074,-5.229200619116803e-06,0.2082040216993459
-0.0171181601118646,-0.0306499176056202,0.20638829947442,0.2063580610860819,-0.0035328154120755,-0.0004168354606526,0.0050558574848766,-0.0078018741449718,0.0070835593007135,-0.000216235995522,-2.465257075299349e-05,0.0068717227756441,-0.000117681209203,-1.3880620839734629e-05,0.2082040216993459
-0.0171320407327044,-0.0312184442976268,0.212820360471644,0.2127891291219585,-0.0036458687303524,-0.0007516322275351,0.1931549849016204,-0.0100539569634364,0.0073366517212515,-0.0002252837580293,-0.0005685266920066,0.0070858766429363,-0.0001214865824639,-2.502935317691968e-05,0.2085630663696838
-0.0171570700858811,-0.0314095970772499,0.2181280321678171,0.2180959283203731,-0.0037422543311434,-0.0244301011997624,0.1593895404256212,-0.7110651343011221,0.007491488569134,-0.0002346002613702,-0.0001911527796231,0.0072625430940522,-0.0001275614356645,-0.000813522369952,0.2206134268938281
-0.0179705924558333,-0.0314691978378361,0.2183953614444954,0.2183600978550129,-0.0039244827966244,-0.0020009894659401,0.0080279062065531,0.6735468989135849,0.0074951763123037,-0.000235298839895,-5.960076058613568e-05,0.007271387075184,-0.0001309177611013,-6.663294921580576e-05,0.2205044274273326
-0.0180372254050489,-0.0315579230260572,0.2251644159281483,0.2251277892567316,-0.0040611211063946,-0.0017254382114215,0.2032749094190057,0.0082748124480042,0.00749954834679,-0.0002366895413833,-8.872518822108932e-05,0.0074967516750545,-0.0001354406276991,-5.7457092440338366e-05,0.2206572624336912
-0.0180946824974892,-0.0316374674921288,0.2186434180721456,0.2186076252043025,-0.0039560673409653,-0.0025435024275835,-0.195825761441522,-0.0245664929778361,0.0074983663798378,-0.0002379226950855,-7.954446607164045e-05,0.0072796285090939,-0.0001320355456868,-8.469863083853113e-05,0.2206572624336912
-0.0181793811283279,-0.0317138542083027,0.2185977976620376,0.2185616764749124,-0.0039737537881574,-0.0020971519754389,-0.0013699822855238,0.013403917481819,0.0074904115149759,-0.0002394963845913,-7.638671617393039e-05,0.0072780993783817,-0.0001325703527423,-6.983516078211683e-05,0.2205537976301798
-0.0182492162891101,-0.0319351907044523,0.2249840955632277,0.2249466329380907,-0.0041055555311636,-0.0015905192531497,0.191780717753455,0.0152141958645403,0.0074758834344518,-0.0002335447046136,-0.0002213364961495,0.0074907194368401,-0.0001369033016932,-5.2964291129886654e-05,0.219241408032678
-0.0182953976825519,-0.0326714126930888,0.2177789256976857,0.2177424790616717,-0.0039841297814714,0.000765248206438,-0.0084421525964962,0.016863591146464,0.0074054536060034,-0.0002340649055962,-0.0007362219886365,0.0072508264205726,-0.0001325693907471,2.54827652743872e-05,0.219241408032678
-0.0182699149172775,-0.0331373284610656,0.2240600451899941,0.2240226517523032,-0.0040933302344737,0.0008091097623588,0.1886222069762254,0.0013171638414661,0.0074208157398927,-0.000243170125994,-0.0004659157679768,0.0074599563218068,-0.0001361973722014,2.6943355086550545e-05,0.2175134677785206
-0.018242971562191,-0.0304865554208812,0.2175490053047393,0.2175128055003436,-0.0039685201840478,0.0917073367157092,-0.1955267232809235,2.729676485085597,0.0074220559687072,-0.0002373605417156,0.0026507730401844,0.0072433671134668,-0.0001210819871466,0.0030538543126331,0.2194396348008382
-0.0151891172495579,-0.0273236490192217,0.2174793928358533,0.2174543060607968,-0.003303192980847,0.0922169605218675,-0.0020904645311122,0.0153040182029513,0.0074308519863783,-0.0002143139777363,0.0031629064016595,0.0072413860335543,-9.886815758315252e-05,0.0030708247853781,0.2194396348008382
-0.0121182924641796,-0.0241763513506383,0.2242350539460944,0.2242185893510238,-0.0027172794565215,0.0948177450335541,0.2028727060132484,0.0781016369875853,0.0074373679735139,-0.0001914752622002,0.0031472976685833,0.0074666095757365,-7.868778407962127e-05,0.0031574309096173,0.2187117216189379
-0.0089608615545624,-0.021307831723452,0.217816314693076,0.2178075697489474,-0.0019517957194751,0.0838977719816722,-0.1927549325230756,-0.3279271186751329,0.0074467207373829,-0.000169205970584,0.0028685196271863,0.007253073502122,-5.4853281641059376e-05,0.0027937958069896,0.2187117216189379
-0.0061670657475727,-0.0184466769878722,0.2180002380720302,0.2179960925163489,-0.0013444132791944,0.0834578446939044,0.0055232245932176,-0.0132110296626975,0.0074536635891482,-0.0001480936927596,0.0028611547355798,0.00725932279243,-3.467186796886097e-05,0.002779146228307,0.2191583469815895
-0.0033879195192656,-0.0156288476877841,0.2247919764801212,0.2247906864003518,-0.0007615756679952,0.0857087258203019,0.2039561083510826,0.0675940278197451,0.0074527385126283,-0.0001270840214238,0.002817829300088,0.007485555904781,-1.4668154147085547e-05,0.002854100569816,0.2195367430613165
-0.0005338189494494,-0.0158044914107293,0.2067578790926637,0.2067578496335257,-0.0001103712685657,-0.0342527810220717,-0.5415644861098351,-3.602447652924133,0.0071554528477348,-0.0001095335738192,-0.0001756437229451,0.0068850328140006,-7.592705117496488e-06,-0.0011406176080349,0.2195367430613165
-0.0016744365574847,-0.0133120696016748,0.2069810800027958,0.2069807898425261,-0.0003465765251126,0.0735231231413172,0.0067027300339957,3.236513638540208,0.0070819196903391,-0.0001044221459959,0.0024924218090544,0.0068924675480656,-3.094252999246932e-06,0.0024483200006058,0.2089330659426695
0.0007738834431214,-0.0108175884142355,0.21342367347126,0.2134236095620155,0.0001651650307834,0.0763678163874507,0.1934712753292571,0.0854262236076129,0.0070860387915083,-8.644642971940286e-05,0.0024944811874392,0.0071069915252196,1.4546266787891898e-05,0.0025430482857021,0.2083613029218476
0.0033169317288233,-0.0086548476193604,0.207094381722602,0.2070932424937153,0.0006869166660148,0.0650852261680125,-0.1900688212810213,-0.338816523106253,0.0070917908538521,-7.142674483300027e-05,0.002162740794875,0.0068961747470737,3.035677655162508e-05,0.0021673380313948,0.2083613029218476
0.0054842697602182,-0.0065005381989397,0.2069309216787534,0.206927809733663,0.0011348593072957,0.064729128191573,-0.0049087100254833,-0.0106936329261089,0.0070905430209999,-5.811281314499484e-05,0.0021543094204207,0.0068906499388922,4.522642278672866e-05,0.0021554799687793,0.2086239158207525
0.0076397497289977,-0.0045671554762101,0.2129758443761057,0.2129696291561307,0.0016270663217495,0.0666608572600659,0.1815292101306995,0.0580098819367216,0.0070790671143488,-4.2736336099004346e-05,0.0019333827227295,0.0070918226072437,6.20621029222626e-05,0.0022198065467601,0.2079993643513357
0.0098595562757579,-0.0036213610328027,0.2176697458667095,0.2176591660219137,0.0021460923379317,-0.0312799403962495,0.140958002720835,-2.941165094784248,0.0070522530348451,-1.6020487401097183e-05,0.0009457944434074,0.0072480860465745,6.769973966173818e-05,-0.0010416220151951,0.2079993643513357
0.0088179342605627,-0.0034032925893151,0.2178073822180872,0.217798914361403,0.0019205862881319,0.0684439853718297,0.0041332237650944,2.994712485527907,0.0071807880852179,-2.278293141910054e-05,0.0002180684434876,0.0072526245887187,7.223033814732232e-05,0.0022791847128819,0.2075468377362764
0.0110971189734447,-0.0020023156058072,0.2242113203454334,0.2241975151179278,0.0024880486307727,0.0720624342732808,0.1923104542746611,0.1086621291727045,0.0073801598500267,-2.138569109290389e-05,0.0014009769835078,0.0074656705557164,9.181970444174404e-05,0.0023996790613002,0.2181266200876779
0.0134967980347449,0.0001765863145385,0.2174145639458142,0.2173947617412436,0.0029343113700625,0.063367557953267,-0.2041067987873629,-0.2611073969974121,0.0074423344067013,-5.858548464396374e-06,0.0021789019203458,0.0072391369584847,0.0001053601326403,0.0021101396798437,0.2181266200876779
0.0156069377145886,0.0023554461137018,0.2175607846808302,0.2175342888708898,0.0033953197750464,0.0635927816707808,0.0043910130635433,0.0067634750004155,0.0074474298325097,9.710768437899696e-06,0.0021788597991633,0.0072437665285257,0.0001207437732613,0.002117639629637,0.2190650849243086
0.0177245773442256,0.0043899080225848,0.2243300388145107,0.224294801902519,0.0039759469349634,0.0652642579692963,0.203280904915329,0.0501944834389045,0.007454668100743,2.586834809190086e-05,0.002034461908883,0.0074688669635017,0.0001405251704219,0.0021732997903775,0.2192544152073252
0.019897877134603,0.0061342438877448,0.217908009901473,0.2178648736542666,0.004335620697307,0.0513526170334213,-0.1928537211122423,-0.4177669950713221,0.0074638011273862,3.9703588523398725e-05,0.0017443358651599,0.0072547731098091,0.0001505889407019,0.0017100421472129,0.2192544152073252
0.0216079192818159,0.0078661304940415,0.2180912768350299,0.2180403651701469,0.0047121320018305,0.0506948467162084,0.0055035115182264,-0.0197528623787665,0.0074700768028443,5.25926812180999e-05,0.0017318866062966,0.0072606080461598,0.0001630522487386,0.0016881383956497,0.2195496407303677
0.0232960576774656,0.0094783207906179,0.224884304691133,0.2248232843860474,0.005238443880087,0.0518284446059321,0.2039948305136052,0.0340419786703821,0.0074771121071202,6.530657482110153e-05,0.0016121902965764,0.0074864608781965,0.0001809106819615,0.0017258872053775,0.219925128709289
0.0250219448828432,0.0109051537075379,0.2184373923973065,0.2183690143877318,0.0054651580640857,0.0421112220004398,-0.1936009697845792,-0.2918084866514198,0.0074845654671227,7.641189624379985e-05,0.00142683291692,0.0072715579419707,0.0001870980339258,0.0014023036926146,0.219925128709289
0.0264242485754579,0.0123020883248163,0.2185799490517837,0.2185036427603829,0.0057751387795744,0.0413870707941891,0.004280980614932,-0.0217462824699915,0.0074887882370586,8.699407187039848e-05,0.0013969346172783,0.0072760362140509,0.0001973358102769,0.0013781894574464,0.2202917963497807
0.0278024380329044,0.0137735396937245,0.2251920483449151,0.225105019976129,0.0062600814152206,0.0422869882942597,0.1985615403342751,0.0270245495516687,0.007490571019985,9.470200931770144e-05,0.0014714513689081,0.007495847627966,0.0002137484854511,0.0014081567101988,0.2204283793662028
0.0292105947431036,0.0153631018032491,0.2184613231577179,0.2183681277564865,0.0063804777209599,0.0474853105343462,-0.202123879495412,0.1561057729755709,0.007485454833136,0.0001041833961048,0.0015895621095245,0.007271487345526,0.0002182287860918,0.0015812608407937,0.2204283793662028
0.0307918555838973,0.0169573518332641,0.2182324152491531,0.2181289661599411,0.0067187191840464,0.0478810284427615,-0.0068741113683125,0.0118834206731316,0.0074704695193117,0.0001081270824922,0.001594250030015,0.0072635128224956,0.0002295337714936,0.0015944382471439,0.2201921371494705
0.032386293831041,0.0187910301752335,0.2245758764463567,0.2244581110628015,0.0072719089493999,0.0500448273326041,0.1904943302463554,0.0649789456409198,0.0074042051824321,0.0001303749425442,0.0018336783419693,0.0074742495305053,0.0002483925628119,0.0016664927501757,0.2178447460034922
0.034052786581217,0.0204868973899564,0.2175971292763829,0.2174709794923118,0.0074083566313591,0.037208635782679,-0.2095719870863,-0.3854712177154689,0.0074098141628193,0.0001477665306659,0.0016958672147229,0.0072416285910766,0.0002511944023837,0.0012390475715632,0.2178447460034922
0.0352918341527801,0.0218274330896756,0.2173639077958634,0.2172285569981007,0.0076695786593204,0.0390047190336465,-0.00700364806365,0.053936433962989,0.0074463386636791,0.0001594675449477,0.0013405356997191,0.0072335427024719,0.000260104397641,0.0012988571438204,0.2189480479276627
0.0365906912966003,0.0225636981173905,0.2239886418260011,0.2238387117456809,0.0081940704836216,0.0408919399059277,0.1989409618659967,0.056673299467902,0.0073154773204893,0.0001649423959384,0.0007362650277148,0.0074536406453899,0.0002779474255057,0.0013617015988673,0.2190757317639516
0.0379523928954679,0.0226544819369286,0.2065940054313816,0.2064452359267446,0.0078388547207159,-0.037174561832299,-0.5223614532918767,-2.344339391538342,0.0070730687718107,0.0001583439500239,9.078381953811844e-05,0.0068747858239942,0.0002567879417208,-0.0012379129090155,0.2086596451390864
0.0367144799864522,0.0238109628952391,0.2062573328010061,0.2061183358160538,0.0075709295734051,0.0329606986024639,-0.0101102892004649,2.1061639770199108,0.0070664523988233,0.0001647614916545,0.0011564809583105,0.0068636005026988,0.0002558879196145,0.001097591263462,0.2078693007948084
0.0378120712499141,0.0250406484503224,0.2126191942968872,0.2124672159688179,0.0080376564941005,0.0346087242004068,0.1910468917682006,0.0494902581964843,0.007071899291585,0.000173019144246,0.0012296855550832,0.0070750021287148,0.000271740366317,0.0011524705158735,0.2078693007948084
0.0389645417657877,0.026309770864327,0.2065454071731584,0.206388634723139,0.0080459108523852,0.0371739771440893,-0.1823960097215831,0.0770346229334064,0.0070775006144214,0.0001820627455919,0.0012691224140046,0.006872573581524,0.000272191860269,0.0012378934388981,0.2080547370225262
0.0402024352046859,0.0275658887300333,0.2067191256400936,0.2065520947133633,0.0083083737835151,0.0369022219618961,0.0052167707788332,-0.0081608162820779,0.0070835454211279,0.0001910369292835,0.0012561178657063,0.0068780126539348,0.0002809041291714,0.0012288439913311,0.2083858334556472
0.0414312791960171,0.0295014507287713,0.2131611970321939,0.2129782721792319,0.0088290146532218,0.0376374938920841,0.193455597360369,0.0220802381437849,0.0072553180925269,0.0002060219954041,0.0019355619987379,0.0070919899625119,0.000298460055941,0.0012533285466064,0.2083858334556472
0.0426846077426237,0.0331242498032675,0.2182181711679652,0.2180194072425573,0.0093117288134548,0.1056441557322677,0.1518610851582973,2.04224209730281,0.0074669005895933,0.0002328901726518,0.0036227990744961,0.0072594854287635,0.0003228599150545,0.0035179503858845,0.2197450814564889
0.0462025581285079,0.0367505648023669,0.2186411429206083,0.2184078203892294,0.0100981864934246,0.1054787996598095,0.0127018544337286,-0.0049656478215683,0.0074681712346271,0.000257818461887,0.0036263149990993,0.0072723744315731,0.0003490516483582,0.0035124440286716,0.2198118378818428
0.0497150021571797,0.0401825105617932,0.2252439270902504,0.2249656300620386,0.0111933900954121,0.1080823285750533,0.1982818068961593,0.0781840515088242,0.0074721830339135,0.0002832528513665,0.0034319457594263,0.0074906680172743,0.000386230363022,0.0035991415415492,0.2198118378818428
0.0533141436987292,0.0433978443907384,0.2183434529610573,0.2180332169679252,0.0116352803823148,0.0956454281915293,-0.2072214453211154,-0.3734804919977186,0.0074680645727802,0.0003064072098917,0.0032153338289452,0.0072598762935213,0.0003990262591854,0.0031849927587779,0.21979198700438
0.0564991364575071,0.0466453516520435,0.2180952329476096,0.2177472289230072,0.0123156376539583,0.0956164030192256,-0.0074540544578899,-0.0008716267959061,0.0074225089543962,0.0003316622252192,0.003247507261305,0.0072503170035305,0.0004216634354623,0.0031840262205402,0.2188693441102933
0.0596831626780471,0.0502073551841554,0.2243751522784342,0.2239756497770686,0.0133834699129354,0.0974502930723505,0.1885861660908283,0.0550717733671148,0.007365486908252,0.0003598712624157,0.0035620035321119,0.0074576523127225,0.0004577803684351,0.0032450947593092,0.2170868565349837
0.0629282574373566,0.0531304767951216,0.2175154825966811,0.2170849477875223,0.0136788381581109,0.0808334985124954,-0.2059960865391308,-0.4990028396352902,0.0074154367029604,0.0003853121692521,0.0029231216109662,0.0072283063523431,0.0004652437242532,0.002691755500466,0.2176076158175646
0.0656200129378223,0.0560039038920173,0.2173714147312024,0.2169035834952881,0.0142536805473876,0.0830145257633501,-0.0043263623266864,0.0654963138394809,0.007423845512787,0.0004055070814521,0.0028734270968956,0.0072222234261167,0.0004846400771101,0.0027643837079195,0.2185908219501018
0.068384396645742,0.0608369199983901,0.2240500423026369,0.2235263697382126,0.0153095880894704,0.0862873671050972,0.2005593865295629,0.09828352377619,0.0074083440644043,0.0004313620740761,0.0048330161063728,0.0074426847355597,0.0005205124367895,0.0028733693245997,0.2185908219501018
0.0712577659703419,0.0660764921654215,0.2176583688163466,0.2171060040039113,0.0154967267913706,0.1517608459788348,-0.1919421467354452,1.9661705367488744,0.0074095925133856,0.0004701304621273,0.0052395721670314,0.007228294503063,0.0005343164415277,0.0050536361710951,0.2182849523297815
0.076311402141437,0.0713077580866841,0.2177650241313808,0.2171312620789262,0.0166018301085615,0.1526880112219782,0.0032028623133402,0.0278428000943972,0.007413678668672,0.0005093642127857,0.0052312659212625,0.0072290336456908,0.0005712299410322,0.0050845107736918,0.2184773593057751
0.0866265918893889,0.074483030485007,0.1954603374985865,0.1947274125523911,0.0169108939950615,-0.0480721908360757,-0.8737520749361527,-6.160649775091753,0.0070758221720821,0.0005207371183621,0.0031752723983228,0.0064848700511093,0.0005579511017101,-0.0016008039548413,0.2186776101584612
0.0850257879345477,0.0780327907249841,0.2066608022388288,0.2059142369567495,0.017550333344865,0.1449159654074779,0.3363502924997664,5.795440127434044,0.0069322409040881,0.0005257789728128,0.0035497602399771,0.0068555065393002,0.0006009777972759,0.004825701648069,0.2003304928428401
0.089851489582617,0.0830469001079279,0.2132621704889142,0.2124018858065343,0.0191361508007915,0.1504742377842322,0.1982392867893519,0.1669150863890204,0.0070352227300831,0.0005666149555004,0.0050141093829438,0.0070713557992208,0.0006549612454047,0.0050107921182149,0.2003304928428401
0.0948622817008315,0.0875407778117832,0.2182269908097473,0.2172458306674442,0.0206704759376673,0.1264324931047173,0.1490937033283227,-0.7219743147001477,0.0073326158634481,0.0006264674525429,0.0044938777038552,0.0072328148479753,0.0007035634170212,0.004210202020387,0.2076746519185542
0.0990724837212186,0.0918331623840158,0.2185889933505573,0.2175171060210493,0.0216207447197724,0.1248199883126146,0.0108709471714717,-0.048423567330411,0.0074341632984433,0.0006657940150242,0.0042923845722325,0.0072418015068504,0.0007350318870267,0.00415650561081,0.2195753934493103
0.1032289893320288,0.0961479698643416,0.2250718400153874,0.2238736965578146,0.0231926962091881,0.1259535936353875,0.1946800800249269,0.0340422018850717,0.0074366830315437,0.0006985914444769,0.0043148074803257,0.0074533515343285,0.0007879585859572,0.0041942546680584,0.2195753934493103
0.1074232440000875,0.0994627831438621,0.218189564402637,0.216931847700649,0.0233935774817559,0.098923550612238,-0.2066749433258369,-0.8117130036981848,0.0074295787700968,0.0007292254752412,0.0033148132795205,0.0072225333185722,0.0007909126238479,0.0032941542353875,0.2196546013410125
0.110717398235475,0.1027695576683744,0.2178480280082877,0.2165141635790964,0.0240703194150804,0.0970503244152853,-0.0102563481786578,-0.0562530389475271,0.0074060278972079,0.0007489795386693,0.0033067745245123,0.0072086128033949,0.0008132003449568,0.003231775803029,0.2186754085519642
0.1139491740385039,0.1065632462907051,0.2243255428565312,0.2228707501257473,0.0255064289202563,0.1016231080763142,0.1945199654127158,0.13732083066153,0.0073549082535846,0.0007755788025866,0.0037936886223306,0.0074201435119593,0.000861929947002,0.0033840494989412,0.2186754085519642
0.1159546761680112,0.1110901012065319,0.1944718547275679,0.1931659345494746,0.022499422454996,0.1000185732817264,0.6512740219906541,4.246738504013354,0.0066423746576649,0.0007280920068895,0.0030588219896302,0.0064311650068303,0.0007599499942564,0.0033306184902814,0.2167154024257539
0.1192852946582929,0.114883883194723,0.2004305794330072,0.1990063079573405,0.0238517623046848,0.1120294725868495,0.1789406818450245,0.3606876668205134,0.0066144699391557,0.0007502318932418,0.003793781988191,0.0066254120685072,0.0008066318467373,0.003730581437142,0.1943700130800313
0.1230158760954349,0.1202208810627075,0.2180718141910634,0.2164238638464444,0.0267586864841563,0.073218709719962,0.5297668095512366,-1.165488374381006,0.0070318362837196,0.0008297208634204,0.0053369978679845,0.0072058200277699,0.0008998589461713,0.0024381830336747,0.2126638570476499
0.1254540591291095,0.1233301132710192,0.2178285472360799,0.2161166229354955,0.0272558485822389,0.0838531932882268,-0.0073053139634701,0.3193538609088543,0.0073754828222689,0.0009040678134406,0.0031092322083116,0.0071954057806275,0.0009176759332603,0.0027923113364979,0.2126638570476499
0.1282463704656073,0.1262848119859077,0.2245790024711592,0.222734692155354,0.0287225566654605,0.0875235484336416,0.2027163734258049,0.1102208752376801,0.0073629570613904,0.0009244219808481,0.0029546987148885,0.0074156596296569,0.0009672783871856,0.0029145341628402,0.219104374519937
0.1311609046284476,0.1288056845005588,0.2068072763048667,0.2050309533309051,0.0270473235063599,0.0662366242133359,-0.5336854704592324,-0.6392469735827517,0.0070262752340541,0.0009001405234714,0.0025208725146511,0.0068265306884431,0.0009082139871492,0.002205679586304,0.2193120226668363
0.1333665842147517,0.1314856092957046,0.2068498582393124,0.2050130007105936,0.0275051521221348,0.0779089779370445,0.0012787367701411,0.3505211328441022,0.0070152983364106,0.0009175608004559,0.0026799247951457,0.006825735903748,0.0009247854987573,0.0025943689653035,0.2081371907535608
0.1359609531800556,0.1343400550929458,0.2132506432820524,0.2112826679781455,0.0289045164679474,0.0796267740613288,0.1922157670492475,0.0515854691977262,0.0069814082340469,0.0009333373896101,0.0028544457972412,0.0070344271978623,0.0009718565676964,0.0026515715762422,0.2081371907535608
0.1386125247562977,0.1369508023123445,0.19500856111265,0.1931381668501481,0.0269441535957337,0.0460518084724755,-0.5478102753574278,-1.0082572248904895,0.0066858175284856,0.0009106191108797,0.0026107472193987,0.0064308092525299,0.0009021800398439,0.0015335252221334,0.1974833015574532
0.1401460499784312,0.1390093597066497,0.1954997085376383,0.1935829522476027,0.02730891131854,0.0580483327099639,0.0147491719215711,0.3602559831077586,0.0066333843540034,0.0009199954965573,0.0020585573943052,0.0064454281384169,0.0009156252329719,0.0019330094792417,0.1970601503197253
0.1420790594576728,0.1406431632673597,0.2012844245002657,0.1992562298806757,0.0285021823750821,0.0586364341965963,0.1737151940728929,0.0176607053042784,0.0066454103488799,0.0009356341150099,0.00163380356071,0.0066343003294119,0.0009556089397859,0.0019525932587466,0.1970601503197253
0.1440316527164196,0.1405966422115712,0.2058025276285539,0.2036715167032187,0.0295396963781313,0.0426944480100892,0.1356787726212666,-0.4787383239191327,0.0068488436151423,0.0009730390796573,-4.652105578850652e-05,0.0067815586374027,0.0009885019276708,0.0014217251187359,0.1965966172902664
0.1454533778351554,0.1420257344170361,0.2064928685897351,0.2043123647121522,0.0299292900708671,0.0469317649889013,0.0207309597952329,0.1272467561204832,0.0069821002243937,0.0009909809398578,0.0014290922054648,0.0068028188363104,0.0010019705247334,0.0015628277741304,0.1965966172902664
0.1470162056092858,0.143283301343594,0.2125551605956904,0.2102622363417342,0.0311366065015513,0.0489197013280838,0.1820508109896483,0.0596977879634373,0.0069371045548647,0.0010014391837421,0.0012575669265578,0.0070008834453327,0.0010425609484478,0.0016290260542251,0.2079629073120888
0.1486452316635111,0.1436334898536649,0.1945300512201307,0.1923848953052317,0.0288095971180039,0.0379396991878391,-0.5412945758426346,-0.3297297940013429,0.0066828857071925,0.0009662501587316,0.0003501885100709,0.006405807991,0.0009634148459002,0.001263391982955,0.198410483266319
0.1499086236464664,0.1453385506984489,0.1947134426549195,0.1925296786125676,0.0290800206993061,0.0442018445793538,0.0055072502939594,0.1880524141596028,0.0065821291695689,0.0009578665351158,0.0017050608447839,0.0064105219966433,0.0009730913742826,0.0014719214244924,0.198410483266319
0.1513805450709586,0.1475075868368045,0.2004844349967517,0.1981916608501777,0.0302336608007513,0.0486326622418743,0.1733030733282944,0.1330575874630774,0.0066656790907639,0.0009817392851819,0.0021690361383556,0.0065989628367433,0.0010121333996857,0.0016194676526544,0.1959740639500018
0.1530000127236133,0.1509567327936724,0.2179720973047216,0.2154258154468683,0.0332197718606078,0.0244355858956151,0.5251550242633599,-0.7266389293170936,0.0071435581821841,0.0010758018401419,0.0034491459568678,0.0071732273043094,0.0011091465513826,0.0008137050103239,0.1959740639500018
0.1538137177339371,0.1522605322447082,0.2178269435213613,0.215255272942621,0.0333728151982423,0.0360265251864466,-0.0043589724732831,0.3480762549799267,0.0073767988817099,0.0011281499159074,0.0013037994510358,0.0071673307573536,0.0011156237774668,0.0011996832887086,0.2195318383060699
0.155013401022646,0.15346300799074,0.2245486239057921,0.2218561650607979,0.0346688119568709,0.0386518582868786,0.2018522637967224,0.0788388318448038,0.0072514872674509,0.0011181460302125,0.0012024757460317,0.0073870637346779,0.0011592354980095,0.001287106880953,0.2197095935320731
0.156300507903599,0.1539820258630553,0.2066987340703981,0.2041790605386202,0.0321757347060113,0.0068974899810064,-0.5360327277896115,-0.9535846338099772,0.0070046760891306,0.0010850004934904,0.0005190178723153,0.00679903816604,0.0010722419321399,0.0002296864163675,0.2197095935320731
0.1565301943199664,0.1546732611038124,0.2068103709265343,0.2042819368235195,0.0322400342804139,0.0201858258605079,0.0033524581422287,0.3990491255105577,0.0070091400369254,0.00109011758516,0.0006912352407571,0.0068022257097131,0.0010758885122653,0.0006721880011549,0.2085181759499913
0.1572023823211212,0.1558850769133493,0.2131774186234585,0.2105487557750048,0.0333741404767025,0.0196642319271779,0.1912026335412689,-0.0156634814813818,0.0068962077206096,0.0010786219077277,0.0012118158095369,0.007010907700046,0.0011136637786291,0.000654818923175,0.2087613350228679
0.1578572012442962,0.1563720370894105,0.1949678531995595,0.1925437015824829,0.0306494169954462,-0.0034726291925467,-0.5468337965134854,-0.6948006342259685,0.006642119844207,0.001044017369396,0.0004869601760612,0.0064117628889683,0.0010202634811944,-0.0001156385521118,0.2087613350228679
0.1577415626921845,0.156674123133317,0.1955014361432953,0.1930742028343195,0.0307109709059,0.0099585924363893,0.0160235118239,0.4033399888569401,0.0066226509748228,0.001047306457409,0.0003020860439064,0.006429199890211,0.0010237500111518,0.0003316211281317,0.1972349182011208
0.1580731838203162,0.1558784937270241,0.2013220701646974,0.1988120726559079,0.0316912559180184,0.0081588437470465,0.1747938144565193,-0.0540465071874708,0.0066776299169237,0.0010553236141127,-0.0007956294062929,0.0066202971588669,0.0010562270593213,0.0002716894967766,0.1966469237459394
0.1583448733170929,0.1542704085703971,0.2057971737840004,0.2032225735221767,0.0324509221518517,-0.0092511757888103,0.1343874960751653,-0.5228234094851921,0.0069022501609634,0.001080150549636,-0.0016080851566269,0.0067674765897304,0.0010795824032697,-0.0003080641537673,0.1966469237459394
0.1580368091633257,0.1540950146996937,0.2065266693873212,0.2039529655851809,0.0325031228842687,-0.0046109755188893,0.0219067748744961,0.13934535345108,0.0069976064171091,0.0010867095031588,-0.0001753938707033,0.0067917153685505,0.0010818417038041,-0.000153545484779,0.2047595919773291
0.1578832636785465,0.1524268149975112,0.2125916971684067,0.2099475467106751,0.0334253995505282,-0.0044108761512033,0.1821329663989656,0.0060089900206006,0.0068705322646724,0.0010688345506268,-0.0016681997021825,0.0069913335297661,0.0011125617524226,-0.000146882175835,0.207750136053548
0.1574643193400242,0.1390387622851593,0.1605883042164858,0.1586015200514295,0.025182559212729,0.0252509970132734,-0.3460472235251494,1.0036345924568284,0.0060642135653155,0.000868026207198,-0.0061659167806178,0.0052810763021846,0.000840806687947,0.000840858200542,0.1827975403878776
0.1583051775405661,0.1371795351357258,0.1654382587163821,0.1633695991173825,0.0260804818079398,0.025795516226068,0.1456442792761637,0.0163519283121499,0.0060001158366993,0.00083165434698,-0.0018592271494334,0.0054398328030534,0.0008708237924862,0.000858990690328,0.1727549980294457
0.1588932594312777,0.1424357867924177,0.2179967809928753,0.2152506761198402,0.0344926507129748,-0.0002505794453614,0.3662417081186618,0.2367813796553252,0.0071784964587853,0.0010231273485676,0.0025790860502372,0.0071678507631156,0.0011485849972507,-8.344295530537948e-06,0.2090699967677749
0.1588849151357472,0.1428303250843426,0.2245570534342485,0.2217286052971883,0.035528802963731,0.0018505461398089,0.1970051784196162,0.0630968644195342,0.0071490631094996,0.0010273954352778,0.0003945382919249,0.007383524507787,0.0011833465610311,6.162318645563936e-05,0.2199944519545926
0.1589465383222026,0.1435090258210014,0.2067802808510175,0.2041737267365967,0.0327287925123304,0.0151826944717073,-0.5338370145114435,0.4003648147717221,0.0070145094353659,0.0010116007082457,0.0006787007366588,0.006798707833573,0.0010915966100534,0.0005055837259078,0.2084940934669326
0.1594521220481106,0.1441947544947464,0.2067269298918332,0.2041044793260782,0.0328235443170512,0.0203402687378658,-0.0016021309064336,0.1548821100948506,0.0070190178678939,0.0010164933508012,0.0006857286737449,0.0067963070002085,0.0010953348771911,0.0006773309489709,0.2085359685446284
0.1601294529970816,0.1451190462236796,0.2131147274887489,0.210388276378295,0.0339802918641653,0.0199823633970301,0.1918257536611324,-0.0107479081332045,0.0067921970209119,0.0009895709211877,0.0009242917289332,0.0070055510906413,0.0011338839685158,0.0006654127011211,0.2085359685446284
0.1607948656982025,0.1450582158118015,0.1951683739879094,0.1926507673332927,0.0312470166732441,-0.0071513055999152,-0.538929534559744,-0.814824894803166,0.0066362409722837,0.0009689297576481,-6.0830411878126656e-05,0.0064153929886711,0.001039770406572,-0.0002381384764771,0.1970133284705443
0.1605567272217252,0.1449543742040307,0.1954889629957566,0.1929746687185984,0.0312523900862559,-0.00094682801263,0.0096272975329482,0.1863206482668221,0.0066374757112355,0.0009698940101513,-0.0001038416077707,0.0064260714750278,0.0010406119218451,-3.1529372820582324e-05,0.1973198271158074
0.1604199037532629,0.1433832181698356,0.2182223780726017,0.2154204677752114,0.0348572568509142,0.1924995705191505,0.5059279110234133,5.8757223835813965,0.0067348595556266,0.000983581095256,-0.0015711560341951,0.0071697305410772,0.0011837401793907,0.0064102356982877,0.1972574502077452
0.1668301394515507,0.1427583419385344,0.2182464808001279,0.21521636824172,0.0362414296418475,0.1922617175214045,0.0007238056314167,-0.0071427326650461,0.0068442773357473,0.0009869342242595,-0.0006248762313011,0.0071627911789864,0.0012297826635212,0.0064023151934627,0.2015843310315451
0.1732324546450132,0.1451288255635317,0.2247244547142486,0.2213609463891658,0.0387351514816871,0.1997843192782311,0.1945337511747972,0.2259039566614583,0.0070370395675516,0.0010192414795937,0.0023704836249972,0.0073669727182095,0.0013144008633872,0.006652817831965,0.2057296854190592
0.1798852724769784,0.1504580790561973,0.2063802367544236,0.2030501318822002,0.0369248705540461,0.2112763149571444,-0.5508774162109608,0.3451049753427423,0.0071059666674222,0.0010604082001526,0.0053292534926655,0.0067571865242339,0.0012533825445579,0.0070355012880729,0.2057296854190592
0.1869207737650513,0.1570074117403801,0.2063781829350558,0.2027833057116236,0.0383521227084178,0.2135779804820642,-6.167625729372253e-05,0.0691190848324267,0.0070019398379383,0.0010832169299689,0.0065493326841827,0.0067480838699703,0.0013011369280457,0.0071121467500527,0.210159026720812
0.1940329205151041,0.1646700503850534,0.2123887871707228,0.2084032262846318,0.0409523160518079,0.2246101195500089,0.180498625695707,0.3312954675058485,0.006895865458748,0.0011171749725353,0.0076626386446733,0.0069346609314846,0.001389661887556,0.0074795169810153,0.210159026720812
0.2156352428298156,0.1887753223889826,0.1836403963231485,0.1793874077228728,0.039293168772585,0.1876886248809509,-0.5149283703493068,-1.041476653132389,0.0061683886440255,0.0011560242044036,0.0067798573315064,0.0059694710500347,0.0013271295592068,0.0062500312085356,0.1947809473672452
0.2218852740383514,0.1952759570056531,0.1836830206523701,0.1791799014703737,0.0404229512164337,0.1894489005704139,0.0012800098865341,0.0528611318157071,0.0061307608837219,0.0011905098283435,0.0065006346166704,0.0059624033343446,0.0013649041749113,0.0063086483889947,0.1835696292261871
0.234670260536232,0.2050330159981724,0.1720222406796763,0.1673072944353638,0.0399990064523477,-0.0055539980375614,-0.5211106476193238,-6.007165943904756,0.0060071415177875,0.001240364282491,0.0034661337430807,0.005571454255801,0.0013314591917264,-0.0001849481346507,0.1838548603744801
0.2344853124015813,0.2118219595599036,0.1722686322031077,0.1675543381017969,0.0400253097976559,0.1985100535079444,0.0073991448477896,6.128049595961137,0.0057464859491613,0.0012102242979109,0.0067889435617312,0.0055751117216351,0.0013512820528703,0.0066103847818145,0.1721108612987354
0.2478179164317691,0.2274387218012246,0.1605980115078554,0.155691737545079,0.039392945567341,0.20292523911009,-0.5091014879323017,0.0317355319214128,0.0054495510082683,0.0012347237734499,0.0087127067972461,0.0051800614988866,0.001329299014783,0.0067574104623659,0.1718993063722562
0.2545753268941353,0.2342240131859232,0.1608723449760853,0.1556874824286186,0.0405131977649651,0.1973813392228884,0.0082382422891882,-0.1664834800961419,0.0053166742266037,0.0012482271082027,0.0067852913846986,0.0051799203689688,0.0013661246585234,0.0065727985961221,0.1600857148581105
0.2678221555540068,0.2467517987914373,0.14942960202914,0.1441023634813199,0.0395438339274876,0.1672387579747465,-0.484423046534405,-0.9964734312602584,0.0049412207824297,0.001227259265095,0.0058505173929582,0.0047949154315054,0.0013301711206092,0.005569050640559,0.1490650161666346
0.2733912061945656,0.2524496469913621,0.1492595490764144,0.1437161710683448,0.0402998159294655,0.1657915784548988,-0.0051066952770449,-0.0434588444398712,0.0049133295122651,0.0012513627740178,0.0056978481999248,0.0047820179208315,0.0013551941695635,0.0055208595625481,0.1490650161666346
0.2910267509087005,0.2689223968912498,0.1378210142572661,0.132025608737832,0.039545803927932,0.1563601014714734,-0.3321561673813438,-1.054871768722516,0.0045921009265956,0.0012561191451707,0.0044322136986488,0.0043930027808883,0.001328320905295,0.005206791379,0.1481405616130731
0.2962335422877005,0.2745127730308159,0.1418508433384586,0.1356722141769394,0.0414090818077221,0.1629325373617207,0.1210158883240993,0.1973704471545738,0.0045271008063838,0.0012580680221829,0.005590376139566,0.0045141199278346,0.0013911779344633,0.0054256534941453,0.1378045686789102
0.3016591957818457,0.280969810946533,0.1373869057184551,0.1311831791742851,0.0408183214331394,0.1977539353102493,-0.1340521807808848,1.045687626081942,0.0043821534008983,0.0012504388706225,0.0064570379157171,0.0043638909929675,0.0013736294996611,0.0065852060458313,0.1378045686789102
0.3082444018276771,0.2866974161614666,0.1262778305804083,0.12032606123684,0.0383109577447828,0.1620207321774717,-0.3336058600014051,-1.0730691631464748,0.0040980582226486,0.0011931717989302,0.0057276052149335,0.0040033951449439,0.0012865631388444,0.0053952903815098,0.1355094401845235
0.3136396922091871,0.2921093187976195,0.1297986817985471,0.1234667055458687,0.0400458539463229,0.1713632543118008,0.1057312678119752,0.2805562202501213,0.0040977354325155,0.0012201797111288,0.0054119026361528,0.0041076123668783,0.0013452559449703,0.0057063963685829,0.125561419240105
0.3193460885777699,0.2971799671133747,0.1260212159530165,0.1196496984311351,0.039563828626856,0.1478162968356629,-0.1134374127786974,-0.7071158401242591,0.004095003393989,0.001242180535969,0.0050706483157552,0.0039810745976802,0.0013272815155448,0.0049222826846275,0.125561419240105
0.3242683712623977,0.302261463775275,0.126072375438464,0.1195019986457931,0.0401685967934887,0.1478151770836561,0.0015363208843087,-3.3626186391578326e-05,0.0040905085916096,0.001263140923699,0.0050814966619002,0.0039761066485364,0.0013474080285237,0.0049222453968857,0.1259158105598898
0.3342682917206607,0.3121672314001363,0.1147715080377943,0.1084189762167745,0.0376540124472276,0.1313495596503699,-0.4558369778525723,-0.634629877643619,0.0037104272469514,0.0011860467534669,0.0046476040712766,0.003607596509581,0.001261775184525,0.0043739403363573,0.1259801242802815
0.3386422320570181,0.3167584167519158,0.114738659636204,0.1082222604097944,0.0381169564224023,0.1341963216832489,-0.0009864384861953,0.0854883493357067,0.0037055832146843,0.0012040274707623,0.0045911853517795,0.0036009514928458,0.001277347471712,0.0044687375120521,0.1145315167971634
0.3431109695690706,0.3210007584225498,0.1182257497406374,0.1113346825446239,0.039773312213388,0.1371833889996675,0.1047174205535536,0.0897017212137708,0.0037039718066804,0.0012214608613315,0.0042423416706339,0.0037044050639567,0.0013329198419735,0.0045682068536889,0.1146091568821471
0.3476791764227593,0.3249264095150264,0.1147172587723242,0.1078532648901932,0.0390860935981356,0.1156329612719915,-0.1053600891385331,-0.6471599918220999,0.0036995361374763,0.0012368400152095,0.0039256510924766,0.0035889971978809,0.0013084832168243,0.0038505776103573,0.1146091568821471
0.3515297540331166,0.3287968264148274,0.1146917846277027,0.1076780453329419,0.0394923285507991,0.1136170123120375,-0.0007649893279723,-0.0605390078064271,0.0036937159379168,0.0012541908679884,0.0038704168998009,0.0035831807864631,0.0013218793232983,0.0037834465099908,0.1147520399227079
0.3553132005431076,0.3320268920585493,0.1181503543889645,0.1107703970158032,0.041102620198708,0.1153638797943634,0.1038609537916447,0.0524584829527293,0.0036829735973042,0.0012646575936468,0.0032300656437219,0.0036860142579893,0.0013758040302163,0.0038416171971523,0.1143651805953912
0.3591548177402597,0.3347392947106695,0.1146479496263942,0.1073327483831762,0.0402968172198501,0.0904601296223132,-0.1051773201973066,-0.7478603655270316,0.0036681550982089,0.0012695365410662,0.0027124026521201,0.0035721522129227,0.0013472700729538,0.003012322316423,0.1143651805953912
0.362167140056683,0.337725556015909,0.1145433461813228,0.1071130566470463,0.0405828935654053,0.0875356925011349,-0.0031412445967376,-0.0878209345699199,0.0036862773888497,0.0012892587970863,0.0029862613052395,0.0035648882741289,0.0013566118254695,0.0029149385602877,0.1138265161425284
0.2053852880408837,0.1053859684105034,1.2640504519777505e-06,1.237483246145265e-06,2.577959671037017e-07,2.904948489965017e-06,-0.4706293477314927,6.51506122270219,0.0005254330404875,6.737580203459992e-05,-0.0182288825847509,4.120818014046351e-08,8.584663047470117e-09,9.673478471583508e-08,0.0165827514238949
0.2053853847756683,0.095924181982104,1.2544808140828249e-06,1.2281147135584806e-06,2.558444121787266e-07,2.1601649198128408e-06,-2.873765133611299e-07,-2.2365872977542827e-05,0.0004960551273192,5.3758549733010086e-05,-0.0094617864283993,4.0896208200931466e-08,8.51967537140768e-09,7.19334918297676e-08,0.0148299339996095
0.2053854567091604,0.092165936189799,-0.0001404862666152,-0.0001375335888446,-2.8651405672201744e-05,-0.0017695040583829,-0.0042564789017816,-0.0532031298289113,0.0003216235809986,3.3260900702589136e-05,-0.003758245792305,-4.579895333399674e-06,-9.539630307109989e-07,-5.892448514415171e-05,0.010853450385224
0.2053265322240163,0.0914541151713262,-0.0001364830738884,-0.000133616173369,-2.782710319552944e-05,-0.0034283744728661,0.0001202159978023,-0.0498159283628591,0.0001781493318477,1.5322661562205964e-05,-0.0007118210184727,-4.449470213426439e-06,-9.263945310263412e-07,-0.0001141648699464,0.0022942874751265
0.1907653919129743,0.1000615288396622,0.1105882981761067,0.1085821596982277,0.0209686978316742,-0.3320188582279171,0.8366579694503806,-3.45657461458096,0.0011505467624004,0.0001163602267982,0.0055087904369807,0.0036195713495707,0.0006782600037819,-0.0110562279789896,0.0232576418416608
0.1797091639339845,0.1100266952444969,0.1376946316443461,0.1354771586640113,0.024612010563919,-0.2961471450062756,0.8140040080552381,1.0772286252745211,0.0014433638655719,0.00015352081755,0.0099651664048346,0.0045153563808002,0.0007973279323226,-0.0098616999287089,0.0401269177204088
0.1698474640052758,0.1237842492039883,0.1376953281713793,0.1357139697619362,0.0232749180810609,-0.2961424005034749,2.091672772340368e-05,0.0001424775615806,0.0018400201610233,0.0002167083284923,0.0137575539594913,0.0045230225183573,0.0007527649586153,-0.0098615419367657,0.0507342277738945
0.1599859220685102,0.1403681404984396,0.1418673295828926,0.1400556165600857,0.0226000768351635,-0.3051076412133918,0.1252853276730713,-0.2692264477452519,0.0023360335235376,0.0003094419720742,0.0165838912944512,0.0046675939310198,0.0007288835228279,-0.0101600844524059,0.0648795316390901
0.1516832187319226,0.1662025709871544,0.1146374612576858,0.1133212100095204,0.0173219769537309,0.0554567842885262,-0.0008003149222731,-0.0096224143155352,0.0030797493781982,0.0005000802586824,0.0108597478136688,0.003773060757047,0.0005803109455977,0.0018467109168079,0.077920237224747
0.1535299296487302,0.1742062775608004,0.1181366737722354,0.1167470808336867,0.0180663445882162,0.0574615003925696,0.10508145689338,0.0602016848061056,0.0035084581013671,0.0006009615041007,0.008003706573646,0.0038870990259462,0.0006053336044129,0.0019134679630725,0.0993816425921669
0.155443397611803,0.1796342410037063,0.1147025922328548,0.113319621000684,0.0177580449711639,0.1478901707576576,-0.1031255717531703,2.71557568663928,0.0038032448904807,0.0006801426720263,0.0054279634429058,0.0037720712158525,0.0006006374233501,0.00492474268623,0.1122716532188241
0.1603681402980328,0.1848819398707059,0.1144133101525158,0.1129452232032222,0.0182697043115121,0.1535454649302546,-0.0086871495597285,0.1698286538317408,0.0038189060634015,0.0007031455912266,0.0052476988669996,0.0037595033716822,0.000617998845642,0.0051130639821774,0.1141732968585101
0.1654812042802103,0.1838612390982773,0.1180348900246607,0.116422439260858,0.0194435310498266,0.1575191109815046,0.1087561523166619,0.1193287102477477,0.0038111487644045,0.0007167771004849,-0.0010207007724286,0.0038751504552674,0.0006576396332344,0.0052453863956841,0.114269029108916
0.1408461162678742,0.1642052813194382,0.0138367031444208,0.0136996861887893,0.0019424088744437,-0.1729553465133747,-0.7492559565436929,3.9862780715523134,0.0012104071865879,0.0002062316726662,-0.005143127402768,0.0004563832081169,6.336875413689073e-05,-0.0057594130388953,0.0812286925605707
0.1350867032289788,0.1620214647652048,0.0002566876219371,0.0002543491099309,3.4569719887283994e-05,0.0020395976121156,-0.4078082739484588,5.255103427191903,0.0002562340761325,4.355863487140455e-05,-0.0021838165542334,8.469784713583383e-06,1.1514706844565174e-06,6.7918600483452e-05,0.0202128238015736
0.1351546218294625,0.1620759547900326,3.526533821191397e-05,3.494373626899097e-05,4.751775958931982e-06,0.0016901785538875,-0.0066493178295859,-0.010493064811656,-6.847693492240126e-07,1.2945544962950084e-06,5.449002482788012e-05,1.163621751483006e-06,1.5826844946432285e-07,5.628294584445471e-05,1.2598996249809816e-05
0.1352109047753069,0.1621296100396463,2.45965402667236e-05,2.437204576028824e-05,3.31559625874006e-06,0.0016336514659801,-0.0003203843226783,-0.0016975101473689,2.94166158099074e-08,9.451800890986072e-07,5.365524961362112e-05,8.115859718248945e-07,1.104325216335135e-07,5.440059381713879e-05,1.2598996249809816e-05
0.1352653053691241,0.1621841903739806,2.693843918159637e-05,2.6692372401013863e-05,3.632734664981704e-06,0.0016545472995441,7.032729474092396e-05,0.0006275025094282,1.150272370686878e-07,9.225377268079482e-07,5.458033433436427e-05,8.888525053722698e-07,1.2099574533262066e-07,5.509642507481872e-05,1.4458525216104069e-05
0.1353204017941989,0.1622393557999863,3.0030910105418663e-05,2.9756372251094893e-05,4.051403733770098e-06,0.0017203255915465,9.286699470937818e-05,0.0019753240841579,1.957398381158271e-07,9.330026309040118e-07,5.5165426005671085e-05,9.90883149719424e-07,1.3494145844853506e-07,5.728684219850066e-05,1.6808942561056887e-05
0.1353776886363973,0.1622950311300319,3.115081948610541e-05,3.086580279853166e-05,4.204256445327688e-06,0.0016829274858492,3.363091233293537e-05,-0.0011230662371572,2.689562310642657e-07,9.442762635009094e-07,5.567533004557923e-05,1.0278271214922351e-06,1.4003192159175521e-07,5.60414852787794e-05,1.6808942561056887e-05
0.1354337301216759,0.1623511745078672,3.293475185049775e-05,3.2633163787066426e-05,4.446852898439608e-06,0.0016947799537572,5.357154247424433e-05,0.0003559299672083,3.349706867439295e-07,9.538866961866788e-07,5.614337783529933e-05,1.0866799759242184e-06,1.481123261386998e-07,5.643617246011701e-05,2.1076620279492835e-05
0.1354901662941361,0.1624077461042042,3.5616236470912e-05,3.5289822230598895e-05,4.810898802162597e-06,0.0017575004262246,8.05250636761036e-05,0.001883497671692,3.943761535118995e-07,9.624116473067046e-07,5.657159633698505e-05,1.1751461763221544e-06,1.6023889718519174e-07,5.852476419327956e-05,2.459966488783861e-05
0.1355486910583296,0.1624647092917048,3.60397181128977e-05,3.5709137799579364e-05,4.870190886174612e-06,0.0017159296615161,1.2717166425996994e-05,-0.0012483713125658,4.476108683704183e-07,9.700441993970577e-07,5.696318750067486e-05,1.1891094366143772e-06,1.6221292790403689e-07,5.714045772848841e-05,2.459966488783861e-05
0.1356058315160577,0.1625220311662996,3.734466583258998e-05,3.700182724744933e-05,5.048647987107941e-06,0.0017250904412625,3.91876192099784e-05,0.0002750984908825,4.955041608134536e-07,9.76911310707207e-07,5.73218745947568e-05,1.2321557917842596e-06,1.6815702500523384e-07,5.744551169404311e-05,2.606600837003989e-05
0.1356632770277519,0.1625796821250655,3.971142618297563e-05,3.9346551347947406e-05,5.370872043649903e-06,0.0017861865824097,7.10738843959655e-05,0.0018347189533706,5.386960073572311e-07,9.83105583399202e-07,5.7650958765864686e-05,1.310234599677129e-06,1.7889076650942976e-07,5.948001319424634e-05,2.862957064557292e-05
0.1357227570409462,0.1626376355004402,3.9628330545537645e-05,3.926390034577605e-05,5.361968991271701e-06,0.0017415462992081,-2.4953644876271486e-06,-0.0013405490450954,5.776459781614562e-07,9.886921811946836e-07,5.795337537478629e-05,1.3074824632737155e-06,1.785932375139795e-07,5.799349176363045e-05,2.862957064557292e-05
0.1357807505327097,0.1626958672317119,4.05956061485754e-05,4.0221962068287686e-05,5.4951802470418624e-06,0.0017487300364488,2.904731540653912e-05,0.0002157278450661,6.127588623172642e-07,9.937282051952767e-07,5.823173127167403e-05,1.3393857621300255e-06,1.8303030050725401e-07,5.8232710213745874e-05,3.069319957653519e-05
0.1358389832429236,0.1627543554160449,4.273961194982049e-05,4.234589735671004e-05,5.78786719579978e-06,0.0018086699603479,6.438455859594862e-05,0.0017999977146899,6.44340987232539e-07,9.982565938038146e-07,5.84881843330165e-05,1.410112317903042e-06,1.9278033756012826e-07,6.022870967958838e-05,3.069319957653519e-05
0.1358992119526032,0.1628130800341317,4.228489995867719e-05,4.189502918056689e-05,5.7288126583775455e-06,0.00176171841663,-1.3655014749047902e-05,-0.0014099562678073,6.728231585206856e-07,1.0023600809094813e-06,5.872461808681395e-05,1.395098618687558e-06,1.908122585466699e-07,5.866522327377943e-05,3.160839494505977e-05
0.1359578771758771,0.1628720230960598,4.300103408517109e-05,4.260421863541222e-05,5.828334827379027e-06,0.0017674153861327,2.150552932414091e-05,0.0001710801652477,6.985239133783239e-07,1.0060510372972289e-06,5.894306192805177e-05,1.4187145074384696e-06,1.941272057983955e-07,5.885493235822104e-05,3.313858663244335e-05
0.136016732108235,0.1629311688785186,4.498276521879896e-05,4.456730335421058e-05,6.09956051395167e-06,0.0018265218377337,5.951144545429039e-05,0.0017749685165462,7.217046444907282e-07,1.0093772424002443e-06,5.91457824588304e-05,1.4840847506616971e-06,2.031624932341373e-07,6.0823177196533966e-05,3.313858663244335e-05
0.1360775552854316,0.1629905031921959,4.4256740915139325e-05,4.3847619540003753e-05,6.003780234556151e-06,0.0017778270880838,-2.180253164143032e-05,-0.0014623047942925,7.426132309085176e-07,1.012376940598414e-06,5.933431367724507e-05,1.460119543090227e-06,1.999710650762401e-07,5.920164203319089e-05,3.440898463065041e-05
0.1361367569274651,0.1630500132801273,4.479000565897354e-05,4.437559484504942e-05,6.0787489731773564e-06,0.0017824595822678,1.6013956271297872e-05,0.0001391139394609,7.615094115287491e-07,1.015088139794118e-06,5.951008793142477e-05,1.477701027867727e-06,2.024681821066425e-07,5.9355904089519744e-05,3.440898463065041e-05
0.1361961128315543,0.1631096877023398,4.6655762030635336e-05,4.622371274802208e-05,6.334706816231894e-06,0.001841019790902,5.602871986972348e-05,0.0017585648238502,7.7861091885012e-07,1.0175428102054962e-06,5.9674422212469e-05,1.539242883844391e-06,2.1099498824428653e-07,6.130595903703906e-05,3.4948520373949455e-05
0.1362574187905916,0.1631695160774786,4.573030657126195e-05,4.53064466048771e-05,6.211830256939114e-06,0.0017910217134961,-2.779145523643796e-05,-0.001501443765945,7.939957518132701e-07,1.019749627892419e-06,5.982837513887617e-05,1.5086982244748657e-06,2.069009655357577e-07,5.9641023059420205e-05,3.4948520373949455e-05
0.1363170598136509,0.1632294890471763,4.612961713209503e-05,4.570168228433731e-05,6.268796785282169e-06,0.0017948744143731,1.1991308133125515e-05,0.0001156967230344,8.078781972287175e-07,1.0217402929002528e-06,5.9972969697619234e-05,1.5218595000792154e-06,2.087984587133126e-07,5.976931799862584e-05,3.5886177714330144e-05
0.1363768291316494,0.1632895981825294,4.7906779141239975e-05,4.746196873051899e-05,6.513141477872399e-06,0.0018530725081007,5.336822850285116e-05,0.0017476905023298,8.204036787695657e-07,1.0235357092019948e-06,6.0109135353148e-05,1.5804765743746468e-06,2.1693849900082418e-07,6.170731451975442e-05,3.6650293643706704e-05
0.1364385364461693,0.1633498358915163,4.683226017598352e-05,4.6397033601132906e-05,6.369918853985085e-06,0.0018020721586596,-3.226783679448829e-05,-0.0015315420252584,8.317056723328164e-07,1.0251550277007304e-06,6.023770898685999e-05,1.5450145683266711e-06,2.1216673186633066e-07,6.000900288336553e-05,3.6650293643706704e-05
0.1364985454490526,0.1634101952895932,4.713183036789962e-05,4.669343501357182e-05,6.413467117075566e-06,0.0018053490006005,8.996101859342585e-06,9.840366188991777e-05,8.419033430406841e-07,1.0266167217026778e-06,6.035939807694235e-05,1.5548846782386226e-06,2.136172832781369e-07,6.0118121719998646e-05,3.726648590114662e-05
0.1365586635707725,0.1634706701039996,4.88449610102492e-05,4.839023135345543e-05,6.649490631004959e-06,0.0018633175984783,5.144536463512235e-05,0.00174079873507,8.510996050148378e-07,1.0279329547002725e-06,6.0474814406380486e-05,1.6113875357225309e-06,2.214801959348847e-07,6.204847602933051e-05,3.7538960811958815e-05
0.1366207120468021,0.1635312547884296,4.7659921890123e-05,4.721582186510018e-05,6.491095452676133e-06,0.0018115353881509,-3.558676036415021e-05,-0.0015550213311547,8.593984621718675e-07,1.0291200104040057e-06,6.058468442998733e-05,1.572280056934885e-06,2.1620301507265065e-07,6.032412842542634e-05,3.7538960811958815e-05
0.1366810361752275,0.1635919443555857,4.788567253648772e-05,4.743907543312205e-05,6.524703542866177e-06,0.0018143848418009,6.779298689631435e-06,8.556917867898545e-05,8.66888774098129e-07,1.0301903186904493e-06,6.0689567156102526e-05,1.5797143551734435e-06,2.1732247365030922e-07,6.041901523197168e-05,3.777814366603351e-05
0.1367414551904593,0.1636527343144922,4.9552023238835534e-05,4.90894771917583e-05,6.754719542803938e-06,0.001872227023756,5.004056163206642e-05,0.0017370024611128,8.736500376471668e-07,1.0311554667075118e-06,6.078995890654305e-05,1.6346722753227135e-06,2.2498531487894145e-07,6.234515989107514e-05,3.819679803559544e-05
0.1368038003503504,0.1637136206224506,4.828526501795379e-05,4.7834133142827895e-05,6.585022727997669e-06,0.001819833613633,-3.804078741386611e-05,-0.0015733756793673,8.797539230442908e-07,1.0320257634033323e-06,6.088630795836325e-05,1.5928696936187032e-06,2.193316621179783e-07,6.060045933398151e-05,3.819679803559544e-05
0.1368644008096846,0.1637745996410001,4.845679760708751e-05,4.8003662532403527e-05,6.6113249662498805e-06,0.0018223728929304,5.1511288028142026e-06,7.625463355379933e-05,8.852650577040322e-07,1.0328104928930548e-06,6.097901854951181e-05,1.598514985261641e-06,2.202077728793491e-07,6.068501733458299e-05,3.853496612372696e-05
0.136925085827019,0.1638356680960331,5.008922169704501e-05,4.962040648475686e-05,6.8370600774911335e-06,0.0018801645951609,4.902174444316821e-05,0.00173548655347,8.902416910316902e-07,1.033518030005287e-06,6.10684550330365e-05,1.6523521015097491e-06,2.277280479475391e-07,6.260948101886044e-05,3.868493376587096e-05
0.1369876953080377,0.1638968230418132,4.876173788448101e-05,4.8304930578484297e-05,6.658886042172702e-06,0.001827281730199,-3.986437875567575e-05,-0.0015880740228814,8.947363472344705e-07,1.0341559287946334e-06,6.115494578001755e-05,1.6085471428761233e-06,2.2179200606524179e-07,6.08484816156274e-05,3.868493376587096e-05
0.1370485437896533,0.1639580618286188,4.889328870948905e-05,4.843484264966075e-05,6.679797776284264e-06,0.0018295936980254,3.950475225466806e-06,6.942846325508048e-05,8.987963768802842e-07,1.0347310007985389e-06,6.123878680563966e-05,1.6128731841557808e-06,2.2248856632671185e-07,6.092547014424632e-05,3.881673314120287e-05
0.1371094692597978,0.1640193820735537,5.050115791543458e-05,5.002721528523813e-05,6.902512702204606e-06,0.0018873899402079,4.8284360538904735e-05,0.0017356228883649,9.024644667121606e-07,1.0352493900050996e-06,6.132024493488153e-05,1.6658987357347653e-06,2.2990826304503962e-07,6.285008500892531e-05,3.904788674035981e-05
0.1371723193448066,0.1640807816341856,4.912842697318392e-05,4.8666945003662194e-05,6.717946179449847e-06,0.0018341071794098,-4.122315141893859e-05,-0.0016000829068503,9.057791001687576e-07,1.035716637703965e-06,6.139956063197505e-05,1.6206021353173502e-06,2.237592757717825e-07,6.107576907434797e-05,3.904788674035981e-05
0.1372333951138808,0.1641422585849032,4.923049121308642e-05,4.876763926831044e-05,6.734881237091328e-06,0.0018362528768193,3.064992189264285e-06,6.443535764384721e-05,9.08774972163684e-07,1.0361377397877236e-06,6.147695071759274e-05,1.623955228333239e-06,2.2432337811274386e-07,6.114722079808566e-05,3.923518400574705e-05
0.1372945423346792,0.164203811195473,5.082071320489151e-05,5.034248520139172e-05,6.955506768129062e-06,0.0018940943035827,4.7754414168320784e-05,0.0017369797826832,9.11483361232257e-07,1.0365172036091996e-06,6.155261056978167e-05,1.676397140244739e-06,2.3167349659561614e-07,6.307334030930534e-05,3.93184755665809e-05
0.1373576156749885,0.1642654379117993,4.941414677671628e-05,4.8948728041941e-05,6.7660863685707376e-06,0.0018404775188969,-4.223923207733405e-05,-0.0016101136542266,9.139324634865886e-07,1.0368590930981414e-06,6.162671632622962e-05,1.6299854354715666e-06,2.2536281611559162e-07,6.128790137926998e-05,3.9391823937034136e-05
0.1374189035763677,0.1643271373385453,4.9494461192734926e-05,4.902787055248368e-05,6.780088336301131e-06,0.0018425019181718,2.411844324884221e-06,6.079277101622161e-05,9.161477021457642e-07,1.037167073503209e-06,6.169942674608131e-05,1.6326208585434446e-06,2.258292209761581e-07,6.135531387512217e-05,3.9391823937034136e-05
0.1374802588902426,0.1643889082234919,5.1072126853229975e-05,5.059023400649688e-05,6.999311714754532e-06,0.0019004185854857,4.73773471620135e-05,0.001739239258675,9.18151989992566e-07,1.0374444501942692e-06,6.177088494652151e-05,1.684647102935536e-06,2.33132649975261e-07,6.32839388966744e-05,3.9458503809889146e-05
0.1375435428291394,0.1644507494433831,4.964013826410181e-05,4.917132637302945e-05,6.806172903781012e-06,0.0018465161986514,-4.300266033417903e-05,-0.0016186902953238,9.199659887215716e-07,1.0376942037038097e-06,6.184121989119551e-05,1.6373978943969825e-06,2.266980994815301e-07,6.148898941509273e-05,3.9575926151435816e-05
-8.911627092711427e-06,-6.223922229395099e-06,-2.3199967007026927e-06,-2.319996700610569e-06,2.0674945452709583e-11,-9.089152234572224e-06,-0.0001684313332773,0.0003330829131935,-5.501020375825796e-07,-3.2976897500884134e-08,-3.485379842949664e-07,-7.72558901332709e-08,1.4086982747741581e-13,-3.026687694112551e-07,-1.4824102383942564e-05
-9.21429586231426e-06,-6.20434465209364e-06,-2.3268282652703226e-07,-2.326828265171545e-07,2.1440084056692808e-12,4.946539709065366e-06,6.26820983235934e-05,0.0004214922505596,-8.200376983872812e-07,-8.558585941837978e-09,1.9577577301459098e-08,-7.74833812333629e-09,1.4659375634601152e-14,1.647197723118767e-07,-2.252309489840885e-05
-9.049576089825706e-06,-1.747253028223564e-05,0.0001415951119098,0.000141595111904,-1.2813757391577292e-09,-9.591101900416652e-05,0.0042590929350251,-0.0030287555169138,3.745788289420161e-06,1.0735378977645464e-05,-1.1268185630142005e-05,4.715117226567328e-06,-1.6064738778509427e-11,-3.193836932838745e-06,0.0002237216557382
-1.224341302297205e-05,-2.815358084293752e-05,5.388125612060363e-05,5.388125611656519e-05,-6.59690472864609e-10,-0.0003672238966111,-0.0026340497233996,-0.0081475338620715,9.379760879434444e-07,-4.205662433251925e-07,-1.0681050560701876e-05,1.7942458286940231e-06,-1.9948921381190834e-11,-1.222855575715125e-05,4.640555512916874e-07
-2.447196877986002e-05,-2.1477659313018963e-05,-2.89758995131984e-06,-2.8975899504521887e-06,7.090973081845753e-11,8.289495321931309e-05,-0.0017050704526103,0.0135170825774913,-7.02079610481396e-08,4.284591054920859e-07,6.675921529918556e-06,-9.648974536679626e-08,1.529590182557716e-12,2.760401942203126e-06,-2.559173401886397e-06
-2.171156683772324e-05,-1.152933261454495e-05,-2.1427627644549533e-06,-2.1427627639499125e-06,4.652273697419326e-11,0.0002249014800077,2.266748308903561e-05,0.0042644602639159,-1.0181905181656793e-07,6.458865126265166e-07,9.948326698474013e-06,-7.135400005207748e-08,7.65453429686236e-13,7.489219284256871e-06,-2.559173401886397e-06
-1.4222347553438652e-05,-7.717373992526225e-07,-9.723565913738784e-07,-9.723565912755366e-07,1.3829193387930009e-11,0.0002540237131214,3.51473325249572e-05,0.0008745415349471,-1.0993663829023809e-07,6.997963073676198e-07,1.0757595215292327e-05,-3.2379474492530886e-08,8.915427549127557e-14,8.45898964694438e-06,-3.1245878077985505e-06
-5.763357906474198e-06,1.0197320205374806e-05,-2.5802616186934495e-07,-2.580261618650596e-07,1.487097120078648e-12,0.0002634039308721,2.145136424938539e-05,0.000281688220741,-1.120545144077737e-07,7.138883544722318e-07,1.096905760462743e-05,-8.59227119007403e-09,-5.0365599027543616e-14,8.77135089804187e-06,-3.26624941810286e-06
3.0079929915771686e-06,2.122271359015504e-05,3.729789377837808e-07,3.7297893778209337e-07,1.1219180308578176e-12,0.0002729730345709,1.894910209168545e-05,0.0002873604714359,-1.1262581694430033e-07,7.17638668452561e-07,1.1025393384780233e-05,1.2420198626798273e-08,1.8372461443817186e-13,9.0900020512125e-06,-3.26624941810286e-06
1.209799504264808e-05,3.226337700552515e-05,9.827382473828768e-07,9.827382473109592e-07,1.1889162444768688e-11,0.0002631806733348,1.8311090378351228e-05,-0.0002940649019847,-1.1278751290647901e-07,7.186512652148738e-07,1.1040663415370114e-05,3.2725183628539335e-08,7.762212661859236e-13,8.763916422050625e-06,-3.31651348922468e-06
2.086191146455363e-05,4.3308438732018745e-05,1.649281960630609e-06,1.6492819602717091e-06,3.4407174240265405e-11,0.0002592936535725,2.0016327725157124e-05,-0.0001167273201901,-1.12840766407914e-07,7.189390654509177e-07,1.1045061726493596e-05,5.4921089259968643e-08,1.780463703080641e-12,8.634478663965002e-06,-3.320572821239388e-06
2.9496390128613825e-05,5.435502041408496e-05,2.4986590758423546e-06,2.4986590747553915e-06,7.370142288876061e-11,0.000260914958988,2.5506820276629e-05,4.868785031484675e-05,-1.1286530803879088e-07,7.190349567889803e-07,1.1046581682066211e-05,8.32053471550813e-08,3.418078839865274e-12,8.688468134300632e-06,-3.320572821239388e-06
3.8184858262901855e-05,6.540235977498649e-05,3.342964389094572e-06,3.342964386657411e-06,1.2765062134448364e-10,0.0002448051704956,2.5354513911477987e-05,-0.0004837774322024,-1.1288224639402489e-07,7.190800113801942e-07,1.1047339360901537e-05,1.1132071402015765e-07,5.510406428095537e-12,8.152012177505617e-06,-3.321017821602152e-06
4.633687044064416e-05,7.64502547436944e-05,4.429967609337869e-06,4.429967604582065e-06,2.0527083509668263e-10,0.0002337471793293,3.2642739346645576e-05,-0.0003320718067966,-1.1289717011600533e-07,7.191115774796548e-07,1.1047894968707912e-05,1.475179211469828e-07,8.477586556375497e-12,7.78378107166688e-06,-3.321294789833772e-06
5.412065151233492e-05,8.749865157421744e-05,5.933119372162143e-06,5.933119363472956e-06,3.2110428576511567e-10,0.0002259786757844,4.513969257730551e-05,-0.000233288394741,-1.129115589776336e-07,7.191395448235633e-07,1.1048396830523038e-05,1.9757287467358449e-07,1.2866465736434584e-11,7.525089903622498e-06,-3.321294789833772e-06
6.164574141598322e-05,9.854753581069558e-05,7.333812607545046e-06,7.333812593610077e-06,4.5209831531165566e-10,0.000201529600886,4.20628599214085e-05,-0.0007342064534044,-1.129258050004012e-07,7.191665341142891e-07,1.104888423647814e-05,2.4421595919354613e-07,1.7642313878739188e-11,6.710935709506871e-06,-3.321761244730424e-06
6.835667712534743e-05,0.0001095969034211,9.113240884941428e-06,9.113240863650005e-06,6.22950864252319e-10,0.0001808971949069,5.343628460649796e-05,-0.0006195917711461,-1.1294001218443984e-07,7.191932415357536e-07,1.1049367610412904e-05,3.034709205304832e-07,2.3855247533506048e-11,6.02387659040062e-06,-3.322202059005098e-06
7.438055371578045e-05,0.0001206467531535,-0.0001536112587617,-0.0001536112583368,-1.142569047314212e-08,0.0022253553082254,-0.0048866216110119,0.0613951385380938,-1.1295420827058841e-07,7.192198535829007e-07,1.1049849732469957e-05,-5.115254879576809e-06,-6.070382490689129e-10,7.410433176390752e-05,-3.322202059005098e-06
0.0001484848854795,0.0001316970845112,1.0700560572909885e-05,1.0700560454948184e-05,1.5888715053973535e-09,0.0001637296543988,0.0049342888689089,-0.0619106802950924,-1.1296840077713173e-07,7.192464216350854e-07,1.105033135762752e-05,3.563286626043689e-07,5.646042478211444e-11,5.452197491482483e-06,-3.3226478738069027e-06
0.0001539370829712,0.0001427478972142,8.886873669864838e-06,8.88687356457038e-06,1.3680194040704431e-09,0.0001874847912146,-5.446507216351491e-05,0.0007133674719449,-1.1298259185946705e-07,7.19272961122988e-07,1.105081270307706e-05,2.959328892118302e-07,4.8621221913423106e-11,6.243243547447497e-06,-3.3228673129079384e-06
0.0001601803265183,0.0001537991910558,7.450438993869385e-06,7.450438898288682e-06,1.193413745639455e-09,0.0002154918891787,-4.313617645631992e-05,0.0008410539929169,-1.129967822496529e-07,7.192994777573963e-07,1.1051293841531768e-05,2.4809961486765257e-07,4.2426941690255746e-11,7.1758799096531285e-06,-3.3228673129079384e-06
0.0001673562064281,0.0001648509658631,5.8199539387297305e-06,5.819953857226804e-06,9.740054082257607e-10,0.0002276628160818,-4.896351516935898e-05,0.0003654933003933,-1.1301097227033568e-07,7.193259746121554e-07,1.1051774807353572e-05,1.9380446307564745e-07,3.4572045316154286e-11,7.581171775526257e-06,-3.32331267936766e-06
0.0001749373782038,0.0001759032214843,4.679069569662193e-06,4.679069498065209e-06,8.18544158775092e-10,0.0002426869793488,-3.4260791863890005e-05,0.0004511760740825,-1.1302516213316377e-07,7.193524537763299e-07,1.105225562121292e-05,1.5581301396776525e-07,2.9015116314870777e-11,8.08147641231563e-06,-3.32331267936766e-06
0.0001830188546159,0.0001869559577861,3.864345424797276e-06,3.864345360077409e-06,7.072480695383219e-10,0.0002627137230722,-2.4466190536484007e-05,0.0006014037154181,-1.1303935201680857e-07,7.193789171368178e-07,1.105273630174866e-05,1.286827002079732e-07,2.5045831038577388e-11,8.748366978305613e-06,-3.323757884727285e-06
0.0001917672215943,0.0001980091746495,3.015334145009029e-06,3.0153340895650744e-06,5.78242247622718e-10,0.000264804894688,-2.549583422787527e-05,6.279794642110532e-05,-1.130535420565734e-07,7.194053662426762e-07,1.1053216863412906e-05,1.0041062495108405e-07,2.042509202748956e-11,8.818002993112513e-06,-3.323977120541936e-06
0.0002005852245874,0.0002090628719689,2.443655350409889e-06,2.4436553012503456e-06,4.901611539893623e-10,0.0002725084800494,-1.716753136934356e-05,0.0002313388997426,-1.1306773237650285e-07,7.194318025167581e-07,1.105369731940601e-05,8.13737213334909e-08,1.7280679431219207e-11,9.074532385648124e-06,-3.323977120541936e-06
0.0002096597569729,0.000220117049652,2.044728571639656e-06,2.0447285266993706e-06,4.2869729226490965e-10,0.000287207654515,-1.1979783146253229e-05,0.0004414166506185,-1.1308192310755496e-07,7.194582272861606e-07,1.1054177683075889e-05,6.808945976229649e-08,1.509415250837181e-11,9.564014895352508e-06,-3.324422167909326e-06
0.0002192237718685,0.000231171707617,1.6195355623333404e-06,1.6195355234166605e-06,3.5504069180616326e-10,0.0002837910292844,-1.2768558838027496e-05,-0.0001026013582772,-1.1309611435382505e-07,7.194846417540907e-07,1.1054657965005076e-05,5.393053278425892e-08,1.246810867760728e-11,9.450241275172489e-06,-3.324422167909326e-06
0.0002286740131434,0.0002422268457924,1.3315165428558285e-06,1.3315165080421272e-06,3.0448322876802525e-10,0.0002878117638978,-8.649219804129494e-06,0.0001207427811832,-1.13110306217655e-07,7.195110469706761e-07,1.1055138175468946e-05,4.433949959243316e-08,1.0672762066321335e-11,9.584131737798752e-06,-3.3248605111678605e-06
0.0002382581448814,0.0002572565436478,1.1285242626216506e-06,1.1285242305902143e-06,2.6888009472200286e-10,0.0002999779186856,-6.095864271296626e-06,0.0003653499936287,0.0001967421950692,9.804999498764782e-07,1.502969785537663e-05,3.7579856766145566e-08,9.41346078525188e-12,9.989264692233755e-06,-3.325086110959697e-06
0.0002406592661725,0.0004092381740669,0.2180174855128203,0.2180174791993738,5.246792756983904e-05,-2.490680186807416e-06,0.3536042600984272,-0.0006881224929022,0.0059287991426657,1.7285822647411368e-06,2.639195383396316e-05,0.0072599820445719,1.7994417758359388e-06,-8.293965022068694e-08,0.1697355392869529
0.0002405763265227,0.0004113141014184,0.2180145282953138,0.2180145219863038,5.2449133839942966e-05,1.3587646786308284e-05,-8.88053305275132e-05,0.0004828326418353,0.0063320559376549,1.245614171068013e-07,2.0759273514894187e-06,0.0072598835689021,1.800756070100692e-06,4.524686379840659e-07,0.1832131910771893
0.0002410287951604,0.0002818361806651,0.2246213806568055,0.2246213741321294,5.414022022276695e-05,7.96390433266903e-06,0.1984039748195703,-0.0001688811547639,0.0065068279662245,-8.55057729686153e-06,-0.0001294779207533,0.0074798917451053,1.8580116394552832e-06,2.651980142778787e-07,0.1907480439228278
0.0002412939931746,0.0002523757433051,0.2180116591615558,0.2180116528149322,5.26049032872507e-05,-1.2348583507089356e-06,-0.1984901349924822,-0.0002762391196209,0.0065130535409156,-9.695518965486885e-07,-2.946043735997222e-05,0.0072597880259,1.8041515216914904e-06,-4.112078307860757e-08,0.1907480439228278
0.0002412528723918,0.0003883967335243,0.2179946344290354,0.2179946280850702,5.25918312118496e-05,0.0001110846192582,-0.0005112532288403,0.0033729572855545,0.0066573181631986,8.963380172018664e-06,0.0001360209902191,0.0072592210990112,1.8172867187750864e-06,3.699117821300002e-06,0.1931306901232689
0.0002449519902132,0.0004529243797681,0.2246246735205986,0.2246246667816924,5.502226027963329e-05,5.434513659531183e-06,0.1991002730199135,-0.0031726758438056,0.0069985103225479,4.244981653025023e-06,6.452764624380948e-05,0.0074800013901997,1.8870726725758624e-06,1.809693048623884e-07,0.1931306901232689
0.0002451329595176,0.0005050096408243,0.2180177965182363,0.2180177899678734,5.344334715279956e-05,7.641686359769992e-06,-0.1984047147856526,6.62814624696339e-05,0.0074117451830906,3.712327254291673e-06,5.2085261056210015e-05,0.0072599923926232,1.8331466829669728e-06,2.544681557803408e-07,0.2137815629719955
0.0002453874276735,0.0005584899667185,0.2174894041209034,0.2174893975728424,5.3369164887877525e-05,0.0014391029175618,-0.0158676395595458,0.0429868237598218,0.0074658405532042,4.580583604248898e-06,5.348032589417304e-05,0.0072423968795082,2.003159480397263e-06,4.792212715480915e-05,0.2194891787036842
0.0003456540387896,0.0005849103522102,0.2067949763531776,0.2067949639995855,7.147951735452166e-05,-0.000896122163738,-0.5227353421320411,-0.0741149726425901,0.0071726951462691,4.861413934835904e-06,2.642038549173368e-05,0.0068862723190104,2.3273744087901744e-06,-2.9840868052477547e-05,0.2196876869415207
0.000315813170737,0.0006071361110825,0.2065015054754283,0.2065014951774091,6.52158941220826e-05,0.0007034746131013,-0.0088129392717493,0.0480359392444274,0.0070856821476101,4.946329580737264e-06,2.222575887227054e-05,0.006876499746857,2.302014585562588e-06,2.342570461627557e-05,0.2086007454014209
0.0003392388753535,0.0006186172139855,0.2129309892791574,0.2129309770267874,7.223446794549462e-05,0.0003815768126319,0.1930775917035748,-0.0096666006146975,0.0070913098833589,4.980047424581104e-06,1.148110290302858e-05,0.0070906015015933,2.5017880194453684e-06,1.2706507860643644e-05,0.2084788809666905
0.0003519453832141,-0.0012367571269301,0.2068094261069954,0.2068094132987135,7.278562122091915e-05,-0.0560106825673867,-0.1838307258907508,-1.6934612426432032,0.0071135751564515,-4.200981688537014e-07,-0.0018553743409157,0.0068867517590144,-3.948816099065121e-06,-0.0018651557294939,0.2084788809666905
-0.00151321034628,-0.0031964313213692,0.2070027164300625,0.207002479432123,-0.0003132385326674,-0.0570440033866514,0.0058045142062196,-0.0310306552331736,0.0071208138841988,-1.4934774858827488e-05,-0.001959674194439,0.006893168635288,-1.6927957593248693e-05,-0.0018995653127754,0.2093553350253475
-0.0034127756590551,-0.0051574647710941,0.2134141354783557,0.2134128926583212,-0.0007283331530363,-0.0589275104981764,0.1925351065553514,-0.0565617751208712,0.0071272436688212,-2.956458846755047e-05,-0.0019610334497249,0.007106621194485,-3.117466796339901e-05,-0.0019622860995892,0.2096355992398809
-0.0053750617586447,-0.0062116171158699,0.2178988395539514,0.2178956918723666,-0.0011712140800731,-0.0105414918911747,0.1346757980659378,1.4530335918018524,0.0074098143117908,-4.1826951272804725e-05,-0.0010541523447758,0.0072559198363421,-4.0222429434566014e-05,-0.0003510316799761,0.2096355992398809
-0.0057260934386209,-0.0084144454866703,0.2184602404616218,0.2184566590182704,-0.0012509169136062,-0.0636422736472294,0.0168588861162274,-1.594618070752392,0.0075186256723932,-5.78620121300724e-05,-0.0022028283708003,0.007274557516968,-4.931132791542837e-05,-0.0021192877124527,0.2206408191458709
-0.0078453811510734,-0.010483837219988,0.2248654695549536,0.2248585493550153,-0.0017641372191345,-0.0662008064670525,0.1923492220219767,-0.0768328174121063,0.0075011380238974,-7.597691603701642e-05,-0.0020693917333177,0.0074877193614368,-6.694487869787041e-05,-0.0022044868553528,0.2203748920261092
-0.0100498680064262,-0.0120181270556203,0.2179284590226036,0.2179174537447284,-0.0021901153807002,-0.066316057039831,-0.2083186346051048,-0.0034609781615157,0.0074485739275887,-8.865600611530002e-05,-0.0015342898356322,0.0072565653699533,-8.089076736332552e-05,-0.0022083246994263,0.2203748920261092
-0.0122581927058527,-0.0141938216064121,0.2175187663302863,0.2175024239923655,-0.002666320178639,-0.0653292001994819,-0.0123030838533716,0.029635340551022,0.0074568560228241,-9.366520510549996e-05,-0.0021756945507918,0.0072427291276796,-9.661420847200476e-05,-0.0021754623666427,0.2201417099047249
-0.0144336550724952,-0.0163740424921377,0.224093319091352,0.2240699767713373,-0.0032343733660367,-0.0680191351641418,0.1974340168488196,-0.0807788277675649,0.007470197257253,-0.0001137446323878,-0.0021802208857256,0.0074614027096396,-0.0001161008429174,-0.0022650372009659,0.2201417099047249
-0.0166986922734615,-0.0181533758554868,0.2174617523220843,0.217431433821527,-0.0036311581219352,-0.0518532520415964,-0.1991461492272585,0.4854619556319965,0.0074761619229019,-0.0001266893738517,-0.001779333363349,0.0072403596737814,-0.000127116192899,-0.0017267132929851,0.2198616269998907
-0.0184254055664467,-0.0199395280216879,0.2175604788718025,0.2175235495071765,-0.0040084132430363,-0.0519594845182266,0.0029647612527965,-0.0031901644633709,0.0074812256999357,-0.0001411440375068,-0.001786152166201,0.00724341611879,-0.0001396942202374,-0.0017302508344569,0.2201178082396665
-0.0201556564009033,-0.0216803638184099,0.2243320526754914,0.2242864867155275,-0.0045212536320133,-0.0539461609315182,0.2033505646753447,-0.0596599523510995,0.0074868196250874,-0.0001545910904798,-0.001740835796722,0.0074686018974423,-0.0001572120438234,-0.0017964071590195,0.2201178082396665
-0.0219520635599232,-0.0231999253359147,0.2179180801092615,0.2178655756087854,-0.0047833673451996,-0.0443843024248653,-0.1926117887756739,0.2871428980976855,0.0074906357656081,-0.0001669285810544,-0.0015195615175047,0.007254804505954,-0.0001645949317356,-0.001477997270748,0.2204166385609172
-0.023430060830671,-0.0247377466388289,0.2180943837309889,0.2180345230779082,-0.0051094971561752,-0.0446288460756479,0.0052944030548771,-0.0073436531766559,0.0074968581417169,-0.0001785473433478,-0.0015378213029141,0.0072604217858931,-0.0001754887291193,-0.001486140574319,0.2206031161603357
-0.0249162014049901,-0.026224951612951,0.2248866842564167,0.2248168811190514,-0.0056027421632261,-0.0464308580827162,0.2039729887515843,-0.0541144746867331,0.0075024278955501,-0.0001903454078768,-0.001487204974122,0.0074862563174736,-0.0001923045836445,-0.0015461475741544,0.2206031161603357
-0.0264623489791446,-0.0275403627991754,0.2184461716775102,0.2183696920288617,-0.0057799242019572,-0.038343997217818,-0.1934087861533471,0.2428486746215653,0.0075062908077861,-0.0002011191994285,-0.0013154111862243,0.0072715873163678,-0.0001970612414185,-0.0012768551073533,0.2207914103437063
-0.0277392040864978,-0.0288561578959496,0.2185828476081634,0.2184987572451201,-0.0060625366664199,-0.0382851339596534,0.0041043823018977,0.0017676654103491,0.0075105132612039,-0.0002116386200285,-0.0013157950967742,0.0072758794506869,-0.0002064678158837,-0.0012748949608564,0.2210155760535691
-0.0290140990473544,-0.0302662350587287,0.2252695776959755,0.2251747663610945,-0.0065350768587419,-0.0389535439796648,0.2008027053397024,-0.0200723729733154,0.0074770413971384,-0.0002203864981601,-0.0014100771627791,0.0074981780855361,-0.0002224269492366,-0.0012971530145228,0.2210155760535691
-0.0303112520618773,-0.0321821795260177,0.2059223670191496,0.2058277764090934,-0.0062408090226839,-0.0169699647568047,-0.5809973176223995,0.6601675442300319,0.0071827751379482,-0.0002265873039936,-0.0019159444672889,0.0068540073887362,-0.0002097059257608,-0.0005650998264015,0.2105637908429189
-0.030876351888279,-0.033764914171803,0.2068868563645873,0.2067882464993246,-0.0063868964416199,-0.0464452723315647,0.0289636440071378,-0.8851443716144138,0.0070943657020562,-0.0002313490689185,-0.0015827346457853,0.0068858829700338,-0.0002179587921594,-0.0015466275686411,0.2087064302207495
-0.0324229794569199,-0.0357306749389989,0.2127607395436242,0.2126489170194176,-0.0068971285053094,-0.0466863573936646,0.1763928882593678,-0.0072397916546523,0.0070521899069194,-0.0002396526220946,-0.0019657607671958,0.0070810292543704,-0.0002351274439749,-0.001554655701209,0.2087064302207495
-0.0339776351581289,-0.0379316119904428,0.2062887512073683,0.2061696845761612,-0.0070078553396677,-0.0366877770631307,-0.1943540040917686,0.3002576675836014,0.0069952650451469,-0.0002560251778761,-0.0022009370514439,0.0068653079588694,-0.0002375055940404,-0.0012217029762022,0.2075794671390259
-0.0351993381343311,-0.0394926970757862,0.2060933827459226,0.2059657217566383,-0.0072528527438816,-0.0370367158087514,-0.0058669207641356,-0.0104786410096286,0.0070483299052492,-0.0002739144977993,-0.0015610850853433,0.0068585096386126,-0.0002456997523862,-0.0012333226364314,0.2075643243598287
-0.0364326607707625,-0.0411215711376067,0.2122340014365448,0.2120931638065509,-0.007730538939482,-0.0392592579088161,0.184402963682347,-0.0667430060079493,0.0071353083479389,-0.0002851795906781,-0.0016288740618205,0.0070625339683976,-0.0002619923969934,-0.0013073332883635,0.2075643243598287
